{"condition": 0, "counterbalance": 398, "assignmentId": "3BF51CHDTWHFR4R8766P2NJMOAL0HP", "workerId": "MTK1019", "hitId": "3P0I4CQYVYEG4RGMEOPY47T7LSFWO3", "currenttrial": 626, "bonus": 0, "data": [{"uniqueid": "MTK1019:3BF51CHDTWHFR4R8766P2NJMOAL0HP", "current_trial": 0, "dateTime": 1513006799024, "trialdata": {"rt": 1668, "key_press": 32, "type": "INSTRUCTIONS", "trial_type": "text", "trial_index": 0, "time_elapsed": 1673, "internal_node_id": "0.0-0.0"}}, {"uniqueid": "MTK1019:3BF51CHDTWHFR4R8766P2NJMOAL0HP", "current_trial": 1, "dateTime": 1513006816812, "trialdata": {"rt": 17783, "key_press": 175, "type": "INSTRUCTIONS", "trial_type": "text", "trial_index": 1, "time_elapsed": 19462, "internal_node_id": "0.0-1.0"}}, {"uniqueid": "MTK1019:3BF51CHDTWHFR4R8766P2NJMOAL0HP", "current_trial": 2, "dateTime": 1513006825588, "trialdata": {"rt": [8758], "responses": ["ocean"], "type": "AUDIO_TEST", "trial_type": "audio-test", "trial_index": 2, "time_elapsed": 28239, "internal_node_id": "0.0-2.0"}}, {"uniqueid": "MTK1019:3BF51CHDTWHFR4R8766P2NJMOAL0HP", "current_trial": 3, "dateTime": 1513006847786, "trialdata": {"rt": [22194], "responses": ["crystal"], "type": "AUDIO_TEST", "trial_type": "audio-test", "trial_index": 3, "time_elapsed": 50437, "internal_node_id": "0.0-3.0"}}, {"uniqueid": "MTK1019:3BF51CHDTWHFR4R8766P2NJMOAL0HP", "current_trial": 4, "dateTime": 1513006852624, "trialdata": {"rt": [4835], "responses": ["spice"], "type": "AUDIO_TEST", "trial_type": "audio-test", "trial_index": 4, "time_elapsed": 55275, "internal_node_id": "0.0-4.0"}}, {"uniqueid": "MTK1019:3BF51CHDTWHFR4R8766P2NJMOAL0HP", "current_trial": 5, "dateTime": 1513006876427, "trialdata": {"rt": 23048, "responses": "{\"Q0\":\"9:00pm\",\"Q1\":\"3:00am\",\"Q2\":\"5\"}", "type": "SLEEP_SURVEY", "trial_type": "survey-text", "trial_index": 5, "time_elapsed": 79078, "internal_node_id": "0.0-5.0"}}, {"uniqueid": "MTK1019:3BF51CHDTWHFR4R8766P2NJMOAL0HP", "current_trial": 6, "dateTime": 1513006935588, "trialdata": {"rt": 58157, "key_press": 32, "type": "INSTRUCTIONS", "trial_type": "text", "trial_index": 6, "time_elapsed": 138239, "internal_node_id": "0.0-6.0"}}, {"uniqueid": "MTK1019:3BF51CHDTWHFR4R8766P2NJMOAL0HP", "current_trial": 7, "dateTime": 1513006950309, "trialdata": {"rt": 14218, "key_press": 32, "type": "INSTRUCTIONS", "trial_type": "text", "trial_index": 7, "time_elapsed": 152960, "internal_node_id": "0.0-7.0"}}, {"uniqueid": "MTK1019:3BF51CHDTWHFR4R8766P2NJMOAL0HP", "current_trial": 8, "dateTime": 1513006963302, "trialdata": {"rt": 12491, "key_press": 32, "type": "INSTRUCTIONS", "trial_type": "text", "trial_index": 8, "time_elapsed": 165952, "internal_node_id": "0.0-8.0"}}, {"uniqueid": "MTK1019:3BF51CHDTWHFR4R8766P2NJMOAL0HP", "current_trial": 9, "dateTime": 1513006982310, "trialdata": {"rt": [5396, 7979, 11329, 14294, 17958], "responses": ["9", "17", "14", "10", "11"], "num1": [2, 8, 9, 1, 4, 4], "num2": [6, 1, 3, 2, 2, 9], "num3": [1, 8, 2, 7, 5, 4], "type": "DISTRACTOR", "conditions": [18, 1200, "a", 18000], "trial": 0, "trial_type": "math-distractor", "trial_index": 9, "time_elapsed": 184960, "internal_node_id": "0.0-9.0"}}, {"uniqueid": "MTK1019:3BF51CHDTWHFR4R8766P2NJMOAL0HP", "current_trial": 10, "dateTime": 1513006985314, "trialdata": {"rt": -1, "stimulus": "<p id=\"stim\">10</p>", "key_press": -1, "trial_type": "single-stim", "trial_index": 10, "time_elapsed": 187965, "internal_node_id": "0.0-10.0-0.0"}}, {"uniqueid": "MTK1019:3BF51CHDTWHFR4R8766P2NJMOAL0HP", "current_trial": 11, "dateTime": 1513006986317, "trialdata": {"rt": -1, "stimulus": "<p id=\"stim\">9</p>", "key_press": -1, "trial_type": "single-stim", "trial_index": 11, "time_elapsed": 188968, "internal_node_id": "0.0-10.0-1.0"}}, {"uniqueid": "MTK1019:3BF51CHDTWHFR4R8766P2NJMOAL0HP", "current_trial": 12, "dateTime": 1513006987320, "trialdata": {"rt": -1, "stimulus": "<p id=\"stim\">8</p>", "key_press": -1, "trial_type": "single-stim", "trial_index": 12, "time_elapsed": 189971, "internal_node_id": "0.0-10.0-2.0"}}, {"uniqueid": "MTK1019:3BF51CHDTWHFR4R8766P2NJMOAL0HP", "current_trial": 13, "dateTime": 1513006988324, "trialdata": {"rt": -1, "stimulus": "<p id=\"stim\">7</p>", "key_press": -1, "trial_type": "single-stim", "trial_index": 13, "time_elapsed": 190975, "internal_node_id": "0.0-10.0-3.0"}}, {"uniqueid": "MTK1019:3BF51CHDTWHFR4R8766P2NJMOAL0HP", "current_trial": 14, "dateTime": 1513006989326, "trialdata": {"rt": -1, "stimulus": "<p id=\"stim\">6</p>", "key_press": -1, "trial_type": "single-stim", "trial_index": 14, "time_elapsed": 191976, "internal_node_id": "0.0-10.0-4.0"}}, {"uniqueid": "MTK1019:3BF51CHDTWHFR4R8766P2NJMOAL0HP", "current_trial": 15, "dateTime": 1513006990328, "trialdata": {"rt": -1, "stimulus": "<p id=\"stim\">5</p>", "key_press": -1, "trial_type": "single-stim", "trial_index": 15, "time_elapsed": 192978, "internal_node_id": "0.0-10.0-5.0"}}, {"uniqueid": "MTK1019:3BF51CHDTWHFR4R8766P2NJMOAL0HP", "current_trial": 16, "dateTime": 1513006991330, "trialdata": {"rt": -1, "stimulus": "<p id=\"stim\">4</p>", "key_press": -1, "trial_type": "single-stim", "trial_index": 16, "time_elapsed": 193980, "internal_node_id": "0.0-10.0-6.0"}}, {"uniqueid": "MTK1019:3BF51CHDTWHFR4R8766P2NJMOAL0HP", "current_trial": 17, "dateTime": 1513006992332, "trialdata": {"rt": -1, "stimulus": "<p id=\"stim\">3</p>", "key_press": -1, "trial_type": "single-stim", "trial_index": 17, "time_elapsed": 194983, "internal_node_id": "0.0-10.0-7.0"}}, {"uniqueid": "MTK1019:3BF51CHDTWHFR4R8766P2NJMOAL0HP", "current_trial": 18, "dateTime": 1513006993334, "trialdata": {"rt": -1, "stimulus": "<p id=\"stim\">2</p>", "key_press": -1, "trial_type": "single-stim", "trial_index": 18, "time_elapsed": 195984, "internal_node_id": "0.0-10.0-8.0"}}, {"uniqueid": "MTK1019:3BF51CHDTWHFR4R8766P2NJMOAL0HP", "current_trial": 19, "dateTime": 1513006994337, "trialdata": {"rt": -1, "stimulus": "<p id=\"stim\">1</p>", "key_press": -1, "trial_type": "single-stim", "trial_index": 19, "time_elapsed": 196988, "internal_node_id": "0.0-10.0-9.0"}}, {"uniqueid": "MTK1019:3BF51CHDTWHFR4R8766P2NJMOAL0HP", "current_trial": 20, "dateTime": 1513006995839, "trialdata": {"rt": -1, "stimulus": "<p id=\"stim\">+</p>", "key_press": -1, "type": "FIXATION", "trial_type": "single-stim", "trial_index": 20, "time_elapsed": 198490, "internal_node_id": "0.0-11.0-0.0"}}, {"uniqueid": "MTK1019:3BF51CHDTWHFR4R8766P2NJMOAL0HP", "current_trial": 21, "dateTime": 1513006997971, "trialdata": {"rt": -1000, "stimulus": "/static/audio/wordpool/QUEEN.wav", "key_press": -1, "type": "PRES_AUD", "word": "queen", "wordID": 1148, "conditions": [18, 1200, "a", 18000], "trial": 0, "serialpos": 0, "trial_type": "single-audio", "trial_index": 21, "time_elapsed": 200622, "internal_node_id": "0.0-12.0"}}, {"uniqueid": "MTK1019:3BF51CHDTWHFR4R8766P2NJMOAL0HP", "current_trial": 22, "dateTime": 1513006999976, "trialdata": {"rt": 558.6666666666815, "stimulus": "/static/audio/wordpool/GANGSTER.wav", "key_press": 175, "type": "PRES_AUD", "word": "gangster", "wordID": 619, "conditions": [18, 1200, "a", 18000], "trial": 0, "serialpos": 1, "trial_type": "single-audio", "trial_index": 22, "time_elapsed": 202626, "internal_node_id": "0.0-13.0"}}, {"uniqueid": "MTK1019:3BF51CHDTWHFR4R8766P2NJMOAL0HP", "current_trial": 23, "dateTime": 1513007002209, "trialdata": {"rt": -1000, "stimulus": "/static/audio/wordpool/TWEEZERS.wav", "key_press": -1, "type": "PRES_AUD", "word": "tweezers", "wordID": 1525, "conditions": [18, 1200, "a", 18000], "trial": 0, "serialpos": 2, "trial_type": "single-audio", "trial_index": 23, "time_elapsed": 204860, "internal_node_id": "0.0-14.0"}}, {"uniqueid": "MTK1019:3BF51CHDTWHFR4R8766P2NJMOAL0HP", "current_trial": 24, "dateTime": 1513007004326, "trialdata": {"rt": 910.6666666666854, "stimulus": "/static/audio/wordpool/MUFFIN.wav", "key_press": 174, "type": "PRES_AUD", "word": "muffin", "wordID": 928, "conditions": [18, 1200, "a", 18000], "trial": 0, "serialpos": 3, "trial_type": "single-audio", "trial_index": 24, "time_elapsed": 206977, "internal_node_id": "0.0-15.0"}}, {"uniqueid": "MTK1019:3BF51CHDTWHFR4R8766P2NJMOAL0HP", "current_trial": 25, "dateTime": 1513007006714, "trialdata": {"rt": 129.33333333333508, "stimulus": "/static/audio/wordpool/MACHINE.wav", "key_press": 174, "type": "PRES_AUD", "word": "machine", "wordID": 851, "conditions": [18, 1200, "a", 18000], "trial": 0, "serialpos": 4, "trial_type": "single-audio", "trial_index": 25, "time_elapsed": 209365, "internal_node_id": "0.0-16.0"}}, {"uniqueid": "MTK1019:3BF51CHDTWHFR4R8766P2NJMOAL0HP", "current_trial": 26, "dateTime": 1513007008760, "trialdata": {"rt": 1150.666666666666, "stimulus": "/static/audio/wordpool/CUPBOARD.wav", "key_press": 174, "type": "PRES_AUD", "word": "cupboard", "wordID": 424, "conditions": [18, 1200, "a", 18000], "trial": 0, "serialpos": 5, "trial_type": "single-audio", "trial_index": 26, "time_elapsed": 211411, "internal_node_id": "0.0-17.0"}}, {"uniqueid": "MTK1019:3BF51CHDTWHFR4R8766P2NJMOAL0HP", "current_trial": 27, "dateTime": 1513007010977, "trialdata": {"rt": -1000, "stimulus": "/static/audio/wordpool/PARENT.wav", "key_press": -1, "type": "PRES_AUD", "word": "parent", "wordID": 1012, "conditions": [18, 1200, "a", 18000], "trial": 0, "serialpos": 6, "trial_type": "single-audio", "trial_index": 27, "time_elapsed": 213628, "internal_node_id": "0.0-18.0"}}, {"uniqueid": "MTK1019:3BF51CHDTWHFR4R8766P2NJMOAL0HP", "current_trial": 28, "dateTime": 1513007013292, "trialdata": {"rt": -1000, "stimulus": "/static/audio/wordpool/MILDEW.wav", "key_press": -1, "type": "PRES_AUD", "word": "mildew", "wordID": 892, "conditions": [18, 1200, "a", 18000], "trial": 0, "serialpos": 7, "trial_type": "single-audio", "trial_index": 28, "time_elapsed": 215943, "internal_node_id": "0.0-19.0"}}, {"uniqueid": "MTK1019:3BF51CHDTWHFR4R8766P2NJMOAL0HP", "current_trial": 29, "dateTime": 1513007015416, "trialdata": {"rt": 1710.6666666666683, "stimulus": "/static/audio/wordpool/ROBBER.wav", "key_press": 175, "type": "PRES_AUD", "word": "robber", "wordID": 1196, "conditions": [18, 1200, "a", 18000], "trial": 0, "serialpos": 8, "trial_type": "single-audio", "trial_index": 29, "time_elapsed": 218067, "internal_node_id": "0.0-20.0"}}, {"uniqueid": "MTK1019:3BF51CHDTWHFR4R8766P2NJMOAL0HP", "current_trial": 30, "dateTime": 1513007017514, "trialdata": {"rt": 460.00000000000796, "stimulus": "/static/audio/wordpool/NECKLACE.wav", "key_press": 174, "type": "PRES_AUD", "word": "necklace", "wordID": 939, "conditions": [18, 1200, "a", 18000], "trial": 0, "serialpos": 9, "trial_type": "single-audio", "trial_index": 30, "time_elapsed": 220165, "internal_node_id": "0.0-21.0"}}, {"uniqueid": "MTK1019:3BF51CHDTWHFR4R8766P2NJMOAL0HP", "current_trial": 31, "dateTime": 1513007019557, "trialdata": {"rt": 670.6666666666763, "stimulus": "/static/audio/wordpool/PIMPLE.wav", "key_press": 175, "type": "PRES_AUD", "word": "pimple", "wordID": 1070, "conditions": [18, 1200, "a", 18000], "trial": 0, "serialpos": 10, "trial_type": "single-audio", "trial_index": 31, "time_elapsed": 222208, "internal_node_id": "0.0-22.0"}}, {"uniqueid": "MTK1019:3BF51CHDTWHFR4R8766P2NJMOAL0HP", "current_trial": 32, "dateTime": 1513007021860, "trialdata": {"rt": -1000, "stimulus": "/static/audio/wordpool/BRICK.wav", "key_press": -1, "type": "PRES_AUD", "word": "brick", "wordID": 171, "conditions": [18, 1200, "a", 18000], "trial": 0, "serialpos": 11, "trial_type": "single-audio", "trial_index": 32, "time_elapsed": 224510, "internal_node_id": "0.0-23.0"}}, {"uniqueid": "MTK1019:3BF51CHDTWHFR4R8766P2NJMOAL0HP", "current_trial": 33, "dateTime": 1513007024220, "trialdata": {"rt": -1000, "stimulus": "/static/audio/wordpool/STICKER.wav", "key_press": -1, "type": "PRES_AUD", "word": "sticker", "wordID": 1381, "conditions": [18, 1200, "a", 18000], "trial": 0, "serialpos": 12, "trial_type": "single-audio", "trial_index": 33, "time_elapsed": 226871, "internal_node_id": "0.0-24.0"}}, {"uniqueid": "MTK1019:3BF51CHDTWHFR4R8766P2NJMOAL0HP", "current_trial": 34, "dateTime": 1513007026420, "trialdata": {"rt": -1000, "stimulus": "/static/audio/wordpool/SHOULDER.wav", "key_press": -1, "type": "PRES_AUD", "word": "shoulder", "wordID": 1293, "conditions": [18, 1200, "a", 18000], "trial": 0, "serialpos": 13, "trial_type": "single-audio", "trial_index": 34, "time_elapsed": 229071, "internal_node_id": "0.0-25.0"}}, {"uniqueid": "MTK1019:3BF51CHDTWHFR4R8766P2NJMOAL0HP", "current_trial": 35, "dateTime": 1513007028655, "trialdata": {"rt": -1000, "stimulus": "/static/audio/wordpool/SLIDE.wav", "key_press": -1, "type": "PRES_AUD", "word": "slide", "wordID": 1325, "conditions": [18, 1200, "a", 18000], "trial": 0, "serialpos": 14, "trial_type": "single-audio", "trial_index": 35, "time_elapsed": 231306, "internal_node_id": "0.0-26.0"}}, {"uniqueid": "MTK1019:3BF51CHDTWHFR4R8766P2NJMOAL0HP", "current_trial": 36, "dateTime": 1513007030707, "trialdata": {"rt": 780.0000000000011, "stimulus": "/static/audio/wordpool/ACTOR.wav", "key_press": 175, "type": "PRES_AUD", "word": "actor", "wordID": 4, "conditions": [18, 1200, "a", 18000], "trial": 0, "serialpos": 15, "trial_type": "single-audio", "trial_index": 36, "time_elapsed": 233358, "internal_node_id": "0.0-27.0"}}, {"uniqueid": "MTK1019:3BF51CHDTWHFR4R8766P2NJMOAL0HP", "current_trial": 37, "dateTime": 1513007032884, "trialdata": {"rt": -1000, "stimulus": "/static/audio/wordpool/COOKBOOK.wav", "key_press": -1, "type": "PRES_AUD", "word": "cookbook", "wordID": 372, "conditions": [18, 1200, "a", 18000], "trial": 0, "serialpos": 16, "trial_type": "single-audio", "trial_index": 37, "time_elapsed": 235534, "internal_node_id": "0.0-28.0"}}, {"uniqueid": "MTK1019:3BF51CHDTWHFR4R8766P2NJMOAL0HP", "current_trial": 38, "dateTime": 1513007035109, "trialdata": {"rt": 1150.666666666666, "stimulus": "/static/audio/wordpool/COSTUME.wav", "key_press": 174, "type": "PRES_AUD", "word": "costume", "wordID": 382, "conditions": [18, 1200, "a", 18000], "trial": 0, "serialpos": 17, "trial_type": "single-audio", "trial_index": 38, "time_elapsed": 237760, "internal_node_id": "0.0-29.0"}}, {"uniqueid": "MTK1019:3BF51CHDTWHFR4R8766P2NJMOAL0HP", "current_trial": 39, "dateTime": 1513007036493, "trialdata": {"rt": -1, "stimulus": "", "key_press": -1, "type": "PRE_RECALL_DELAY", "trial_type": "single-stim", "trial_index": 39, "time_elapsed": 239143, "internal_node_id": "0.0-30.0-0.0"}}, {"uniqueid": "MTK1019:3BF51CHDTWHFR4R8766P2NJMOAL0HP", "current_trial": 40, "dateTime": 1513007036996, "trialdata": {"rt": 398.66666666668493, "stimulus": "/static/audio/400Hz.wav", "key_press": 174, "type": "PRE_RECALL_ALERT", "trial_type": "single-audio", "trial_index": 40, "time_elapsed": 239647, "internal_node_id": "0.0-31.0"}}, {"uniqueid": "MTK1019:3BF51CHDTWHFR4R8766P2NJMOAL0HP", "current_trial": 41, "dateTime": 1513007097010, "trialdata": {"rt": [2850, 5061, 7279, 10635, 15706, 17714, 28920], "recwords": ["cookbook", "costume", "actor", "gangster", "actor", "parent", "gangster"], "type": "FREE_RECALL", "conditions": [18, 1200, "a", 18000], "trial": 0, "trial_type": "free-recall", "trial_index": 41, "time_elapsed": 299656, "internal_node_id": "0.0-32.0-0.0"}}, {"uniqueid": "MTK1019:3BF51CHDTWHFR4R8766P2NJMOAL0HP", "current_trial": 42, "dateTime": 1513007100350, "trialdata": {"rt": 1339, "key_press": 32, "type": "INSTRUCTIONS", "trial_type": "text", "trial_index": 42, "time_elapsed": 303001, "internal_node_id": "0.0-33.0"}}, {"uniqueid": "MTK1019:3BF51CHDTWHFR4R8766P2NJMOAL0HP", "current_trial": 43, "dateTime": 1513007120354, "trialdata": {"rt": [3983, 6355, 8272, 10500, 13283, 16751], "responses": ["21", "6", "8", "12", "14", "14"], "num1": [7, 3, 2, 4, 5, 4, 7], "num2": [8, 1, 5, 5, 6, 2, 4], "num3": [6, 2, 1, 3, 3, 8, 7], "type": "DISTRACTOR", "conditions": [18, 1200, "v", 18000], "trial": 1, "trial_type": "math-distractor", "trial_index": 43, "time_elapsed": 323005, "internal_node_id": "0.0-34.0"}}, {"uniqueid": "MTK1019:3BF51CHDTWHFR4R8766P2NJMOAL0HP", "current_trial": 44, "dateTime": 1513007123358, "trialdata": {"rt": -1, "stimulus": "<p id=\"stim\">10</p>", "key_press": -1, "trial_type": "single-stim", "trial_index": 44, "time_elapsed": 326008, "internal_node_id": "0.0-35.0-0.0"}}, {"uniqueid": "MTK1019:3BF51CHDTWHFR4R8766P2NJMOAL0HP", "current_trial": 45, "dateTime": 1513007124361, "trialdata": {"rt": -1, "stimulus": "<p id=\"stim\">9</p>", "key_press": -1, "trial_type": "single-stim", "trial_index": 45, "time_elapsed": 327011, "internal_node_id": "0.0-35.0-1.0"}}, {"uniqueid": "MTK1019:3BF51CHDTWHFR4R8766P2NJMOAL0HP", "current_trial": 46, "dateTime": 1513007125363, "trialdata": {"rt": -1, "stimulus": "<p id=\"stim\">8</p>", "key_press": -1, "trial_type": "single-stim", "trial_index": 46, "time_elapsed": 328013, "internal_node_id": "0.0-35.0-2.0"}}, {"uniqueid": "MTK1019:3BF51CHDTWHFR4R8766P2NJMOAL0HP", "current_trial": 47, "dateTime": 1513007126365, "trialdata": {"rt": -1, "stimulus": "<p id=\"stim\">7</p>", "key_press": -1, "trial_type": "single-stim", "trial_index": 47, "time_elapsed": 329015, "internal_node_id": "0.0-35.0-3.0"}}, {"uniqueid": "MTK1019:3BF51CHDTWHFR4R8766P2NJMOAL0HP", "current_trial": 48, "dateTime": 1513007127368, "trialdata": {"rt": -1, "stimulus": "<p id=\"stim\">6</p>", "key_press": -1, "trial_type": "single-stim", "trial_index": 48, "time_elapsed": 330018, "internal_node_id": "0.0-35.0-4.0"}}, {"uniqueid": "MTK1019:3BF51CHDTWHFR4R8766P2NJMOAL0HP", "current_trial": 49, "dateTime": 1513007128371, "trialdata": {"rt": -1, "stimulus": "<p id=\"stim\">5</p>", "key_press": -1, "trial_type": "single-stim", "trial_index": 49, "time_elapsed": 331021, "internal_node_id": "0.0-35.0-5.0"}}, {"uniqueid": "MTK1019:3BF51CHDTWHFR4R8766P2NJMOAL0HP", "current_trial": 50, "dateTime": 1513007129372, "trialdata": {"rt": -1, "stimulus": "<p id=\"stim\">4</p>", "key_press": -1, "trial_type": "single-stim", "trial_index": 50, "time_elapsed": 332023, "internal_node_id": "0.0-35.0-6.0"}}, {"uniqueid": "MTK1019:3BF51CHDTWHFR4R8766P2NJMOAL0HP", "current_trial": 51, "dateTime": 1513007130379, "trialdata": {"rt": -1, "stimulus": "<p id=\"stim\">3</p>", "key_press": -1, "trial_type": "single-stim", "trial_index": 51, "time_elapsed": 333030, "internal_node_id": "0.0-35.0-7.0"}}, {"uniqueid": "MTK1019:3BF51CHDTWHFR4R8766P2NJMOAL0HP", "current_trial": 52, "dateTime": 1513007131382, "trialdata": {"rt": -1, "stimulus": "<p id=\"stim\">2</p>", "key_press": -1, "trial_type": "single-stim", "trial_index": 52, "time_elapsed": 334033, "internal_node_id": "0.0-35.0-8.0"}}, {"uniqueid": "MTK1019:3BF51CHDTWHFR4R8766P2NJMOAL0HP", "current_trial": 53, "dateTime": 1513007132387, "trialdata": {"rt": -1, "stimulus": "<p id=\"stim\">1</p>", "key_press": -1, "trial_type": "single-stim", "trial_index": 53, "time_elapsed": 335038, "internal_node_id": "0.0-35.0-9.0"}}, {"uniqueid": "MTK1019:3BF51CHDTWHFR4R8766P2NJMOAL0HP", "current_trial": 54, "dateTime": 1513007133890, "trialdata": {"rt": -1, "stimulus": "<p id=\"stim\">+</p>", "key_press": -1, "type": "FIXATION", "trial_type": "single-stim", "trial_index": 54, "time_elapsed": 336541, "internal_node_id": "0.0-36.0-0.0"}}, {"uniqueid": "MTK1019:3BF51CHDTWHFR4R8766P2NJMOAL0HP", "current_trial": 55, "dateTime": 1513007135092, "trialdata": {"rt": -1, "stimulus": "<p id=\"stim\">BUGGY</p>", "key_press": -1, "type": "PRES_VIS", "word": "buggy", "wordID": 187, "conditions": [18, 1200, "v", 18000], "trial": 1, "serialpos": 0, "trial_type": "single-stim", "trial_index": 55, "time_elapsed": 337743, "internal_node_id": "0.0-37.0"}}, {"uniqueid": "MTK1019:3BF51CHDTWHFR4R8766P2NJMOAL0HP", "current_trial": 56, "dateTime": 1513007137386, "trialdata": {"rt": -1, "stimulus": "<p id=\"stim\">WAGON</p>", "key_press": -1, "type": "PRES_VIS", "word": "wagon", "wordID": 1577, "conditions": [18, 1200, "v", 18000], "trial": 1, "serialpos": 1, "trial_type": "single-stim", "trial_index": 56, "time_elapsed": 340037, "internal_node_id": "0.0-38.0"}}, {"uniqueid": "MTK1019:3BF51CHDTWHFR4R8766P2NJMOAL0HP", "current_trial": 57, "dateTime": 1513007139440, "trialdata": {"rt": -1, "stimulus": "<p id=\"stim\">RECEIPT</p>", "key_press": -1, "type": "PRES_VIS", "word": "receipt", "wordID": 1172, "conditions": [18, 1200, "v", 18000], "trial": 1, "serialpos": 2, "trial_type": "single-stim", "trial_index": 57, "time_elapsed": 342091, "internal_node_id": "0.0-39.0"}}, {"uniqueid": "MTK1019:3BF51CHDTWHFR4R8766P2NJMOAL0HP", "current_trial": 58, "dateTime": 1513007141758, "trialdata": {"rt": -1, "stimulus": "<p id=\"stim\">SHELTER</p>", "key_press": -1, "type": "PRES_VIS", "word": "shelter", "wordID": 1281, "conditions": [18, 1200, "v", 18000], "trial": 1, "serialpos": 3, "trial_type": "single-stim", "trial_index": 58, "time_elapsed": 344409, "internal_node_id": "0.0-40.0"}}, {"uniqueid": "MTK1019:3BF51CHDTWHFR4R8766P2NJMOAL0HP", "current_trial": 59, "dateTime": 1513007143995, "trialdata": {"rt": -1, "stimulus": "<p id=\"stim\">ANTLER</p>", "key_press": -1, "type": "PRES_VIS", "word": "antler", "wordID": 28, "conditions": [18, 1200, "v", 18000], "trial": 1, "serialpos": 4, "trial_type": "single-stim", "trial_index": 59, "time_elapsed": 346645, "internal_node_id": "0.0-41.0"}}, {"uniqueid": "MTK1019:3BF51CHDTWHFR4R8766P2NJMOAL0HP", "current_trial": 60, "dateTime": 1513007146369, "trialdata": {"rt": -1, "stimulus": "<p id=\"stim\">MUSTARD</p>", "key_press": -1, "type": "PRES_VIS", "word": "mustard", "wordID": 934, "conditions": [18, 1200, "v", 18000], "trial": 1, "serialpos": 5, "trial_type": "single-stim", "trial_index": 60, "time_elapsed": 349020, "internal_node_id": "0.0-42.0"}}, {"uniqueid": "MTK1019:3BF51CHDTWHFR4R8766P2NJMOAL0HP", "current_trial": 61, "dateTime": 1513007148660, "trialdata": {"rt": -1, "stimulus": "<p id=\"stim\">BANKER</p>", "key_press": -1, "type": "PRES_VIS", "word": "banker", "wordID": 83, "conditions": [18, 1200, "v", 18000], "trial": 1, "serialpos": 6, "trial_type": "single-stim", "trial_index": 61, "time_elapsed": 351311, "internal_node_id": "0.0-43.0"}}, {"uniqueid": "MTK1019:3BF51CHDTWHFR4R8766P2NJMOAL0HP", "current_trial": 62, "dateTime": 1513007150824, "trialdata": {"rt": 1049, "stimulus": "<p id=\"stim\">BUTCHER</p>", "key_press": 175, "type": "PRES_VIS", "word": "butcher", "wordID": 202, "conditions": [18, 1200, "v", 18000], "trial": 1, "serialpos": 7, "trial_type": "single-stim", "trial_index": 62, "time_elapsed": 353475, "internal_node_id": "0.0-44.0"}}, {"uniqueid": "MTK1019:3BF51CHDTWHFR4R8766P2NJMOAL0HP", "current_trial": 63, "dateTime": 1513007152909, "trialdata": {"rt": -1, "stimulus": "<p id=\"stim\">CITRUS</p>", "key_press": -1, "type": "PRES_VIS", "word": "citrus", "wordID": 312, "conditions": [18, 1200, "v", 18000], "trial": 1, "serialpos": 8, "trial_type": "single-stim", "trial_index": 63, "time_elapsed": 355560, "internal_node_id": "0.0-45.0"}}, {"uniqueid": "MTK1019:3BF51CHDTWHFR4R8766P2NJMOAL0HP", "current_trial": 64, "dateTime": 1513007154920, "trialdata": {"rt": -1, "stimulus": "<p id=\"stim\">CLAMP</p>", "key_press": -1, "type": "PRES_VIS", "word": "clamp", "wordID": 315, "conditions": [18, 1200, "v", 18000], "trial": 1, "serialpos": 9, "trial_type": "single-stim", "trial_index": 64, "time_elapsed": 357571, "internal_node_id": "0.0-46.0"}}, {"uniqueid": "MTK1019:3BF51CHDTWHFR4R8766P2NJMOAL0HP", "current_trial": 65, "dateTime": 1513007157158, "trialdata": {"rt": -1, "stimulus": "<p id=\"stim\">CASHIER</p>", "key_press": -1, "type": "PRES_VIS", "word": "cashier", "wordID": 253, "conditions": [18, 1200, "v", 18000], "trial": 1, "serialpos": 10, "trial_type": "single-stim", "trial_index": 65, "time_elapsed": 359809, "internal_node_id": "0.0-47.0"}}, {"uniqueid": "MTK1019:3BF51CHDTWHFR4R8766P2NJMOAL0HP", "current_trial": 66, "dateTime": 1513007159182, "trialdata": {"rt": -1, "stimulus": "<p id=\"stim\">AUTHOR</p>", "key_press": -1, "type": "PRES_VIS", "word": "author", "wordID": 60, "conditions": [18, 1200, "v", 18000], "trial": 1, "serialpos": 11, "trial_type": "single-stim", "trial_index": 66, "time_elapsed": 361833, "internal_node_id": "0.0-48.0"}}, {"uniqueid": "MTK1019:3BF51CHDTWHFR4R8766P2NJMOAL0HP", "current_trial": 67, "dateTime": 1513007161477, "trialdata": {"rt": -1, "stimulus": "<p id=\"stim\">DAUGHTER</p>", "key_press": -1, "type": "PRES_VIS", "word": "daughter", "wordID": 441, "conditions": [18, 1200, "v", 18000], "trial": 1, "serialpos": 12, "trial_type": "single-stim", "trial_index": 67, "time_elapsed": 364128, "internal_node_id": "0.0-49.0"}}, {"uniqueid": "MTK1019:3BF51CHDTWHFR4R8766P2NJMOAL0HP", "current_trial": 68, "dateTime": 1513007163519, "trialdata": {"rt": -1, "stimulus": "<p id=\"stim\">UNCLE</p>", "key_press": -1, "type": "PRES_VIS", "word": "uncle", "wordID": 1535, "conditions": [18, 1200, "v", 18000], "trial": 1, "serialpos": 13, "trial_type": "single-stim", "trial_index": 68, "time_elapsed": 366166, "internal_node_id": "0.0-50.0"}}, {"uniqueid": "MTK1019:3BF51CHDTWHFR4R8766P2NJMOAL0HP", "current_trial": 69, "dateTime": 1513007165827, "trialdata": {"rt": -1, "stimulus": "<p id=\"stim\">SHORTS</p>", "key_press": -1, "type": "PRES_VIS", "word": "shorts", "wordID": 1292, "conditions": [18, 1200, "v", 18000], "trial": 1, "serialpos": 14, "trial_type": "single-stim", "trial_index": 69, "time_elapsed": 368478, "internal_node_id": "0.0-51.0"}}, {"uniqueid": "MTK1019:3BF51CHDTWHFR4R8766P2NJMOAL0HP", "current_trial": 70, "dateTime": 1513007168156, "trialdata": {"rt": -1, "stimulus": "<p id=\"stim\">PREACHER</p>", "key_press": -1, "type": "PRES_VIS", "word": "preacher", "wordID": 1118, "conditions": [18, 1200, "v", 18000], "trial": 1, "serialpos": 15, "trial_type": "single-stim", "trial_index": 70, "time_elapsed": 370807, "internal_node_id": "0.0-52.0"}}, {"uniqueid": "MTK1019:3BF51CHDTWHFR4R8766P2NJMOAL0HP", "current_trial": 71, "dateTime": 1513007170314, "trialdata": {"rt": -1, "stimulus": "<p id=\"stim\">CRAYON</p>", "key_press": -1, "type": "PRES_VIS", "word": "crayon", "wordID": 400, "conditions": [18, 1200, "v", 18000], "trial": 1, "serialpos": 16, "trial_type": "single-stim", "trial_index": 71, "time_elapsed": 372965, "internal_node_id": "0.0-53.0"}}, {"uniqueid": "MTK1019:3BF51CHDTWHFR4R8766P2NJMOAL0HP", "current_trial": 72, "dateTime": 1513007172691, "trialdata": {"rt": -1, "stimulus": "<p id=\"stim\">LADY</p>", "key_press": -1, "type": "PRES_VIS", "word": "lady", "wordID": 793, "conditions": [18, 1200, "v", 18000], "trial": 1, "serialpos": 17, "trial_type": "single-stim", "trial_index": 72, "time_elapsed": 375342, "internal_node_id": "0.0-54.0"}}, {"uniqueid": "MTK1019:3BF51CHDTWHFR4R8766P2NJMOAL0HP", "current_trial": 73, "dateTime": 1513007175008, "trialdata": {"rt": -1, "stimulus": "", "key_press": -1, "type": "PRE_RECALL_DELAY", "trial_type": "single-stim", "trial_index": 73, "time_elapsed": 377659, "internal_node_id": "0.0-55.0-0.0"}}, {"uniqueid": "MTK1019:3BF51CHDTWHFR4R8766P2NJMOAL0HP", "current_trial": 74, "dateTime": 1513007175512, "trialdata": {"rt": -1000, "stimulus": "/static/audio/400Hz.wav", "key_press": -1, "type": "PRE_RECALL_ALERT", "trial_type": "single-audio", "trial_index": 74, "time_elapsed": 378163, "internal_node_id": "0.0-56.0"}}, {"uniqueid": "MTK1019:3BF51CHDTWHFR4R8766P2NJMOAL0HP", "current_trial": 75, "dateTime": 1513007235527, "trialdata": {"rt": [2367, 3986, 5658, 7851, 41186], "recwords": ["lady", "crayon", "daughter", "uncle", "butcher"], "type": "FREE_RECALL", "conditions": [18, 1200, "v", 18000], "trial": 1, "trial_type": "free-recall", "trial_index": 75, "time_elapsed": 438170, "internal_node_id": "0.0-57.0-0.0"}}, {"uniqueid": "MTK1019:3BF51CHDTWHFR4R8766P2NJMOAL0HP", "current_trial": 76, "dateTime": 1513007238849, "trialdata": {"rt": 1311, "key_press": 32, "type": "INSTRUCTIONS", "trial_type": "text", "trial_index": 76, "time_elapsed": 441492, "internal_node_id": "0.0-58.0"}}, {"uniqueid": "MTK1019:3BF51CHDTWHFR4R8766P2NJMOAL0HP", "current_trial": 77, "dateTime": 1513007251857, "trialdata": {"rt": [3198, 5622, 7790, 9770, 11474], "responses": ["16", "15", "12", "22", "11"], "num1": [9, 5, 4, 9, 3, 3], "num2": [6, 2, 6, 4, 6, 5], "num3": [1, 8, 2, 9, 2, 1], "type": "DISTRACTOR", "conditions": [12, 1600, "a", 12000], "trial": 2, "trial_type": "math-distractor", "trial_index": 77, "time_elapsed": 454508, "internal_node_id": "0.0-59.0"}}, {"uniqueid": "MTK1019:3BF51CHDTWHFR4R8766P2NJMOAL0HP", "current_trial": 78, "dateTime": 1513007254862, "trialdata": {"rt": -1, "stimulus": "<p id=\"stim\">10</p>", "key_press": -1, "trial_type": "single-stim", "trial_index": 78, "time_elapsed": 457513, "internal_node_id": "0.0-60.0-0.0"}}, {"uniqueid": "MTK1019:3BF51CHDTWHFR4R8766P2NJMOAL0HP", "current_trial": 79, "dateTime": 1513007255864, "trialdata": {"rt": -1, "stimulus": "<p id=\"stim\">9</p>", "key_press": -1, "trial_type": "single-stim", "trial_index": 79, "time_elapsed": 458515, "internal_node_id": "0.0-60.0-1.0"}}, {"uniqueid": "MTK1019:3BF51CHDTWHFR4R8766P2NJMOAL0HP", "current_trial": 80, "dateTime": 1513007256869, "trialdata": {"rt": -1, "stimulus": "<p id=\"stim\">8</p>", "key_press": -1, "trial_type": "single-stim", "trial_index": 80, "time_elapsed": 459520, "internal_node_id": "0.0-60.0-2.0"}}, {"uniqueid": "MTK1019:3BF51CHDTWHFR4R8766P2NJMOAL0HP", "current_trial": 81, "dateTime": 1513007257874, "trialdata": {"rt": -1, "stimulus": "<p id=\"stim\">7</p>", "key_press": -1, "trial_type": "single-stim", "trial_index": 81, "time_elapsed": 460525, "internal_node_id": "0.0-60.0-3.0"}}, {"uniqueid": "MTK1019:3BF51CHDTWHFR4R8766P2NJMOAL0HP", "current_trial": 82, "dateTime": 1513007258877, "trialdata": {"rt": -1, "stimulus": "<p id=\"stim\">6</p>", "key_press": -1, "trial_type": "single-stim", "trial_index": 82, "time_elapsed": 461528, "internal_node_id": "0.0-60.0-4.0"}}, {"uniqueid": "MTK1019:3BF51CHDTWHFR4R8766P2NJMOAL0HP", "current_trial": 83, "dateTime": 1513007259879, "trialdata": {"rt": -1, "stimulus": "<p id=\"stim\">5</p>", "key_press": -1, "trial_type": "single-stim", "trial_index": 83, "time_elapsed": 462530, "internal_node_id": "0.0-60.0-5.0"}}, {"uniqueid": "MTK1019:3BF51CHDTWHFR4R8766P2NJMOAL0HP", "current_trial": 84, "dateTime": 1513007260883, "trialdata": {"rt": -1, "stimulus": "<p id=\"stim\">4</p>", "key_press": -1, "trial_type": "single-stim", "trial_index": 84, "time_elapsed": 463534, "internal_node_id": "0.0-60.0-6.0"}}, {"uniqueid": "MTK1019:3BF51CHDTWHFR4R8766P2NJMOAL0HP", "current_trial": 85, "dateTime": 1513007261886, "trialdata": {"rt": -1, "stimulus": "<p id=\"stim\">3</p>", "key_press": -1, "trial_type": "single-stim", "trial_index": 85, "time_elapsed": 464537, "internal_node_id": "0.0-60.0-7.0"}}, {"uniqueid": "MTK1019:3BF51CHDTWHFR4R8766P2NJMOAL0HP", "current_trial": 86, "dateTime": 1513007262891, "trialdata": {"rt": -1, "stimulus": "<p id=\"stim\">2</p>", "key_press": -1, "trial_type": "single-stim", "trial_index": 86, "time_elapsed": 465542, "internal_node_id": "0.0-60.0-8.0"}}, {"uniqueid": "MTK1019:3BF51CHDTWHFR4R8766P2NJMOAL0HP", "current_trial": 87, "dateTime": 1513007263893, "trialdata": {"rt": -1, "stimulus": "<p id=\"stim\">1</p>", "key_press": -1, "trial_type": "single-stim", "trial_index": 87, "time_elapsed": 466544, "internal_node_id": "0.0-60.0-9.0"}}, {"uniqueid": "MTK1019:3BF51CHDTWHFR4R8766P2NJMOAL0HP", "current_trial": 88, "dateTime": 1513007265397, "trialdata": {"rt": -1, "stimulus": "<p id=\"stim\">+</p>", "key_press": -1, "type": "FIXATION", "trial_type": "single-stim", "trial_index": 88, "time_elapsed": 468048, "internal_node_id": "0.0-61.0-0.0"}}, {"uniqueid": "MTK1019:3BF51CHDTWHFR4R8766P2NJMOAL0HP", "current_trial": 89, "dateTime": 1513007267856, "trialdata": {"rt": 1310.6666666666342, "stimulus": "/static/audio/wordpool/CHAUFFEUR.wav", "key_press": 174, "type": "PRES_AUD", "word": "chauffeur", "wordID": 282, "conditions": [12, 1600, "a", 12000], "trial": 2, "serialpos": 0, "trial_type": "single-audio", "trial_index": 89, "time_elapsed": 470507, "internal_node_id": "0.0-62.0"}}, {"uniqueid": "MTK1019:3BF51CHDTWHFR4R8766P2NJMOAL0HP", "current_trial": 90, "dateTime": 1513007270657, "trialdata": {"rt": 419.9999999999591, "stimulus": "/static/audio/wordpool/SUPPER.wav", "key_press": 174, "type": "PRES_AUD", "word": "supper", "wordID": 1410, "conditions": [12, 1600, "a", 12000], "trial": 2, "serialpos": 1, "trial_type": "single-audio", "trial_index": 90, "time_elapsed": 473308, "internal_node_id": "0.0-63.0"}}, {"uniqueid": "MTK1019:3BF51CHDTWHFR4R8766P2NJMOAL0HP", "current_trial": 91, "dateTime": 1513007273334, "trialdata": {"rt": -1000, "stimulus": "/static/audio/wordpool/LUNCH.wav", "key_press": -1, "type": "PRES_AUD", "word": "lunch", "wordID": 848, "conditions": [12, 1600, "a", 12000], "trial": 2, "serialpos": 2, "trial_type": "single-audio", "trial_index": 91, "time_elapsed": 475985, "internal_node_id": "0.0-64.0"}}, {"uniqueid": "MTK1019:3BF51CHDTWHFR4R8766P2NJMOAL0HP", "current_trial": 92, "dateTime": 1513007276120, "trialdata": {"rt": -1000, "stimulus": "/static/audio/wordpool/LIVER.wav", "key_press": -1, "type": "PRES_AUD", "word": "liver", "wordID": 832, "conditions": [12, 1600, "a", 12000], "trial": 2, "serialpos": 3, "trial_type": "single-audio", "trial_index": 92, "time_elapsed": 478771, "internal_node_id": "0.0-65.0"}}, {"uniqueid": "MTK1019:3BF51CHDTWHFR4R8766P2NJMOAL0HP", "current_trial": 93, "dateTime": 1513007278572, "trialdata": {"rt": -1000, "stimulus": "/static/audio/wordpool/CRAB.wav", "key_press": -1, "type": "PRES_AUD", "word": "crab", "wordID": 396, "conditions": [12, 1600, "a", 12000], "trial": 2, "serialpos": 4, "trial_type": "single-audio", "trial_index": 93, "time_elapsed": 481223, "internal_node_id": "0.0-66.0"}}, {"uniqueid": "MTK1019:3BF51CHDTWHFR4R8766P2NJMOAL0HP", "current_trial": 94, "dateTime": 1513007281087, "trialdata": {"rt": -1000, "stimulus": "/static/audio/wordpool/BADGE.wav", "key_press": -1, "type": "PRES_AUD", "word": "badge", "wordID": 67, "conditions": [12, 1600, "a", 12000], "trial": 2, "serialpos": 5, "trial_type": "single-audio", "trial_index": 94, "time_elapsed": 483738, "internal_node_id": "0.0-67.0"}}, {"uniqueid": "MTK1019:3BF51CHDTWHFR4R8766P2NJMOAL0HP", "current_trial": 95, "dateTime": 1513007283766, "trialdata": {"rt": -1000, "stimulus": "/static/audio/wordpool/COUNTRY.wav", "key_press": -1, "type": "PRES_AUD", "word": "country", "wordID": 387, "conditions": [12, 1600, "a", 12000], "trial": 2, "serialpos": 6, "trial_type": "single-audio", "trial_index": 95, "time_elapsed": 486417, "internal_node_id": "0.0-68.0"}}, {"uniqueid": "MTK1019:3BF51CHDTWHFR4R8766P2NJMOAL0HP", "current_trial": 96, "dateTime": 1513007286403, "trialdata": {"rt": -1000, "stimulus": "/static/audio/wordpool/POPCORN.wav", "key_press": -1, "type": "PRES_AUD", "word": "popcorn", "wordID": 1103, "conditions": [12, 1600, "a", 12000], "trial": 2, "serialpos": 7, "trial_type": "single-audio", "trial_index": 96, "time_elapsed": 489054, "internal_node_id": "0.0-69.0"}}, {"uniqueid": "MTK1019:3BF51CHDTWHFR4R8766P2NJMOAL0HP", "current_trial": 97, "dateTime": 1513007289180, "trialdata": {"rt": -1000, "stimulus": "/static/audio/wordpool/KIDNEY.wav", "key_press": -1, "type": "PRES_AUD", "word": "kidney", "wordID": 775, "conditions": [12, 1600, "a", 12000], "trial": 2, "serialpos": 8, "trial_type": "single-audio", "trial_index": 97, "time_elapsed": 491831, "internal_node_id": "0.0-70.0"}}, {"uniqueid": "MTK1019:3BF51CHDTWHFR4R8766P2NJMOAL0HP", "current_trial": 98, "dateTime": 1513007291896, "trialdata": {"rt": -1000, "stimulus": "/static/audio/wordpool/CHEST.wav", "key_press": -1, "type": "PRES_AUD", "word": "chest", "wordID": 294, "conditions": [12, 1600, "a", 12000], "trial": 2, "serialpos": 9, "trial_type": "single-audio", "trial_index": 98, "time_elapsed": 494547, "internal_node_id": "0.0-71.0"}}, {"uniqueid": "MTK1019:3BF51CHDTWHFR4R8766P2NJMOAL0HP", "current_trial": 99, "dateTime": 1513007294666, "trialdata": {"rt": -1000, "stimulus": "/static/audio/wordpool/GRILL.wav", "key_press": -1, "type": "PRES_AUD", "word": "grill", "wordID": 660, "conditions": [12, 1600, "a", 12000], "trial": 2, "serialpos": 10, "trial_type": "single-audio", "trial_index": 99, "time_elapsed": 497317, "internal_node_id": "0.0-72.0"}}, {"uniqueid": "MTK1019:3BF51CHDTWHFR4R8766P2NJMOAL0HP", "current_trial": 100, "dateTime": 1513007297163, "trialdata": {"rt": -1000, "stimulus": "/static/audio/wordpool/FLUTE.wav", "key_press": -1, "type": "PRES_AUD", "word": "flute", "wordID": 584, "conditions": [12, 1600, "a", 12000], "trial": 2, "serialpos": 11, "trial_type": "single-audio", "trial_index": 100, "time_elapsed": 499814, "internal_node_id": "0.0-73.0"}}, {"uniqueid": "MTK1019:3BF51CHDTWHFR4R8766P2NJMOAL0HP", "current_trial": 101, "dateTime": 1513007298492, "trialdata": {"rt": -1, "stimulus": "", "key_press": -1, "type": "PRE_RECALL_DELAY", "trial_type": "single-stim", "trial_index": 101, "time_elapsed": 501143, "internal_node_id": "0.0-74.0-0.0"}}, {"uniqueid": "MTK1019:3BF51CHDTWHFR4R8766P2NJMOAL0HP", "current_trial": 102, "dateTime": 1513007298996, "trialdata": {"rt": -1000, "stimulus": "/static/audio/400Hz.wav", "key_press": -1, "type": "PRE_RECALL_ALERT", "trial_type": "single-audio", "trial_index": 102, "time_elapsed": 501647, "internal_node_id": "0.0-75.0"}}, {"uniqueid": "MTK1019:3BF51CHDTWHFR4R8766P2NJMOAL0HP", "current_trial": 103, "dateTime": 1513007359006, "trialdata": {"rt": [3749, 5266, 16254, 17207, 18931, 31271, 32683, 34732], "recwords": ["supper", "lunch", "live", "crab", "country", "popcorn", "grill", "flute"], "type": "FREE_RECALL", "conditions": [12, 1600, "a", 12000], "trial": 2, "trial_type": "free-recall", "trial_index": 103, "time_elapsed": 561653, "internal_node_id": "0.0-76.0-0.0"}}, {"uniqueid": "MTK1019:3BF51CHDTWHFR4R8766P2NJMOAL0HP", "current_trial": 104, "dateTime": 1513007362014, "trialdata": {"rt": 1006, "key_press": 32, "type": "INSTRUCTIONS", "trial_type": "text", "trial_index": 104, "time_elapsed": 564665, "internal_node_id": "0.0-77.0"}}, {"uniqueid": "MTK1019:3BF51CHDTWHFR4R8766P2NJMOAL0HP", "current_trial": 105, "dateTime": 1513007376023, "trialdata": {"rt": [3139, 5964, 7883, 9765], "responses": ["17", "16", "10", "14"], "num1": [9, 8, 3, 9, 6], "num2": [6, 3, 3, 1, 9], "num3": [2, 5, 4, 4, 8], "type": "DISTRACTOR", "conditions": [24, 1600, "a", 12000], "trial": 3, "trial_type": "math-distractor", "trial_index": 105, "time_elapsed": 578674, "internal_node_id": "0.0-78.0"}}, {"uniqueid": "MTK1019:3BF51CHDTWHFR4R8766P2NJMOAL0HP", "current_trial": 106, "dateTime": 1513007379030, "trialdata": {"rt": -1, "stimulus": "<p id=\"stim\">10</p>", "key_press": -1, "trial_type": "single-stim", "trial_index": 106, "time_elapsed": 581681, "internal_node_id": "0.0-79.0-0.0"}}, {"uniqueid": "MTK1019:3BF51CHDTWHFR4R8766P2NJMOAL0HP", "current_trial": 107, "dateTime": 1513007380034, "trialdata": {"rt": -1, "stimulus": "<p id=\"stim\">9</p>", "key_press": -1, "trial_type": "single-stim", "trial_index": 107, "time_elapsed": 582685, "internal_node_id": "0.0-79.0-1.0"}}, {"uniqueid": "MTK1019:3BF51CHDTWHFR4R8766P2NJMOAL0HP", "current_trial": 108, "dateTime": 1513007381040, "trialdata": {"rt": -1, "stimulus": "<p id=\"stim\">8</p>", "key_press": -1, "trial_type": "single-stim", "trial_index": 108, "time_elapsed": 583691, "internal_node_id": "0.0-79.0-2.0"}}, {"uniqueid": "MTK1019:3BF51CHDTWHFR4R8766P2NJMOAL0HP", "current_trial": 109, "dateTime": 1513007382041, "trialdata": {"rt": -1, "stimulus": "<p id=\"stim\">7</p>", "key_press": -1, "trial_type": "single-stim", "trial_index": 109, "time_elapsed": 584692, "internal_node_id": "0.0-79.0-3.0"}}, {"uniqueid": "MTK1019:3BF51CHDTWHFR4R8766P2NJMOAL0HP", "current_trial": 110, "dateTime": 1513007383045, "trialdata": {"rt": -1, "stimulus": "<p id=\"stim\">6</p>", "key_press": -1, "trial_type": "single-stim", "trial_index": 110, "time_elapsed": 585696, "internal_node_id": "0.0-79.0-4.0"}}, {"uniqueid": "MTK1019:3BF51CHDTWHFR4R8766P2NJMOAL0HP", "current_trial": 111, "dateTime": 1513007384051, "trialdata": {"rt": -1, "stimulus": "<p id=\"stim\">5</p>", "key_press": -1, "trial_type": "single-stim", "trial_index": 111, "time_elapsed": 586702, "internal_node_id": "0.0-79.0-5.0"}}, {"uniqueid": "MTK1019:3BF51CHDTWHFR4R8766P2NJMOAL0HP", "current_trial": 112, "dateTime": 1513007385055, "trialdata": {"rt": -1, "stimulus": "<p id=\"stim\">4</p>", "key_press": -1, "trial_type": "single-stim", "trial_index": 112, "time_elapsed": 587706, "internal_node_id": "0.0-79.0-6.0"}}, {"uniqueid": "MTK1019:3BF51CHDTWHFR4R8766P2NJMOAL0HP", "current_trial": 113, "dateTime": 1513007386057, "trialdata": {"rt": -1, "stimulus": "<p id=\"stim\">3</p>", "key_press": -1, "trial_type": "single-stim", "trial_index": 113, "time_elapsed": 588708, "internal_node_id": "0.0-79.0-7.0"}}, {"uniqueid": "MTK1019:3BF51CHDTWHFR4R8766P2NJMOAL0HP", "current_trial": 114, "dateTime": 1513007387060, "trialdata": {"rt": -1, "stimulus": "<p id=\"stim\">2</p>", "key_press": -1, "trial_type": "single-stim", "trial_index": 114, "time_elapsed": 589711, "internal_node_id": "0.0-79.0-8.0"}}, {"uniqueid": "MTK1019:3BF51CHDTWHFR4R8766P2NJMOAL0HP", "current_trial": 115, "dateTime": 1513007388063, "trialdata": {"rt": -1, "stimulus": "<p id=\"stim\">1</p>", "key_press": -1, "trial_type": "single-stim", "trial_index": 115, "time_elapsed": 590714, "internal_node_id": "0.0-79.0-9.0"}}, {"uniqueid": "MTK1019:3BF51CHDTWHFR4R8766P2NJMOAL0HP", "current_trial": 116, "dateTime": 1513007389568, "trialdata": {"rt": -1, "stimulus": "<p id=\"stim\">+</p>", "key_press": -1, "type": "FIXATION", "trial_type": "single-stim", "trial_index": 116, "time_elapsed": 592219, "internal_node_id": "0.0-80.0-0.0"}}, {"uniqueid": "MTK1019:3BF51CHDTWHFR4R8766P2NJMOAL0HP", "current_trial": 117, "dateTime": 1513007392061, "trialdata": {"rt": -1000, "stimulus": "/static/audio/wordpool/HELMET.wav", "key_press": -1, "type": "PRES_AUD", "word": "helmet", "wordID": 701, "conditions": [24, 1600, "a", 12000], "trial": 3, "serialpos": 0, "trial_type": "single-audio", "trial_index": 117, "time_elapsed": 594712, "internal_node_id": "0.0-81.0"}}, {"uniqueid": "MTK1019:3BF51CHDTWHFR4R8766P2NJMOAL0HP", "current_trial": 118, "dateTime": 1513007394625, "trialdata": {"rt": -1000, "stimulus": "/static/audio/wordpool/BABY.wav", "key_press": -1, "type": "PRES_AUD", "word": "baby", "wordID": 63, "conditions": [24, 1600, "a", 12000], "trial": 3, "serialpos": 1, "trial_type": "single-audio", "trial_index": 118, "time_elapsed": 597276, "internal_node_id": "0.0-82.0"}}, {"uniqueid": "MTK1019:3BF51CHDTWHFR4R8766P2NJMOAL0HP", "current_trial": 119, "dateTime": 1513007397385, "trialdata": {"rt": -1000, "stimulus": "/static/audio/wordpool/LEOPARD.wav", "key_press": -1, "type": "PRES_AUD", "word": "leopard", "wordID": 811, "conditions": [24, 1600, "a", 12000], "trial": 3, "serialpos": 2, "trial_type": "single-audio", "trial_index": 119, "time_elapsed": 600036, "internal_node_id": "0.0-83.0"}}, {"uniqueid": "MTK1019:3BF51CHDTWHFR4R8766P2NJMOAL0HP", "current_trial": 120, "dateTime": 1513007399814, "trialdata": {"rt": -1000, "stimulus": "/static/audio/wordpool/ZEBRA.wav", "key_press": -1, "type": "PRES_AUD", "word": "zebra", "wordID": 1634, "conditions": [24, 1600, "a", 12000], "trial": 3, "serialpos": 3, "trial_type": "single-audio", "trial_index": 120, "time_elapsed": 602465, "internal_node_id": "0.0-84.0"}}, {"uniqueid": "MTK1019:3BF51CHDTWHFR4R8766P2NJMOAL0HP", "current_trial": 121, "dateTime": 1513007402227, "trialdata": {"rt": -1000, "stimulus": "/static/audio/wordpool/ROCKET.wav", "key_press": -1, "type": "PRES_AUD", "word": "rocket", "wordID": 1201, "conditions": [24, 1600, "a", 12000], "trial": 3, "serialpos": 4, "trial_type": "single-audio", "trial_index": 121, "time_elapsed": 604878, "internal_node_id": "0.0-85.0"}}, {"uniqueid": "MTK1019:3BF51CHDTWHFR4R8766P2NJMOAL0HP", "current_trial": 122, "dateTime": 1513007404856, "trialdata": {"rt": -1000, "stimulus": "/static/audio/wordpool/CHILD.wav", "key_press": -1, "type": "PRES_AUD", "word": "child", "wordID": 298, "conditions": [24, 1600, "a", 12000], "trial": 3, "serialpos": 5, "trial_type": "single-audio", "trial_index": 122, "time_elapsed": 607507, "internal_node_id": "0.0-86.0"}}, {"uniqueid": "MTK1019:3BF51CHDTWHFR4R8766P2NJMOAL0HP", "current_trial": 123, "dateTime": 1513007407272, "trialdata": {"rt": -1000, "stimulus": "/static/audio/wordpool/RELISH.wav", "key_press": -1, "type": "PRES_AUD", "word": "relish", "wordID": 1182, "conditions": [24, 1600, "a", 12000], "trial": 3, "serialpos": 6, "trial_type": "single-audio", "trial_index": 123, "time_elapsed": 609922, "internal_node_id": "0.0-87.0"}}, {"uniqueid": "MTK1019:3BF51CHDTWHFR4R8766P2NJMOAL0HP", "current_trial": 124, "dateTime": 1513007410066, "trialdata": {"rt": -1000, "stimulus": "/static/audio/wordpool/VICTIM.wav", "key_press": -1, "type": "PRES_AUD", "word": "victim", "wordID": 1561, "conditions": [24, 1600, "a", 12000], "trial": 3, "serialpos": 7, "trial_type": "single-audio", "trial_index": 124, "time_elapsed": 612717, "internal_node_id": "0.0-88.0"}}, {"uniqueid": "MTK1019:3BF51CHDTWHFR4R8766P2NJMOAL0HP", "current_trial": 125, "dateTime": 1513007412759, "trialdata": {"rt": -1000, "stimulus": "/static/audio/wordpool/DOUGHNUT.wav", "key_press": -1, "type": "PRES_AUD", "word": "doughnut", "wordID": 489, "conditions": [24, 1600, "a", 12000], "trial": 3, "serialpos": 8, "trial_type": "single-audio", "trial_index": 125, "time_elapsed": 615410, "internal_node_id": "0.0-89.0"}}, {"uniqueid": "MTK1019:3BF51CHDTWHFR4R8766P2NJMOAL0HP", "current_trial": 126, "dateTime": 1513007415382, "trialdata": {"rt": -1000, "stimulus": "/static/audio/wordpool/FINGER.wav", "key_press": -1, "type": "PRES_AUD", "word": "finger", "wordID": 566, "conditions": [24, 1600, "a", 12000], "trial": 3, "serialpos": 9, "trial_type": "single-audio", "trial_index": 126, "time_elapsed": 618033, "internal_node_id": "0.0-90.0"}}, {"uniqueid": "MTK1019:3BF51CHDTWHFR4R8766P2NJMOAL0HP", "current_trial": 127, "dateTime": 1513007417906, "trialdata": {"rt": -1000, "stimulus": "/static/audio/wordpool/PLATE.wav", "key_press": -1, "type": "PRES_AUD", "word": "plate", "wordID": 1085, "conditions": [24, 1600, "a", 12000], "trial": 3, "serialpos": 10, "trial_type": "single-audio", "trial_index": 127, "time_elapsed": 620557, "internal_node_id": "0.0-91.0"}}, {"uniqueid": "MTK1019:3BF51CHDTWHFR4R8766P2NJMOAL0HP", "current_trial": 128, "dateTime": 1513007420426, "trialdata": {"rt": -1000, "stimulus": "/static/audio/wordpool/BREAST.wav", "key_press": -1, "type": "PRES_AUD", "word": "breast", "wordID": 170, "conditions": [24, 1600, "a", 12000], "trial": 3, "serialpos": 11, "trial_type": "single-audio", "trial_index": 128, "time_elapsed": 623077, "internal_node_id": "0.0-92.0"}}, {"uniqueid": "MTK1019:3BF51CHDTWHFR4R8766P2NJMOAL0HP", "current_trial": 129, "dateTime": 1513007422846, "trialdata": {"rt": -1000, "stimulus": "/static/audio/wordpool/PORK.wav", "key_press": -1, "type": "PRES_AUD", "word": "pork", "wordID": 1107, "conditions": [24, 1600, "a", 12000], "trial": 3, "serialpos": 12, "trial_type": "single-audio", "trial_index": 129, "time_elapsed": 625497, "internal_node_id": "0.0-93.0"}}, {"uniqueid": "MTK1019:3BF51CHDTWHFR4R8766P2NJMOAL0HP", "current_trial": 130, "dateTime": 1513007425331, "trialdata": {"rt": -1000, "stimulus": "/static/audio/wordpool/BLACKBOARD.wav", "key_press": -1, "type": "PRES_AUD", "word": "blackboard", "wordID": 132, "conditions": [24, 1600, "a", 12000], "trial": 3, "serialpos": 13, "trial_type": "single-audio", "trial_index": 130, "time_elapsed": 627982, "internal_node_id": "0.0-94.0"}}, {"uniqueid": "MTK1019:3BF51CHDTWHFR4R8766P2NJMOAL0HP", "current_trial": 131, "dateTime": 1513007428096, "trialdata": {"rt": -1000, "stimulus": "/static/audio/wordpool/WOMAN.wav", "key_press": -1, "type": "PRES_AUD", "word": "woman", "wordID": 1619, "conditions": [24, 1600, "a", 12000], "trial": 3, "serialpos": 14, "trial_type": "single-audio", "trial_index": 131, "time_elapsed": 630747, "internal_node_id": "0.0-95.0"}}, {"uniqueid": "MTK1019:3BF51CHDTWHFR4R8766P2NJMOAL0HP", "current_trial": 132, "dateTime": 1513007430667, "trialdata": {"rt": -1000, "stimulus": "/static/audio/wordpool/SURVEY.wav", "key_press": -1, "type": "PRES_AUD", "word": "survey", "wordID": 1413, "conditions": [24, 1600, "a", 12000], "trial": 3, "serialpos": 15, "trial_type": "single-audio", "trial_index": 132, "time_elapsed": 633318, "internal_node_id": "0.0-96.0"}}, {"uniqueid": "MTK1019:3BF51CHDTWHFR4R8766P2NJMOAL0HP", "current_trial": 133, "dateTime": 1513007433216, "trialdata": {"rt": -1000, "stimulus": "/static/audio/wordpool/BLENDER.wav", "key_press": -1, "type": "PRES_AUD", "word": "blender", "wordID": 135, "conditions": [24, 1600, "a", 12000], "trial": 3, "serialpos": 16, "trial_type": "single-audio", "trial_index": 133, "time_elapsed": 635867, "internal_node_id": "0.0-97.0"}}, {"uniqueid": "MTK1019:3BF51CHDTWHFR4R8766P2NJMOAL0HP", "current_trial": 134, "dateTime": 1513007435618, "trialdata": {"rt": -1000, "stimulus": "/static/audio/wordpool/GIRL.wav", "key_press": -1, "type": "PRES_AUD", "word": "girl", "wordID": 636, "conditions": [24, 1600, "a", 12000], "trial": 3, "serialpos": 17, "trial_type": "single-audio", "trial_index": 134, "time_elapsed": 638269, "internal_node_id": "0.0-98.0"}}, {"uniqueid": "MTK1019:3BF51CHDTWHFR4R8766P2NJMOAL0HP", "current_trial": 135, "dateTime": 1513007438116, "trialdata": {"rt": -1000, "stimulus": "/static/audio/wordpool/TWISTER.wav", "key_press": -1, "type": "PRES_AUD", "word": "twister", "wordID": 1529, "conditions": [24, 1600, "a", 12000], "trial": 3, "serialpos": 18, "trial_type": "single-audio", "trial_index": 135, "time_elapsed": 640767, "internal_node_id": "0.0-99.0"}}, {"uniqueid": "MTK1019:3BF51CHDTWHFR4R8766P2NJMOAL0HP", "current_trial": 136, "dateTime": 1513007440660, "trialdata": {"rt": -1000, "stimulus": "/static/audio/wordpool/PADDLE.wav", "key_press": -1, "type": "PRES_AUD", "word": "paddle", "wordID": 999, "conditions": [24, 1600, "a", 12000], "trial": 3, "serialpos": 19, "trial_type": "single-audio", "trial_index": 136, "time_elapsed": 643311, "internal_node_id": "0.0-100.0"}}, {"uniqueid": "MTK1019:3BF51CHDTWHFR4R8766P2NJMOAL0HP", "current_trial": 137, "dateTime": 1513007443253, "trialdata": {"rt": -1000, "stimulus": "/static/audio/wordpool/RAFT.wav", "key_press": -1, "type": "PRES_AUD", "word": "raft", "wordID": 1158, "conditions": [24, 1600, "a", 12000], "trial": 3, "serialpos": 20, "trial_type": "single-audio", "trial_index": 137, "time_elapsed": 645904, "internal_node_id": "0.0-101.0"}}, {"uniqueid": "MTK1019:3BF51CHDTWHFR4R8766P2NJMOAL0HP", "current_trial": 138, "dateTime": 1513007446017, "trialdata": {"rt": -1000, "stimulus": "/static/audio/wordpool/RABBIT.wav", "key_press": -1, "type": "PRES_AUD", "word": "rabbit", "wordID": 1151, "conditions": [24, 1600, "a", 12000], "trial": 3, "serialpos": 21, "trial_type": "single-audio", "trial_index": 138, "time_elapsed": 648668, "internal_node_id": "0.0-102.0"}}, {"uniqueid": "MTK1019:3BF51CHDTWHFR4R8766P2NJMOAL0HP", "current_trial": 139, "dateTime": 1513007448698, "trialdata": {"rt": -1000, "stimulus": "/static/audio/wordpool/POSSUM.wav", "key_press": -1, "type": "PRES_AUD", "word": "possum", "wordID": 1111, "conditions": [24, 1600, "a", 12000], "trial": 3, "serialpos": 22, "trial_type": "single-audio", "trial_index": 139, "time_elapsed": 651349, "internal_node_id": "0.0-103.0"}}, {"uniqueid": "MTK1019:3BF51CHDTWHFR4R8766P2NJMOAL0HP", "current_trial": 140, "dateTime": 1513007451318, "trialdata": {"rt": -1000, "stimulus": "/static/audio/wordpool/FRUIT.wav", "key_press": -1, "type": "PRES_AUD", "word": "fruit", "wordID": 609, "conditions": [24, 1600, "a", 12000], "trial": 3, "serialpos": 23, "trial_type": "single-audio", "trial_index": 140, "time_elapsed": 653969, "internal_node_id": "0.0-104.0"}}, {"uniqueid": "MTK1019:3BF51CHDTWHFR4R8766P2NJMOAL0HP", "current_trial": 141, "dateTime": 1513007452656, "trialdata": {"rt": -1, "stimulus": "", "key_press": -1, "type": "PRE_RECALL_DELAY", "trial_type": "single-stim", "trial_index": 141, "time_elapsed": 655306, "internal_node_id": "0.0-105.0-0.0"}}, {"uniqueid": "MTK1019:3BF51CHDTWHFR4R8766P2NJMOAL0HP", "current_trial": 142, "dateTime": 1513007453158, "trialdata": {"rt": -1000, "stimulus": "/static/audio/400Hz.wav", "key_press": -1, "type": "PRE_RECALL_ALERT", "trial_type": "single-audio", "trial_index": 142, "time_elapsed": 655808, "internal_node_id": "0.0-106.0"}}, {"uniqueid": "MTK1019:3BF51CHDTWHFR4R8766P2NJMOAL0HP", "current_trial": 143, "dateTime": 1513007513168, "trialdata": {"rt": [5508, 7576, 11892, 16921, 19012, 23066, 24808, 29379, 32833, 41791, 45990], "recwords": ["baby", "leopard", "finger", "girl", "blender", "raft", "rabbit", "victim", "fruit", "blackboard", "survey"], "type": "FREE_RECALL", "conditions": [24, 1600, "a", 12000], "trial": 3, "trial_type": "free-recall", "trial_index": 143, "time_elapsed": 715814, "internal_node_id": "0.0-107.0-0.0"}}, {"uniqueid": "MTK1019:3BF51CHDTWHFR4R8766P2NJMOAL0HP", "current_trial": 144, "dateTime": 1513007520816, "trialdata": {"rt": 5644, "key_press": 32, "type": "INSTRUCTIONS", "trial_type": "text", "trial_index": 144, "time_elapsed": 723466, "internal_node_id": "0.0-108.0"}}, {"uniqueid": "MTK1019:3BF51CHDTWHFR4R8766P2NJMOAL0HP", "current_trial": 145, "dateTime": 1513007546821, "trialdata": {"rt": [4915, 6682, 8186, 10590, 13133, 14668, 17233, 18518, 20766], "responses": ["15", "10", "11", "7", "17", "9", "15", "11", "11"], "num1": [5, 6, 3, 1, 9, 7, 6, 1, 3, 9], "num2": [4, 3, 7, 2, 4, 1, 1, 9, 4, 5], "num3": [6, 1, 1, 4, 4, 1, 8, 1, 4, 1], "type": "DISTRACTOR", "conditions": [12, 800, "a", 24000], "trial": 4, "trial_type": "math-distractor", "trial_index": 145, "time_elapsed": 749472, "internal_node_id": "0.0-109.0"}}, {"uniqueid": "MTK1019:3BF51CHDTWHFR4R8766P2NJMOAL0HP", "current_trial": 146, "dateTime": 1513007549829, "trialdata": {"rt": -1, "stimulus": "<p id=\"stim\">10</p>", "key_press": -1, "trial_type": "single-stim", "trial_index": 146, "time_elapsed": 752480, "internal_node_id": "0.0-110.0-0.0"}}, {"uniqueid": "MTK1019:3BF51CHDTWHFR4R8766P2NJMOAL0HP", "current_trial": 147, "dateTime": 1513007550833, "trialdata": {"rt": -1, "stimulus": "<p id=\"stim\">9</p>", "key_press": -1, "trial_type": "single-stim", "trial_index": 147, "time_elapsed": 753484, "internal_node_id": "0.0-110.0-1.0"}}, {"uniqueid": "MTK1019:3BF51CHDTWHFR4R8766P2NJMOAL0HP", "current_trial": 148, "dateTime": 1513007551836, "trialdata": {"rt": -1, "stimulus": "<p id=\"stim\">8</p>", "key_press": -1, "trial_type": "single-stim", "trial_index": 148, "time_elapsed": 754487, "internal_node_id": "0.0-110.0-2.0"}}, {"uniqueid": "MTK1019:3BF51CHDTWHFR4R8766P2NJMOAL0HP", "current_trial": 149, "dateTime": 1513007552838, "trialdata": {"rt": -1, "stimulus": "<p id=\"stim\">7</p>", "key_press": -1, "trial_type": "single-stim", "trial_index": 149, "time_elapsed": 755489, "internal_node_id": "0.0-110.0-3.0"}}, {"uniqueid": "MTK1019:3BF51CHDTWHFR4R8766P2NJMOAL0HP", "current_trial": 150, "dateTime": 1513007553843, "trialdata": {"rt": -1, "stimulus": "<p id=\"stim\">6</p>", "key_press": -1, "trial_type": "single-stim", "trial_index": 150, "time_elapsed": 756494, "internal_node_id": "0.0-110.0-4.0"}}, {"uniqueid": "MTK1019:3BF51CHDTWHFR4R8766P2NJMOAL0HP", "current_trial": 151, "dateTime": 1513007554849, "trialdata": {"rt": -1, "stimulus": "<p id=\"stim\">5</p>", "key_press": -1, "trial_type": "single-stim", "trial_index": 151, "time_elapsed": 757500, "internal_node_id": "0.0-110.0-5.0"}}, {"uniqueid": "MTK1019:3BF51CHDTWHFR4R8766P2NJMOAL0HP", "current_trial": 152, "dateTime": 1513007555854, "trialdata": {"rt": -1, "stimulus": "<p id=\"stim\">4</p>", "key_press": -1, "trial_type": "single-stim", "trial_index": 152, "time_elapsed": 758505, "internal_node_id": "0.0-110.0-6.0"}}, {"uniqueid": "MTK1019:3BF51CHDTWHFR4R8766P2NJMOAL0HP", "current_trial": 153, "dateTime": 1513007556858, "trialdata": {"rt": -1, "stimulus": "<p id=\"stim\">3</p>", "key_press": -1, "trial_type": "single-stim", "trial_index": 153, "time_elapsed": 759509, "internal_node_id": "0.0-110.0-7.0"}}, {"uniqueid": "MTK1019:3BF51CHDTWHFR4R8766P2NJMOAL0HP", "current_trial": 154, "dateTime": 1513007557860, "trialdata": {"rt": -1, "stimulus": "<p id=\"stim\">2</p>", "key_press": -1, "trial_type": "single-stim", "trial_index": 154, "time_elapsed": 760511, "internal_node_id": "0.0-110.0-8.0"}}, {"uniqueid": "MTK1019:3BF51CHDTWHFR4R8766P2NJMOAL0HP", "current_trial": 155, "dateTime": 1513007558863, "trialdata": {"rt": -1, "stimulus": "<p id=\"stim\">1</p>", "key_press": -1, "trial_type": "single-stim", "trial_index": 155, "time_elapsed": 761514, "internal_node_id": "0.0-110.0-9.0"}}, {"uniqueid": "MTK1019:3BF51CHDTWHFR4R8766P2NJMOAL0HP", "current_trial": 156, "dateTime": 1513007560367, "trialdata": {"rt": -1, "stimulus": "<p id=\"stim\">+</p>", "key_press": -1, "type": "FIXATION", "trial_type": "single-stim", "trial_index": 156, "time_elapsed": 763018, "internal_node_id": "0.0-111.0-0.0"}}, {"uniqueid": "MTK1019:3BF51CHDTWHFR4R8766P2NJMOAL0HP", "current_trial": 157, "dateTime": 1513007562330, "trialdata": {"rt": -1000, "stimulus": "/static/audio/wordpool/CRIB.wav", "key_press": -1, "type": "PRES_AUD", "word": "crib", "wordID": 406, "conditions": [12, 800, "a", 24000], "trial": 4, "serialpos": 0, "trial_type": "single-audio", "trial_index": 157, "time_elapsed": 764980, "internal_node_id": "0.0-112.0"}}, {"uniqueid": "MTK1019:3BF51CHDTWHFR4R8766P2NJMOAL0HP", "current_trial": 158, "dateTime": 1513007564197, "trialdata": {"rt": -1000, "stimulus": "/static/audio/wordpool/CANAL.wav", "key_press": -1, "type": "PRES_AUD", "word": "canal", "wordID": 225, "conditions": [12, 800, "a", 24000], "trial": 4, "serialpos": 1, "trial_type": "single-audio", "trial_index": 158, "time_elapsed": 766847, "internal_node_id": "0.0-113.0"}}, {"uniqueid": "MTK1019:3BF51CHDTWHFR4R8766P2NJMOAL0HP", "current_trial": 159, "dateTime": 1513007566132, "trialdata": {"rt": -1000, "stimulus": "/static/audio/wordpool/MOP.wav", "key_press": -1, "type": "PRES_AUD", "word": "mop", "wordID": 915, "conditions": [12, 800, "a", 24000], "trial": 4, "serialpos": 2, "trial_type": "single-audio", "trial_index": 159, "time_elapsed": 768783, "internal_node_id": "0.0-114.0"}}, {"uniqueid": "MTK1019:3BF51CHDTWHFR4R8766P2NJMOAL0HP", "current_trial": 160, "dateTime": 1513007567932, "trialdata": {"rt": -1000, "stimulus": "/static/audio/wordpool/WASP.wav", "key_press": -1, "type": "PRES_AUD", "word": "wasp", "wordID": 1592, "conditions": [12, 800, "a", 24000], "trial": 4, "serialpos": 3, "trial_type": "single-audio", "trial_index": 160, "time_elapsed": 770583, "internal_node_id": "0.0-115.0"}}, {"uniqueid": "MTK1019:3BF51CHDTWHFR4R8766P2NJMOAL0HP", "current_trial": 161, "dateTime": 1513007569664, "trialdata": {"rt": -1000, "stimulus": "/static/audio/wordpool/ROBIN.wav", "key_press": -1, "type": "PRES_AUD", "word": "robin", "wordID": 1198, "conditions": [12, 800, "a", 24000], "trial": 4, "serialpos": 4, "trial_type": "single-audio", "trial_index": 161, "time_elapsed": 772315, "internal_node_id": "0.0-116.0"}}, {"uniqueid": "MTK1019:3BF51CHDTWHFR4R8766P2NJMOAL0HP", "current_trial": 162, "dateTime": 1513007571474, "trialdata": {"rt": -1000, "stimulus": "/static/audio/wordpool/DRIVER.wav", "key_press": -1, "type": "PRES_AUD", "word": "driver", "wordID": 498, "conditions": [12, 800, "a", 24000], "trial": 4, "serialpos": 5, "trial_type": "single-audio", "trial_index": 162, "time_elapsed": 774124, "internal_node_id": "0.0-117.0"}}, {"uniqueid": "MTK1019:3BF51CHDTWHFR4R8766P2NJMOAL0HP", "current_trial": 163, "dateTime": 1513007573330, "trialdata": {"rt": -1000, "stimulus": "/static/audio/wordpool/SKILLET.wav", "key_press": -1, "type": "PRES_AUD", "word": "skillet", "wordID": 1316, "conditions": [12, 800, "a", 24000], "trial": 4, "serialpos": 6, "trial_type": "single-audio", "trial_index": 163, "time_elapsed": 775981, "internal_node_id": "0.0-118.0"}}, {"uniqueid": "MTK1019:3BF51CHDTWHFR4R8766P2NJMOAL0HP", "current_trial": 164, "dateTime": 1513007575052, "trialdata": {"rt": -1000, "stimulus": "/static/audio/wordpool/BACON.wav", "key_press": -1, "type": "PRES_AUD", "word": "bacon", "wordID": 66, "conditions": [12, 800, "a", 24000], "trial": 4, "serialpos": 7, "trial_type": "single-audio", "trial_index": 164, "time_elapsed": 777703, "internal_node_id": "0.0-119.0"}}, {"uniqueid": "MTK1019:3BF51CHDTWHFR4R8766P2NJMOAL0HP", "current_trial": 165, "dateTime": 1513007576978, "trialdata": {"rt": -1000, "stimulus": "/static/audio/wordpool/SKIRT.wav", "key_press": -1, "type": "PRES_AUD", "word": "skirt", "wordID": 1318, "conditions": [12, 800, "a", 24000], "trial": 4, "serialpos": 8, "trial_type": "single-audio", "trial_index": 165, "time_elapsed": 779628, "internal_node_id": "0.0-120.0"}}, {"uniqueid": "MTK1019:3BF51CHDTWHFR4R8766P2NJMOAL0HP", "current_trial": 166, "dateTime": 1513007578831, "trialdata": {"rt": -1000, "stimulus": "/static/audio/wordpool/DENIM.wav", "key_press": -1, "type": "PRES_AUD", "word": "denim", "wordID": 445, "conditions": [12, 800, "a", 24000], "trial": 4, "serialpos": 9, "trial_type": "single-audio", "trial_index": 166, "time_elapsed": 781482, "internal_node_id": "0.0-121.0"}}, {"uniqueid": "MTK1019:3BF51CHDTWHFR4R8766P2NJMOAL0HP", "current_trial": 167, "dateTime": 1513007580517, "trialdata": {"rt": -1000, "stimulus": "/static/audio/wordpool/MATTRESS.wav", "key_press": -1, "type": "PRES_AUD", "word": "mattress", "wordID": 878, "conditions": [12, 800, "a", 24000], "trial": 4, "serialpos": 10, "trial_type": "single-audio", "trial_index": 167, "time_elapsed": 783167, "internal_node_id": "0.0-122.0"}}, {"uniqueid": "MTK1019:3BF51CHDTWHFR4R8766P2NJMOAL0HP", "current_trial": 168, "dateTime": 1513007582358, "trialdata": {"rt": -1000, "stimulus": "/static/audio/wordpool/DANCER.wav", "key_press": -1, "type": "PRES_AUD", "word": "dancer", "wordID": 436, "conditions": [12, 800, "a", 24000], "trial": 4, "serialpos": 11, "trial_type": "single-audio", "trial_index": 168, "time_elapsed": 785009, "internal_node_id": "0.0-123.0"}}, {"uniqueid": "MTK1019:3BF51CHDTWHFR4R8766P2NJMOAL0HP", "current_trial": 169, "dateTime": 1513007583721, "trialdata": {"rt": -1, "stimulus": "", "key_press": -1, "type": "PRE_RECALL_DELAY", "trial_type": "single-stim", "trial_index": 169, "time_elapsed": 786372, "internal_node_id": "0.0-124.0-0.0"}}, {"uniqueid": "MTK1019:3BF51CHDTWHFR4R8766P2NJMOAL0HP", "current_trial": 170, "dateTime": 1513007584226, "trialdata": {"rt": -1000, "stimulus": "/static/audio/400Hz.wav", "key_press": -1, "type": "PRE_RECALL_ALERT", "trial_type": "single-audio", "trial_index": 170, "time_elapsed": 786877, "internal_node_id": "0.0-125.0"}}, {"uniqueid": "MTK1019:3BF51CHDTWHFR4R8766P2NJMOAL0HP", "current_trial": 171, "dateTime": 1513007644245, "trialdata": {"rt": [3582, 6798, 13030, 19130, 20054, 25821], "recwords": ["skillet", "dancer", "mattress", "canal", "crib", "wasp"], "type": "FREE_RECALL", "conditions": [12, 800, "a", 24000], "trial": 4, "trial_type": "free-recall", "trial_index": 171, "time_elapsed": 846886, "internal_node_id": "0.0-126.0-0.0"}}, {"uniqueid": "MTK1019:3BF51CHDTWHFR4R8766P2NJMOAL0HP", "current_trial": 172, "dateTime": 1513007648082, "trialdata": {"rt": 1832, "key_press": 32, "type": "INSTRUCTIONS", "trial_type": "text", "trial_index": 172, "time_elapsed": 850733, "internal_node_id": "0.0-127.0"}}, {"uniqueid": "MTK1019:3BF51CHDTWHFR4R8766P2NJMOAL0HP", "current_trial": 173, "dateTime": 1513007674091, "trialdata": {"rt": [3099, 4831, 6970, 9515, 11913, 13430, 15979, 18717, 22360], "responses": ["21", "21", "12", "12", "14", "11", "15", "19", "20"], "num1": [3, 7, 2, 4, 6, 7, 6, 6, 8, 7], "num2": [9, 7, 8, 5, 1, 3, 3, 8, 6, 5], "num3": [9, 7, 2, 3, 7, 1, 6, 5, 6, 3], "type": "DISTRACTOR", "conditions": [12, 1600, "v", 24000], "trial": 5, "trial_type": "math-distractor", "trial_index": 173, "time_elapsed": 876742, "internal_node_id": "0.0-128.0"}}, {"uniqueid": "MTK1019:3BF51CHDTWHFR4R8766P2NJMOAL0HP", "current_trial": 174, "dateTime": 1513007677096, "trialdata": {"rt": -1, "stimulus": "<p id=\"stim\">10</p>", "key_press": -1, "trial_type": "single-stim", "trial_index": 174, "time_elapsed": 879747, "internal_node_id": "0.0-129.0-0.0"}}, {"uniqueid": "MTK1019:3BF51CHDTWHFR4R8766P2NJMOAL0HP", "current_trial": 175, "dateTime": 1513007678101, "trialdata": {"rt": -1, "stimulus": "<p id=\"stim\">9</p>", "key_press": -1, "trial_type": "single-stim", "trial_index": 175, "time_elapsed": 880752, "internal_node_id": "0.0-129.0-1.0"}}, {"uniqueid": "MTK1019:3BF51CHDTWHFR4R8766P2NJMOAL0HP", "current_trial": 176, "dateTime": 1513007679104, "trialdata": {"rt": -1, "stimulus": "<p id=\"stim\">8</p>", "key_press": -1, "trial_type": "single-stim", "trial_index": 176, "time_elapsed": 881755, "internal_node_id": "0.0-129.0-2.0"}}, {"uniqueid": "MTK1019:3BF51CHDTWHFR4R8766P2NJMOAL0HP", "current_trial": 177, "dateTime": 1513007680107, "trialdata": {"rt": -1, "stimulus": "<p id=\"stim\">7</p>", "key_press": -1, "trial_type": "single-stim", "trial_index": 177, "time_elapsed": 882758, "internal_node_id": "0.0-129.0-3.0"}}, {"uniqueid": "MTK1019:3BF51CHDTWHFR4R8766P2NJMOAL0HP", "current_trial": 178, "dateTime": 1513007681111, "trialdata": {"rt": -1, "stimulus": "<p id=\"stim\">6</p>", "key_press": -1, "trial_type": "single-stim", "trial_index": 178, "time_elapsed": 883762, "internal_node_id": "0.0-129.0-4.0"}}, {"uniqueid": "MTK1019:3BF51CHDTWHFR4R8766P2NJMOAL0HP", "current_trial": 179, "dateTime": 1513007682116, "trialdata": {"rt": -1, "stimulus": "<p id=\"stim\">5</p>", "key_press": -1, "trial_type": "single-stim", "trial_index": 179, "time_elapsed": 884767, "internal_node_id": "0.0-129.0-5.0"}}, {"uniqueid": "MTK1019:3BF51CHDTWHFR4R8766P2NJMOAL0HP", "current_trial": 180, "dateTime": 1513007683120, "trialdata": {"rt": -1, "stimulus": "<p id=\"stim\">4</p>", "key_press": -1, "trial_type": "single-stim", "trial_index": 180, "time_elapsed": 885771, "internal_node_id": "0.0-129.0-6.0"}}, {"uniqueid": "MTK1019:3BF51CHDTWHFR4R8766P2NJMOAL0HP", "current_trial": 181, "dateTime": 1513007684125, "trialdata": {"rt": -1, "stimulus": "<p id=\"stim\">3</p>", "key_press": -1, "trial_type": "single-stim", "trial_index": 181, "time_elapsed": 886776, "internal_node_id": "0.0-129.0-7.0"}}, {"uniqueid": "MTK1019:3BF51CHDTWHFR4R8766P2NJMOAL0HP", "current_trial": 182, "dateTime": 1513007685127, "trialdata": {"rt": -1, "stimulus": "<p id=\"stim\">2</p>", "key_press": -1, "trial_type": "single-stim", "trial_index": 182, "time_elapsed": 887778, "internal_node_id": "0.0-129.0-8.0"}}, {"uniqueid": "MTK1019:3BF51CHDTWHFR4R8766P2NJMOAL0HP", "current_trial": 183, "dateTime": 1513007686131, "trialdata": {"rt": -1, "stimulus": "<p id=\"stim\">1</p>", "key_press": -1, "trial_type": "single-stim", "trial_index": 183, "time_elapsed": 888782, "internal_node_id": "0.0-129.0-9.0"}}, {"uniqueid": "MTK1019:3BF51CHDTWHFR4R8766P2NJMOAL0HP", "current_trial": 184, "dateTime": 1513007687635, "trialdata": {"rt": -1, "stimulus": "<p id=\"stim\">+</p>", "key_press": -1, "type": "FIXATION", "trial_type": "single-stim", "trial_index": 184, "time_elapsed": 890286, "internal_node_id": "0.0-130.0-0.0"}}, {"uniqueid": "MTK1019:3BF51CHDTWHFR4R8766P2NJMOAL0HP", "current_trial": 185, "dateTime": 1513007689237, "trialdata": {"rt": -1, "stimulus": "<p id=\"stim\">CONCERT</p>", "key_press": -1, "type": "PRES_VIS", "word": "concert", "wordID": 359, "conditions": [12, 1600, "v", 24000], "trial": 5, "serialpos": 0, "trial_type": "single-stim", "trial_index": 185, "time_elapsed": 891888, "internal_node_id": "0.0-131.0"}}, {"uniqueid": "MTK1019:3BF51CHDTWHFR4R8766P2NJMOAL0HP", "current_trial": 186, "dateTime": 1513007691934, "trialdata": {"rt": -1, "stimulus": "<p id=\"stim\">HIKER</p>", "key_press": -1, "type": "PRES_VIS", "word": "hiker", "wordID": 707, "conditions": [12, 1600, "v", 24000], "trial": 5, "serialpos": 1, "trial_type": "single-stim", "trial_index": 186, "time_elapsed": 894585, "internal_node_id": "0.0-132.0"}}, {"uniqueid": "MTK1019:3BF51CHDTWHFR4R8766P2NJMOAL0HP", "current_trial": 187, "dateTime": 1513007694384, "trialdata": {"rt": -1, "stimulus": "<p id=\"stim\">PILOT</p>", "key_press": -1, "type": "PRES_VIS", "word": "pilot", "wordID": 1069, "conditions": [12, 1600, "v", 24000], "trial": 5, "serialpos": 2, "trial_type": "single-stim", "trial_index": 187, "time_elapsed": 897035, "internal_node_id": "0.0-133.0"}}, {"uniqueid": "MTK1019:3BF51CHDTWHFR4R8766P2NJMOAL0HP", "current_trial": 188, "dateTime": 1513007696964, "trialdata": {"rt": -1, "stimulus": "<p id=\"stim\">TYPIST</p>", "key_press": -1, "type": "PRES_VIS", "word": "typist", "wordID": 1531, "conditions": [12, 1600, "v", 24000], "trial": 5, "serialpos": 3, "trial_type": "single-stim", "trial_index": 188, "time_elapsed": 899615, "internal_node_id": "0.0-134.0"}}, {"uniqueid": "MTK1019:3BF51CHDTWHFR4R8766P2NJMOAL0HP", "current_trial": 189, "dateTime": 1513007699395, "trialdata": {"rt": -1, "stimulus": "<p id=\"stim\">FLASHLIGHT</p>", "key_press": -1, "type": "PRES_VIS", "word": "flashlight", "wordID": 574, "conditions": [12, 1600, "v", 24000], "trial": 5, "serialpos": 4, "trial_type": "single-stim", "trial_index": 189, "time_elapsed": 902046, "internal_node_id": "0.0-135.0"}}, {"uniqueid": "MTK1019:3BF51CHDTWHFR4R8766P2NJMOAL0HP", "current_trial": 190, "dateTime": 1513007701851, "trialdata": {"rt": -1, "stimulus": "<p id=\"stim\">MAPLE</p>", "key_press": -1, "type": "PRES_VIS", "word": "maple", "wordID": 865, "conditions": [12, 1600, "v", 24000], "trial": 5, "serialpos": 5, "trial_type": "single-stim", "trial_index": 190, "time_elapsed": 904502, "internal_node_id": "0.0-136.0"}}, {"uniqueid": "MTK1019:3BF51CHDTWHFR4R8766P2NJMOAL0HP", "current_trial": 191, "dateTime": 1513007704430, "trialdata": {"rt": -1, "stimulus": "<p id=\"stim\">BRIEFCASE</p>", "key_press": -1, "type": "PRES_VIS", "word": "briefcase", "wordID": 174, "conditions": [12, 1600, "v", 24000], "trial": 5, "serialpos": 6, "trial_type": "single-stim", "trial_index": 191, "time_elapsed": 907081, "internal_node_id": "0.0-137.0"}}, {"uniqueid": "MTK1019:3BF51CHDTWHFR4R8766P2NJMOAL0HP", "current_trial": 192, "dateTime": 1513007706907, "trialdata": {"rt": -1, "stimulus": "<p id=\"stim\">LACE</p>", "key_press": -1, "type": "PRES_VIS", "word": "lace", "wordID": 791, "conditions": [12, 1600, "v", 24000], "trial": 5, "serialpos": 7, "trial_type": "single-stim", "trial_index": 192, "time_elapsed": 909558, "internal_node_id": "0.0-138.0"}}, {"uniqueid": "MTK1019:3BF51CHDTWHFR4R8766P2NJMOAL0HP", "current_trial": 193, "dateTime": 1513007709628, "trialdata": {"rt": -1, "stimulus": "<p id=\"stim\">TROMBONE</p>", "key_press": -1, "type": "PRES_VIS", "word": "trombone", "wordID": 1507, "conditions": [12, 1600, "v", 24000], "trial": 5, "serialpos": 8, "trial_type": "single-stim", "trial_index": 193, "time_elapsed": 912279, "internal_node_id": "0.0-139.0"}}, {"uniqueid": "MTK1019:3BF51CHDTWHFR4R8766P2NJMOAL0HP", "current_trial": 194, "dateTime": 1513007712236, "trialdata": {"rt": -1, "stimulus": "<p id=\"stim\">CREATURE</p>", "key_press": -1, "type": "PRES_VIS", "word": "creature", "wordID": 402, "conditions": [12, 1600, "v", 24000], "trial": 5, "serialpos": 9, "trial_type": "single-stim", "trial_index": 194, "time_elapsed": 914887, "internal_node_id": "0.0-140.0"}}, {"uniqueid": "MTK1019:3BF51CHDTWHFR4R8766P2NJMOAL0HP", "current_trial": 195, "dateTime": 1513007714921, "trialdata": {"rt": -1, "stimulus": "<p id=\"stim\">TURTLE</p>", "key_press": -1, "type": "PRES_VIS", "word": "turtle", "wordID": 1521, "conditions": [12, 1600, "v", 24000], "trial": 5, "serialpos": 10, "trial_type": "single-stim", "trial_index": 195, "time_elapsed": 917572, "internal_node_id": "0.0-141.0"}}, {"uniqueid": "MTK1019:3BF51CHDTWHFR4R8766P2NJMOAL0HP", "current_trial": 196, "dateTime": 1513007717642, "trialdata": {"rt": -1, "stimulus": "<p id=\"stim\">SUITCASE</p>", "key_press": -1, "type": "PRES_VIS", "word": "suitcase", "wordID": 1402, "conditions": [12, 1600, "v", 24000], "trial": 5, "serialpos": 11, "trial_type": "single-stim", "trial_index": 196, "time_elapsed": 920293, "internal_node_id": "0.0-142.0"}}, {"uniqueid": "MTK1019:3BF51CHDTWHFR4R8766P2NJMOAL0HP", "current_trial": 197, "dateTime": 1513007719922, "trialdata": {"rt": -1, "stimulus": "", "key_press": -1, "type": "PRE_RECALL_DELAY", "trial_type": "single-stim", "trial_index": 197, "time_elapsed": 922573, "internal_node_id": "0.0-143.0-0.0"}}, {"uniqueid": "MTK1019:3BF51CHDTWHFR4R8766P2NJMOAL0HP", "current_trial": 198, "dateTime": 1513007720427, "trialdata": {"rt": -1000, "stimulus": "/static/audio/400Hz.wav", "key_press": -1, "type": "PRE_RECALL_ALERT", "trial_type": "single-audio", "trial_index": 198, "time_elapsed": 923077, "internal_node_id": "0.0-144.0"}}, {"uniqueid": "MTK1019:3BF51CHDTWHFR4R8766P2NJMOAL0HP", "current_trial": 199, "dateTime": 1513007780437, "trialdata": {"rt": [2907, 8845, 15359, 15451, 16869, 22174], "recwords": ["concert", "suitcase", "pilot", "", "typist", "maple"], "type": "FREE_RECALL", "conditions": [12, 1600, "v", 24000], "trial": 5, "trial_type": "free-recall", "trial_index": 199, "time_elapsed": 983082, "internal_node_id": "0.0-145.0-0.0"}}, {"uniqueid": "MTK1019:3BF51CHDTWHFR4R8766P2NJMOAL0HP", "current_trial": 200, "dateTime": 1513007783316, "trialdata": {"rt": 874, "key_press": 32, "type": "INSTRUCTIONS", "trial_type": "text", "trial_index": 200, "time_elapsed": 985967, "internal_node_id": "0.0-146.0"}}, {"uniqueid": "MTK1019:3BF51CHDTWHFR4R8766P2NJMOAL0HP", "current_trial": 201, "dateTime": 1513007809321, "trialdata": {"rt": [2529, 4316, 6131, 11645, 14581, 16434, 18335, 21137, 23857], "responses": ["16", "7", "11", "17", "133", "10", "16", "13", "20"], "num1": [6, 2, 4, 4, 2, 2, 5, 5, 5, 5], "num2": [5, 4, 2, 5, 6, 3, 6, 6, 7, 6], "num3": [5, 1, 5, 8, 5, 5, 5, 2, 8, 6], "type": "DISTRACTOR", "conditions": [24, 800, "v", 24000], "trial": 6, "trial_type": "math-distractor", "trial_index": 201, "time_elapsed": 1011971, "internal_node_id": "0.0-147.0"}}, {"uniqueid": "MTK1019:3BF51CHDTWHFR4R8766P2NJMOAL0HP", "current_trial": 202, "dateTime": 1513007812326, "trialdata": {"rt": -1, "stimulus": "<p id=\"stim\">10</p>", "key_press": -1, "trial_type": "single-stim", "trial_index": 202, "time_elapsed": 1014977, "internal_node_id": "0.0-148.0-0.0"}}, {"uniqueid": "MTK1019:3BF51CHDTWHFR4R8766P2NJMOAL0HP", "current_trial": 203, "dateTime": 1513007813330, "trialdata": {"rt": -1, "stimulus": "<p id=\"stim\">9</p>", "key_press": -1, "trial_type": "single-stim", "trial_index": 203, "time_elapsed": 1015981, "internal_node_id": "0.0-148.0-1.0"}}, {"uniqueid": "MTK1019:3BF51CHDTWHFR4R8766P2NJMOAL0HP", "current_trial": 204, "dateTime": 1513007814332, "trialdata": {"rt": -1, "stimulus": "<p id=\"stim\">8</p>", "key_press": -1, "trial_type": "single-stim", "trial_index": 204, "time_elapsed": 1016983, "internal_node_id": "0.0-148.0-2.0"}}, {"uniqueid": "MTK1019:3BF51CHDTWHFR4R8766P2NJMOAL0HP", "current_trial": 205, "dateTime": 1513007815336, "trialdata": {"rt": -1, "stimulus": "<p id=\"stim\">7</p>", "key_press": -1, "trial_type": "single-stim", "trial_index": 205, "time_elapsed": 1017987, "internal_node_id": "0.0-148.0-3.0"}}, {"uniqueid": "MTK1019:3BF51CHDTWHFR4R8766P2NJMOAL0HP", "current_trial": 206, "dateTime": 1513007816340, "trialdata": {"rt": -1, "stimulus": "<p id=\"stim\">6</p>", "key_press": -1, "trial_type": "single-stim", "trial_index": 206, "time_elapsed": 1018991, "internal_node_id": "0.0-148.0-4.0"}}, {"uniqueid": "MTK1019:3BF51CHDTWHFR4R8766P2NJMOAL0HP", "current_trial": 207, "dateTime": 1513007817343, "trialdata": {"rt": -1, "stimulus": "<p id=\"stim\">5</p>", "key_press": -1, "trial_type": "single-stim", "trial_index": 207, "time_elapsed": 1019994, "internal_node_id": "0.0-148.0-5.0"}}, {"uniqueid": "MTK1019:3BF51CHDTWHFR4R8766P2NJMOAL0HP", "current_trial": 208, "dateTime": 1513007818345, "trialdata": {"rt": -1, "stimulus": "<p id=\"stim\">4</p>", "key_press": -1, "trial_type": "single-stim", "trial_index": 208, "time_elapsed": 1020996, "internal_node_id": "0.0-148.0-6.0"}}, {"uniqueid": "MTK1019:3BF51CHDTWHFR4R8766P2NJMOAL0HP", "current_trial": 209, "dateTime": 1513007819348, "trialdata": {"rt": -1, "stimulus": "<p id=\"stim\">3</p>", "key_press": -1, "trial_type": "single-stim", "trial_index": 209, "time_elapsed": 1021998, "internal_node_id": "0.0-148.0-7.0"}}, {"uniqueid": "MTK1019:3BF51CHDTWHFR4R8766P2NJMOAL0HP", "current_trial": 210, "dateTime": 1513007820352, "trialdata": {"rt": -1, "stimulus": "<p id=\"stim\">2</p>", "key_press": -1, "trial_type": "single-stim", "trial_index": 210, "time_elapsed": 1023002, "internal_node_id": "0.0-148.0-8.0"}}, {"uniqueid": "MTK1019:3BF51CHDTWHFR4R8766P2NJMOAL0HP", "current_trial": 211, "dateTime": 1513007821356, "trialdata": {"rt": -1, "stimulus": "<p id=\"stim\">1</p>", "key_press": -1, "trial_type": "single-stim", "trial_index": 211, "time_elapsed": 1024006, "internal_node_id": "0.0-148.0-9.0"}}, {"uniqueid": "MTK1019:3BF51CHDTWHFR4R8766P2NJMOAL0HP", "current_trial": 212, "dateTime": 1513007822860, "trialdata": {"rt": -1, "stimulus": "<p id=\"stim\">+</p>", "key_press": -1, "type": "FIXATION", "trial_type": "single-stim", "trial_index": 212, "time_elapsed": 1025511, "internal_node_id": "0.0-149.0-0.0"}}, {"uniqueid": "MTK1019:3BF51CHDTWHFR4R8766P2NJMOAL0HP", "current_trial": 213, "dateTime": 1513007823674, "trialdata": {"rt": -1, "stimulus": "<p id=\"stim\">PORTRAIT</p>", "key_press": -1, "type": "PRES_VIS", "word": "portrait", "wordID": 1110, "conditions": [24, 800, "v", 24000], "trial": 6, "serialpos": 0, "trial_type": "single-stim", "trial_index": 213, "time_elapsed": 1026324, "internal_node_id": "0.0-150.0"}}, {"uniqueid": "MTK1019:3BF51CHDTWHFR4R8766P2NJMOAL0HP", "current_trial": 214, "dateTime": 1513007825672, "trialdata": {"rt": -1, "stimulus": "<p id=\"stim\">FLOWER</p>", "key_press": -1, "type": "PRES_VIS", "word": "flower", "wordID": 583, "conditions": [24, 800, "v", 24000], "trial": 6, "serialpos": 1, "trial_type": "single-stim", "trial_index": 214, "time_elapsed": 1028323, "internal_node_id": "0.0-151.0"}}, {"uniqueid": "MTK1019:3BF51CHDTWHFR4R8766P2NJMOAL0HP", "current_trial": 215, "dateTime": 1513007827461, "trialdata": {"rt": -1, "stimulus": "<p id=\"stim\">EUROPE</p>", "key_press": -1, "type": "PRES_VIS", "word": "europe", "wordID": 540, "conditions": [24, 800, "v", 24000], "trial": 6, "serialpos": 2, "trial_type": "single-stim", "trial_index": 215, "time_elapsed": 1030112, "internal_node_id": "0.0-152.0"}}, {"uniqueid": "MTK1019:3BF51CHDTWHFR4R8766P2NJMOAL0HP", "current_trial": 216, "dateTime": 1513007829300, "trialdata": {"rt": -1, "stimulus": "<p id=\"stim\">LONDON</p>", "key_press": -1, "type": "PRES_VIS", "word": "london", "wordID": 842, "conditions": [24, 800, "v", 24000], "trial": 6, "serialpos": 3, "trial_type": "single-stim", "trial_index": 216, "time_elapsed": 1031951, "internal_node_id": "0.0-153.0"}}, {"uniqueid": "MTK1019:3BF51CHDTWHFR4R8766P2NJMOAL0HP", "current_trial": 217, "dateTime": 1513007831275, "trialdata": {"rt": -1, "stimulus": "<p id=\"stim\">FLASK</p>", "key_press": -1, "type": "PRES_VIS", "word": "flask", "wordID": 575, "conditions": [24, 800, "v", 24000], "trial": 6, "serialpos": 4, "trial_type": "single-stim", "trial_index": 217, "time_elapsed": 1033926, "internal_node_id": "0.0-154.0"}}, {"uniqueid": "MTK1019:3BF51CHDTWHFR4R8766P2NJMOAL0HP", "current_trial": 218, "dateTime": 1513007832898, "trialdata": {"rt": -1, "stimulus": "<p id=\"stim\">BUG</p>", "key_press": -1, "type": "PRES_VIS", "word": "bug", "wordID": 186, "conditions": [24, 800, "v", 24000], "trial": 6, "serialpos": 5, "trial_type": "single-stim", "trial_index": 218, "time_elapsed": 1035549, "internal_node_id": "0.0-155.0"}}, {"uniqueid": "MTK1019:3BF51CHDTWHFR4R8766P2NJMOAL0HP", "current_trial": 219, "dateTime": 1513007834671, "trialdata": {"rt": -1, "stimulus": "<p id=\"stim\">MAILBOX</p>", "key_press": -1, "type": "PRES_VIS", "word": "mailbox", "wordID": 856, "conditions": [24, 800, "v", 24000], "trial": 6, "serialpos": 6, "trial_type": "single-stim", "trial_index": 219, "time_elapsed": 1037321, "internal_node_id": "0.0-156.0"}}, {"uniqueid": "MTK1019:3BF51CHDTWHFR4R8766P2NJMOAL0HP", "current_trial": 220, "dateTime": 1513007836472, "trialdata": {"rt": -1, "stimulus": "<p id=\"stim\">WINDOW</p>", "key_press": -1, "type": "PRES_VIS", "word": "window", "wordID": 1610, "conditions": [24, 800, "v", 24000], "trial": 6, "serialpos": 7, "trial_type": "single-stim", "trial_index": 220, "time_elapsed": 1039123, "internal_node_id": "0.0-157.0"}}, {"uniqueid": "MTK1019:3BF51CHDTWHFR4R8766P2NJMOAL0HP", "current_trial": 221, "dateTime": 1513007838436, "trialdata": {"rt": -1, "stimulus": "<p id=\"stim\">INFANT</p>", "key_press": -1, "type": "PRES_VIS", "word": "infant", "wordID": 736, "conditions": [24, 800, "v", 24000], "trial": 6, "serialpos": 8, "trial_type": "single-stim", "trial_index": 221, "time_elapsed": 1041087, "internal_node_id": "0.0-158.0"}}, {"uniqueid": "MTK1019:3BF51CHDTWHFR4R8766P2NJMOAL0HP", "current_trial": 222, "dateTime": 1513007840315, "trialdata": {"rt": -1, "stimulus": "<p id=\"stim\">PICTURE</p>", "key_press": -1, "type": "PRES_VIS", "word": "picture", "wordID": 1060, "conditions": [24, 800, "v", 24000], "trial": 6, "serialpos": 9, "trial_type": "single-stim", "trial_index": 222, "time_elapsed": 1042966, "internal_node_id": "0.0-159.0"}}, {"uniqueid": "MTK1019:3BF51CHDTWHFR4R8766P2NJMOAL0HP", "current_trial": 223, "dateTime": 1513007841987, "trialdata": {"rt": -1, "stimulus": "<p id=\"stim\">VIRUS</p>", "key_press": -1, "type": "PRES_VIS", "word": "virus", "wordID": 1571, "conditions": [24, 800, "v", 24000], "trial": 6, "serialpos": 10, "trial_type": "single-stim", "trial_index": 223, "time_elapsed": 1044638, "internal_node_id": "0.0-160.0"}}, {"uniqueid": "MTK1019:3BF51CHDTWHFR4R8766P2NJMOAL0HP", "current_trial": 224, "dateTime": 1513007843706, "trialdata": {"rt": -1, "stimulus": "<p id=\"stim\">PACKAGE</p>", "key_press": -1, "type": "PRES_VIS", "word": "package", "wordID": 996, "conditions": [24, 800, "v", 24000], "trial": 6, "serialpos": 11, "trial_type": "single-stim", "trial_index": 224, "time_elapsed": 1046357, "internal_node_id": "0.0-161.0"}}, {"uniqueid": "MTK1019:3BF51CHDTWHFR4R8766P2NJMOAL0HP", "current_trial": 225, "dateTime": 1513007845369, "trialdata": {"rt": -1, "stimulus": "<p id=\"stim\">COUSIN</p>", "key_press": -1, "type": "PRES_VIS", "word": "cousin", "wordID": 391, "conditions": [24, 800, "v", 24000], "trial": 6, "serialpos": 12, "trial_type": "single-stim", "trial_index": 225, "time_elapsed": 1048020, "internal_node_id": "0.0-162.0"}}, {"uniqueid": "MTK1019:3BF51CHDTWHFR4R8766P2NJMOAL0HP", "current_trial": 226, "dateTime": 1513007847134, "trialdata": {"rt": -1, "stimulus": "<p id=\"stim\">GUARD</p>", "key_press": -1, "type": "PRES_VIS", "word": "guard", "wordID": 666, "conditions": [24, 800, "v", 24000], "trial": 6, "serialpos": 13, "trial_type": "single-stim", "trial_index": 226, "time_elapsed": 1049785, "internal_node_id": "0.0-163.0"}}, {"uniqueid": "MTK1019:3BF51CHDTWHFR4R8766P2NJMOAL0HP", "current_trial": 227, "dateTime": 1513007849028, "trialdata": {"rt": -1, "stimulus": "<p id=\"stim\">COD</p>", "key_press": -1, "type": "PRES_VIS", "word": "cod", "wordID": 339, "conditions": [24, 800, "v", 24000], "trial": 6, "serialpos": 14, "trial_type": "single-stim", "trial_index": 227, "time_elapsed": 1051679, "internal_node_id": "0.0-164.0"}}, {"uniqueid": "MTK1019:3BF51CHDTWHFR4R8766P2NJMOAL0HP", "current_trial": 228, "dateTime": 1513007850640, "trialdata": {"rt": -1, "stimulus": "<p id=\"stim\">RUG</p>", "key_press": -1, "type": "PRES_VIS", "word": "rug", "wordID": 1214, "conditions": [24, 800, "v", 24000], "trial": 6, "serialpos": 15, "trial_type": "single-stim", "trial_index": 228, "time_elapsed": 1053290, "internal_node_id": "0.0-165.0"}}, {"uniqueid": "MTK1019:3BF51CHDTWHFR4R8766P2NJMOAL0HP", "current_trial": 229, "dateTime": 1513007852368, "trialdata": {"rt": -1, "stimulus": "<p id=\"stim\">PASTA</p>", "key_press": -1, "type": "PRES_VIS", "word": "pasta", "wordID": 1020, "conditions": [24, 800, "v", 24000], "trial": 6, "serialpos": 16, "trial_type": "single-stim", "trial_index": 229, "time_elapsed": 1055018, "internal_node_id": "0.0-166.0"}}, {"uniqueid": "MTK1019:3BF51CHDTWHFR4R8766P2NJMOAL0HP", "current_trial": 230, "dateTime": 1513007854370, "trialdata": {"rt": -1, "stimulus": "<p id=\"stim\">MAILMAN</p>", "key_press": -1, "type": "PRES_VIS", "word": "mailman", "wordID": 857, "conditions": [24, 800, "v", 24000], "trial": 6, "serialpos": 17, "trial_type": "single-stim", "trial_index": 230, "time_elapsed": 1057020, "internal_node_id": "0.0-167.0"}}, {"uniqueid": "MTK1019:3BF51CHDTWHFR4R8766P2NJMOAL0HP", "current_trial": 231, "dateTime": 1513007856124, "trialdata": {"rt": -1, "stimulus": "<p id=\"stim\">LAKE</p>", "key_press": -1, "type": "PRES_VIS", "word": "lake", "wordID": 795, "conditions": [24, 800, "v", 24000], "trial": 6, "serialpos": 18, "trial_type": "single-stim", "trial_index": 231, "time_elapsed": 1058775, "internal_node_id": "0.0-168.0"}}, {"uniqueid": "MTK1019:3BF51CHDTWHFR4R8766P2NJMOAL0HP", "current_trial": 232, "dateTime": 1513007857744, "trialdata": {"rt": -1, "stimulus": "<p id=\"stim\">SHORTCAKE</p>", "key_press": -1, "type": "PRES_VIS", "word": "shortcake", "wordID": 1291, "conditions": [24, 800, "v", 24000], "trial": 6, "serialpos": 19, "trial_type": "single-stim", "trial_index": 232, "time_elapsed": 1060395, "internal_node_id": "0.0-169.0"}}, {"uniqueid": "MTK1019:3BF51CHDTWHFR4R8766P2NJMOAL0HP", "current_trial": 233, "dateTime": 1513007859493, "trialdata": {"rt": -1, "stimulus": "<p id=\"stim\">TERMITE</p>", "key_press": -1, "type": "PRES_VIS", "word": "termite", "wordID": 1450, "conditions": [24, 800, "v", 24000], "trial": 6, "serialpos": 20, "trial_type": "single-stim", "trial_index": 233, "time_elapsed": 1062144, "internal_node_id": "0.0-170.0"}}, {"uniqueid": "MTK1019:3BF51CHDTWHFR4R8766P2NJMOAL0HP", "current_trial": 234, "dateTime": 1513007861499, "trialdata": {"rt": -1, "stimulus": "<p id=\"stim\">FUNGUS</p>", "key_press": -1, "type": "PRES_VIS", "word": "fungus", "wordID": 613, "conditions": [24, 800, "v", 24000], "trial": 6, "serialpos": 21, "trial_type": "single-stim", "trial_index": 234, "time_elapsed": 1064150, "internal_node_id": "0.0-171.0"}}, {"uniqueid": "MTK1019:3BF51CHDTWHFR4R8766P2NJMOAL0HP", "current_trial": 235, "dateTime": 1513007863179, "trialdata": {"rt": -1, "stimulus": "<p id=\"stim\">SMOG</p>", "key_press": -1, "type": "PRES_VIS", "word": "smog", "wordID": 1329, "conditions": [24, 800, "v", 24000], "trial": 6, "serialpos": 22, "trial_type": "single-stim", "trial_index": 235, "time_elapsed": 1065830, "internal_node_id": "0.0-172.0"}}, {"uniqueid": "MTK1019:3BF51CHDTWHFR4R8766P2NJMOAL0HP", "current_trial": 236, "dateTime": 1513007864997, "trialdata": {"rt": -1, "stimulus": "<p id=\"stim\">PASTRY</p>", "key_press": -1, "type": "PRES_VIS", "word": "pastry", "wordID": 1021, "conditions": [24, 800, "v", 24000], "trial": 6, "serialpos": 23, "trial_type": "single-stim", "trial_index": 236, "time_elapsed": 1067648, "internal_node_id": "0.0-173.0"}}, {"uniqueid": "MTK1019:3BF51CHDTWHFR4R8766P2NJMOAL0HP", "current_trial": 237, "dateTime": 1513007867452, "trialdata": {"rt": -1, "stimulus": "", "key_press": -1, "type": "PRE_RECALL_DELAY", "trial_type": "single-stim", "trial_index": 237, "time_elapsed": 1070103, "internal_node_id": "0.0-174.0-0.0"}}, {"uniqueid": "MTK1019:3BF51CHDTWHFR4R8766P2NJMOAL0HP", "current_trial": 238, "dateTime": 1513007867958, "trialdata": {"rt": -1000, "stimulus": "/static/audio/400Hz.wav", "key_press": -1, "type": "PRE_RECALL_ALERT", "trial_type": "single-audio", "trial_index": 238, "time_elapsed": 1070609, "internal_node_id": "0.0-175.0"}}, {"uniqueid": "MTK1019:3BF51CHDTWHFR4R8766P2NJMOAL0HP", "current_trial": 239, "dateTime": 1513007927970, "trialdata": {"rt": [4623, 8864, 13513, 18519, 19466, 25153, 32302, 37424], "recwords": ["europe", "window", "virus", "cod", "rug", "mailman", "past", "fungus"], "type": "FREE_RECALL", "conditions": [24, 800, "v", 24000], "trial": 6, "trial_type": "free-recall", "trial_index": 239, "time_elapsed": 1130613, "internal_node_id": "0.0-176.0-0.0"}}, {"uniqueid": "MTK1019:3BF51CHDTWHFR4R8766P2NJMOAL0HP", "current_trial": 240, "dateTime": 1513007936728, "trialdata": {"rt": 6755, "key_press": 32, "type": "INSTRUCTIONS", "trial_type": "text", "trial_index": 240, "time_elapsed": 1139379, "internal_node_id": "0.0-177.0"}}, {"uniqueid": "MTK1019:3BF51CHDTWHFR4R8766P2NJMOAL0HP", "current_trial": 241, "dateTime": 1513007950734, "trialdata": {"rt": [3763, 5438, 7357, 9004, 10917], "responses": ["17", "12", "27", "11", "15"], "num1": [7, 3, 9, 1, 2, 2], "num2": [9, 7, 9, 3, 8, 6], "num3": [1, 2, 9, 7, 5, 1], "type": "DISTRACTOR", "conditions": [24, 800, "v", 12000], "trial": 7, "trial_type": "math-distractor", "trial_index": 241, "time_elapsed": 1153385, "internal_node_id": "0.0-178.0"}}, {"uniqueid": "MTK1019:3BF51CHDTWHFR4R8766P2NJMOAL0HP", "current_trial": 242, "dateTime": 1513007953738, "trialdata": {"rt": -1, "stimulus": "<p id=\"stim\">10</p>", "key_press": -1, "trial_type": "single-stim", "trial_index": 242, "time_elapsed": 1156388, "internal_node_id": "0.0-179.0-0.0"}}, {"uniqueid": "MTK1019:3BF51CHDTWHFR4R8766P2NJMOAL0HP", "current_trial": 243, "dateTime": 1513007954743, "trialdata": {"rt": -1, "stimulus": "<p id=\"stim\">9</p>", "key_press": -1, "trial_type": "single-stim", "trial_index": 243, "time_elapsed": 1157393, "internal_node_id": "0.0-179.0-1.0"}}, {"uniqueid": "MTK1019:3BF51CHDTWHFR4R8766P2NJMOAL0HP", "current_trial": 244, "dateTime": 1513007955746, "trialdata": {"rt": -1, "stimulus": "<p id=\"stim\">8</p>", "key_press": -1, "trial_type": "single-stim", "trial_index": 244, "time_elapsed": 1158396, "internal_node_id": "0.0-179.0-2.0"}}, {"uniqueid": "MTK1019:3BF51CHDTWHFR4R8766P2NJMOAL0HP", "current_trial": 245, "dateTime": 1513007956748, "trialdata": {"rt": -1, "stimulus": "<p id=\"stim\">7</p>", "key_press": -1, "trial_type": "single-stim", "trial_index": 245, "time_elapsed": 1159398, "internal_node_id": "0.0-179.0-3.0"}}, {"uniqueid": "MTK1019:3BF51CHDTWHFR4R8766P2NJMOAL0HP", "current_trial": 246, "dateTime": 1513007957750, "trialdata": {"rt": -1, "stimulus": "<p id=\"stim\">6</p>", "key_press": -1, "trial_type": "single-stim", "trial_index": 246, "time_elapsed": 1160400, "internal_node_id": "0.0-179.0-4.0"}}, {"uniqueid": "MTK1019:3BF51CHDTWHFR4R8766P2NJMOAL0HP", "current_trial": 247, "dateTime": 1513007958752, "trialdata": {"rt": -1, "stimulus": "<p id=\"stim\">5</p>", "key_press": -1, "trial_type": "single-stim", "trial_index": 247, "time_elapsed": 1161403, "internal_node_id": "0.0-179.0-5.0"}}, {"uniqueid": "MTK1019:3BF51CHDTWHFR4R8766P2NJMOAL0HP", "current_trial": 248, "dateTime": 1513007959754, "trialdata": {"rt": -1, "stimulus": "<p id=\"stim\">4</p>", "key_press": -1, "trial_type": "single-stim", "trial_index": 248, "time_elapsed": 1162404, "internal_node_id": "0.0-179.0-6.0"}}, {"uniqueid": "MTK1019:3BF51CHDTWHFR4R8766P2NJMOAL0HP", "current_trial": 249, "dateTime": 1513007960757, "trialdata": {"rt": -1, "stimulus": "<p id=\"stim\">3</p>", "key_press": -1, "trial_type": "single-stim", "trial_index": 249, "time_elapsed": 1163408, "internal_node_id": "0.0-179.0-7.0"}}, {"uniqueid": "MTK1019:3BF51CHDTWHFR4R8766P2NJMOAL0HP", "current_trial": 250, "dateTime": 1513007961760, "trialdata": {"rt": -1, "stimulus": "<p id=\"stim\">2</p>", "key_press": -1, "trial_type": "single-stim", "trial_index": 250, "time_elapsed": 1164410, "internal_node_id": "0.0-179.0-8.0"}}, {"uniqueid": "MTK1019:3BF51CHDTWHFR4R8766P2NJMOAL0HP", "current_trial": 251, "dateTime": 1513007962762, "trialdata": {"rt": -1, "stimulus": "<p id=\"stim\">1</p>", "key_press": -1, "trial_type": "single-stim", "trial_index": 251, "time_elapsed": 1165412, "internal_node_id": "0.0-179.0-9.0"}}, {"uniqueid": "MTK1019:3BF51CHDTWHFR4R8766P2NJMOAL0HP", "current_trial": 252, "dateTime": 1513007964265, "trialdata": {"rt": -1, "stimulus": "<p id=\"stim\">+</p>", "key_press": -1, "type": "FIXATION", "trial_type": "single-stim", "trial_index": 252, "time_elapsed": 1166916, "internal_node_id": "0.0-180.0-0.0"}}, {"uniqueid": "MTK1019:3BF51CHDTWHFR4R8766P2NJMOAL0HP", "current_trial": 253, "dateTime": 1513007965067, "trialdata": {"rt": -1, "stimulus": "<p id=\"stim\">MISTER</p>", "key_press": -1, "type": "PRES_VIS", "word": "mister", "wordID": 900, "conditions": [24, 800, "v", 12000], "trial": 7, "serialpos": 0, "trial_type": "single-stim", "trial_index": 253, "time_elapsed": 1167718, "internal_node_id": "0.0-181.0"}}, {"uniqueid": "MTK1019:3BF51CHDTWHFR4R8766P2NJMOAL0HP", "current_trial": 254, "dateTime": 1513007966703, "trialdata": {"rt": -1, "stimulus": "<p id=\"stim\">DRINK</p>", "key_press": -1, "type": "PRES_VIS", "word": "drink", "wordID": 497, "conditions": [24, 800, "v", 12000], "trial": 7, "serialpos": 1, "trial_type": "single-stim", "trial_index": 254, "time_elapsed": 1169354, "internal_node_id": "0.0-182.0"}}, {"uniqueid": "MTK1019:3BF51CHDTWHFR4R8766P2NJMOAL0HP", "current_trial": 255, "dateTime": 1513007968680, "trialdata": {"rt": -1, "stimulus": "<p id=\"stim\">CARRIAGE</p>", "key_press": -1, "type": "PRES_VIS", "word": "carriage", "wordID": 247, "conditions": [24, 800, "v", 12000], "trial": 7, "serialpos": 2, "trial_type": "single-stim", "trial_index": 255, "time_elapsed": 1171330, "internal_node_id": "0.0-183.0"}}, {"uniqueid": "MTK1019:3BF51CHDTWHFR4R8766P2NJMOAL0HP", "current_trial": 256, "dateTime": 1513007970658, "trialdata": {"rt": -1, "stimulus": "<p id=\"stim\">SLOPE</p>", "key_press": -1, "type": "PRES_VIS", "word": "slope", "wordID": 1327, "conditions": [24, 800, "v", 12000], "trial": 7, "serialpos": 3, "trial_type": "single-stim", "trial_index": 256, "time_elapsed": 1173308, "internal_node_id": "0.0-184.0"}}, {"uniqueid": "MTK1019:3BF51CHDTWHFR4R8766P2NJMOAL0HP", "current_trial": 257, "dateTime": 1513007972322, "trialdata": {"rt": -1, "stimulus": "<p id=\"stim\">FIREPLACE</p>", "key_press": -1, "type": "PRES_VIS", "word": "fireplace", "wordID": 569, "conditions": [24, 800, "v", 12000], "trial": 7, "serialpos": 4, "trial_type": "single-stim", "trial_index": 257, "time_elapsed": 1174973, "internal_node_id": "0.0-185.0"}}, {"uniqueid": "MTK1019:3BF51CHDTWHFR4R8766P2NJMOAL0HP", "current_trial": 258, "dateTime": 1513007974031, "trialdata": {"rt": -1, "stimulus": "<p id=\"stim\">SODA</p>", "key_press": -1, "type": "PRES_VIS", "word": "soda", "wordID": 1340, "conditions": [24, 800, "v", 12000], "trial": 7, "serialpos": 5, "trial_type": "single-stim", "trial_index": 258, "time_elapsed": 1176682, "internal_node_id": "0.0-186.0"}}, {"uniqueid": "MTK1019:3BF51CHDTWHFR4R8766P2NJMOAL0HP", "current_trial": 259, "dateTime": 1513007975951, "trialdata": {"rt": -1, "stimulus": "<p id=\"stim\">FOOTBALL</p>", "key_press": -1, "type": "PRES_VIS", "word": "football", "wordID": 590, "conditions": [24, 800, "v", 12000], "trial": 7, "serialpos": 6, "trial_type": "single-stim", "trial_index": 259, "time_elapsed": 1178602, "internal_node_id": "0.0-187.0"}}, {"uniqueid": "MTK1019:3BF51CHDTWHFR4R8766P2NJMOAL0HP", "current_trial": 260, "dateTime": 1513007977901, "trialdata": {"rt": -1, "stimulus": "<p id=\"stim\">PISTON</p>", "key_press": -1, "type": "PRES_VIS", "word": "piston", "wordID": 1075, "conditions": [24, 800, "v", 12000], "trial": 7, "serialpos": 7, "trial_type": "single-stim", "trial_index": 260, "time_elapsed": 1180551, "internal_node_id": "0.0-188.0"}}, {"uniqueid": "MTK1019:3BF51CHDTWHFR4R8766P2NJMOAL0HP", "current_trial": 261, "dateTime": 1513007979532, "trialdata": {"rt": -1, "stimulus": "<p id=\"stim\">VALVE</p>", "key_press": -1, "type": "PRES_VIS", "word": "valve", "wordID": 1545, "conditions": [24, 800, "v", 12000], "trial": 7, "serialpos": 8, "trial_type": "single-stim", "trial_index": 261, "time_elapsed": 1182183, "internal_node_id": "0.0-189.0"}}, {"uniqueid": "MTK1019:3BF51CHDTWHFR4R8766P2NJMOAL0HP", "current_trial": 262, "dateTime": 1513007981262, "trialdata": {"rt": -1, "stimulus": "<p id=\"stim\">COUCH</p>", "key_press": -1, "type": "PRES_VIS", "word": "couch", "wordID": 385, "conditions": [24, 800, "v", 12000], "trial": 7, "serialpos": 9, "trial_type": "single-stim", "trial_index": 262, "time_elapsed": 1183913, "internal_node_id": "0.0-190.0"}}, {"uniqueid": "MTK1019:3BF51CHDTWHFR4R8766P2NJMOAL0HP", "current_trial": 263, "dateTime": 1513007983262, "trialdata": {"rt": -1, "stimulus": "<p id=\"stim\">GAZELLE</p>", "key_press": -1, "type": "PRES_VIS", "word": "gazelle", "wordID": 627, "conditions": [24, 800, "v", 12000], "trial": 7, "serialpos": 10, "trial_type": "single-stim", "trial_index": 263, "time_elapsed": 1185912, "internal_node_id": "0.0-191.0"}}, {"uniqueid": "MTK1019:3BF51CHDTWHFR4R8766P2NJMOAL0HP", "current_trial": 264, "dateTime": 1513007984952, "trialdata": {"rt": -1, "stimulus": "<p id=\"stim\">SCOTCH</p>", "key_press": -1, "type": "PRES_VIS", "word": "scotch", "wordID": 1250, "conditions": [24, 800, "v", 12000], "trial": 7, "serialpos": 11, "trial_type": "single-stim", "trial_index": 264, "time_elapsed": 1187602, "internal_node_id": "0.0-192.0"}}, {"uniqueid": "MTK1019:3BF51CHDTWHFR4R8766P2NJMOAL0HP", "current_trial": 265, "dateTime": 1513007986953, "trialdata": {"rt": -1, "stimulus": "<p id=\"stim\">GARBAGE</p>", "key_press": -1, "type": "PRES_VIS", "word": "garbage", "wordID": 621, "conditions": [24, 800, "v", 12000], "trial": 7, "serialpos": 12, "trial_type": "single-stim", "trial_index": 265, "time_elapsed": 1189603, "internal_node_id": "0.0-193.0"}}, {"uniqueid": "MTK1019:3BF51CHDTWHFR4R8766P2NJMOAL0HP", "current_trial": 266, "dateTime": 1513007988897, "trialdata": {"rt": -1, "stimulus": "<p id=\"stim\">LAGOON</p>", "key_press": -1, "type": "PRES_VIS", "word": "lagoon", "wordID": 794, "conditions": [24, 800, "v", 12000], "trial": 7, "serialpos": 13, "trial_type": "single-stim", "trial_index": 266, "time_elapsed": 1191548, "internal_node_id": "0.0-194.0"}}, {"uniqueid": "MTK1019:3BF51CHDTWHFR4R8766P2NJMOAL0HP", "current_trial": 267, "dateTime": 1513007990683, "trialdata": {"rt": -1, "stimulus": "<p id=\"stim\">ROD</p>", "key_press": -1, "type": "PRES_VIS", "word": "rod", "wordID": 1202, "conditions": [24, 800, "v", 12000], "trial": 7, "serialpos": 14, "trial_type": "single-stim", "trial_index": 267, "time_elapsed": 1193334, "internal_node_id": "0.0-195.0"}}, {"uniqueid": "MTK1019:3BF51CHDTWHFR4R8766P2NJMOAL0HP", "current_trial": 268, "dateTime": 1513007992309, "trialdata": {"rt": -1, "stimulus": "<p id=\"stim\">COFFEE</p>", "key_press": -1, "type": "PRES_VIS", "word": "coffee", "wordID": 340, "conditions": [24, 800, "v", 12000], "trial": 7, "serialpos": 15, "trial_type": "single-stim", "trial_index": 268, "time_elapsed": 1194959, "internal_node_id": "0.0-196.0"}}, {"uniqueid": "MTK1019:3BF51CHDTWHFR4R8766P2NJMOAL0HP", "current_trial": 269, "dateTime": 1513007994142, "trialdata": {"rt": -1, "stimulus": "<p id=\"stim\">SALT</p>", "key_press": -1, "type": "PRES_VIS", "word": "salt", "wordID": 1228, "conditions": [24, 800, "v", 12000], "trial": 7, "serialpos": 16, "trial_type": "single-stim", "trial_index": 269, "time_elapsed": 1196792, "internal_node_id": "0.0-197.0"}}, {"uniqueid": "MTK1019:3BF51CHDTWHFR4R8766P2NJMOAL0HP", "current_trial": 270, "dateTime": 1513007996008, "trialdata": {"rt": -1, "stimulus": "<p id=\"stim\">POLICE</p>", "key_press": -1, "type": "PRES_VIS", "word": "police", "wordID": 1097, "conditions": [24, 800, "v", 12000], "trial": 7, "serialpos": 17, "trial_type": "single-stim", "trial_index": 270, "time_elapsed": 1198658, "internal_node_id": "0.0-198.0"}}, {"uniqueid": "MTK1019:3BF51CHDTWHFR4R8766P2NJMOAL0HP", "current_trial": 271, "dateTime": 1513007997713, "trialdata": {"rt": -1, "stimulus": "<p id=\"stim\">HANDBAG</p>", "key_press": -1, "type": "P