{"condition": 0, "counterbalance": 1964, "assignmentId": "33FBRBDW6P66SLLVGI53KBSOUS18C8", "workerId": "MTK1243", "hitId": "3BKZLF990Z6NE8O282ZQE99NC5VQYB", "currenttrial": 627, "bonus": 0, "data": [{"uniqueid": "MTK1243:33FBRBDW6P66SLLVGI53KBSOUS18C8", "current_trial": 0, "dateTime": 1513466753203, "trialdata": {"rt": 2149, "key_press": 74, "type": "INSTRUCTIONS", "trial_type": "text", "trial_index": 0, "time_elapsed": 2157, "internal_node_id": "0.0-0.0"}}, {"uniqueid": "MTK1243:33FBRBDW6P66SLLVGI53KBSOUS18C8", "current_trial": 1, "dateTime": 1513466793773, "trialdata": {"rt": 40564, "key_press": 175, "type": "INSTRUCTIONS", "trial_type": "text", "trial_index": 1, "time_elapsed": 42729, "internal_node_id": "0.0-1.0"}}, {"uniqueid": "MTK1243:33FBRBDW6P66SLLVGI53KBSOUS18C8", "current_trial": 2, "dateTime": 1513466813232, "trialdata": {"rt": [19417], "responses": ["ocean"], "type": "AUDIO_TEST", "trial_type": "audio-test", "trial_index": 2, "time_elapsed": 62188, "internal_node_id": "0.0-2.0"}}, {"uniqueid": "MTK1243:33FBRBDW6P66SLLVGI53KBSOUS18C8", "current_trial": 3, "dateTime": 1513466825356, "trialdata": {"rt": [12112], "responses": ["crystal"], "type": "AUDIO_TEST", "trial_type": "audio-test", "trial_index": 3, "time_elapsed": 74311, "internal_node_id": "0.0-3.0"}}, {"uniqueid": "MTK1243:33FBRBDW6P66SLLVGI53KBSOUS18C8", "current_trial": 4, "dateTime": 1513466837492, "trialdata": {"rt": [12120], "responses": ["spice"], "type": "AUDIO_TEST", "trial_type": "audio-test", "trial_index": 4, "time_elapsed": 86447, "internal_node_id": "0.0-4.0"}}, {"uniqueid": "MTK1243:33FBRBDW6P66SLLVGI53KBSOUS18C8", "current_trial": 5, "dateTime": 1513466911186, "trialdata": {"rt": 72932, "responses": "{\"Q0\":\"9:30 PM\",\"Q1\":\"7:00 AM\",\"Q2\":\"4\"}", "type": "SLEEP_SURVEY", "trial_type": "survey-text", "trial_index": 5, "time_elapsed": 160142, "internal_node_id": "0.0-5.0"}}, {"uniqueid": "MTK1243:33FBRBDW6P66SLLVGI53KBSOUS18C8", "current_trial": 6, "dateTime": 1513466983550, "trialdata": {"rt": 71358, "key_press": 75, "type": "INSTRUCTIONS", "trial_type": "text", "trial_index": 6, "time_elapsed": 232505, "internal_node_id": "0.0-6.0"}}, {"uniqueid": "MTK1243:33FBRBDW6P66SLLVGI53KBSOUS18C8", "current_trial": 7, "dateTime": 1513467005259, "trialdata": {"rt": 21203, "key_press": 68, "type": "INSTRUCTIONS", "trial_type": "text", "trial_index": 7, "time_elapsed": 254215, "internal_node_id": "0.0-7.0"}}, {"uniqueid": "MTK1243:33FBRBDW6P66SLLVGI53KBSOUS18C8", "current_trial": 8, "dateTime": 1513467034299, "trialdata": {"rt": 28533, "key_press": 83, "type": "INSTRUCTIONS", "trial_type": "text", "trial_index": 8, "time_elapsed": 283255, "internal_node_id": "0.0-8.0"}}, {"uniqueid": "MTK1243:33FBRBDW6P66SLLVGI53KBSOUS18C8", "current_trial": 9, "dateTime": 1513467053316, "trialdata": {"rt": [3825], "responses": ["11"], "num1": [5, 9], "num2": [3, 9], "num3": [3, 7], "type": "DISTRACTOR", "conditions": [18, 1200, "a", 18000], "trial": 0, "trial_type": "math-distractor", "trial_index": 9, "time_elapsed": 302271, "internal_node_id": "0.0-9.0"}}, {"uniqueid": "MTK1243:33FBRBDW6P66SLLVGI53KBSOUS18C8", "current_trial": 10, "dateTime": 1513467056326, "trialdata": {"rt": -1, "stimulus": "<p id=\"stim\">10</p>", "key_press": -1, "trial_type": "single-stim", "trial_index": 10, "time_elapsed": 305282, "internal_node_id": "0.0-10.0-0.0"}}, {"uniqueid": "MTK1243:33FBRBDW6P66SLLVGI53KBSOUS18C8", "current_trial": 11, "dateTime": 1513467057333, "trialdata": {"rt": 939, "stimulus": "<p id=\"stim\">9</p>", "key_press": 13, "trial_type": "single-stim", "trial_index": 11, "time_elapsed": 306289, "internal_node_id": "0.0-10.0-1.0"}}, {"uniqueid": "MTK1243:33FBRBDW6P66SLLVGI53KBSOUS18C8", "current_trial": 12, "dateTime": 1513467058337, "trialdata": {"rt": -1, "stimulus": "<p id=\"stim\">8</p>", "key_press": -1, "trial_type": "single-stim", "trial_index": 12, "time_elapsed": 307293, "internal_node_id": "0.0-10.0-2.0"}}, {"uniqueid": "MTK1243:33FBRBDW6P66SLLVGI53KBSOUS18C8", "current_trial": 13, "dateTime": 1513467059341, "trialdata": {"rt": -1, "stimulus": "<p id=\"stim\">7</p>", "key_press": -1, "trial_type": "single-stim", "trial_index": 13, "time_elapsed": 308297, "internal_node_id": "0.0-10.0-3.0"}}, {"uniqueid": "MTK1243:33FBRBDW6P66SLLVGI53KBSOUS18C8", "current_trial": 14, "dateTime": 1513467060344, "trialdata": {"rt": -1, "stimulus": "<p id=\"stim\">6</p>", "key_press": -1, "trial_type": "single-stim", "trial_index": 14, "time_elapsed": 309300, "internal_node_id": "0.0-10.0-4.0"}}, {"uniqueid": "MTK1243:33FBRBDW6P66SLLVGI53KBSOUS18C8", "current_trial": 15, "dateTime": 1513467061376, "trialdata": {"rt": -1, "stimulus": "<p id=\"stim\">5</p>", "key_press": -1, "trial_type": "single-stim", "trial_index": 15, "time_elapsed": 310332, "internal_node_id": "0.0-10.0-5.0"}}, {"uniqueid": "MTK1243:33FBRBDW6P66SLLVGI53KBSOUS18C8", "current_trial": 16, "dateTime": 1513467062382, "trialdata": {"rt": -1, "stimulus": "<p id=\"stim\">4</p>", "key_press": -1, "trial_type": "single-stim", "trial_index": 16, "time_elapsed": 311338, "internal_node_id": "0.0-10.0-6.0"}}, {"uniqueid": "MTK1243:33FBRBDW6P66SLLVGI53KBSOUS18C8", "current_trial": 17, "dateTime": 1513467063387, "trialdata": {"rt": -1, "stimulus": "<p id=\"stim\">3</p>", "key_press": -1, "trial_type": "single-stim", "trial_index": 17, "time_elapsed": 312342, "internal_node_id": "0.0-10.0-7.0"}}, {"uniqueid": "MTK1243:33FBRBDW6P66SLLVGI53KBSOUS18C8", "current_trial": 18, "dateTime": 1513467064391, "trialdata": {"rt": -1, "stimulus": "<p id=\"stim\">2</p>", "key_press": -1, "trial_type": "single-stim", "trial_index": 18, "time_elapsed": 313346, "internal_node_id": "0.0-10.0-8.0"}}, {"uniqueid": "MTK1243:33FBRBDW6P66SLLVGI53KBSOUS18C8", "current_trial": 19, "dateTime": 1513467065397, "trialdata": {"rt": -1, "stimulus": "<p id=\"stim\">1</p>", "key_press": -1, "trial_type": "single-stim", "trial_index": 19, "time_elapsed": 314353, "internal_node_id": "0.0-10.0-9.0"}}, {"uniqueid": "MTK1243:33FBRBDW6P66SLLVGI53KBSOUS18C8", "current_trial": 20, "dateTime": 1513467066901, "trialdata": {"rt": -1, "stimulus": "<p id=\"stim\">+</p>", "key_press": -1, "type": "FIXATION", "trial_type": "single-stim", "trial_index": 20, "time_elapsed": 315857, "internal_node_id": "0.0-11.0-0.0"}}, {"uniqueid": "MTK1243:33FBRBDW6P66SLLVGI53KBSOUS18C8", "current_trial": 21, "dateTime": 1513467069042, "trialdata": {"rt": -1000, "stimulus": "/static/audio/wordpool/SNAIL.wav", "key_press": -1, "type": "PRES_AUD", "word": "snail", "wordID": 1331, "conditions": [18, 1200, "a", 18000], "trial": 0, "serialpos": 0, "trial_type": "single-audio", "trial_index": 21, "time_elapsed": 317998, "internal_node_id": "0.0-12.0"}}, {"uniqueid": "MTK1243:33FBRBDW6P66SLLVGI53KBSOUS18C8", "current_trial": 22, "dateTime": 1513467071154, "trialdata": {"rt": -1000, "stimulus": "/static/audio/wordpool/SWORD.wav", "key_press": -1, "type": "PRES_AUD", "word": "sword", "wordID": 1422, "conditions": [18, 1200, "a", 18000], "trial": 0, "serialpos": 1, "trial_type": "single-audio", "trial_index": 22, "time_elapsed": 320110, "internal_node_id": "0.0-13.0"}}, {"uniqueid": "MTK1243:33FBRBDW6P66SLLVGI53KBSOUS18C8", "current_trial": 23, "dateTime": 1513467073257, "trialdata": {"rt": -1000, "stimulus": "/static/audio/wordpool/PISTON.wav", "key_press": -1, "type": "PRES_AUD", "word": "piston", "wordID": 1075, "conditions": [18, 1200, "a", 18000], "trial": 0, "serialpos": 2, "trial_type": "single-audio", "trial_index": 23, "time_elapsed": 322213, "internal_node_id": "0.0-14.0"}}, {"uniqueid": "MTK1243:33FBRBDW6P66SLLVGI53KBSOUS18C8", "current_trial": 24, "dateTime": 1513467075287, "trialdata": {"rt": -1000, "stimulus": "/static/audio/wordpool/BUTCHER.wav", "key_press": -1, "type": "PRES_AUD", "word": "butcher", "wordID": 202, "conditions": [18, 1200, "a", 18000], "trial": 0, "serialpos": 3, "trial_type": "single-audio", "trial_index": 24, "time_elapsed": 324243, "internal_node_id": "0.0-15.0"}}, {"uniqueid": "MTK1243:33FBRBDW6P66SLLVGI53KBSOUS18C8", "current_trial": 25, "dateTime": 1513467077386, "trialdata": {"rt": -1000, "stimulus": "/static/audio/wordpool/PIGEON.wav", "key_press": -1, "type": "PRES_AUD", "word": "pigeon", "wordID": 1064, "conditions": [18, 1200, "a", 18000], "trial": 0, "serialpos": 4, "trial_type": "single-audio", "trial_index": 25, "time_elapsed": 326342, "internal_node_id": "0.0-16.0"}}, {"uniqueid": "MTK1243:33FBRBDW6P66SLLVGI53KBSOUS18C8", "current_trial": 26, "dateTime": 1513467079492, "trialdata": {"rt": -1000, "stimulus": "/static/audio/wordpool/LEADER.wav", "key_press": -1, "type": "PRES_AUD", "word": "leader", "wordID": 806, "conditions": [18, 1200, "a", 18000], "trial": 0, "serialpos": 5, "trial_type": "single-audio", "trial_index": 26, "time_elapsed": 328448, "internal_node_id": "0.0-17.0"}}, {"uniqueid": "MTK1243:33FBRBDW6P66SLLVGI53KBSOUS18C8", "current_trial": 27, "dateTime": 1513467081582, "trialdata": {"rt": -1000, "stimulus": "/static/audio/wordpool/LONDON.wav", "key_press": -1, "type": "PRES_AUD", "word": "london", "wordID": 842, "conditions": [18, 1200, "a", 18000], "trial": 0, "serialpos": 6, "trial_type": "single-audio", "trial_index": 27, "time_elapsed": 330538, "internal_node_id": "0.0-18.0"}}, {"uniqueid": "MTK1243:33FBRBDW6P66SLLVGI53KBSOUS18C8", "current_trial": 28, "dateTime": 1513467083851, "trialdata": {"rt": -1000, "stimulus": "/static/audio/wordpool/DONKEY.wav", "key_press": -1, "type": "PRES_AUD", "word": "donkey", "wordID": 483, "conditions": [18, 1200, "a", 18000], "trial": 0, "serialpos": 7, "trial_type": "single-audio", "trial_index": 28, "time_elapsed": 332806, "internal_node_id": "0.0-19.0"}}, {"uniqueid": "MTK1243:33FBRBDW6P66SLLVGI53KBSOUS18C8", "current_trial": 29, "dateTime": 1513467086074, "trialdata": {"rt": -1000, "stimulus": "/static/audio/wordpool/ICEBERG.wav", "key_press": -1, "type": "PRES_AUD", "word": "iceberg", "wordID": 730, "conditions": [18, 1200, "a", 18000], "trial": 0, "serialpos": 8, "trial_type": "single-audio", "trial_index": 29, "time_elapsed": 335030, "internal_node_id": "0.0-20.0"}}, {"uniqueid": "MTK1243:33FBRBDW6P66SLLVGI53KBSOUS18C8", "current_trial": 30, "dateTime": 1513467088362, "trialdata": {"rt": -1000, "stimulus": "/static/audio/wordpool/GRAPE.wav", "key_press": -1, "type": "PRES_AUD", "word": "grape", "wordID": 653, "conditions": [18, 1200, "a", 18000], "trial": 0, "serialpos": 9, "trial_type": "single-audio", "trial_index": 30, "time_elapsed": 337318, "internal_node_id": "0.0-21.0"}}, {"uniqueid": "MTK1243:33FBRBDW6P66SLLVGI53KBSOUS18C8", "current_trial": 31, "dateTime": 1513467090740, "trialdata": {"rt": -1000, "stimulus": "/static/audio/wordpool/ROBBER.wav", "key_press": -1, "type": "PRES_AUD", "word": "robber", "wordID": 1196, "conditions": [18, 1200, "a", 18000], "trial": 0, "serialpos": 10, "trial_type": "single-audio", "trial_index": 31, "time_elapsed": 339696, "internal_node_id": "0.0-22.0"}}, {"uniqueid": "MTK1243:33FBRBDW6P66SLLVGI53KBSOUS18C8", "current_trial": 32, "dateTime": 1513467093046, "trialdata": {"rt": -1000, "stimulus": "/static/audio/wordpool/YARN.wav", "key_press": -1, "type": "PRES_AUD", "word": "yarn", "wordID": 1630, "conditions": [18, 1200, "a", 18000], "trial": 0, "serialpos": 11, "trial_type": "single-audio", "trial_index": 32, "time_elapsed": 342002, "internal_node_id": "0.0-23.0"}}, {"uniqueid": "MTK1243:33FBRBDW6P66SLLVGI53KBSOUS18C8", "current_trial": 33, "dateTime": 1513467095324, "trialdata": {"rt": -1000, "stimulus": "/static/audio/wordpool/VALVE.wav", "key_press": -1, "type": "PRES_AUD", "word": "valve", "wordID": 1545, "conditions": [18, 1200, "a", 18000], "trial": 0, "serialpos": 12, "trial_type": "single-audio", "trial_index": 33, "time_elapsed": 344280, "internal_node_id": "0.0-24.0"}}, {"uniqueid": "MTK1243:33FBRBDW6P66SLLVGI53KBSOUS18C8", "current_trial": 34, "dateTime": 1513467097620, "trialdata": {"rt": -1000, "stimulus": "/static/audio/wordpool/BABY.wav", "key_press": -1, "type": "PRES_AUD", "word": "baby", "wordID": 63, "conditions": [18, 1200, "a", 18000], "trial": 0, "serialpos": 13, "trial_type": "single-audio", "trial_index": 34, "time_elapsed": 346576, "internal_node_id": "0.0-25.0"}}, {"uniqueid": "MTK1243:33FBRBDW6P66SLLVGI53KBSOUS18C8", "current_trial": 35, "dateTime": 1513467099726, "trialdata": {"rt": -1000, "stimulus": "/static/audio/wordpool/IGLOO.wav", "key_press": -1, "type": "PRES_AUD", "word": "igloo", "wordID": 733, "conditions": [18, 1200, "a", 18000], "trial": 0, "serialpos": 14, "trial_type": "single-audio", "trial_index": 35, "time_elapsed": 348682, "internal_node_id": "0.0-26.0"}}, {"uniqueid": "MTK1243:33FBRBDW6P66SLLVGI53KBSOUS18C8", "current_trial": 36, "dateTime": 1513467101981, "trialdata": {"rt": -1000, "stimulus": "/static/audio/wordpool/ITEM.wav", "key_press": -1, "type": "PRES_AUD", "word": "item", "wordID": 745, "conditions": [18, 1200, "a", 18000], "trial": 0, "serialpos": 15, "trial_type": "single-audio", "trial_index": 36, "time_elapsed": 350937, "internal_node_id": "0.0-27.0"}}, {"uniqueid": "MTK1243:33FBRBDW6P66SLLVGI53KBSOUS18C8", "current_trial": 37, "dateTime": 1513467104353, "trialdata": {"rt": -1000, "stimulus": "/static/audio/wordpool/TEMPLE.wav", "key_press": -1, "type": "PRES_AUD", "word": "temple", "wordID": 1447, "conditions": [18, 1200, "a", 18000], "trial": 0, "serialpos": 16, "trial_type": "single-audio", "trial_index": 37, "time_elapsed": 353308, "internal_node_id": "0.0-28.0"}}, {"uniqueid": "MTK1243:33FBRBDW6P66SLLVGI53KBSOUS18C8", "current_trial": 38, "dateTime": 1513467106453, "trialdata": {"rt": -1000, "stimulus": "/static/audio/wordpool/SNAKE.wav", "key_press": -1, "type": "PRES_AUD", "word": "snake", "wordID": 1332, "conditions": [18, 1200, "a", 18000], "trial": 0, "serialpos": 17, "trial_type": "single-audio", "trial_index": 38, "time_elapsed": 355408, "internal_node_id": "0.0-29.0"}}, {"uniqueid": "MTK1243:33FBRBDW6P66SLLVGI53KBSOUS18C8", "current_trial": 39, "dateTime": 1513467107769, "trialdata": {"rt": -1, "stimulus": "", "key_press": -1, "type": "PRE_RECALL_DELAY", "trial_type": "single-stim", "trial_index": 39, "time_elapsed": 356724, "internal_node_id": "0.0-30.0-0.0"}}, {"uniqueid": "MTK1243:33FBRBDW6P66SLLVGI53KBSOUS18C8", "current_trial": 40, "dateTime": 1513467108276, "trialdata": {"rt": -1000, "stimulus": "/static/audio/400Hz.wav", "key_press": -1, "type": "PRE_RECALL_ALERT", "trial_type": "single-audio", "trial_index": 40, "time_elapsed": 357231, "internal_node_id": "0.0-31.0"}}, {"uniqueid": "MTK1243:33FBRBDW6P66SLLVGI53KBSOUS18C8", "current_trial": 41, "dateTime": 1513467168294, "trialdata": {"rt": [8616, 10876, 16416, 23126, 25056, 37436, 42176, 48756], "recwords": ["temple", "item", "snake", "donkey", "butcher", "grape", "sword", "baby"], "type": "FREE_RECALL", "conditions": [18, 1200, "a", 18000], "trial": 0, "trial_type": "free-recall", "trial_index": 41, "time_elapsed": 417244, "internal_node_id": "0.0-32.0-0.0"}}, {"uniqueid": "MTK1243:33FBRBDW6P66SLLVGI53KBSOUS18C8", "current_trial": 42, "dateTime": 1513467172401, "trialdata": {"rt": 2105, "key_press": 73, "type": "INSTRUCTIONS", "trial_type": "text", "trial_index": 42, "time_elapsed": 421357, "internal_node_id": "0.0-33.0"}}, {"uniqueid": "MTK1243:33FBRBDW6P66SLLVGI53KBSOUS18C8", "current_trial": 43, "dateTime": 1513467192413, "trialdata": {"rt": [6390, 8920, 12830, 14990], "responses": ["14", "15", "13", "5"], "num1": [2, 3, 2, 2, 6], "num2": [3, 8, 6, 1, 6], "num3": [9, 4, 5, 2, 9], "type": "DISTRACTOR", "conditions": [18, 1200, "v", 18000], "trial": 1, "trial_type": "math-distractor", "trial_index": 43, "time_elapsed": 441369, "internal_node_id": "0.0-34.0"}}, {"uniqueid": "MTK1243:33FBRBDW6P66SLLVGI53KBSOUS18C8", "current_trial": 44, "dateTime": 1513467195416, "trialdata": {"rt": -1, "stimulus": "<p id=\"stim\">10</p>", "key_press": -1, "trial_type": "single-stim", "trial_index": 44, "time_elapsed": 444372, "internal_node_id": "0.0-35.0-0.0"}}, {"uniqueid": "MTK1243:33FBRBDW6P66SLLVGI53KBSOUS18C8", "current_trial": 45, "dateTime": 1513467196420, "trialdata": {"rt": -1, "stimulus": "<p id=\"stim\">9</p>", "key_press": -1, "trial_type": "single-stim", "trial_index": 45, "time_elapsed": 445376, "internal_node_id": "0.0-35.0-1.0"}}, {"uniqueid": "MTK1243:33FBRBDW6P66SLLVGI53KBSOUS18C8", "current_trial": 46, "dateTime": 1513467197426, "trialdata": {"rt": -1, "stimulus": "<p id=\"stim\">8</p>", "key_press": -1, "trial_type": "single-stim", "trial_index": 46, "time_elapsed": 446382, "internal_node_id": "0.0-35.0-2.0"}}, {"uniqueid": "MTK1243:33FBRBDW6P66SLLVGI53KBSOUS18C8", "current_trial": 47, "dateTime": 1513467198431, "trialdata": {"rt": -1, "stimulus": "<p id=\"stim\">7</p>", "key_press": -1, "trial_type": "single-stim", "trial_index": 47, "time_elapsed": 447387, "internal_node_id": "0.0-35.0-3.0"}}, {"uniqueid": "MTK1243:33FBRBDW6P66SLLVGI53KBSOUS18C8", "current_trial": 48, "dateTime": 1513467199435, "trialdata": {"rt": -1, "stimulus": "<p id=\"stim\">6</p>", "key_press": -1, "trial_type": "single-stim", "trial_index": 48, "time_elapsed": 448391, "internal_node_id": "0.0-35.0-4.0"}}, {"uniqueid": "MTK1243:33FBRBDW6P66SLLVGI53KBSOUS18C8", "current_trial": 49, "dateTime": 1513467200440, "trialdata": {"rt": -1, "stimulus": "<p id=\"stim\">5</p>", "key_press": -1, "trial_type": "single-stim", "trial_index": 49, "time_elapsed": 449396, "internal_node_id": "0.0-35.0-5.0"}}, {"uniqueid": "MTK1243:33FBRBDW6P66SLLVGI53KBSOUS18C8", "current_trial": 50, "dateTime": 1513467201445, "trialdata": {"rt": -1, "stimulus": "<p id=\"stim\">4</p>", "key_press": -1, "trial_type": "single-stim", "trial_index": 50, "time_elapsed": 450401, "internal_node_id": "0.0-35.0-6.0"}}, {"uniqueid": "MTK1243:33FBRBDW6P66SLLVGI53KBSOUS18C8", "current_trial": 51, "dateTime": 1513467202451, "trialdata": {"rt": -1, "stimulus": "<p id=\"stim\">3</p>", "key_press": -1, "trial_type": "single-stim", "trial_index": 51, "time_elapsed": 451407, "internal_node_id": "0.0-35.0-7.0"}}, {"uniqueid": "MTK1243:33FBRBDW6P66SLLVGI53KBSOUS18C8", "current_trial": 52, "dateTime": 1513467203456, "trialdata": {"rt": -1, "stimulus": "<p id=\"stim\">2</p>", "key_press": -1, "trial_type": "single-stim", "trial_index": 52, "time_elapsed": 452412, "internal_node_id": "0.0-35.0-8.0"}}, {"uniqueid": "MTK1243:33FBRBDW6P66SLLVGI53KBSOUS18C8", "current_trial": 53, "dateTime": 1513467204460, "trialdata": {"rt": -1, "stimulus": "<p id=\"stim\">1</p>", "key_press": -1, "trial_type": "single-stim", "trial_index": 53, "time_elapsed": 453416, "internal_node_id": "0.0-35.0-9.0"}}, {"uniqueid": "MTK1243:33FBRBDW6P66SLLVGI53KBSOUS18C8", "current_trial": 54, "dateTime": 1513467205965, "trialdata": {"rt": -1, "stimulus": "<p id=\"stim\">+</p>", "key_press": -1, "type": "FIXATION", "trial_type": "single-stim", "trial_index": 54, "time_elapsed": 454921, "internal_node_id": "0.0-36.0-0.0"}}, {"uniqueid": "MTK1243:33FBRBDW6P66SLLVGI53KBSOUS18C8", "current_trial": 55, "dateTime": 1513467207169, "trialdata": {"rt": -1, "stimulus": "<p id=\"stim\">TRIBE</p>", "key_press": -1, "type": "PRES_VIS", "word": "tribe", "wordID": 1504, "conditions": [18, 1200, "v", 18000], "trial": 1, "serialpos": 0, "trial_type": "single-stim", "trial_index": 55, "time_elapsed": 456125, "internal_node_id": "0.0-37.0"}}, {"uniqueid": "MTK1243:33FBRBDW6P66SLLVGI53KBSOUS18C8", "current_trial": 56, "dateTime": 1513467209540, "trialdata": {"rt": -1, "stimulus": "<p id=\"stim\">DANCER</p>", "key_press": -1, "type": "PRES_VIS", "word": "dancer", "wordID": 436, "conditions": [18, 1200, "v", 18000], "trial": 1, "serialpos": 1, "trial_type": "single-stim", "trial_index": 56, "time_elapsed": 458496, "internal_node_id": "0.0-38.0"}}, {"uniqueid": "MTK1243:33FBRBDW6P66SLLVGI53KBSOUS18C8", "current_trial": 57, "dateTime": 1513467211824, "trialdata": {"rt": -1, "stimulus": "<p id=\"stim\">SALT</p>", "key_press": -1, "type": "PRES_VIS", "word": "salt", "wordID": 1228, "conditions": [18, 1200, "v", 18000], "trial": 1, "serialpos": 2, "trial_type": "single-stim", "trial_index": 57, "time_elapsed": 460780, "internal_node_id": "0.0-39.0"}}, {"uniqueid": "MTK1243:33FBRBDW6P66SLLVGI53KBSOUS18C8", "current_trial": 58, "dateTime": 1513467214220, "trialdata": {"rt": -1, "stimulus": "<p id=\"stim\">JAPAN</p>", "key_press": -1, "type": "PRES_VIS", "word": "japan", "wordID": 748, "conditions": [18, 1200, "v", 18000], "trial": 1, "serialpos": 3, "trial_type": "single-stim", "trial_index": 58, "time_elapsed": 463176, "internal_node_id": "0.0-40.0"}}, {"uniqueid": "MTK1243:33FBRBDW6P66SLLVGI53KBSOUS18C8", "current_trial": 59, "dateTime": 1513467216626, "trialdata": {"rt": -1, "stimulus": "<p id=\"stim\">COFFEE</p>", "key_press": -1, "type": "PRES_VIS", "word": "coffee", "wordID": 340, "conditions": [18, 1200, "v", 18000], "trial": 1, "serialpos": 4, "trial_type": "single-stim", "trial_index": 59, "time_elapsed": 465582, "internal_node_id": "0.0-41.0"}}, {"uniqueid": "MTK1243:33FBRBDW6P66SLLVGI53KBSOUS18C8", "current_trial": 60, "dateTime": 1513467218855, "trialdata": {"rt": -1, "stimulus": "<p id=\"stim\">DAISY</p>", "key_press": -1, "type": "PRES_VIS", "word": "daisy", "wordID": 434, "conditions": [18, 1200, "v", 18000], "trial": 1, "serialpos": 5, "trial_type": "single-stim", "trial_index": 60, "time_elapsed": 467810, "internal_node_id": "0.0-42.0"}}, {"uniqueid": "MTK1243:33FBRBDW6P66SLLVGI53KBSOUS18C8", "current_trial": 61, "dateTime": 1513467221096, "trialdata": {"rt": -1, "stimulus": "<p id=\"stim\">FIREMAN</p>", "key_press": -1, "type": "PRES_VIS", "word": "fireman", "wordID": 568, "conditions": [18, 1200, "v", 18000], "trial": 1, "serialpos": 6, "trial_type": "single-stim", "trial_index": 61, "time_elapsed": 470052, "internal_node_id": "0.0-43.0"}}, {"uniqueid": "MTK1243:33FBRBDW6P66SLLVGI53KBSOUS18C8", "current_trial": 62, "dateTime": 1513467223350, "trialdata": {"rt": -1, "stimulus": "<p id=\"stim\">WIFE</p>", "key_press": -1, "type": "PRES_VIS", "word": "wife", "wordID": 1608, "conditions": [18, 1200, "v", 18000], "trial": 1, "serialpos": 7, "trial_type": "single-stim", "trial_index": 62, "time_elapsed": 472306, "internal_node_id": "0.0-44.0"}}, {"uniqueid": "MTK1243:33FBRBDW6P66SLLVGI53KBSOUS18C8", "current_trial": 63, "dateTime": 1513467225640, "trialdata": {"rt": -1, "stimulus": "<p id=\"stim\">DASHBOARD</p>", "key_press": -1, "type": "PRES_VIS", "word": "dashboard", "wordID": 440, "conditions": [18, 1200, "v", 18000], "trial": 1, "serialpos": 8, "trial_type": "single-stim", "trial_index": 63, "time_elapsed": 474596, "internal_node_id": "0.0-45.0"}}, {"uniqueid": "MTK1243:33FBRBDW6P66SLLVGI53KBSOUS18C8", "current_trial": 64, "dateTime": 1513467227910, "trialdata": {"rt": -1, "stimulus": "<p id=\"stim\">PLAYGROUND</p>", "key_press": -1, "type": "PRES_VIS", "word": "playground", "wordID": 1086, "conditions": [18, 1200, "v", 18000], "trial": 1, "serialpos": 9, "trial_type": "single-stim", "trial_index": 64, "time_elapsed": 476865, "internal_node_id": "0.0-46.0"}}, {"uniqueid": "MTK1243:33FBRBDW6P66SLLVGI53KBSOUS18C8", "current_trial": 65, "dateTime": 1513467230108, "trialdata": {"rt": -1, "stimulus": "<p id=\"stim\">MONEY</p>", "key_press": -1, "type": "PRES_VIS", "word": "money", "wordID": 907, "conditions": [18, 1200, "v", 18000], "trial": 1, "serialpos": 10, "trial_type": "single-stim", "trial_index": 65, "time_elapsed": 479064, "internal_node_id": "0.0-47.0"}}, {"uniqueid": "MTK1243:33FBRBDW6P66SLLVGI53KBSOUS18C8", "current_trial": 66, "dateTime": 1513467232321, "trialdata": {"rt": -1, "stimulus": "<p id=\"stim\">UMPIRE</p>", "key_press": -1, "type": "PRES_VIS", "word": "umpire", "wordID": 1534, "conditions": [18, 1200, "v", 18000], "trial": 1, "serialpos": 11, "trial_type": "single-stim", "trial_index": 66, "time_elapsed": 481276, "internal_node_id": "0.0-48.0"}}, {"uniqueid": "MTK1243:33FBRBDW6P66SLLVGI53KBSOUS18C8", "current_trial": 67, "dateTime": 1513467234580, "trialdata": {"rt": -1, "stimulus": "<p id=\"stim\">WHISTLE</p>", "key_press": -1, "type": "PRES_VIS", "word": "whistle", "wordID": 1605, "conditions": [18, 1200, "v", 18000], "trial": 1, "serialpos": 12, "trial_type": "single-stim", "trial_index": 67, "time_elapsed": 483536, "internal_node_id": "0.0-49.0"}}, {"uniqueid": "MTK1243:33FBRBDW6P66SLLVGI53KBSOUS18C8", "current_trial": 68, "dateTime": 1513467236779, "trialdata": {"rt": -1, "stimulus": "<p id=\"stim\">SOFTBALL</p>", "key_press": -1, "type": "PRES_VIS", "word": "softball", "wordID": 1342, "conditions": [18, 1200, "v", 18000], "trial": 1, "serialpos": 13, "trial_type": "single-stim", "trial_index": 68, "time_elapsed": 485730, "internal_node_id": "0.0-50.0"}}, {"uniqueid": "MTK1243:33FBRBDW6P66SLLVGI53KBSOUS18C8", "current_trial": 69, "dateTime": 1513467238988, "trialdata": {"rt": -1, "stimulus": "<p id=\"stim\">BEAST</p>", "key_press": -1, "type": "PRES_VIS", "word": "beast", "wordID": 107, "conditions": [18, 1200, "v", 18000], "trial": 1, "serialpos": 14, "trial_type": "single-stim", "trial_index": 69, "time_elapsed": 487943, "internal_node_id": "0.0-51.0"}}, {"uniqueid": "MTK1243:33FBRBDW6P66SLLVGI53KBSOUS18C8", "current_trial": 70, "dateTime": 1513467241418, "trialdata": {"rt": -1, "stimulus": "<p id=\"stim\">DOLPHIN</p>", "key_press": -1, "type": "PRES_VIS", "word": "dolphin", "wordID": 482, "conditions": [18, 1200, "v", 18000], "trial": 1, "serialpos": 15, "trial_type": "single-stim", "trial_index": 70, "time_elapsed": 490373, "internal_node_id": "0.0-52.0"}}, {"uniqueid": "MTK1243:33FBRBDW6P66SLLVGI53KBSOUS18C8", "current_trial": 71, "dateTime": 1513467243676, "trialdata": {"rt": -1, "stimulus": "<p id=\"stim\">ORANGE</p>", "key_press": -1, "type": "PRES_VIS", "word": "orange", "wordID": 979, "conditions": [18, 1200, "v", 18000], "trial": 1, "serialpos": 16, "trial_type": "single-stim", "trial_index": 71, "time_elapsed": 492631, "internal_node_id": "0.0-53.0"}}, {"uniqueid": "MTK1243:33FBRBDW6P66SLLVGI53KBSOUS18C8", "current_trial": 72, "dateTime": 1513467245854, "trialdata": {"rt": -1, "stimulus": "<p id=\"stim\">TROUT</p>", "key_press": -1, "type": "PRES_VIS", "word": "trout", "wordID": 1510, "conditions": [18, 1200, "v", 18000], "trial": 1, "serialpos": 17, "trial_type": "single-stim", "trial_index": 72, "time_elapsed": 494810, "internal_node_id": "0.0-54.0"}}, {"uniqueid": "MTK1243:33FBRBDW6P66SLLVGI53KBSOUS18C8", "current_trial": 73, "dateTime": 1513467248014, "trialdata": {"rt": -1, "stimulus": "", "key_press": -1, "type": "PRE_RECALL_DELAY", "trial_type": "single-stim", "trial_index": 73, "time_elapsed": 496969, "internal_node_id": "0.0-55.0-0.0"}}, {"uniqueid": "MTK1243:33FBRBDW6P66SLLVGI53KBSOUS18C8", "current_trial": 74, "dateTime": 1513467248518, "trialdata": {"rt": -1000, "stimulus": "/static/audio/400Hz.wav", "key_press": -1, "type": "PRE_RECALL_ALERT", "trial_type": "single-audio", "trial_index": 74, "time_elapsed": 497474, "internal_node_id": "0.0-56.0"}}, {"uniqueid": "MTK1243:33FBRBDW6P66SLLVGI53KBSOUS18C8", "current_trial": 75, "dateTime": 1513467308530, "trialdata": {"rt": [3506, 5167, 19776, 24697, 28717, 35806, 42284], "recwords": ["trout", "orange", "softball", "whistle", "daisy", "beast", "japan"], "type": "FREE_RECALL", "conditions": [18, 1200, "v", 18000], "trial": 1, "trial_type": "free-recall", "trial_index": 75, "time_elapsed": 557481, "internal_node_id": "0.0-57.0-0.0"}}, {"uniqueid": "MTK1243:33FBRBDW6P66SLLVGI53KBSOUS18C8", "current_trial": 76, "dateTime": 1513467314009, "trialdata": {"rt": 3465, "key_press": 75, "type": "INSTRUCTIONS", "trial_type": "text", "trial_index": 76, "time_elapsed": 562954, "internal_node_id": "0.0-58.0"}}, {"uniqueid": "MTK1243:33FBRBDW6P66SLLVGI53KBSOUS18C8", "current_trial": 77, "dateTime": 1513467327022, "trialdata": {"rt": [4549, 8079, 11319], "responses": ["15", "14", "13"], "num1": [6, 4, 4, 7], "num2": [3, 1, 5, 4], "num3": [6, 9, 4, 4], "type": "DISTRACTOR", "conditions": [24, 800, "v", 12000], "trial": 2, "trial_type": "math-distractor", "trial_index": 77, "time_elapsed": 575978, "internal_node_id": "0.0-59.0"}}, {"uniqueid": "MTK1243:33FBRBDW6P66SLLVGI53KBSOUS18C8", "current_trial": 78, "dateTime": 1513467330030, "trialdata": {"rt": -1, "stimulus": "<p id=\"stim\">10</p>", "key_press": -1, "trial_type": "single-stim", "trial_index": 78, "time_elapsed": 578986, "internal_node_id": "0.0-60.0-0.0"}}, {"uniqueid": "MTK1243:33FBRBDW6P66SLLVGI53KBSOUS18C8", "current_trial": 79, "dateTime": 1513467331034, "trialdata": {"rt": -1, "stimulus": "<p id=\"stim\">9</p>", "key_press": -1, "trial_type": "single-stim", "trial_index": 79, "time_elapsed": 579990, "internal_node_id": "0.0-60.0-1.0"}}, {"uniqueid": "MTK1243:33FBRBDW6P66SLLVGI53KBSOUS18C8", "current_trial": 80, "dateTime": 1513467332039, "trialdata": {"rt": -1, "stimulus": "<p id=\"stim\">8</p>", "key_press": -1, "trial_type": "single-stim", "trial_index": 80, "time_elapsed": 580995, "internal_node_id": "0.0-60.0-2.0"}}, {"uniqueid": "MTK1243:33FBRBDW6P66SLLVGI53KBSOUS18C8", "current_trial": 81, "dateTime": 1513467333043, "trialdata": {"rt": -1, "stimulus": "<p id=\"stim\">7</p>", "key_press": -1, "trial_type": "single-stim", "trial_index": 81, "time_elapsed": 581999, "internal_node_id": "0.0-60.0-3.0"}}, {"uniqueid": "MTK1243:33FBRBDW6P66SLLVGI53KBSOUS18C8", "current_trial": 82, "dateTime": 1513467334047, "trialdata": {"rt": -1, "stimulus": "<p id=\"stim\">6</p>", "key_press": -1, "trial_type": "single-stim", "trial_index": 82, "time_elapsed": 583003, "internal_node_id": "0.0-60.0-4.0"}}, {"uniqueid": "MTK1243:33FBRBDW6P66SLLVGI53KBSOUS18C8", "current_trial": 83, "dateTime": 1513467335056, "trialdata": {"rt": -1, "stimulus": "<p id=\"stim\">5</p>", "key_press": -1, "trial_type": "single-stim", "trial_index": 83, "time_elapsed": 584012, "internal_node_id": "0.0-60.0-5.0"}}, {"uniqueid": "MTK1243:33FBRBDW6P66SLLVGI53KBSOUS18C8", "current_trial": 84, "dateTime": 1513467336065, "trialdata": {"rt": -1, "stimulus": "<p id=\"stim\">4</p>", "key_press": -1, "trial_type": "single-stim", "trial_index": 84, "time_elapsed": 585021, "internal_node_id": "0.0-60.0-6.0"}}, {"uniqueid": "MTK1243:33FBRBDW6P66SLLVGI53KBSOUS18C8", "current_trial": 85, "dateTime": 1513467337067, "trialdata": {"rt": -1, "stimulus": "<p id=\"stim\">3</p>", "key_press": -1, "trial_type": "single-stim", "trial_index": 85, "time_elapsed": 586023, "internal_node_id": "0.0-60.0-7.0"}}, {"uniqueid": "MTK1243:33FBRBDW6P66SLLVGI53KBSOUS18C8", "current_trial": 86, "dateTime": 1513467338073, "trialdata": {"rt": -1, "stimulus": "<p id=\"stim\">2</p>", "key_press": -1, "trial_type": "single-stim", "trial_index": 86, "time_elapsed": 587029, "internal_node_id": "0.0-60.0-8.0"}}, {"uniqueid": "MTK1243:33FBRBDW6P66SLLVGI53KBSOUS18C8", "current_trial": 87, "dateTime": 1513467339077, "trialdata": {"rt": -1, "stimulus": "<p id=\"stim\">1</p>", "key_press": -1, "trial_type": "single-stim", "trial_index": 87, "time_elapsed": 588033, "internal_node_id": "0.0-60.0-9.0"}}, {"uniqueid": "MTK1243:33FBRBDW6P66SLLVGI53KBSOUS18C8", "current_trial": 88, "dateTime": 1513467340583, "trialdata": {"rt": -1, "stimulus": "<p id=\"stim\">+</p>", "key_press": -1, "type": "FIXATION", "trial_type": "single-stim", "trial_index": 88, "time_elapsed": 589539, "internal_node_id": "0.0-61.0-0.0"}}, {"uniqueid": "MTK1243:33FBRBDW6P66SLLVGI53KBSOUS18C8", "current_trial": 89, "dateTime": 1513467341387, "trialdata": {"rt": -1, "stimulus": "<p id=\"stim\">TORTOISE</p>", "key_press": -1, "type": "PRES_VIS", "word": "tortoise", "wordID": 1485, "conditions": [24, 800, "v", 12000], "trial": 2, "serialpos": 0, "trial_type": "single-stim", "trial_index": 89, "time_elapsed": 590343, "internal_node_id": "0.0-62.0"}}, {"uniqueid": "MTK1243:33FBRBDW6P66SLLVGI53KBSOUS18C8", "current_trial": 90, "dateTime": 1513467343394, "trialdata": {"rt": -1, "stimulus": "<p id=\"stim\">HANDBAG</p>", "key_press": -1, "type": "PRES_VIS", "word": "handbag", "wordID": 683, "conditions": [24, 800, "v", 12000], "trial": 2, "serialpos": 1, "trial_type": "single-stim", "trial_index": 90, "time_elapsed": 592349, "internal_node_id": "0.0-63.0"}}, {"uniqueid": "MTK1243:33FBRBDW6P66SLLVGI53KBSOUS18C8", "current_trial": 91, "dateTime": 1513467345374, "trialdata": {"rt": -1, "stimulus": "<p id=\"stim\">SPARROW</p>", "key_press": -1, "type": "PRES_VIS", "word": "sparrow", "wordID": 1346, "conditions": [24, 800, "v", 12000], "trial": 2, "serialpos": 2, "trial_type": "single-stim", "trial_index": 91, "time_elapsed": 594330, "internal_node_id": "0.0-64.0"}}, {"uniqueid": "MTK1243:33FBRBDW6P66SLLVGI53KBSOUS18C8", "current_trial": 92, "dateTime": 1513467347065, "trialdata": {"rt": -1, "stimulus": "<p id=\"stim\">ORCHID</p>", "key_press": -1, "type": "PRES_VIS", "word": "orchid", "wordID": 981, "conditions": [24, 800, "v", 12000], "trial": 2, "serialpos": 3, "trial_type": "single-stim", "trial_index": 92, "time_elapsed": 596021, "internal_node_id": "0.0-65.0"}}, {"uniqueid": "MTK1243:33FBRBDW6P66SLLVGI53KBSOUS18C8", "current_trial": 93, "dateTime": 1513467348769, "trialdata": {"rt": -1, "stimulus": "<p id=\"stim\">WOMAN</p>", "key_press": -1, "type": "PRES_VIS", "word": "woman", "wordID": 1619, "conditions": [24, 800, "v", 12000], "trial": 2, "serialpos": 4, "trial_type": "single-stim", "trial_index": 93, "time_elapsed": 597725, "internal_node_id": "0.0-66.0"}}, {"uniqueid": "MTK1243:33FBRBDW6P66SLLVGI53KBSOUS18C8", "current_trial": 94, "dateTime": 1513467350449, "trialdata": {"rt": -1, "stimulus": "<p id=\"stim\">MARSH</p>", "key_press": -1, "type": "PRES_VIS", "word": "marsh", "wordID": 873, "conditions": [24, 800, "v", 12000], "trial": 2, "serialpos": 5, "trial_type": "single-stim", "trial_index": 94, "time_elapsed": 599405, "internal_node_id": "0.0-67.0"}}, {"uniqueid": "MTK1243:33FBRBDW6P66SLLVGI53KBSOUS18C8", "current_trial": 95, "dateTime": 1513467352176, "trialdata": {"rt": -1, "stimulus": "<p id=\"stim\">JUNGLE</p>", "key_press": -1, "type": "PRES_VIS", "word": "jungle", "wordID": 763, "conditions": [24, 800, "v", 12000], "trial": 2, "serialpos": 6, "trial_type": "single-stim", "trial_index": 95, "time_elapsed": 601131, "internal_node_id": "0.0-68.0"}}, {"uniqueid": "MTK1243:33FBRBDW6P66SLLVGI53KBSOUS18C8", "current_trial": 96, "dateTime": 1513467353858, "trialdata": {"rt": -1, "stimulus": "<p id=\"stim\">CUSTARD</p>", "key_press": -1, "type": "PRES_VIS", "word": "custard", "wordID": 428, "conditions": [24, 800, "v", 12000], "trial": 2, "serialpos": 7, "trial_type": "single-stim", "trial_index": 96, "time_elapsed": 602814, "internal_node_id": "0.0-69.0"}}, {"uniqueid": "MTK1243:33FBRBDW6P66SLLVGI53KBSOUS18C8", "current_trial": 97, "dateTime": 1513467355499, "trialdata": {"rt": -1, "stimulus": "<p id=\"stim\">MUFFIN</p>", "key_press": -1, "type": "PRES_VIS", "word": "muffin", "wordID": 928, "conditions": [24, 800, "v", 12000], "trial": 2, "serialpos": 8, "trial_type": "single-stim", "trial_index": 97, "time_elapsed": 604455, "internal_node_id": "0.0-70.0"}}, {"uniqueid": "MTK1243:33FBRBDW6P66SLLVGI53KBSOUS18C8", "current_trial": 98, "dateTime": 1513467357149, "trialdata": {"rt": -1, "stimulus": "<p id=\"stim\">SUITCASE</p>", "key_press": -1, "type": "PRES_VIS", "word": "suitcase", "wordID": 1402, "conditions": [24, 800, "v", 12000], "trial": 2, "serialpos": 9, "trial_type": "single-stim", "trial_index": 98, "time_elapsed": 606105, "internal_node_id": "0.0-71.0"}}, {"uniqueid": "MTK1243:33FBRBDW6P66SLLVGI53KBSOUS18C8", "current_trial": 99, "dateTime": 1513467358760, "trialdata": {"rt": -1, "stimulus": "<p id=\"stim\">SKETCH</p>", "key_press": -1, "type": "PRES_VIS", "word": "sketch", "wordID": 1314, "conditions": [24, 800, "v", 12000], "trial": 2, "serialpos": 10, "trial_type": "single-stim", "trial_index": 99, "time_elapsed": 607716, "internal_node_id": "0.0-72.0"}}, {"uniqueid": "MTK1243:33FBRBDW6P66SLLVGI53KBSOUS18C8", "current_trial": 100, "dateTime": 1513467360729, "trialdata": {"rt": -1, "stimulus": "<p id=\"stim\">ANTLER</p>", "key_press": -1, "type": "PRES_VIS", "word": "antler", "wordID": 28, "conditions": [24, 800, "v", 12000], "trial": 2, "serialpos": 11, "trial_type": "single-stim", "trial_index": 100, "time_elapsed": 609685, "internal_node_id": "0.0-73.0"}}, {"uniqueid": "MTK1243:33FBRBDW6P66SLLVGI53KBSOUS18C8", "current_trial": 101, "dateTime": 1513467362619, "trialdata": {"rt": -1, "stimulus": "<p id=\"stim\">ATLAS</p>", "key_press": -1, "type": "PRES_VIS", "word": "atlas", "wordID": 52, "conditions": [24, 800, "v", 12000], "trial": 2, "serialpos": 12, "trial_type": "single-stim", "trial_index": 101, "time_elapsed": 611575, "internal_node_id": "0.0-74.0"}}, {"uniqueid": "MTK1243:33FBRBDW6P66SLLVGI53KBSOUS18C8", "current_trial": 102, "dateTime": 1513467364273, "trialdata": {"rt": -1, "stimulus": "<p id=\"stim\">COMPASS</p>", "key_press": -1, "type": "PRES_VIS", "word": "compass", "wordID": 357, "conditions": [24, 800, "v", 12000], "trial": 2, "serialpos": 13, "trial_type": "single-stim", "trial_index": 102, "time_elapsed": 613229, "internal_node_id": "0.0-75.0"}}, {"uniqueid": "MTK1243:33FBRBDW6P66SLLVGI53KBSOUS18C8", "current_trial": 103, "dateTime": 1513467366066, "trialdata": {"rt": -1, "stimulus": "<p id=\"stim\">PASTRY</p>", "key_press": -1, "type": "PRES_VIS", "word": "pastry", "wordID": 1021, "conditions": [24, 800, "v", 12000], "trial": 2, "serialpos": 14, "trial_type": "single-stim", "trial_index": 103, "time_elapsed": 615022, "internal_node_id": "0.0-76.0"}}, {"uniqueid": "MTK1243:33FBRBDW6P66SLLVGI53KBSOUS18C8", "current_trial": 104, "dateTime": 1513467367776, "trialdata": {"rt": -1, "stimulus": "<p id=\"stim\">DOUGHNUT</p>", "key_press": -1, "type": "PRES_VIS", "word": "doughnut", "wordID": 489, "conditions": [24, 800, "v", 12000], "trial": 2, "serialpos": 15, "trial_type": "single-stim", "trial_index": 104, "time_elapsed": 616732, "internal_node_id": "0.0-77.0"}}, {"uniqueid": "MTK1243:33FBRBDW6P66SLLVGI53KBSOUS18C8", "current_trial": 105, "dateTime": 1513467369634, "trialdata": {"rt": -1, "stimulus": "<p id=\"stim\">TUBA</p>", "key_press": -1, "type": "PRES_VIS", "word": "tuba", "wordID": 1514, "conditions": [24, 800, "v", 12000], "trial": 2, "serialpos": 16, "trial_type": "single-stim", "trial_index": 105, "time_elapsed": 618590, "internal_node_id": "0.0-78.0"}}, {"uniqueid": "MTK1243:33FBRBDW6P66SLLVGI53KBSOUS18C8", "current_trial": 106, "dateTime": 1513467371334, "trialdata": {"rt": -1, "stimulus": "<p id=\"stim\">MAILBOX</p>", "key_press": -1, "type": "PRES_VIS", "word": "mailbox", "wordID": 856, "conditions": [24, 800, "v", 12000], "trial": 2, "serialpos": 17, "trial_type": "single-stim", "trial_index": 106, "time_elapsed": 620290, "internal_node_id": "0.0-79.0"}}, {"uniqueid": "MTK1243:33FBRBDW6P66SLLVGI53KBSOUS18C8", "current_trial": 107, "dateTime": 1513467373238, "trialdata": {"rt": -1, "stimulus": "<p id=\"stim\">HELMET</p>", "key_press": -1, "type": "PRES_VIS", "word": "helmet", "wordID": 701, "conditions": [24, 800, "v", 12000], "trial": 2, "serialpos": 18, "trial_type": "single-stim", "trial_index": 107, "time_elapsed": 622194, "internal_node_id": "0.0-80.0"}}, {"uniqueid": "MTK1243:33FBRBDW6P66SLLVGI53KBSOUS18C8", "current_trial": 108, "dateTime": 1513467375004, "trialdata": {"rt": -1, "stimulus": "<p id=\"stim\">LION</p>", "key_press": -1, "type": "PRES_VIS", "word": "lion", "wordID": 826, "conditions": [24, 800, "v", 12000], "trial": 2, "serialpos": 19, "trial_type": "single-stim", "trial_index": 108, "time_elapsed": 623960, "internal_node_id": "0.0-81.0"}}, {"uniqueid": "MTK1243:33FBRBDW6P66SLLVGI53KBSOUS18C8", "current_trial": 109, "dateTime": 1513467376618, "trialdata": {"rt": -1, "stimulus": "<p id=\"stim\">ONION</p>", "key_press": -1, "type": "PRES_VIS", "word": "onion", "wordID": 976, "conditions": [24, 800, "v", 12000], "trial": 2, "serialpos": 20, "trial_type": "single-stim", "trial_index": 109, "time_elapsed": 625574, "internal_node_id": "0.0-82.0"}}, {"uniqueid": "MTK1243:33FBRBDW6P66SLLVGI53KBSOUS18C8", "current_trial": 110, "dateTime": 1513467378364, "trialdata": {"rt": -1, "stimulus": "<p id=\"stim\">OFFICE</p>", "key_press": -1, "type": "PRES_VIS", "word": "office", "wordID": 971, "conditions": [24, 800, "v", 12000], "trial": 2, "serialpos": 21, "trial_type": "single-stim", "trial_index": 110, "time_elapsed": 627320, "internal_node_id": "0.0-83.0"}}, {"uniqueid": "MTK1243:33FBRBDW6P66SLLVGI53KBSOUS18C8", "current_trial": 111, "dateTime": 1513467380075, "trialdata": {"rt": -1, "stimulus": "<p id=\"stim\">BOYFRIEND</p>", "key_press": -1, "type": "PRES_VIS", "word": "boyfriend", "wordID": 161, "conditions": [24, 800, "v", 12000], "trial": 2, "serialpos": 22, "trial_type": "single-stim", "trial_index": 111, "time_elapsed": 629031, "internal_node_id": "0.0-84.0"}}, {"uniqueid": "MTK1243:33FBRBDW6P66SLLVGI53KBSOUS18C8", "current_trial": 112, "dateTime": 1513467381853, "trialdata": {"rt": -1, "stimulus": "<p id=\"stim\">PEPPER</p>", "key_press": -1, "type": "PRES_VIS", "word": "pepper", "wordID": 1046, "conditions": [24, 800, "v", 12000], "trial": 2, "serialpos": 23, "trial_type": "single-stim", "trial_index": 112, "time_elapsed": 630808, "internal_node_id": "0.0-85.0"}}, {"uniqueid": "MTK1243:33FBRBDW6P66SLLVGI53KBSOUS18C8", "current_trial": 113, "dateTime": 1513467384126, "trialdata": {"rt": -1, "stimulus": "", "key_press": -1, "type": "PRE_RECALL_DELAY", "trial_type": "single-stim", "trial_index": 113, "time_elapsed": 633082, "internal_node_id": "0.0-86.0-0.0"}}, {"uniqueid": "MTK1243:33FBRBDW6P66SLLVGI53KBSOUS18C8", "current_trial": 114, "dateTime": 1513467384634, "trialdata": {"rt": -1000, "stimulus": "/static/audio/400Hz.wav", "key_press": -1, "type": "PRE_RECALL_ALERT", "trial_type": "single-audio", "trial_index": 114, "time_elapsed": 633589, "internal_node_id": "0.0-87.0"}}, {"uniqueid": "MTK1243:33FBRBDW6P66SLLVGI53KBSOUS18C8", "current_trial": 115, "dateTime": 1513467444644, "trialdata": {"rt": [13470, 15559, 18721, 21650, 23641, 27521, 29221, 31111, 32742, 55442], "recwords": ["boyfriend", "pepper", "onion", "jungle", "marsh", "lion", "tuba", "helmet", "compass", "doughnut"], "type": "FREE_RECALL", "conditions": [24, 800, "v", 12000], "trial": 2, "trial_type": "free-recall", "trial_index": 115, "time_elapsed": 693595, "internal_node_id": "0.0-88.0-0.0"}}, {"uniqueid": "MTK1243:33FBRBDW6P66SLLVGI53KBSOUS18C8", "current_trial": 116, "dateTime": 1513467448400, "trialdata": {"rt": 1753, "key_press": 68, "type": "INSTRUCTIONS", "trial_type": "text", "trial_index": 116, "time_elapsed": 697356, "internal_node_id": "0.0-89.0"}}, {"uniqueid": "MTK1243:33FBRBDW6P66SLLVGI53KBSOUS18C8", "current_trial": 117, "dateTime": 1513467462410, "trialdata": {"rt": [4651, 8521, 10951], "responses": ["18", "18", "8"], "num1": [1, 3, 1, 3], "num2": [8, 6, 6, 8], "num3": [9, 9, 1, 3], "type": "DISTRACTOR", "conditions": [12, 800, "a", 12000], "trial": 3, "trial_type": "math-distractor", "trial_index": 117, "time_elapsed": 711366, "internal_node_id": "0.0-90.0"}}, {"uniqueid": "MTK1243:33FBRBDW6P66SLLVGI53KBSOUS18C8", "current_trial": 118, "dateTime": 1513467465419, "trialdata": {"rt": -1, "stimulus": "<p id=\"stim\">10</p>", "key_press": -1, "trial_type": "single-stim", "trial_index": 118, "time_elapsed": 714375, "internal_node_id": "0.0-91.0-0.0"}}, {"uniqueid": "MTK1243:33FBRBDW6P66SLLVGI53KBSOUS18C8", "current_trial": 119, "dateTime": 1513467466425, "trialdata": {"rt": -1, "stimulus": "<p id=\"stim\">9</p>", "key_press": -1, "trial_type": "single-stim", "trial_index": 119, "time_elapsed": 715380, "internal_node_id": "0.0-91.0-1.0"}}, {"uniqueid": "MTK1243:33FBRBDW6P66SLLVGI53KBSOUS18C8", "current_trial": 120, "dateTime": 1513467467431, "trialdata": {"rt": -1, "stimulus": "<p id=\"stim\">8</p>", "key_press": -1, "trial_type": "single-stim", "trial_index": 120, "time_elapsed": 716386, "internal_node_id": "0.0-91.0-2.0"}}, {"uniqueid": "MTK1243:33FBRBDW6P66SLLVGI53KBSOUS18C8", "current_trial": 121, "dateTime": 1513467468434, "trialdata": {"rt": -1, "stimulus": "<p id=\"stim\">7</p>", "key_press": -1, "trial_type": "single-stim", "trial_index": 121, "time_elapsed": 717390, "internal_node_id": "0.0-91.0-3.0"}}, {"uniqueid": "MTK1243:33FBRBDW6P66SLLVGI53KBSOUS18C8", "current_trial": 122, "dateTime": 1513467469438, "trialdata": {"rt": -1, "stimulus": "<p id=\"stim\">6</p>", "key_press": -1, "trial_type": "single-stim", "trial_index": 122, "time_elapsed": 718394, "internal_node_id": "0.0-91.0-4.0"}}, {"uniqueid": "MTK1243:33FBRBDW6P66SLLVGI53KBSOUS18C8", "current_trial": 123, "dateTime": 1513467470443, "trialdata": {"rt": -1, "stimulus": "<p id=\"stim\">5</p>", "key_press": -1, "trial_type": "single-stim", "trial_index": 123, "time_elapsed": 719399, "internal_node_id": "0.0-91.0-5.0"}}, {"uniqueid": "MTK1243:33FBRBDW6P66SLLVGI53KBSOUS18C8", "current_trial": 124, "dateTime": 1513467471445, "trialdata": {"rt": -1, "stimulus": "<p id=\"stim\">4</p>", "key_press": -1, "trial_type": "single-stim", "trial_index": 124, "time_elapsed": 720401, "internal_node_id": "0.0-91.0-6.0"}}, {"uniqueid": "MTK1243:33FBRBDW6P66SLLVGI53KBSOUS18C8", "current_trial": 125, "dateTime": 1513467472451, "trialdata": {"rt": -1, "stimulus": "<p id=\"stim\">3</p>", "key_press": -1, "trial_type": "single-stim", "trial_index": 125, "time_elapsed": 721407, "internal_node_id": "0.0-91.0-7.0"}}, {"uniqueid": "MTK1243:33FBRBDW6P66SLLVGI53KBSOUS18C8", "current_trial": 126, "dateTime": 1513467473455, "trialdata": {"rt": -1, "stimulus": "<p id=\"stim\">2</p>", "key_press": -1, "trial_type": "single-stim", "trial_index": 126, "time_elapsed": 722410, "internal_node_id": "0.0-91.0-8.0"}}, {"uniqueid": "MTK1243:33FBRBDW6P66SLLVGI53KBSOUS18C8", "current_trial": 127, "dateTime": 1513467474459, "trialdata": {"rt": -1, "stimulus": "<p id=\"stim\">1</p>", "key_press": -1, "trial_type": "single-stim", "trial_index": 127, "time_elapsed": 723415, "internal_node_id": "0.0-91.0-9.0"}}, {"uniqueid": "MTK1243:33FBRBDW6P66SLLVGI53KBSOUS18C8", "current_trial": 128, "dateTime": 1513467475962, "trialdata": {"rt": -1, "stimulus": "<p id=\"stim\">+</p>", "key_press": -1, "type": "FIXATION", "trial_type": "single-stim", "trial_index": 128, "time_elapsed": 724918, "internal_node_id": "0.0-92.0-0.0"}}, {"uniqueid": "MTK1243:33FBRBDW6P66SLLVGI53KBSOUS18C8", "current_trial": 129, "dateTime": 1513467477926, "trialdata": {"rt": -1000, "stimulus": "/static/audio/wordpool/LIGHTNING.wav", "key_press": -1, "type": "PRES_AUD", "word": "lightning", "wordID": 819, "conditions": [12, 800, "a", 12000], "trial": 3, "serialpos": 0, "trial_type": "single-audio", "trial_index": 129, "time_elapsed": 726882, "internal_node_id": "0.0-93.0"}}, {"uniqueid": "MTK1243:33FBRBDW6P66SLLVGI53KBSOUS18C8", "current_trial": 130, "dateTime": 1513467479621, "trialdata": {"rt": -1000, "stimulus": "/static/audio/wordpool/TOASTER.wav", "key_press": -1, "type": "PRES_AUD", "word": "toaster", "wordID": 1471, "conditions": [12, 800, "a", 12000], "trial": 3, "serialpos": 1, "trial_type": "single-audio", "trial_index": 130, "time_elapsed": 728577, "internal_node_id": "0.0-94.0"}}, {"uniqueid": "MTK1243:33FBRBDW6P66SLLVGI53KBSOUS18C8", "current_trial": 131, "dateTime": 1513467481295, "trialdata": {"rt": -1000, "stimulus": "/static/audio/wordpool/CITRUS.wav", "key_press": -1, "type": "PRES_AUD", "word": "citrus", "wordID": 312, "conditions": [12, 800, "a", 12000], "trial": 3, "serialpos": 2, "trial_type": "single-audio", "trial_index": 131, "time_elapsed": 730250, "internal_node_id": "0.0-95.0"}}, {"uniqueid": "MTK1243:33FBRBDW6P66SLLVGI53KBSOUS18C8", "current_trial": 132, "dateTime": 1513467483241, "trialdata": {"rt": -1000, "stimulus": "/static/audio/wordpool/STOVE.wav", "key_press": -1, "type": "PRES_AUD", "word": "stove", "wordID": 1387, "conditions": [12, 800, "a", 12000], "trial": 3, "serialpos": 3, "trial_type": "single-audio", "trial_index": 132, "time_elapsed": 732197, "internal_node_id": "0.0-96.0"}}, {"uniqueid": "MTK1243:33FBRBDW6P66SLLVGI53KBSOUS18C8", "current_trial": 133, "dateTime": 1513467484890, "trialdata": {"rt": -1000, "stimulus": "/static/audio/wordpool/BACKBONE.wav", "key_press": -1, "type": "PRES_AUD", "word": "backbone", "wordID": 65, "conditions": [12, 800, "a", 12000], "trial": 3, "serialpos": 4, "trial_type": "single-audio", "trial_index": 133, "time_elapsed": 733845, "internal_node_id": "0.0-97.0"}}, {"uniqueid": "MTK1243:33FBRBDW6P66SLLVGI53KBSOUS18C8", "current_trial": 134, "dateTime": 1513467486590, "trialdata": {"rt": -1000, "stimulus": "/static/audio/wordpool/OYSTER.wav", "key_press": -1, "type": "PRES_AUD", "word": "oyster", "wordID": 994, "conditions": [12, 800, "a", 12000], "trial": 3, "serialpos": 5, "trial_type": "single-audio", "trial_index": 134, "time_elapsed": 735546, "internal_node_id": "0.0-98.0"}}, {"uniqueid": "MTK1243:33FBRBDW6P66SLLVGI53KBSOUS18C8", "current_trial": 135, "dateTime": 1513467488484, "trialdata": {"rt": -1000, "stimulus": "/static/audio/wordpool/VENUS.wav", "key_press": -1, "type": "PRES_AUD", "word": "venus", "wordID": 1556, "conditions": [12, 800, "a", 12000], "trial": 3, "serialpos": 6, "trial_type": "single-audio", "trial_index": 135, "time_elapsed": 737440, "internal_node_id": "0.0-99.0"}}, {"uniqueid": "MTK1243:33FBRBDW6P66SLLVGI53KBSOUS18C8", "current_trial": 136, "dateTime": 1513467490305, "trialdata": {"rt": -1000, "stimulus": "/static/audio/wordpool/TWIG.wav", "key_press": -1, "type": "PRES_AUD", "word": "twig", "wordID": 1526, "conditions": [12, 800, "a", 12000], "trial": 3, "serialpos": 7, "trial_type": "single-audio", "trial_index": 136, "time_elapsed": 739261, "internal_node_id": "0.0-100.0"}}, {"uniqueid": "MTK1243:33FBRBDW6P66SLLVGI53KBSOUS18C8", "current_trial": 137, "dateTime": 1513467492257, "trialdata": {"rt": -1000, "stimulus": "/static/audio/wordpool/TILE.wav", "key_press": -1, "type": "PRES_AUD", "word": "tile", "wordID": 1467, "conditions": [12, 800, "a", 12000], "trial": 3, "serialpos": 8, "trial_type": "single-audio", "trial_index": 137, "time_elapsed": 741213, "internal_node_id": "0.0-101.0"}}, {"uniqueid": "MTK1243:33FBRBDW6P66SLLVGI53KBSOUS18C8", "current_trial": 138, "dateTime": 1513467493938, "trialdata": {"rt": -1000, "stimulus": "/static/audio/wordpool/PISTOL.wav", "key_press": -1, "type": "PRES_AUD", "word": "pistol", "wordID": 1074, "conditions": [12, 800, "a", 12000], "trial": 3, "serialpos": 9, "trial_type": "single-audio", "trial_index": 138, "time_elapsed": 742894, "internal_node_id": "0.0-102.0"}}, {"uniqueid": "MTK1243:33FBRBDW6P66SLLVGI53KBSOUS18C8", "current_trial": 139, "dateTime": 1513467495841, "trialdata": {"rt": -1000, "stimulus": "/static/audio/wordpool/KNIFE.wav", "key_press": -1, "type": "PRES_AUD", "word": "knife", "wordID": 784, "conditions": [12, 800, "a", 12000], "trial": 3, "serialpos": 10, "trial_type": "single-audio", "trial_index": 139, "time_elapsed": 744796, "internal_node_id": "0.0-103.0"}}, {"uniqueid": "MTK1243:33FBRBDW6P66SLLVGI53KBSOUS18C8", "current_trial": 140, "dateTime": 1513467497741, "trialdata": {"rt": -1000, "stimulus": "/static/audio/wordpool/GRILL.wav", "key_press": -1, "type": "PRES_AUD", "word": "grill", "wordID": 660, "conditions": [12, 800, "a", 12000], "trial": 3, "serialpos": 11, "trial_type": "single-audio", "trial_index": 140, "time_elapsed": 746696, "internal_node_id": "0.0-104.0"}}, {"uniqueid": "MTK1243:33FBRBDW6P66SLLVGI53KBSOUS18C8", "current_trial": 141, "dateTime": 1513467499056, "trialdata": {"rt": -1, "stimulus": "", "key_press": -1, "type": "PRE_RECALL_DELAY", "trial_type": "single-stim", "trial_index": 141, "time_elapsed": 748011, "internal_node_id": "0.0-105.0-0.0"}}, {"uniqueid": "MTK1243:33FBRBDW6P66SLLVGI53KBSOUS18C8", "current_trial": 142, "dateTime": 1513467499558, "trialdata": {"rt": -1000, "stimulus": "/static/audio/400Hz.wav", "key_press": -1, "type": "PRE_RECALL_ALERT", "trial_type": "single-audio", "trial_index": 142, "time_elapsed": 748514, "internal_node_id": "0.0-106.0"}}, {"uniqueid": "MTK1243:33FBRBDW6P66SLLVGI53KBSOUS18C8", "current_trial": 143, "dateTime": 1513467559573, "trialdata": {"rt": [5048, 6698, 8168, 9858, 14208, 19098, 21478, 22528, 25208], "recwords": ["knife", "grill", "venus", "piston", "lightningh", "backbone", "oyster", "stove", "toaster"], "type": "FREE_RECALL", "conditions": [12, 800, "a", 12000], "trial": 3, "trial_type": "free-recall", "trial_index": 143, "time_elapsed": 808523, "internal_node_id": "0.0-107.0-0.0"}}, {"uniqueid": "MTK1243:33FBRBDW6P66SLLVGI53KBSOUS18C8", "current_trial": 144, "dateTime": 1513467564371, "trialdata": {"rt": 2792, "key_press": 68, "type": "INSTRUCTIONS", "trial_type": "text", "trial_index": 144, "time_elapsed": 813326, "internal_node_id": "0.0-108.0"}}, {"uniqueid": "MTK1243:33FBRBDW6P66SLLVGI53KBSOUS18C8", "current_trial": 145, "dateTime": 1513467590379, "trialdata": {"rt": [2901, 10551, 13881, 17141, 18561, 22381], "responses": ["11", "24", "17", "19", "3", "10"], "num1": [8, 8, 5, 5, 1, 1, 7], "num2": [2, 8, 4, 7, 1, 2, 7], "num3": [1, 8, 8, 7, 1, 7, 9], "type": "DISTRACTOR", "conditions": [12, 800, "a", 24000], "trial": 4, "trial_type": "math-distractor", "trial_index": 145, "time_elapsed": 839335, "internal_node_id": "0.0-109.0"}}, {"uniqueid": "MTK1243:33FBRBDW6P66SLLVGI53KBSOUS18C8", "current_trial": 146, "dateTime": 1513467593387, "trialdata": {"rt": -1, "stimulus": "<p id=\"stim\">10</p>", "key_press": -1, "trial_type": "single-stim", "trial_index": 146, "time_elapsed": 842343, "internal_node_id": "0.0-110.0-0.0"}}, {"uniqueid": "MTK1243:33FBRBDW6P66SLLVGI53KBSOUS18C8", "current_trial": 147, "dateTime": 1513467594390, "trialdata": {"rt": -1, "stimulus": "<p id=\"stim\">9</p>", "key_press": -1, "trial_type": "single-stim", "trial_index": 147, "time_elapsed": 843345, "internal_node_id": "0.0-110.0-1.0"}}, {"uniqueid": "MTK1243:33FBRBDW6P66SLLVGI53KBSOUS18C8", "current_trial": 148, "dateTime": 1513467595397, "trialdata": {"rt": -1, "stimulus": "<p id=\"stim\">8</p>", "key_press": -1, "trial_type": "single-stim", "trial_index": 148, "time_elapsed": 844353, "internal_node_id": "0.0-110.0-2.0"}}, {"uniqueid": "MTK1243:33FBRBDW6P66SLLVGI53KBSOUS18C8", "current_trial": 149, "dateTime": 1513467596402, "trialdata": {"rt": -1, "stimulus": "<p id=\"stim\">7</p>", "key_press": -1, "trial_type": "single-stim", "trial_index": 149, "time_elapsed": 845357, "internal_node_id": "0.0-110.0-3.0"}}, {"uniqueid": "MTK1243:33FBRBDW6P66SLLVGI53KBSOUS18C8", "current_trial": 150, "dateTime": 1513467597406, "trialdata": {"rt": -1, "stimulus": "<p id=\"stim\">6</p>", "key_press": -1, "trial_type": "single-stim", "trial_index": 150, "time_elapsed": 846362, "internal_node_id": "0.0-110.0-4.0"}}, {"uniqueid": "MTK1243:33FBRBDW6P66SLLVGI53KBSOUS18C8", "current_trial": 151, "dateTime": 1513467598411, "trialdata": {"rt": -1, "stimulus": "<p id=\"stim\">5</p>", "key_press": -1, "trial_type": "single-stim", "trial_index": 151, "time_elapsed": 847367, "internal_node_id": "0.0-110.0-5.0"}}, {"uniqueid": "MTK1243:33FBRBDW6P66SLLVGI53KBSOUS18C8", "current_trial": 152, "dateTime": 1513467599416, "trialdata": {"rt": -1, "stimulus": "<p id=\"stim\">4</p>", "key_press": -1, "trial_type": "single-stim", "trial_index": 152, "time_elapsed": 848372, "internal_node_id": "0.0-110.0-6.0"}}, {"uniqueid": "MTK1243:33FBRBDW6P66SLLVGI53KBSOUS18C8", "current_trial": 153, "dateTime": 1513467600420, "trialdata": {"rt": -1, "stimulus": "<p id=\"stim\">3</p>", "key_press": -1, "trial_type": "single-stim", "trial_index": 153, "time_elapsed": 849376, "internal_node_id": "0.0-110.0-7.0"}}, {"uniqueid": "MTK1243:33FBRBDW6P66SLLVGI53KBSOUS18C8", "current_trial": 154, "dateTime": 1513467601436, "trialdata": {"rt": -1, "stimulus": "<p id=\"stim\">2</p>", "key_press": -1, "trial_type": "single-stim", "trial_index": 154, "time_elapsed": 850391, "internal_node_id": "0.0-110.0-8.0"}}, {"uniqueid": "MTK1243:33FBRBDW6P66SLLVGI53KBSOUS18C8", "current_trial": 155, "dateTime": 1513467602441, "trialdata": {"rt": -1, "stimulus": "<p id=\"stim\">1</p>", "key_press": -1, "trial_type": "single-stim", "trial_index": 155, "time_elapsed": 851397, "internal_node_id": "0.0-110.0-9.0"}}, {"uniqueid": "MTK1243:33FBRBDW6P66SLLVGI53KBSOUS18C8", "current_trial": 156, "dateTime": 1513467603946, "trialdata": {"rt": -1, "stimulus": "<p id=\"stim\">+</p>", "key_press": -1, "type": "FIXATION", "trial_type": "single-stim", "trial_index": 156, "time_elapsed": 852902, "internal_node_id": "0.0-111.0-0.0"}}, {"uniqueid": "MTK1243:33FBRBDW6P66SLLVGI53KBSOUS18C8", "current_trial": 157, "dateTime": 1513467605791, "trialdata": {"rt": -1000, "stimulus": "/static/audio/wordpool/GRAVEL.wav", "key_press": -1, "type": "PRES_AUD", "word": "gravel", "wordID": 658, "conditions": [12, 800, "a", 24000], "trial": 4, "serialpos": 0, "trial_type": "single-audio", "trial_index": 157, "time_elapsed": 854746, "internal_node_id": "0.0-112.0"}}, {"uniqueid": "MTK1243:33FBRBDW6P66SLLVGI53KBSOUS18C8", "current_trial": 158, "dateTime": 1513467607705, "trialdata": {"rt": -1000, "stimulus": "/static/audio/wordpool/CIGAR.wav", "key_press": -1, "type": "PRES_AUD", "word": "cigar", "wordID": 307, "conditions": [12, 800, "a", 24000], "trial": 4, "serialpos": 1, "trial_type": "single-audio", "trial_index": 158, "time_elapsed": 856661, "internal_node_id": "0.0-113.0"}}, {"uniqueid": "MTK1243:33FBRBDW6P66SLLVGI53KBSOUS18C8", "current_trial": 159, "dateTime": 1513467609453, "trialdata": {"rt": -1000, "stimulus": "/static/audio/wordpool/SERVER.wav", "key_press": -1, "type": "PRES_AUD", "word": "server", "wordID": 1271, "conditions": [12, 800, "a", 24000], "trial": 4, "serialpos": 2, "trial_type": "single-audio", "trial_index": 159, "time_elapsed": 858409, "internal_node_id": "0.0-114.0"}}, {"uniqueid": "MTK1243:33FBRBDW6P66SLLVGI53KBSOUS18C8", "current_trial": 160, "dateTime": 1513467611248, "trialdata": {"rt": -1000, "stimulus": "/static/audio/wordpool/DINER.wav", "key_press": -1, "type": "PRES_AUD", "word": "diner", "wordID": 466, "conditions": [12, 800, "a", 24000], "trial": 4, "serialpos": 3, "trial_type": "single-audio", "trial_index": 160, "time_elapsed": 860204, "internal_node_id": "0.0-115.0"}}, {"uniqueid": "MTK1243:33FBRBDW6P66SLLVGI53KBSOUS18C8", "current_trial": 161, "dateTime": 1513467612863, "trialdata": {"rt": -1000, "stimulus": "/static/audio/wordpool/BEAKER.wav", "key_press": -1, "type": "PRES_AUD", "word": "beaker", "wordID": 103, "conditions": [12, 800, "a", 24000], "trial": 4, "serialpos": 4, "trial_type": "single-audio", "trial_index": 161, "time_elapsed": 861819, "internal_node_id": "0.0-116.0"}}, {"uniqueid": "MTK1243:33FBRBDW6P66SLLVGI53KBSOUS18C8", "current_trial": 162, "dateTime": 1513467614776, "trialdata": {"rt": -1000, "stimulus": "/static/audio/wordpool/GLOVE.wav", "key_press": -1, "type": "PRES_AUD", "word": "glove", "wordID": 641, "conditions": [12, 800, "a", 24000], "trial": 4, "serialpos": 5, "trial_type": "single-audio", "trial_index": 162, "time_elapsed": 863732, "internal_node_id": "0.0-117.0"}}, {"uniqueid": "MTK1243:33FBRBDW6P66SLLVGI53KBSOUS18C8", "current_trial": 163, "dateTime": 1513467616723, "trialdata": {"rt": -1000, "stimulus": "/static/audio/wordpool/EXPERT.wav", "key_press": -1, "type": "PRES_AUD", "word": "expert", "wordID": 542, "conditions": [12, 800, "a", 24000], "trial": 4, "serialpos": 6, "trial_type": "single-audio", "trial_index": 163, "time_elapsed": 865679, "internal_node_id": "0.0-118.0"}}, {"uniqueid": "MTK1243:33FBRBDW6P66SLLVGI53KBSOUS18C8", "current_trial": 164, "dateTime": 1513467618413, "trialdata": {"rt": -1000, "stimulus": "/static/audio/wordpool/BANK.wav", "key_press": -1, "type": "PRES_AUD", "word": "bank", "wordID": 82, "conditions": [12, 800, "a", 24000], "trial": 4, "serialpos": 7, "trial_type": "single-audio", "trial_index": 164, "time_elapsed": 867369, "internal_node_id": "0.0-119.0"}}, {"uniqueid": "MTK1243:33FBRBDW6P66SLLVGI53KBSOUS18C8", "current_trial": 165, "dateTime": 1513467620164, "trialdata": {"rt": -1000, "stimulus": "/static/audio/wordpool/RIVER.wav", "key_press": -1, "type": "PRES_AUD", "word": "river", "wordID": 1193, "conditions": [12, 800, "a", 24000], "trial": 4, "serialpos": 8, "trial_type": "single-audio", "trial_index": 165, "time_elapsed": 869120, "internal_node_id": "0.0-120.0"}}, {"uniqueid": "MTK1243:33FBRBDW6P66SLLVGI53KBSOUS18C8", "current_trial": 166, "dateTime": 1513467622037, "trialdata": {"rt": -1000, "stimulus": "/static/audio/wordpool/EUROPE.wav", "key_press": -1, "type": "PRES_AUD", "word": "europe", "wordID": 540, "conditions": [12, 800, "a", 24000], "trial": 4, "serialpos": 9, "trial_type": "single-audio", "trial_index": 166, "time_elapsed": 870992, "internal_node_id": "0.0-121.0"}}, {"uniqueid": "MTK1243:33FBRBDW6P66SLLVGI53KBSOUS18C8", "current_trial": 167, "dateTime": 1513467623965, "trialdata": {"rt": -1000, "stimulus": "/static/audio/wordpool/ASIA.wav", "key_press": -1, "type": "PRES_AUD", "word": "asia", "wordID": 45, "conditions": [12, 800, "a", 24000], "trial": 4, "serialpos": 10, "trial_type": "single-audio", "trial_index": 167, "time_elapsed": 872921, "internal_node_id": "0.0-122.0"}}, {"uniqueid": "MTK1243:33FBRBDW6P66SLLVGI53KBSOUS18C8", "current_trial": 168, "dateTime": 1513467625851, "trialdata": {"rt": -1000, "stimulus": "/static/audio/wordpool/BRANCH.wav", "key_press": -1, "type": "PRES_AUD", "word": "branch", "wordID": 167, "conditions": [12, 800, "a", 24000], "trial": 4, "serialpos": 11, "trial_type": "single-audio", "trial_index": 168, "time_elapsed": 874807, "internal_node_id": "0.0-123.0"}}, {"uniqueid": "MTK1243:33FBRBDW6P66SLLVGI53KBSOUS18C8", "current_trial": 169, "dateTime": 1513467627159, "trialdata": {"rt": -1, "stimulus": "", "key_press": -1, "type": "PRE_RECALL_DELAY", "trial_type": "single-stim", "trial_index": 169, "time_elapsed": 876114, "internal_node_id": "0.0-124.0-0.0"}}, {"uniqueid": "MTK1243:33FBRBDW6P66SLLVGI53KBSOUS18C8", "current_trial": 170, "dateTime": 1513467627662, "trialdata": {"rt": -1000, "stimulus": "/static/audio/400Hz.wav", "key_press": -1, "type": "PRE_RECALL_ALERT", "trial_type": "single-audio", "trial_index": 170, "time_elapsed": 876617, "internal_node_id": "0.0-125.0"}}, {"uniqueid": "MTK1243:33FBRBDW6P66SLLVGI53KBSOUS18C8", "current_trial": 171, "dateTime": 1513467687678, "trialdata": {"rt": [5359, 6499, 9030, 13910, 15829, 26580, 33050, 45301], "recwords": ["branch", "asia", "europe", "server", "diner", "expert", "glove", ""], "type": "FREE_RECALL", "conditions": [12, 800, "a", 24000], "trial": 4, "trial_type": "free-recall", "trial_index": 171, "time_elapsed": 936627, "internal_node_id": "0.0-126.0-0.0"}}, {"uniqueid": "MTK1243:33FBRBDW6P66SLLVGI53KBSOUS18C8", "current_trial": 172, "dateTime": 1513467691569, "trialdata": {"rt": 1885, "key_press": 76, "type": "INSTRUCTIONS", "trial_type": "text", "trial_index": 172, "time_elapsed": 940525, "internal_node_id": "0.0-127.0"}}, {"uniqueid": "MTK1243:33FBRBDW6P66SLLVGI53KBSOUS18C8", "current_trial": 173, "dateTime": 1513467717582, "trialdata": {"rt": [8221, 14950, 18130], "responses": ["18", "17", "7"], "num1": [8, 2, 3, 7], "num2": [8, 8, 3, 8], "num3": [2, 7, 1, 9], "type": "DISTRACTOR", "conditions": [12, 800, "v", 24000], "trial": 5, "trial_type": "math-distractor", "trial_index": 173, "time_elapsed": 966537, "internal_node_id": "0.0-128.0"}}, {"uniqueid": "MTK1243:33FBRBDW6P66SLLVGI53KBSOUS18C8", "current_trial": 174, "dateTime": 1513467720588, "trialdata": {"rt": -1, "stimulus": "<p id=\"stim\">10</p>", "key_press": -1, "trial_type": "single-stim", "trial_index": 174, "time_elapsed": 969543, "internal_node_id": "0.0-129.0-0.0"}}, {"uniqueid": "MTK1243:33FBRBDW6P66SLLVGI53KBSOUS18C8", "current_trial": 175, "dateTime": 1513467721590, "trialdata": {"rt": -1, "stimulus": "<p id=\"stim\">9</p>", "key_press": -1, "trial_type": "single-stim", "trial_index": 175, "time_elapsed": 970545, "internal_node_id": "0.0-129.0-1.0"}}, {"uniqueid": "MTK1243:33FBRBDW6P66SLLVGI53KBSOUS18C8", "current_trial": 176, "dateTime": 1513467722595, "trialdata": {"rt": -1, "stimulus": "<p id=\"stim\">8</p>", "key_press": -1, "trial_type": "single-stim", "trial_index": 176, "time_elapsed": 971551, "internal_node_id": "0.0-129.0-2.0"}}, {"uniqueid": "MTK1243:33FBRBDW6P66SLLVGI53KBSOUS18C8", "current_trial": 177, "dateTime": 1513467723600, "trialdata": {"rt": -1, "stimulus": "<p id=\"stim\">7</p>", "key_press": -1, "trial_type": "single-stim", "trial_index": 177, "time_elapsed": 972556, "internal_node_id": "0.0-129.0-3.0"}}, {"uniqueid": "MTK1243:33FBRBDW6P66SLLVGI53KBSOUS18C8", "current_trial": 178, "dateTime": 1513467724606, "trialdata": {"rt": -1, "stimulus": "<p id=\"stim\">6</p>", "key_press": -1, "trial_type": "single-stim", "trial_index": 178, "time_elapsed": 973562, "internal_node_id": "0.0-129.0-4.0"}}, {"uniqueid": "MTK1243:33FBRBDW6P66SLLVGI53KBSOUS18C8", "current_trial": 179, "dateTime": 1513467725612, "trialdata": {"rt": -1, "stimulus": "<p id=\"stim\">5</p>", "key_press": -1, "trial_type": "single-stim", "trial_index": 179, "time_elapsed": 974568, "internal_node_id": "0.0-129.0-5.0"}}, {"uniqueid": "MTK1243:33FBRBDW6P66SLLVGI53KBSOUS18C8", "current_trial": 180, "dateTime": 1513467726617, "trialdata": {"rt": -1, "stimulus": "<p id=\"stim\">4</p>", "key_press": -1, "trial_type": "single-stim", "trial_index": 180, "time_elapsed": 975573, "internal_node_id": "0.0-129.0-6.0"}}, {"uniqueid": "MTK1243:33FBRBDW6P66SLLVGI53KBSOUS18C8", "current_trial": 181, "dateTime": 1513467727623, "trialdata": {"rt": -1, "stimulus": "<p id=\"stim\">3</p>", "key_press": -1, "trial_type": "single-stim", "trial_index": 181, "time_elapsed": 976579, "internal_node_id": "0.0-129.0-7.0"}}, {"uniqueid": "MTK1243:33FBRBDW6P66SLLVGI53KBSOUS18C8", "current_trial": 182, "dateTime": 1513467728626, "trialdata": {"rt": -1, "stimulus": "<p id=\"stim\">2</p>", "key_press": -1, "trial_type": "single-stim", "trial_index": 182, "time_elapsed": 977582, "internal_node_id": "0.0-129.0-8.0"}}, {"uniqueid": "MTK1243:33FBRBDW6P66SLLVGI53KBSOUS18C8", "current_trial": 183, "dateTime": 1513467729631, "trialdata": {"rt": -1, "stimulus": "<p id=\"stim\">1</p>", "key_press": -1, "trial_type": "single-stim", "trial_index": 183, "time_elapsed": 978587, "internal_node_id": "0.0-129.0-9.0"}}, {"uniqueid": "MTK1243:33FBRBDW6P66SLLVGI53KBSOUS18C8", "current_trial": 184, "dateTime": 1513467731136, "trialdata": {"rt": -1, "stimulus": "<p id=\"stim\">+</p>", "key_press": -1, "type": "FIXATION", "trial_type": "single-stim", "trial_index": 184, "time_elapsed": 980092, "internal_node_id": "0.0-130.0-0.0"}}, {"uniqueid": "MTK1243:33FBRBDW6P66SLLVGI53KBSOUS18C8", "current_trial": 185, "dateTime": 1513467731942, "trialdata": {"rt": -1, "stimulus": "<p id=\"stim\">BURGLAR</p>", "key_press": -1, "type": "PRES_VIS", "word": "burglar", "wordID": 199, "conditions": [12, 800, "v", 24000], "trial": 5, "serialpos": 0, "trial_type": "single-stim", "trial_index": 185, "time_elapsed": 980898, "internal_node_id": "0.0-131.0"}}, {"uniqueid": "MTK1243:33FBRBDW6P66SLLVGI53KBSOUS18C8", "current_trial": 186, "dateTime": 1513467733583, "trialdata": {"rt": -1, "stimulus": "<p id=\"stim\">THIEF</p>", "key_press": -1, "type": "PRES_VIS", "word": "thief", "wordID": 1455, "conditions": [12, 800, "v", 24000], "trial": 5, "serialpos": 1, "trial_type": "single-stim", "trial_index": 186, "time_elapsed": 982538, "internal_node_id": "0.0-132.0"}}, {"uniqueid": "MTK1243:33FBRBDW6P66SLLVGI53KBSOUS18C8", "current_trial": 187, "dateTime": 1513467735476, "trialdata": {"rt": -1, "stimulus": "<p id=\"stim\">SUBWAY</p>", "key_press": -1, "type": "PRES_VIS", "word": "subway", "wordID": 1399, "conditions": [12, 800, "v", 24000], "trial": 5, "serialpos": 2, "trial_type": "single-stim", "trial_index": 187, "time_elapsed": 984432, "internal_node_id": "0.0-133.0"}}, {"uniqueid": "MTK1243:33FBRBDW6P66SLLVGI53KBSOUS18C8", "current_trial": 188, "dateTime": 1513467737198, "trialdata": {"rt": -1, "stimulus": "<p id=\"stim\">COD</p>", "key_press": -1, "type": "PRES_VIS", "word": "cod", "wordID": 339, "conditions": [12, 800, "v", 24000], "trial": 5, "serialpos": 3, "trial_type": "single-stim", "trial_index": 188, "time_elapsed": 986153, "internal_node_id": "0.0-134.0"}}, {"uniqueid": "MTK1243:33FBRBDW6P66SLLVGI53KBSOUS18C8", "current_trial": 189, "dateTime": 1513467738975, "trialdata": {"rt": -1, "stimulus": "<p id=\"stim\">SODA</p>", "key_press": -1, "type": "PRES_VIS", "word": "soda", "wordID": 1340, "conditions": [12, 800, "v", 24000], "trial": 5, "serialpos": 4, "trial_type": "single-stim", "trial_index": 189, "time_elapsed": 987930, "internal_node_id": "0.0-135.0"}}, {"uniqueid": "MTK1243:33FBRBDW6P66SLLVGI53KBSOUS18C8", "current_trial": 190, "dateTime": 1513467740827, "trialdata": {"rt": -1, "stimulus": "<p id=\"stim\">SCARF</p>", "key_press": -1, "type": "PRES_VIS", "word": "scarf", "wordID": 1245, "conditions": [12, 800, "v", 24000], "trial": 5, "serialpos": 5, "trial_type": "single-stim", "trial_index": 190, "time_elapsed": 989782, "internal_node_id": "0.0-136.0"}}, {"uniqueid": "MTK1243:33FBRBDW6P66SLLVGI53KBSOUS18C8", "current_trial": 191, "dateTime": 1513467742806, "trialdata": {"rt": -1, "stimulus": "<p id=\"stim\">VAGRANT</p>", "key_press": -1, "type": "PRES_VIS", "word": "vagrant", "wordID": 1543, "conditions": [12, 800, "v", 24000], "trial": 5, "serialpos": 6, "trial_type": "single-stim", "trial_index": 191, "time_elapsed": 991762, "internal_node_id": "0.0-137.0"}}, {"uniqueid": "MTK1243:33FBRBDW6P66SLLVGI53KBSOUS18C8", "current_trial": 192, "dateTime": 1513467744766, "trialdata": {"rt": -1, "stimulus": "<p id=\"stim\">BUG</p>", "key_press": -1, "type": "PRES_VIS", "word": "bug", "wordID": 186, "conditions": [12, 800, "v", 24000], "trial": 5, "serialpos": 7, "trial_type": "single-stim", "trial_index": 192, "time_elapsed": 993722, "internal_node_id": "0.0-138.0"}}, {"uniqueid": "MTK1243:33FBRBDW6P66SLLVGI53KBSOUS18C8", "current_trial": 193, "dateTime": 1513467746677, "trialdata": {"rt": -1, "stimulus": "<p id=\"stim\">MASK</p>", "key_press": -1, "type": "PRES_VIS", "word": "mask", "wordID": 875, "conditions": [12, 800, "v", 24000], "trial": 5, "serialpos": 8, "trial_type": "single-stim", "trial_index": 193, "time_elapsed": 995632, "internal_node_id": "0.0-139.0"}}, {"uniqueid": "MTK1243:33FBRBDW6P66SLLVGI53KBSOUS18C8", "current_trial": 194, "dateTime": 1513467748537, "trialdata": {"rt": -1, "stimulus": "<p id=\"stim\">ELBOW</p>", "key_press": -1, "type": "PRES_VIS", "word": "elbow", "wordID": 519, "conditions": [12, 800, "v", 24000], "trial": 5, "serialpos": 9, "trial_type": "single-stim", "trial_index": 194, "time_elapsed": 997493, "internal_node_id": "0.0-140.0"}}, {"uniqueid": "MTK1243:33FBRBDW6P66SLLVGI53KBSOUS18C8", "current_trial": 195, "dateTime": 1513467750470, "trialdata": {"rt": -1, "stimulus": "<p id=\"stim\">DRESS</p>", "key_press": -1, "type": "PRES_VIS", "word": "dress", "wordID": 494, "conditions": [12, 800, "v", 24000], "trial": 5, "serialpos": 10, "trial_type": "single-stim", "trial_index": 195, "time_elapsed": 999426, "internal_node_id": "0.0-141.0"}}, {"uniqueid": "MTK1243:33FBRBDW6P66SLLVGI53KBSOUS18C8", "current_trial": 196, "dateTime": 1513467752248, "trialdata": {"rt": -1, "stimulus": "<p id=\"stim\">RATTLE</p>", "key_press": -1, "type": "PRES_VIS", "word": "rattle", "wordID": 1169, "conditions": [12, 800, "v", 24000], "trial": 5, "serialpos": 11, "trial_type": "single-stim", "trial_index": 196, "time_elapsed": 1001204, "internal_node_id": "0.0-142.0"}}, {"uniqueid": "MTK1243:33FBRBDW6P66SLLVGI53KBSOUS18C8", "current_trial": 197, "dateTime": 1513467754456, "trialdata": {"rt": -1, "stimulus": "", "key_press": -1, "type": "PRE_RECALL_DELAY", "trial_type": "single-stim", "trial_index": 197, "time_elapsed": 1003412, "internal_node_id": "0.0-143.0-0.0"}}, {"uniqueid": "MTK1243:33FBRBDW6P66SLLVGI53KBSOUS18C8", "current_trial": 198, "dateTime": 1513467754963, "trialdata": {"rt": -1000, "stimulus": "/static/audio/400Hz.wav", "key_press": -1, "type": "PRE_RECALL_ALERT", "trial_type": "single-audio", "trial_index": 198, "time_elapsed": 1003918, "internal_node_id": "0.0-144.0"}}, {"uniqueid": "MTK1243:33FBRBDW6P66SLLVGI53KBSOUS18C8", "current_trial": 199, "dateTime": 1513467814981, "trialdata": {"rt": [5952, 7051, 8521, 13241, 16301, 18971, 43541], "recwords": ["elbow", "dress", "rattle", "soda", "theif", "mask", "coat"], "type": "FREE_RECALL", "conditions": [12, 800, "v", 24000], "trial": 5, "trial_type": "free-recall", "trial_index": 199, "time_elapsed": 1063929, "internal_node_id": "0.0-145.0-0.0"}}, {"uniqueid": "MTK1243:33FBRBDW6P66SLLVGI53KBSOUS18C8", "current_trial": 200, "dateTime": 1513467822120, "trialdata": {"rt": 5134, "key_press": 75, "type": "INSTRUCTIONS", "trial_type": "text", "trial_index": 200, "time_elapsed": 1071076, "internal_node_id": "0.0-146.0"}}, {"uniqueid": "MTK1243:33FBRBDW6P66SLLVGI53KBSOUS18C8", "current_trial": 201, "dateTime": 1513467836132, "trialdata": {"rt": [3731, 8981], "responses": ["14", "18"], "num1": [3, 7, 3], "num2": [9, 5, 2], "num3": [2, 6, 2], "type": "DISTRACTOR", "conditions": [12, 1600, "a", 12000], "trial": 6, "trial_type": "math-distractor", "trial_index": 201, "time_elapsed": 1085088, "internal_node_id": "0.0-147.0"}}, {"uniqueid": "MTK1243:33FBRBDW6P66SLLVGI53KBSOUS18C8", "current_trial": 202, "dateTime": 1513467839141, "trialdata": {"rt": -1, "stimulus": "<p id=\"stim\">10</p>", "key_press": -1, "trial_type": "single-stim", "trial_index": 202, "time_elapsed": 1088096, "internal_node_id": "0.0-148.0-0.0"}}, {"uniqueid": "MTK1243:33FBRBDW6P66SLLVGI53KBSOUS18C8", "current_trial": 203, "dateTime": 1513467840145, "trialdata": {"rt": -1, "stimulus": "<p id=\"stim\">9</p>", "key_press": -1, "trial_type": "single-stim", "trial_index": 203, "time_elapsed": 1089100, "internal_node_id": "0.0-148.0-1.0"}}, {"uniqueid": "MTK1243:33FBRBDW6P66SLLVGI53KBSOUS18C8", "current_trial": 204, "dateTime": 1513467841174, "trialdata": {"rt": -1, "stimulus": "<p id=\"stim\">8</p>", "key_press": -1, "trial_type": "single-stim", "trial_index": 204, "time_elapsed": 1090129, "internal_node_id": "0.0-148.0-2.0"}}, {"uniqueid": "MTK1243:33FBRBDW6P66SLLVGI53KBSOUS18C8", "current_trial": 205, "dateTime": 1513467842181, "trialdata": {"rt": -1, "stimulus": "<p id=\"stim\">7</p>", "key_press": -1, "trial_type": "single-stim", "trial_index": 205, "time_elapsed": 1091136, "internal_node_id": "0.0-148.0-3.0"}}, {"uniqueid": "MTK1243:33FBRBDW6P66SLLVGI53KBSOUS18C8", "current_trial": 206, "dateTime": 1513467843184, "trialdata": {"rt": -1, "stimulus": "<p id=\"stim\">6</p>", "key_press": -1, "trial_type": "single-stim", "trial_index": 206, "time_elapsed": 1092140, "internal_node_id": "0.0-148.0-4.0"}}, {"uniqueid": "MTK1243:33FBRBDW6P66SLLVGI53KBSOUS18C8", "current_trial": 207, "dateTime": 1513467844190, "trialdata": {"rt": -1, "stimulus": "<p id=\"stim\">5</p>", "key_press": -1, "trial_type": "single-stim", "trial_index": 207, "time_elapsed": 1093146, "internal_node_id": "0.0-148.0-5.0"}}, {"uniqueid": "MTK1243:33FBRBDW6P66SLLVGI53KBSOUS18C8", "current_trial": 208, "dateTime": 1513467845194, "trialdata": {"rt": -1, "stimulus": "<p id=\"stim\">4</p>", "key_press": -1, "trial_type": "single-stim", "trial_index": 208, "time_elapsed": 1094150, "internal_node_id": "0.0-148.0-6.0"}}, {"uniqueid": "MTK1243:33FBRBDW6P66SLLVGI53KBSOUS18C8", "current_trial": 209, "dateTime": 1513467846200, "trialdata": {"rt": -1, "stimulus": "<p id=\"stim\">3</p>", "key_press": -1, "trial_type": "single-stim", "trial_index": 209, "time_elapsed": 1095156, "internal_node_id": "0.0-148.0-7.0"}}, {"uniqueid": "MTK1243:33FBRBDW6P66SLLVGI53KBSOUS18C8", "current_trial": 210, "dateTime": 1513467847205, "trialdata": {"rt": -1, "stimulus": "<p id=\"stim\">2</p>", "key_press": -1, "trial_type": "single-stim", "trial_index": 210, "time_elapsed": 1096160, "internal_node_id": "0.0-148.0-8.0"}}, {"uniqueid": "MTK1243:33FBRBDW6P66SLLVGI53KBSOUS18C8", "current_trial": 211, "dateTime": 1513467848210, "trialdata": {"rt": -1, "stimulus": "<p id=\"stim\">1</p>", "key_press": -1, "trial_type": "single-stim", "trial_index": 211, "time_elapsed": 1097166, "internal_node_id": "0.0-148.0-9.0"}}, {"uniqueid": "MTK1243:33FBRBDW6P66SLLVGI53KBSOUS18C8", "current_trial": 212, "dateTime": 1513467849717, "trialdata": {"rt": -1, "stimulus": "<p id=\"stim\">+</p>", "key_press": -1, "type": "FIXATION", "trial_type": "single-stim", "trial_index": 212, "time_elapsed": 1098672, "internal_node_id": "0.0-149.0-0.0"}}, {"uniqueid": "MTK1243:33FBRBDW6P66SLLVGI53KBSOUS18C8", "current_trial": 213, "dateTime": 1513467852377, "trialdata": {"rt": -1000, "stimulus": "/static/audio/wordpool/SMOG.wav", "key_press": -1, "type": "PRES_AUD", "word": "smog", "wordID": 1329, "conditions": [12, 1600, "a", 12000], "trial": 6, "serialpos": 0, "trial_type": "single-audio", "trial_index": 213, "time_elapsed": 1101333, "internal_node_id": "0.0-150.0"}}, {"uniqueid": "MTK1243:33FBRBDW6P66SLLVGI53KBSOUS18C8", "current_trial": 214, "dateTime": 1513467855132, "trialdata": {"rt": -1000, "stimulus": "/static/audio/wordpool/ROBOT.wav", "key_press": -1, "type": "PRES_AUD", "word": "robot", "wordID": 1199, "conditions": [12, 1600, "a", 12000], "trial": 6, "serialpos": 1, "trial_type": "single-audio", "trial_index": 214, "time_elapsed": 1104088, "internal_node_id": "0.0-151.0"}}, {"uniqueid": "MTK1243:33FBRBDW6P66SLLVGI53KBSOUS18C8", "current_trial": 215, "dateTime": 1513467857588, "trialdata": {"rt": -1000, "stimulus": "/static/audio/wordpool/FIREPLACE.wav", "key_press": -1, "type": "PRES_AUD", "word": "fireplace", "wordID": 569, "conditions": [12, 1600, "a", 12000], "trial": 6, "serialpos": 2, "trial_type": "single-audio", "trial_index": 215, "time_elapsed": 1106543, "internal_node_id": "0.0-152.0"}}, {"uniqueid": "MTK1243:33FBRBDW6P66SLLVGI53KBSOUS18C8", "current_trial": 216, "dateTime": 1513467860064, "trialdata": {"rt": -1000, "stimulus": "/static/audio/wordpool/TWISTER.wav", "key_press": -1, "type": "PRES_AUD", "word": "twister", "wordID": 1529, "conditions": [12, 1600, "a", 12000], "trial": 6, "serialpos": 3, "trial_type": "single-audio", "trial_index": 216, "time_elapsed": 1109019, "internal_node_id": "0.0-153.0"}}, {"uniqueid": "MTK1243:33FBRBDW6P66SLLVGI53KBSOUS18C8", "current_trial": 217, "dateTime": 1513467862518, "trialdata": {"rt": -1000, "stimulus": "/static/audio/wordpool/PATIENT.wav", "key_press": -1, "type": "PRES_AUD", "word": "patient", "wordID": 1023, "conditions": [12, 1600, "a", 12000], "trial": 6, "serialpos": 4, "trial_type": "single-audio", "trial_index": 217, "time_elapsed": 1111474, "internal_node_id": "0.0-154.0"}}, {"uniqueid": "MTK1243:33FBRBDW6P66SLLVGI53KBSOUS18C8", "current_trial": 218, "dateTime": 1513467865040, "trialdata": {"rt": -1000, "stimulus": "/static/audio/wordpool/NURSE.wav", "key_press": -1, "type": "PRES_AUD", "word": "nurse", "wordID": 962, "conditions": [12, 1600, "a", 12000], "trial": 6, "serialpos": 5, "trial_type": "single-audio", "trial_index": 218, "time_elapsed": 1113996, "internal_node_id": "0.0-155.0"}}, {"uniqueid": "MTK1243:33FBRBDW6P66SLLVGI53KBSOUS18C8", "current_trial": 219, "dateTime": 1513467867610, "trialdata": {"rt": -1000, "stimulus": "/static/audio/wordpool/SCALPEL.wav", "key_press": -1, "type": "PRES_AUD", "word": "scalpel", "wordID": 1242, "conditions": [12, 1600, "a", 12000], "trial": 6, "serialpos": 6, "trial_type": "single-audio", "trial_index": 219, "time_elapsed": 1116566, "internal_node_id": "0.0-156.0"}}, {"uniqueid": "MTK1243:33FBRBDW6P66SLLVGI53KBSOUS18C8", "current_trial": 220, "dateTime": 1513467870240, "trialdata": {"rt": -1000, "stimulus": "/static/audio/wordpool/RADISH.wav", "key_press": -1, "type": "PRES_AUD", "word": "radish", "wordID": 1157, "conditions": [12, 1600, "a", 12000], "trial": 6, "serialpos": 7, "trial_type": "single-audio", "trial_index": 220, "time_elapsed": 1119195, "internal_node_id": "0.0-157.0"}}, {"uniqueid": "MTK1243:33FBRBDW6P66SLLVGI53KBSOUS18C8", "current_trial": 221, "dateTime": 1513467872759, "trialdata": {"rt": -1000, "stimulus": "/static/audio/wordpool/PANTHER.wav", "key_press": -1, "type": "PRES_AUD", "word": "panther", "wordID": 1008, "conditions": [12, 1600, "a", 12000], "trial": 6, "serialpos": 8, "trial_type": "single-audio", "trial_index": 221, "time_elapsed": 1121715, "internal_node_id": "0.0-158.0"}}, {"uniqueid": "MTK1243:33FBRBDW6P66SLLVGI53KBSOUS18C8", "current_trial": 222, "dateTime": 1513467875233, "trialdata": {"rt": -1000, "stimulus": "/static/audio/wordpool/CAMEL.wav", "key_press": -1, "type": "PRES_AUD", "word": "camel", "wordID": 222, "conditions": [12, 1600, "a", 12000], "trial": 6, "serialpos": 9, "trial_type": "single-audio", "trial_index": 222, "time_elapsed": 1124189, "internal_node_id": "0.0-159.0"}}, {"uniqueid": "MTK1243:33FBRBDW6P66SLLVGI53KBSOUS18C8", "current_trial": 223, "dateTime": 1513467877661, "trialdata": {"rt": -1000, "stimulus": "/static/audio/wordpool/TURKEY.wav", "key_press": -1, "type": "PRES_AUD", "word": "turkey", "wordID": 1519, "conditions": [12, 1600, "a", 12000], "trial": 6, "serialpos": 10, "trial_type": "single-audio", "trial_index": 223, "time_elapsed": 1126617, "internal_node_id": "0.0-160.0"}}, {"uniqueid": "MTK1243:33FBRBDW6P66SLLVGI53KBSOUS18C8", "current_trial": 224, "dateTime": 1513467880230, "trialdata": {"rt": -1000, "stimulus": "/static/audio/wordpool/SCISSORS.wav", "key_press": -1, "type": "PRES_AUD", "word": "scissors", "wordID": 1249, "conditions": [12, 1600, "a", 12000], "trial": 6, "serialpos": 11, "trial_type": "single-audio", "trial_index": 224, "time_elapsed": 1129186, "internal_node_id": "0.0-161.0"}}, {"uniqueid": "MTK1243:33FBRBDW6P66SLLVGI53KBSOUS18C8", "current_trial": 225, "dateTime": 1513467881626, "trialdata": {"rt": -1, "stimulus": "", "key_press": -1, "type": "PRE_RECALL_DELAY", "trial_type": "single-stim", "trial_index": 225, "time_elapsed": 1130581, "internal_node_id": "0.0-162.0-0.0"}}, {"uniqueid": "MTK1243:33FBRBDW6P66SLLVGI53KBSOUS18C8", "current_trial": 226, "dateTime": 1513467882131, "trialdata": {"rt": -1000, "stimulus": "/static/audio/400Hz.wav", "key_press": -1, "type": "PRE_RECALL_ALERT", "trial_type": "single-audio", "trial_index": 226, "time_elapsed": 1131087, "internal_node_id": "0.0-163.0"}}, {"uniqueid": "MTK1243:33FBRBDW6P66SLLVGI53KBSOUS18C8", "current_trial": 227, "dateTime": 1513467942150, "trialdata": {"rt": [2996, 4996, 19496, 23206, 26257, 29527, 44589], "recwords": ["camel", "turkey", "scissors", "radish", "robot", "patient", "scalpel"], "type": "FREE_RECALL", "conditions": [12, 1600, "a", 12000], "trial": 6, "trial_type": "free-recall", "trial_index": 227, "time_elapsed": 1191097, "internal_node_id": "0.0-164.0-0.0"}}, {"uniqueid": "MTK1243:33FBRBDW6P66SLLVGI53KBSOUS18C8", "current_trial": 228, "dateTime": 1513467949865, "trialdata": {"rt": 5712, "key_press": 76, "type": "INSTRUCTIONS", "trial_type": "text", "trial_index": 228, "time_elapsed": 1198821, "internal_node_id": "0.0-165.0"}}, {"uniqueid": "MTK1243:33FBRBDW6P66SLLVGI53KBSOUS18C8", "current_trial": 229, "dateTime": 1513467975880, "trialdata": {"rt": [5108, 8098, 13037, 15717, 17757], "responses": ["15", "14", "12", "10", "14"], "num1": [2, 4, 2, 3, 5, 9], "num2": [6, 2, 3, 6, 5, 6], "num3": [7, 8, 7, 1, 4, 6], "type": "DISTRACTOR", "conditions": [24, 1600, "v", 24000], "trial": 7, "trial_type": "math-distractor", "trial_index": 229, "time_elapsed": 1224836, "internal_node_id": "0.0-166.0"}}, {"uniqueid": "MTK1243:33FBRBDW6P66SLLVGI53KBSOUS18C8", "current_trial": 230, "dateTime": 1513467978885, "trialdata": {"rt": -1, "stimulus": "<p id=\"stim\">10</p>", "key_press": -1, "trial_type": "single-stim", "trial_index": 230, "time_elapsed": 1227841, "internal_node_id": "0.0-167.0-0.0"}}, {"uniqueid": "MTK1243:33FBRBDW6P66SLLVGI53KBSOUS18C8", "current_trial": 231, "dateTime": 1513467979891, "trialdata": {"rt": -1, "stimulus": "<p id=\"stim\">9</p>", "key_press": -1, "trial_type": "single-stim", "trial_index": 231, "time_elapsed": 1228846, "internal_node_id": "0.0-167.0-1.0"}}, {"uniqueid": "MTK1243:33FBRBDW6P66SLLVGI53KBSOUS18C8", "current_trial": 232, "dateTime": 1513467980896, "trialdata": {"rt": -1, "stimulus": "<p id=\"stim\">8</p>", "key_press": -1, "trial_type": "single-stim", "trial_index": 232, "time_elapsed": 1229851, "internal_node_id": "0.0-167.0-2.0"}}, {"uniqueid": "MTK1243:33FBRBDW6P66SLLVGI53KBSOUS18C8", "current_trial": 233, "dateTime": 1513467981899, "trialdata": {"rt": -1, "stimulus": "<p id=\"stim\">7</p>", "key_press": -1, "trial_type": "single-stim", "trial_index": 233, "time_elapsed": 1230855, "internal_node_id": "0.0-167.0-3.0"}}, {"uniqueid": "MTK1243:33FBRBDW6P66SLLVGI53KBSOUS18C8", "current_trial": 234, "dateTime": 1513467982904, "trialdata": {"rt": -1, "stimulus": "<p id=\"stim\">6</p>", "key_press": -1, "trial_type": "single-stim", "trial_index": 234, "time_elapsed": 1231860, "internal_node_id": "0.0-167.0-4.0"}}, {"uniqueid": "MTK1243:33FBRBDW6P66SLLVGI53KBSOUS18C8", "current_trial": 235, "dateTime": 1513467983908, "trialdata": {"rt": -1, "stimulus": "<p id=\"stim\">5</p>", "key_press": -1, "trial_type": "single-stim", "trial_index": 235, "time_elapsed": 1232864, "internal_node_id": "0.0-167.0-5.0"}}, {"uniqueid": "MTK1243:33FBRBDW6P66SLLVGI53KBSOUS18C8", "current_trial": 236, "dateTime": 1513467984911, "trialdata": {"rt": -1, "stimulus": "<p id=\"stim\">4</p>", "key_press": -1, "trial_type": "single-stim", "trial_index": 236, "time_elapsed": 1233867, "internal_node_id": "0.0-167.0-6.0"}}, {"uniqueid": "MTK1243:33FBRBDW6P66SLLVGI53KBSOUS18C8", "current_trial": 237, "dateTime": 1513467985913, "trialdata": {"rt": -1, "stimulus": "<p id=\"stim\">3</p>", "key_press": -1, "trial_type": "single-stim", "trial_index": 237, "time_elapsed": 1234868, "internal_node_id": "0.0-167.0-7.0"}}, {"uniqueid": "MTK1243:33FBRBDW6P66SLLVGI53KBSOUS18C8", "current_trial": 238, "dateTime": 1513467986916, "trialdata": {"rt": -1, "stimulus": "<p id=\"stim\">2</p>", "key_press": -1, "trial_type": "single-stim", "trial_index": 238, "time_elapsed": 1235871, "internal_node_id": "0.0-167.0-8.0"}}, {"uniqueid": "MTK1243:33FBRBDW6P66SLLVGI53KBSOUS18C8", "current_trial": 239, "dateTime": 1513467987922, "trialdata": {"rt": -1, "stimulus": "<p id=\"stim\">1</p>", "key_press": -1, "trial_type": "single-stim", "trial_index": 239, "time_elapsed": 1236878, "internal_node_id": "0.0-167.0-9.0"}}, {"uniqueid": "MTK1243:33FBRBDW6P66SLLVGI53KBSOUS18C8", "current_trial": 240, "dateTime": 1513467989428, "trialdata": {"rt": -1, "stimulus": "<p id=\"stim\">+</p>", "key_press": -1, "type": "FIXATION", "trial_type": "single-stim", "trial_index": 240, "time_elapsed": 1238384, "internal_node_id": "0.0-168.0-0.0"}}, {"uniqueid": "MTK1243:33FBRBDW6P66SLLVGI53KBSOUS18C8", "current_trial": 241, "dateTime": 1513467991033, "trialdata": {"rt": -1, "stimulus": "<p id=\"stim\">JELLY</p>", "key_press": -1, "type": "PRES_VIS", "word": "jelly", "wordID": 754, "conditions": [24, 1600, "v", 24000], "trial": 7, "serialpos": 0, "trial_type": "single-stim", "trial_index": 241, "time_elapsed": 1239989, "internal_node_id": "0.0-169.0"}}, {"uniqueid": "MTK1243:33FBRBDW6P66SLLVGI53KBSOUS18C8", "current_trial": 242, "dateTime": 1513467993833, "trialdata": {"rt": -1, "stimulus": "<p id=\"stim\">MARINE</p>", "key_press": -1, "type": "PRES_VIS", "word": "marine", "wordID": 868, "conditions": [24, 1600, "v", 24000], "trial": 7, "serialpos": 1, "trial_type": "single-stim", "trial_index": 242, "time_elapsed": 1242789, "internal_node_id": "0.0-170.0"}}, {"uniqueid": "MTK1243:33FBRBDW6P66SLLVGI53KBSOUS18C8", "current_trial": 243, "dateTime": 1513467996603, "trialdata": {"rt": -1, "stimulus": "<p id=\"stim\">HATCHET</p>", "key_press": -1, "type": "PRES_VIS", "word": "hatchet", "wordID": 690, "conditions": [24, 1600, "v", 24000], "trial": 7, "serialpos": 2, "trial_type": "single-stim", "trial_index": 243, "time_elapsed": 1245559, "internal_node_id": "0.0-171.0"}}, {"uniqueid": "MTK1243:33FBRBDW6P66SLLVGI53KBSOUS18C8", "current_trial": 244, "dateTime": 1513467999107, "trialdata": {"rt": -1, "stimulus": "<p id=\"stim\">WAITER</p>", "key_press": -1, "type": "PRES_VIS", "word": "waiter", "wordID": 1579, "conditions": [24, 1600, "v", 24000], "trial": 7, "serialpos": 3, "trial_type": "single-stim", "trial_index": 244, "time_elapsed": 1248063, "internal_node_id": "0.0-172.0"}}, {"uniqueid": "MTK1243:33FBRBDW6P66SLLVGI53KBSOUS18C8", "current_trial": 245, "dateTime": 1513468001620, "trialdata": {"rt": -1, "stimulus": "<p id=\"stim\">COTTAGE</p>", "key_press": -1, "type": "PRES_VIS", "word": "cottage", "wordID": 383, "conditions": [24, 1600, "v", 24000], "trial": 7, "serialpos": 4, "trial_type": "single-stim", "trial_index": 245, "time_elapsed": 1250576, "internal_node_id": "0.0-173.0"}}, {"uniqueid": "MTK1243:33FBRBDW6P66SLLVGI53KBSOUS18C8", "current_trial": 246, "dateTime": 1513468004164, "trialdata": {"rt": -1, "stimulus": "<p id=\"stim\">OX</p>", "key_press": -1, "type": "PRES_VIS", "word": "ox", "wordID": 993, "conditions": [24, 1600, "v", 24000], "trial": 7, "serialpos": 5, "trial_type": "single-stim", "trial_index": 246, "time_elapsed": 1253119, "internal_node_id": "0.0-174.0"}}, {"uniqueid": "MTK1243:33FBRBDW6P66SLLVGI53KBSOUS18C8", "current_trial": 247, "dateTime": 1513468006643, "trialdata": {"rt": -1, "stimulus": "<p id=\"stim\">SLUG</p>", "key_press": -1, "type": "PRES_VIS", "word": "slug", "wordID": 1328, "conditions": [24, 1600, "v", 24000], "trial": 7, "serialpos": 6, "trial_type": "single-stim", "trial_index": 247, "time_elapsed": 1255598, "internal_node_id": "0.0-175.0"}}, {"uniqueid": "MTK1243:33FBRBDW6P66SLLVGI53KBSOUS18C8", "current_trial": 248, "dateTime": 1513468009370, "trialdata": {"rt": -1, "stimulus": "<p id=\"stim\">WAITRESS</p>", "key_press": -1, "type": "PRES_VIS", "word": "waitress", "wordID": 1580, "conditions": [24, 1600, "v", 24000], "trial": 7, "serialpos": 7, "trial_type": "single-stim", "trial_index": 248, "time_elapsed": 1258325, "internal_node_id": "0.0-176.0"}}, {"uniqueid": "MTK1243:33FBRBDW6P66SLLVGI53KBSOUS18C8", "current_trial": 249, "dateTime": 1513468012062, "trialdata": {"rt": -1, "stimulus": "<p id=\"stim\">ROD</p>", "key_press": -1, "type": "PRES_VIS", "word": "rod", "wordID": 1202, "conditions": [24, 1600, "v", 24000], "trial": 7, "serialpos": 8, "trial_type": "single-stim", "trial_index": 249, "time_elapsed": 1261017, "internal_node_id": "0.0-177.0"}}, {"uniqueid": "MTK1243:33FBRBDW6P66SLLVGI53KBSOUS18C8", "current_trial": 250, "dateTime": 1513468014677, "trialdata": {"rt": -1, "stimulus": "<p id=\"stim\">SPOOL</p>", "key_press": -1, "type": "PRES_VIS", "word": "spool", "wordID": 1355, "conditions": [24, 1600, "v", 24000], "trial": 7, "serialpos": 9, "trial_type": "single-stim", "trial_index": 250, "time_elapsed": 1263633, "internal_node_id": "0.0-178.0"}}, {"uniqueid": "MTK1243:33FBRBDW6P66SLLVGI53KBSOUS18C8", "current_trial": 251, "dateTime": 1513468017221, "trialdata": {"rt": -1, "stimulus": "<p id=\"stim\">PEACH</p>", "key_press": -1, "type": "PRES_VIS", "word": "peach", "wordID": 1030, "conditions": [24, 1600, "v", 24000], "trial": 7, "serialpos": 10, "trial_type": "single-stim", "trial_index": 251, "time_elapsed": 1266177, "internal_node_id": "0.0-179.0"}}, {"uniqueid": "MTK1243:33FBRBDW6P66SLLVGI53KBSOUS18C8", "current_trial": 252, "dateTime": 1513468019895, "trialdata": {"rt": -1, "stimulus": "<p id=\"stim\">JURY</p>", "key_press": -1, "type": "PRES_VIS", "word": "jury", "wordID": 765, "conditions": [24, 1600, "v", 24000], "trial": 7, "serialpos": 11, "trial_type": "single-stim", "trial_index": 252, "time_elapsed": 1268851, "internal_node_id": "0.0-180.0"}}, {"uniqueid": "MTK1243:33FBRBDW6P66SLLVGI53KBSOUS18C8", "current_trial": 253, "dateTime": 1513468022359, "trialdata": {"rt": -1, "stimulus": "<p id=\"stim\">SISTER</p>", "key_press": -1, "type": "PRES_VIS", "word": "sister", "wordID": 1311, "conditions": [24, 1600, "v", 24000], "trial": 7, "serialpos": 12, "trial_type": "single-stim", "trial_index": 253, "time_elapsed": 1271315, "internal_node_id": "0.0-181.0"}}, {"uniqueid": "MTK1243:33FBRBDW6P66SLLVGI53KBSOUS18C8", "current_trial": 254, "dateTime": 1513468025095, "trialdata": {"rt": -1, "stimulus": "<p id=\"stim\">CRATER</p>", "key_press": -1, "type": "PRES_VIS", "word": "crater", "wordID": 399, "conditions": [24, 1600, "v", 24000], "trial": 7, "serialpos": 13, "trial_type": "single-stim", "trial_index": 254, "time_elapsed": 1274051, "internal_node_id": "0.0-182.0"}}, {"uniqueid": "MTK1243:33FBRBDW6P66SLLVGI53KBSOUS18C8", "current_trial": 255, "dateTime": 1513468027835, "trialdata": {"rt": -1, "stimulus": "<p id=\"stim\">KNAPSACK</p>", "key_press": -1, "type": "PRES_VIS", "word": "knapsack", "wordID": 782, "conditions": [24, 1600, "v", 24000], "trial": 7, "serialpos": 14, "trial_type": "single-stim", "trial_index": 255, "time_elapsed": 1276785, "internal_node_id": "0.0-183.0"}}, {"uniqueid": "MTK1243:33FBRBDW6P66SLLVGI53KBSOUS18C8", "current_trial": 256, "dateTime": 1513468030521, "trialdata": {"rt": -1, "stimulus": "<p id=\"stim\">PAPER</p>", "key_press": -1, "type": "PRES_VIS", "word": "paper", "wordID": 1010, "conditions": [24, 1600, "v", 24000], "trial": 7, "serialpos": 15, "trial_type": "single-stim", "trial_index": 256, "time_elapsed": 1279477, "internal_node_id": "0.0-184.0"}}, {"uniqueid": "MTK1243:33FBRBDW6P66SLLVGI53KBSOUS18C8", "current_trial": 257, "dateTime": 1513468032999, "trialdata": {"rt": -1, "stimulus": "<p id=\"stim\">TOMBSTONE</p>", "key_press": -1, "type": "PRES_VIS", "word": "tombstone", "wordID": 1477, "conditions": [24, 1600, "v", 24000], "trial": 7, "serialpos": 16, "trial_type": "single-stim", "trial_index": 257, "time_elapsed": 1281954, "internal_node_id": "0.0-185.0"}}, {"uniqueid": "MTK1243:33FBRBDW6P66SLLVGI53KBSOUS18C8", "current_trial": 258, "dateTime": 1513468035620, "trialdata": {"rt": -1, "stimulus": "<p id=\"stim\">STATUE</p>", "key_press": -1, "type": "PRES_VIS", "word": "statue", "wordID": 1373, "conditions": [24, 1600, "v", 24000], "trial": 7, "serialpos": 17, "trial_type": "single-stim", "trial_index": 258, "time_elapsed": 1284575, "internal_node_id": "0.0-186.0"}}, {"uniqueid": "MTK1243:33FBRBDW6P66SLLVGI53KBSOUS18C8", "current_trial": 259, "dateTime": 1513468038065, "trialdata": {"rt": -1, "stimulus": "<p id=\"stim\">TERMITE</p>", "key_press": -1, "type": "PRES_VIS", "word": "termite", "wordID": 1450, "conditions": [24, 1600, "v", 24000], "trial": 7, "serialpos": 18, "trial_type": "single-stim", "trial_index": 259, "time_elapsed": 1287020, "internal_node_id": "0.0-187.0"}}, {"uniqueid": "MTK1243:33FBRBDW6P66SLLVGI53KBSOUS18C8", "current_trial": 260, "dateTime": 1513468040785, "trialdata": {"rt": -1, "stimulus": "<p id=\"stim\">BROTHER</p>", "key_press": -1, "type": "PRES_VIS", "word": "brother", "wordID": 178, "conditions": [24, 1600, "v", 24000], "trial": 7, "serialpos": 19, "trial_type": "single-stim", "trial_index": 260, "time_elapsed": 1289741, "internal_node_id": "0.0-188.0"}}, {"uniqueid": "MTK1243:33FBRBDW6P66SLLVGI53KBSOUS18C8", "current_trial": 261, "dateTime": 1513468043257, "trialdata": {"rt": -1, "stimulus": "<p id=\"stim\">BADGE</p>", "key_press": -1, "type": "PRES_VIS", "word": "badge", "wordID": 67, "conditions": [24, 1600, "v", 24000], "trial": 7, "serialpos": 20, "trial_type": "single-stim", "trial_index": 261, "time_elapsed": 1292213, "internal_node_id": "0.0-189.0"}}, {"uniqueid": "MTK1243:33FBRBDW6P66SLLVGI53KBSOUS18C8", "current_trial": 262, "dateTime": 1513468045995, "trialdata": {"rt": -1, "stimulus": "<p id=\"stim\">CLOUD</p>", "key_press": -1, "type": "PRES_VIS", "word": "cloud", "wordID": 327, "conditions": [24, 1600, "v", 24000], "trial": 7, "serialpos": 21, "trial_type": "single-stim", "trial_index": 262, "time_elapsed": 1294951, "internal_node_id": "0.0-190.0"}}, {"uniqueid": "MTK1243:33FBRBDW6P66SLLVGI53KBSOUS18C8", "current_trial": 263, "dateTime": 1513468048411, "trialdata": {"rt": -1, "stimulus": "<p id=\"stim\">HUSBAND</p>", "key_press": -1, "type": "PRES_VIS", "word": "husband", "wordID": 727, "conditions": [24, 1600, "v", 24000], "trial": 7, "serialpos": 22, "trial_type": "single-stim", "trial_index": 263, "time_elapsed": 1297367, "internal_node_id": "0.0-191.0"}}, {"uniqueid": "MTK1243:33FBRBDW6P66SLLVGI53KBSOUS18C8", "current_trial": 264, "dateTime": 1513468051006, "trialdata": {"rt": -1, "stimulus": "<p id=\"stim\">GALLON</p>", "key_press": -1, "type": "PRES_VIS", "word": "gallon", "wordID": 617, "conditions": [24, 1600, "v", 24000], "trial": 7, "serialpos": 23, "trial_type": "single-stim", "trial_index": 264, "time_elapsed": 1299962, "internal_node_id": "0.0-192.0"}}, {"uniqueid": "MTK1243:33FBRBDW6P66SLLVGI53KBSOUS18C8", "current_trial": 265, "dateTime": 1513468053146, "trialdata": {"rt": -1, "stimulus": "", "key_press": -1, "type": "PRE_RECALL_DELAY", "trial_type": "single-stim", "trial_index": 265, "time_elapsed": 1302102, "internal_node_id": "0.0-193.0-0.0"}}, {"uniqueid": "MTK1243:33FBRBDW6P66SLLVGI53KBSOUS18C8", "current_trial": 266, "dateTime": 1513468053649, "trialdata": {"rt": -1000, "stimulus": "/static/audio/400Hz.wav", "key_press": -1, "type": "PRE_RECALL_ALERT", "trial_type": "single-audio", "trial_index": 266, "time_elapsed": 1302604, "internal_node_id": "0.0-194.0"}}, {"uniqueid": "MTK1243:33FBRBDW6P66SLLVGI53KBSOUS18C8", "current_trial": 267, "dateTime": 1513468113667, "trialdata": {"rt": [4115, 6135, 9056, 13815, 20195, 23265, 26735, 35256], "recwords": ["gallon", "husband", "slug", "waiter", "crater", "sister", "jelly", "knapsackk"], "type": "FREE_RECALL", "conditions": [24, 1600, "v", 24000], "trial": 7, "trial_type": "free-recall", "trial_index": 267, "time_elapsed": 1362613, "internal_node_id": "0.0-195.0-0.0"}}, {"uniqueid": "MTK1243:33FBRBDW6P66SLLVGI53KBSOUS18C8", "current_trial": 268, "dateTime": 1513468125471, "trialdata": {"rt": 9798, "key_press": 75, "type": "INSTRUCTIONS", "trial_type": "text", "trial_index": 268, "time_elapsed": 1374426, "internal_node_id": "0.0-196.0"}}, {"uniqueid": "MTK1243:33FBRBDW6P66SLLVGI53KBSOUS18C8", "current_trial": 269, "dateTime": 1513468151481, "trialdata": {"rt": [2932, 8462, 13984, 18603, 21583], "responses": ["16", "16", "19", "14", "8"], "num1": [7, 7, 5, 6, 4, 2], "num2": [7, 5, 8, 1, 3, 9], "num3": [2, 4, 6, 7, 1, 3], "type": "DISTRACTOR", "conditions": [12, 1600, "a", 24000], "trial": 8, "trial_type": "math-distractor", "trial_index": 269, "time_elapsed": 1400436, "internal_node_id": "0.0-197.0"}}, {"uniqueid": "MTK1243:33FBRBDW6P66SLLVGI53KBSOUS18C8", "current_trial": 270, "dateTime": 1513468154487, "trialdata": {"rt": -1, "stimulus": "<p id=\"stim\">10</p>", "key_press": -1, "trial_type": "single-stim", "trial_index": 270, "time_elapsed": 1403442, "internal_node_id": "0.0-198.0-0.0"}}, {"uniqueid": "MTK1243:33FBRBDW6P66SLLVGI53KBSOUS18C8", "current_trial": 271, "dateTime": 1513468155490, "trialdata": {"rt": -1, "stimulus": "<p id=\"stim\">9</p>", "key_press": -1, "trial_type": "single-stim", "trial_index": 271, "time_elapsed": 1404446, "internal_node_id": "0.0-198.0-1.0"}}, {"uniqueid": "MTK1243:33FBRBDW6P66SLLVGI53KBSOUS18C8", "current_trial": 272, "dateTime": 1513468156493, "trialdata": {"rt": -1, "stimulus": "<p id=\"stim\">8</p>", "key_press": -1, "trial_type": "single-stim", "trial_index": 272, "time_elapsed": 1405448, "internal_node_id": "0.0-198.0-2.0"}}, {"uniqueid": "MTK1243:33FBRBDW6P66SLLVGI53KBSOUS18C8", "current_trial": 273, "dateTime": 1513468157498, "trialdata": {"rt": -1, "stimulus": "<p id=\"stim\">7</p>", "key_press": -1, "trial_type": "single-stim", "trial_index": 273, "time_elapsed": 1406453, "internal_node_id": "0.0-198.0-3.0"}}, {"uniqueid": "MTK1243:33FBRBDW6P66SLLVGI53KBSOUS18C8", "current_trial": 274, "dateTime": 1513468158502, "trialdata": {"rt": -1, "stimulus": "<p id=\"stim\">6</p>", "key_press": -1, "trial_type": "single-stim", "trial_index": 274, "time_elapsed": 1407458, "internal_node_id": "0.0-198.0-4.0"}}, {"uniqueid": "MTK1243:33FBRBDW6P66SLLVGI53KBSOUS18C8", "current_trial": 275, "dateTime": 1513468159513, "trialdata": {"rt": -1, "stimulus": "<p id=\"stim\">5</p>", "key_press": -1, "