{"assignmentId": "3QJOXOW4XKY0A87D6ALHFHTM1HXEM7", "workerId": "MTK1472", "questiondata": {"origin": "United States", "strat-rehearsal": "68", "marital": "Married/Domestic Partnership", "education": "Some college", "ethnicity": "Not Hispanic", "color_depth": 24, "distracted": "No", "wrote-notes": "No", "strat-other": "I said each word loudly, then grouped words together that fit and said them all together in a long string aloud.", "screen_width": 1366, "avail_screen_width": 1366, "avail_screen_height": 768, "strat-image": "89", "language": "English", "gender": "Female", "age": "36", "gender_other": "", "race": ["White"], "strat-categorize": "100", "pixel_depth": 24, "strat-spatial": "0", "strat-story": "58", "race_other": "", "screen_height": 768}, "bonus": 0, "hitId": "3N7PQ0KLI5WX1219AQB0UYOWKOZ3E3", "counterbalance": 2645, "useragent": "Mozilla/5.0 (X11; CrOS x86_64 10032.86.0) AppleWebKit/537.36 (KHTML, like Gecko) Chrome/63.0.3239.140 Safari/537.36", "eventdata": [{"eventtype": "initialized", "interval": 0, "value": null, "timestamp": 1515897475172}, {"eventtype": "window_resize", "interval": 1, "value": [1366, 696], "timestamp": 1515897475173}, {"eventtype": "focus", "interval": 2249966, "value": "off", "timestamp": 1515899725139}, {"eventtype": "focus", "interval": 2073, "value": "on", "timestamp": 1515899727212}], "data": [{"current_trial": 0, "trialdata": {"rt": 2973, "trial_type": "text", "internal_node_id": "0.0-0.0", "time_elapsed": 2980, "key_press": 32, "type": "INSTRUCTIONS", "trial_index": 0}, "uniqueid": "MTK1472:3QJOXOW4XKY0A87D6ALHFHTM1HXEM7", "dateTime": 1515897478729}, {"current_trial": 1, "trialdata": {"rt": 47039, "trial_type": "text", "internal_node_id": "0.0-1.0", "time_elapsed": 50028, "key_press": 32, "type": "INSTRUCTIONS", "trial_index": 1}, "uniqueid": "MTK1472:3QJOXOW4XKY0A87D6ALHFHTM1HXEM7", "dateTime": 1515897525776}, {"current_trial": 2, "trialdata": {"rt": [30192], "trial_type": "audio-test", "responses": ["ocean"], "internal_node_id": "0.0-2.0", "time_elapsed": 80282, "type": "AUDIO_TEST", "trial_index": 2}, "uniqueid": "MTK1472:3QJOXOW4XKY0A87D6ALHFHTM1HXEM7", "dateTime": 1515897556030}, {"current_trial": 3, "trialdata": {"rt": [11009], "trial_type": "audio-test", "responses": ["crystal"], "internal_node_id": "0.0-3.0", "time_elapsed": 91304, "type": "AUDIO_TEST", "trial_index": 3}, "uniqueid": "MTK1472:3QJOXOW4XKY0A87D6ALHFHTM1HXEM7", "dateTime": 1515897567051}, {"current_trial": 4, "trialdata": {"rt": [19214], "trial_type": "audio-test", "responses": ["spice"], "internal_node_id": "0.0-4.0", "time_elapsed": 110529, "type": "AUDIO_TEST", "trial_index": 4}, "uniqueid": "MTK1472:3QJOXOW4XKY0A87D6ALHFHTM1HXEM7", "dateTime": 1515897586277}, {"current_trial": 5, "trialdata": {"rt": 50738, "trial_type": "survey-text", "responses": "{\"Q0\":\"3:00 am\",\"Q1\":\"9:00 am\",\"Q2\":\"4\"}", "internal_node_id": "0.0-5.0", "time_elapsed": 162034, "type": "SLEEP_SURVEY", "trial_index": 5}, "uniqueid": "MTK1472:3QJOXOW4XKY0A87D6ALHFHTM1HXEM7", "dateTime": 1515897637782}, {"current_trial": 6, "trialdata": {"rt": 59396, "trial_type": "text", "internal_node_id": "0.0-6.0", "time_elapsed": 222436, "key_press": 32, "type": "INSTRUCTIONS", "trial_index": 6}, "uniqueid": "MTK1472:3QJOXOW4XKY0A87D6ALHFHTM1HXEM7", "dateTime": 1515897698184}, {"current_trial": 7, "trialdata": {"rt": 27229, "trial_type": "text", "internal_node_id": "0.0-7.0", "time_elapsed": 250169, "key_press": 68, "type": "INSTRUCTIONS", "trial_index": 7}, "uniqueid": "MTK1472:3QJOXOW4XKY0A87D6ALHFHTM1HXEM7", "dateTime": 1515897725916}, {"current_trial": 8, "trialdata": {"rt": 10907, "trial_type": "text", "internal_node_id": "0.0-8.0", "time_elapsed": 261581, "key_press": 68, "type": "INSTRUCTIONS", "trial_index": 8}, "uniqueid": "MTK1472:3QJOXOW4XKY0A87D6ALHFHTM1HXEM7", "dateTime": 1515897737329}, {"current_trial": 9, "trialdata": {"rt": [5152, 9748, 16925], "trial_type": "math-distractor", "key_times": [3742, 4224, 5152, 8969, 9187, 9748, 15846, 16118, 16925], "responses": ["14", "21", "27"], "num2": [5, 9, 9, 8], "num3": [1, 7, 9, 1], "conditions": [18, 1200, "v", 18000], "internal_node_id": "0.0-9.0", "key_presses": [49, 52, 13, 50, 49, 13, 50, 55, 13], "trial": 0, "time_elapsed": 280614, "type": "DISTRACTOR", "trial_index": 9, "num1": [8, 5, 9, 4]}, "uniqueid": "MTK1472:3QJOXOW4XKY0A87D6ALHFHTM1HXEM7", "dateTime": 1515897756361}, {"current_trial": 10, "trialdata": {"rt": -1, "trial_type": "single-stim", "stimulus": "<p id=\"stim\">10</p>", "internal_node_id": "0.0-10.0-0.0", "time_elapsed": 283621, "key_press": -1, "trial_index": 10}, "uniqueid": "MTK1472:3QJOXOW4XKY0A87D6ALHFHTM1HXEM7", "dateTime": 1515897759368}, {"current_trial": 11, "trialdata": {"rt": -1, "trial_type": "single-stim", "stimulus": "<p id=\"stim\">9</p>", "internal_node_id": "0.0-10.0-1.0", "time_elapsed": 284625, "key_press": -1, "trial_index": 11}, "uniqueid": "MTK1472:3QJOXOW4XKY0A87D6ALHFHTM1HXEM7", "dateTime": 1515897760372}, {"current_trial": 12, "trialdata": {"rt": -1, "trial_type": "single-stim", "stimulus": "<p id=\"stim\">8</p>", "internal_node_id": "0.0-10.0-2.0", "time_elapsed": 285628, "key_press": -1, "trial_index": 12}, "uniqueid": "MTK1472:3QJOXOW4XKY0A87D6ALHFHTM1HXEM7", "dateTime": 1515897761375}, {"current_trial": 13, "trialdata": {"rt": -1, "trial_type": "single-stim", "stimulus": "<p id=\"stim\">7</p>", "internal_node_id": "0.0-10.0-3.0", "time_elapsed": 286632, "key_press": -1, "trial_index": 13}, "uniqueid": "MTK1472:3QJOXOW4XKY0A87D6ALHFHTM1HXEM7", "dateTime": 1515897762379}, {"current_trial": 14, "trialdata": {"rt": -1, "trial_type": "single-stim", "stimulus": "<p id=\"stim\">6</p>", "internal_node_id": "0.0-10.0-4.0", "time_elapsed": 287641, "key_press": -1, "trial_index": 14}, "uniqueid": "MTK1472:3QJOXOW4XKY0A87D6ALHFHTM1HXEM7", "dateTime": 1515897763389}, {"current_trial": 15, "trialdata": {"rt": -1, "trial_type": "single-stim", "stimulus": "<p id=\"stim\">5</p>", "internal_node_id": "0.0-10.0-5.0", "time_elapsed": 288644, "key_press": -1, "trial_index": 15}, "uniqueid": "MTK1472:3QJOXOW4XKY0A87D6ALHFHTM1HXEM7", "dateTime": 1515897764391}, {"current_trial": 16, "trialdata": {"rt": -1, "trial_type": "single-stim", "stimulus": "<p id=\"stim\">4</p>", "internal_node_id": "0.0-10.0-6.0", "time_elapsed": 289647, "key_press": -1, "trial_index": 16}, "uniqueid": "MTK1472:3QJOXOW4XKY0A87D6ALHFHTM1HXEM7", "dateTime": 1515897765395}, {"current_trial": 17, "trialdata": {"rt": -1, "trial_type": "single-stim", "stimulus": "<p id=\"stim\">3</p>", "internal_node_id": "0.0-10.0-7.0", "time_elapsed": 290654, "key_press": -1, "trial_index": 17}, "uniqueid": "MTK1472:3QJOXOW4XKY0A87D6ALHFHTM1HXEM7", "dateTime": 1515897766401}, {"current_trial": 18, "trialdata": {"rt": -1, "trial_type": "single-stim", "stimulus": "<p id=\"stim\">2</p>", "internal_node_id": "0.0-10.0-8.0", "time_elapsed": 291658, "key_press": -1, "trial_index": 18}, "uniqueid": "MTK1472:3QJOXOW4XKY0A87D6ALHFHTM1HXEM7", "dateTime": 1515897767405}, {"current_trial": 19, "trialdata": {"rt": -1, "trial_type": "single-stim", "stimulus": "<p id=\"stim\">1</p>", "internal_node_id": "0.0-10.0-9.0", "time_elapsed": 292661, "key_press": -1, "trial_index": 19}, "uniqueid": "MTK1472:3QJOXOW4XKY0A87D6ALHFHTM1HXEM7", "dateTime": 1515897768408}, {"current_trial": 20, "trialdata": {"rt": -1, "trial_type": "single-stim", "stimulus": "<p id=\"stim\">+</p>", "internal_node_id": "0.0-11.0-0.0", "time_elapsed": 294165, "key_press": -1, "type": "FIXATION", "trial_index": 20}, "uniqueid": "MTK1472:3QJOXOW4XKY0A87D6ALHFHTM1HXEM7", "dateTime": 1515897769912}, {"current_trial": 21, "trialdata": {"rt": -1, "trial_type": "single-stim", "word": "lover", "stimulus": "<p id=\"stim\">LOVER</p>", "conditions": [18, 1200, "v", 18000], "internal_node_id": "0.0-12.0", "trial": 0, "time_elapsed": 295367, "serialpos": 0, "key_press": -1, "wordID": 845, "type": "PRES_VIS", "trial_index": 21}, "uniqueid": "MTK1472:3QJOXOW4XKY0A87D6ALHFHTM1HXEM7", "dateTime": 1515897771115}, {"current_trial": 22, "trialdata": {"rt": -1, "trial_type": "single-stim", "word": "comet", "stimulus": "<p id=\"stim\">COMET</p>", "conditions": [18, 1200, "v", 18000], "internal_node_id": "0.0-13.0", "trial": 0, "time_elapsed": 297498, "serialpos": 1, "key_press": -1, "wordID": 352, "type": "PRES_VIS", "trial_index": 22}, "uniqueid": "MTK1472:3QJOXOW4XKY0A87D6ALHFHTM1HXEM7", "dateTime": 1515897773245}, {"current_trial": 23, "trialdata": {"rt": -1, "trial_type": "single-stim", "word": "servant", "stimulus": "<p id=\"stim\">SERVANT</p>", "conditions": [18, 1200, "v", 18000], "internal_node_id": "0.0-14.0", "trial": 0, "time_elapsed": 299657, "serialpos": 2, "key_press": -1, "wordID": 1270, "type": "PRES_VIS", "trial_index": 23}, "uniqueid": "MTK1472:3QJOXOW4XKY0A87D6ALHFHTM1HXEM7", "dateTime": 1515897775404}, {"current_trial": 24, "trialdata": {"rt": -1, "trial_type": "single-stim", "word": "mailman", "stimulus": "<p id=\"stim\">MAILMAN</p>", "conditions": [18, 1200, "v", 18000], "internal_node_id": "0.0-15.0", "trial": 0, "time_elapsed": 301922, "serialpos": 3, "key_press": -1, "wordID": 857, "type": "PRES_VIS", "trial_index": 24}, "uniqueid": "MTK1472:3QJOXOW4XKY0A87D6ALHFHTM1HXEM7", "dateTime": 1515897777670}, {"current_trial": 25, "trialdata": {"rt": -1, "trial_type": "single-stim", "word": "orange", "stimulus": "<p id=\"stim\">ORANGE</p>", "conditions": [18, 1200, "v", 18000], "internal_node_id": "0.0-16.0", "trial": 0, "time_elapsed": 304227, "serialpos": 4, "key_press": -1, "wordID": 979, "type": "PRES_VIS", "trial_index": 25}, "uniqueid": "MTK1472:3QJOXOW4XKY0A87D6ALHFHTM1HXEM7", "dateTime": 1515897779975}, {"current_trial": 26, "trialdata": {"rt": -1, "trial_type": "single-stim", "word": "butcher", "stimulus": "<p id=\"stim\">BUTCHER</p>", "conditions": [18, 1200, "v", 18000], "internal_node_id": "0.0-17.0", "trial": 0, "time_elapsed": 306495, "serialpos": 5, "key_press": -1, "wordID": 202, "type": "PRES_VIS", "trial_index": 26}, "uniqueid": "MTK1472:3QJOXOW4XKY0A87D6ALHFHTM1HXEM7", "dateTime": 1515897782242}, {"current_trial": 27, "trialdata": {"rt": -1, "trial_type": "single-stim", "word": "primate", "stimulus": "<p id=\"stim\">PRIMATE</p>", "conditions": [18, 1200, "v", 18000], "internal_node_id": "0.0-18.0", "trial": 0, "time_elapsed": 308899, "serialpos": 6, "key_press": -1, "wordID": 1122, "type": "PRES_VIS", "trial_index": 27}, "uniqueid": "MTK1472:3QJOXOW4XKY0A87D6ALHFHTM1HXEM7", "dateTime": 1515897784647}, {"current_trial": 28, "trialdata": {"rt": -1, "trial_type": "single-stim", "word": "female", "stimulus": "<p id=\"stim\">FEMALE</p>", "conditions": [18, 1200, "v", 18000], "internal_node_id": "0.0-19.0", "trial": 0, "time_elapsed": 310968, "serialpos": 7, "key_press": -1, "wordID": 558, "type": "PRES_VIS", "trial_index": 28}, "uniqueid": "MTK1472:3QJOXOW4XKY0A87D6ALHFHTM1HXEM7", "dateTime": 1515897786715}, {"current_trial": 29, "trialdata": {"rt": -1, "trial_type": "single-stim", "word": "pimple", "stimulus": "<p id=\"stim\">PIMPLE</p>", "conditions": [18, 1200, "v", 18000], "internal_node_id": "0.0-20.0", "trial": 0, "time_elapsed": 313165, "serialpos": 8, "key_press": -1, "wordID": 1070, "type": "PRES_VIS", "trial_index": 29}, "uniqueid": "MTK1472:3QJOXOW4XKY0A87D6ALHFHTM1HXEM7", "dateTime": 1515897788912}, {"current_trial": 30, "trialdata": {"rt": -1, "trial_type": "single-stim", "word": "carriage", "stimulus": "<p id=\"stim\">CARRIAGE</p>", "conditions": [18, 1200, "v", 18000], "internal_node_id": "0.0-21.0", "trial": 0, "time_elapsed": 315187, "serialpos": 9, "key_press": -1, "wordID": 247, "type": "PRES_VIS", "trial_index": 30}, "uniqueid": "MTK1472:3QJOXOW4XKY0A87D6ALHFHTM1HXEM7", "dateTime": 1515897790935}, {"current_trial": 31, "trialdata": {"rt": -1, "trial_type": "single-stim", "word": "perch", "stimulus": "<p id=\"stim\">PERCH</p>", "conditions": [18, 1200, "v", 18000], "internal_node_id": "0.0-22.0", "trial": 0, "time_elapsed": 317342, "serialpos": 10, "key_press": -1, "wordID": 1047, "type": "PRES_VIS", "trial_index": 31}, "uniqueid": "MTK1472:3QJOXOW4XKY0A87D6ALHFHTM1HXEM7", "dateTime": 1515897793090}, {"current_trial": 32, "trialdata": {"rt": -1, "trial_type": "single-stim", "word": "drink", "stimulus": "<p id=\"stim\">DRINK</p>", "conditions": [18, 1200, "v", 18000], "internal_node_id": "0.0-23.0", "trial": 0, "time_elapsed": 319444, "serialpos": 11, "key_press": -1, "wordID": 497, "type": "PRES_VIS", "trial_index": 32}, "uniqueid": "MTK1472:3QJOXOW4XKY0A87D6ALHFHTM1HXEM7", "dateTime": 1515897795191}, {"current_trial": 33, "trialdata": {"rt": -1, "trial_type": "single-stim", "word": "judge", "stimulus": "<p id=\"stim\">JUDGE</p>", "conditions": [18, 1200, "v", 18000], "internal_node_id": "0.0-24.0", "trial": 0, "time_elapsed": 321794, "serialpos": 12, "key_press": -1, "wordID": 760, "type": "PRES_VIS", "trial_index": 33}, "uniqueid": "MTK1472:3QJOXOW4XKY0A87D6ALHFHTM1HXEM7", "dateTime": 1515897797541}, {"current_trial": 34, "trialdata": {"rt": -1, "trial_type": "single-stim", "word": "blender", "stimulus": "<p id=\"stim\">BLENDER</p>", "conditions": [18, 1200, "v", 18000], "internal_node_id": "0.0-25.0", "trial": 0, "time_elapsed": 323811, "serialpos": 13, "key_press": -1, "wordID": 135, "type": "PRES_VIS", "trial_index": 34}, "uniqueid": "MTK1472:3QJOXOW4XKY0A87D6ALHFHTM1HXEM7", "dateTime": 1515897799558}, {"current_trial": 35, "trialdata": {"rt": -1, "trial_type": "single-stim", "word": "breast", "stimulus": "<p id=\"stim\">BREAST</p>", "conditions": [18, 1200, "v", 18000], "internal_node_id": "0.0-26.0", "trial": 0, "time_elapsed": 326052, "serialpos": 14, "key_press": -1, "wordID": 170, "type": "PRES_VIS", "trial_index": 35}, "uniqueid": "MTK1472:3QJOXOW4XKY0A87D6ALHFHTM1HXEM7", "dateTime": 1515897801800}, {"current_trial": 36, "trialdata": {"rt": -1, "trial_type": "single-stim", "word": "police", "stimulus": "<p id=\"stim\">POLICE</p>", "conditions": [18, 1200, "v", 18000], "internal_node_id": "0.0-27.0", "trial": 0, "time_elapsed": 328407, "serialpos": 15, "key_press": -1, "wordID": 1097, "type": "PRES_VIS", "trial_index": 36}, "uniqueid": "MTK1472:3QJOXOW4XKY0A87D6ALHFHTM1HXEM7", "dateTime": 1515897804155}, {"current_trial": 37, "trialdata": {"rt": -1, "trial_type": "single-stim", "word": "proton", "stimulus": "<p id=\"stim\">PROTON</p>", "conditions": [18, 1200, "v", 18000], "internal_node_id": "0.0-28.0", "trial": 0, "time_elapsed": 330448, "serialpos": 16, "key_press": -1, "wordID": 1131, "type": "PRES_VIS", "trial_index": 37}, "uniqueid": "MTK1472:3QJOXOW4XKY0A87D6ALHFHTM1HXEM7", "dateTime": 1515897806196}, {"current_trial": 38, "trialdata": {"rt": -1, "trial_type": "single-stim", "word": "flipper", "stimulus": "<p id=\"stim\">FLIPPER</p>", "conditions": [18, 1200, "v", 18000], "internal_node_id": "0.0-29.0", "trial": 0, "time_elapsed": 332688, "serialpos": 17, "key_press": -1, "wordID": 579, "type": "PRES_VIS", "trial_index": 38}, "uniqueid": "MTK1472:3QJOXOW4XKY0A87D6ALHFHTM1HXEM7", "dateTime": 1515897808435}, {"current_trial": 39, "trialdata": {"rt": -1, "trial_type": "single-stim", "stimulus": "", "internal_node_id": "0.0-30.0-0.0", "time_elapsed": 334869, "key_press": -1, "type": "PRE_RECALL_DELAY", "trial_index": 39}, "uniqueid": "MTK1472:3QJOXOW4XKY0A87D6ALHFHTM1HXEM7", "dateTime": 1515897810617}, {"current_trial": 40, "trialdata": {"rt": -1000, "trial_type": "single-audio", "stimulus": "/static/audio/400Hz.wav", "internal_node_id": "0.0-31.0", "time_elapsed": 335381, "key_press": -1, "type": "PRE_RECALL_ALERT", "trial_index": 40}, "uniqueid": "MTK1472:3QJOXOW4XKY0A87D6ALHFHTM1HXEM7", "dateTime": 1515897811128}, {"current_trial": 41, "trialdata": {"rt": [3965, 6393, 10073, 13322, 24815, 27713, 50463], "recwords": ["orange", "breast", "police", "orange", "primate", "lover", "mailman"], "key_times": [1963, 2226, 2556, 2839, 3040, 3161, 3965, 4736, 4956, 5155, 5391, 5583, 5700, 6393, 8324, 8593, 8786, 8977, 9206, 9445, 10073, 11884, 12065, 12330, 12442, 12624, 12747, 13322, 23304, 23503, 23753, 23968, 24080, 24315, 24429, 24815, 26585, 26762, 27046, 27179, 27382, 27713, 49033, 49132, 49275, 49460, 49892, 50006, 50142, 50463], "trial_type": "free-recall", "conditions": [18, 1200, "v", 18000], "internal_node_id": "0.0-32.0-0.0", "key_presses": [79, 82, 65, 78, 71, 69, 13, 66, 82, 69, 65, 83, 84, 13, 80, 79, 76, 73, 67, 69, 13, 79, 82, 65, 78, 71, 69, 13, 80, 82, 73, 77, 65, 84, 69, 13, 76, 79, 86, 69, 82, 13, 77, 65, 73, 76, 77, 65, 78, 13], "trial": 0, "time_elapsed": 395392, "type": "FREE_RECALL", "trial_index": 41}, "uniqueid": "MTK1472:3QJOXOW4XKY0A87D6ALHFHTM1HXEM7", "dateTime": 1515897871145}, {"current_trial": 42, "trialdata": {"rt": 1867, "trial_type": "text", "internal_node_id": "0.0-33.0", "time_elapsed": 399270, "key_press": 32, "type": "INSTRUCTIONS", "trial_index": 42}, "uniqueid": "MTK1472:3QJOXOW4XKY0A87D6ALHFHTM1HXEM7", "dateTime": 1515897875017}, {"current_trial": 43, "trialdata": {"rt": [9601, 13416, 16913], "trial_type": "math-distractor", "key_times": [8697, 8863, 9601, 12876, 13135, 13416, 16189, 16913], "responses": ["15", "20", "9"], "num2": [1, 9, 2, 3], "num3": [9, 6, 4, 8], "conditions": [18, 1200, "v", 18000], "internal_node_id": "0.0-34.0", "key_presses": [49, 53, 13, 50, 48, 13, 57, 13], "trial": 1, "time_elapsed": 419279, "type": "DISTRACTOR", "trial_index": 43, "num1": [5, 5, 3, 3]}, "uniqueid": "MTK1472:3QJOXOW4XKY0A87D6ALHFHTM1HXEM7", "dateTime": 1515897895026}, {"current_trial": 44, "trialdata": {"rt": -1, "trial_type": "single-stim", "stimulus": "<p id=\"stim\">10</p>", "internal_node_id": "0.0-35.0-0.0", "time_elapsed": 422284, "key_press": -1, "trial_index": 44}, "uniqueid": "MTK1472:3QJOXOW4XKY0A87D6ALHFHTM1HXEM7", "dateTime": 1515897898032}, {"current_trial": 45, "trialdata": {"rt": -1, "trial_type": "single-stim", "stimulus": "<p id=\"stim\">9</p>", "internal_node_id": "0.0-35.0-1.0", "time_elapsed": 423289, "key_press": -1, "trial_index": 45}, "uniqueid": "MTK1472:3QJOXOW4XKY0A87D6ALHFHTM1HXEM7", "dateTime": 1515897899037}, {"current_trial": 46, "trialdata": {"rt": -1, "trial_type": "single-stim", "stimulus": "<p id=\"stim\">8</p>", "internal_node_id": "0.0-35.0-2.0", "time_elapsed": 424294, "key_press": -1, "trial_index": 46}, "uniqueid": "MTK1472:3QJOXOW4XKY0A87D6ALHFHTM1HXEM7", "dateTime": 1515897900041}, {"current_trial": 47, "trialdata": {"rt": -1, "trial_type": "single-stim", "stimulus": "<p id=\"stim\">7</p>", "internal_node_id": "0.0-35.0-3.0", "time_elapsed": 425298, "key_press": -1, "trial_index": 47}, "uniqueid": "MTK1472:3QJOXOW4XKY0A87D6ALHFHTM1HXEM7", "dateTime": 1515897901046}, {"current_trial": 48, "trialdata": {"rt": -1, "trial_type": "single-stim", "stimulus": "<p id=\"stim\">6</p>", "internal_node_id": "0.0-35.0-4.0", "time_elapsed": 426305, "key_press": -1, "trial_index": 48}, "uniqueid": "MTK1472:3QJOXOW4XKY0A87D6ALHFHTM1HXEM7", "dateTime": 1515897902053}, {"current_trial": 49, "trialdata": {"rt": -1, "trial_type": "single-stim", "stimulus": "<p id=\"stim\">5</p>", "internal_node_id": "0.0-35.0-5.0", "time_elapsed": 427310, "key_press": -1, "trial_index": 49}, "uniqueid": "MTK1472:3QJOXOW4XKY0A87D6ALHFHTM1HXEM7", "dateTime": 1515897903057}, {"current_trial": 50, "trialdata": {"rt": -1, "trial_type": "single-stim", "stimulus": "<p id=\"stim\">4</p>", "internal_node_id": "0.0-35.0-6.0", "time_elapsed": 428314, "key_press": -1, "trial_index": 50}, "uniqueid": "MTK1472:3QJOXOW4XKY0A87D6ALHFHTM1HXEM7", "dateTime": 1515897904061}, {"current_trial": 51, "trialdata": {"rt": -1, "trial_type": "single-stim", "stimulus": "<p id=\"stim\">3</p>", "internal_node_id": "0.0-35.0-7.0", "time_elapsed": 429319, "key_press": -1, "trial_index": 51}, "uniqueid": "MTK1472:3QJOXOW4XKY0A87D6ALHFHTM1HXEM7", "dateTime": 1515897905067}, {"current_trial": 52, "trialdata": {"rt": -1, "trial_type": "single-stim", "stimulus": "<p id=\"stim\">2</p>", "internal_node_id": "0.0-35.0-8.0", "time_elapsed": 430324, "key_press": -1, "trial_index": 52}, "uniqueid": "MTK1472:3QJOXOW4XKY0A87D6ALHFHTM1HXEM7", "dateTime": 1515897906071}, {"current_trial": 53, "trialdata": {"rt": -1, "trial_type": "single-stim", "stimulus": "<p id=\"stim\">1</p>", "internal_node_id": "0.0-35.0-9.0", "time_elapsed": 431327, "key_press": -1, "trial_index": 53}, "uniqueid": "MTK1472:3QJOXOW4XKY0A87D6ALHFHTM1HXEM7", "dateTime": 1515897907075}, {"current_trial": 54, "trialdata": {"rt": -1, "trial_type": "single-stim", "stimulus": "<p id=\"stim\">+</p>", "internal_node_id": "0.0-36.0-0.0", "time_elapsed": 432832, "key_press": -1, "type": "FIXATION", "trial_index": 54}, "uniqueid": "MTK1472:3QJOXOW4XKY0A87D6ALHFHTM1HXEM7", "dateTime": 1515897908580}, {"current_trial": 55, "trialdata": {"rt": -1, "trial_type": "single-stim", "word": "staple", "stimulus": "<p id=\"stim\">STAPLE</p>", "conditions": [18, 1200, "v", 18000], "internal_node_id": "0.0-37.0", "trial": 1, "time_elapsed": 434037, "serialpos": 0, "key_press": -1, "wordID": 1370, "type": "PRES_VIS", "trial_index": 55}, "uniqueid": "MTK1472:3QJOXOW4XKY0A87D6ALHFHTM1HXEM7", "dateTime": 1515897909785}, {"current_trial": 56, "trialdata": {"rt": -1, "trial_type": "single-stim", "word": "forehead", "stimulus": "<p id=\"stim\">FOREHEAD</p>", "conditions": [18, 1200, "v", 18000], "internal_node_id": "0.0-38.0", "trial": 1, "time_elapsed": 436104, "serialpos": 1, "key_press": -1, "wordID": 591, "type": "PRES_VIS", "trial_index": 56}, "uniqueid": "MTK1472:3QJOXOW4XKY0A87D6ALHFHTM1HXEM7", "dateTime": 1515897911852}, {"current_trial": 57, "trialdata": {"rt": -1, "trial_type": "single-stim", "word": "child", "stimulus": "<p id=\"stim\">CHILD</p>", "conditions": [18, 1200, "v", 18000], "internal_node_id": "0.0-39.0", "trial": 1, "time_elapsed": 438197, "serialpos": 2, "key_press": -1, "wordID": 298, "type": "PRES_VIS", "trial_index": 57}, "uniqueid": "MTK1472:3QJOXOW4XKY0A87D6ALHFHTM1HXEM7", "dateTime": 1515897913945}, {"current_trial": 58, "trialdata": {"rt": -1, "trial_type": "single-stim", "word": "cocktail", "stimulus": "<p id=\"stim\">COCKTAIL</p>", "conditions": [18, 1200, "v", 18000], "internal_node_id": "0.0-40.0", "trial": 1, "time_elapsed": 440282, "serialpos": 3, "key_press": -1, "wordID": 337, "type": "PRES_VIS", "trial_index": 58}, "uniqueid": "MTK1472:3QJOXOW4XKY0A87D6ALHFHTM1HXEM7", "dateTime": 1515897916030}, {"current_trial": 59, "trialdata": {"rt": -1, "trial_type": "single-stim", "word": "sunset", "stimulus": "<p id=\"stim\">SUNSET</p>", "conditions": [18, 1200, "v", 18000], "internal_node_id": "0.0-41.0", "trial": 1, "time_elapsed": 442302, "serialpos": 4, "key_press": -1, "wordID": 1407, "type": "PRES_VIS", "trial_index": 59}, "uniqueid": "MTK1472:3QJOXOW4XKY0A87D6ALHFHTM1HXEM7", "dateTime": 1515897918050}, {"current_trial": 60, "trialdata": {"rt": -1, "trial_type": "single-stim", "word": "eagle", "stimulus": "<p id=\"stim\">EAGLE</p>", "conditions": [18, 1200, "v", 18000], "internal_node_id": "0.0-42.0", "trial": 1, "time_elapsed": 444623, "serialpos": 5, "key_press": -1, "wordID": 511, "type": "PRES_VIS", "trial_index": 60}, "uniqueid": "MTK1472:3QJOXOW4XKY0A87D6ALHFHTM1HXEM7", "dateTime": 1515897920370}, {"current_trial": 61, "trialdata": {"rt": -1, "trial_type": "single-stim", "word": "sponge", "stimulus": "<p id=\"stim\">SPONGE</p>", "conditions": [18, 1200, "v", 18000], "internal_node_id": "0.0-43.0", "trial": 1, "time_elapsed": 446921, "serialpos": 6, "key_press": -1, "wordID": 1354, "type": "PRES_VIS", "trial_index": 61}, "uniqueid": "MTK1472:3QJOXOW4XKY0A87D6ALHFHTM1HXEM7", "dateTime": 1515897922668}, {"current_trial": 62, "trialdata": {"rt": -1, "trial_type": "single-stim", "word": "ground", "stimulus": "<p id=\"stim\">GROUND</p>", "conditions": [18, 1200, "v", 18000], "internal_node_id": "0.0-44.0", "trial": 1, "time_elapsed": 448934, "serialpos": 7, "key_press": -1, "wordID": 665, "type": "PRES_VIS", "trial_index": 62}, "uniqueid": "MTK1472:3QJOXOW4XKY0A87D6ALHFHTM1HXEM7", "dateTime": 1515897924682}, {"current_trial": 63, "trialdata": {"rt": -1, "trial_type": "single-stim", "word": "sword", "stimulus": "<p id=\"stim\">SWORD</p>", "conditions": [18, 1200, "v", 18000], "internal_node_id": "0.0-45.0", "trial": 1, "time_elapsed": 451036, "serialpos": 8, "key_press": -1, "wordID": 1422, "type": "PRES_VIS", "trial_index": 63}, "uniqueid": "MTK1472:3QJOXOW4XKY0A87D6ALHFHTM1HXEM7", "dateTime": 1515897926784}, {"current_trial": 64, "trialdata": {"rt": -1, "trial_type": "single-stim", "word": "expert", "stimulus": "<p id=\"stim\">EXPERT</p>", "conditions": [18, 1200, "v", 18000], "internal_node_id": "0.0-46.0", "trial": 1, "time_elapsed": 453353, "serialpos": 9, "key_press": -1, "wordID": 542, "type": "PRES_VIS", "trial_index": 64}, "uniqueid": "MTK1472:3QJOXOW4XKY0A87D6ALHFHTM1HXEM7", "dateTime": 1515897929100}, {"current_trial": 65, "trialdata": {"rt": -1, "trial_type": "single-stim", "word": "country", "stimulus": "<p id=\"stim\">COUNTRY</p>", "conditions": [18, 1200, "v", 18000], "internal_node_id": "0.0-47.0", "trial": 1, "time_elapsed": 455589, "serialpos": 10, "key_press": -1, "wordID": 387, "type": "PRES_VIS", "trial_index": 65}, "uniqueid": "MTK1472:3QJOXOW4XKY0A87D6ALHFHTM1HXEM7", "dateTime": 1515897931337}, {"current_trial": 66, "trialdata": {"rt": -1, "trial_type": "single-stim", "word": "supper", "stimulus": "<p id=\"stim\">SUPPER</p>", "conditions": [18, 1200, "v", 18000], "internal_node_id": "0.0-48.0", "trial": 1, "time_elapsed": 457786, "serialpos": 11, "key_press": -1, "wordID": 1410, "type": "PRES_VIS", "trial_index": 66}, "uniqueid": "MTK1472:3QJOXOW4XKY0A87D6ALHFHTM1HXEM7", "dateTime": 1515897933534}, {"current_trial": 67, "trialdata": {"rt": -1, "trial_type": "single-stim", "word": "padding", "stimulus": "<p id=\"stim\">PADDING</p>", "conditions": [18, 1200, "v", 18000], "internal_node_id": "0.0-49.0", "trial": 1, "time_elapsed": 460117, "serialpos": 12, "key_press": -1, "wordID": 998, "type": "PRES_VIS", "trial_index": 67}, "uniqueid": "MTK1472:3QJOXOW4XKY0A87D6ALHFHTM1HXEM7", "dateTime": 1515897935864}, {"current_trial": 68, "trialdata": {"rt": -1, "trial_type": "single-stim", "word": "chapel", "stimulus": "<p id=\"stim\">CHAPEL</p>", "conditions": [18, 1200, "v", 18000], "internal_node_id": "0.0-50.0", "trial": 1, "time_elapsed": 462361, "serialpos": 13, "key_press": -1, "wordID": 279, "type": "PRES_VIS", "trial_index": 68}, "uniqueid": "MTK1472:3QJOXOW4XKY0A87D6ALHFHTM1HXEM7", "dateTime": 1515897938116}, {"current_trial": 69, "trialdata": {"rt": -1, "trial_type": "single-stim", "word": "cowboy", "stimulus": "<p id=\"stim\">COWBOY</p>", "conditions": [18, 1200, "v", 18000], "internal_node_id": "0.0-51.0", "trial": 1, "time_elapsed": 464597, "serialpos": 14, "key_press": -1, "wordID": 394, "type": "PRES_VIS", "trial_index": 69}, "uniqueid": "MTK1472:3QJOXOW4XKY0A87D6ALHFHTM1HXEM7", "dateTime": 1515897940344}, {"current_trial": 70, "trialdata": {"rt": -1, "trial_type": "single-stim", "word": "wardrobe", "stimulus": "<p id=\"stim\">WARDROBE</p>", "conditions": [18, 1200, "v", 18000], "internal_node_id": "0.0-52.0", "trial": 1, "time_elapsed": 466781, "serialpos": 15, "key_press": -1, "wordID": 1586, "type": "PRES_VIS", "trial_index": 70}, "uniqueid": "MTK1472:3QJOXOW4XKY0A87D6ALHFHTM1HXEM7", "dateTime": 1515897942528}, {"current_trial": 71, "trialdata": {"rt": -1, "trial_type": "single-stim", "word": "grave", "stimulus": "<p id=\"stim\">GRAVE</p>", "conditions": [18, 1200, "v", 18000], "internal_node_id": "0.0-53.0", "trial": 1, "time_elapsed": 469038, "serialpos": 16, "key_press": -1, "wordID": 657, "type": "PRES_VIS", "trial_index": 71}, "uniqueid": "MTK1472:3QJOXOW4XKY0A87D6ALHFHTM1HXEM7", "dateTime": 1515897944785}, {"current_trial": 72, "trialdata": {"rt": -1, "trial_type": "single-stim", "word": "arm", "stimulus": "<p id=\"stim\">ARM</p>", "conditions": [18, 1200, "v", 18000], "internal_node_id": "0.0-54.0", "trial": 1, "time_elapsed": 471169, "serialpos": 17, "key_press": -1, "wordID": 37, "type": "PRES_VIS", "trial_index": 72}, "uniqueid": "MTK1472:3QJOXOW4XKY0A87D6ALHFHTM1HXEM7", "dateTime": 1515897946916}, {"current_trial": 73, "trialdata": {"rt": -1, "trial_type": "single-stim", "stimulus": "", "internal_node_id": "0.0-55.0-0.0", "time_elapsed": 473486, "key_press": -1, "type": "PRE_RECALL_DELAY", "trial_index": 73}, "uniqueid": "MTK1472:3QJOXOW4XKY0A87D6ALHFHTM1HXEM7", "dateTime": 1515897949234}, {"current_trial": 74, "trialdata": {"rt": -1000, "trial_type": "single-audio", "stimulus": "/static/audio/400Hz.wav", "internal_node_id": "0.0-56.0", "time_elapsed": 473990, "key_press": -1, "type": "PRE_RECALL_ALERT", "trial_index": 74}, "uniqueid": "MTK1472:3QJOXOW4XKY0A87D6ALHFHTM1HXEM7", "dateTime": 1515897949737}, {"current_trial": 75, "trialdata": {"rt": [4066, 8133, 13024, 20785, 27230, 29364, 32762, 36002, 45956, 57993], "recwords": ["arm", "cowboy", "staple", "cocktail", "arm", "sunset", "eagle", "child", "ground", "supper"], "key_times": [2817, 3136, 3391, 4066, 5497, 5647, 6173, 6576, 7053, 7326, 8133, 11738, 11903, 12405, 12586, 12741, 12889, 13024, 17990, 18250, 18440, 18762, 19380, 19498, 20081, 20269, 20785, 26312, 26592, 26821, 27230, 27910, 28067, 28261, 28500, 28814, 28948, 29364, 30125, 30547, 31302, 31823, 31919, 32762, 35024, 35136, 35515, 35691, 35812, 36002, 44539, 44908, 45173, 45402, 45569, 45758, 45956, 56742, 56998, 57383, 57521, 57636, 57857, 57993], "trial_type": "free-recall", "conditions": [18, 1200, "v", 18000], "internal_node_id": "0.0-57.0-0.0", "key_presses": [65, 82, 77, 13, 67, 79, 87, 66, 79, 89, 13, 83, 84, 65, 80, 76, 69, 13, 67, 79, 67, 75, 84, 65, 73, 76, 13, 65, 82, 77, 13, 83, 85, 78, 83, 69, 84, 13, 69, 65, 71, 76, 69, 13, 67, 72, 73, 76, 68, 13, 71, 82, 79, 85, 78, 68, 13, 83, 85, 80, 80, 69, 82, 13], "trial": 1, "time_elapsed": 533999, "type": "FREE_RECALL", "trial_index": 75}, "uniqueid": "MTK1472:3QJOXOW4XKY0A87D6ALHFHTM1HXEM7", "dateTime": 1515898009750}, {"current_trial": 76, "trialdata": {"rt": 2567, "trial_type": "text", "internal_node_id": "0.0-58.0", "time_elapsed": 538573, "key_press": 74, "type": "INSTRUCTIONS", "trial_index": 76}, "uniqueid": "MTK1472:3QJOXOW4XKY0A87D6ALHFHTM1HXEM7", "dateTime": 1515898014320}, {"current_trial": 77, "trialdata": {"rt": [4736, 10352], "trial_type": "math-distractor", "key_times": [3194, 3572, 4736, 8004, 9086, 9598, 9808, 10352], "responses": ["20", "16"], "num2": [8, 8, 6], "num3": [4, 5, 1], "conditions": [12, 1600, "v", 12000], "internal_node_id": "0.0-59.0", "key_presses": [50, 48, 13, 50, 8, 49, 54, 13], "trial": 2, "time_elapsed": 551588, "type": "DISTRACTOR", "trial_index": 77, "num1": [8, 3, 5]}, "uniqueid": "MTK1472:3QJOXOW4XKY0A87D6ALHFHTM1HXEM7", "dateTime": 1515898027335}, {"current_trial": 78, "trialdata": {"rt": -1, "trial_type": "single-stim", "stimulus": "<p id=\"stim\">10</p>", "internal_node_id": "0.0-60.0-0.0", "time_elapsed": 554591, "key_press": -1, "trial_index": 78}, "uniqueid": "MTK1472:3QJOXOW4XKY0A87D6ALHFHTM1HXEM7", "dateTime": 1515898030338}, {"current_trial": 79, "trialdata": {"rt": -1, "trial_type": "single-stim", "stimulus": "<p id=\"stim\">9</p>", "internal_node_id": "0.0-60.0-1.0", "time_elapsed": 555595, "key_press": -1, "trial_index": 79}, "uniqueid": "MTK1472:3QJOXOW4XKY0A87D6ALHFHTM1HXEM7", "dateTime": 1515898031342}, {"current_trial": 80, "trialdata": {"rt": -1, "trial_type": "single-stim", "stimulus": "<p id=\"stim\">8</p>", "internal_node_id": "0.0-60.0-2.0", "time_elapsed": 556598, "key_press": -1, "trial_index": 80}, "uniqueid": "MTK1472:3QJOXOW4XKY0A87D6ALHFHTM1HXEM7", "dateTime": 1515898032345}, {"current_trial": 81, "trialdata": {"rt": -1, "trial_type": "single-stim", "stimulus": "<p id=\"stim\">7</p>", "internal_node_id": "0.0-60.0-3.0", "time_elapsed": 557602, "key_press": -1, "trial_index": 81}, "uniqueid": "MTK1472:3QJOXOW4XKY0A87D6ALHFHTM1HXEM7", "dateTime": 1515898033349}, {"current_trial": 82, "trialdata": {"rt": -1, "trial_type": "single-stim", "stimulus": "<p id=\"stim\">6</p>", "internal_node_id": "0.0-60.0-4.0", "time_elapsed": 558604, "key_press": -1, "trial_index": 82}, "uniqueid": "MTK1472:3QJOXOW4XKY0A87D6ALHFHTM1HXEM7", "dateTime": 1515898034352}, {"current_trial": 83, "trialdata": {"rt": -1, "trial_type": "single-stim", "stimulus": "<p id=\"stim\">5</p>", "internal_node_id": "0.0-60.0-5.0", "time_elapsed": 559607, "key_press": -1, "trial_index": 83}, "uniqueid": "MTK1472:3QJOXOW4XKY0A87D6ALHFHTM1HXEM7", "dateTime": 1515898035354}, {"current_trial": 84, "trialdata": {"rt": -1, "trial_type": "single-stim", "stimulus": "<p id=\"stim\">4</p>", "internal_node_id": "0.0-60.0-6.0", "time_elapsed": 560611, "key_press": -1, "trial_index": 84}, "uniqueid": "MTK1472:3QJOXOW4XKY0A87D6ALHFHTM1HXEM7", "dateTime": 1515898036358}, {"current_trial": 85, "trialdata": {"rt": -1, "trial_type": "single-stim", "stimulus": "<p id=\"stim\">3</p>", "internal_node_id": "0.0-60.0-7.0", "time_elapsed": 561614, "key_press": -1, "trial_index": 85}, "uniqueid": "MTK1472:3QJOXOW4XKY0A87D6ALHFHTM1HXEM7", "dateTime": 1515898037361}, {"current_trial": 86, "trialdata": {"rt": -1, "trial_type": "single-stim", "stimulus": "<p id=\"stim\">2</p>", "internal_node_id": "0.0-60.0-8.0", "time_elapsed": 562616, "key_press": -1, "trial_index": 86}, "uniqueid": "MTK1472:3QJOXOW4XKY0A87D6ALHFHTM1HXEM7", "dateTime": 1515898038364}, {"current_trial": 87, "trialdata": {"rt": -1, "trial_type": "single-stim", "stimulus": "<p id=\"stim\">1</p>", "internal_node_id": "0.0-60.0-9.0", "time_elapsed": 563621, "key_press": -1, "trial_index": 87}, "uniqueid": "MTK1472:3QJOXOW4XKY0A87D6ALHFHTM1HXEM7", "dateTime": 1515898039369}, {"current_trial": 88, "trialdata": {"rt": -1, "trial_type": "single-stim", "stimulus": "<p id=\"stim\">+</p>", "internal_node_id": "0.0-61.0-0.0", "time_elapsed": 565127, "key_press": -1, "type": "FIXATION", "trial_index": 88}, "uniqueid": "MTK1472:3QJOXOW4XKY0A87D6ALHFHTM1HXEM7", "dateTime": 1515898040875}, {"current_trial": 89, "trialdata": {"rt": -1, "trial_type": "single-stim", "word": "branch", "stimulus": "<p id=\"stim\">BRANCH</p>", "conditions": [12, 1600, "v", 12000], "internal_node_id": "0.0-62.0", "trial": 2, "time_elapsed": 566731, "serialpos": 0, "key_press": -1, "wordID": 167, "type": "PRES_VIS", "trial_index": 89}, "uniqueid": "MTK1472:3QJOXOW4XKY0A87D6ALHFHTM1HXEM7", "dateTime": 1515898042478}, {"current_trial": 90, "trialdata": {"rt": -1, "trial_type": "single-stim", "word": "plaid", "stimulus": "<p id=\"stim\">PLAID</p>", "conditions": [12, 1600, "v", 12000], "internal_node_id": "0.0-63.0", "trial": 2, "time_elapsed": 569328, "serialpos": 1, "key_press": -1, "wordID": 1079, "type": "PRES_VIS", "trial_index": 90}, "uniqueid": "MTK1472:3QJOXOW4XKY0A87D6ALHFHTM1HXEM7", "dateTime": 1515898045076}, {"current_trial": 91, "trialdata": {"rt": -1, "trial_type": "single-stim", "word": "motel", "stimulus": "<p id=\"stim\">MOTEL</p>", "conditions": [12, 1600, "v", 12000], "internal_node_id": "0.0-64.0", "trial": 2, "time_elapsed": 571787, "serialpos": 2, "key_press": -1, "wordID": 918, "type": "PRES_VIS", "trial_index": 91}, "uniqueid": "MTK1472:3QJOXOW4XKY0A87D6ALHFHTM1HXEM7", "dateTime": 1515898047534}, {"current_trial": 92, "trialdata": {"rt": -1, "trial_type": "single-stim", "word": "cabin", "stimulus": "<p id=\"stim\">CABIN</p>", "conditions": [12, 1600, "v", 12000], "internal_node_id": "0.0-65.0", "trial": 2, "time_elapsed": 574200, "serialpos": 3, "key_press": -1, "wordID": 210, "type": "PRES_VIS", "trial_index": 92}, "uniqueid": "MTK1472:3QJOXOW4XKY0A87D6ALHFHTM1HXEM7", "dateTime": 1515898049950}, {"current_trial": 93, "trialdata": {"rt": -1, "trial_type": "single-stim", "word": "island", "stimulus": "<p id=\"stim\">ISLAND</p>", "conditions": [12, 1600, "v", 12000], "internal_node_id": "0.0-66.0", "trial": 2, "time_elapsed": 576749, "serialpos": 4, "key_press": -1, "wordID": 744, "type": "PRES_VIS", "trial_index": 93}, "uniqueid": "MTK1472:3QJOXOW4XKY0A87D6ALHFHTM1HXEM7", "dateTime": 1515898052496}, {"current_trial": 94, "trialdata": {"rt": -1, "trial_type": "single-stim", "word": "suitcase", "stimulus": "<p id=\"stim\">SUITCASE</p>", "conditions": [12, 1600, "v", 12000], "internal_node_id": "0.0-67.0", "trial": 2, "time_elapsed": 579512, "serialpos": 5, "key_press": -1, "wordID": 1402, "type": "PRES_VIS", "trial_index": 94}, "uniqueid": "MTK1472:3QJOXOW4XKY0A87D6ALHFHTM1HXEM7", "dateTime": 1515898055259}, {"current_trial": 95, "trialdata": {"rt": -1, "trial_type": "single-stim", "word": "mildew", "stimulus": "<p id=\"stim\">MILDEW</p>", "conditions": [12, 1600, "v", 12000], "internal_node_id": "0.0-68.0", "trial": 2, "time_elapsed": 582206, "serialpos": 6, "key_press": -1, "wordID": 892, "type": "PRES_VIS", "trial_index": 95}, "uniqueid": "MTK1472:3QJOXOW4XKY0A87D6ALHFHTM1HXEM7", "dateTime": 1515898057953}, {"current_trial": 96, "trialdata": {"rt": -1, "trial_type": "single-stim", "word": "marsh", "stimulus": "<p id=\"stim\">MARSH</p>", "conditions": [12, 1600, "v", 12000], "internal_node_id": "0.0-69.0", "trial": 2, "time_elapsed": 584854, "serialpos": 7, "key_press": -1, "wordID": 873, "type": "PRES_VIS", "trial_index": 96}, "uniqueid": "MTK1472:3QJOXOW4XKY0A87D6ALHFHTM1HXEM7", "dateTime": 1515898060601}, {"current_trial": 97, "trialdata": {"rt": -1, "trial_type": "single-stim", "word": "lake", "stimulus": "<p id=\"stim\">LAKE</p>", "conditions": [12, 1600, "v", 12000], "internal_node_id": "0.0-70.0", "trial": 2, "time_elapsed": 587499, "serialpos": 8, "key_press": -1, "wordID": 795, "type": "PRES_VIS", "trial_index": 97}, "uniqueid": "MTK1472:3QJOXOW4XKY0A87D6ALHFHTM1HXEM7", "dateTime": 1515898063246}, {"current_trial": 98, "trialdata": {"rt": -1, "trial_type": "single-stim", "word": "lodge", "stimulus": "<p id=\"stim\">LODGE</p>", "conditions": [12, 1600, "v", 12000], "internal_node_id": "0.0-71.0", "trial": 2, "time_elapsed": 590239, "serialpos": 9, "key_press": -1, "wordID": 838, "type": "PRES_VIS", "trial_index": 98}, "uniqueid": "MTK1472:3QJOXOW4XKY0A87D6ALHFHTM1HXEM7", "dateTime": 1515898065986}, {"current_trial": 99, "trialdata": {"rt": -1, "trial_type": "single-stim", "word": "bank", "stimulus": "<p id=\"stim\">BANK</p>", "conditions": [12, 1600, "v", 12000], "internal_node_id": "0.0-72.0", "trial": 2, "time_elapsed": 592991, "serialpos": 10, "key_press": -1, "wordID": 82, "type": "PRES_VIS", "trial_index": 99}, "uniqueid": "MTK1472:3QJOXOW4XKY0A87D6ALHFHTM1HXEM7", "dateTime": 1515898068738}, {"current_trial": 100, "trialdata": {"rt": -1, "trial_type": "single-stim", "word": "lamp", "stimulus": "<p id=\"stim\">LAMP</p>", "conditions": [12, 1600, "v", 12000], "internal_node_id": "0.0-73.0", "trial": 2, "time_elapsed": 595587, "serialpos": 11, "key_press": -1, "wordID": 797, "type": "PRES_VIS", "trial_index": 100}, "uniqueid": "MTK1472:3QJOXOW4XKY0A87D6ALHFHTM1HXEM7", "dateTime": 1515898071334}, {"current_trial": 101, "trialdata": {"rt": -1, "trial_type": "single-stim", "stimulus": "", "internal_node_id": "0.0-74.0-0.0", "time_elapsed": 597701, "key_press": -1, "type": "PRE_RECALL_DELAY", "trial_index": 101}, "uniqueid": "MTK1472:3QJOXOW4XKY0A87D6ALHFHTM1HXEM7", "dateTime": 1515898073448}, {"current_trial": 102, "trialdata": {"rt": -1000, "trial_type": "single-audio", "stimulus": "/static/audio/400Hz.wav", "internal_node_id": "0.0-75.0", "time_elapsed": 598205, "key_press": -1, "type": "PRE_RECALL_ALERT", "trial_index": 102}, "uniqueid": "MTK1472:3QJOXOW4XKY0A87D6ALHFHTM1HXEM7", "dateTime": 1515898073952}, {"current_trial": 103, "trialdata": {"rt": [5083, 6919, 13528, 24406, 26490, 28968, 38494, 41940, 44892, 48534, 55598], "recwords": ["lamp", "bank", "branch", "suitcase", "island", "bake", "motel", "marsh", "mildew", "lake", "cabin"], "key_times": [1516, 2683, 2898, 3100, 4303, 4758, 5083, 6087, 6198, 6369, 6548, 6919, 11513, 11698, 11956, 12120, 12694, 13098, 13528, 22675, 22923, 23080, 23285, 23620, 23854, 24043, 24235, 24406, 25113, 25293, 25604, 25766, 25936, 26256, 26490, 27996, 28425, 28612, 28763, 28968, 36376, 36876, 37259, 37451, 37813, 38494, 39208, 39348, 39582, 39735, 40030, 41940, 42858, 43057, 43240, 43535, 44136, 44354, 44892, 47847, 47908, 48058, 48170, 48534, 54154, 54440, 54610, 55080, 55273, 55598], "trial_type": "free-recall", "conditions": [12, 1600, "v", 12000], "internal_node_id": "0.0-76.0-0.0", "key_presses": [76, 65, 77, 79, 8, 80, 13, 66, 65, 78, 75, 13, 66, 82, 65, 78, 67, 72, 13, 83, 85, 73, 84, 67, 65, 83, 69, 13, 73, 83, 76, 65, 78, 68, 13, 66, 65, 75, 69, 13, 77, 79, 84, 69, 76, 13, 77, 65, 82, 83, 72, 13, 77, 73, 76, 68, 69, 87, 13, 76, 65, 75, 69, 13, 67, 65, 66, 73, 78, 13], "trial": 2, "time_elapsed": 658212, "type": "FREE_RECALL", "trial_index": 103}, "uniqueid": "MTK1472:3QJOXOW4XKY0A87D6ALHFHTM1HXEM7", "dateTime": 1515898133967}, {"current_trial": 104, "trialdata": {"rt": 2475, "trial_type": "text", "internal_node_id": "0.0-77.0", "time_elapsed": 662701, "key_press": 74, "type": "INSTRUCTIONS", "trial_index": 104}, "uniqueid": "MTK1472:3QJOXOW4XKY0A87D6ALHFHTM1HXEM7", "dateTime": 1515898138449}, {"current_trial": 105, "trialdata": {"rt": [3097, 5687, 8133, 11885, 14816, 18623, 22364], "trial_type": "math-distractor", "key_times": [2662, 2843, 3097, 5258, 5451, 5687, 7756, 7946, 8133, 11180, 11577, 11885, 13963, 14258, 14816, 18140, 18364, 18623, 22077, 22364], "responses": ["11", "11", "12", "17", "10", "10", "8"], "num2": [7, 2, 7, 3, 1, 1, 3, 4], "num3": [1, 3, 4, 8, 7, 7, 3, 9], "conditions": [24, 800, "v", 24000], "internal_node_id": "0.0-78.0", "key_presses": [49, 49, 13, 49, 49, 13, 49, 50, 13, 49, 55, 13, 49, 48, 13, 49, 48, 13, 56, 13], "trial": 3, "time_elapsed": 688707, "type": "DISTRACTOR", "trial_index": 105, "num1": [3, 6, 1, 6, 2, 2, 2, 4]}, "uniqueid": "MTK1472:3QJOXOW4XKY0A87D6ALHFHTM1HXEM7", "dateTime": 1515898164454}, {"current_trial": 106, "trialdata": {"rt": -1, "trial_type": "single-stim", "stimulus": "<p id=\"stim\">10</p>", "internal_node_id": "0.0-79.0-0.0", "time_elapsed": 691712, "key_press": -1, "trial_index": 106}, "uniqueid": "MTK1472:3QJOXOW4XKY0A87D6ALHFHTM1HXEM7", "dateTime": 1515898167459}, {"current_trial": 107, "trialdata": {"rt": -1, "trial_type": "single-stim", "stimulus": "<p id=\"stim\">9</p>", "internal_node_id": "0.0-79.0-1.0", "time_elapsed": 692716, "key_press": -1, "trial_index": 107}, "uniqueid": "MTK1472:3QJOXOW4XKY0A87D6ALHFHTM1HXEM7", "dateTime": 1515898168463}, {"current_trial": 108, "trialdata": {"rt": -1, "trial_type": "single-stim", "stimulus": "<p id=\"stim\">8</p>", "internal_node_id": "0.0-79.0-2.0", "time_elapsed": 693719, "key_press": -1, "trial_index": 108}, "uniqueid": "MTK1472:3QJOXOW4XKY0A87D6ALHFHTM1HXEM7", "dateTime": 1515898169467}, {"current_trial": 109, "trialdata": {"rt": -1, "trial_type": "single-stim", "stimulus": "<p id=\"stim\">7</p>", "internal_node_id": "0.0-79.0-3.0", "time_elapsed": 694724, "key_press": -1, "trial_index": 109}, "uniqueid": "MTK1472:3QJOXOW4XKY0A87D6ALHFHTM1HXEM7", "dateTime": 1515898170471}, {"current_trial": 110, "trialdata": {"rt": -1, "trial_type": "single-stim", "stimulus": "<p id=\"stim\">6</p>", "internal_node_id": "0.0-79.0-4.0", "time_elapsed": 695727, "key_press": -1, "trial_index": 110}, "uniqueid": "MTK1472:3QJOXOW4XKY0A87D6ALHFHTM1HXEM7", "dateTime": 1515898171475}, {"current_trial": 111, "trialdata": {"rt": -1, "trial_type": "single-stim", "stimulus": "<p id=\"stim\">5</p>", "internal_node_id": "0.0-79.0-5.0", "time_elapsed": 696732, "key_press": -1, "trial_index": 111}, "uniqueid": "MTK1472:3QJOXOW4XKY0A87D6ALHFHTM1HXEM7", "dateTime": 1515898172479}, {"current_trial": 112, "trialdata": {"rt": -1, "trial_type": "single-stim", "stimulus": "<p id=\"stim\">4</p>", "internal_node_id": "0.0-79.0-6.0", "time_elapsed": 697735, "key_press": -1, "trial_index": 112}, "uniqueid": "MTK1472:3QJOXOW4XKY0A87D6ALHFHTM1HXEM7", "dateTime": 1515898173483}, {"current_trial": 113, "trialdata": {"rt": -1, "trial_type": "single-stim", "stimulus": "<p id=\"stim\">3</p>", "internal_node_id": "0.0-79.0-7.0", "time_elapsed": 698738, "key_press": -1, "trial_index": 113}, "uniqueid": "MTK1472:3QJOXOW4XKY0A87D6ALHFHTM1HXEM7", "dateTime": 1515898174486}, {"current_trial": 114, "trialdata": {"rt": -1, "trial_type": "single-stim", "stimulus": "<p id=\"stim\">2</p>", "internal_node_id": "0.0-79.0-8.0", "time_elapsed": 699742, "key_press": -1, "trial_index": 114}, "uniqueid": "MTK1472:3QJOXOW4XKY0A87D6ALHFHTM1HXEM7", "dateTime": 1515898175490}, {"current_trial": 115, "trialdata": {"rt": -1, "trial_type": "single-stim", "stimulus": "<p id=\"stim\">1</p>", "internal_node_id": "0.0-79.0-9.0", "time_elapsed": 700746, "key_press": -1, "trial_index": 115}, "uniqueid": "MTK1472:3QJOXOW4XKY0A87D6ALHFHTM1HXEM7", "dateTime": 1515898176495}, {"current_trial": 116, "trialdata": {"rt": -1, "trial_type": "single-stim", "stimulus": "<p id=\"stim\">+</p>", "internal_node_id": "0.0-80.0-0.0", "time_elapsed": 702252, "key_press": -1, "type": "FIXATION", "trial_index": 116}, "uniqueid": "MTK1472:3QJOXOW4XKY0A87D6ALHFHTM1HXEM7", "dateTime": 1515898178000}, {"current_trial": 117, "trialdata": {"rt": -1, "trial_type": "single-stim", "word": "rust", "stimulus": "<p id=\"stim\">RUST</p>", "conditions": [24, 800, "v", 24000], "internal_node_id": "0.0-81.0", "trial": 3, "time_elapsed": 703058, "serialpos": 0, "key_press": -1, "wordID": 1218, "type": "PRES_VIS", "trial_index": 117}, "uniqueid": "MTK1472:3QJOXOW4XKY0A87D6ALHFHTM1HXEM7", "dateTime": 1515898178805}, {"current_trial": 118, "trialdata": {"rt": -1, "trial_type": "single-stim", "word": "ketchup", "stimulus": "<p id=\"stim\">KETCHUP</p>", "conditions": [24, 800, "v", 24000], "internal_node_id": "0.0-82.0", "trial": 3, "time_elapsed": 704756, "serialpos": 1, "key_press": -1, "wordID": 770, "type": "PRES_VIS", "trial_index": 118}, "uniqueid": "MTK1472:3QJOXOW4XKY0A87D6ALHFHTM1HXEM7", "dateTime": 1515898180503}, {"current_trial": 119, "trialdata": {"rt": -1, "trial_type": "single-stim", "word": "necklace", "stimulus": "<p id=\"stim\">NECKLACE</p>", "conditions": [24, 800, "v", 24000], "internal_node_id": "0.0-83.0", "trial": 3, "time_elapsed": 706428, "serialpos": 2, "key_press": -1, "wordID": 939, "type": "PRES_VIS", "trial_index": 119}, "uniqueid": "MTK1472:3QJOXOW4XKY0A87D6ALHFHTM1HXEM7", "dateTime": 1515898182176}, {"current_trial": 120, "trialdata": {"rt": -1, "trial_type": "single-stim", "word": "handbag", "stimulus": "<p id=\"stim\">HANDBAG</p>", "conditions": [24, 800, "v", 24000], "internal_node_id": "0.0-84.0", "trial": 3, "time_elapsed": 708315, "serialpos": 3, "key_press": -1, "wordID": 683, "type": "PRES_VIS", "trial_index": 120}, "uniqueid": "MTK1472:3QJOXOW4XKY0A87D6ALHFHTM1HXEM7", "dateTime": 1515898184063}, {"current_trial": 121, "trialdata": {"rt": -1, "trial_type": "single-stim", "word": "river", "stimulus": "<p id=\"stim\">RIVER</p>", "conditions": [24, 800, "v", 24000], "internal_node_id": "0.0-85.0", "trial": 3, "time_elapsed": 709945, "serialpos": 4, "key_press": -1, "wordID": 1193, "type": "PRES_VIS", "trial_index": 121}, "uniqueid": "MTK1472:3QJOXOW4XKY0A87D6ALHFHTM1HXEM7", "dateTime": 1515898185692}, {"current_trial": 122, "trialdata": {"rt": -1, "trial_type": "single-stim", "word": "globe", "stimulus": "<p id=\"stim\">GLOBE</p>", "conditions": [24, 800, "v", 24000], "internal_node_id": "0.0-86.0", "trial": 3, "time_elapsed": 711654, "serialpos": 5, "key_press": -1, "wordID": 640, "type": "PRES_VIS", "trial_index": 122}, "uniqueid": "MTK1472:3QJOXOW4XKY0A87D6ALHFHTM1HXEM7", "dateTime": 1515898187401}, {"current_trial": 123, "trialdata": {"rt": -1, "trial_type": "single-stim", "word": "empire", "stimulus": "<p id=\"stim\">EMPIRE</p>", "conditions": [24, 800, "v", 24000], "internal_node_id": "0.0-87.0", "trial": 3, "time_elapsed": 713438, "serialpos": 6, "key_press": -1, "wordID": 529, "type": "PRES_VIS", "trial_index": 123}, "uniqueid": "MTK1472:3QJOXOW4XKY0A87D6ALHFHTM1HXEM7", "dateTime": 1515898189186}, {"current_trial": 124, "trialdata": {"rt": -1, "trial_type": "single-stim", "word": "airplane", "stimulus": "<p id=\"stim\">AIRPLANE</p>", "conditions": [24, 800, "v", 24000], "internal_node_id": "0.0-88.0", "trial": 3, "time_elapsed": 715058, "serialpos": 7, "key_press": -1, "wordID": 11, "type": "PRES_VIS", "trial_index": 124}, "uniqueid": "MTK1472:3QJOXOW4XKY0A87D6ALHFHTM1HXEM7", "dateTime": 1515898190805}, {"current_trial": 125, "trialdata": {"rt": -1, "trial_type": "single-stim", "word": "tablet", "stimulus": "<p id=\"stim\">TABLET</p>", "conditions": [24, 800, "v", 24000], "internal_node_id": "0.0-89.0", "trial": 3, "time_elapsed": 716771, "serialpos": 8, "key_press": -1, "wordID": 1426, "type": "PRES_VIS", "trial_index": 125}, "uniqueid": "MTK1472:3QJOXOW4XKY0A87D6ALHFHTM1HXEM7", "dateTime": 1515898192519}, {"current_trial": 126, "trialdata": {"rt": -1, "trial_type": "single-stim", "word": "picnic", "stimulus": "<p id=\"stim\">PICNIC</p>", "conditions": [24, 800, "v", 24000], "internal_node_id": "0.0-90.0", "trial": 3, "time_elapsed": 718752, "serialpos": 9, "key_press": -1, "wordID": 1059, "type": "PRES_VIS", "trial_index": 126}, "uniqueid": "MTK1472:3QJOXOW4XKY0A87D6ALHFHTM1HXEM7", "dateTime": 1515898194499}, {"current_trial": 127, "trialdata": {"rt": -1, "trial_type": "single-stim", "word": "brook", "stimulus": "<p id=\"stim\">BROOK</p>", "conditions": [24, 800, "v", 24000], "internal_node_id": "0.0-91.0", "trial": 3, "time_elapsed": 720724, "serialpos": 10, "key_press": -1, "wordID": 176, "type": "PRES_VIS", "trial_index": 127}, "uniqueid": "MTK1472:3QJOXOW4XKY0A87D6ALHFHTM1HXEM7", "dateTime": 1515898196471}, {"current_trial": 128, "trialdata": {"rt": -1, "trial_type": "single-stim", "word": "swamp", "stimulus": "<p id=\"stim\">SWAMP</p>", "conditions": [24, 800, "v", 24000], "internal_node_id": "0.0-92.0", "trial": 3, "time_elapsed": 722547, "serialpos": 11, "key_press": -1, "wordID": 1415, "type": "PRES_VIS", "trial_index": 128}, "uniqueid": "MTK1472:3QJOXOW4XKY0A87D6ALHFHTM1HXEM7", "dateTime": 1515898198294}, {"current_trial": 129, "trialdata": {"rt": -1, "trial_type": "single-stim", "word": "rooster", "stimulus": "<p id=\"stim\">ROOSTER</p>", "conditions": [24, 800, "v", 24000], "internal_node_id": "0.0-93.0", "trial": 3, "time_elapsed": 724554, "serialpos": 12, "key_press": -1, "wordID": 1208, "type": "PRES_VIS", "trial_index": 129}, "uniqueid": "MTK1472:3QJOXOW4XKY0A87D6ALHFHTM1HXEM7", "dateTime": 1515898200302}, {"current_trial": 130, "trialdata": {"rt": -1, "trial_type": "single-stim", "word": "seal", "stimulus": "<p id=\"stim\">SEAL</p>", "conditions": [24, 800, "v", 24000], "internal_node_id": "0.0-94.0", "trial": 3, "time_elapsed": 726252, "serialpos": 13, "key_press": -1, "wordID": 1261, "type": "PRES_VIS", "trial_index": 130}, "uniqueid": "MTK1472:3QJOXOW4XKY0A87D6ALHFHTM1HXEM7", "dateTime": 1515898202000}, {"current_trial": 131, "trialdata": {"rt": -1, "trial_type": "single-stim", "word": "icing", "stimulus": "<p id=\"stim\">ICING</p>", "conditions": [24, 800, "v", 24000], "internal_node_id": "0.0-95.0", "trial": 3, "time_elapsed": 728104, "serialpos": 14, "key_press": -1, "wordID": 731, "type": "PRES_VIS", "trial_index": 131}, "uniqueid": "MTK1472:3QJOXOW4XKY0A87D6ALHFHTM1HXEM7", "dateTime": 1515898203852}, {"current_trial": 132, "trialdata": {"rt": -1, "trial_type": "single-stim", "word": "parsley", "stimulus": "<p id=\"stim\">PARSLEY</p>", "conditions": [24, 800, "v", 24000], "internal_node_id": "0.0-96.0", "trial": 3, "time_elapsed": 729810, "serialpos": 15, "key_press": -1, "wordID": 1015, "type": "PRES_VIS", "trial_index": 132}, "uniqueid": "MTK1472:3QJOXOW4XKY0A87D6ALHFHTM1HXEM7", "dateTime": 1515898205558}, {"current_trial": 133, "trialdata": {"rt": -1, "trial_type": "single-stim", "word": "radish", "stimulus": "<p id=\"stim\">RADISH</p>", "conditions": [24, 800, "v", 24000], "internal_node_id": "0.0-97.0", "trial": 3, "time_elapsed": 731759, "serialpos": 16, "key_press": -1, "wordID": 1157, "type": "PRES_VIS", "trial_index": 133}, "uniqueid": "MTK1472:3QJOXOW4XKY0A87D6ALHFHTM1HXEM7", "dateTime": 1515898207507}, {"current_trial": 134, "trialdata": {"rt": -1, "trial_type": "single-stim", "word": "atom", "stimulus": "<p id=\"stim\">ATOM</p>", "conditions": [24, 800, "v", 24000], "internal_node_id": "0.0-98.0", "trial": 3, "time_elapsed": 733406, "serialpos": 17, "key_press": -1, "wordID": 54, "type": "PRES_VIS", "trial_index": 134}, "uniqueid": "MTK1472:3QJOXOW4XKY0A87D6ALHFHTM1HXEM7", "dateTime": 1515898209154}, {"current_trial": 135, "trialdata": {"rt": -1, "trial_type": "single-stim", "word": "student", "stimulus": "<p id=\"stim\">STUDENT</p>", "conditions": [24, 800, "v", 24000], "internal_node_id": "0.0-99.0", "trial": 3, "time_elapsed": 735371, "serialpos": 18, "key_press": -1, "wordID": 1394, "type": "PRES_VIS", "trial_index": 135}, "uniqueid": "MTK1472:3QJOXOW4XKY0A87D6ALHFHTM1HXEM7", "dateTime": 1515898211119}, {"current_trial": 136, "trialdata": {"rt": -1, "trial_type": "single-stim", "word": "college", "stimulus": "<p id=\"stim\">COLLEGE</p>", "conditions": [24, 800, "v", 24000], "internal_node_id": "0.0-100.0", "trial": 3, "time_elapsed": 737198, "serialpos": 19, "key_press": -1, "wordID": 345, "type": "PRES_VIS", "trial_index": 136}, "uniqueid": "MTK1472:3QJOXOW4XKY0A87D6ALHFHTM1HXEM7", "dateTime": 1515898212946}, {"current_trial": 137, "trialdata": {"rt": -1, "trial_type": "single-stim", "word": "friend", "stimulus": "<p id=\"stim\">FRIEND</p>", "conditions": [24, 800, "v", 24000], "internal_node_id": "0.0-101.0", "trial": 3, "time_elapsed": 738968, "serialpos": 20, "key_press": -1, "wordID": 605, "type": "PRES_VIS", "trial_index": 137}, "uniqueid": "MTK1472:3QJOXOW4XKY0A87D6ALHFHTM1HXEM7", "dateTime": 1515898214715}, {"current_trial": 138, "trialdata": {"rt": -1, "trial_type": "single-stim", "word": "japan", "stimulus": "<p id=\"stim\">JAPAN</p>", "conditions": [24, 800, "v", 24000], "internal_node_id": "0.0-102.0", "trial": 3, "time_elapsed": 740920, "serialpos": 21, "key_press": -1, "wordID": 748, "type": "PRES_VIS", "trial_index": 138}, "uniqueid": "MTK1472:3QJOXOW4XKY0A87D6ALHFHTM1HXEM7", "dateTime": 1515898216668}, {"current_trial": 139, "trialdata": {"rt": -1, "trial_type": "single-stim", "word": "eyelash", "stimulus": "<p id=\"stim\">EYELASH</p>", "conditions": [24, 800, "v", 24000], "internal_node_id": "0.0-103.0", "trial": 3, "time_elapsed": 742738, "serialpos": 22, "key_press": -1, "wordID": 545, "type": "PRES_VIS", "trial_index": 139}, "uniqueid": "MTK1472:3QJOXOW4XKY0A87D6ALHFHTM1HXEM7", "dateTime": 1515898218486}, {"current_trial": 140, "trialdata": {"rt": -1, "trial_type": "single-stim", "word": "teacher", "stimulus": "<p id=\"stim\">TEACHER</p>", "conditions": [24, 800, "v", 24000], "internal_node_id": "0.0-104.0", "trial": 3, "time_elapsed": 744693, "serialpos": 23, "key_press": -1, "wordID": 1439, "type": "PRES_VIS", "trial_index": 140}, "uniqueid": "MTK1472:3QJOXOW4XKY0A87D6ALHFHTM1HXEM7", "dateTime": 1515898220440}, {"current_trial": 141, "trialdata": {"rt": -1, "trial_type": "single-stim", "stimulus": "", "internal_node_id": "0.0-105.0-0.0", "time_elapsed": 746899, "key_press": -1, "type": "PRE_RECALL_DELAY", "trial_index": 141}, "uniqueid": "MTK1472:3QJOXOW4XKY0A87D6ALHFHTM1HXEM7", "dateTime": 1515898222646}, {"current_trial": 142, "trialdata": {"rt": -1000, "trial_type": "single-audio", "stimulus": "/static/audio/400Hz.wav", "internal_node_id": "0.0-106.0", "time_elapsed": 747402, "key_press": -1, "type": "PRE_RECALL_ALERT", "trial_index": 142}, "uniqueid": "MTK1472:3QJOXOW4XKY0A87D6ALHFHTM1HXEM7", "dateTime": 1515898223149}, {"current_trial": 143, "trialdata": {"rt": [4848, 10104, 11955, 13760, 16736, 19099, 23495, 28883, 33855, 40972, 46056, 49791], "recwords": ["parsley", "ketchup", "radish", "friend", "teacher", "college", "student", "globe", "atom", "necklace", "handbag", "eyelash"], "key_times": [2148, 2463, 2807, 3145, 3459, 3549, 4199, 4848, 6795, 6943, 7187, 7375, 7711, 8016, 9808, 10104, 10658, 10933, 11144, 11274, 11379, 11553, 11955, 12662, 12837, 12985, 13086, 13218, 13422, 13760, 14536, 15141, 15589, 16050, 16247, 16383, 16577, 16736, 17107, 17293, 17489, 17634, 17891, 18067, 18509, 19099, 21712, 21827, 22116, 22294, 22498, 22648, 22880, 23495, 27372, 27906, 28084, 28422, 28572, 28883, 32229, 32326, 32863, 33256, 33855, 38790, 38928, 39263, 39486, 40077, 40195, 40451, 40670, 40972, 43508, 43632, 43782, 44432, 44990, 45155, 45458, 46056, 47358, 47586, 47779, 48268, 48552, 48770, 49299, 49791, 53114, 53379, 53867, 54216, 54369, 54474, 57877, 58055, 58215, 58374], "trial_type": "free-recall", "conditions": [24, 800, "v", 24000], "internal_node_id": "0.0-107.0-0.0", "key_presses": [80, 65, 82, 83, 76, 69, 89, 13, 75, 69, 84, 67, 72, 85, 80, 13, 82, 65, 68, 73, 83, 72, 13, 70, 82, 73, 69, 78, 68, 13, 84, 69, 65, 67, 72, 69, 82, 13, 67, 79, 76, 76, 69, 71, 69, 13, 83, 84, 85, 68, 69, 78, 84, 13, 71, 76, 79, 66, 69, 13, 65, 84, 79, 77, 13, 78, 69, 67, 75, 76, 65, 67, 69, 13, 72, 65, 78, 68, 66, 65, 71, 13, 69, 89, 69, 76, 65, 83, 72, 13, 82, 73, 8, 85, 83, 84, 8, 8, 8, 8], "trial": 3, "time_elapsed": 807408, "type": "FREE_RECALL", "trial_index": 143}, "uniqueid": "MTK1472:3QJOXOW4XKY0A87D6ALHFHTM1HXEM7", "dateTime": 1515898283162}, {"current_trial": 144, "trialdata": {"rt": 9695, "trial_type": "text", "internal_node_id": "0.0-108.0", "time_elapsed": 819114, "key_press": 32, "type": "INSTRUCTIONS", "trial_index": 144}, "uniqueid": "MTK1472:3QJOXOW4XKY0A87D6ALHFHTM1HXEM7", "dateTime": 1515898294861}, {"current_trial": 145, "trialdata": {"rt": [2991, 6816, 10592], "trial_type": "math-distractor", "key_times": [2156, 2358, 2991, 6439, 6628, 6816, 9960, 10347, 10592], "responses": ["10", "21", "20"], "num2": [2, 8, 5, 4], "num3": [3, 5, 8, 6], "conditions": [24, 800, "v", 12000], "internal_node_id": "0.0-109.0", "key_presses": [49, 48, 13, 50, 49, 13, 50, 48, 13], "trial": 4, "time_elapsed": 833128, "type": "DISTRACTOR", "trial_index": 145, "num1": [5, 8, 7, 8]}, "uniqueid": "MTK1472:3QJOXOW4XKY0A87D6ALHFHTM1HXEM7", "dateTime": 1515898308875}, {"current_trial": 146, "trialdata": {"rt": -1, "trial_type": "single-stim", "stimulus": "<p id=\"stim\">10</p>", "internal_node_id": "0.0-110.0-0.0", "time_elapsed": 836142, "key_press": -1, "trial_index": 146}, "uniqueid": "MTK1472:3QJOXOW4XKY0A87D6ALHFHTM1HXEM7", "dateTime": 1515898311889}, {"current_trial": 147, "trialdata": {"rt": -1, "trial_type": "single-stim", "stimulus": "<p id=\"stim\">9</p>", "internal_node_id": "0.0-110.0-1.0", "time_elapsed": 837146, "key_press": -1, "trial_index": 147}, "uniqueid": "MTK1472:3QJOXOW4XKY0A87D6ALHFHTM1HXEM7", "dateTime": 1515898312893}, {"current_trial": 148, "trialdata": {"rt": -1, "trial_type": "single-stim", "stimulus": "<p id=\"stim\">8</p>", "internal_node_id": "0.0-110.0-2.0", "time_elapsed": 838151, "key_press": -1, "trial_index": 148}, "uniqueid": "MTK1472:3QJOXOW4XKY0A87D6ALHFHTM1HXEM7", "dateTime": 1515898313898}, {"current_trial": 149, "trialdata": {"rt": -1, "trial_type": "single-stim", "stimulus": "<p id=\"stim\">7</p>", "internal_node_id": "0.0-110.0-3.0", "time_elapsed": 839154, "key_press": -1, "trial_index": 149}, "uniqueid": "MTK1472:3QJOXOW4XKY0A87D6ALHFHTM1HXEM7", "dateTime": 1515898314902}, {"current_trial": 150, "trialdata": {"rt": -1, "trial_type": "single-stim", "stimulus": "<p id=\"stim\">6</p>", "internal_node_id": "0.0-110.0-4.0", "time_elapsed": 840157, "key_press": -1, "trial_index": 150}, "uniqueid": "MTK1472:3QJOXOW4XKY0A87D6ALHFHTM1HXEM7", "dateTime": 1515898315905}, {"current_trial": 151, "trialdata": {"rt": -1, "trial_type": "single-stim", "stimulus": "<p id=\"stim\">5</p>", "internal_node_id": "0.0-110.0-5.0", "time_elapsed": 841160, "key_press": -1, "trial_index": 151}, "uniqueid": "MTK1472:3QJOXOW4XKY0A87D6ALHFHTM1HXEM7", "dateTime": 1515898316907}, {"current_trial": 152, "trialdata": {"rt": -1, "trial_type": "single-stim", "stimulus": "<p id=\"stim\">4</p>", "internal_node_id": "0.0-110.0-6.0", "time_elapsed": 842163, "key_press": -1, "trial_index": 152}, "uniqueid": "MTK1472:3QJOXOW4XKY0A87D6ALHFHTM1HXEM7", "dateTime": 1515898317910}, {"current_trial": 153, "trialdata": {"rt": -1, "trial_type": "single-stim", "stimulus": "<p id=\"stim\">3</p>", "internal_node_id": "0.0-110.0-7.0", "time_elapsed": 843165, "key_press": -1, "trial_index": 153}, "uniqueid": "MTK1472:3QJOXOW4XKY0A87D6ALHFHTM1HXEM7", "dateTime": 1515898318912}, {"current_trial": 154, "trialdata": {"rt": -1, "trial_type": "single-stim", "stimulus": "<p id=\"stim\">2</p>", "internal_node_id": "0.0-110.0-8.0", "time_elapsed": 844169, "key_press": -1, "trial_index": 154}, "uniqueid": "MTK1472:3QJOXOW4XKY0A87D6ALHFHTM1HXEM7", "dateTime": 1515898319916}, {"current_trial": 155, "trialdata": {"rt": -1, "trial_type": "single-stim", "stimulus": "<p id=\"stim\">1</p>", "internal_node_id": "0.0-110.0-9.0", "time_elapsed": 845172, "key_press": -1, "trial_index": 155}, "uniqueid": "MTK1472:3QJOXOW4XKY0A87D6ALHFHTM1HXEM7", "dateTime": 1515898320919}, {"current_trial": 156, "trialdata": {"rt": -1, "trial_type": "single-stim", "stimulus": "<p id=\"stim\">+</p>", "internal_node_id": "0.0-111.0-0.0", "time_elapsed": 846676, "key_press": -1, "type": "FIXATION", "trial_index": 156}, "uniqueid": "MTK1472:3QJOXOW4XKY0A87D6ALHFHTM1HXEM7", "dateTime": 1515898322424}, {"current_trial": 157, "trialdata": {"rt": -1, "trial_type": "single-stim", "word": "lagoon", "stimulus": "<p id=\"stim\">LAGOON</p>", "conditions": [24, 800, "v", 12000], "internal_node_id": "0.0-112.0", "trial": 4, "time_elapsed": 847480, "serialpos": 0, "key_press": -1, "wordID": 794, "type": "PRES_VIS", "trial_index": 157}, "uniqueid": "MTK1472:3QJOXOW4XKY0A87D6ALHFHTM1HXEM7", "dateTime": 1515898323227}, {"current_trial": 158, "trialdata": {"rt": -1, "trial_type": "single-stim", "word": "headband", "stimulus": "<p id=\"stim\">HEADBAND</p>", "conditions": [24, 800, "v", 12000], "internal_node_id": "0.0-113.0", "trial": 4, "time_elapsed": 849450, "serialpos": 1, "key_press": -1, "wordID": 695, "type": "PRES_VIS", "trial_index": 158}, "uniqueid": "MTK1472:3QJOXOW4XKY0A87D6ALHFHTM1HXEM7", "dateTime": 1515898325198}, {"current_trial": 159, "trialdata": {"rt": -1, "trial_type": "single-stim", "word": "actress", "stimulus": "<p id=\"stim\">ACTRESS</p>", "conditions": [24, 800, "v", 12000], "internal_node_id": "0.0-114.0", "trial": 4, "time_elapsed": 851287, "serialpos": 2, "key_press": -1, "wordID": 5, "type": "PRES_VIS", "trial_index": 159}, "uniqueid": "MTK1472:3QJOXOW4XKY0A87D6ALHFHTM1HXEM7", "dateTime": 1515898327034}, {"current_trial": 160, "trialdata": {"rt": -1, "trial_type": "single-stim", "word": "laser", "stimulus": "<p id=\"stim\">LASER</p>", "conditions": [24, 800, "v", 12000], "internal_node_id": "0.0-115.0", "trial": 4, "time_elapsed": 853090, "serialpos": 3, "key_press": -1, "wordID": 800, "type": "PRES_VIS", "trial_index": 160}, "uniqueid": "MTK1472:3QJOXOW4XKY0A87D6ALHFHTM1HXEM7", "dateTime": 1515898328837}, {"current_trial": 161, "trialdata": {"rt": -1, "trial_type": "single-stim", "word": "robin", "stimulus": "<p id=\"stim\">ROBIN</p>", "conditions": [24, 800, "v", 12000], "internal_node_id": "0.0-116.0", "trial": 4, "time_elapsed": 854784, "serialpos": 4, "key_press": -1, "wordID": 1198, "type": "PRES_VIS", "trial_index": 161}, "uniqueid": "MTK1472:3QJOXOW4XKY0A87D6ALHFHTM1HXEM7", "dateTime": 1515898330531}, {"current_trial": 162, "trialdata": {"rt": -1, "trial_type": "single-stim", "word": "sparrow", "stimulus": "<p id=\"stim\">SPARROW</p>", "conditions": [24, 800, "v", 12000], "internal_node_id": "0.0-117.0", "trial": 4, "time_elapsed": 856780, "serialpos": 5, "key_press": -1, "wordID": 1346, "type": "PRES_VIS", "trial_index": 162}, "uniqueid": "MTK1472:3QJOXOW4XKY0A87D6ALHFHTM1HXEM7", "dateTime": 1515898332528}, {"current_trial": 163, "trialdata": {"rt": -1, "trial_type": "single-stim", "word": "critic", "stimulus": "<p id=\"stim\">CRITIC</p>", "conditions": [24, 800, "v", 12000], "internal_node_id": "0.0-118.0", "trial": 4, "time_elapsed": 858432, "serialpos": 6, "key_press": -1, "wordID": 409, "type": "PRES_VIS", "trial_index": 163}, "uniqueid": "MTK1472:3QJOXOW4XKY0A87D6ALHFHTM1HXEM7", "dateTime": 1515898334180}, {"current_trial": 164, "trialdata": {"rt": -1, "trial_type": "single-stim", "word": "rabbit", "stimulus": "<p id=\"stim\">RABBIT</p>", "conditions": [24, 800, "v", 12000], "internal_node_id": "0.0-119.0", "trial": 4, "time_elapsed": 860418, "serialpos": 7, "key_press": -1, "wordID": 1151, "type": "PRES_VIS", "trial_index": 164}, "uniqueid": "MTK1472:3QJOXOW4XKY0A87D6ALHFHTM1HXEM7", "dateTime": 1515898336165}, {"current_trial": 165, "trialdata": {"rt": -1, "trial_type": "single-stim", "word": "wagon", "stimulus": "<p id=\"stim\">WAGON</p>", "conditions": [24, 800, "v", 12000], "internal_node_id": "0.0-120.0", "trial": 4, "time_elapsed": 862130, "serialpos": 8, "key_press": -1, "wordID": 1577, "type": "PRES_VIS", "trial_index": 165}, "uniqueid": "MTK1472:3QJOXOW4XKY0A87D6ALHFHTM1HXEM7", "dateTime": 1515898337877}, {"current_trial": 166, "trialdata": {"rt": -1, "trial_type": "single-stim", "word": "egypt", "stimulus": "<p id=\"stim\">EGYPT</p>", "conditions": [24, 800, "v", 12000], "internal_node_id": "0.0-121.0", "trial": 4, "time_elapsed": 863752, "serialpos": 9, "key_press": -1, "wordID": 518, "type": "PRES_VIS", "trial_index": 166}, "uniqueid": "MTK1472:3QJOXOW4XKY0A87D6ALHFHTM1HXEM7", "dateTime": 1515898339499}, {"current_trial": 167, "trialdata": {"rt": -1, "trial_type": "single-stim", "word": "camel", "stimulus": "<p id=\"stim\">CAMEL</p>", "conditions": [24, 800, "v", 12000], "internal_node_id": "0.0-122.0", "trial": 4, "time_elapsed": 865757, "serialpos": 10, "key_press": -1, "wordID": 222, "type": "PRES_VIS", "trial_index": 167}, "uniqueid": "MTK1472:3QJOXOW4XKY0A87D6ALHFHTM1HXEM7", "dateTime": 1515898341504}, {"current_trial": 168, "trialdata": {"rt": -1, "trial_type": "single-stim", "word": "beaver", "stimulus": "<p id=\"stim\">BEAVER</p>", "conditions": [24, 800, "v", 12000], "internal_node_id": "0.0-123.0", "trial": 4, "time_elapsed": 867686, "serialpos": 11, "key_press": -1, "wordID": 108, "type": "PRES_VIS", "trial_index": 168}, "uniqueid": "MTK1472:3QJOXOW4XKY0A87D6ALHFHTM1HXEM7", "dateTime": 1515898343433}, {"current_trial": 169, "trialdata": {"rt": -1, "trial_type": "single-stim", "word": "lumber", "stimulus": "<p id=\"stim\">LUMBER</p>", "conditions": [24, 800, "v", 12000], "internal_node_id": "0.0-124.0", "trial": 4, "time_elapsed": 869576, "serialpos": 12, "key_press": -1, "wordID": 847, "type": "PRES_VIS", "trial_index": 169}, "uniqueid": "MTK1472:3QJOXOW4XKY0A87D6ALHFHTM1HXEM7", "dateTime": 1515898345323}, {"current_trial": 170, "trialdata": {"rt": -1, "trial_type": "single-stim", "word": "catcher", "stimulus": "<p id=\"stim\">CATCHER</p>", "conditions": [24, 800, "v", 12000], "internal_node_id": "0.0-125.0", "trial": 4, "time_elapsed": 871476, "serialpos": 13, "key_press": -1, "wordID": 257, "type": "PRES_VIS", "trial_index": 170}, "uniqueid": "MTK1472:3QJOXOW4XKY0A87D6ALHFHTM1HXEM7", "dateTime": 1515898347223}, {"current_trial": 171, "trialdata": {"rt": -1, "trial_type": "single-stim", "word": "pigment", "stimulus": "<p id=\"stim\">PIGMENT</p>", "conditions": [24, 800, "v", 12000], "internal_node_id": "0.0-126.0", "trial": 4, "time_elapsed": 873140, "serialpos": 14, "key_press": -1, "wordID": 1065, "type": "PRES_VIS", "trial_index": 171}, "uniqueid": "MTK1472:3QJOXOW4XKY0A87D6ALHFHTM1HXEM7", "dateTime": 1515898348887}, {"current_trial": 172, "trialdata": {"rt": -1, "trial_type": "single-stim", "word": "pepper", "stimulus": "<p id=\"stim\">PEPPER</p>", "conditions": [24, 800, "v", 12000], "internal_node_id": "0.0-127.0", "trial": 4, "time_elapsed": 874764, "serialpos": 15, "key_press": -1, "wordID": 1046, "type": "PRES_VIS", "trial_index": 172}, "uniqueid": "MTK1472:3QJOXOW4XKY0A87D6ALHFHTM1HXEM7", "dateTime": 1515898350511}, {"current_trial": 173, "trialdata": {"rt": -1, "trial_type": "single-stim", "word": "clam", "stimulus": "<p id=\"stim\">CLAM</p>", "conditions": [24, 800, "v", 12000], "internal_node_id": "0.0-128.0", "trial": 4, "time_elapsed": 876592, "serialpos": 16, "key_press": -1, "wordID": 314, "type": "PRES_VIS", "trial_index": 173}, "uniqueid": "MTK1472:3QJOXOW4XKY0A87D6ALHFHTM1HXEM7", "dateTime": 1515898352339}, {"current_trial": 174, "trialdata": {"rt": -1, "trial_type": "single-stim", "word": "grill", "stimulus": "<p id=\"stim\">GRILL</p>", "conditions": [24, 800, "v", 12000], "internal_node_id": "0.0-129.0", "trial": 4, "time_elapsed": 878235, "serialpos": 17, "key_press": -1, "wordID": 660, "type": "PRES_VIS", "trial_index": 174}, "uniqueid": "MTK1472:3QJOXOW4XKY0A87D6ALHFHTM1HXEM7", "dateTime": 1515898353982}, {"current_trial": 175, "trialdata": {"rt": -1, "trial_type": "single-stim", "word": "driver", "stimulus": "<p id=\"stim\">DRIVER</p>", "conditions": [24, 800, "v", 12000], "internal_node_id": "0.0-130.0", "trial": 4, "time_elapsed": 880005, "serialpos": 18, "key_press": -1, "wordID": 498, "type": "PRES_VIS", "trial_index": 175}, "uniqueid": "MTK1472:3QJOXOW4XKY0A87D6ALHFHTM1HXEM7", "dateTime": 1515898355752}, {"current_trial": 176, "trialdata": {"rt": -1, "trial_type": "single-stim", "word": "diver", "stimulus": "<p id=\"stim\">DIVER</p>", "conditions": [24, 800, "v", 12000], "internal_node_id": "0.0-131.0", "trial": 4, "time_elapsed": 881946, "serialpos": 19, "key_press": -1, "wordID": 475, "type": "PRES_VIS", "trial_index": 176}, "uniqueid": "MTK1472:3QJOXOW4XKY0A87D6ALHFHTM1HXEM7", "dateTime": 1515898357694}, {"current_trial": 177, "trialdata": {"rt": -1, "trial_type": "single-stim", "word": "crab", "stimulus": "<p id=\"stim\">CRAB</p>", "conditions": [24, 800, "v", 12000], "internal_node_id": "0.0-132.0", "trial": 4, "time_elapsed": 883649, "serialpos": 20, "key_press": -1, "wordID": 396, "type": "PRES_VIS", "trial_index": 177}, "uniqueid": "MTK1472:3QJOXOW4XKY0A87D6ALHFHTM1HXEM7", "dateTime": 1515898359396}, {"current_trial": 178, "trialdata": {"rt": -1, "trial_type": "single-stim", "word": "razor", "stimulus": "<p id=\"stim\">RAZOR</p>", "conditions": [24, 800, "v", 12000], "internal_node_id": "0.0-133.0", "trial": 4, "time_elapsed": 885646, "serialpos": 21, "key_press": -1, "wordID": 1170, "type": "PRES_VIS", "trial_index": 178}, "uniqueid": "MTK1472:3QJOXOW4XKY0A87D6ALHFHTM1HXEM7", "dateTime": 1515898361393}, {"current_trial": 179, "trialdata": {"rt": -1, "trial_type": "single-stim", "word": "patient", "stimulus": "<p id=\"stim\">PATIENT</p>", "conditions": [24, 800, "v", 12000], "internal_node_id": "0.0-134.0", "trial": 4, "time_elapsed": 887490, "serialpos": 22, "key_press": -1, "wordID": 1023, "type": "PRES_VIS", "trial_index": 179}, "uniqueid": "MTK1472:3QJOXOW4XKY0A87D6ALHFHTM1HXEM7", "dateTime": 1515898363238}, {"current_trial": 180, "trialdata": {"rt": -1, "trial_type": "single-stim", "word": "nurse", "stimulus": "<p id=\"stim\">NURSE</p>", "conditions": [24, 800, "v", 12000], "internal_node_id": "0.0-135.0", "trial": 4, "time_elapsed": 889491, "serialpos": 23, "key_press": -1, "wordID": 962, "type": "PRES_VIS", "trial_index": 180}, "uniqueid": "MTK1472:3QJOXOW4XKY0A87D6ALHFHTM1HXEM7", "dateTime": 1515898365239}, {"current_trial": 181, "trialdata": {"rt": -1, "trial_type": "single-stim", "stimulus": "", "internal_node_id": "0.0-136.0-0.0", "time_elapsed": 891952, "key_press": -1, "type": "PRE_RECALL_DELAY", "trial_index": 181}, "uniqueid": "MTK1472:3QJOXOW4XKY0A87D6ALHFHTM1HXEM7", "dateTime": 1515898367699}, {"current_trial": 182, "trialdata": {"rt": -1000, "trial_type": "single-audio", "stimulus": "/static/audio/400Hz.wav", "internal_node_id": "0.0-137.0", "time_elapsed": 892455, "key_press": -1, "type": "PRE_RECALL_ALERT", "trial_index": 182}, "uniqueid": "MTK1472:3QJOXOW4XKY0A87D6ALHFHTM1HXEM7", "dateTime": 1515898368202}, {"current_trial": 183, "trialdata": {"rt": [3699, 8692, 10158, 12052, 15435, 25558, 27367, 30148, 31825, 35378, 37603, 39958, 43337, 52821, 54780], "recwords": ["patient", "nurse", "clam", "pepper", "beaver", "egypt", "camel", "wagon", "driver", "crab", "grill", "razor", "lumber", "lagoon", "nurse"], "key_times": [1556, 1877, 2174, 2743, 2857, 2979, 3195, 3699, 4222, 4398, 4590, 4992, 5172, 8692, 9439, 9603, 9768, 9920, 10158, 10629, 10763, 10907, 11041, 11162, 11369, 12052, 13270, 13395, 13657, 13759, 13947, 14153, 15435, 23353, 23918, 24318, 24882, 25238, 25558, 25789, 26031, 26192, 26313, 26789, 27367, 28640, 28861, 29091, 29509, 29706, 30148, 30659, 30861, 31059, 31296, 31424, 31630, 31825, 34301, 34519, 34885, 35026, 35378, 35851, 36224, 36490, 36743, 36900, 37603, 38483, 38823, 39254, 39444, 39716, 39958, 41809, 42056, 42280, 42510, 42757, 43016, 43337, 51151, 51491, 51862, 52046, 52201, 52448, 52821, 53417, 53612, 53752, 54052, 54264, 54780], "trial_type": "free-recall", "conditions": [24, 800, "v", 12000], "internal_node_id": "0.0-138.0-0.0", "key_presses": [80, 65, 84, 73, 69, 78, 84, 13, 78, 85, 82, 83, 69, 13, 67, 76, 65, 77, 13, 80, 69, 80, 80, 69, 82, 13, 66, 69, 65, 86, 69, 82, 13, 69, 71, 89, 80, 84, 13, 67, 65, 77, 69, 76, 13, 87, 65, 71, 79, 78, 13, 68, 82, 73, 86, 69, 82, 13, 67, 82, 65, 66, 13, 71, 82, 73, 76, 76, 13, 82, 65, 90, 79, 82, 13, 76, 85, 77, 66, 69, 82, 13, 76, 65, 71, 79, 79, 78, 13, 78, 85, 82, 83, 69, 13], "trial": 4, "time_elapsed": 952461, "type": "FREE_RECALL", "trial_index": 183}, "uniqueid": "MTK1472:3QJOXOW4XKY0A87D6ALHFHTM1HXEM7", "dateTime": 1515898428223}, {"current_trial": 184, "trialdata": {"rt": 2682, "trial_type": "text", "internal_node_id": "0.0-139.0", "time_elapsed": 957160, "key_press": 32, "type": "INSTRUCTIONS", "trial_index": 184}, "uniqueid": "MTK1472:3QJOXOW4XKY0A87D6ALHFHTM1HXEM7", "dateTime": 1515898432908}, {"current_trial": 185, "trialdata": {"rt": [6405, 10032, 13628, 17376, 23563], "trial_type": "math-distractor", "key_times": [5844, 6024, 6405, 9049, 9265, 10032, 13055, 13395, 13628, 16679, 17153, 17376, 21881, 22235, 23563], "responses": ["23", "15", "14", "20", "20"], "num2": [8, 6, 7, 4, 9, 4], "num3": [7, 4, 2, 9, 2, 3], "conditions": [12, 800, "v", 24000], "internal_node_id": "0.0-140.0", "key_presses": [50, 51, 13, 49, 53, 13, 49, 52, 13, 50, 48, 13, 50, 48, 13], "trial": 5, "time_elapsed": 983171, "type": "DISTRACTOR", "trial_index": 185, "num1": [8, 5, 5, 7, 9, 9]}, "uniqueid": "MTK1472:3QJOXOW4XKY0A87D6ALHFHTM1HXEM7", "dateTime": 1515898458918}, {"current_trial": 186, "trialdata": {"rt": -1, "trial_type": "single-stim", "stimulus": "<p id=\"stim\">10</p>", "internal_node_id": "0.0-141.0-0.0", "time_elapsed": 986176, "key_press": -1, "trial_index": 186}, "uniqueid": "MTK1472:3QJOXOW4XKY0A87D6ALHFHTM1HXEM7", "dateTime": 1515898461923}, {"current_trial": 187, "trialdata": {"rt": -1, "trial_type": "single-stim", "stimulus": "<p id=\"stim\">9</p>", "internal_node_id": "0.0-141.0-1.0", "time_elapsed": 987181, "key_press": -1, "trial_index": 187}, "uniqueid": "MTK1472:3QJOXOW4XKY0A87D6ALHFHTM1HXEM7", "dateTime": 1515898462929}, {"current_trial": 188, "trialdata": {"rt": -1, "trial_type": "single-stim", "stimulus": "<p id=\"stim\">8</p>", "internal_node_id": "0.0-141.0-2.0", "time_elapsed": 988185, "key_press": -1, "trial_index": 188}, "uniqueid": "MTK1472:3QJOXOW4XKY0A87D6ALHFHTM1HXEM7", "dateTime": 1515898463933}, {"current_trial": 189, "trialdata": {"rt": -1, "trial_type": "single-stim", "stimulus": "<p id=\"stim\">7</p>", "internal_node_id": "0.0-141.0-3.0", "time_elapsed": 989188, "key_press": -1, "trial_index": 189}, "uniqueid": "MTK1472:3QJOXOW4XKY0A87D6ALHFHTM1HXEM7", "dateTime": 1515898464935}, {"current_trial": 190, "trialdata": {"rt": -1, "trial_type": "single-stim", "stimulus": "<p id=\"stim\">6</p>", "internal_node_id": "0.0-141.0-4.0", "time_elapsed": 990191, "key_press": -1, "trial_index": 190}, "uniqueid": "MTK1472:3QJOXOW4XKY0A87D6ALHFHTM1HXEM7", "dateTime": 1515898465938}, {"current_trial": 191, "trialdata": {"rt": -1, "trial_type": "single-stim", "stimulus": "<p id=\"stim\">5</p>", "internal_node_id": "0.0-141.0-5.0", "time_elapsed": 991194, "key_press": -1, "trial_index": 191}, "uniqueid": "MTK1472:3QJOXOW4XKY0A87D6ALHFHTM1HXEM7", "dateTime": 1515898466941}, {"current_trial": 192, "trialdata": {"rt": -1, "trial_type": "single-stim", "stimulus": "<p id=\"stim\">4</p>", "internal_node_id": "0.0-141.0-6.0", "time_elapsed": 992197, "key_press": -1, "trial_index": 192}, "uniqueid": "MTK1472:3QJOXOW4XKY0A87D6ALHFHTM1HXEM7", "dateTime": 1515898467944}, {"current_trial": 193, "trialdata": {"rt": -1, "trial_type": "single-stim", "stimulus": "<p id=\"stim\">3</p>", "internal_node_id": "0.0-141.0-7.0", "time_elapsed": 993201, "key_press": -1, "trial_index": 193}, "uniqueid": "MTK1472:3QJOXOW4XKY0A87D6ALHFHTM1HXEM7", "dateTime": 1515898468951}, {"current_trial": 194, "trialdata": {"rt": -1, "trial_type": "single-stim", "stimulus": "<p id=\"stim\">2</p>", "internal_node_id": "0.0-141.0-8.0", "time_elapsed": 994208, "key_press": -1, "trial_index": 194}, "uniqueid": "MTK1472:3QJOXOW4XKY0A87D6ALHFHTM1HXEM7", "dateTime": 1515898469955}, {"current_trial": 195, "trialdata": {"rt": -1, "trial_type": "single-stim", "stimulus": "<p id=\"stim\">1</p>", "internal_node_id": "0.0-141.0-9.0", "time_elapsed": 995212, "key_press": -1, "trial_index": 195}, "uniqueid": "MTK1472:3QJOXOW4XKY0A87D6ALHFHTM1HXEM7", "dateTime": 1515898470960}, {"current_trial": 196, "trialdata": {"rt": -1, "trial_type": "single-stim", "stimulus": "<p id=\"stim\">+</p>", "internal_node_id": "0.0-142.0-0.0", "time_elapsed": 996718, "key_press": -1, "type": "FIXATION", "trial_index": 196}, "uniqueid": "MTK1472:3QJOXOW4XKY0A87D6ALHFHTM1HXEM7", "dateTime": 1515898472465}, {"current_trial": 197, "trialdata": {"rt": -1, "trial_type": "single-stim", "word": "rocket", "stimulus": "<p id=\"stim\">ROCKET</p>", "conditions": [12, 800, "v", 24000], "internal_node_id": "0.0-143.0", "trial": 5, "time_elapsed": 997521, "serialpos": 0, "key_press": -1, "wordID": 1201, "type": "PRES_VIS", "trial_index": 197}, "uniqueid": "MTK1472:3QJOXOW4XKY0A87D6ALHFHTM1HXEM7", "dateTime": 1515898473268}, {"current_trial": 198, "trialdata": {"rt": -1, "trial_type": "single-stim", "word": "slide", "stimulus": "<p id=\"stim\">SLIDE</p>", "conditions": [12, 800, "v", 24000], "internal_node_id": "0.0-144.0", "trial": 5, "time_elapsed": 999303, "serialpos": 1, "key_press": -1, "wordID": 1325, "type": "PRES_VIS", "trial_index": 198}, "uniqueid": "MTK1472:3QJOXOW4XKY0A87D6ALHFHTM1HXEM7", "dateTime": 1515898475050}, {"current_trial": 199, "trialdata": {"rt": -1, "trial_type": "single-stim", "word": "diner", "stimulus": "<p id=\"stim\">DINER</p>", "conditions": [12, 800, "v", 24000], "internal_node_id": "0.0-145.0", "trial": 5, "time_elapsed": 1000946, "serialpos": 2, "key_press": -1, "wordID": 466, "type": "PRES_VIS", "trial_index": 199}, "uniqueid": "MTK1472:3QJOXOW4XKY0A87D6ALHFHTM1HXEM7", "dateTime": 1515898476694}, {"current_trial": 200, "trialdata": {"rt": -1, "trial_type": "single-stim", "word": "robber", "stimulus": "<p id=\"stim\">ROBBER</p>", "conditions": [12, 800, "v", 24000], "internal_node_id": "0.0-146.0", "trial": 5, "time_elapsed": 1002626, "serialpos": 3, "key_press": -1, "wordID": 1196, "type": "PRES_VIS", "trial_index": 200}, "uniqueid": "MTK1472:3QJOXOW4XKY0A87D6ALHFHTM1HXEM7", "dateTime": 1515898478374}, {"current_trial": 201, "trialdata": {"rt": -1, "trial_type": "single-stim", "word": "thief", "stimulus": "<p id=\"stim\">THIEF</p>", "conditions": [12, 800, "v", 24000], "internal_node_id": "0.0-147.0", "trial": 5, "time_elapsed": 1004359, "serialpos": 4, "key_press": -1, "wordID": 1455, "type": "PRES_VIS", "trial_index": 201}, "uniqueid": "MTK1472:3QJOXOW4XKY0A87D6ALHFHTM1HXEM7", "dateTime": 1515898480106}, {"current_trial": 202, "trialdata": {"rt": -1, "trial_type": "single-stim", "word": "rattle", "stimulus": "<p id=\"stim\">RATTLE</p>", "conditions": [12, 800, "v", 24000], "internal_node_id": "0.0-148.0", "trial": 5, "time_elapsed": 1006086, "serialpos": 5, "key_press": -1, "wordID": 1169, "type": "PRES_VIS", "trial_index": 202}, "uniqueid": "MTK1472:3QJOXOW4XKY0A87D6ALHFHTM1HXEM7", "dateTime": 1515898481833}, {"current_trial": 203, "trialdata": {"rt": -1, "trial_type": "single-stim", "word": "cafe", "stimulus": "<p id=\"stim\">CAFE</p>", "conditions": [12, 800, "v", 24000], "internal_node_id": "0.0-149.0", "trial": 5, "time_elapsed": 1007951, "serialpos": 6, "key_press": -1, "wordID": 215, "type": "PRES_VIS", "trial_index": 203}, "uniqueid": "MTK1472:3QJOXOW4XKY0A87D6ALHFHTM1HXEM7", "dateTime": 1515898483699}, {"current_trial": 204, "trialdata": {"rt": -1, "trial_type": "single-stim", "word": "xerox", "stimulus": "<p id=\"stim\">XEROX</p>", "conditions": [12, 800, "v", 24000], "internal_node_id": "0.0-150.0", "trial": 5, "time_elapsed": 1009910, "serialpos": 7, "key_press": -1, "wordID": 1627, "type": "PRES_VIS", "trial_index": 204}, "uniqueid": "MTK1472:3QJOXOW4XKY0A87D6ALHFHTM1HXEM7", "dateTime": 1515898485657}, {"current_trial": 205, "trialdata": {"rt": -1, "trial_type": "single-stim", "word": "mars", "stimulus": "<p id=\"stim\">MARS</p>", "conditions": [12, 800, "v", 24000], "internal_node_id": "0.0-151.0", "trial": 5, "time_elapsed": 1011609, "serialpos": 8, "key_press": -1, "wordID": 872, "type": "PRES_VIS", "trial_index": 205}, "uniqueid": "MTK1472:3QJOXOW4XKY0A87D6ALHFHTM1HXEM7", "dateTime": 1515898487357}, {"current_trial": 206, "trialdata": {"rt": -1, "trial_type": "single-stim", "word": "venus", "stimulus": "<p id=\"stim\">VENUS</p>", "conditions": [12, 800, "v", 24000], "internal_node_id": "0.0-152.0", "trial": 5, "time_elapsed": 1013317, "serialpos": 9, "key_press": -1, "wordID": 1556, "type": "PRES_VIS", "trial_index": 206}, "uniqueid": "MTK1472:3QJOXOW4XKY0A87D6ALHFHTM1HXEM7", "dateTime": 1515898489064}, {"current_trial": 207, "trialdata": {"rt": -1, "trial_type": "single-stim", "word": "igloo", "stimulus": "<p id=\"stim\">IGLOO</p>", "conditions": [12, 800, "v", 24000], "internal_node_id": "0.0-153.0", "trial": 5, "time_elapsed": 1015059, "serialpos": 10, "key_press": -1, "wordID": 733, "type": "PRES_VIS", "trial_index": 207}, "uniqueid": "MTK1472:3QJOXOW4XKY0A87D6ALHFHTM1HXEM7", "dateTime": 1515898490806}, {"current_trial": 208, "trialdata": {"rt": -1, "trial_type": "single-stim", "word": "freezer", "stimulus": "<p id=\"stim\">FREEZER</p>", "conditions": [12, 800, "v", 24000], "internal_node_id": "0.0-154.0", "trial": 5, "time_elapsed": 1017047, "serialpos": 11, "key_press": -1, "wordID": 603, "type": "PRES_VIS", "trial_index": 208}, "uniqueid": "MTK1472:3QJOXOW4XKY0A87D6ALHFHTM1HXEM7", "dateTime": 1515898492795}, {"current_trial": 209, "trialdata": {"rt": -1, "trial_type": "single-stim", "stimulus": "", "internal_node_id": "0.0-155.0-0.0", "time_elapsed": 1019428, "key_press": -1, "type": "PRE_RECALL_DELAY", "trial_index": 209}, "uniqueid": "MTK1472:3QJOXOW4XKY0A87D6ALHFHTM1HXEM7", "dateTime": 1515898495176}, {"current_trial": 210, "trialdata": {"rt": -1000, "trial_type": "single-audio", "stimulus": "/static/audio/400Hz.wav", "internal_node_id": "0.0-156.0", "time_elapsed": 1019932, "key_press": -1, "type": "PRE_RECALL_ALERT", "trial_index": 210}, "uniqueid": "MTK1472:3QJOXOW4XKY0A87D6ALHFHTM1HXEM7", "dateTime": 1515898495679}, {"current_trial": 211, "trialdata": {"rt": [4415, 7023, 9140, 11175, 13864, 15868, 17604, 22601, 24893, 31818, 34578], "recwords": ["igloo", "freezer", "mars", "venus", "rocket", "slide", "diner", "robber", "theif", "cafe", "zerox"], "key_times": [2365, 2705, 3099, 3274, 3419, 4415, 5131, 5359, 5567, 5790, 6403, 6660, 6853, 7023, 7611, 7757, 8000, 8604, 9140, 9597, 9890, 10163, 10341, 10500, 11175, 11937, 12271, 12402, 12565, 12832, 13059, 13864, 14343, 14535, 14728, 14853, 15063, 15868, 16687, 16863, 17033, 17176, 17394, 17604, 20027, 20172, 20499, 20651, 21191, 21510, 21934, 22090, 22245, 22456, 22601, 23030, 23209, 23359, 23629, 24159, 24893, 30814, 31083, 31382, 31509, 31818, 33328, 33608, 33811, 34141, 34415, 34578], "trial_type": "free-recall", "conditions": [12, 800, "v", 24000], "internal_node_id": "0.0-157.0-0.0", "key_presses": [73, 71, 76, 79, 79, 13, 70, 82, 69, 69, 90, 69, 82, 13, 77, 65, 82, 83, 13, 86, 69, 78, 85, 83, 13, 82, 79, 67, 75, 69, 84, 13, 83, 76, 73, 68, 69, 13, 68, 73, 78, 69, 82, 13, 82, 79, 86, 86, 8, 8, 66, 66, 69, 82, 13, 84, 72, 69, 73, 70, 13, 67, 65, 70, 69, 13, 90, 69, 82, 79, 88, 13], "trial": 5, "time_elapsed": 1079939, "type": "FREE_RECALL", "trial_index": 211}, "uniqueid": "MTK1472:3QJOXOW4XKY0A87D6ALHFHTM1HXEM7", "dateTime": 1515898555697}, {"current_trial": 212, "trialdata": {"rt": 4084, "trial_type": "text", "internal_node_id": "0.0-158.0", "time_elapsed": 1086038, "key_press": 32, "type": "INSTRUCTIONS", "trial_index": 212}, "uniqueid": "MTK1472:3QJOXOW4XKY0A87D6ALHFHTM1HXEM7", "dateTime": 1515898561785}, {"current_trial": 213, "trialdata": {"rt": [3574, 7434, 9762, 11998, 17426, 19417, 21239, 23307], "trial_type": "math-distractor", "key_times": [3093, 3286, 3574, 6559, 6733, 7434, 9199, 9762, 11169, 11596, 11998, 16911, 17188, 17426, 18906, 19213, 19417, 20970, 21239, 22646, 22961, 23307], "responses": ["10", "22", "7", "13", "20", "14", "4", "17"], "num2": [1, 9, 1, 5, 8, 9, 2, 5, 9], "num3": [3, 8, 1, 3, 3, 4, 1, 5, 1], "conditions": [12, 1600, "v", 24000], "internal_node_id": "0.0-159.0", "key_presses": [49, 48, 13, 50, 50, 13, 55, 13, 49, 51, 13, 50, 48, 13, 49, 52, 13, 52, 13, 49, 55, 13], "trial": 6, "time_elapsed": 1112045, "type": "DISTRACTOR", "trial_index": 213, "num1": [6, 5, 5, 5, 9, 1, 1, 7, 9]}, "uniqueid": "MTK1472:3QJOXOW4XKY0A87D6ALHFHTM1HXEM7", "dateTime": 1515898587792}, {"current_trial": 214, "trialdata": {"rt": -1, "trial_type": "single-stim", "stimulus": "<p id=\"stim\">10</p>", "internal_node_id": "0.0-160.0-0.0", "time_elapsed": 1115051, "key_press": -1, "trial_index": 214}, "uniqueid": "MTK1472:3QJOXOW4XKY0A87D6ALHFHTM1HXEM7", "dateTime": 1515898590799}, {"current_trial": 215, "trialdata": {"rt": -1, "trial_type": "single-stim", "stimulus": "<p id=\"stim\">9</p>", "internal_node_id": "0.0-160.0-1.0", "time_elapsed": 1116057, "key_press": -1, "trial_index": 215}, "uniqueid": "MTK1472:3QJOXOW4XKY0A87D6ALHFHTM1HXEM7", "dateTime": 1515898591804}, {"current_trial": 216, "trialdata": {"rt": -1, "trial_type": "single-stim", "stimulus": "<p id=\"stim\">8</p>", "internal_node_id": "0.0-160.0-2.0", "time_elapsed": 1117061, "key_press": -1, "trial_index": 216}, "uniqueid": "MTK1472:3QJOXOW4XKY0A87D6ALHFHTM1HXEM7", "dateTime": 1515898592808}, {"current_trial": 217, "trialdata": {"rt": -1, "trial_type": "single-stim", "stimulus": "<p id=\"stim\">7</p>", "internal_node_id": "0.0-160.0-3.0", "time_elapsed": 1118063, "key_press": -1, "trial_index": 217}, "uniqueid": "MTK1472:3QJOXOW4XKY0A87D6ALHFHTM1HXEM7", "dateTime": 1515898593810}, {"current_trial": 218, "trialdata": {"rt": -1, "trial_type": "single-stim", "stimulus": "<p id=\"stim\">6</p>", "internal_node_id": "0.0-160.0-4.0", "time_elapsed": 1119068, "key_press": -1, "trial_index": 218}, "uniqueid": "MTK1472:3QJOXOW4XKY0A87D6ALHFHTM1HXEM7", "dateTime": 1515898594816}, {"current_trial": 219, "trialdata": {"rt": -1, "trial_type": "single-stim", "stimulus": "<p id=\"stim\">5</p>", "internal_node_id": "0.0-160.0-5.0", "time_elapsed": 1120073, "key_press": -1, "trial_index": 219}, "uniqueid": "MTK1472:3QJOXOW4XKY0A87D6ALHFHTM1HXEM7", "dateTime": 1515898595821}, {"current_trial": 220, "trialdata": {"rt": -1, "trial_type": "single-stim", "stimulus": "<p id=\"stim\">4</p>", "internal_node_id": "0.0-160.0-6.0", "time_elapsed": 1121079, "key_press": -1, "trial_index": 220}, "uniqueid": "MTK1472:3QJOXOW4XKY0A87D6ALHFHTM1HXEM7", "dateTime": 1515898596827}, {"current_trial": 221, "trialdata": {"rt": -1, "trial_type": "single-stim", "stimulus": "<p id=\"stim\">3</p>", "internal_node_id": "0.0-160.0-7.0", "time_elapsed": 1122083, "key_press": -1, "trial_index": 221}, "uniqueid": "MTK1472:3QJOXOW4XKY0A87D6ALHFHTM1HXEM7", "dateTime": 1515898597831}, {"current_trial": 222, "trialdata": {"rt": -1, "trial_type": "single-stim", "stimulus": "<p id=\"stim\">2</p>", "internal_node_id": "0.0-160.0-8.0", "time_elapsed": 1123086, "key_press": -1, "trial_index": 222}, "uniqueid": "MTK1472:3QJOXOW4XKY0A87D6ALHFHTM1HXEM7", "dateTime": 1515898598833}, {"current_trial": 223, "trialdata": {"rt": -1, "trial_type": "single-stim", "stimulus": "<p id=\"stim\">1</p>", "internal_node_id": "0.0-160.0-9.0", "time_elapsed": 1124089, "key_press": -1, "trial_index": 223}, "uniqueid": "MTK1472:3QJOXOW4XKY0A87D6ALHFHTM1HXEM7", "dateTime": 1515898599837}, {"current_trial": 224, "trialdata": {"rt": -1, "trial_type": "single-stim", "stimulus": "<p id=\"stim\">+</p>", "internal_node_id": "0.0-161.0-0.0", "time_elapsed": 1125593, "key_press": -1, "type": "FIXATION", "trial_index": 224}, "uniqueid": "MTK1472:3QJOXOW4XKY0A87D6ALHFHTM1HXEM7", "dateTime": 1515898601340}, {"current_trial": 225, "trialdata": {"rt": -1, "trial_type": "single-stim", "word": "tribe", "stimulus": "<p id=\"stim\">TRIBE</p>", "conditions": [12, 1600, "v", 24000], "internal_node_id": "0.0-162.0", "trial": 6, "time_elapsed": 1127196, "serialpos": 0, "key_press": -1, "wordID": 1504, "type": "PRES_VIS", "trial_index": 225}, "uniqueid": "MTK1472:3QJOXOW4XKY0A87D6ALHFHTM1HXEM7", "dateTime": 1515898602943}, {"current_trial": 226, "trialdata": {"rt": -1, "trial_type": "single-stim", "word": "cookbook", "stimulus": "<p id=\"stim\">COOKBOOK</p>", "conditions": [12, 1600, "v", 24000], "internal_node_id": "0.0-163.0", "trial": 6, "time_elapsed": 1129768, "serialpos": 1, "key_press": -1, "wordID": 372, "type": "PRES_VIS", "trial_index": 226}, "uniqueid": "MTK1472:3QJOXOW4XKY0A87D6ALHFHTM1HXEM7", "dateTime": 1515898605515}, {"current_trial": 227, "trialdata": {"rt": -1, "trial_type": "single-stim", "word": "waiter", "stimulus": "<p id=\"stim\">WAITER</p>", "conditions": [12, 1600, "v", 24000], "internal_node_id": "0.0-164.0", "trial": 6, "time_elapsed": 1132492, "serialpos": 2, "key_press": -1, "wordID": 1579, "type": "PRES_VIS", "trial_index": 227}, "uniqueid": "MTK1472:3QJOXOW4XKY0A87D6ALHFHTM1HXEM7", "dateTime": 1515898608240}, {"current_trial": 228, "trialdata": {"rt": -1, "trial_type": "single-stim", "word": "smog", "stimulus": "<p id=\"stim\">SMOG</p>", "conditions": [12, 1600, "v", 24000], "internal_node_id": "0.0-165.0", "trial": 6, "time_elapsed": 1135229, "serialpos": 3, "key_press": -1, "wordID": 1329, "type": "PRES_VIS", "trial_index": 228}, "uniqueid": "MTK1472:3QJOXOW4XKY0A87D6ALHFHTM1HXEM7", "dateTime": 1515898610976}, {"current_trial": 229, "trialdata": {"rt": -1, "trial_type": "single-stim", "word": "sidewalk", "stimulus": "<p id=\"stim\">SIDEWALK</p>", "conditions": [12, 1600, "v", 24000], "internal_node_id": "0.0-166.0", "trial": 6, "time_elapsed": 1137753, "serialpos": 4, "key_press": -1, "wordID": 1302, "type": "PRES_VIS", "trial_index": 229}, "uniqueid": "MTK1472:3QJOXOW4XKY0A87D6ALHFHTM1HXEM7", "dateTime": 1515898613500}, {"current_trial": 230, "trialdata": {"rt": -1, "trial_type": "single-stim", "word": "crater", "stimulus": "<p id=\"stim\">CRATER</p>", "conditions": [12, 1600, "v", 24000], "internal_node_id": "0.0-167.0", "trial": 6, "time_elapsed": 1140196, "serialpos": 5, "key_press": -1, "wordID": 399, "type": "PRES_VIS", "trial_index": 230}, "uniqueid": "MTK1472:3QJOXOW4XKY0A87D6ALHFHTM1HXEM7", "dateTime": 1515898615944}, {"current_trial": 231, "trialdata": {"rt": -1, "trial_type": "single-stim", "word": "loft", "stimulus": "<p id=\"stim\">LOFT</p>", "conditions": [12, 1600, "v", 24000], "internal_node_id": "0.0-168.0", "trial": 6, "time_elapsed": 1142798, "serialpos": 6, "key_press": -1, "wordID": 839, "type": "PRES_VIS", "trial_index": 231}, "uniqueid": "MTK1472:3QJOXOW4XKY0A87D6ALHFHTM1HXEM7", "dateTime": 1515898618545}, {"current_trial": 232, "trialdata": {"rt": -1, "trial_type": "single-stim", "word": "statue", "stimulus": "<p id=\"stim\">STATUE</p>", "conditions": [12, 1600, "v", 24000], "internal_node_id": "0.0-169.0", "trial": 6, "time_elapsed": 1145271, "serialpos": 7, "key_press": -1, "wordID": 1373, "type": "PRES_VIS", "trial_index": 232}, "uniqueid": "MTK1472:3QJOXOW4XKY0A87D6ALHFHTM1HXEM7", "dateTime": 1515898621018}, {"current_trial": 233, "trialdata": {"rt": -1, "trial_type": "single-stim", "word": "sausage", "stimulus": "<p id=\"stim\">SAUSAGE</p>", "conditions": [12, 1600, "v", 24000], "internal_node_id": "0.0-170.0", "trial": 6, "time_elapsed": 1147949, "serialpos": 8, "key_press": -1, "wordID": 1237, "type": "PRES_VIS", "trial_index": 233}, "uniqueid": "MTK1472:3QJOXOW4XKY0A87D6ALHFHTM1HXEM7", "dateTime": 1515898623696}, {"current_trial": 234, "trialdata": {"rt": -1, "trial_type": "single-stim", "word": "pasta", "stimulus": "<p id=\"stim\">PASTA</p>", "conditions": [12, 1600, "v", 24000], "internal_node_id": "0.0-171.0", "trial": 6, "time_elapsed": 1150615, "serialpos": 9, "key_press": -1, "wordID": 1020, "type": "PRES_VIS", "trial_index": 234}, "uniqueid": "MTK1472:3QJOXOW4XKY0A87D6ALHFHTM1HXEM7", "dateTime": 1515898626362}, {"current_trial": 235, "trialdata": {"rt": -1, "trial_type": "single-stim", "word": "kitchen", "stimulus": "<p id=\"stim\">KITCHEN</p>", "conditions": [12, 1600, "v", 24000], "internal_node_id": "0.0-172.0", "trial": 6, "time_elapsed": 1153072, "serialpos": 10, "key_press": -1, "wordID": 777, "type": "PRES_VIS", "trial_index": 235}, "uniqueid": "MTK1472:3QJOXOW4XKY0A87D6ALHFHTM1HXEM7", "dateTime": 1515898628819}, {"current_trial": 236, "trialdata": {"rt": -1, "trial_type": "single-stim", "word": "ozone", "stimulus": "<p id=\"stim\">OZONE</p>", "conditions": [12, 1600, "v", 24000], "internal_node_id": "0.0-173.0", "trial": 6, "time_elapsed": 1155487, "serialpos": 11, "key_press": -1, "wordID": 995, "type": "PRES_VIS", "trial_index": 236}, "uniqueid": "MTK1472:3QJOXOW4XKY0A87D6ALHFHTM1HXEM7", "dateTime": 1515898631234}, {"current_trial": 237, "trialdata": {"rt": -1, "trial_type": "single-stim", "stimulus": "", "internal_node_id": "0.0-174.0-0.0", "time_elapsed": 1157934, "key_press": -1, "type": "PRE_RECALL_DELAY", "trial_index": 237}, "uniqueid": "MTK1472:3QJOXOW4XKY0A87D6ALHFHTM1HXEM7", "dateTime": 1515898633681}, {"current_trial": 238, "trialdata": {"rt": -1000, "trial_type": "single-audio", "stimulus": "/static/audio/400Hz.wav", "internal_node_id": "0.0-175.0", "time_elapsed": 1158437, "key_press": -1, "type": "PRE_RECALL_ALERT", "trial_index": 238}, "uniqueid": "MTK1472:3QJOXOW4XKY0A87D6ALHFHTM1HXEM7", "dateTime": 1515898634184}, {"current_trial": 239, "trialdata": {"rt": [3969, 6395, 7819, 10914, 18554, 22085, 26214, 34643, 37104, 44702], "recwords": ["ozone", "kitchen", "pasta", "sausage", "loft", "crator", "sidewalk", "cookbook", "tribe", "waitor"], "key_times": [815, 1401, 1411, 2551, 2706, 2899, 3151, 3341, 3460, 3969, 4436, 5014, 5471, 5630, 5770, 5922, 6048, 6395, 6826, 6930, 7115, 7273, 7448, 7819, 8294, 8506, 8710, 8944, 9179, 9345, 9489, 10914, 16936, 17160, 17526, 17700, 18554, 19995, 20283, 20675, 20882, 21381, 21511, 22085, 23874, 24051, 24252, 24550, 24911, 25149, 25309, 25460, 26214, 32735, 33084, 33247, 33406, 33747, 34098, 34241, 34383, 34643, 35688, 35899, 36248, 36552, 36751, 37104, 40073, 40201, 40403, 40747, 42120, 42293, 42462, 42601, 43120, 43314, 43483, 43735, 44195, 44371, 44702, 47544, 47795, 48033, 48334, 48702, 49332, 50375, 50877, 50930, 50982, 51035, 51087, 51138, 51190], "trial_type": "free-recall", "conditions": [12, 1600, "v", 24000], "internal_node_id": "0.0-176.0-0.0", "key_presses": [79, 88, 90, 8, 8, 90, 79, 78, 69, 13, 75, 73, 84, 67, 72, 69, 78, 13, 80, 65, 83, 84, 65, 32, 83, 65, 85, 83, 65, 71, 69, 13, 76, 79, 70, 84, 13, 67, 82, 65, 84, 79, 82, 13, 83, 73, 68, 69, 87, 65, 76, 75, 13, 67, 79, 79, 75, 66, 79, 79, 75, 13, 84, 82, 73, 66, 69, 13, 83, 77, 79, 71, 8, 8, 8, 8, 87, 65, 73, 84, 79, 82, 13, 83, 84, 65, 84, 85, 69, 8, 8, 8, 8, 8, 8, 8, 8], "trial": 6, "time_elapsed": 1218449, "type": "FREE_RECALL", "trial_index": 239}, "uniqueid": "MTK1472:3QJOXOW4XKY0A87D6ALHFHTM1HXEM7", "dateTime": 1515898694210}, {"current_trial": 240, "trialdata": {"rt": 9460, "trial_type": "text", "internal_node_id": "0.0-177.0", "time_elapsed": 1229926, "key_press": 32, "type": "INSTRUCTIONS", "trial_index": 240}, "uniqueid": "MTK1472:3QJOXOW4XKY0A87D6ALHFHTM1HXEM7", "dateTime": 1515898705673}, {"current_trial": 241, "trialdata": {"rt": [2772, 6242, 10234, 12495, 16326, 20724], "trial_type": "math-distractor", "key_times": [2005, 2263, 2772, 5740, 5911, 6242, 9768, 9916, 10234, 11918, 12214, 12495, 15477, 15736, 16326, 20339, 20527, 20724, 23569, 23761], "responses": ["16", "21", "18", "19", "15", "22"], "num2": [7, 9, 7, 8, 6, 7, 6], "num3": [3, 5, 6, 9, 5, 8, 5], "conditions": [24, 1600, "v", 24000], "internal_node_id": "0.0-178.0", "key_presses": [49, 54, 13, 50, 49, 13, 49, 56, 13, 49, 57, 13, 49, 53, 13, 50, 50, 13, 49, 56], "trial": 7, "time_elapsed": 1255937, "type": "DISTRACTOR", "trial_index": 241, "num1": [6, 7, 5, 2, 4, 7, 7]}, "uniqueid": "MTK1472:3QJOXOW4XKY0A87D6ALHFHTM1HXEM7", "dateTime": 1515898731684}, {"current_trial": 242, "trialdata": {"rt": -1, "trial_type": "single-stim", "stimulus": "<p id=\"stim\">10</p>", "internal_node_id": "0.0-179.0-0.0", "time_elapsed": 1258943, "key_press": -1, "trial_index": 242}, "uniqueid": "MTK1472:3QJOXOW4XKY0A87D6ALHFHTM1HXEM7", "dateTime": 1515898734690}, {"current_trial": 243, "trialdata": {"rt": -1, "trial_type": "single-stim", "stimulus": "<p id=\"stim\">9</p>", "internal_node_id": "0.0-179.0-1.0", "time_elapsed": 1259952, "key_press": -1, "trial_index": 243}, "uniqueid": "MTK1472:3QJOXOW4XKY0A87D6ALHFHTM1HXEM7", "dateTime": 1515898735699}, {"current_trial": 244, "trialdata": {"rt": -1, "trial_type": "single-stim", "stimulus": "<p id=\"stim\">8</p>", "internal_node_id": "0.0-179.0-2.0", "time_elapsed": 1260956, "key_press": -1, "trial_index": 244}, "uniqueid": "MTK1472:3QJOXOW4XKY0A87D6ALHFHTM1HXEM7", "dateTime": 1515898736703}, {"current_trial": 245, "trialdata": {"rt": -1, "trial_type": "single-stim", "stimulus": "<p id=\"stim\">7</p>", "internal_node_id": "0.0-179.0-3.0", "time_elapsed": 1261960, "key_press": -1, "trial_index": 245}, "uniqueid": "MTK1472:3QJOXOW4XKY0A87D6ALHFHTM1HXEM7", "dateTime": 1515898737708}, {"current_trial": 246, "trialdata": {"rt": -1, "trial_type": "single-stim", "stimulus": "<p id=\"stim\">6</p>", "internal_node_id": "0.0-179.0-4.0", "time_elapsed": 1262968, "key_press": -1, "trial_index": 246}, "uniqueid": "MTK1472:3QJOXOW4XKY0A87D6ALHFHTM1HXEM7", "dateTime": 1515898738716}, {"current_trial": 247, "trialdata": {"rt": -1, "trial_type": "single-stim", "stimulus": "<p id=\"stim\">5</p>", "internal_node_id": "0.0-179.0-5.0", "time_elapsed": 1263973, "key_press": -1, "trial_index": 247}, "uniqueid": "MTK1472:3QJOXOW4XKY0A87D6ALHFHTM1HXEM7", "dateTime": 1515898739721}, {"current_trial": 248, "trialdata": {"rt": -1, "trial_type": "single-stim", "stimulus": "<p id=\"stim\">4</p>", "internal_node_id": "0.0-179.0-6.0", "time_elapsed": 1264980, "key_press": -1, "trial_index": 248}, "uniqueid": "MTK1472:3QJOXOW4XKY0A87D6ALHFHTM1HXEM7", "dateTime": 1515898740727}, {"current_trial": 249, "trialdata": {"rt": -1, "trial_type": "single-stim", "stimulus": "<p id=\"stim\">3</p>", "internal_node_id": "0.0-179.0-7.0", "time_elapsed": 1265986, "key_press": -1, "trial_index": 249}, "uniqueid": "MTK1472:3QJOXOW4XKY0A87D6ALHFHTM1HXEM7", "dateTime": 1515898741733}, {"current_trial": 250, "trialdata": {"rt": -1, "trial_type": "single-stim", "stimulus": "<p id=\"stim\">2</p>", "internal_node_id": "0.0-179.0-8.0", "time_elapsed": 1266990, "key_press": -1, "trial_index": 250}, "uniqueid": "MTK1472:3QJOXOW4XKY0A87D6ALHFHTM1HXEM7", "dateTime": 1515898742738}, {"current_trial": 251, "trialdata": {"rt": -1, "trial_type": "single-stim", "stimulus": "<p id=\"stim\">1</p>", "internal_node_id": "0.0-179.0-9.0", "time_elapsed": 1267994, "key_press": -1, "trial_index": 251}, "uniqueid": "MTK1472:3QJOXOW4XKY0A87D6ALHFHTM1HXEM7", "dateTime": 1515898743741}, {"current_trial": 252, "trialdata": {"rt": -1, "trial_type": "single-stim", "stimulus": "<p id=\"stim\">+</p>", "internal_node_id": "0.0-180.0-0.0", "time_elapsed": 1269497, "key_press": -1, 