{"assignmentId": "3IFS6Q0HJJQFO8M4MQ7UC5QKNGESIY", "workerId": "MTK1915", "questiondata": {"origin": "United States", "strat-rehearsal": "32", "marital": "Married/Domestic Partnership", "education": "Bachelor's degree", "ethnicity": "Not Hispanic", "color_depth": 24, "distracted": "No", "wrote-notes": "No", "strat-other": "", "screen_width": 1366, "avail_screen_width": 1366, "avail_screen_height": 728, "strat-image": "78", "language": "ENGLISH", "gender": "Female", "age": "32", "gender_other": "", "race": ["Black"], "strat-categorize": "48", "pixel_depth": 24, "strat-spatial": "0", "strat-story": "94", "race_other": "", "screen_height": 768}, "bonus": 0, "hitId": "3T5ZXGO9DEVNJYY74O19SGIPJYVZQ6", "counterbalance": 571, "useragent": "Mozilla/5.0 (Windows NT 10.0; Win64; x64) AppleWebKit/537.36 (KHTML, like Gecko) Chrome/63.0.3239.132 Safari/537.36", "eventdata": [{"eventtype": "initialized", "interval": 0, "value": null, "timestamp": 1516556295195}, {"eventtype": "window_resize", "interval": 0, "value": [1366, 721], "timestamp": 1516556295195}, {"eventtype": "window_resize", "interval": 9578, "value": [1366, 677], "timestamp": 1516556304773}, {"eventtype": "focus", "interval": 985475, "value": "off", "timestamp": 1516557290248}, {"eventtype": "focus", "interval": 2005, "value": "on", "timestamp": 1516557292253}, {"eventtype": "focus", "interval": 417601, "value": "off", "timestamp": 1516557709854}, {"eventtype": "focus", "interval": 43470, "value": "on", "timestamp": 1516557753324}], "data": [{"current_trial": 0, "trialdata": {"rt": 1962, "trial_type": "text", "internal_node_id": "0.0-0.0", "time_elapsed": 1965, "key_press": 32, "type": "INSTRUCTIONS", "trial_index": 0}, "uniqueid": "MTK1915:3IFS6Q0HJJQFO8M4MQ7UC5QKNGESIY", "dateTime": 1516556319145}, {"current_trial": 1, "trialdata": {"rt": 78706, "trial_type": "text", "internal_node_id": "0.0-1.0", "time_elapsed": 80674, "key_press": 32, "type": "INSTRUCTIONS", "trial_index": 1}, "uniqueid": "MTK1915:3IFS6Q0HJJQFO8M4MQ7UC5QKNGESIY", "dateTime": 1516556397853}, {"current_trial": 2, "trialdata": {"rt": [12178], "trial_type": "audio-test", "responses": ["ocean"], "internal_node_id": "0.0-2.0", "time_elapsed": 92861, "type": "AUDIO_TEST", "trial_index": 2}, "uniqueid": "MTK1915:3IFS6Q0HJJQFO8M4MQ7UC5QKNGESIY", "dateTime": 1516556410040}, {"current_trial": 3, "trialdata": {"rt": [7811], "trial_type": "audio-test", "responses": ["crystal"], "internal_node_id": "0.0-3.0", "time_elapsed": 100676, "type": "AUDIO_TEST", "trial_index": 3}, "uniqueid": "MTK1915:3IFS6Q0HJJQFO8M4MQ7UC5QKNGESIY", "dateTime": 1516556417855}, {"current_trial": 4, "trialdata": {"rt": [4969], "trial_type": "audio-test", "responses": ["spice"], "internal_node_id": "0.0-4.0", "time_elapsed": 105648, "type": "AUDIO_TEST", "trial_index": 4}, "uniqueid": "MTK1915:3IFS6Q0HJJQFO8M4MQ7UC5QKNGESIY", "dateTime": 1516556422827}, {"current_trial": 5, "trialdata": {"rt": 19616, "trial_type": "survey-text", "responses": "{\"Q0\":\"11PM\",\"Q1\":\"7:30AM\",\"Q2\":\"4\"}", "internal_node_id": "0.0-5.0", "time_elapsed": 126015, "type": "SLEEP_SURVEY", "trial_index": 5}, "uniqueid": "MTK1915:3IFS6Q0HJJQFO8M4MQ7UC5QKNGESIY", "dateTime": 1516556443195}, {"current_trial": 6, "trialdata": {"rt": 112063, "trial_type": "text", "internal_node_id": "0.0-6.0", "time_elapsed": 239081, "key_press": 40, "type": "INSTRUCTIONS", "trial_index": 6}, "uniqueid": "MTK1915:3IFS6Q0HJJQFO8M4MQ7UC5QKNGESIY", "dateTime": 1516556556260}, {"current_trial": 7, "trialdata": {"rt": 14757, "trial_type": "text", "internal_node_id": "0.0-7.0", "time_elapsed": 254338, "key_press": 32, "type": "INSTRUCTIONS", "trial_index": 7}, "uniqueid": "MTK1915:3IFS6Q0HJJQFO8M4MQ7UC5QKNGESIY", "dateTime": 1516556571517}, {"current_trial": 8, "trialdata": {"rt": 9578, "trial_type": "text", "internal_node_id": "0.0-8.0", "time_elapsed": 264417, "key_press": 32, "type": "INSTRUCTIONS", "trial_index": 8}, "uniqueid": "MTK1915:3IFS6Q0HJJQFO8M4MQ7UC5QKNGESIY", "dateTime": 1516556581597}, {"current_trial": 9, "trialdata": {"rt": [7546, 10776, 14741, 17626], "trial_type": "math-distractor", "key_times": [5890, 5999, 7546, 10099, 10195, 10776, 14370, 14505, 14741, 17034, 17130, 17626], "responses": ["15", "20", "11", "21"], "num2": [3, 2, 2, 9, 5], "num3": [8, 9, 2, 9, 8], "conditions": [18, 1200, "a", 18000], "internal_node_id": "0.0-9.0", "key_presses": [97, 101, 13, 98, 96, 13, 97, 97, 13, 98, 97, 13], "trial": 0, "time_elapsed": 283423, "type": "DISTRACTOR", "trial_index": 9, "num1": [4, 9, 7, 3, 2]}, "uniqueid": "MTK1915:3IFS6Q0HJJQFO8M4MQ7UC5QKNGESIY", "dateTime": 1516556600602}, {"current_trial": 10, "trialdata": {"rt": -1, "trial_type": "single-stim", "stimulus": "<p id=\"stim\">10</p>", "internal_node_id": "0.0-10.0-0.0", "time_elapsed": 286426, "key_press": -1, "trial_index": 10}, "uniqueid": "MTK1915:3IFS6Q0HJJQFO8M4MQ7UC5QKNGESIY", "dateTime": 1516556603605}, {"current_trial": 11, "trialdata": {"rt": -1, "trial_type": "single-stim", "stimulus": "<p id=\"stim\">9</p>", "internal_node_id": "0.0-10.0-1.0", "time_elapsed": 287427, "key_press": -1, "trial_index": 11}, "uniqueid": "MTK1915:3IFS6Q0HJJQFO8M4MQ7UC5QKNGESIY", "dateTime": 1516556604606}, {"current_trial": 12, "trialdata": {"rt": -1, "trial_type": "single-stim", "stimulus": "<p id=\"stim\">8</p>", "internal_node_id": "0.0-10.0-2.0", "time_elapsed": 288428, "key_press": -1, "trial_index": 12}, "uniqueid": "MTK1915:3IFS6Q0HJJQFO8M4MQ7UC5QKNGESIY", "dateTime": 1516556605607}, {"current_trial": 13, "trialdata": {"rt": -1, "trial_type": "single-stim", "stimulus": "<p id=\"stim\">7</p>", "internal_node_id": "0.0-10.0-3.0", "time_elapsed": 289430, "key_press": -1, "trial_index": 13}, "uniqueid": "MTK1915:3IFS6Q0HJJQFO8M4MQ7UC5QKNGESIY", "dateTime": 1516556606609}, {"current_trial": 14, "trialdata": {"rt": -1, "trial_type": "single-stim", "stimulus": "<p id=\"stim\">6</p>", "internal_node_id": "0.0-10.0-4.0", "time_elapsed": 290431, "key_press": -1, "trial_index": 14}, "uniqueid": "MTK1915:3IFS6Q0HJJQFO8M4MQ7UC5QKNGESIY", "dateTime": 1516556607610}, {"current_trial": 15, "trialdata": {"rt": -1, "trial_type": "single-stim", "stimulus": "<p id=\"stim\">5</p>", "internal_node_id": "0.0-10.0-5.0", "time_elapsed": 291433, "key_press": -1, "trial_index": 15}, "uniqueid": "MTK1915:3IFS6Q0HJJQFO8M4MQ7UC5QKNGESIY", "dateTime": 1516556608612}, {"current_trial": 16, "trialdata": {"rt": -1, "trial_type": "single-stim", "stimulus": "<p id=\"stim\">4</p>", "internal_node_id": "0.0-10.0-6.0", "time_elapsed": 292434, "key_press": -1, "trial_index": 16}, "uniqueid": "MTK1915:3IFS6Q0HJJQFO8M4MQ7UC5QKNGESIY", "dateTime": 1516556609613}, {"current_trial": 17, "trialdata": {"rt": -1, "trial_type": "single-stim", "stimulus": "<p id=\"stim\">3</p>", "internal_node_id": "0.0-10.0-7.0", "time_elapsed": 293436, "key_press": -1, "trial_index": 17}, "uniqueid": "MTK1915:3IFS6Q0HJJQFO8M4MQ7UC5QKNGESIY", "dateTime": 1516556610615}, {"current_trial": 18, "trialdata": {"rt": -1, "trial_type": "single-stim", "stimulus": "<p id=\"stim\">2</p>", "internal_node_id": "0.0-10.0-8.0", "time_elapsed": 294438, "key_press": -1, "trial_index": 18}, "uniqueid": "MTK1915:3IFS6Q0HJJQFO8M4MQ7UC5QKNGESIY", "dateTime": 1516556611617}, {"current_trial": 19, "trialdata": {"rt": -1, "trial_type": "single-stim", "stimulus": "<p id=\"stim\">1</p>", "internal_node_id": "0.0-10.0-9.0", "time_elapsed": 295439, "key_press": -1, "trial_index": 19}, "uniqueid": "MTK1915:3IFS6Q0HJJQFO8M4MQ7UC5QKNGESIY", "dateTime": 1516556612618}, {"current_trial": 20, "trialdata": {"rt": -1, "trial_type": "single-stim", "stimulus": "<p id=\"stim\">+</p>", "internal_node_id": "0.0-11.0-0.0", "time_elapsed": 296941, "key_press": -1, "type": "FIXATION", "trial_index": 20}, "uniqueid": "MTK1915:3IFS6Q0HJJQFO8M4MQ7UC5QKNGESIY", "dateTime": 1516556614120}, {"current_trial": 21, "trialdata": {"rt": -1000, "trial_type": "single-audio", "word": "award", "stimulus": "/static/audio/wordpool/AWARD.wav", "conditions": [18, 1200, "a", 18000], "internal_node_id": "0.0-12.0", "trial": 0, "time_elapsed": 299127, "serialpos": 0, "key_press": -1, "wordID": 62, "type": "PRES_AUD", "trial_index": 21}, "uniqueid": "MTK1915:3IFS6Q0HJJQFO8M4MQ7UC5QKNGESIY", "dateTime": 1516556616306}, {"current_trial": 22, "trialdata": {"rt": -1000, "trial_type": "single-audio", "word": "hood", "stimulus": "/static/audio/wordpool/HOOD.wav", "conditions": [18, 1200, "a", 18000], "internal_node_id": "0.0-13.0", "trial": 0, "time_elapsed": 301192, "serialpos": 1, "key_press": -1, "wordID": 713, "type": "PRES_AUD", "trial_index": 22}, "uniqueid": "MTK1915:3IFS6Q0HJJQFO8M4MQ7UC5QKNGESIY", "dateTime": 1516556618371}, {"current_trial": 23, "trialdata": {"rt": -1000, "trial_type": "single-audio", "word": "fungus", "stimulus": "/static/audio/wordpool/FUNGUS.wav", "conditions": [18, 1200, "a", 18000], "internal_node_id": "0.0-14.0", "trial": 0, "time_elapsed": 303241, "serialpos": 2, "key_press": -1, "wordID": 613, "type": "PRES_AUD", "trial_index": 23}, "uniqueid": "MTK1915:3IFS6Q0HJJQFO8M4MQ7UC5QKNGESIY", "dateTime": 1516556620420}, {"current_trial": 24, "trialdata": {"rt": -1000, "trial_type": "single-audio", "word": "parrot", "stimulus": "/static/audio/wordpool/PARROT.wav", "conditions": [18, 1200, "a", 18000], "internal_node_id": "0.0-15.0", "trial": 0, "time_elapsed": 305276, "serialpos": 3, "key_press": -1, "wordID": 1014, "type": "PRES_AUD", "trial_index": 24}, "uniqueid": "MTK1915:3IFS6Q0HJJQFO8M4MQ7UC5QKNGESIY", "dateTime": 1516556622455}, {"current_trial": 25, "trialdata": {"rt": -1000, "trial_type": "single-audio", "word": "dashboard", "stimulus": "/static/audio/wordpool/DASHBOARD.wav", "conditions": [18, 1200, "a", 18000], "internal_node_id": "0.0-16.0", "trial": 0, "time_elapsed": 307348, "serialpos": 4, "key_press": -1, "wordID": 440, "type": "PRES_AUD", "trial_index": 25}, "uniqueid": "MTK1915:3IFS6Q0HJJQFO8M4MQ7UC5QKNGESIY", "dateTime": 1516556624527}, {"current_trial": 26, "trialdata": {"rt": -1000, "trial_type": "single-audio", "word": "cigar", "stimulus": "/static/audio/wordpool/CIGAR.wav", "conditions": [18, 1200, "a", 18000], "internal_node_id": "0.0-17.0", "trial": 0, "time_elapsed": 309626, "serialpos": 5, "key_press": -1, "wordID": 307, "type": "PRES_AUD", "trial_index": 26}, "uniqueid": "MTK1915:3IFS6Q0HJJQFO8M4MQ7UC5QKNGESIY", "dateTime": 1516556626805}, {"current_trial": 27, "trialdata": {"rt": -1000, "trial_type": "single-audio", "word": "piston", "stimulus": "/static/audio/wordpool/PISTON.wav", "conditions": [18, 1200, "a", 18000], "internal_node_id": "0.0-18.0", "trial": 0, "time_elapsed": 311656, "serialpos": 6, "key_press": -1, "wordID": 1075, "type": "PRES_AUD", "trial_index": 27}, "uniqueid": "MTK1915:3IFS6Q0HJJQFO8M4MQ7UC5QKNGESIY", "dateTime": 1516556628835}, {"current_trial": 28, "trialdata": {"rt": -1000, "trial_type": "single-audio", "word": "beef", "stimulus": "/static/audio/wordpool/BEEF.wav", "conditions": [18, 1200, "a", 18000], "internal_node_id": "0.0-19.0", "trial": 0, "time_elapsed": 313752, "serialpos": 7, "key_press": -1, "wordID": 112, "type": "PRES_AUD", "trial_index": 28}, "uniqueid": "MTK1915:3IFS6Q0HJJQFO8M4MQ7UC5QKNGESIY", "dateTime": 1516556630931}, {"current_trial": 29, "trialdata": {"rt": -1000, "trial_type": "single-audio", "word": "jelly", "stimulus": "/static/audio/wordpool/JELLY.wav", "conditions": [18, 1200, "a", 18000], "internal_node_id": "0.0-20.0", "trial": 0, "time_elapsed": 315832, "serialpos": 8, "key_press": -1, "wordID": 754, "type": "PRES_AUD", "trial_index": 29}, "uniqueid": "MTK1915:3IFS6Q0HJJQFO8M4MQ7UC5QKNGESIY", "dateTime": 1516556633011}, {"current_trial": 30, "trialdata": {"rt": -1000, "trial_type": "single-audio", "word": "truck", "stimulus": "/static/audio/wordpool/TRUCK.wav", "conditions": [18, 1200, "a", 18000], "internal_node_id": "0.0-21.0", "trial": 0, "time_elapsed": 317960, "serialpos": 9, "key_press": -1, "wordID": 1511, "type": "PRES_AUD", "trial_index": 30}, "uniqueid": "MTK1915:3IFS6Q0HJJQFO8M4MQ7UC5QKNGESIY", "dateTime": 1516556635139}, {"current_trial": 31, "trialdata": {"rt": -1000, "trial_type": "single-audio", "word": "rabbit", "stimulus": "/static/audio/wordpool/RABBIT.wav", "conditions": [18, 1200, "a", 18000], "internal_node_id": "0.0-22.0", "trial": 0, "time_elapsed": 319979, "serialpos": 10, "key_press": -1, "wordID": 1151, "type": "PRES_AUD", "trial_index": 31}, "uniqueid": "MTK1915:3IFS6Q0HJJQFO8M4MQ7UC5QKNGESIY", "dateTime": 1516556637158}, {"current_trial": 32, "trialdata": {"rt": -1000, "trial_type": "single-audio", "word": "motel", "stimulus": "/static/audio/wordpool/MOTEL.wav", "conditions": [18, 1200, "a", 18000], "internal_node_id": "0.0-23.0", "trial": 0, "time_elapsed": 322260, "serialpos": 11, "key_press": -1, "wordID": 918, "type": "PRES_AUD", "trial_index": 32}, "uniqueid": "MTK1915:3IFS6Q0HJJQFO8M4MQ7UC5QKNGESIY", "dateTime": 1516556639439}, {"current_trial": 33, "trialdata": {"rt": -1000, "trial_type": "single-audio", "word": "smog", "stimulus": "/static/audio/wordpool/SMOG.wav", "conditions": [18, 1200, "a", 18000], "internal_node_id": "0.0-24.0", "trial": 0, "time_elapsed": 324558, "serialpos": 12, "key_press": -1, "wordID": 1329, "type": "PRES_AUD", "trial_index": 33}, "uniqueid": "MTK1915:3IFS6Q0HJJQFO8M4MQ7UC5QKNGESIY", "dateTime": 1516556641737}, {"current_trial": 34, "trialdata": {"rt": -1000, "trial_type": "single-audio", "word": "oyster", "stimulus": "/static/audio/wordpool/OYSTER.wav", "conditions": [18, 1200, "a", 18000], "internal_node_id": "0.0-25.0", "trial": 0, "time_elapsed": 326714, "serialpos": 13, "key_press": -1, "wordID": 994, "type": "PRES_AUD", "trial_index": 34}, "uniqueid": "MTK1915:3IFS6Q0HJJQFO8M4MQ7UC5QKNGESIY", "dateTime": 1516556643893}, {"current_trial": 35, "trialdata": {"rt": -1000, "trial_type": "single-audio", "word": "child", "stimulus": "/static/audio/wordpool/CHILD.wav", "conditions": [18, 1200, "a", 18000], "internal_node_id": "0.0-26.0", "trial": 0, "time_elapsed": 328936, "serialpos": 14, "key_press": -1, "wordID": 298, "type": "PRES_AUD", "trial_index": 35}, "uniqueid": "MTK1915:3IFS6Q0HJJQFO8M4MQ7UC5QKNGESIY", "dateTime": 1516556646115}, {"current_trial": 36, "trialdata": {"rt": -1000, "trial_type": "single-audio", "word": "jungle", "stimulus": "/static/audio/wordpool/JUNGLE.wav", "conditions": [18, 1200, "a", 18000], "internal_node_id": "0.0-27.0", "trial": 0, "time_elapsed": 331241, "serialpos": 15, "key_press": -1, "wordID": 763, "type": "PRES_AUD", "trial_index": 36}, "uniqueid": "MTK1915:3IFS6Q0HJJQFO8M4MQ7UC5QKNGESIY", "dateTime": 1516556648420}, {"current_trial": 37, "trialdata": {"rt": -1000, "trial_type": "single-audio", "word": "farmer", "stimulus": "/static/audio/wordpool/FARMER.wav", "conditions": [18, 1200, "a", 18000], "internal_node_id": "0.0-28.0", "trial": 0, "time_elapsed": 333433, "serialpos": 16, "key_press": -1, "wordID": 552, "type": "PRES_AUD", "trial_index": 37}, "uniqueid": "MTK1915:3IFS6Q0HJJQFO8M4MQ7UC5QKNGESIY", "dateTime": 1516556650612}, {"current_trial": 38, "trialdata": {"rt": -1000, "trial_type": "single-audio", "word": "swimmer", "stimulus": "/static/audio/wordpool/SWIMMER.wav", "conditions": [18, 1200, "a", 18000], "internal_node_id": "0.0-29.0", "trial": 0, "time_elapsed": 335588, "serialpos": 17, "key_press": -1, "wordID": 1419, "type": "PRES_AUD", "trial_index": 38}, "uniqueid": "MTK1915:3IFS6Q0HJJQFO8M4MQ7UC5QKNGESIY", "dateTime": 1516556652767}, {"current_trial": 39, "trialdata": {"rt": -1, "trial_type": "single-stim", "stimulus": "", "internal_node_id": "0.0-30.0-0.0", "time_elapsed": 336818, "key_press": -1, "type": "PRE_RECALL_DELAY", "trial_index": 39}, "uniqueid": "MTK1915:3IFS6Q0HJJQFO8M4MQ7UC5QKNGESIY", "dateTime": 1516556653997}, {"current_trial": 40, "trialdata": {"rt": -1000, "trial_type": "single-audio", "stimulus": "/static/audio/400Hz.wav", "internal_node_id": "0.0-31.0", "time_elapsed": 337325, "key_press": -1, "type": "PRE_RECALL_ALERT", "trial_index": 40}, "uniqueid": "MTK1915:3IFS6Q0HJJQFO8M4MQ7UC5QKNGESIY", "dateTime": 1516556654504}, {"current_trial": 41, "trialdata": {"rt": [5536, 8487, 11041, 12901, 17726, 20345, 22646, 26218, 28281, 30265, 31578, 33046, 37281, 40197, 42316, 43996, 51924, 54748], "recwords": ["dashboard", "cigar", "piston", "beef", "award", "hood", "fungus", "truck", "rabbit", "motel", "smog", "oyster", "child", "swimmer", "farmer", "jungle", "hood", ""], "key_times": [3054, 3348, 3555, 3671, 4103, 4263, 4492, 4645, 4821, 4902, 5013, 5130, 5334, 5536, 7591, 7703, 7932, 8079, 8218, 8487, 9972, 10152, 10284, 10479, 10605, 10665, 11041, 12353, 12445, 12575, 12767, 12901, 15587, 15767, 15901, 16131, 16342, 17726, 19863, 19963, 20117, 20268, 20345, 20997, 21136, 21244, 21364, 21466, 21695, 22646, 24660, 25152, 25340, 25717, 25979, 26218, 26837, 26972, 27099, 27243, 27359, 27455, 28281, 29325, 29436, 29624, 29785, 30008, 30265, 30817, 31034, 31166, 31414, 31578, 32129, 32457, 32568, 32737, 32833, 32901, 33046, 36564, 36721, 36782, 36929, 37095, 37281, 39218, 39444, 39554, 39743, 39885, 39957, 40040, 40197, 41645, 41779, 41884, 42008, 42090, 42159, 42316, 43273, 43465, 43569, 43672, 43766, 43842, 43996, 51083, 51260, 51649, 51789, 51924, 54748], "trial_type": "free-recall", "conditions": [18, 1200, "a", 18000], "internal_node_id": "0.0-32.0-0.0", "key_presses": [68, 65, 72, 83, 8, 8, 83, 72, 66, 79, 65, 82, 68, 13, 67, 73, 71, 65, 82, 13, 80, 73, 83, 84, 79, 78, 13, 66, 69, 69, 70, 13, 65, 87, 65, 82, 68, 13, 72, 79, 79, 68, 13, 70, 85, 78, 71, 85, 83, 13, 84, 82, 85, 67, 75, 13, 82, 65, 66, 66, 73, 84, 13, 77, 79, 84, 69, 76, 13, 83, 77, 79, 71, 13, 79, 89, 83, 84, 69, 82, 13, 67, 72, 73, 76, 68, 13, 83, 87, 73, 77, 77, 69, 82, 13, 70, 65, 82, 77, 69, 82, 13, 74, 85, 78, 71, 76, 69, 13, 72, 79, 79, 68, 13, 13], "trial": 0, "time_elapsed": 397327, "type": "FREE_RECALL", "trial_index": 41}, "uniqueid": "MTK1915:3IFS6Q0HJJQFO8M4MQ7UC5QKNGESIY", "dateTime": 1516556714508}, {"current_trial": 42, "trialdata": {"rt": 1812, "trial_type": "text", "internal_node_id": "0.0-33.0", "time_elapsed": 401142, "key_press": 32, "type": "INSTRUCTIONS", "trial_index": 42}, "uniqueid": "MTK1915:3IFS6Q0HJJQFO8M4MQ7UC5QKNGESIY", "dateTime": 1516556718321}, {"current_trial": 43, "trialdata": {"rt": [5250, 7256, 10578, 16575], "trial_type": "math-distractor", "key_times": [3689, 3794, 4530, 4821, 5250, 6643, 6747, 7256, 10123, 10307, 10578, 15815, 15976, 16575], "responses": ["15", "13", "18", "23"], "num2": [5, 5, 6, 7, 6], "num3": [8, 3, 3, 9, 5], "conditions": [18, 1200, "a", 18000], "internal_node_id": "0.0-34.0", "key_presses": [97, 97, 8, 101, 13, 97, 99, 13, 97, 104, 13, 98, 99, 13], "trial": 1, "time_elapsed": 421146, "type": "DISTRACTOR", "trial_index": 43, "num1": [2, 5, 9, 7, 9]}, "uniqueid": "MTK1915:3IFS6Q0HJJQFO8M4MQ7UC5QKNGESIY", "dateTime": 1516556738325}, {"current_trial": 44, "trialdata": {"rt": -1, "trial_type": "single-stim", "stimulus": "<p id=\"stim\">10</p>", "internal_node_id": "0.0-35.0-0.0", "time_elapsed": 424148, "key_press": -1, "trial_index": 44}, "uniqueid": "MTK1915:3IFS6Q0HJJQFO8M4MQ7UC5QKNGESIY", "dateTime": 1516556741327}, {"current_trial": 45, "trialdata": {"rt": -1, "trial_type": "single-stim", "stimulus": "<p id=\"stim\">9</p>", "internal_node_id": "0.0-35.0-1.0", "time_elapsed": 425149, "key_press": -1, "trial_index": 45}, "uniqueid": "MTK1915:3IFS6Q0HJJQFO8M4MQ7UC5QKNGESIY", "dateTime": 1516556742328}, {"current_trial": 46, "trialdata": {"rt": -1, "trial_type": "single-stim", "stimulus": "<p id=\"stim\">8</p>", "internal_node_id": "0.0-35.0-2.0", "time_elapsed": 426150, "key_press": -1, "trial_index": 46}, "uniqueid": "MTK1915:3IFS6Q0HJJQFO8M4MQ7UC5QKNGESIY", "dateTime": 1516556743329}, {"current_trial": 47, "trialdata": {"rt": -1, "trial_type": "single-stim", "stimulus": "<p id=\"stim\">7</p>", "internal_node_id": "0.0-35.0-3.0", "time_elapsed": 427151, "key_press": -1, "trial_index": 47}, "uniqueid": "MTK1915:3IFS6Q0HJJQFO8M4MQ7UC5QKNGESIY", "dateTime": 1516556744330}, {"current_trial": 48, "trialdata": {"rt": -1, "trial_type": "single-stim", "stimulus": "<p id=\"stim\">6</p>", "internal_node_id": "0.0-35.0-4.0", "time_elapsed": 428153, "key_press": -1, "trial_index": 48}, "uniqueid": "MTK1915:3IFS6Q0HJJQFO8M4MQ7UC5QKNGESIY", "dateTime": 1516556745332}, {"current_trial": 49, "trialdata": {"rt": -1, "trial_type": "single-stim", "stimulus": "<p id=\"stim\">5</p>", "internal_node_id": "0.0-35.0-5.0", "time_elapsed": 429154, "key_press": -1, "trial_index": 49}, "uniqueid": "MTK1915:3IFS6Q0HJJQFO8M4MQ7UC5QKNGESIY", "dateTime": 1516556746333}, {"current_trial": 50, "trialdata": {"rt": -1, "trial_type": "single-stim", "stimulus": "<p id=\"stim\">4</p>", "internal_node_id": "0.0-35.0-6.0", "time_elapsed": 430156, "key_press": -1, "trial_index": 50}, "uniqueid": "MTK1915:3IFS6Q0HJJQFO8M4MQ7UC5QKNGESIY", "dateTime": 1516556747335}, {"current_trial": 51, "trialdata": {"rt": -1, "trial_type": "single-stim", "stimulus": "<p id=\"stim\">3</p>", "internal_node_id": "0.0-35.0-7.0", "time_elapsed": 431157, "key_press": -1, "trial_index": 51}, "uniqueid": "MTK1915:3IFS6Q0HJJQFO8M4MQ7UC5QKNGESIY", "dateTime": 1516556748336}, {"current_trial": 52, "trialdata": {"rt": -1, "trial_type": "single-stim", "stimulus": "<p id=\"stim\">2</p>", "internal_node_id": "0.0-35.0-8.0", "time_elapsed": 432159, "key_press": -1, "trial_index": 52}, "uniqueid": "MTK1915:3IFS6Q0HJJQFO8M4MQ7UC5QKNGESIY", "dateTime": 1516556749338}, {"current_trial": 53, "trialdata": {"rt": -1, "trial_type": "single-stim", "stimulus": "<p id=\"stim\">1</p>", "internal_node_id": "0.0-35.0-9.0", "time_elapsed": 433160, "key_press": -1, "trial_index": 53}, "uniqueid": "MTK1915:3IFS6Q0HJJQFO8M4MQ7UC5QKNGESIY", "dateTime": 1516556750339}, {"current_trial": 54, "trialdata": {"rt": -1, "trial_type": "single-stim", "stimulus": "<p id=\"stim\">+</p>", "internal_node_id": "0.0-36.0-0.0", "time_elapsed": 434661, "key_press": -1, "type": "FIXATION", "trial_index": 54}, "uniqueid": "MTK1915:3IFS6Q0HJJQFO8M4MQ7UC5QKNGESIY", "dateTime": 1516556751840}, {"current_trial": 55, "trialdata": {"rt": -1000, "trial_type": "single-audio", "word": "razor", "stimulus": "/static/audio/wordpool/RAZOR.wav", "conditions": [18, 1200, "a", 18000], "internal_node_id": "0.0-37.0", "trial": 1, "time_elapsed": 436930, "serialpos": 0, "key_press": -1, "wordID": 1170, "type": "PRES_AUD", "trial_index": 55}, "uniqueid": "MTK1915:3IFS6Q0HJJQFO8M4MQ7UC5QKNGESIY", "dateTime": 1516556754110}, {"current_trial": 56, "trialdata": {"rt": -1000, "trial_type": "single-audio", "word": "europe", "stimulus": "/static/audio/wordpool/EUROPE.wav", "conditions": [18, 1200, "a", 18000], "internal_node_id": "0.0-38.0", "trial": 1, "time_elapsed": 439152, "serialpos": 1, "key_press": -1, "wordID": 540, "type": "PRES_AUD", "trial_index": 56}, "uniqueid": "MTK1915:3IFS6Q0HJJQFO8M4MQ7UC5QKNGESIY", "dateTime": 1516556756331}, {"current_trial": 57, "trialdata": {"rt": -1000, "trial_type": "single-audio", "word": "scarf", "stimulus": "/static/audio/wordpool/SCARF.wav", "conditions": [18, 1200, "a", 18000], "internal_node_id": "0.0-39.0", "trial": 1, "time_elapsed": 441249, "serialpos": 2, "key_press": -1, "wordID": 1245, "type": "PRES_AUD", "trial_index": 57}, "uniqueid": "MTK1915:3IFS6Q0HJJQFO8M4MQ7UC5QKNGESIY", "dateTime": 1516556758428}, {"current_trial": 58, "trialdata": {"rt": -1000, "trial_type": "single-audio", "word": "loft", "stimulus": "/static/audio/wordpool/LOFT.wav", "conditions": [18, 1200, "a", 18000], "internal_node_id": "0.0-40.0", "trial": 1, "time_elapsed": 443418, "serialpos": 3, "key_press": -1, "wordID": 839, "type": "PRES_AUD", "trial_index": 58}, "uniqueid": "MTK1915:3IFS6Q0HJJQFO8M4MQ7UC5QKNGESIY", "dateTime": 1516556760597}, {"current_trial": 59, "trialdata": {"rt": -1000, "trial_type": "single-audio", "word": "chest", "stimulus": "/static/audio/wordpool/CHEST.wav", "conditions": [18, 1200, "a", 18000], "internal_node_id": "0.0-41.0", "trial": 1, "time_elapsed": 445504, "serialpos": 4, "key_press": -1, "wordID": 294, "type": "PRES_AUD", "trial_index": 59}, "uniqueid": "MTK1915:3IFS6Q0HJJQFO8M4MQ7UC5QKNGESIY", "dateTime": 1516556762683}, {"current_trial": 60, "trialdata": {"rt": -1000, "trial_type": "single-audio", "word": "headband", "stimulus": "/static/audio/wordpool/HEADBAND.wav", "conditions": [18, 1200, "a", 18000], "internal_node_id": "0.0-42.0", "trial": 1, "time_elapsed": 447528, "serialpos": 5, "key_press": -1, "wordID": 695, "type": "PRES_AUD", "trial_index": 60}, "uniqueid": "MTK1915:3IFS6Q0HJJQFO8M4MQ7UC5QKNGESIY", "dateTime": 1516556764707}, {"current_trial": 61, "trialdata": {"rt": -1000, "trial_type": "single-audio", "word": "tourist", "stimulus": "/static/audio/wordpool/TOURIST.wav", "conditions": [18, 1200, "a", 18000], "internal_node_id": "0.0-43.0", "trial": 1, "time_elapsed": 449642, "serialpos": 6, "key_press": -1, "wordID": 1487, "type": "PRES_AUD", "trial_index": 61}, "uniqueid": "MTK1915:3IFS6Q0HJJQFO8M4MQ7UC5QKNGESIY", "dateTime": 1516556766821}, {"current_trial": 62, "trialdata": {"rt": -1000, "trial_type": "single-audio", "word": "slime", "stimulus": "/static/audio/wordpool/SLIME.wav", "conditions": [18, 1200, "a", 18000], "internal_node_id": "0.0-44.0", "trial": 1, "time_elapsed": 451918, "serialpos": 7, "key_press": -1, "wordID": 1326, "type": "PRES_AUD", "trial_index": 62}, "uniqueid": "MTK1915:3IFS6Q0HJJQFO8M4MQ7UC5QKNGESIY", "dateTime": 1516556769098}, {"current_trial": 63, "trialdata": {"rt": -1000, "trial_type": "single-audio", "word": "twig", "stimulus": "/static/audio/wordpool/TWIG.wav", "conditions": [18, 1200, "a", 18000], "internal_node_id": "0.0-45.0", "trial": 1, "time_elapsed": 454215, "serialpos": 8, "key_press": -1, "wordID": 1526, "type": "PRES_AUD", "trial_index": 63}, "uniqueid": "MTK1915:3IFS6Q0HJJQFO8M4MQ7UC5QKNGESIY", "dateTime": 1516556771394}, {"current_trial": 64, "trialdata": {"rt": -1000, "trial_type": "single-audio", "word": "girl", "stimulus": "/static/audio/wordpool/GIRL.wav", "conditions": [18, 1200, "a", 18000], "internal_node_id": "0.0-46.0", "trial": 1, "time_elapsed": 456254, "serialpos": 9, "key_press": -1, "wordID": 636, "type": "PRES_AUD", "trial_index": 64}, "uniqueid": "MTK1915:3IFS6Q0HJJQFO8M4MQ7UC5QKNGESIY", "dateTime": 1516556773433}, {"current_trial": 65, "trialdata": {"rt": -1000, "trial_type": "single-audio", "word": "relish", "stimulus": "/static/audio/wordpool/RELISH.wav", "conditions": [18, 1200, "a", 18000], "internal_node_id": "0.0-47.0", "trial": 1, "time_elapsed": 458260, "serialpos": 10, "key_press": -1, "wordID": 1182, "type": "PRES_AUD", "trial_index": 65}, "uniqueid": "MTK1915:3IFS6Q0HJJQFO8M4MQ7UC5QKNGESIY", "dateTime": 1516556775439}, {"current_trial": 66, "trialdata": {"rt": -1000, "trial_type": "single-audio", "word": "leader", "stimulus": "/static/audio/wordpool/LEADER.wav", "conditions": [18, 1200, "a", 18000], "internal_node_id": "0.0-48.0", "trial": 1, "time_elapsed": 460272, "serialpos": 11, "key_press": -1, "wordID": 806, "type": "PRES_AUD", "trial_index": 66}, "uniqueid": "MTK1915:3IFS6Q0HJJQFO8M4MQ7UC5QKNGESIY", "dateTime": 1516556777451}, {"current_trial": 67, "trialdata": {"rt": -1000, "trial_type": "single-audio", "word": "shark", "stimulus": "/static/audio/wordpool/SHARK.wav", "conditions": [18, 1200, "a", 18000], "internal_node_id": "0.0-49.0", "trial": 1, "time_elapsed": 462425, "serialpos": 12, "key_press": -1, "wordID": 1274, "type": "PRES_AUD", "trial_index": 67}, "uniqueid": "MTK1915:3IFS6Q0HJJQFO8M4MQ7UC5QKNGESIY", "dateTime": 1516556779605}, {"current_trial": 68, "trialdata": {"rt": -1000, "trial_type": "single-audio", "word": "suspect", "stimulus": "/static/audio/wordpool/SUSPECT.wav", "conditions": [18, 1200, "a", 18000], "internal_node_id": "0.0-50.0", "trial": 1, "time_elapsed": 464623, "serialpos": 13, "key_press": -1, "wordID": 1414, "type": "PRES_AUD", "trial_index": 68}, "uniqueid": "MTK1915:3IFS6Q0HJJQFO8M4MQ7UC5QKNGESIY", "dateTime": 1516556781804}, {"current_trial": 69, "trialdata": {"rt": -1000, "trial_type": "single-audio", "word": "panther", "stimulus": "/static/audio/wordpool/PANTHER.wav", "conditions": [18, 1200, "a", 18000], "internal_node_id": "0.0-51.0", "trial": 1, "time_elapsed": 466736, "serialpos": 14, "key_press": -1, "wordID": 1008, "type": "PRES_AUD", "trial_index": 69}, "uniqueid": "MTK1915:3IFS6Q0HJJQFO8M4MQ7UC5QKNGESIY", "dateTime": 1516556783915}, {"current_trial": 70, "trialdata": {"rt": -1000, "trial_type": "single-audio", "word": "scribble", "stimulus": "/static/audio/wordpool/SCRIBBLE.wav", "conditions": [18, 1200, "a", 18000], "internal_node_id": "0.0-52.0", "trial": 1, "time_elapsed": 469124, "serialpos": 15, "key_press": -1, "wordID": 1255, "type": "PRES_AUD", "trial_index": 70}, "uniqueid": "MTK1915:3IFS6Q0HJJQFO8M4MQ7UC5QKNGESIY", "dateTime": 1516556786303}, {"current_trial": 71, "trialdata": {"rt": -1000, "trial_type": "single-audio", "word": "shelf", "stimulus": "/static/audio/wordpool/SHELF.wav", "conditions": [18, 1200, "a", 18000], "internal_node_id": "0.0-53.0", "trial": 1, "time_elapsed": 471239, "serialpos": 16, "key_press": -1, "wordID": 1279, "type": "PRES_AUD", "trial_index": 71}, "uniqueid": "MTK1915:3IFS6Q0HJJQFO8M4MQ7UC5QKNGESIY", "dateTime": 1516556788418}, {"current_trial": 72, "trialdata": {"rt": -1000, "trial_type": "single-audio", "word": "convict", "stimulus": "/static/audio/wordpool/CONVICT.wav", "conditions": [18, 1200, "a", 18000], "internal_node_id": "0.0-54.0", "trial": 1, "time_elapsed": 473430, "serialpos": 17, "key_press": -1, "wordID": 370, "type": "PRES_AUD", "trial_index": 72}, "uniqueid": "MTK1915:3IFS6Q0HJJQFO8M4MQ7UC5QKNGESIY", "dateTime": 1516556790609}, {"current_trial": 73, "trialdata": {"rt": -1, "trial_type": "single-stim", "stimulus": "", "internal_node_id": "0.0-55.0-0.0", "time_elapsed": 474778, "key_press": -1, "type": "PRE_RECALL_DELAY", "trial_index": 73}, "uniqueid": "MTK1915:3IFS6Q0HJJQFO8M4MQ7UC5QKNGESIY", "dateTime": 1516556791957}, {"current_trial": 74, "trialdata": {"rt": -1000, "trial_type": "single-audio", "stimulus": "/static/audio/400Hz.wav", "internal_node_id": "0.0-56.0", "time_elapsed": 475279, "key_press": -1, "type": "PRE_RECALL_ALERT", "trial_index": 74}, "uniqueid": "MTK1915:3IFS6Q0HJJQFO8M4MQ7UC5QKNGESIY", "dateTime": 1516556792458}, {"current_trial": 75, "trialdata": {"rt": [5384, 7368, 9853, 17861, 20103, 21663, 23085, 25378, 28382, 32851, 34843, 36404, 38797, 40735, 45161, 47350, 52860], "recwords": ["convict", "shelf", "scribble", "leader", "shark", "relish", "girl", "suspect", "panther", "headband", "razor", "europe", "scarf", "loft", "tourist", "slime", "chest"], "key_times": [2144, 2285, 2471, 2556, 2820, 2931, 3354, 3523, 3681, 3836, 3977, 4377, 4525, 4606, 4718, 4804, 4919, 5115, 5384, 6725, 6835, 6938, 7060, 7154, 7368, 8117, 8316, 8536, 8630, 8847, 8994, 9106, 9229, 9853, 16648, 16828, 16888, 17407, 17528, 17633, 17861, 19307, 19443, 19557, 19701, 19854, 20103, 20837, 20900, 21006, 21152, 21301, 21411, 21663, 22423, 22548, 22730, 22836, 23085, 24329, 24423, 24510, 24620, 24729, 25052, 25270, 25378, 26678, 26761, 26902, 27053, 27297, 27771, 28031, 28135, 28155, 28382, 31699, 31829, 31883, 32135, 32339, 32447, 32552, 32665, 32851, 34067, 34156, 34420, 34555, 34682, 34843, 35447, 35566, 35679, 35847, 35963, 36122, 36404, 37789, 38010, 38173, 38505, 38673, 38797, 40103, 40287, 40447, 40636, 40735, 43759, 44156, 44244, 44368, 44501, 44614, 45032, 45161, 46767, 46917, 47059, 47124, 47240, 47350, 48017, 48188, 48940, 49223, 50197, 50377, 50546, 50756, 51448, 51619, 51769, 51924, 52231, 52388, 52427, 52608, 52760, 52860, 54962, 55122, 56522, 56734], "trial_type": "free-recall", "conditions": [18, 1200, "a", 18000], "internal_node_id": "0.0-57.0-0.0", "key_presses": [16, 67, 79, 78, 86, 73, 8, 8, 8, 8, 8, 67, 79, 78, 86, 73, 67, 84, 13, 83, 72, 69, 76, 70, 13, 83, 67, 82, 73, 66, 66, 76, 69, 13, 76, 69, 65, 68, 69, 82, 13, 83, 72, 65, 82, 75, 13, 82, 69, 76, 73, 83, 72, 13, 71, 73, 82, 76, 13, 83, 85, 83, 80, 69, 67, 84, 13, 80, 65, 78, 84, 69, 8, 72, 69, 82, 13, 72, 69, 65, 68, 66, 65, 78, 68, 13, 82, 65, 90, 79, 82, 13, 69, 85, 82, 79, 80, 69, 13, 83, 67, 65, 82, 70, 13, 76, 79, 70, 84, 13, 84, 79, 85, 82, 73, 83, 84, 13, 83, 76, 73, 77, 69, 13, 84, 87, 8, 8, 76, 79, 70, 84, 8, 8, 8, 8, 67, 72, 69, 83, 84, 13, 84, 87, 8, 8], "trial": 1, "time_elapsed": 535281, "type": "FREE_RECALL", "trial_index": 75}, "uniqueid": "MTK1915:3IFS6Q0HJJQFO8M4MQ7UC5QKNGESIY", "dateTime": 1516556852462}, {"current_trial": 76, "trialdata": {"rt": 4670, "trial_type": "text", "internal_node_id": "0.0-58.0", "time_elapsed": 541954, "key_press": 32, "type": "INSTRUCTIONS", "trial_index": 76}, "uniqueid": "MTK1915:3IFS6Q0HJJQFO8M4MQ7UC5QKNGESIY", "dateTime": 1516556859133}, {"current_trial": 77, "trialdata": {"rt": [2978, 4780, 7965, 10062, 12128, 14311, 16515, 18316, 20886, 22907], "trial_type": "math-distractor", "key_times": [2499, 2978, 4309, 4384, 4780, 7415, 7623, 7965, 9624, 9822, 10062, 11925, 12128, 13855, 13956, 14311, 16097, 16252, 16515, 17905, 18093, 18316, 20551, 20689, 20886, 22574, 22689, 22907], "responses": ["8", "12", "12", "17", "7", "12", "13", "14", "11", "15"], "num2": [1, 3, 4, 6, 2, 1, 3, 3, 2, 9, 7], "num3": [2, 6, 5, 5, 1, 6, 7, 4, 4, 1, 5], "conditions": [24, 1600, "a", 24000], "internal_node_id": "0.0-59.0", "key_presses": [104, 13, 97, 98, 13, 97, 98, 13, 97, 103, 13, 103, 13, 97, 98, 13, 97, 99, 13, 97, 100, 13, 97, 97, 13, 97, 101, 13], "trial": 2, "time_elapsed": 566958, "type": "DISTRACTOR", "trial_index": 77, "num1": [5, 3, 3, 6, 4, 5, 3, 7, 5, 5, 2]}, "uniqueid": "MTK1915:3IFS6Q0HJJQFO8M4MQ7UC5QKNGESIY", "dateTime": 1516556884137}, {"current_trial": 78, "trialdata": {"rt": -1, "trial_type": "single-stim", "stimulus": "<p id=\"stim\">10</p>", "internal_node_id": "0.0-60.0-0.0", "time_elapsed": 569961, "key_press": -1, "trial_index": 78}, "uniqueid": "MTK1915:3IFS6Q0HJJQFO8M4MQ7UC5QKNGESIY", "dateTime": 1516556887140}, {"current_trial": 79, "trialdata": {"rt": -1, "trial_type": "single-stim", "stimulus": "<p id=\"stim\">9</p>", "internal_node_id": "0.0-60.0-1.0", "time_elapsed": 570963, "key_press": -1, "trial_index": 79}, "uniqueid": "MTK1915:3IFS6Q0HJJQFO8M4MQ7UC5QKNGESIY", "dateTime": 1516556888142}, {"current_trial": 80, "trialdata": {"rt": -1, "trial_type": "single-stim", "stimulus": "<p id=\"stim\">8</p>", "internal_node_id": "0.0-60.0-2.0", "time_elapsed": 571965, "key_press": -1, "trial_index": 80}, "uniqueid": "MTK1915:3IFS6Q0HJJQFO8M4MQ7UC5QKNGESIY", "dateTime": 1516556889144}, {"current_trial": 81, "trialdata": {"rt": -1, "trial_type": "single-stim", "stimulus": "<p id=\"stim\">7</p>", "internal_node_id": "0.0-60.0-3.0", "time_elapsed": 572966, "key_press": -1, "trial_index": 81}, "uniqueid": "MTK1915:3IFS6Q0HJJQFO8M4MQ7UC5QKNGESIY", "dateTime": 1516556890145}, {"current_trial": 82, "trialdata": {"rt": -1, "trial_type": "single-stim", "stimulus": "<p id=\"stim\">6</p>", "internal_node_id": "0.0-60.0-4.0", "time_elapsed": 573967, "key_press": -1, "trial_index": 82}, "uniqueid": "MTK1915:3IFS6Q0HJJQFO8M4MQ7UC5QKNGESIY", "dateTime": 1516556891146}, {"current_trial": 83, "trialdata": {"rt": -1, "trial_type": "single-stim", "stimulus": "<p id=\"stim\">5</p>", "internal_node_id": "0.0-60.0-5.0", "time_elapsed": 574969, "key_press": -1, "trial_index": 83}, "uniqueid": "MTK1915:3IFS6Q0HJJQFO8M4MQ7UC5QKNGESIY", "dateTime": 1516556892148}, {"current_trial": 84, "trialdata": {"rt": -1, "trial_type": "single-stim", "stimulus": "<p id=\"stim\">4</p>", "internal_node_id": "0.0-60.0-6.0", "time_elapsed": 575971, "key_press": -1, "trial_index": 84}, "uniqueid": "MTK1915:3IFS6Q0HJJQFO8M4MQ7UC5QKNGESIY", "dateTime": 1516556893150}, {"current_trial": 85, "trialdata": {"rt": -1, "trial_type": "single-stim", "stimulus": "<p id=\"stim\">3</p>", "internal_node_id": "0.0-60.0-7.0", "time_elapsed": 576972, "key_press": -1, "trial_index": 85}, "uniqueid": "MTK1915:3IFS6Q0HJJQFO8M4MQ7UC5QKNGESIY", "dateTime": 1516556894151}, {"current_trial": 86, "trialdata": {"rt": -1, "trial_type": "single-stim", "stimulus": "<p id=\"stim\">2</p>", "internal_node_id": "0.0-60.0-8.0", "time_elapsed": 577974, "key_press": -1, "trial_index": 86}, "uniqueid": "MTK1915:3IFS6Q0HJJQFO8M4MQ7UC5QKNGESIY", "dateTime": 1516556895153}, {"current_trial": 87, "trialdata": {"rt": -1, "trial_type": "single-stim", "stimulus": "<p id=\"stim\">1</p>", "internal_node_id": "0.0-60.0-9.0", "time_elapsed": 578975, "key_press": -1, "trial_index": 87}, "uniqueid": "MTK1915:3IFS6Q0HJJQFO8M4MQ7UC5QKNGESIY", "dateTime": 1516556896154}, {"current_trial": 88, "trialdata": {"rt": -1, "trial_type": "single-stim", "stimulus": "<p id=\"stim\">+</p>", "internal_node_id": "0.0-61.0-0.0", "time_elapsed": 580476, "key_press": -1, "type": "FIXATION", "trial_index": 88}, "uniqueid": "MTK1915:3IFS6Q0HJJQFO8M4MQ7UC5QKNGESIY", "dateTime": 1516556897655}, {"current_trial": 89, "trialdata": {"rt": -1000, "trial_type": "single-audio", "word": "mailman", "stimulus": "/static/audio/wordpool/MAILMAN.wav", "conditions": [24, 1600, "a", 24000], "internal_node_id": "0.0-62.0", "trial": 2, "time_elapsed": 583053, "serialpos": 0, "key_press": -1, "wordID": 857, "type": "PRES_AUD", "trial_index": 89}, "uniqueid": "MTK1915:3IFS6Q0HJJQFO8M4MQ7UC5QKNGESIY", "dateTime": 1516556900232}, {"current_trial": 90, "trialdata": {"rt": -1000, "trial_type": "single-audio", "word": "atom", "stimulus": "/static/audio/wordpool/ATOM.wav", "conditions": [24, 1600, "a", 24000], "internal_node_id": "0.0-63.0", "trial": 2, "time_elapsed": 585793, "serialpos": 1, "key_press": -1, "wordID": 54, "type": "PRES_AUD", "trial_index": 90}, "uniqueid": "MTK1915:3IFS6Q0HJJQFO8M4MQ7UC5QKNGESIY", "dateTime": 1516556902972}, {"current_trial": 91, "trialdata": {"rt": -1000, "trial_type": "single-audio", "word": "freezer", "stimulus": "/static/audio/wordpool/FREEZER.wav", "conditions": [24, 1600, "a", 24000], "internal_node_id": "0.0-64.0", "trial": 2, "time_elapsed": 588573, "serialpos": 2, "key_press": -1, "wordID": 603, "type": "PRES_AUD", "trial_index": 91}, "uniqueid": "MTK1915:3IFS6Q0HJJQFO8M4MQ7UC5QKNGESIY", "dateTime": 1516556905752}, {"current_trial": 92, "trialdata": {"rt": -1000, "trial_type": "single-audio", "word": "monster", "stimulus": "/static/audio/wordpool/MONSTER.wav", "conditions": [24, 1600, "a", 24000], "internal_node_id": "0.0-65.0", "trial": 2, "time_elapsed": 591215, "serialpos": 3, "key_press": -1, "wordID": 911, "type": "PRES_AUD", "trial_index": 92}, "uniqueid": "MTK1915:3IFS6Q0HJJQFO8M4MQ7UC5QKNGESIY", "dateTime": 1516556908394}, {"current_trial": 93, "trialdata": {"rt": -1000, "trial_type": "single-audio", "word": "beast", "stimulus": "/static/audio/wordpool/BEAST.wav", "conditions": [24, 1600, "a", 24000], "internal_node_id": "0.0-66.0", "trial": 2, "time_elapsed": 593994, "serialpos": 4, "key_press": -1, "wordID": 107, "type": "PRES_AUD", "trial_index": 93}, "uniqueid": "MTK1915:3IFS6Q0HJJQFO8M4MQ7UC5QKNGESIY", "dateTime": 1516556911173}, {"current_trial": 94, "trialdata": {"rt": -1000, "trial_type": "single-audio", "word": "bacon", "stimulus": "/static/audio/wordpool/BACON.wav", "conditions": [24, 1600, "a", 24000], "internal_node_id": "0.0-67.0", "trial": 2, "time_elapsed": 596643, "serialpos": 5, "key_press": -1, "wordID": 66, "type": "PRES_AUD", "trial_index": 94}, "uniqueid": "MTK1915:3IFS6Q0HJJQFO8M4MQ7UC5QKNGESIY", "dateTime": 1516556913822}, {"current_trial": 95, "trialdata": {"rt": -1000, "trial_type": "single-audio", "word": "lake", "stimulus": "/static/audio/wordpool/LAKE.wav", "conditions": [24, 1600, "a", 24000], "internal_node_id": "0.0-68.0", "trial": 2, "time_elapsed": 599163, "serialpos": 6, "key_press": -1, "wordID": 795, "type": "PRES_AUD", "trial_index": 95}, "uniqueid": "MTK1915:3IFS6Q0HJJQFO8M4MQ7UC5QKNGESIY", "dateTime": 1516556916342}, {"current_trial": 96, "trialdata": {"rt": -1000, "trial_type": "single-audio", "word": "puppy", "stimulus": "/static/audio/wordpool/PUPPY.wav", "conditions": [24, 1600, "a", 24000], "internal_node_id": "0.0-69.0", "trial": 2, "time_elapsed": 601654, "serialpos": 7, "key_press": -1, "wordID": 1143, "type": "PRES_AUD", "trial_index": 96}, "uniqueid": "MTK1915:3IFS6Q0HJJQFO8M4MQ7UC5QKNGESIY", "dateTime": 1516556918833}, {"current_trial": 97, "trialdata": {"rt": -1000, "trial_type": "single-audio", "word": "robot", "stimulus": "/static/audio/wordpool/ROBOT.wav", "conditions": [24, 1600, "a", 24000], "internal_node_id": "0.0-70.0", "trial": 2, "time_elapsed": 604229, "serialpos": 8, "key_press": -1, "wordID": 1199, "type": "PRES_AUD", "trial_index": 97}, "uniqueid": "MTK1915:3IFS6Q0HJJQFO8M4MQ7UC5QKNGESIY", "dateTime": 1516556921409}, {"current_trial": 98, "trialdata": {"rt": -1000, "trial_type": "single-audio", "word": "stream", "stimulus": "/static/audio/wordpool/STREAM.wav", "conditions": [24, 1600, "a", 24000], "internal_node_id": "0.0-71.0", "trial": 2, "time_elapsed": 606978, "serialpos": 9, "key_press": -1, "wordID": 1391, "type": "PRES_AUD", "trial_index": 98}, "uniqueid": "MTK1915:3IFS6Q0HJJQFO8M4MQ7UC5QKNGESIY", "dateTime": 1516556924157}, {"current_trial": 99, "trialdata": {"rt": -1000, "trial_type": "single-audio", "word": "egypt", "stimulus": "/static/audio/wordpool/EGYPT.wav", "conditions": [24, 1600, "a", 24000], "internal_node_id": "0.0-72.0", "trial": 2, "time_elapsed": 609504, "serialpos": 10, "key_press": -1, "wordID": 518, "type": "PRES_AUD", "trial_index": 99}, "uniqueid": "MTK1915:3IFS6Q0HJJQFO8M4MQ7UC5QKNGESIY", "dateTime": 1516556926683}, {"current_trial": 100, "trialdata": {"rt": -1000, "trial_type": "single-audio", "word": "mailbox", "stimulus": "/static/audio/wordpool/MAILBOX.wav", "conditions": [24, 1600, "a", 24000], "internal_node_id": "0.0-73.0", "trial": 2, "time_elapsed": 611933, "serialpos": 11, "key_press": -1, "wordID": 856, "type": "PRES_AUD", "trial_index": 100}, "uniqueid": "MTK1915:3IFS6Q0HJJQFO8M4MQ7UC5QKNGESIY", "dateTime": 1516556929112}, {"current_trial": 101, "trialdata": {"rt": -1000, "trial_type": "single-audio", "word": "doughnut", "stimulus": "/static/audio/wordpool/DOUGHNUT.wav", "conditions": [24, 1600, "a", 24000], "internal_node_id": "0.0-74.0", "trial": 2, "time_elapsed": 614458, "serialpos": 12, "key_press": -1, "wordID": 489, "type": "PRES_AUD", "trial_index": 101}, "uniqueid": "MTK1915:3IFS6Q0HJJQFO8M4MQ7UC5QKNGESIY", "dateTime": 1516556931637}, {"current_trial": 102, "trialdata": {"rt": -1000, "trial_type": "single-audio", "word": "luggage", "stimulus": "/static/audio/wordpool/LUGGAGE.wav", "conditions": [24, 1600, "a", 24000], "internal_node_id": "0.0-75.0", "trial": 2, "time_elapsed": 617094, "serialpos": 13, "key_press": -1, "wordID": 846, "type": "PRES_AUD", "trial_index": 102}, "uniqueid": "MTK1915:3IFS6Q0HJJQFO8M4MQ7UC5QKNGESIY", "dateTime": 1516556934273}, {"current_trial": 103, "trialdata": {"rt": -1000, "trial_type": "single-audio", "word": "apron", "stimulus": "/static/audio/wordpool/APRON.wav", "conditions": [24, 1600, "a", 24000], "internal_node_id": "0.0-76.0", "trial": 2, "time_elapsed": 619680, "serialpos": 14, "key_press": -1, "wordID": 34, "type": "PRES_AUD", "trial_index": 103}, "uniqueid": "MTK1915:3IFS6Q0HJJQFO8M4MQ7UC5QKNGESIY", "dateTime": 1516556936859}, {"current_trial": 104, "trialdata": {"rt": -1000, "trial_type": "single-audio", "word": "pastry", "stimulus": "/static/audio/wordpool/PASTRY.wav", "conditions": [24, 1600, "a", 24000], "internal_node_id": "0.0-77.0", "trial": 2, "time_elapsed": 622239, "serialpos": 15, "key_press": -1, "wordID": 1021, "type": "PRES_AUD", "trial_index": 104}, "uniqueid": "MTK1915:3IFS6Q0HJJQFO8M4MQ7UC5QKNGESIY", "dateTime": 1516556939418}, {"current_trial": 105, "trialdata": {"rt": -1000, "trial_type": "single-audio", "word": "juggler", "stimulus": "/static/audio/wordpool/JUGGLER.wav", "conditions": [24, 1600, "a", 24000], "internal_node_id": "0.0-78.0", "trial": 2, "time_elapsed": 624857, "serialpos": 16, "key_press": -1, "wordID": 762, "type": "PRES_AUD", "trial_index": 105}, "uniqueid": "MTK1915:3IFS6Q0HJJQFO8M4MQ7UC5QKNGESIY", "dateTime": 1516556942036}, {"current_trial": 106, "trialdata": {"rt": -1000, "trial_type": "single-audio", "word": "hamper", "stimulus": "/static/audio/wordpool/HAMPER.wav", "conditions": [24, 1600, "a", 24000], "internal_node_id": "0.0-79.0", "trial": 2, "time_elapsed": 627476, "serialpos": 17, "key_press": -1, "wordID": 681, "type": "PRES_AUD", "trial_index": 106}, "uniqueid": "MTK1915:3IFS6Q0HJJQFO8M4MQ7UC5QKNGESIY", "dateTime": 1516556944656}, {"current_trial": 107, "trialdata": {"rt": -1000, "trial_type": "single-audio", "word": "quail", "stimulus": "/static/audio/wordpool/QUAIL.wav", "conditions": [24, 1600, "a", 24000], "internal_node_id": "0.0-80.0", "trial": 2, "time_elapsed": 630247, "serialpos": 18, "key_press": -1, "wordID": 1146, "type": "PRES_AUD", "trial_index": 107}, "uniqueid": "MTK1915:3IFS6Q0HJJQFO8M4MQ7UC5QKNGESIY", "dateTime": 1516556947426}, {"current_trial": 108, "trialdata": {"rt": -1000, "trial_type": "single-audio", "word": "creature", "stimulus": "/static/audio/wordpool/CREATURE.wav", "conditions": [24, 1600, "a", 24000], "internal_node_id": "0.0-81.0", "trial": 2, "time_elapsed": 633033, "serialpos": 19, "key_press": -1, "wordID": 402, "type": "PRES_AUD", "trial_index": 108}, "uniqueid": "MTK1915:3IFS6Q0HJJQFO8M4MQ7UC5QKNGESIY", "dateTime": 1516556950212}, {"current_trial": 109, "trialdata": {"rt": -1000, "trial_type": "single-audio", "word": "sculpture", "stimulus": "/static/audio/wordpool/SCULPTURE.wav", "conditions": [24, 1600, "a", 24000], "internal_node_id": "0.0-82.0", "trial": 2, "time_elapsed": 635796, "serialpos": 20, "key_press": -1, "wordID": 1257, "type": "PRES_AUD", "trial_index": 109}, "uniqueid": "MTK1915:3IFS6Q0HJJQFO8M4MQ7UC5QKNGESIY", "dateTime": 1516556952975}, {"current_trial": 110, "trialdata": {"rt": -1000, "trial_type": "single-audio", "word": "virus", "stimulus": "/static/audio/wordpool/VIRUS.wav", "conditions": [24, 1600, "a", 24000], "internal_node_id": "0.0-83.0", "trial": 2, "time_elapsed": 638496, "serialpos": 21, "key_press": -1, "wordID": 1571, "type": "PRES_AUD", "trial_index": 110}, "uniqueid": "MTK1915:3IFS6Q0HJJQFO8M4MQ7UC5QKNGESIY", "dateTime": 1516556955675}, {"current_trial": 111, "trialdata": {"rt": -1000, "trial_type": "single-audio", "word": "bug", "stimulus": "/static/audio/wordpool/BUG.wav", "conditions": [24, 1600, "a", 24000], "internal_node_id": "0.0-84.0", "trial": 2, "time_elapsed": 641274, "serialpos": 22, "key_press": -1, "wordID": 186, "type": "PRES_AUD", "trial_index": 111}, "uniqueid": "MTK1915:3IFS6Q0HJJQFO8M4MQ7UC5QKNGESIY", "dateTime": 1516556958453}, {"current_trial": 112, "trialdata": {"rt": -1000, "trial_type": "single-audio", "word": "shelter", "stimulus": "/static/audio/wordpool/SHELTER.wav", "conditions": [24, 1600, "a", 24000], "internal_node_id": "0.0-85.0", "trial": 2, "time_elapsed": 643796, "serialpos": 23, "key_press": -1, "wordID": 1281, "type": "PRES_AUD", "trial_index": 112}, "uniqueid": "MTK1915:3IFS6Q0HJJQFO8M4MQ7UC5QKNGESIY", "dateTime": 1516556960975}, {"current_trial": 113, "trialdata": {"rt": -1, "trial_type": "single-stim", "stimulus": "", "internal_node_id": "0.0-86.0-0.0", "time_elapsed": 645167, "key_press": -1, "type": "PRE_RECALL_DELAY", "trial_index": 113}, "uniqueid": "MTK1915:3IFS6Q0HJJQFO8M4MQ7UC5QKNGESIY", "dateTime": 1516556962346}, {"current_trial": 114, "trialdata": {"rt": -1000, "trial_type": "single-audio", "stimulus": "/static/audio/400Hz.wav", "internal_node_id": "0.0-87.0", "time_elapsed": 645669, "key_press": -1, "type": "PRE_RECALL_ALERT", "trial_index": 114}, "uniqueid": "MTK1915:3IFS6Q0HJJQFO8M4MQ7UC5QKNGESIY", "dateTime": 1516556962848}, {"current_trial": 115, "trialdata": {"rt": [3626, 7156, 8684, 10874, 13748, 16093, 21145, 22544, 24091, 26118, 31259, 33048, 35079, 36132, 39267, 41211, 44904, 46760, 49034, 50018, 52782, 54857, 58317], "recwords": ["robot", "egypt", "donut", "apron", "juggler", "quail", "sculpture", "virus", "bug", "shelter", "pastry", "luggage", "puppy", "lake", "mailbox", "atom", "freezer", "monster", "bacon", "lake", "mail", "mailman", "beast"], "key_times": [2963, 3064, 3215, 3342, 3425, 3626, 5548, 5790, 6148, 6379, 6539, 7156, 8014, 8133, 8241, 8394, 8546, 8684, 9941, 10281, 10469, 10621, 10688, 10874, 12541, 12692, 12862, 12992, 13056, 13178, 13303, 13748, 15204, 15431, 15560, 15686, 15775, 16093, 18419, 18620, 18780, 18943, 19150, 19482, 19636, 19789, 19872, 21145, 21793, 22030, 22153, 22264, 22382, 22544, 23709, 23834, 23965, 24091, 24354, 24612, 24946, 25377, 25521, 25608, 25748, 25901, 25976, 26118, 29584, 29836, 30057, 30276, 30328, 30462, 31259, 31912, 32131, 32289, 32450, 32605, 32772, 32861, 33048, 34300, 34478, 34664, 34816, 34941, 35079, 35637, 35732, 35891, 35981, 36132, 38160, 38269, 38361, 38445, 38658, 38777, 39072, 39267, 40503, 40836, 40946, 41027, 41211, 41700, 41799, 41993, 42147, 42982, 43242, 43332, 44904, 45261, 45387, 45504, 45657, 46018, 46103, 46283, 46414, 46533, 46760, 48405, 48496, 48692, 48777, 48819, 49034, 49651, 49755, 49818, 49916, 50018, 52227, 52375, 52473, 52570, 52782, 53770, 53907, 53995, 54090, 54321, 54519, 54668, 54857, 57686, 57751, 57874, 57985, 58061, 58317], "trial_type": "free-recall", "conditions": [24, 1600, "a", 24000], "internal_node_id": "0.0-88.0-0.0", "key_presses": [82, 79, 66, 79, 84, 13, 69, 71, 89, 80, 84, 13, 68, 79, 78, 85, 84, 13, 65, 80, 82, 79, 78, 13, 74, 85, 71, 71, 76, 69, 82, 13, 81, 85, 65, 73, 76, 13, 83, 67, 85, 76, 80, 84, 85, 82, 69, 13, 86, 73, 82, 85, 83, 13, 66, 85, 71, 13, 83, 69, 8, 72, 69, 76, 84, 69, 82, 13, 80, 65, 83, 84, 82, 89, 13, 76, 85, 71, 71, 65, 71, 69, 13, 80, 85, 80, 80, 89, 13, 76, 65, 75, 69, 13, 77, 65, 73, 76, 66, 79, 88, 13, 65, 84, 79, 77, 13, 70, 82, 69, 69, 90, 69, 82, 13, 77, 79, 78, 84, 8, 83, 84, 69, 82, 13, 66, 65, 67, 79, 78, 13, 76, 65, 75, 69, 13, 77, 65, 73, 76, 188, 77, 65, 73, 76, 77, 65, 78, 13, 66, 69, 65, 83, 84, 13], "trial": 2, "time_elapsed": 705672, "type": "FREE_RECALL", "trial_index": 115}, "uniqueid": "MTK1915:3IFS6Q0HJJQFO8M4MQ7UC5QKNGESIY", "dateTime": 1516557022853}, {"current_trial": 116, "trialdata": {"rt": 1748, "trial_type": "text", "internal_node_id": "0.0-89.0", "time_elapsed": 709422, "key_press": 32, "type": "INSTRUCTIONS", "trial_index": 116}, "uniqueid": "MTK1915:3IFS6Q0HJJQFO8M4MQ7UC5QKNGESIY", "dateTime": 1516557026601}, {"current_trial": 117, "trialdata": {"rt": [2411, 8460, 9765, 12230, 14281, 15683, 18418, 21658], "trial_type": "math-distractor", "key_times": [2058, 2197, 2411, 3696, 3928, 4460, 4864, 5795, 6656, 6787, 7764, 7898, 8153, 8312, 8460, 9484, 9549, 9765, 11887, 12032, 12230, 13944, 14048, 14281, 15363, 15461, 15683, 18103, 18190, 18418, 20836, 21050, 21658], "responses": ["19", "15717", "12", "18", "12", "12", "12", "10"], "num2": [3, 8, 3, 5, 3, 2, 4, 6, 9], "num3": [8, 8, 2, 9, 3, 5, 6, 1, 9], "conditions": [24, 800, "a", 24000], "internal_node_id": "0.0-90.0", "key_presses": [97, 105, 13, 97, 103, 8, 101, 103, 220, 220, 8, 8, 97, 103, 13, 97, 98, 13, 97, 104, 13, 97, 98, 13, 97, 98, 13, 97, 98, 13, 97, 96, 13], "trial": 3, "time_elapsed": 735424, "type": "DISTRACTOR", "trial_index": 117, "num1": [8, 1, 7, 4, 6, 5, 1, 3, 5]}, "uniqueid": "MTK1915:3IFS6Q0HJJQFO8M4MQ7UC5QKNGESIY", "dateTime": 1516557052603}, {"current_trial": 118, "trialdata": {"rt": -1, "trial_type": "single-stim", "stimulus": "<p id=\"stim\">10</p>", "internal_node_id": "0.0-91.0-0.0", "time_elapsed": 738426, "key_press": -1, "trial_index": 118}, "uniqueid": "MTK1915:3IFS6Q0HJJQFO8M4MQ7UC5QKNGESIY", "dateTime": 1516557055605}, {"current_trial": 119, "trialdata": {"rt": -1, "trial_type": "single-stim", "stimulus": "<p id=\"stim\">9</p>", "internal_node_id": "0.0-91.0-1.0", "time_elapsed": 739427, "key_press": -1, "trial_index": 119}, "uniqueid": "MTK1915:3IFS6Q0HJJQFO8M4MQ7UC5QKNGESIY", "dateTime": 1516557056606}, {"current_trial": 120, "trialdata": {"rt": -1, "trial_type": "single-stim", "stimulus": "<p id=\"stim\">8</p>", "internal_node_id": "0.0-91.0-2.0", "time_elapsed": 740429, "key_press": -1, "trial_index": 120}, "uniqueid": "MTK1915:3IFS6Q0HJJQFO8M4MQ7UC5QKNGESIY", "dateTime": 1516557057608}, {"current_trial": 121, "trialdata": {"rt": -1, "trial_type": "single-stim", "stimulus": "<p id=\"stim\">7</p>", "internal_node_id": "0.0-91.0-3.0", "time_elapsed": 741430, "key_press": -1, "trial_index": 121}, "uniqueid": "MTK1915:3IFS6Q0HJJQFO8M4MQ7UC5QKNGESIY", "dateTime": 1516557058609}, {"current_trial": 122, "trialdata": {"rt": -1, "trial_type": "single-stim", "stimulus": "<p id=\"stim\">6</p>", "internal_node_id": "0.0-91.0-4.0", "time_elapsed": 742432, "key_press": -1, "trial_index": 122}, "uniqueid": "MTK1915:3IFS6Q0HJJQFO8M4MQ7UC5QKNGESIY", "dateTime": 1516557059611}, {"current_trial": 123, "trialdata": {"rt": -1, "trial_type": "single-stim", "stimulus": "<p id=\"stim\">5</p>", "internal_node_id": "0.0-91.0-5.0", "time_elapsed": 743433, "key_press": -1, "trial_index": 123}, "uniqueid": "MTK1915:3IFS6Q0HJJQFO8M4MQ7UC5QKNGESIY", "dateTime": 1516557060612}, {"current_trial": 124, "trialdata": {"rt": -1, "trial_type": "single-stim", "stimulus": "<p id=\"stim\">4</p>", "internal_node_id": "0.0-91.0-6.0", "time_elapsed": 744435, "key_press": -1, "trial_index": 124}, "uniqueid": "MTK1915:3IFS6Q0HJJQFO8M4MQ7UC5QKNGESIY", "dateTime": 1516557061614}, {"current_trial": 125, "trialdata": {"rt": -1, "trial_type": "single-stim", "stimulus": "<p id=\"stim\">3</p>", "internal_node_id": "0.0-91.0-7.0", "time_elapsed": 745436, "key_press": -1, "trial_index": 125}, "uniqueid": "MTK1915:3IFS6Q0HJJQFO8M4MQ7UC5QKNGESIY", "dateTime": 1516557062615}, {"current_trial": 126, "trialdata": {"rt": -1, "trial_type": "single-stim", "stimulus": "<p id=\"stim\">2</p>", "internal_node_id": "0.0-91.0-8.0", "time_elapsed": 746437, "key_press": -1, "trial_index": 126}, "uniqueid": "MTK1915:3IFS6Q0HJJQFO8M4MQ7UC5QKNGESIY", "dateTime": 1516557063616}, {"current_trial": 127, "trialdata": {"rt": -1, "trial_type": "single-stim", "stimulus": "<p id=\"stim\">1</p>", "internal_node_id": "0.0-91.0-9.0", "time_elapsed": 747439, "key_press": -1, "trial_index": 127}, "uniqueid": "MTK1915:3IFS6Q0HJJQFO8M4MQ7UC5QKNGESIY", "dateTime": 1516557064618}, {"current_trial": 128, "trialdata": {"rt": -1, "trial_type": "single-stim", "stimulus": "<p id=\"stim\">+</p>", "internal_node_id": "0.0-92.0-0.0", "time_elapsed": 748940, "key_press": -1, "type": "FIXATION", "trial_index": 128}, "uniqueid": "MTK1915:3IFS6Q0HJJQFO8M4MQ7UC5QKNGESIY", "dateTime": 1516557066119}, {"current_trial": 129, "trialdata": {"rt": -1000, "trial_type": "single-audio", "word": "cattle", "stimulus": "/static/audio/wordpool/CATTLE.wav", "conditions": [24, 800, "a", 24000], "internal_node_id": "0.0-93.0", "trial": 3, "time_elapsed": 750686, "serialpos": 0, "key_press": -1, "wordID": 260, "type": "PRES_AUD", "trial_index": 129}, "uniqueid": "MTK1915:3IFS6Q0HJJQFO8M4MQ7UC5QKNGESIY", "dateTime": 1516557067865}, {"current_trial": 130, "trialdata": {"rt": -1000, "trial_type": "single-audio", "word": "stallion", "stimulus": "/static/audio/wordpool/STALLION.wav", "conditions": [24, 800, "a", 24000], "internal_node_id": "0.0-94.0", "trial": 3, "time_elapsed": 752386, "serialpos": 1, "key_press": -1, "wordID": 1368, "type": "PRES_AUD", "trial_index": 130}, "uniqueid": "MTK1915:3IFS6Q0HJJQFO8M4MQ7UC5QKNGESIY", "dateTime": 1516557069566}, {"current_trial": 131, "trialdata": {"rt": -1000, "trial_type": "single-audio", "word": "nightgown", "stimulus": "/static/audio/wordpool/NIGHTGOWN.wav", "conditions": [24, 800, "a", 24000], "internal_node_id": "0.0-95.0", "trial": 3, "time_elapsed": 754195, "serialpos": 2, "key_press": -1, "wordID": 952, "type": "PRES_AUD", "trial_index": 131}, "uniqueid": "MTK1915:3IFS6Q0HJJQFO8M4MQ7UC5QKNGESIY", "dateTime": 1516557071374}, {"current_trial": 132, "trialdata": {"rt": -1000, "trial_type": "single-audio", "word": "spider", "stimulus": "/static/audio/wordpool/SPIDER.wav", "conditions": [24, 800, "a", 24000], "internal_node_id": "0.0-96.0", "trial": 3, "time_elapsed": 756056, "serialpos": 3, "key_press": -1, "wordID": 1350, "type": "PRES_AUD", "trial_index": 132}, "uniqueid": "MTK1915:3IFS6Q0HJJQFO8M4MQ7UC5QKNGESIY", "dateTime": 1516557073235}, {"current_trial": 133, "trialdata": {"rt": -1000, "trial_type": "single-audio", "word": "crayon", "stimulus": "/static/audio/wordpool/CRAYON.wav", "conditions": [24, 800, "a", 24000], "internal_node_id": "0.0-97.0", "trial": 3, "time_elapsed": 757750, "serialpos": 4, "key_press": -1, "wordID": 400, "type": "PRES_AUD", "trial_index": 133}, "uniqueid": "MTK1915:3IFS6Q0HJJQFO8M4MQ7UC5QKNGESIY", "dateTime": 1516557074929}, {"current_trial": 134, "trialdata": {"rt": -1000, "trial_type": "single-audio", "word": "lady", "stimulus": "/static/audio/wordpool/LADY.wav", "conditions": [24, 800, "a", 24000], "internal_node_id": "0.0-98.0", "trial": 3, "time_elapsed": 759443, "serialpos": 5, "key_press": -1, "wordID": 793, "type": "PRES_AUD", "trial_index": 134}, "uniqueid": "MTK1915:3IFS6Q0HJJQFO8M4MQ7UC5QKNGESIY", "dateTime": 1516557076622}, {"current_trial": 135, "trialdata": {"rt": -1000, "trial_type": "single-audio", "word": "woman", "stimulus": "/static/audio/wordpool/WOMAN.wav", "conditions": [24, 800, "a", 24000], "internal_node_id": "0.0-99.0", "trial": 3, "time_elapsed": 761342, "serialpos": 6, "key_press": -1, "wordID": 1619, "type": "PRES_AUD", "trial_index": 135}, "uniqueid": "MTK1915:3IFS6Q0HJJQFO8M4MQ7UC5QKNGESIY", "dateTime": 1516557078521}, {"current_trial": 136, "trialdata": {"rt": -1000, "trial_type": "single-audio", "word": "snake", "stimulus": "/static/audio/wordpool/SNAKE.wav", "conditions": [24, 800, "a", 24000], "internal_node_id": "0.0-100.0", "trial": 3, "time_elapsed": 763040, "serialpos": 7, "key_press": -1, "wordID": 1332, "type": "PRES_AUD", "trial_index": 136}, "uniqueid": "MTK1915:3IFS6Q0HJJQFO8M4MQ7UC5QKNGESIY", "dateTime": 1516557080219}, {"current_trial": 137, "trialdata": {"rt": -1000, "trial_type": "single-audio", "word": "igloo", "stimulus": "/static/audio/wordpool/IGLOO.wav", "conditions": [24, 800, "a", 24000], "internal_node_id": "0.0-101.0", "trial": 3, "time_elapsed": 764752, "serialpos": 8, "key_press": -1, "wordID": 733, "type": "PRES_AUD", "trial_index": 137}, "uniqueid": "MTK1915:3IFS6Q0HJJQFO8M4MQ7UC5QKNGESIY", "dateTime": 1516557081931}, {"current_trial": 138, "trialdata": {"rt": -1000, "trial_type": "single-audio", "word": "airport", "stimulus": "/static/audio/wordpool/AIRPORT.wav", "conditions": [24, 800, "a", 24000], "internal_node_id": "0.0-102.0", "trial": 3, "time_elapsed": 766505, "serialpos": 9, "key_press": -1, "wordID": 12, "type": "PRES_AUD", "trial_index": 138}, "uniqueid": "MTK1915:3IFS6Q0HJJQFO8M4MQ7UC5QKNGESIY", "dateTime": 1516557083684}, {"current_trial": 139, "trialdata": {"rt": -1000, "trial_type": "single-audio", "word": "drawing", "stimulus": "/static/audio/wordpool/DRAWING.wav", "conditions": [24, 800, "a", 24000], "internal_node_id": "0.0-103.0", "trial": 3, "time_elapsed": 768186, "serialpos": 10, "key_press": -1, "wordID": 493, "type": "PRES_AUD", "trial_index": 139}, "uniqueid": "MTK1915:3IFS6Q0HJJQFO8M4MQ7UC5QKNGESIY", "dateTime": 1516557085365}, {"current_trial": 140, "trialdata": {"rt": -1000, "trial_type": "single-audio", "word": "blouse", "stimulus": "/static/audio/wordpool/BLOUSE.wav", "conditions": [24, 800, "a", 24000], "internal_node_id": "0.0-104.0", "trial": 3, "time_elapsed": 769862, "serialpos": 11, "key_press": -1, "wordID": 138, "type": "PRES_AUD", "trial_index": 140}, "uniqueid": "MTK1915:3IFS6Q0HJJQFO8M4MQ7UC5QKNGESIY", "dateTime": 1516557087041}, {"current_trial": 141, "trialdata": {"rt": -1000, "trial_type": "single-audio", "word": "scarecrow", "stimulus": "/static/audio/wordpool/SCARECROW.wav", "conditions": [24, 800, "a", 24000], "internal_node_id": "0.0-105.0", "trial": 3, "time_elapsed": 771507, "serialpos": 12, "key_press": -1, "wordID": 1244, "type": "PRES_AUD", "trial_index": 141}, "uniqueid": "MTK1915:3IFS6Q0HJJQFO8M4MQ7UC5QKNGESIY", "dateTime": 1516557088686}, {"current_trial": 142, "trialdata": {"rt": -1000, "trial_type": "single-audio", "word": "statue", "stimulus": "/static/audio/wordpool/STATUE.wav", "conditions": [24, 800, "a", 24000], "internal_node_id": "0.0-106.0", "trial": 3, "time_elapsed": 773219, "serialpos": 13, "key_press": -1, "wordID": 1373, "type": "PRES_AUD", "trial_index": 142}, "uniqueid": "MTK1915:3IFS6Q0HJJQFO8M4MQ7UC5QKNGESIY", "dateTime": 1516557090398}, {"current_trial": 143, "trialdata": {"rt": -1000, "trial_type": "single-audio", "word": "garden", "stimulus": "/static/audio/wordpool/GARDEN.wav", "conditions": [24, 800, "a", 24000], "internal_node_id": "0.0-107.0", "trial": 3, "time_elapsed": 774913, "serialpos": 14, "key_press": -1, "wordID": 622, "type": "PRES_AUD", "trial_index": 143}, "uniqueid": "MTK1915:3IFS6Q0HJJQFO8M4MQ7UC5QKNGESIY", "dateTime": 1516557092092}, {"current_trial": 144, "trialdata": {"rt": -1000, "trial_type": "single-audio", "word": "cupboard", "stimulus": "/static/audio/wordpool/CUPBOARD.wav", "conditions": [24, 800, "a", 24000], "internal_node_id": "0.0-108.0", "trial": 3, "time_elapsed": 776899, "serialpos": 15, "key_press": -1, "wordID": 424, "type": "PRES_AUD", "trial_index": 144}, "uniqueid": "MTK1915:3IFS6Q0HJJQFO8M4MQ7UC5QKNGESIY", "dateTime": 1516557094078}, {"current_trial": 145, "trialdata": {"rt": -1000, "trial_type": "single-audio", "word": "dresser", "stimulus": "/static/audio/wordpool/DRESSER.wav", "conditions": [24, 800, "a", 24000], "internal_node_id": "0.0-109.0", "trial": 3, "time_elapsed": 778509, "serialpos": 16, "key_press": -1, "wordID": 495, "type": "PRES_AUD", "trial_index": 145}, "uniqueid": "MTK1915:3IFS6Q0HJJQFO8M4MQ7UC5QKNGESIY", "dateTime": 1516557095688}, {"current_trial": 146, "trialdata": {"rt": -1000, "trial_type": "single-audio", "word": "fox", "stimulus": "/static/audio/wordpool/FOX.wav", "conditions": [24, 800, "a", 24000], "internal_node_id": "0.0-110.0", "trial": 3, "time_elapsed": 780313, "serialpos": 17, "key_press": -1, "wordID": 597, "type": "PRES_AUD", "trial_index": 146}, "uniqueid": "MTK1915:3IFS6Q0HJJQFO8M4MQ7UC5QKNGESIY", "dateTime": 1516557097492}, {"current_trial": 147, "trialdata": {"rt": -1000, "trial_type": "single-audio", "word": "pepper", "stimulus": "/static/audio/wordpool/PEPPER.wav", "conditions": [24, 800, "a", 24000], "internal_node_id": "0.0-111.0", "trial": 3, "time_elapsed": 782234, "serialpos": 18, "key_press": -1, "wordID": 1046, "type": "PRES_AUD", "trial_index": 147}, "uniqueid": "MTK1915:3IFS6Q0HJJQFO8M4MQ7UC5QKNGESIY", "dateTime": 1516557099413}, {"current_trial": 148, "trialdata": {"rt": -1000, "trial_type": "single-audio", "word": "shrub", "stimulus": "/static/audio/wordpool/SHRUB.wav", "conditions": [24, 800, "a", 24000], "internal_node_id": "0.0-112.0", "trial": 3, "time_elapsed": 783925, "serialpos": 19, "key_press": -1, "wordID": 1298, "type": "PRES_AUD", "trial_index": 148}, "uniqueid": "MTK1915:3IFS6Q0HJJQFO8M4MQ7UC5QKNGESIY", "dateTime": 1516557101104}, {"current_trial": 149, "trialdata": {"rt": -1000, "trial_type": "single-audio", "word": "coin", "stimulus": "/static/audio/wordpool/COIN.wav", "conditions": [24, 800, "a", 24000], "internal_node_id": "0.0-113.0", "trial": 3, "time_elapsed": 785787, "serialpos": 20, "key_press": -1, "wordID": 342, "type": "PRES_AUD", "trial_index": 149}, "uniqueid": "MTK1915:3IFS6Q0HJJQFO8M4MQ7UC5QKNGESIY", "dateTime": 1516557102967}, {"current_trial": 150, "trialdata": {"rt": -1000, "trial_type": "single-audio", "word": "contract", "stimulus": "/static/audio/wordpool/CONTRACT.wav", "conditions": [24, 800, "a", 24000], "internal_node_id": "0.0-114.0", "trial": 3, "time_elapsed": 787743, "serialpos": 21, "key_press": -1, "wordID": 367, "type": "PRES_AUD", "trial_index": 150}, "uniqueid": "MTK1915:3IFS6Q0HJJQFO8M4MQ7UC5QKNGESIY", "dateTime": 1516557104922}, {"current_trial": 151, "trialdata": {"rt": -1000, "trial_type": "single-audio", "word": "apple", "stimulus": "/static/audio/wordpool/APPLE.wav", "conditions": [24, 800, "a", 24000], "internal_node_id": "0.0-115.0", "trial": 3, "time_elapsed": 789729, "serialpos": 22, "key_press": -1, "wordID": 32, "type": "PRES_AUD", "trial_index": 151}, "uniqueid": "MTK1915:3IFS6Q0HJJQFO8M4MQ7UC5QKNGESIY", "dateTime": 1516557106908}, {"current_trial": 152, "trialdata": {"rt": -1000, "trial_type": "single-audio", "word": "pizza", "stimulus": "/static/audio/wordpool/PIZZA.wav", "conditions": [24, 800, "a", 24000], "internal_node_id": "0.0-116.0", "trial": 3, "time_elapsed": 791687, "serialpos": 23, "key_press": -1, "wordID": 1078, "type": "PRES_AUD", "trial_index": 152}, "uniqueid": "MTK1915:3IFS6Q0HJJQFO8M4MQ7UC5QKNGESIY", "dateTime": 1516557108866}, {"current_trial": 153, "trialdata": {"rt": -1, "trial_type": "single-stim", "stimulus": "", "internal_node_id": "0.0-117.0-0.0", "time_elapsed": 792998, "key_press": -1, "type": "PRE_RECALL_DELAY", "trial_index": 153}, "uniqueid": "MTK1915:3IFS6Q0HJJQFO8M4MQ7UC5QKNGESIY", "dateTime": 1516557110177}, {"current_trial": 154, "trialdata": {"rt": -1000, "trial_type": "single-audio", "stimulus": "/static/audio/400Hz.wav", "internal_node_id": "0.0-118.0", "time_elapsed": 793499, "key_press": -1, "type": "PRE_RECALL_ALERT", "trial_index": 154}, "uniqueid": "MTK1915:3IFS6Q0HJJQFO8M4MQ7UC5QKNGESIY", "dateTime": 1516557110679}, {"current_trial": 155, "trialdata": {"rt": [2618, 4104, 5776, 7524, 10162, 11855, 16248, 18476, 20005, 22315, 23473, 25342, 26807, 28296, 30936, 34218, 37280, 39475, 41433, 43111, 45340, 48991, 52292, 54214], "recwords": ["pizza", "apple", "contract", "coin", "shrub", "pepper", "nightgown", "blouse", "spider", "crayon", "cattle", "stallion", "woman", "lady", "igloo", "drawing", "stature", "garden", "fox", "dresser", "spider", "lady", "airport", "drawing"], "key_times": [1810, 2018, 2239, 2385, 2478, 2618, 3080, 3270, 3439, 3611, 3745, 4104, 4668, 4743, 4827, 4949, 5018, 5209, 5320, 5562, 5776, 6585, 6960, 7161, 7300, 7524, 7843, 8650, 8853, 9045, 9361, 10162, 11095, 11260, 11363, 11507, 11602, 11693, 11855, 14997, 15080, 15181, 15281, 15366, 15716, 15799, 15916, 16031, 16248, 17622, 17798, 18009, 18133, 18230, 18402, 18476, 18865, 19008, 19200, 19333, 19452, 19600, 20005, 21036, 21217, 21376, 21759, 21971, 22068, 22315, 22646, 22773, 22975, 23123, 23210, 23334, 23473, 23999, 24230, 24389, 24521, 24663, 24893, 24943, 25091, 25342, 26261, 26364, 26422, 26519, 26639, 26807, 27633, 27759, 27915, 28084, 28296, 30096, 30307, 30418, 30612, 30745, 30936, 32864, 33064, 33234, 33339, 33585, 33696, 33849, 34218, 35750, 35961, 36113, 36264, 36409, 36669, 36734, 37280, 38502, 38690, 38762, 38995, 39120, 39245, 39475, 40954, 41086, 41291, 41433, 41920, 42137, 42271, 42492, 42640, 42843, 42962, 43111, 44449, 44619, 44766, 45004, 45115, 45226, 45340, 48370, 48502, 48636, 48764, 48991, 51105, 51277, 51494, 51639, 51753, 52020, 52186, 52292, 53162, 53338, 53571, 53711, 53883, 53982, 54082, 54214], "trial_type": "free-recall", "conditions": [24, 800, "a", 24000], "internal_node_id": "0.0-119.0-0.0", "key_presses": [80, 73, 90, 90, 65, 13, 65, 80, 80, 76, 69, 13, 67, 79, 78, 84, 82, 65, 67, 84, 13, 67, 79, 73, 78, 13, 83, 72, 82, 85, 66, 13, 80, 69, 80, 80, 69, 82, 13, 78, 73, 71, 72, 84, 71, 79, 87, 78, 13, 66, 76, 79, 85, 83, 69, 13, 83, 80, 73, 68, 69, 82, 13, 67, 82, 65, 89, 79, 78, 13, 67, 65, 84, 84, 76, 69, 13, 83, 84, 65, 76, 76, 73, 79, 78, 13, 87, 79, 77, 65, 78, 13, 76, 65, 68, 89, 13, 73, 71, 76, 79, 79, 13, 68, 82, 65, 87, 73, 78, 71, 13, 83, 84, 65, 84, 85, 82, 69, 13, 71, 65, 82, 68, 69, 78, 13, 70, 79, 88, 13, 68, 82, 69, 83, 83, 69, 82, 13, 83, 80, 73, 68, 69, 82, 13, 76, 65, 68, 89, 13, 65, 73, 82, 80, 79, 82, 84, 13, 68, 82, 65, 87, 73, 78, 71, 13], "trial": 3, "time_elapsed": 853502, "type": "FREE_RECALL", "trial_index": 155}, "uniqueid": "MTK1915:3IFS6Q0HJJQFO8M4MQ7UC5QKNGESIY", "dateTime": 1516557170683}, {"current_trial": 156, "trialdata": {"rt": 85776, "trial_type": "text", "internal_node_id": "0.0-120.0", "time_elapsed": 941280, "key_press": 32, "type": "INSTRUCTIONS", "trial_index": 156}, "uniqueid": "MTK1915:3IFS6Q0HJJQFO8M4MQ7UC5QKNGESIY", "dateTime": 1516557258459}, {"current_trial": 157, "trialdata": {"rt": [2553, 5047, 7230, 11333, 12735, 14724, 16677, 18719, 20830, 22818], "trial_type": "math-distractor", "key_times": [2018, 2201, 2553, 4324, 4494, 5047, 6869, 6970, 7230, 10896, 11077, 11333, 12438, 12537, 12735, 14361, 14498, 14724, 16305, 16470, 16677, 18507, 18719, 19711, 20501, 20830, 22438, 22609, 22818, 23857, 23996], "responses": ["14", "18", "13", "14", "12", "15", "18", "8", "17", "10"], "num2": [7, 7, 9, 8, 4, 6, 2, 2, 8, 3, 5], "num3": [5, 2, 1, 5, 2, 6, 8, 5, 8, 1, 5], "conditions": [24, 1600, "a", 24000], "internal_node_id": "0.0-121.0", "key_presses": [97, 100, 13, 97, 104, 13, 97, 99, 13, 97, 100, 13, 97, 98, 13, 97, 101, 13, 97, 104, 13, 104, 13, 97, 103, 13, 97, 96, 13, 97, 101], "trial": 4, "time_elapsed": 967284, "type": "DISTRACTOR", "trial_index": 157, "num1": [2, 9, 3, 1, 6, 3, 8, 1, 1, 6, 5]}, "uniqueid": "MTK1915:3IFS6Q0HJJQFO8M4MQ7UC5QKNGESIY", "dateTime": 1516557284463}, {"current_trial": 158, "trialdata": {"rt": -1, "trial_type": "single-stim", "stimulus": "<p id=\"stim\">10</p>", "internal_node_id": "0.0-122.0-0.0", "time_elapsed": 970287, "key_press": -1, "trial_index": 158}, "uniqueid": "MTK1915:3IFS6Q0HJJQFO8M4MQ7UC5QKNGESIY", "dateTime": 1516557287466}, {"current_trial": 159, "trialdata": {"rt": -1, "trial_type": "single-stim", "stimulus": "<p id=\"stim\">9</p>", "internal_node_id": "0.0-122.0-1.0", "time_elapsed": 971288, "key_press": -1, "trial_index": 159}, "uniqueid": "MTK1915:3IFS6Q0HJJQFO8M4MQ7UC5QKNGESIY", "dateTime": 1516557288467}, {"current_trial": 160, "trialdata": {"rt": -1, "trial_type": "single-stim", "stimulus": "<p id=\"stim\">8</p>", "internal_node_id": "0.0-122.0-2.0", "time_elapsed": 972289, "key_press": -1, "trial_index": 160}, "uniqueid": "MTK1915:3IFS6Q0HJJQFO8M4MQ7UC5QKNGESIY", "dateTime": 1516557289468}, {"current_trial": 161, "trialdata": {"rt": -1, "trial_type": "single-stim", "stimulus": "<p id=\"stim\">7</p>", "internal_node_id": "0.0-122.0-3.0", "time_elapsed": 973290, "key_press": -1, "trial_index": 161}, "uniqueid": "MTK1915:3IFS6Q0HJJQFO8M4MQ7UC5QKNGESIY", "dateTime": 1516557290469}, {"current_trial": 162, "trialdata": {"rt": -1, "trial_type": "single-stim", "stimulus": "<p id=\"stim\">6</p>", "internal_node_id": "0.0-122.0-4.0", "time_elapsed": 974292, "key_press": -1, "trial_index": 162}, "uniqueid": "MTK1915:3IFS6Q0HJJQFO8M4MQ7UC5QKNGESIY", "dateTime": 1516557291471}, {"current_trial": 163, "trialdata": {"rt": -1, "trial_type": "single-stim", "stimulus": "<p id=\"stim\">5</p>", "internal_node_id": "0.0-122.0-5.0", "time_elapsed": 975293, "key_press": -1, "trial_index": 163}, "uniqueid": "MTK1915:3IFS6Q0HJJQFO8M4MQ7UC5QKNGESIY", "dateTime": 1516557292472}, {"current_trial": 164, "trialdata": {"rt": -1, "trial_type": "single-stim", "stimulus": "<p id=\"stim\">4</p>", "internal_node_id": "0.0-122.0-6.0", "time_elapsed": 976294, "key_press": -1, "trial_index": 164}, "uniqueid": "MTK1915:3IFS6Q0HJJQFO8M4MQ7UC5QKNGESIY", "dateTime": 1516557293473}, {"current_trial": 165, "trialdata": {"rt": -1, "trial_type": "single-stim", "stimulus": "<p id=\"stim\">3</p>", "internal_node_id": "0.0-122.0-7.0", "time_elapsed": 977295, "key_press": -1, "trial_index": 165}, "uniqueid": "MTK1915:3IFS6Q0HJJQFO8M4MQ7UC5QKNGESIY", "dateTime": 1516557294474}, {"current_trial": 166, "trialdata": {"rt": -1, "trial_type": "single-stim", "stimulus": "<p id=\"stim\">2</p>", "internal_node_id": "0.0-122.0-8.0", "time_elapsed": 978298, "key_press": -1, "trial_index": 166}, "uniqueid": "MTK1915:3IFS6Q0HJJQFO8M4MQ7UC5QKNGESIY", "dateTime": 1516557295477}, {"current_trial": 167, "trialdata": {"rt": -1, "trial_type": "single-stim", "stimulus": "<p id=\"stim\">1</p>", "internal_node_id": "0.0-122.0-9.0", "time_elapsed": 979299, "key_press": -1, "trial_index": 167}, "uniqueid": "MTK1915:3IFS6Q0HJJQFO8M4MQ7UC5QKNGESIY", "dateTime": 1516557296478}, {"current_trial": 168, "trialdata": {"rt": -1, "trial_type": "single-stim", "stimulus": "<p id=\"stim\">+</p>", "internal_node_id": "0.0-123.0-0.0", "time_elapsed": 980800, "key_press": -1, "type": "FIXATION", "trial_index": 168}, "uniqueid": "MTK1915:3IFS6Q0HJJQFO8M4MQ7UC5QKNGESIY", "dateTime": 1516557297979}, {"current_trial": 169, "trialdata": {"rt": -1000, "trial_type": "single-audio", "word": "daughter", "stimulus": "/static/audio/wordpool/DAUGHTER.wav", "conditions": [24, 1600, "a", 24000], "internal_node_id": "0.0-124.0", "trial": 4, "time_elapsed": 983206, "serialpos": 0, "key_press": -1, "wordID": 441, "type": "PRES_AUD", "trial_index": 169}, "uniqueid": "MTK1915:3IFS6Q0HJJQFO8M4MQ7UC5QKNGESIY", "dateTime": 1516557300385}, {"current_trial": 170, "trialdata": {"rt": -1000, "trial_type": "single-audio", "word": "puddle", "stimulus": "/static/audio/wordpool/PUDDLE.wav", "conditions": [24, 1600, "a", 24000], "internal_node_id": "0.0-125.0", "trial": 4, "time_elapsed": 985679, "serialpos": 1, "key_press": -1, "wordID": 1139, "type": "PRES_AUD", "trial_index": 170}, "uniqueid": "MTK1915:3IFS6Q0HJJQFO8M4MQ7UC5QKNGESIY", "dateTime": 1516557302858}, {"current_trial": 171, "trialdata": {"rt": -1000, "trial_type": "single-audio", "word": "chemist", "stimulus": "/static/audio/wordpool/CHEMIST.wav", "conditions": [24, 1600, "a", 24000], "internal_node_id": "0.0-126.0", "trial": 4, "time_elapsed": 988176, "serialpos": 2, "key_press": -1, "wordID": 291, "type": "PRES_AUD", "trial_index": 171}, "uniqueid": "MTK1915:3IFS6Q0HJJQFO8M4MQ7UC5QKNGESIY", "dateTime": 1516557305355}, {"current_trial": 172, "trialdata": {"rt": -1000, "trial_type": "single-audio", "word": "paddle", "stimulus": "/static/audio/wordpool/PADDLE.wav", "conditions": [24, 1600, "a", 24000], "internal_node_id": "0.0-127.0", "trial": 4, "time_elapsed": 990899, "serialpos": 3, "key_press": -1, "wordID": 999, "type": "PRES_AUD", "trial_index": 172}, "uniqueid": "MTK1915:3IFS6Q0HJJQFO8M4MQ7UC5QKNGESIY", "dateTime": 1516557308078}, {"current_trial": 173, "trialdata": {"rt": -1000, "trial_type": "single-audio", "word": "queen", "stimulus": "/static/audio/wordpool/QUEEN.wav", "conditions": [24, 1600, "a", 24000], "internal_node_id": "0.0-128.0", "trial": 4, "time_elapsed": 993334, "serialpos": 4, "key_press": -1, "wordID": 1148, "type": "PRES_AUD", "trial_index": 173}, "uniqueid": "MTK1915:3IFS6Q0HJJQFO8M4MQ7UC5QKNGESIY", "dateTime": 1516557310513}, {"current_trial": 174, "trialdata": {"rt": -1000, "trial_type": "single-audio", "word": "lamp", "stimulus": "/static/audio/wordpool/LAMP.wav", "conditions": [24, 1600, "a", 24000], "internal_node_id": "0.0-129.0", "trial": 4, "time_elapsed": 995891, "serialpos": 5, "key_press": -1, "wordID": 797, "type": "PRES_AUD", "trial_index": 174}, "uniqueid": "MTK1915:3IFS6Q0HJJQFO8M4MQ7UC5QKNGESIY", "dateTime": 1516557313070}, {"current_trial": 175, "trialdata": {"rt": -1000, "trial_type": "single-audio", "word": "turkey", "stimulus": "/static/audio/wordpool/TURKEY.wav", "conditions": [24, 1600, "a", 24000], "internal_node_id": "0.0-130.0", "trial": 4, "time_elapsed": 998303, "serialpos": 6, "key_press": -1, "wordID": 1519, "type": "PRES_AUD", "trial_index": 175}, "uniqueid": "MTK1915:3IFS6Q0HJJQFO8M4MQ7UC5QKNGESIY", "dateTime": 1516557315482}, {"current_trial": 176, "trialdata": {"rt": -1000, "trial_type": "single-audio", "word": "pork", "stimulus": "/static/audio/wordpool/PORK.wav", "conditions": [24, 1600, "a", 24000], "internal_node_id": "0.0-131.0", "trial": 4, "time_elapsed": 1000732, "serialpos": 7, "key_press": -1, "wordID": 1107, "type": "PRES_AUD", "trial_index": 176}, "uniqueid": "MTK1915:3IFS6Q0HJJQFO8M4MQ7UC5QKNGESIY", "dateTime": 1516557317911}, {"current_trial": 177, "trialdata": {"rt": -1000, "trial_type": "single-audio", "word": "kidney", "stimulus": "/static/audio/wordpool/KIDNEY.wav", "conditions": [24, 1600, "a", 24000], "internal_node_id": "0.0-132.0", "trial": 4, "time_elapsed": 1003162, "serialpos": 8, "key_press": -1, "wordID": 775, "type": "PRES_AUD", "trial_index": 177}, "uniqueid": "MTK1915:3IFS6Q0HJJQFO8M4MQ7UC5QKNGESIY", "dateTime": 1516557320341}, {"current_trial": 178, "trialdata": {"rt": -1000, "trial_type": "single-audio", "word": "honey", "stimulus": "/static/audio/wordpool/HONEY.wav", "conditions": [24, 1600, "a", 24000], "internal_node_id": "0.0-133.0", "trial": 4, "time_elapsed": 1005861, "serialpos": 9, "key_press": -1, "wordID": 712, "type": "PRES_AUD", "trial_index": 178}, "uniqueid": "MTK1915:3IFS6Q0HJJQFO8M4MQ7UC5QKNGESIY", "dateTime": 1516557323040}, {"current_trial": 179, "trialdata": {"rt": -1000, "trial_type": "single-audio", "word": "journal", "stimulus": "/static/audio/wordpool/JOURNAL.wav", "conditions": [24, 1600, "a", 24000], "internal_node_id": "0.0-134.0", "trial": 4, "time_elapsed": 1008617, "serialpos": 10, "key_press": -1, "wordID": 759, "type": "PRES_AUD", "trial_index": 179}, "uniqueid": "MTK1915:3IFS6Q0HJJQFO8M4MQ7UC5QKNGESIY", "dateTime": 1516557325796}, {"current_trial": 180, "trialdata": {"rt": -1000, "trial_type": "single-audio", "word": "friend", "stimulus": "/static/audio/wordpool/FRIEND.wav", "conditions": [24, 1600, "a", 24000], "internal_node_id": "0.0-135.0", "trial": 4, "time_elapsed": 1011029, "serialpos": 11, "key_press": -1, "wordID": 605, "type": "PRES_AUD", "trial_index": 180}, "uniqueid": "MTK1915:3IFS6Q0HJJQFO8M4MQ7UC5QKNGESIY", "dateTime": 1516557328208}, {"current_trial": 181, "trialdata": {"rt": -1000, "trial_type": "single-audio", "word": "denim", "stimulus": "/static/audio/wordpool/DENIM.wav", "conditions": [24, 1600, "a", 24000], "internal_node_id": "0.0-136.0", "trial": 4, "time_elapsed": 1013619, "serialpos": 12, "key_press": -1, "wordID": 445, "type": "PRES_AUD", "trial_index": 181}, "uniqueid": "MTK1915:3IFS6Q0HJJQFO8M4MQ7UC5QKNGESIY", "dateTime": 1516557330798}, {"current_trial": 182, "trialdata": {"rt": -1000, "trial_type": "single-audio", "word": "country", "stimulus": "/static/audio/wordpool/COUNTRY.wav", "conditions": [24, 1600, "a", 24000], "internal_node_id": "0.0-137.0", "trial": 4, "time_elapsed": 1016040, "serialpos": 13, "key_press": -1, "wordID": 387, "type": "PRES_AUD", "trial_index": 182}, "uniqueid": "MTK1915:3IFS6Q0HJJQFO8M4MQ7UC5QKNGESIY", "dateTime": 1516557333219}, {"current_trial": 183, "trialdata": {"rt": -1000, "trial_type": "single-audio", "word": "world", "stimulus": "/static/audio/wordpool/WORLD.wav", "conditions": [24, 1600, "a", 24000], "internal_node_id": "0.0-138.0", "trial": 4, "time_elapsed": 1018476, "serialpos": 14, "key_press": -1, "wordID": 1621, "type": "PRES_AUD", "trial_index": 183}, "uniqueid": "MTK1915:3IFS6Q0HJJQFO8M4MQ7UC5QKNGESIY", "dateTime": 1516557335655}, {"current_trial": 184, "trialdata": {"rt": -1000, "trial_type": "single-audio", "word": "preacher", "stimulus": "/static/audio/wordpool/PREACHER.wav", "conditions": [24, 1600, "a", 24000], "internal_node_id": "0.0-139.0", "trial": 4, "time_elapsed": 1021256, "serialpos": 15, "key_press": -1, "wordID": 1118, "type": "PRES_AUD", "trial_index": 184}, "uniqueid": "MTK1915:3IFS6Q0HJJQFO8M4MQ7UC5QKNGESIY", "dateTime": 1516557338435}, {"current_trial": 185, "trialdata": {"rt": -1000, "trial_type": "single-audio", "word": "lumber", "stimulus": "/static/audio/wordpool/LUMBER.wav", "conditions": [24, 1600, "a", 24000], "internal_node_id": "0.0-140.0", "trial": 4, "time_elapsed": 1023711, "serialpos": 16, "key_press": -1, "wordID": 847, "type": "PRES_AUD", "trial_index": 185}, "uniqueid": "MTK1915:3IFS6Q0HJJQFO8M4MQ7UC5QKNGESIY", "dateTime": 1516557340891}, {"current_trial": 186, "trialdata": {"rt": -1000, "trial_type": "single-audio", "word": "plaid", "stimulus": "/static/audio/wordpool/PLAID.wav", "conditions": [24, 1600, "a", 24000], "internal_node_id": "0.0-141.0", "trial": 4, "time_elapsed": 1026243, "serialpos": 17, "key_press": -1, "wordID": 1079, "type": "PRES_AUD", "trial_index": 186}, "uniqueid": "MTK1915:3IFS6Q0HJJQFO8M4MQ7UC5QKNGESIY", "dateTime": 1516557343422}, {"current_trial": 187, "trialdata": {"rt": -1000, "trial_type": "single-audio", "word": "rebel", "stimulus": "/static/audio/wordpool/REBEL.wav", "conditions": [24, 1600, "a", 24000], "internal_node_id": "0.0-142.0", "trial": 4, "time_elapsed": 1028891, "serialpos": 18, "key_press": -1, "wordID": 1171, "type": "PRES_AUD", "trial_index": 187}, "uniqueid": "MTK1915:3IFS6Q0HJJQFO8M4MQ7UC5QKNGESIY", "dateTime": 1516557346070}, {"current_trial": 188, "trialdata": {"rt": -1000, "trial_type": "single-audio", "word": "river", "stimulus": "/static/audio/wordpool/RIVER.wav", "conditions": [24, 1600, "a", 24000], "internal_node_id": "0.0-143.0", "trial": 4, "time_elapsed": 1031448, "serialpos": 19, "key_press": -1, "wordID": 1193, "type": "PRES_AUD", "trial_index": 188}, "uniqueid": "MTK1915:3IFS6Q0HJJQFO8M4MQ7UC5QKNGESIY", "dateTime": 1516557348627}, {"current_trial": 189, "trialdata": {"rt": -1000, "trial_type": "single-audio", "word": "judge", "stimulus": "/static/audio/wordpool/JUDGE.wav", "conditions": [24, 1600, "a", 24000], "internal_node_id": "0.0-144.0", "trial": 4, "time_elapsed": 1034217, "serialpos": 20, "key_press": -1, "wordID": 760, "type": "PRES_AUD", "trial_index": 189}, "uniqueid": "MTK1915:3IFS6Q0HJJQFO8M4MQ7UC5QKNGESIY", "dateTime": 1516557351396}, {"current_trial": 190, "trialdata": {"rt": -1000, "trial_type": "single-audio", "word": "comet", "stimulus": "/static/audio/wordpool/COMET.wav", "conditions": [24, 1600, "a", 24000], "internal_node_id": "0.0-145.0", "trial": 4, "time_elapsed": 1036948, "serialpos": 21, "key_press": -1, "wordID": 352, "type": "PRES_AUD", "trial_index": 190}, "uniqueid": "MTK1915:3IFS6Q0HJJQFO8M4MQ7UC5QKNGESIY", "dateTime": 1516557354127}, {"current_trial": 191, "trialdata": {"rt": -1000, "trial_type": "single-audio", "word": "sunrise", "stimulus": "/static/audio/wordpool/SUNRISE.wav", "conditions": [24, 1600, "a", 24000], "internal_node_id": "0.0-146.0", "trial": 4, "time_elapsed": 1039716, "serialpos": 22, "key_press": -1, "wordID": 1406, "type": "PRES_AUD", "trial_index": 191}, "uniqueid": "MTK1915:3IFS6Q0HJJQFO8M4MQ7UC5QKNGESIY", "dateTime": 1516557356895}, {"current_trial": 192, "trialdata": {"rt": -1000, "trial_type": "single-audio", "word": "catcher", "stimulus": "/static/audio/wordpool/CATCHER.wav", "conditions": [24, 1600, "a", 24000], "internal_node_id": "0.0-147.0", "trial": 4, "time_elapsed": 1042294, "serialpos": 23, "key_press": -1, "wordID": 257, "type": "PRES_AUD", "trial_index": 192}, "uniqueid": "MTK1915:3IFS6Q0HJJQFO8M4MQ7UC5QKNGESIY", "dateTime": 1516557359473}, {"current_trial": 193, "trialdata": {"rt": -1, "trial_type": "single-stim", "stimulus": "", "internal_node_id": "0.0-148.0-0.0", "time_elapsed": 1043593, "key_press": -1, "type": "PRE_RECALL_DELAY", "trial_index": 193}, "uniqueid": "MTK1915:3IFS6Q0HJJQFO8M4MQ7UC5QKNGESIY", "dateTime": 1516557360772}, {"current_trial": 194, "trialdata": {"rt": -1000, "trial_type": "single-audio", "stimulus": "/static/audio/400Hz.wav", "internal_node_id": "0.0-149.0", "time_elapsed": 1044094, "key_press": -1, "type": "PRE_RECALL_ALERT", "trial_index": 194}, "uniqueid": "MTK1915:3IFS6Q0HJJQFO8M4MQ7UC5QKNGESIY", "dateTime": 1516557361273}, {"current_trial": 195, "trialdata": {"rt": [3364, 5373, 7213, 9516, 11777, 13021, 15262, 16630, 17650, 20419, 21295, 22480, 24770, 26293, 28061, 29141, 31729, 35612, 37677, 40331, 41797, 43330, 45305, 49472, 51233, 57501], "recwords": ["daughter", "world", "puddle", "country", "denim", "chemist", "journal", "queen", "friend", "journal", "lamp", "paddle", "honey", "turkey", "kidney", "pork", "sunrise", "judge", "river", "comic", "lumbner", "lumber", "plaid", "sunrise", "rebel", "pork"], "key_times": [2083, 2197, 2271, 2419, 2496, 2656, 2801, 2893, 3364, 4298, 4471, 4542, 4886, 4994, 5373, 6477, 6634, 6738, 6889, 6982, 7089, 7213, 8523, 8610, 8760, 8841, 8973, 9067, 9181, 9516, 10924, 11014, 11236, 11356, 11494, 11777, 12246, 12327, 12418, 12532, 12636, 12745, 12916, 13021, 14248, 14352, 14481, 14687, 14819, 14930, 15038, 15262, 15936, 16099, 16210, 16357, 16416, 16630, 16850, 17026, 17199, 17295, 17433, 17508, 17650, 19290, 19379, 19535, 19613, 19738, 19942, 20096, 20419, 20799, 20925, 20982, 21092, 21295, 21607, 21768, 21988, 22114, 22240, 22338, 22480, 24038, 24183, 24286, 24420, 24522, 24770, 25417, 25505, 25623, 25782, 25883, 26025, 26293, 27104, 27291, 27513, 27625, 27738, 27817, 28061, 28432, 28524, 28649, 28759, 29141, 30685, 30893, 30993, 31121, 31215, 31349, 31546, 31729, 33253, 33537, 34262, 34651, 34729, 34914, 35065, 35612, 37042, 37227, 37307, 37459, 37540, 37677, 37874, 38309, 38855, 39162, 39300, 39490, 40231, 40331, 40921, 41154, 41346, 41522, 41542, 41604, 41662, 41797, 42474, 42692, 42881, 43051, 43143, 43191, 43330, 44704, 44880, 45006, 45092, 45200, 45305, 48638, 48802, 48903, 49013, 49093, 49220, 49400, 49472, 50700, 50804, 50844, 50979, 51036, 51233, 56932, 57035, 57225, 57285, 57501], "trial_type": "free-recall", "conditions": [24, 1600, "a", 24000], "internal_node_id": "0.0-150.0-0.0", "key_presses": [68, 65, 85, 71, 72, 84, 69, 82, 13, 87, 79, 82, 76, 68, 13, 80, 85, 68, 68, 76, 69, 13, 67, 79, 85, 78, 84, 82, 89, 13, 68, 69, 78, 73, 77, 13, 67, 72, 69, 77, 73, 83, 84, 13, 74, 79, 85, 82, 78, 65, 76, 13, 81, 85, 69, 69, 78, 13, 70, 82, 73, 69, 78, 68, 13, 74, 79, 85, 82, 78, 65, 76, 13, 76, 65, 77, 80, 13, 80, 65, 68, 68, 76, 69, 13, 72, 79, 78, 69, 89, 13, 84, 85, 82, 75, 69, 89, 13, 75, 73, 68, 78, 69, 89, 13, 80, 79, 82, 75, 13, 83, 85, 78, 82, 73, 83, 69, 13, 74, 85, 83, 8, 68, 71, 69, 13, 82, 73, 86, 69, 82, 13, 67, 80, 8, 79, 77, 73, 67, 13, 76, 85, 77, 66, 78, 69, 82, 13, 76, 85, 77, 66, 69, 82, 13, 80, 76, 65, 73, 68, 13, 83, 85, 78, 82, 73, 83, 69, 13, 82, 69, 66, 69, 76, 13, 80, 79, 82, 75, 13], "trial": 4, "time_elapsed": 1104096, "type": "FREE_RECALL", "trial_index": 195}, "uniqueid": "MTK1915:3IFS6Q0HJJQFO8M4MQ7UC5QKNGESIY", "dateTime": 1516557421277}, {"current_trial": 196, "trialdata": {"rt": 1914, "trial_type": "text", "internal_node_id": "0.0-151.0", "time_elapsed": 1108012, "key_press": 32, "type": "INSTRUCTIONS", "trial_index": 196}, "uniqueid": "MTK1915:3IFS6Q0HJJQFO8M4MQ7UC5QKNGESIY", "dateTime": 1516557425191}, {"current_trial": 197, "trialdata": {"rt": [2396, 4710, 7171, 9019], "trial_type": "math-distractor", "key_times": [1804, 2396, 4374, 4483, 4710, 6805, 6978, 7171, 8722, 8813, 9019, 11494, 11700], "responses": ["7", "16", "15", "12"], "num2": [1, 7, 2, 6, 4], "num3": [4, 3, 4, 4, 5], "conditions": [12, 800, "a", 12000], "internal_node_id": "0.0-152.0", "key_presses": [103, 13, 97, 102, 13, 97, 101, 13, 97, 98, 13, 97, 97], "trial": 5, "time_elapsed": 1122015, "type": "DISTRACTOR", "trial_index": 197, "num1": [2, 6, 9, 2, 4]}, "uniqueid": "MTK1915:3IFS6Q0HJJQFO8M4MQ7UC5QKNGESIY", "dateTime": 1516557439194}, {"current_trial": 198, "trialdata": {"rt": -1, "trial_type": "single-stim", "stimulus": "<p id=\"stim\">10</p>", "internal_node_id": "0.0-153.0-0.0", "time_elapsed": 1125017, "key_press": -1, "trial_index": 198}, "uniqueid": "MTK1915:3IFS6Q0HJJQFO8M4MQ7UC5QKNGESIY", "dateTime": 1516557442196}, {"current_trial": 199, "trialdata": {"rt": -1, "trial_type": "single-stim", "stimulus": "<p id=\"stim\">9</p>", "internal_node_id": "0.0-153.0-1.0", "time_elapsed": 1126019, "key_press": -1, "trial_index": 199}, "uniqueid": "MTK1915:3IFS6Q0HJJQFO8M4MQ7UC5QKNGESIY", "dateTime": 1516557443198}, {"current_trial": 200, "trialdata": {"rt": -1, "trial_type": "single-stim", "stimulus": "<p id=\"stim\">8</p>", "internal_node_id": "0.0-153.0-2.0", "time_elapsed": 1127020, "key_press": -1, "trial_index": 200}, "uniqueid": "MTK1915:3IFS6Q0HJJQFO8M4MQ7UC5QKNGESIY", "dateTime": 1516557444199}, {"current_trial": 201, "trialdata": {"rt": -1, "trial_type": "single-stim", "stimulus": "<p id=\"stim\">7</p>", "internal_node_id": "0.0-153.0-3.0", "time_elapsed": 1128022, "key_press": -1, "trial_index": 201}, "uniqueid": "MTK1915:3IFS6Q0HJJQFO8M4MQ7UC5QKNGESIY", "dateTime": 1516557445201}, {"current_trial": 202, "trialdata": {"rt": -1, "trial_type": "single-stim", "stimulus": "<p id=\"stim\">6</p>", "internal_node_id": "0.0-153.0-4.0", "time_elapsed": 1129023, "key_press": -1, "trial_index": 202}, "uniqueid": "MTK1915:3IFS6Q0HJJQFO8M4MQ7UC5QKNGESIY", "dateTime": 1516557446202}, {"current_trial": 203, "trialdata": {"rt": -1, "trial_type": "single-stim", "stimulus": "<p id=\"stim\">5</p>", "internal_node_id": "0.0-153.0-5.0", "time_elapsed": 1130026, "key_press": -1, "trial_index": 203}, "uniqueid": "MTK1915:3IFS6Q0HJJQFO8M4MQ7UC5QKNGESIY", "dateTime": 1516557447205}, {"current_trial": 204, "trialdata": {"rt": -1, "trial_type": "single-stim", "stimulus": "<p id=\"stim\">4</p>", "internal_node_id": "0.0-153.0-6.0", "time_elapsed": 1131027, "key_press": -1, "trial_index": 204}, "uniqueid": "MTK1915:3IFS6Q0HJJQFO8M4MQ7UC5QKNGESIY", "dateTime": 1516557448206}, {"current_trial": 205, "trialdata": {"rt": -1, "trial_type": "single-stim", "stimulus": "<p id=\"stim\">3</p>", "internal_node_id": "0.0-153.0-7.0", "time_elapsed": 1132028, "key_press": -1, "trial_index": 205}, "uniqueid": "MTK1915:3IFS6Q0HJJQFO8M4MQ7UC5QKNGESIY", "dateTime": 1516557449207}, {"current_trial": 206, "trialdata": {"rt": -1, "trial_type": "single-stim", "stimulus": "<p id=\"stim\">2</p>", "internal_node_id": "0.0-153.0-8.0", "time_elapsed": 1133029, "key_press": -1, "trial_index": 206}, "uniqueid": "MTK1915:3IFS6Q0HJJQFO8M4MQ7UC5QKNGESIY", "dateTime": 1516557450208}, {"current_trial": 207, "trialdata": {"rt": -1, "trial_type": "single-stim", "stimulus": "<p id=\"stim\">1</p>", "internal_node_id": "0.0-153.0-9.0", "time_elapsed": 1134031, "key_press": -1, "trial_index": 207}, "uniqueid": "MTK1915:3IFS6Q0HJJQFO8M4MQ7UC5QKNGESIY", "dateTime": 1516557451210}, {"current_trial": 208, "trialdata": {"rt": -1, "trial_type": "single-stim", "stimulus": "<p id=\"stim\">+</p>", "internal_node_id": "0.0-154.0-0.0", "time_elapsed": 1135532, "key_press": -1, "type": "FIXATION", "trial_index": 208}, "uniqueid": "MTK1915:3IFS6Q0HJJQFO8M4MQ7UC5QKNGESIY", "dateTime": 1516557452711}, {"current_trial": 209, "trialdata": {"rt": -1000, "trial_type": "single-audio", "word": "buggy", "stimulus": "/static/audio/wordpool/BUGGY.wav", "conditions": [12, 800, "a", 12000], "internal_node_id": "0.0-155.0", "trial": 5, "time_elapsed": 1137354, "serialpos": 0, "key_press": -1, "wordID": 187, "type": "PRES_AUD", "trial_index": 209}, "uniqueid": "MTK1915:3IFS6Q0HJJQFO8M4MQ7UC5QKNGESIY", "dateTime": 1516557454533}, {"current_trial": 210, "trialdata": {"rt": -1000, "trial_type": "single-audio", "word": "plaster", "stimulus": "/static/audio/wordpool/PLASTER.wav", "conditions": [12, 800, "a", 12000], "internal_node_id": "0.0-156.0", "trial": 5, "time_elapsed": 1139040, "serialpos": 1, "key_press": -1, "wordID": 1084, "type": "PRES_AUD", "trial_index": 210}, "uniqueid": "MTK1915:3IFS6Q0HJJQFO8M4MQ7UC5QKNGESIY", "dateTime": 1516557456219}, {"current_trial": 211, "trialdata": {"rt": -1000, "trial_type": "single-audio", "word": "mildew", "stimulus": "/static/audio/wordpool/MILDEW.wav", "conditions": [12, 800, "a", 12000], "internal_node_id": "0.0-157.0", "trial": 5, "time_elapsed": 1141027, "serialpos": 2, "key_press": -1, "wordID": 892, "type": "PRES_AUD", "trial_index": 211}, "uniqueid": "MTK1915:3IFS6Q0HJJQFO8M4MQ7UC5QKNGESIY", "dateTime": 1516557458206}, {"current_trial": 212, "trialdata": {"rt": -1000, "trial_type": "single-audio", "word": "fiddle", "stimulus": "/static/audio/wordpool/FIDDLE.wav", "conditions": [12, 800, "a", 12000], "internal_node_id": "0.0-158.0", "trial": 5, "time_elapsed": 1142827, "serialpos": 3, "key_press": -1, "wordID": 560, "type": "PRES_AUD", "trial_index": 212}, "uniqueid": "MTK1915:3IFS6Q0HJJQFO8M4MQ7UC5QKNGESIY", "dateTime": 1516557460006}, {"current_trial": 213, "trialdata": {"rt": -1000, "trial_type": "single-audio", "word": "trombone", "stimulus": "/static/audio/wordpool/TROMBONE.wav", "conditions": [12, 800, "a", 12000], "internal_node_id": "0.0-159.0", "trial": 5, "time_elapsed": 1144624, "serialpos": 4, "key_press": -1, "wordID": 1507, "type": "PRES_AUD", "trial_index": 213}, "uniqueid": "MTK1915:3IFS6Q0HJJQFO8M4MQ7UC5QKNGESIY", "dateTime": 1516557461803}, {"current_trial": 214, "trialdata": {"rt": -1000, "trial_type": "single-audio", "word": "missile", "stimulus": "/static/audio/wordpool/MISSILE.wav", "conditions": [12, 800, "a", 12000], "internal_node_id": "0.0-160.0", "trial": 5, "time_elapsed": 1146339, "serialpos": 5, "key_press": -1, "wordID": 899, "type": "PRES_AUD", "trial_index": 214}, "uniqueid": "MTK1915:3IFS6Q0HJJQFO8M4MQ7UC5QKNGESIY", "dateTime": 1516557463518}, {"current_trial": 215, "trialdata": {"rt": -1000, "trial_type": "single-audio", "word": "trout", "stimulus": "/static/audio/wordpool/TROUT.wav", "conditions": [12, 800, "a", 12000], "internal_node_id": "0.0-161.0", "trial": 5, "time_elapsed": 1147996, "serialpos": 6, "key_press": -1, "wordID": 1510, "type": "PRES_AUD", "trial_index": 215}, "uniqueid": "MTK1915:3IFS6Q0HJJQFO8M4MQ7UC5QKNGESIY", "dateTime": 1516557465175}, {"current_trial": 216, "trialdata": {"rt": -1000, "trial_type": "single-audio", "word": "casket", "stimulus": "/static/audio/wordpool/CASKET.wav", "conditions": [12, 800, "a", 12000], "internal_node_id": "0.0-162.0", "trial": 5, "time_elapsed": 1149716, "serialpos": 7, "key_press": -1, "wordID": 254, "type": "PRES_AUD", "trial_index": 216}, "uniqueid": "MTK1915:3IFS6Q0HJJQFO8M4MQ7UC5QKNGESIY", "dateTime": 1516557466895}, {"current_trial": 217, "trialdata": {"rt": -1000, "trial_type": "single-audio", "word": "flute", "stimulus": "/static/audio/wordpool/FLUTE.wav", "conditions": [12, 800, "a", 12000], "internal_node_id": "0.0-163.0", "trial": 5, "time_elapsed": 1151384, "serialpos": 8, "key_press": -1, "wordID": 584, "type": "PRES_AUD", "trial_index": 217}, "uniqueid": "MTK1915:3IFS6Q0HJJQFO8M4MQ7UC5QKNGESIY", "dateTime": 1516557468563}, {"current_trial": 218, "trialdata": {"rt": -1000, "trial_type": "single-audio", "word": "sparrow", "stimulus": "/static/audio/wordpool/SPARROW.wav", "conditions": [12, 800, "a", 12000], "internal_node_id": "0.0-164.0", "trial": 5, "time_elapsed": 1153082, "serialpos": 9, "key_press": -1, "wordID": 1346, "type": "PRES_AUD", "trial_index": 218}, "uniqueid": "MTK1915:3IFS6Q0HJJQFO8M4MQ7UC5QKNGESIY", "dateTime": 1516557470261}, {"current_trial": 219, "trialdata": {"rt": -1000, "trial_type": "single-audio", "word": "knife", "stimulus": "/static/audio/wordpool/KNIFE.wav", "conditions": [12, 800, "a", 12000], "internal_node_id": "0.0-165.0", "trial": 5, "time_elapsed": 1154735, "serialpos": 10, "key_press": -1, "wordID": 784, "type": "PRES_AUD", "trial_index": 219}, "uniqueid": "MTK1915:3IFS6Q0HJJQFO8M4MQ7UC5QKNGESIY", "dateTime": 1516557471914}, {"current_trial": 220, "trialdata": {"rt": -1000, "trial_type": "single-audio", "word": "sword", "stimulus": "/static/audio/wordpool/SWORD.wav", "conditions": [12, 800, "a", 12000], "internal_node_id": "0.0-166.0", "trial": 5, "time_elapsed": 1156688, "serialpos": 11, "key_press": -1, "wordID": 1422, "type": "PRES_AUD", "trial_index": 220}, "uniqueid": "MTK1915:3IFS6Q0HJJQFO8M4MQ7UC5QKNGESIY", "dateTime": 1516557473867}, {"current_trial": 221, "trialdata": {"rt": -1, "trial_type": "single-stim", "stimulus": "", "internal_node_id": "0.0-167.0-0.0", "time_elapsed": 1157918, "key_press": -1, "type": "PRE_RECALL_DELAY", "trial_index": 221}, "uniqueid": "MTK1915:3IFS6Q0HJJQFO8M4MQ7UC5QKNGESIY", "dateTime": 1516557475097}, {"current_trial": 222, "trialdata": {"rt": -1000, "trial_type": "single-audio", "stimulus": "/static/audio/400Hz.wav", "internal_node_id": "0.0-168.0", "time_elapsed": 1158419, "key_press": -1, "type": "PRE_RECALL_ALERT", "trial_index": 222}, "uniqueid": "MTK1915:3IFS6Q0HJJQFO8M4MQ7UC5QKNGESIY", "dateTime": 1516557475599}, {"current_trial": 223, "trialdata": {"rt": [4758, 6737, 8859, 10743, 11942, 14096, 16059, 18640, 21039, 23232, 25852, 29408, 33425, 37912], "recwords": ["trombone", "mistle", "sword", "knife", "sparrow", "flute", "buggy", "mildew", "plaster", "trout", "fiddle", "mistake", "casket", "knife"], "key_times": [2756, 2826, 2941, 3047, 3292, 3378, 3483, 3593, 4758, 5414, 5525, 5915, 6139, 6225, 6306, 6737, 8044, 8248, 8380, 8476, 8654, 8859, 10194, 10264, 10418, 10541, 10625, 10743, 10985, 11211, 11337, 11505, 11647, 11719, 11809, 11942, 13301, 13385, 13591, 13775, 13887, 14096, 15349, 15483, 15588, 15750, 15822, 16059, 17756, 17897, 18022, 18185, 18409, 18493, 18640, 18911, 19012, 19125, 19362, 19643, 19777, 19857, 21039, 22686, 22759, 22851, 22973, 23097, 23232, 25050, 25225, 25399, 25568, 25620, 25720, 25852, 28461, 28615, 28739, 28933, 29077, 29183, 29288, 29408, 32606, 32699, 32807, 32977, 33070, 33229, 33425, 37147, 37276, 37425, 37544, 37650, 37912], "trial_type": "free-recall", "conditions": [12, 800, "a", 12000], "internal_node_id": "0.0-169.0-0.0", "key_presses": [84, 82, 79, 77, 66, 79, 78, 69, 13, 77, 73, 83, 84, 76, 69, 13, 83, 87, 79, 82, 68, 13, 75, 78, 73, 70, 69, 13, 83, 80, 65, 82, 82, 79, 87, 13, 70, 76, 85, 84, 69, 13, 66, 85, 71, 71, 89, 13, 77, 73, 76, 68, 69, 87, 13, 80, 76, 65, 83, 84, 69, 82, 13, 84, 82, 79, 85, 84, 13, 70, 73, 68, 68, 76, 69, 13, 77, 73, 83, 84, 65, 75, 69, 13, 67, 65, 83, 75, 69, 84, 13, 75, 78, 73, 70, 69, 13], "trial": 5, "time_elapsed": 1218421, "type": "FREE_RECALL", "trial_index": 223}, "uniqueid": "MTK1915:3IFS6Q0HJJQFO8M4MQ7UC5QKNGESIY", "dateTime": 1516557535604}, {"current_trial": 224, "trialdata": {"rt": 40289, "trial_type": "text", "internal_node_id": "0.0-170.0", "time_elapsed": 1260715, "key_press": 32, "type": "INSTRUCTIONS", "trial_index": 224}, "uniqueid": "MTK1915:3IFS6Q0HJJQFO8M4MQ7UC5QKNGESIY", "dateTime": 1516557577894}, {"current_trial": 225, "trialdata": {"rt": [3102, 5831, 12115, 15000, 20162, 21766, 23542], "trial_type": "math-distractor", "key_times": [2694, 2898, 3102, 5484, 5648, 5831, 10477, 10593, 11233, 11858, 12115, 14686, 14816, 15000, 17884, 19233, 19734, 19932, 20162, 21436, 21578, 21766, 23026, 23236, 23542], "responses": ["14", "19", "13", "18", "24", "11", "16"], "num2": [1, 3, 4, 6, 9, 7, 4, 7], "num3": [7, 7, 4, 8, 6, 3, 6, 4], "conditions": [12, 800, "a", 24000], "internal_node_id": "0.0-171.0", "key_presses": [97, 100, 13, 97, 105, 13, 97, 98, 8, 99, 13, 97, 104, 13, 97, 8, 98, 100, 13, 97, 97, 13, 97, 102, 13], "trial": 6, "time_elapsed": 1286717, "type": "DISTRACTOR", "trial_index": 225, "num1": [6, 9, 5, 4, 9, 1, 6, 3]}, "uniqueid": "MTK1915:3IFS6Q0HJJQFO8M4MQ7UC5QKNGESIY", "dateTime": 1516557603896}, {"current_trial": 226, "trialdata": {"rt": -1, "trial_type": "single-stim", "stimulus": "<p id=\"stim\">10</p>", "internal_node_id": "0.0-172.0-0.0", "time_elapsed": 1289719, "key_press": -1, "trial_index": 226}, "uniqueid": "MTK1915:3IFS6Q0HJJQFO8M4MQ7UC5QKNGESIY", "dateTime": 1516557606898}, {"current_trial": 227, "trialdata": {"rt": -1, "trial_type": "single-stim", "stimulus": "<p id=\"stim\">9</p>", "internal_node_id": "0.0-172.0-1.0", "time_elapsed": 1290721, "key_press": -1, "trial_index": 227}, "uniqueid": "MTK1915:3IFS6Q0HJJQFO8M4MQ7UC5QKNGESIY", "dateTime": 1516557607900}, {"current_trial": 228, "trialdata": {"rt": -1, "trial_type": "single-stim", "stimulus": "<p id=\"stim\">8</p>", "internal_node_id": "0.0-172.0-2.0", "time_elapsed": 1291722, "key_press": -1, "trial_index": 228}, "uniqueid": "MTK1915:3IFS6Q0HJJQFO8M4MQ7UC5QKNGESIY", "dateTime": 1516557608901}, {"current_trial": 229, "trialdata": {"rt": -1, "trial_type": "single-stim", "stimulus": "<p id=\"stim\">7</p>", "internal_node_id": "0.0-172.0-3.0", "time_elapsed": 1292723, "key_press": -1, "trial_index": 229}, "uniqueid": "MTK1915:3IFS6Q0HJJQFO8M4MQ7UC5QKNGESIY", "dateTime": 1516557609902}, {"current_trial": 230, "trialdata": {"rt": -1, "trial_type": "single-stim", "stimulus": "<p id=\"stim\">6</p>", "internal_node_id": "0.0-172.0-4.0", "time_elapsed": 1293724, "key_press": -1, "trial_index": 230}, "uniqueid": "MTK1915:3IFS6Q0HJJQFO8M4MQ7UC5QKNGESIY", "dateTime": 1516557610903}, {"cu