{"assignmentId": "333U7HK6IAM5HUNS7IX5T7JKZSSJD6", "workerId": "MTK1930", "questiondata": {"origin": "United States", "strat-rehearsal": "55", "marital": "Single", "education": "Bachelor's degree", "ethnicity": "Not Hispanic", "color_depth": 24, "distracted": "No", "wrote-notes": "No", "strat-other": "", "screen_width": 1920, "avail_screen_width": 1920, "avail_screen_height": 1040, "strat-image": "78", "language": "English", "gender": "Male", "age": "32", "gender_other": "", "race": ["Black"], "strat-categorize": "100", "pixel_depth": 24, "strat-spatial": "0", "strat-story": "0", "race_other": "", "screen_height": 1080}, "bonus": 0, "hitId": "3ZVPAMTJWNAN4II2RB2KCZCO4U4GR0", "counterbalance": 1852, "useragent": "Mozilla/5.0 (Windows NT 6.1; Win64; x64) AppleWebKit/537.36 (KHTML, like Gecko) Chrome/63.0.3239.132 Safari/537.36", "eventdata": [{"eventtype": "initialized", "interval": 0, "value": null, "timestamp": 1516560027256}, {"eventtype": "window_resize", "interval": 0, "value": [1920, 990], "timestamp": 1516560027256}, {"eventtype": "focus", "interval": 1439, "value": "off", "timestamp": 1516560028695}, {"eventtype": "focus", "interval": 4505, "value": "on", "timestamp": 1516560033200}, {"eventtype": "focus", "interval": 31943, "value": "off", "timestamp": 1516560065143}, {"eventtype": "focus", "interval": 2145, "value": "on", "timestamp": 1516560067288}, {"eventtype": "focus", "interval": 43894, "value": "off", "timestamp": 1516560111182}, {"eventtype": "focus", "interval": 2130, "value": "on", "timestamp": 1516560113312}, {"eventtype": "focus", "interval": 161127, "value": "off", "timestamp": 1516560274439}, {"eventtype": "focus", "interval": 24289, "value": "on", "timestamp": 1516560298728}, {"eventtype": "focus", "interval": 90853, "value": "off", "timestamp": 1516560389581}, {"eventtype": "focus", "interval": 51491, "value": "on", "timestamp": 1516560441072}, {"eventtype": "focus", "interval": 58805, "value": "off", "timestamp": 1516560499877}, {"eventtype": "focus", "interval": 3291, "value": "on", "timestamp": 1516560503168}, {"eventtype": "focus", "interval": 610374, "value": "off", "timestamp": 1516561113542}, {"eventtype": "focus", "interval": 26300, "value": "on", "timestamp": 1516561139842}, {"eventtype": "focus", "interval": 99285, "value": "off", "timestamp": 1516561239127}, {"eventtype": "focus", "interval": 3850, "value": "on", "timestamp": 1516561242977}, {"eventtype": "focus", "interval": 141918, "value": "off", "timestamp": 1516561384895}, {"eventtype": "focus", "interval": 5425, "value": "on", "timestamp": 1516561390320}, {"eventtype": "focus", "interval": 526023, "value": "off", "timestamp": 1516561916343}, {"eventtype": "focus", "interval": 19578, "value": "on", "timestamp": 1516561935921}, {"eventtype": "focus", "interval": 3058, "value": "off", "timestamp": 1516561938979}, {"eventtype": "focus", "interval": 1893, "value": "on", "timestamp": 1516561940872}, {"eventtype": "focus", "interval": 144996, "value": "off", "timestamp": 1516562085868}, {"eventtype": "focus", "interval": 3763, "value": "on", "timestamp": 1516562089631}], "data": [{"current_trial": 0, "trialdata": {"rt": 6831, "trial_type": "text", "internal_node_id": "0.0-0.0", "time_elapsed": 6834, "key_press": 32, "type": "INSTRUCTIONS", "trial_index": 0}, "uniqueid": "MTK1930:333U7HK6IAM5HUNS7IX5T7JKZSSJD6", "dateTime": 1516560034775}, {"current_trial": 1, "trialdata": {"rt": 25946, "trial_type": "text", "internal_node_id": "0.0-1.0", "time_elapsed": 32783, "key_press": 32, "type": "INSTRUCTIONS", "trial_index": 1}, "uniqueid": "MTK1930:333U7HK6IAM5HUNS7IX5T7JKZSSJD6", "dateTime": 1516560060722}, {"current_trial": 2, "trialdata": {"rt": [10628], "trial_type": "audio-test", "responses": ["ocean"], "internal_node_id": "0.0-2.0", "time_elapsed": 43430, "type": "AUDIO_TEST", "trial_index": 2}, "uniqueid": "MTK1930:333U7HK6IAM5HUNS7IX5T7JKZSSJD6", "dateTime": 1516560071370}, {"current_trial": 3, "trialdata": {"rt": [5359], "trial_type": "audio-test", "responses": ["crystal"], "internal_node_id": "0.0-3.0", "time_elapsed": 48795, "type": "AUDIO_TEST", "trial_index": 3}, "uniqueid": "MTK1930:333U7HK6IAM5HUNS7IX5T7JKZSSJD6", "dateTime": 1516560076734}, {"current_trial": 4, "trialdata": {"rt": [4966], "trial_type": "audio-test", "responses": ["spice"], "internal_node_id": "0.0-4.0", "time_elapsed": 53769, "type": "AUDIO_TEST", "trial_index": 4}, "uniqueid": "MTK1930:333U7HK6IAM5HUNS7IX5T7JKZSSJD6", "dateTime": 1516560081708}, {"current_trial": 5, "trialdata": {"rt": 27122, "trial_type": "survey-text", "responses": "{\"Q0\":\"9pm\",\"Q1\":\"5pm\",\"Q2\":\"5\"}", "internal_node_id": "0.0-5.0", "time_elapsed": 81644, "type": "SLEEP_SURVEY", "trial_index": 5}, "uniqueid": "MTK1930:333U7HK6IAM5HUNS7IX5T7JKZSSJD6", "dateTime": 1516560109583}, {"current_trial": 6, "trialdata": {"rt": 71944, "trial_type": "text", "internal_node_id": "0.0-6.0", "time_elapsed": 154588, "key_press": 32, "type": "INSTRUCTIONS", "trial_index": 6}, "uniqueid": "MTK1930:333U7HK6IAM5HUNS7IX5T7JKZSSJD6", "dateTime": 1516560182528}, {"current_trial": 7, "trialdata": {"rt": 24679, "trial_type": "text", "internal_node_id": "0.0-7.0", "time_elapsed": 179769, "key_press": 32, "type": "INSTRUCTIONS", "trial_index": 7}, "uniqueid": "MTK1930:333U7HK6IAM5HUNS7IX5T7JKZSSJD6", "dateTime": 1516560207708}, {"current_trial": 8, "trialdata": {"rt": 16279, "trial_type": "text", "internal_node_id": "0.0-8.0", "time_elapsed": 196549, "key_press": 32, "type": "INSTRUCTIONS", "trial_index": 8}, "uniqueid": "MTK1930:333U7HK6IAM5HUNS7IX5T7JKZSSJD6", "dateTime": 1516560224488}, {"current_trial": 9, "trialdata": {"rt": [4206, 7936, 10284, 13943, 17767], "trial_type": "math-distractor", "key_times": [3614, 3680, 4206, 5888, 5971, 7936, 9463, 9578, 10284, 12472, 13943, 16383, 16547, 17767], "responses": ["13", "15", "16", "9", "17"], "num2": [1, 6, 5, 5, 3, 9], "num3": [3, 5, 8, 3, 8, 1], "conditions": [18, 1200, "v", 18000], "internal_node_id": "0.0-9.0", "key_presses": [97, 99, 13, 97, 101, 13, 97, 102, 13, 105, 13, 97, 103, 13], "trial": 0, "time_elapsed": 215556, "type": "DISTRACTOR", "trial_index": 9, "num1": [9, 4, 3, 1, 6, 2]}, "uniqueid": "MTK1930:333U7HK6IAM5HUNS7IX5T7JKZSSJD6", "dateTime": 1516560243495}, {"current_trial": 10, "trialdata": {"rt": -1, "trial_type": "single-stim", "stimulus": "<p id=\"stim\">10</p>", "internal_node_id": "0.0-10.0-0.0", "time_elapsed": 218558, "key_press": -1, "trial_index": 10}, "uniqueid": "MTK1930:333U7HK6IAM5HUNS7IX5T7JKZSSJD6", "dateTime": 1516560246497}, {"current_trial": 11, "trialdata": {"rt": -1, "trial_type": "single-stim", "stimulus": "<p id=\"stim\">9</p>", "internal_node_id": "0.0-10.0-1.0", "time_elapsed": 219560, "key_press": -1, "trial_index": 11}, "uniqueid": "MTK1930:333U7HK6IAM5HUNS7IX5T7JKZSSJD6", "dateTime": 1516560247500}, {"current_trial": 12, "trialdata": {"rt": -1, "trial_type": "single-stim", "stimulus": "<p id=\"stim\">8</p>", "internal_node_id": "0.0-10.0-2.0", "time_elapsed": 220561, "key_press": -1, "trial_index": 12}, "uniqueid": "MTK1930:333U7HK6IAM5HUNS7IX5T7JKZSSJD6", "dateTime": 1516560248500}, {"current_trial": 13, "trialdata": {"rt": -1, "trial_type": "single-stim", "stimulus": "<p id=\"stim\">7</p>", "internal_node_id": "0.0-10.0-3.0", "time_elapsed": 221562, "key_press": -1, "trial_index": 13}, "uniqueid": "MTK1930:333U7HK6IAM5HUNS7IX5T7JKZSSJD6", "dateTime": 1516560249501}, {"current_trial": 14, "trialdata": {"rt": -1, "trial_type": "single-stim", "stimulus": "<p id=\"stim\">6</p>", "internal_node_id": "0.0-10.0-4.0", "time_elapsed": 222563, "key_press": -1, "trial_index": 14}, "uniqueid": "MTK1930:333U7HK6IAM5HUNS7IX5T7JKZSSJD6", "dateTime": 1516560250502}, {"current_trial": 15, "trialdata": {"rt": -1, "trial_type": "single-stim", "stimulus": "<p id=\"stim\">5</p>", "internal_node_id": "0.0-10.0-5.0", "time_elapsed": 223564, "key_press": -1, "trial_index": 15}, "uniqueid": "MTK1930:333U7HK6IAM5HUNS7IX5T7JKZSSJD6", "dateTime": 1516560251503}, {"current_trial": 16, "trialdata": {"rt": -1, "trial_type": "single-stim", "stimulus": "<p id=\"stim\">4</p>", "internal_node_id": "0.0-10.0-6.0", "time_elapsed": 224565, "key_press": -1, "trial_index": 16}, "uniqueid": "MTK1930:333U7HK6IAM5HUNS7IX5T7JKZSSJD6", "dateTime": 1516560252504}, {"current_trial": 17, "trialdata": {"rt": -1, "trial_type": "single-stim", "stimulus": "<p id=\"stim\">3</p>", "internal_node_id": "0.0-10.0-7.0", "time_elapsed": 225566, "key_press": -1, "trial_index": 17}, "uniqueid": "MTK1930:333U7HK6IAM5HUNS7IX5T7JKZSSJD6", "dateTime": 1516560253505}, {"current_trial": 18, "trialdata": {"rt": -1, "trial_type": "single-stim", "stimulus": "<p id=\"stim\">2</p>", "internal_node_id": "0.0-10.0-8.0", "time_elapsed": 226567, "key_press": -1, "trial_index": 18}, "uniqueid": "MTK1930:333U7HK6IAM5HUNS7IX5T7JKZSSJD6", "dateTime": 1516560254506}, {"current_trial": 19, "trialdata": {"rt": -1, "trial_type": "single-stim", "stimulus": "<p id=\"stim\">1</p>", "internal_node_id": "0.0-10.0-9.0", "time_elapsed": 227568, "key_press": -1, "trial_index": 19}, "uniqueid": "MTK1930:333U7HK6IAM5HUNS7IX5T7JKZSSJD6", "dateTime": 1516560255507}, {"current_trial": 20, "trialdata": {"rt": -1, "trial_type": "single-stim", "stimulus": "<p id=\"stim\">+</p>", "internal_node_id": "0.0-11.0-0.0", "time_elapsed": 229069, "key_press": -1, "type": "FIXATION", "trial_index": 20}, "uniqueid": "MTK1930:333U7HK6IAM5HUNS7IX5T7JKZSSJD6", "dateTime": 1516560257008}, {"current_trial": 21, "trialdata": {"rt": -1, "trial_type": "single-stim", "word": "pepper", "stimulus": "<p id=\"stim\">PEPPER</p>", "conditions": [18, 1200, "v", 18000], "internal_node_id": "0.0-12.0", "trial": 0, "time_elapsed": 230270, "serialpos": 0, "key_press": -1, "wordID": 1046, "type": "PRES_VIS", "trial_index": 21}, "uniqueid": "MTK1930:333U7HK6IAM5HUNS7IX5T7JKZSSJD6", "dateTime": 1516560258209}, {"current_trial": 22, "trialdata": {"rt": -1, "trial_type": "single-stim", "word": "hawk", "stimulus": "<p id=\"stim\">HAWK</p>", "conditions": [18, 1200, "v", 18000], "internal_node_id": "0.0-13.0", "trial": 0, "time_elapsed": 232289, "serialpos": 1, "key_press": -1, "wordID": 691, "type": "PRES_VIS", "trial_index": 22}, "uniqueid": "MTK1930:333U7HK6IAM5HUNS7IX5T7JKZSSJD6", "dateTime": 1516560260228}, {"current_trial": 23, "trialdata": {"rt": -1, "trial_type": "single-stim", "word": "scallop", "stimulus": "<p id=\"stim\">SCALLOP</p>", "conditions": [18, 1200, "v", 18000], "internal_node_id": "0.0-14.0", "trial": 0, "time_elapsed": 234662, "serialpos": 2, "key_press": -1, "wordID": 1241, "type": "PRES_VIS", "trial_index": 23}, "uniqueid": "MTK1930:333U7HK6IAM5HUNS7IX5T7JKZSSJD6", "dateTime": 1516560262601}, {"current_trial": 24, "trialdata": {"rt": -1, "trial_type": "single-stim", "word": "slug", "stimulus": "<p id=\"stim\">SLUG</p>", "conditions": [18, 1200, "v", 18000], "internal_node_id": "0.0-15.0", "trial": 0, "time_elapsed": 236968, "serialpos": 3, "key_press": -1, "wordID": 1328, "type": "PRES_VIS", "trial_index": 24}, "uniqueid": "MTK1930:333U7HK6IAM5HUNS7IX5T7JKZSSJD6", "dateTime": 1516560264907}, {"current_trial": 25, "trialdata": {"rt": -1, "trial_type": "single-stim", "word": "hound", "stimulus": "<p id=\"stim\">HOUND</p>", "conditions": [18, 1200, "v", 18000], "internal_node_id": "0.0-16.0", "trial": 0, "time_elapsed": 239275, "serialpos": 4, "key_press": -1, "wordID": 723, "type": "PRES_VIS", "trial_index": 25}, "uniqueid": "MTK1930:333U7HK6IAM5HUNS7IX5T7JKZSSJD6", "dateTime": 1516560267214}, {"current_trial": 26, "trialdata": {"rt": -1, "trial_type": "single-stim", "word": "crab", "stimulus": "<p id=\"stim\">CRAB</p>", "conditions": [18, 1200, "v", 18000], "internal_node_id": "0.0-17.0", "trial": 0, "time_elapsed": 241444, "serialpos": 5, "key_press": -1, "wordID": 396, "type": "PRES_VIS", "trial_index": 26}, "uniqueid": "MTK1930:333U7HK6IAM5HUNS7IX5T7JKZSSJD6", "dateTime": 1516560269383}, {"current_trial": 27, "trialdata": {"rt": -1, "trial_type": "single-stim", "word": "seagull", "stimulus": "<p id=\"stim\">SEAGULL</p>", "conditions": [18, 1200, "v", 18000], "internal_node_id": "0.0-18.0", "trial": 0, "time_elapsed": 243499, "serialpos": 6, "key_press": -1, "wordID": 1260, "type": "PRES_VIS", "trial_index": 27}, "uniqueid": "MTK1930:333U7HK6IAM5HUNS7IX5T7JKZSSJD6", "dateTime": 1516560271438}, {"current_trial": 28, "trialdata": {"rt": -1, "trial_type": "single-stim", "word": "girl", "stimulus": "<p id=\"stim\">GIRL</p>", "conditions": [18, 1200, "v", 18000], "internal_node_id": "0.0-19.0", "trial": 0, "time_elapsed": 245564, "serialpos": 7, "key_press": -1, "wordID": 636, "type": "PRES_VIS", "trial_index": 28}, "uniqueid": "MTK1930:333U7HK6IAM5HUNS7IX5T7JKZSSJD6", "dateTime": 1516560273503}, {"current_trial": 29, "trialdata": {"rt": -1, "trial_type": "single-stim", "word": "summit", "stimulus": "<p id=\"stim\">SUMMIT</p>", "conditions": [18, 1200, "v", 18000], "internal_node_id": "0.0-20.0", "trial": 0, "time_elapsed": 247711, "serialpos": 8, "key_press": -1, "wordID": 1404, "type": "PRES_VIS", "trial_index": 29}, "uniqueid": "MTK1930:333U7HK6IAM5HUNS7IX5T7JKZSSJD6", "dateTime": 1516560275650}, {"current_trial": 30, "trialdata": {"rt": -1, "trial_type": "single-stim", "word": "boyfriend", "stimulus": "<p id=\"stim\">BOYFRIEND</p>", "conditions": [18, 1200, "v", 18000], "internal_node_id": "0.0-21.0", "trial": 0, "time_elapsed": 249775, "serialpos": 9, "key_press": -1, "wordID": 161, "type": "PRES_VIS", "trial_index": 30}, "uniqueid": "MTK1930:333U7HK6IAM5HUNS7IX5T7JKZSSJD6", "dateTime": 1516560277714}, {"current_trial": 31, "trialdata": {"rt": -1, "trial_type": "single-stim", "word": "drill", "stimulus": "<p id=\"stim\">DRILL</p>", "conditions": [18, 1200, "v", 18000], "internal_node_id": "0.0-22.0", "trial": 0, "time_elapsed": 252095, "serialpos": 10, "key_press": -1, "wordID": 496, "type": "PRES_VIS", "trial_index": 31}, "uniqueid": "MTK1930:333U7HK6IAM5HUNS7IX5T7JKZSSJD6", "dateTime": 1516560280034}, {"current_trial": 32, "trialdata": {"rt": -1, "trial_type": "single-stim", "word": "dancer", "stimulus": "<p id=\"stim\">DANCER</p>", "conditions": [18, 1200, "v", 18000], "internal_node_id": "0.0-23.0", "trial": 0, "time_elapsed": 254108, "serialpos": 11, "key_press": -1, "wordID": 436, "type": "PRES_VIS", "trial_index": 32}, "uniqueid": "MTK1930:333U7HK6IAM5HUNS7IX5T7JKZSSJD6", "dateTime": 1516560282047}, {"current_trial": 33, "trialdata": {"rt": -1, "trial_type": "single-stim", "word": "driver", "stimulus": "<p id=\"stim\">DRIVER</p>", "conditions": [18, 1200, "v", 18000], "internal_node_id": "0.0-24.0", "trial": 0, "time_elapsed": 256115, "serialpos": 12, "key_press": -1, "wordID": 498, "type": "PRES_VIS", "trial_index": 33}, "uniqueid": "MTK1930:333U7HK6IAM5HUNS7IX5T7JKZSSJD6", "dateTime": 1516560284054}, {"current_trial": 34, "trialdata": {"rt": -1, "trial_type": "single-stim", "word": "muffin", "stimulus": "<p id=\"stim\">MUFFIN</p>", "conditions": [18, 1200, "v", 18000], "internal_node_id": "0.0-25.0", "trial": 0, "time_elapsed": 258335, "serialpos": 13, "key_press": -1, "wordID": 928, "type": "PRES_VIS", "trial_index": 34}, "uniqueid": "MTK1930:333U7HK6IAM5HUNS7IX5T7JKZSSJD6", "dateTime": 1516560286274}, {"current_trial": 35, "trialdata": {"rt": -1, "trial_type": "single-stim", "word": "office", "stimulus": "<p id=\"stim\">OFFICE</p>", "conditions": [18, 1200, "v", 18000], "internal_node_id": "0.0-26.0", "trial": 0, "time_elapsed": 260415, "serialpos": 14, "key_press": -1, "wordID": 971, "type": "PRES_VIS", "trial_index": 35}, "uniqueid": "MTK1930:333U7HK6IAM5HUNS7IX5T7JKZSSJD6", "dateTime": 1516560288354}, {"current_trial": 36, "trialdata": {"rt": -1, "trial_type": "single-stim", "word": "ulcer", "stimulus": "<p id=\"stim\">ULCER</p>", "conditions": [18, 1200, "v", 18000], "internal_node_id": "0.0-27.0", "trial": 0, "time_elapsed": 262641, "serialpos": 15, "key_press": -1, "wordID": 1532, "type": "PRES_VIS", "trial_index": 36}, "uniqueid": "MTK1930:333U7HK6IAM5HUNS7IX5T7JKZSSJD6", "dateTime": 1516560290580}, {"current_trial": 37, "trialdata": {"rt": -1, "trial_type": "single-stim", "word": "cyclone", "stimulus": "<p id=\"stim\">CYCLONE</p>", "conditions": [18, 1200, "v", 18000], "internal_node_id": "0.0-28.0", "trial": 0, "time_elapsed": 264796, "serialpos": 16, "key_press": -1, "wordID": 430, "type": "PRES_VIS", "trial_index": 37}, "uniqueid": "MTK1930:333U7HK6IAM5HUNS7IX5T7JKZSSJD6", "dateTime": 1516560292735}, {"current_trial": 38, "trialdata": {"rt": -1, "trial_type": "single-stim", "word": "grave", "stimulus": "<p id=\"stim\">GRAVE</p>", "conditions": [18, 1200, "v", 18000], "internal_node_id": "0.0-29.0", "trial": 0, "time_elapsed": 267024, "serialpos": 17, "key_press": -1, "wordID": 657, "type": "PRES_VIS", "trial_index": 38}, "uniqueid": "MTK1930:333U7HK6IAM5HUNS7IX5T7JKZSSJD6", "dateTime": 1516560294964}, {"current_trial": 39, "trialdata": {"rt": -1, "trial_type": "single-stim", "stimulus": "", "internal_node_id": "0.0-30.0-0.0", "time_elapsed": 269479, "key_press": -1, "type": "PRE_RECALL_DELAY", "trial_index": 39}, "uniqueid": "MTK1930:333U7HK6IAM5HUNS7IX5T7JKZSSJD6", "dateTime": 1516560297418}, {"current_trial": 40, "trialdata": {"rt": -1000, "trial_type": "single-audio", "stimulus": "/static/audio/400Hz.wav", "internal_node_id": "0.0-31.0", "time_elapsed": 269981, "key_press": -1, "type": "PRE_RECALL_ALERT", "trial_index": 40}, "uniqueid": "MTK1930:333U7HK6IAM5HUNS7IX5T7JKZSSJD6", "dateTime": 1516560297921}, {"current_trial": 41, "trialdata": {"rt": [3230, 4407, 5314, 6656, 8828, 11106, 13047, 21420, 33316], "recwords": ["pepper", "hawk", "girl", "dancer", "scallop", "driver", "grave", "hound", "driver"], "key_times": [2063, 2367, 2578, 2735, 2839, 2883, 3230, 3567, 3667, 3794, 4008, 4407, 4609, 4730, 4851, 4994, 5314, 5521, 5712, 5914, 6113, 6271, 6386, 6656, 7491, 7677, 7771, 7877, 8017, 8162, 8361, 8828, 9736, 9886, 9989, 10104, 10192, 10276, 11106, 11548, 11739, 11764, 12042, 12108, 13047, 20459, 20608, 20641, 20866, 20962, 21420, 28392, 30404, 30998, 32041, 32198, 32438, 32603, 32728, 32824, 32925, 33316], "trial_type": "free-recall", "conditions": [18, 1200, "v", 18000], "internal_node_id": "0.0-32.0-0.0", "key_presses": [80, 69, 80, 80, 69, 82, 13, 72, 65, 87, 75, 13, 71, 73, 82, 76, 13, 68, 65, 78, 67, 69, 82, 13, 83, 67, 65, 76, 76, 79, 80, 13, 68, 82, 73, 86, 69, 82, 13, 71, 82, 65, 86, 69, 13, 72, 79, 85, 78, 68, 13, 68, 79, 71, 8, 8, 82, 73, 86, 69, 82, 13], "trial": 0, "time_elapsed": 329984, "type": "FREE_RECALL", "trial_index": 41}, "uniqueid": "MTK1930:333U7HK6IAM5HUNS7IX5T7JKZSSJD6", "dateTime": 1516560357926}, {"current_trial": 42, "trialdata": {"rt": 4225, "trial_type": "text", "internal_node_id": "0.0-33.0", "time_elapsed": 336213, "key_press": 32, "type": "INSTRUCTIONS", "trial_index": 42}, "uniqueid": "MTK1930:333U7HK6IAM5HUNS7IX5T7JKZSSJD6", "dateTime": 1516560364152}, {"current_trial": 43, "trialdata": {"rt": [3595, 7088, 15860], "trial_type": "math-distractor", "key_times": [2744, 3595, 6239, 6313, 7088, 14783, 15466, 15860], "responses": ["9", "12", "22"], "num2": [7, 4, 8, 9], "num3": [1, 3, 8, 4], "conditions": [18, 1200, "v", 18000], "internal_node_id": "0.0-34.0", "key_presses": [105, 13, 97, 98, 13, 98, 98, 13], "trial": 1, "time_elapsed": 356215, "type": "DISTRACTOR", "trial_index": 43, "num1": [1, 5, 6, 7]}, "uniqueid": "MTK1930:333U7HK6IAM5HUNS7IX5T7JKZSSJD6", "dateTime": 1516560384154}, {"current_trial": 44, "trialdata": {"rt": -1, "trial_type": "single-stim", "stimulus": "<p id=\"stim\">10</p>", "internal_node_id": "0.0-35.0-0.0", "time_elapsed": 359215, "key_press": -1, "trial_index": 44}, "uniqueid": "MTK1930:333U7HK6IAM5HUNS7IX5T7JKZSSJD6", "dateTime": 1516560387154}, {"current_trial": 45, "trialdata": {"rt": -1, "trial_type": "single-stim", "stimulus": "<p id=\"stim\">9</p>", "internal_node_id": "0.0-35.0-1.0", "time_elapsed": 360216, "key_press": -1, "trial_index": 45}, "uniqueid": "MTK1930:333U7HK6IAM5HUNS7IX5T7JKZSSJD6", "dateTime": 1516560388155}, {"current_trial": 46, "trialdata": {"rt": -1, "trial_type": "single-stim", "stimulus": "<p id=\"stim\">8</p>", "internal_node_id": "0.0-35.0-2.0", "time_elapsed": 361216, "key_press": -1, "trial_index": 46}, "uniqueid": "MTK1930:333U7HK6IAM5HUNS7IX5T7JKZSSJD6", "dateTime": 1516560389155}, {"current_trial": 47, "trialdata": {"rt": -1, "trial_type": "single-stim", "stimulus": "<p id=\"stim\">7</p>", "internal_node_id": "0.0-35.0-3.0", "time_elapsed": 362217, "key_press": -1, "trial_index": 47}, "uniqueid": "MTK1930:333U7HK6IAM5HUNS7IX5T7JKZSSJD6", "dateTime": 1516560390156}, {"current_trial": 48, "trialdata": {"rt": -1, "trial_type": "single-stim", "stimulus": "<p id=\"stim\">6</p>", "internal_node_id": "0.0-35.0-4.0", "time_elapsed": 363217, "key_press": -1, "trial_index": 48}, "uniqueid": "MTK1930:333U7HK6IAM5HUNS7IX5T7JKZSSJD6", "dateTime": 1516560391156}, {"current_trial": 49, "trialdata": {"rt": -1, "trial_type": "single-stim", "stimulus": "<p id=\"stim\">5</p>", "internal_node_id": "0.0-35.0-5.0", "time_elapsed": 364218, "key_press": -1, "trial_index": 49}, "uniqueid": "MTK1930:333U7HK6IAM5HUNS7IX5T7JKZSSJD6", "dateTime": 1516560392157}, {"current_trial": 50, "trialdata": {"rt": -1, "trial_type": "single-stim", "stimulus": "<p id=\"stim\">4</p>", "internal_node_id": "0.0-35.0-6.0", "time_elapsed": 365219, "key_press": -1, "trial_index": 50}, "uniqueid": "MTK1930:333U7HK6IAM5HUNS7IX5T7JKZSSJD6", "dateTime": 1516560393158}, {"current_trial": 51, "trialdata": {"rt": -1, "trial_type": "single-stim", "stimulus": "<p id=\"stim\">3</p>", "internal_node_id": "0.0-35.0-7.0", "time_elapsed": 366220, "key_press": -1, "trial_index": 51}, "uniqueid": "MTK1930:333U7HK6IAM5HUNS7IX5T7JKZSSJD6", "dateTime": 1516560394159}, {"current_trial": 52, "trialdata": {"rt": -1, "trial_type": "single-stim", "stimulus": "<p id=\"stim\">2</p>", "internal_node_id": "0.0-35.0-8.0", "time_elapsed": 367221, "key_press": -1, "trial_index": 52}, "uniqueid": "MTK1930:333U7HK6IAM5HUNS7IX5T7JKZSSJD6", "dateTime": 1516560395160}, {"current_trial": 53, "trialdata": {"rt": -1, "trial_type": "single-stim", "stimulus": "<p id=\"stim\">1</p>", "internal_node_id": "0.0-35.0-9.0", "time_elapsed": 368222, "key_press": -1, "trial_index": 53}, "uniqueid": "MTK1930:333U7HK6IAM5HUNS7IX5T7JKZSSJD6", "dateTime": 1516560396161}, {"current_trial": 54, "trialdata": {"rt": -1, "trial_type": "single-stim", "stimulus": "<p id=\"stim\">+</p>", "internal_node_id": "0.0-36.0-0.0", "time_elapsed": 369723, "key_press": -1, "type": "FIXATION", "trial_index": 54}, "uniqueid": "MTK1930:333U7HK6IAM5HUNS7IX5T7JKZSSJD6", "dateTime": 1516560397662}, {"current_trial": 55, "trialdata": {"rt": -1, "trial_type": "single-stim", "word": "chipmunk", "stimulus": "<p id=\"stim\">CHIPMUNK</p>", "conditions": [18, 1200, "v", 18000], "internal_node_id": "0.0-37.0", "trial": 1, "time_elapsed": 370924, "serialpos": 0, "key_press": -1, "wordID": 303, "type": "PRES_VIS", "trial_index": 55}, "uniqueid": "MTK1930:333U7HK6IAM5HUNS7IX5T7JKZSSJD6", "dateTime": 1516560398863}, {"current_trial": 56, "trialdata": {"rt": -1, "trial_type": "single-stim", "word": "snack", "stimulus": "<p id=\"stim\">SNACK</p>", "conditions": [18, 1200, "v", 18000], "internal_node_id": "0.0-38.0", "trial": 1, "time_elapsed": 373179, "serialpos": 1, "key_press": -1, "wordID": 1330, "type": "PRES_VIS", "trial_index": 56}, "uniqueid": "MTK1930:333U7HK6IAM5HUNS7IX5T7JKZSSJD6", "dateTime": 1516560401118}, {"current_trial": 57, "trialdata": {"rt": -1, "trial_type": "single-stim", "word": "plate", "stimulus": "<p id=\"stim\">PLATE</p>", "conditions": [18, 1200, "v", 18000], "internal_node_id": "0.0-39.0", "trial": 1, "time_elapsed": 375390, "serialpos": 2, "key_press": -1, "wordID": 1085, "type": "PRES_VIS", "trial_index": 57}, "uniqueid": "MTK1930:333U7HK6IAM5HUNS7IX5T7JKZSSJD6", "dateTime": 1516560403329}, {"current_trial": 58, "trialdata": {"rt": -1, "trial_type": "single-stim", "word": "fungus", "stimulus": "<p id=\"stim\">FUNGUS</p>", "conditions": [18, 1200, "v", 18000], "internal_node_id": "0.0-40.0", "trial": 1, "time_elapsed": 377573, "serialpos": 3, "key_press": -1, "wordID": 613, "type": "PRES_VIS", "trial_index": 58}, "uniqueid": "MTK1930:333U7HK6IAM5HUNS7IX5T7JKZSSJD6", "dateTime": 1516560405512}, {"current_trial": 59, "trialdata": {"rt": -1, "trial_type": "single-stim", "word": "dragon", "stimulus": "<p id=\"stim\">DRAGON</p>", "conditions": [18, 1200, "v", 18000], "internal_node_id": "0.0-41.0", "trial": 1, "time_elapsed": 379921, "serialpos": 4, "key_press": -1, "wordID": 491, "type": "PRES_VIS", "trial_index": 59}, "uniqueid": "MTK1930:333U7HK6IAM5HUNS7IX5T7JKZSSJD6", "dateTime": 1516560407860}, {"current_trial": 60, "trialdata": {"rt": -1, "trial_type": "single-stim", "word": "leg", "stimulus": "<p id=\"stim\">LEG</p>", "conditions": [18, 1200, "v", 18000], "internal_node_id": "0.0-42.0", "trial": 1, "time_elapsed": 382195, "serialpos": 5, "key_press": -1, "wordID": 808, "type": "PRES_VIS", "trial_index": 60}, "uniqueid": "MTK1930:333U7HK6IAM5HUNS7IX5T7JKZSSJD6", "dateTime": 1516560410134}, {"current_trial": 61, "trialdata": {"rt": -1, "trial_type": "single-stim", "word": "fiddle", "stimulus": "<p id=\"stim\">FIDDLE</p>", "conditions": [18, 1200, "v", 18000], "internal_node_id": "0.0-43.0", "trial": 1, "time_elapsed": 384555, "serialpos": 6, "key_press": -1, "wordID": 560, "type": "PRES_VIS", "trial_index": 61}, "uniqueid": "MTK1930:333U7HK6IAM5HUNS7IX5T7JKZSSJD6", "dateTime": 1516560412494}, {"current_trial": 62, "trialdata": {"rt": -1, "trial_type": "single-stim", "word": "nomad", "stimulus": "<p id=\"stim\">NOMAD</p>", "conditions": [18, 1200, "v", 18000], "internal_node_id": "0.0-44.0", "trial": 1, "time_elapsed": 386925, "serialpos": 7, "key_press": -1, "wordID": 954, "type": "PRES_VIS", "trial_index": 62}, "uniqueid": "MTK1930:333U7HK6IAM5HUNS7IX5T7JKZSSJD6", "dateTime": 1516560414864}, {"current_trial": 63, "trialdata": {"rt": -1, "trial_type": "single-stim", "word": "shelter", "stimulus": "<p id=\"stim\">SHELTER</p>", "conditions": [18, 1200, "v", 18000], "internal_node_id": "0.0-45.0", "trial": 1, "time_elapsed": 389208, "serialpos": 8, "key_press": -1, "wordID": 1281, "type": "PRES_VIS", "trial_index": 63}, "uniqueid": "MTK1930:333U7HK6IAM5HUNS7IX5T7JKZSSJD6", "dateTime": 1516560417147}, {"current_trial": 64, "trialdata": {"rt": -1, "trial_type": "single-stim", "word": "sponge", "stimulus": "<p id=\"stim\">SPONGE</p>", "conditions": [18, 1200, "v", 18000], "internal_node_id": "0.0-46.0", "trial": 1, "time_elapsed": 391596, "serialpos": 9, "key_press": -1, "wordID": 1354, "type": "PRES_VIS", "trial_index": 64}, "uniqueid": "MTK1930:333U7HK6IAM5HUNS7IX5T7JKZSSJD6", "dateTime": 1516560419535}, {"current_trial": 65, "trialdata": {"rt": -1, "trial_type": "single-stim", "word": "concert", "stimulus": "<p id=\"stim\">CONCERT</p>", "conditions": [18, 1200, "v", 18000], "internal_node_id": "0.0-47.0", "trial": 1, "time_elapsed": 393838, "serialpos": 10, "key_press": -1, "wordID": 359, "type": "PRES_VIS", "trial_index": 65}, "uniqueid": "MTK1930:333U7HK6IAM5HUNS7IX5T7JKZSSJD6", "dateTime": 1516560421777}, {"current_trial": 66, "trialdata": {"rt": -1, "trial_type": "single-stim", "word": "tutu", "stimulus": "<p id=\"stim\">TUTU</p>", "conditions": [18, 1200, "v", 18000], "internal_node_id": "0.0-48.0", "trial": 1, "time_elapsed": 396200, "serialpos": 11, "key_press": -1, "wordID": 1523, "type": "PRES_VIS", "trial_index": 66}, "uniqueid": "MTK1930:333U7HK6IAM5HUNS7IX5T7JKZSSJD6", "dateTime": 1516560424139}, {"current_trial": 67, "trialdata": {"rt": -1, "trial_type": "single-stim", "word": "valve", "stimulus": "<p id=\"stim\">VALVE</p>", "conditions": [18, 1200, "v", 18000], "internal_node_id": "0.0-49.0", "trial": 1, "time_elapsed": 398311, "serialpos": 12, "key_press": -1, "wordID": 1545, "type": "PRES_VIS", "trial_index": 67}, "uniqueid": "MTK1930:333U7HK6IAM5HUNS7IX5T7JKZSSJD6", "dateTime": 1516560426250}, {"current_trial": 68, "trialdata": {"rt": -1, "trial_type": "single-stim", "word": "hand", "stimulus": "<p id=\"stim\">HAND</p>", "conditions": [18, 1200, "v", 18000], "internal_node_id": "0.0-50.0", "trial": 1, "time_elapsed": 400615, "serialpos": 13, "key_press": -1, "wordID": 682, "type": "PRES_VIS", "trial_index": 68}, "uniqueid": "MTK1930:333U7HK6IAM5HUNS7IX5T7JKZSSJD6", "dateTime": 1516560428558}, {"current_trial": 69, "trialdata": {"rt": -1, "trial_type": "single-stim", "word": "panther", "stimulus": "<p id=\"stim\">PANTHER</p>", "conditions": [18, 1200, "v", 18000], "internal_node_id": "0.0-51.0", "trial": 1, "time_elapsed": 402779, "serialpos": 14, "key_press": -1, "wordID": 1008, "type": "PRES_VIS", "trial_index": 69}, "uniqueid": "MTK1930:333U7HK6IAM5HUNS7IX5T7JKZSSJD6", "dateTime": 1516560430718}, {"current_trial": 70, "trialdata": {"rt": -1, "trial_type": "single-stim", "word": "plaza", "stimulus": "<p id=\"stim\">PLAZA</p>", "conditions": [18, 1200, "v", 18000], "internal_node_id": "0.0-52.0", "trial": 1, "time_elapsed": 404951, "serialpos": 15, "key_press": -1, "wordID": 1087, "type": "PRES_VIS", "trial_index": 70}, "uniqueid": "MTK1930:333U7HK6IAM5HUNS7IX5T7JKZSSJD6", "dateTime": 1516560432890}, {"current_trial": 71, "trialdata": {"rt": -1, "trial_type": "single-stim", "word": "hamper", "stimulus": "<p id=\"stim\">HAMPER</p>", "conditions": [18, 1200, "v", 18000], "internal_node_id": "0.0-53.0", "trial": 1, "time_elapsed": 407336, "serialpos": 16, "key_press": -1, "wordID": 681, "type": "PRES_VIS", "trial_index": 71}, "uniqueid": "MTK1930:333U7HK6IAM5HUNS7IX5T7JKZSSJD6", "dateTime": 1516560435275}, {"current_trial": 72, "trialdata": {"rt": -1, "trial_type": "single-stim", "word": "penguin", "stimulus": "<p id=\"stim\">PENGUIN</p>", "conditions": [18, 1200, "v", 18000], "internal_node_id": "0.0-54.0", "trial": 1, "time_elapsed": 409472, "serialpos": 17, "key_press": -1, "wordID": 1043, "type": "PRES_VIS", "trial_index": 72}, "uniqueid": "MTK1930:333U7HK6IAM5HUNS7IX5T7JKZSSJD6", "dateTime": 1516560437411}, {"current_trial": 73, "trialdata": {"rt": -1, "trial_type": "single-stim", "stimulus": "", "internal_node_id": "0.0-55.0-0.0", "time_elapsed": 411688, "key_press": -1, "type": "PRE_RECALL_DELAY", "trial_index": 73}, "uniqueid": "MTK1930:333U7HK6IAM5HUNS7IX5T7JKZSSJD6", "dateTime": 1516560439645}, {"current_trial": 74, "trialdata": {"rt": -1000, "trial_type": "single-audio", "stimulus": "/static/audio/400Hz.wav", "internal_node_id": "0.0-56.0", "time_elapsed": 412207, "key_press": -1, "type": "PRE_RECALL_ALERT", "trial_index": 74}, "uniqueid": "MTK1930:333U7HK6IAM5HUNS7IX5T7JKZSSJD6", "dateTime": 1516560440146}, {"current_trial": 75, "trialdata": {"rt": [3976, 5718, 7254, 8807, 16273, 17748, 20835, 32534, 37909, 48873], "recwords": ["hamper", "penguin", "shelter", "snake", "dragon", "leg", "tutu", "pamper", "skip", "valve"], "key_times": [2974, 3086, 3213, 3419, 3556, 3673, 3976, 4252, 4385, 4634, 4824, 5096, 5220, 5379, 5718, 5835, 5948, 6081, 6172, 6381, 6488, 6613, 7254, 7840, 7953, 8027, 8144, 8247, 8807, 15022, 15191, 15536, 15735, 15839, 15905, 16273, 16843, 16893, 17068, 17748, 19813, 19955, 20017, 20507, 20835, 29867, 29987, 30815, 30972, 31228, 31343, 31511, 31852, 32014, 32146, 32534, 36858, 37195, 37389, 37595, 37909, 47605, 47732, 48099, 48268, 48444, 48873], "trial_type": "free-recall", "conditions": [18, 1200, "v", 18000], "internal_node_id": "0.0-57.0-0.0", "key_presses": [72, 65, 77, 80, 69, 82, 13, 80, 69, 78, 71, 85, 73, 78, 13, 83, 72, 69, 76, 84, 69, 82, 13, 83, 78, 65, 75, 69, 13, 68, 82, 65, 71, 79, 78, 13, 76, 69, 71, 13, 84, 85, 84, 85, 13, 72, 65, 8, 8, 80, 65, 77, 80, 69, 82, 13, 83, 75, 73, 80, 13, 86, 65, 76, 86, 69, 13], "trial": 1, "time_elapsed": 472209, "type": "FREE_RECALL", "trial_index": 75}, "uniqueid": "MTK1930:333U7HK6IAM5HUNS7IX5T7JKZSSJD6", "dateTime": 1516560500151}, {"current_trial": 76, "trialdata": {"rt": 5979, "trial_type": "text", "internal_node_id": "0.0-58.0", "time_elapsed": 480191, "key_press": 32, "type": "INSTRUCTIONS", "trial_index": 76}, "uniqueid": "MTK1930:333U7HK6IAM5HUNS7IX5T7JKZSSJD6", "dateTime": 1516560508130}, {"current_trial": 77, "trialdata": {"rt": [5923, 8431, 10513], "trial_type": "math-distractor", "key_times": [5265, 5343, 5923, 7858, 8034, 8431, 10065, 10513], "responses": ["16", "17", "6"], "num2": [6, 4, 3, 1], "num3": [4, 8, 1, 1], "conditions": [24, 1600, "v", 12000], "internal_node_id": "0.0-59.0", "key_presses": [97, 102, 13, 97, 103, 13, 102, 13], "trial": 2, "time_elapsed": 493194, "type": "DISTRACTOR", "trial_index": 77, "num1": [6, 5, 2, 8]}, "uniqueid": "MTK1930:333U7HK6IAM5HUNS7IX5T7JKZSSJD6", "dateTime": 1516560521133}, {"current_trial": 78, "trialdata": {"rt": -1, "trial_type": "single-stim", "stimulus": "<p id=\"stim\">10</p>", "internal_node_id": "0.0-60.0-0.0", "time_elapsed": 496194, "key_press": -1, "trial_index": 78}, "uniqueid": "MTK1930:333U7HK6IAM5HUNS7IX5T7JKZSSJD6", "dateTime": 1516560524133}, {"current_trial": 79, "trialdata": {"rt": -1, "trial_type": "single-stim", "stimulus": "<p id=\"stim\">9</p>", "internal_node_id": "0.0-60.0-1.0", "time_elapsed": 497195, "key_press": -1, "trial_index": 79}, "uniqueid": "MTK1930:333U7HK6IAM5HUNS7IX5T7JKZSSJD6", "dateTime": 1516560525134}, {"current_trial": 80, "trialdata": {"rt": -1, "trial_type": "single-stim", "stimulus": "<p id=\"stim\">8</p>", "internal_node_id": "0.0-60.0-2.0", "time_elapsed": 498196, "key_press": -1, "trial_index": 80}, "uniqueid": "MTK1930:333U7HK6IAM5HUNS7IX5T7JKZSSJD6", "dateTime": 1516560526135}, {"current_trial": 81, "trialdata": {"rt": -1, "trial_type": "single-stim", "stimulus": "<p id=\"stim\">7</p>", "internal_node_id": "0.0-60.0-3.0", "time_elapsed": 499197, "key_press": -1, "trial_index": 81}, "uniqueid": "MTK1930:333U7HK6IAM5HUNS7IX5T7JKZSSJD6", "dateTime": 1516560527136}, {"current_trial": 82, "trialdata": {"rt": -1, "trial_type": "single-stim", "stimulus": "<p id=\"stim\">6</p>", "internal_node_id": "0.0-60.0-4.0", "time_elapsed": 500198, "key_press": -1, "trial_index": 82}, "uniqueid": "MTK1930:333U7HK6IAM5HUNS7IX5T7JKZSSJD6", "dateTime": 1516560528137}, {"current_trial": 83, "trialdata": {"rt": -1, "trial_type": "single-stim", "stimulus": "<p id=\"stim\">5</p>", "internal_node_id": "0.0-60.0-5.0", "time_elapsed": 501199, "key_press": -1, "trial_index": 83}, "uniqueid": "MTK1930:333U7HK6IAM5HUNS7IX5T7JKZSSJD6", "dateTime": 1516560529139}, {"current_trial": 84, "trialdata": {"rt": -1, "trial_type": "single-stim", "stimulus": "<p id=\"stim\">4</p>", "internal_node_id": "0.0-60.0-6.0", "time_elapsed": 502200, "key_press": -1, "trial_index": 84}, "uniqueid": "MTK1930:333U7HK6IAM5HUNS7IX5T7JKZSSJD6", "dateTime": 1516560530139}, {"current_trial": 85, "trialdata": {"rt": -1, "trial_type": "single-stim", "stimulus": "<p id=\"stim\">3</p>", "internal_node_id": "0.0-60.0-7.0", "time_elapsed": 503200, "key_press": -1, "trial_index": 85}, "uniqueid": "MTK1930:333U7HK6IAM5HUNS7IX5T7JKZSSJD6", "dateTime": 1516560531139}, {"current_trial": 86, "trialdata": {"rt": -1, "trial_type": "single-stim", "stimulus": "<p id=\"stim\">2</p>", "internal_node_id": "0.0-60.0-8.0", "time_elapsed": 504200, "key_press": -1, "trial_index": 86}, "uniqueid": "MTK1930:333U7HK6IAM5HUNS7IX5T7JKZSSJD6", "dateTime": 1516560532139}, {"current_trial": 87, "trialdata": {"rt": -1, "trial_type": "single-stim", "stimulus": "<p id=\"stim\">1</p>", "internal_node_id": "0.0-60.0-9.0", "time_elapsed": 505201, "key_press": -1, "trial_index": 87}, "uniqueid": "MTK1930:333U7HK6IAM5HUNS7IX5T7JKZSSJD6", "dateTime": 1516560533140}, {"current_trial": 88, "trialdata": {"rt": -1, "trial_type": "single-stim", "stimulus": "<p id=\"stim\">+</p>", "internal_node_id": "0.0-61.0-0.0", "time_elapsed": 506702, "key_press": -1, "type": "FIXATION", "trial_index": 88}, "uniqueid": "MTK1930:333U7HK6IAM5HUNS7IX5T7JKZSSJD6", "dateTime": 1516560534641}, {"current_trial": 89, "trialdata": {"rt": -1, "trial_type": "single-stim", "word": "basement", "stimulus": "<p id=\"stim\">BASEMENT</p>", "conditions": [24, 1600, "v", 12000], "internal_node_id": "0.0-62.0", "trial": 2, "time_elapsed": 508303, "serialpos": 0, "key_press": -1, "wordID": 93, "type": "PRES_VIS", "trial_index": 89}, "uniqueid": "MTK1930:333U7HK6IAM5HUNS7IX5T7JKZSSJD6", "dateTime": 1516560536242}, {"current_trial": 90, "trialdata": {"rt": -1, "trial_type": "single-stim", "word": "glass", "stimulus": "<p id=\"stim\">GLASS</p>", "conditions": [24, 1600, "v", 12000], "internal_node_id": "0.0-63.0", "trial": 2, "time_elapsed": 510718, "serialpos": 1, "key_press": -1, "wordID": 638, "type": "PRES_VIS", "trial_index": 90}, "uniqueid": "MTK1930:333U7HK6IAM5HUNS7IX5T7JKZSSJD6", "dateTime": 1516560538657}, {"current_trial": 91, "trialdata": {"rt": -1, "trial_type": "single-stim", "word": "college", "stimulus": "<p id=\"stim\">COLLEGE</p>", "conditions": [24, 1600, "v", 12000], "internal_node_id": "0.0-64.0", "trial": 2, "time_elapsed": 513483, "serialpos": 2, "key_press": -1, "wordID": 345, "type": "PRES_VIS", "trial_index": 91}, "uniqueid": "MTK1930:333U7HK6IAM5HUNS7IX5T7JKZSSJD6", "dateTime": 1516560541422}, {"current_trial": 92, "trialdata": {"rt": -1, "trial_type": "single-stim", "word": "sphinx", "stimulus": "<p id=\"stim\">SPHINX</p>", "conditions": [24, 1600, "v", 12000], "internal_node_id": "0.0-65.0", "trial": 2, "time_elapsed": 515986, "serialpos": 3, "key_press": -1, "wordID": 1348, "type": "PRES_VIS", "trial_index": 92}, "uniqueid": "MTK1930:333U7HK6IAM5HUNS7IX5T7JKZSSJD6", "dateTime": 1516560543925}, {"current_trial": 93, "trialdata": {"rt": -1, "trial_type": "single-stim", "word": "worker", "stimulus": "<p id=\"stim\">WORKER</p>", "conditions": [24, 1600, "v", 12000], "internal_node_id": "0.0-66.0", "trial": 2, "time_elapsed": 518740, "serialpos": 4, "key_press": -1, "wordID": 1620, "type": "PRES_VIS", "trial_index": 93}, "uniqueid": "MTK1930:333U7HK6IAM5HUNS7IX5T7JKZSSJD6", "dateTime": 1516560546679}, {"current_trial": 94, "trialdata": {"rt": -1, "trial_type": "single-stim", "word": "chauffeur", "stimulus": "<p id=\"stim\">CHAUFFEUR</p>", "conditions": [24, 1600, "v", 12000], "internal_node_id": "0.0-67.0", "trial": 2, "time_elapsed": 521360, "serialpos": 5, "key_press": -1, "wordID": 282, "type": "PRES_VIS", "trial_index": 94}, "uniqueid": "MTK1930:333U7HK6IAM5HUNS7IX5T7JKZSSJD6", "dateTime": 1516560549299}, {"current_trial": 95, "trialdata": {"rt": -1, "trial_type": "single-stim", "word": "cellar", "stimulus": "<p id=\"stim\">CELLAR</p>", "conditions": [24, 1600, "v", 12000], "internal_node_id": "0.0-68.0", "trial": 2, "time_elapsed": 524153, "serialpos": 6, "key_press": -1, "wordID": 266, "type": "PRES_VIS", "trial_index": 95}, "uniqueid": "MTK1930:333U7HK6IAM5HUNS7IX5T7JKZSSJD6", "dateTime": 1516560552092}, {"current_trial": 96, "trialdata": {"rt": -1, "trial_type": "single-stim", "word": "soda", "stimulus": "<p id=\"stim\">SODA</p>", "conditions": [24, 1600, "v", 12000], "internal_node_id": "0.0-69.0", "trial": 2, "time_elapsed": 526629, "serialpos": 7, "key_press": -1, "wordID": 1340, "type": "PRES_VIS", "trial_index": 96}, "uniqueid": "MTK1930:333U7HK6IAM5HUNS7IX5T7JKZSSJD6", "dateTime": 1516560554568}, {"current_trial": 97, "trialdata": {"rt": -1, "trial_type": "single-stim", "word": "swimmer", "stimulus": "<p id=\"stim\">SWIMMER</p>", "conditions": [24, 1600, "v", 12000], "internal_node_id": "0.0-70.0", "trial": 2, "time_elapsed": 529193, "serialpos": 8, "key_press": -1, "wordID": 1419, "type": "PRES_VIS", "trial_index": 97}, "uniqueid": "MTK1930:333U7HK6IAM5HUNS7IX5T7JKZSSJD6", "dateTime": 1516560557132}, {"current_trial": 98, "trialdata": {"rt": -1, "trial_type": "single-stim", "word": "gymnast", "stimulus": "<p id=\"stim\">GYMNAST</p>", "conditions": [24, 1600, "v", 12000], "internal_node_id": "0.0-71.0", "trial": 2, "time_elapsed": 531690, "serialpos": 9, "key_press": -1, "wordID": 674, "type": "PRES_VIS", "trial_index": 98}, "uniqueid": "MTK1930:333U7HK6IAM5HUNS7IX5T7JKZSSJD6", "dateTime": 1516560559629}, {"current_trial": 99, "trialdata": {"rt": -1, "trial_type": "single-stim", "word": "helmet", "stimulus": "<p id=\"stim\">HELMET</p>", "conditions": [24, 1600, "v", 12000], "internal_node_id": "0.0-72.0", "trial": 2, "time_elapsed": 534408, "serialpos": 10, "key_press": -1, "wordID": 701, "type": "PRES_VIS", "trial_index": 99}, "uniqueid": "MTK1930:333U7HK6IAM5HUNS7IX5T7JKZSSJD6", "dateTime": 1516560562347}, {"current_trial": 100, "trialdata": {"rt": -1, "trial_type": "single-stim", "word": "donor", "stimulus": "<p id=\"stim\">DONOR</p>", "conditions": [24, 1600, "v", 12000], "internal_node_id": "0.0-73.0", "trial": 2, "time_elapsed": 536889, "serialpos": 11, "key_press": -1, "wordID": 484, "type": "PRES_VIS", "trial_index": 100}, "uniqueid": "MTK1930:333U7HK6IAM5HUNS7IX5T7JKZSSJD6", "dateTime": 1516560564828}, {"current_trial": 101, "trialdata": {"rt": -1, "trial_type": "single-stim", "word": "thread", "stimulus": "<p id=\"stim\">THREAD</p>", "conditions": [24, 1600, "v", 12000], "internal_node_id": "0.0-74.0", "trial": 2, "time_elapsed": 539508, "serialpos": 12, "key_press": -1, "wordID": 1459, "type": "PRES_VIS", "trial_index": 101}, "uniqueid": "MTK1930:333U7HK6IAM5HUNS7IX5T7JKZSSJD6", "dateTime": 1516560567447}, {"current_trial": 102, "trialdata": {"rt": -1, "trial_type": "single-stim", "word": "drawing", "stimulus": "<p id=\"stim\">DRAWING</p>", "conditions": [24, 1600, "v", 12000], "internal_node_id": "0.0-75.0", "trial": 2, "time_elapsed": 542219, "serialpos": 13, "key_press": -1, "wordID": 493, "type": "PRES_VIS", "trial_index": 102}, "uniqueid": "MTK1930:333U7HK6IAM5HUNS7IX5T7JKZSSJD6", "dateTime": 1516560570158}, {"current_trial": 103, "trialdata": {"rt": -1, "trial_type": "single-stim", "word": "patient", "stimulus": "<p id=\"stim\">PATIENT</p>", "conditions": [24, 1600, "v", 12000], "internal_node_id": "0.0-76.0", "trial": 2, "time_elapsed": 544667, "serialpos": 14, "key_press": -1, "wordID": 1023, "type": "PRES_VIS", "trial_index": 103}, "uniqueid": "MTK1930:333U7HK6IAM5HUNS7IX5T7JKZSSJD6", "dateTime": 1516560572606}, {"current_trial": 104, "trialdata": {"rt": -1, "trial_type": "single-stim", "word": "dustpan", "stimulus": "<p id=\"stim\">DUSTPAN</p>", "conditions": [24, 1600, "v", 12000], "internal_node_id": "0.0-77.0", "trial": 2, "time_elapsed": 547393, "serialpos": 15, "key_press": -1, "wordID": 508, "type": "PRES_VIS", "trial_index": 104}, "uniqueid": "MTK1930:333U7HK6IAM5HUNS7IX5T7JKZSSJD6", "dateTime": 1516560575332}, {"current_trial": 105, "trialdata": {"rt": -1, "trial_type": "single-stim", "word": "salmon", "stimulus": "<p id=\"stim\">SALMON</p>", "conditions": [24, 1600, "v", 12000], "internal_node_id": "0.0-78.0", "trial": 2, "time_elapsed": 550087, "serialpos": 16, "key_press": -1, "wordID": 1226, "type": "PRES_VIS", "trial_index": 105}, "uniqueid": "MTK1930:333U7HK6IAM5HUNS7IX5T7JKZSSJD6", "dateTime": 1516560578026}, {"current_trial": 106, "trialdata": {"rt": -1, "trial_type": "single-stim", "word": "paper", "stimulus": "<p id=\"stim\">PAPER</p>", "conditions": [24, 1600, "v", 12000], "internal_node_id": "0.0-79.0", "trial": 2, "time_elapsed": 552715, "serialpos": 17, "key_press": -1, "wordID": 1010, "type": "PRES_VIS", "trial_index": 106}, "uniqueid": "MTK1930:333U7HK6IAM5HUNS7IX5T7JKZSSJD6", "dateTime": 1516560580654}, {"current_trial": 107, "trialdata": {"rt": -1, "trial_type": "single-stim", "word": "stamp", "stimulus": "<p id=\"stim\">STAMP</p>", "conditions": [24, 1600, "v", 12000], "internal_node_id": "0.0-80.0", "trial": 2, "time_elapsed": 555315, "serialpos": 18, "key_press": -1, "wordID": 1369, "type": "PRES_VIS", "trial_index": 107}, "uniqueid": "MTK1930:333U7HK6IAM5HUNS7IX5T7JKZSSJD6", "dateTime": 1516560583254}, {"current_trial": 108, "trialdata": {"rt": -1, "trial_type": "single-stim", "word": "tile", "stimulus": "<p id=\"stim\">TILE</p>", "conditions": [24, 1600, "v", 12000], "internal_node_id": "0.0-81.0", "trial": 2, "time_elapsed": 557908, "serialpos": 19, "key_press": -1, "wordID": 1467, "type": "PRES_VIS", "trial_index": 108}, "uniqueid": "MTK1930:333U7HK6IAM5HUNS7IX5T7JKZSSJD6", "dateTime": 1516560585847}, {"current_trial": 109, "trialdata": {"rt": -1, "trial_type": "single-stim", "word": "nurse", "stimulus": "<p id=\"stim\">NURSE</p>", "conditions": [24, 1600, "v", 12000], "internal_node_id": "0.0-82.0", "trial": 2, "time_elapsed": 560401, "serialpos": 20, "key_press": -1, "wordID": 962, "type": "PRES_VIS", "trial_index": 109}, "uniqueid": "MTK1930:333U7HK6IAM5HUNS7IX5T7JKZSSJD6", "dateTime": 1516560588340}, {"current_trial": 110, "trialdata": {"rt": -1, "trial_type": "single-stim", "word": "ozone", "stimulus": "<p id=\"stim\">OZONE</p>", "conditions": [24, 1600, "v", 12000], "internal_node_id": "0.0-83.0", "trial": 2, "time_elapsed": 563010, "serialpos": 21, "key_press": -1, "wordID": 995, "type": "PRES_VIS", "trial_index": 110}, "uniqueid": "MTK1930:333U7HK6IAM5HUNS7IX5T7JKZSSJD6", "dateTime": 1516560590949}, {"current_trial": 111, "trialdata": {"rt": -1, "trial_type": "single-stim", "word": "smog", "stimulus": "<p id=\"stim\">SMOG</p>", "conditions": [24, 1600, "v", 12000], "internal_node_id": "0.0-84.0", "trial": 2, "time_elapsed": 565587, "serialpos": 22, "key_press": -1, "wordID": 1329, "type": "PRES_VIS", "trial_index": 111}, "uniqueid": "MTK1930:333U7HK6IAM5HUNS7IX5T7JKZSSJD6", "dateTime": 1516560593526}, {"current_trial": 112, "trialdata": {"rt": -1, "trial_type": "single-stim", "word": "suitcase", "stimulus": "<p id=\"stim\">SUITCASE</p>", "conditions": [24, 1600, "v", 12000], "internal_node_id": "0.0-85.0", "trial": 2, "time_elapsed": 568360, "serialpos": 23, "key_press": -1, "wordID": 1402, "type": "PRES_VIS", "trial_index": 112}, "uniqueid": "MTK1930:333U7HK6IAM5HUNS7IX5T7JKZSSJD6", "dateTime": 1516560596299}, {"current_trial": 113, "trialdata": {"rt": -1, "trial_type": "single-stim", "stimulus": "", "internal_node_id": "0.0-86.0-0.0", "time_elapsed": 570644, "key_press": -1, "type": "PRE_RECALL_DELAY", "trial_index": 113}, "uniqueid": "MTK1930:333U7HK6IAM5HUNS7IX5T7JKZSSJD6", "dateTime": 1516560598583}, {"current_trial": 114, "trialdata": {"rt": -1000, "trial_type": "single-audio", "stimulus": "/static/audio/400Hz.wav", "internal_node_id": "0.0-87.0", "time_elapsed": 571144, "key_press": -1, "type": "PRE_RECALL_ALERT", "trial_index": 114}, "uniqueid": "MTK1930:333U7HK6IAM5HUNS7IX5T7JKZSSJD6", "dateTime": 1516560599083}, {"current_trial": 115, "trialdata": {"rt": [3453, 5047, 7121, 10215, 11744, 27129], "recwords": ["ozone", "smog", "suitcase", "basement", "glass", "paper"], "key_times": [2779, 2965, 3113, 3182, 3333, 3453, 3813, 3938, 4099, 4249, 5047, 5637, 5783, 5886, 6074, 6493, 6543, 6627, 6825, 7121, 9023, 9106, 9239, 9440, 9622, 9710, 9811, 9839, 10215, 10503, 10593, 10712, 10813, 11109, 11744, 26433, 26506, 26644, 26747, 26880, 27129], "trial_type": "free-recall", "conditions": [24, 1600, "v", 12000], "internal_node_id": "0.0-88.0-0.0", "key_presses": [79, 90, 79, 78, 69, 32, 83, 77, 79, 71, 32, 83, 85, 73, 84, 67, 65, 83, 69, 13, 66, 65, 83, 69, 77, 69, 78, 84, 13, 71, 76, 65, 83, 83, 13, 80, 65, 80, 69, 82, 13], "trial": 2, "time_elapsed": 631146, "type": "FREE_RECALL", "trial_index": 115}, "uniqueid": "MTK1930:333U7HK6IAM5HUNS7IX5T7JKZSSJD6", "dateTime": 1516560659092}, {"current_trial": 116, "trialdata": {"rt": 4536, "trial_type": "text", "internal_node_id": "0.0-89.0", "time_elapsed": 637690, "key_press": 32, "type": "INSTRUCTIONS", "trial_index": 116}, "uniqueid": "MTK1930:333U7HK6IAM5HUNS7IX5T7JKZSSJD6", "dateTime": 1516560665629}, {"current_trial": 117, "trialdata": {"rt": [2890, 4979, 7497, 11136], "trial_type": "math-distractor", "key_times": [2354, 2540, 2890, 4421, 4979, 6938, 7136, 7497, 10207, 10372, 11136], "responses": ["11", "8", "17", "19"], "num2": [1, 1, 4, 7, 4], "num3": [6, 6, 6, 7, 4], "conditions": [24, 800, "v", 12000], "internal_node_id": "0.0-90.0", "key_presses": [97, 97, 13, 104, 13, 97, 103, 13, 97, 105, 13], "trial": 3, "time_elapsed": 651692, "type": "DISTRACTOR", "trial_index": 117, "num1": [4, 1, 7, 5, 6]}, "uniqueid": "MTK1930:333U7HK6IAM5HUNS7IX5T7JKZSSJD6", "dateTime": 1516560679631}, {"current_trial": 118, "trialdata": {"rt": -1, "trial_type": "single-stim", "stimulus": "<p id=\"stim\">10</p>", "internal_node_id": "0.0-91.0-0.0", "time_elapsed": 654692, "key_press": -1, "trial_index": 118}, "uniqueid": "MTK1930:333U7HK6IAM5HUNS7IX5T7JKZSSJD6", "dateTime": 1516560682631}, {"current_trial": 119, "trialdata": {"rt": -1, "trial_type": "single-stim", "stimulus": "<p id=\"stim\">9</p>", "internal_node_id": "0.0-91.0-1.0", "time_elapsed": 655693, "key_press": -1, "trial_index": 119}, "uniqueid": "MTK1930:333U7HK6IAM5HUNS7IX5T7JKZSSJD6", "dateTime": 1516560683632}, {"current_trial": 120, "trialdata": {"rt": -1, "trial_type": "single-stim", "stimulus": "<p id=\"stim\">8</p>", "internal_node_id": "0.0-91.0-2.0", "time_elapsed": 656694, "key_press": -1, "trial_index": 120}, "uniqueid": "MTK1930:333U7HK6IAM5HUNS7IX5T7JKZSSJD6", "dateTime": 1516560684633}, {"current_trial": 121, "trialdata": {"rt": -1, "trial_type": "single-stim", "stimulus": "<p id=\"stim\">7</p>", "internal_node_id": "0.0-91.0-3.0", "time_elapsed": 657695, "key_press": -1, "trial_index": 121}, "uniqueid": "MTK1930:333U7HK6IAM5HUNS7IX5T7JKZSSJD6", "dateTime": 1516560685634}, {"current_trial": 122, "trialdata": {"rt": -1, "trial_type": "single-stim", "stimulus": "<p id=\"stim\">6</p>", "internal_node_id": "0.0-91.0-4.0", "time_elapsed": 658696, "key_press": -1, "trial_index": 122}, "uniqueid": "MTK1930:333U7HK6IAM5HUNS7IX5T7JKZSSJD6", "dateTime": 1516560686635}, {"current_trial": 123, "trialdata": {"rt": -1, "trial_type": "single-stim", "stimulus": "<p id=\"stim\">5</p>", "internal_node_id": "0.0-91.0-5.0", "time_elapsed": 659697, "key_press": -1, "trial_index": 123}, "uniqueid": "MTK1930:333U7HK6IAM5HUNS7IX5T7JKZSSJD6", "dateTime": 1516560687636}, {"current_trial": 124, "trialdata": {"rt": -1, "trial_type": "single-stim", "stimulus": "<p id=\"stim\">4</p>", "internal_node_id": "0.0-91.0-6.0", "time_elapsed": 660698, "key_press": -1, "trial_index": 124}, "uniqueid": "MTK1930:333U7HK6IAM5HUNS7IX5T7JKZSSJD6", "dateTime": 1516560688637}, {"current_trial": 125, "trialdata": {"rt": -1, "trial_type": "single-stim", "stimulus": "<p id=\"stim\">3</p>", "internal_node_id": "0.0-91.0-7.0", "time_elapsed": 661699, "key_press": -1, "trial_index": 125}, "uniqueid": "MTK1930:333U7HK6IAM5HUNS7IX5T7JKZSSJD6", "dateTime": 1516560689638}, {"current_trial": 126, "trialdata": {"rt": -1, "trial_type": "single-stim", "stimulus": "<p id=\"stim\">2</p>", "internal_node_id": "0.0-91.0-8.0", "time_elapsed": 662700, "key_press": -1, "trial_index": 126}, "uniqueid": "MTK1930:333U7HK6IAM5HUNS7IX5T7JKZSSJD6", "dateTime": 1516560690639}, {"current_trial": 127, "trialdata": {"rt": -1, "trial_type": "single-stim", "stimulus": "<p id=\"stim\">1</p>", "internal_node_id": "0.0-91.0-9.0", "time_elapsed": 663701, "key_press": -1, "trial_index": 127}, "uniqueid": "MTK1930:333U7HK6IAM5HUNS7IX5T7JKZSSJD6", "dateTime": 1516560691640}, {"current_trial": 128, "trialdata": {"rt": -1, "trial_type": "single-stim", "stimulus": "<p id=\"stim\">+</p>", "internal_node_id": "0.0-92.0-0.0", "time_elapsed": 665203, "key_press": -1, "type": "FIXATION", "trial_index": 128}, "uniqueid": "MTK1930:333U7HK6IAM5HUNS7IX5T7JKZSSJD6", "dateTime": 1516560693142}, {"current_trial": 129, "trialdata": {"rt": -1, "trial_type": "single-stim", "word": "crater", "stimulus": "<p id=\"stim\">CRATER</p>", "conditions": [24, 800, "v", 12000], "internal_node_id": "0.0-93.0", "trial": 3, "time_elapsed": 666005, "serialpos": 0, "key_press": -1, "wordID": 399, "type": "PRES_VIS", "trial_index": 129}, "uniqueid": "MTK1930:333U7HK6IAM5HUNS7IX5T7JKZSSJD6", "dateTime": 1516560693944}, {"current_trial": 130, "trialdata": {"rt": -1, "trial_type": "single-stim", "word": "rattle", "stimulus": "<p id=\"stim\">RATTLE</p>", "conditions": [24, 800, "v", 12000], "internal_node_id": "0.0-94.0", "trial": 3, "time_elapsed": 667721, "serialpos": 1, "key_press": -1, "wordID": 1169, "type": "PRES_VIS", "trial_index": 130}, "uniqueid": "MTK1930:333U7HK6IAM5HUNS7IX5T7JKZSSJD6", "dateTime": 1516560695660}, {"current_trial": 131, "trialdata": {"rt": -1, "trial_type": "single-stim", "word": "snail", "stimulus": "<p id=\"stim\">SNAIL</p>", "conditions": [24, 800, "v", 12000], "internal_node_id": "0.0-95.0", "trial": 3, "time_elapsed": 669594, "serialpos": 2, "key_press": -1, "wordID": 1331, "type": "PRES_VIS", "trial_index": 131}, "uniqueid": "MTK1930:333U7HK6IAM5HUNS7IX5T7JKZSSJD6", "dateTime": 1516560697533}, {"current_trial": 132, "trialdata": {"rt": -1, "trial_type": "single-stim", "word": "hedge", "stimulus": "<p id=\"stim\">HEDGE</p>", "conditions": [24, 800, "v", 12000], "internal_node_id": "0.0-96.0", "trial": 3, "time_elapsed": 671346, "serialpos": 3, "key_press": -1, "wordID": 698, "type": "PRES_VIS", "trial_index": 132}, "uniqueid": "MTK1930:333U7HK6IAM5HUNS7IX5T7JKZSSJD6", "dateTime": 1516560699285}, {"current_trial": 133, "trialdata": {"rt": -1, "trial_type": "single-stim", "word": "pork", "stimulus": "<p id=\"stim\">PORK</p>", "conditions": [24, 800, "v", 12000], "internal_node_id": "0.0-97.0", "trial": 3, "time_elapsed": 672980, "serialpos": 4, "key_press": -1, "wordID": 1107, "type": "PRES_VIS", "trial_index": 133}, "uniqueid": "MTK1930:333U7HK6IAM5HUNS7IX5T7JKZSSJD6", "dateTime": 1516560700919}, {"current_trial": 134, "trialdata": {"rt": -1, "trial_type": "single-stim", "word": "bacon", "stimulus": "<p id=\"stim\">BACON</p>", "conditions": [24, 800, "v", 12000], "internal_node_id": "0.0-98.0", "trial": 3, "time_elapsed": 674939, "serialpos": 5, "key_press": -1, "wordID": 66, "type": "PRES_VIS", "trial_index": 134}, "uniqueid": "MTK1930:333U7HK6IAM5HUNS7IX5T7JKZSSJD6", "dateTime": 1516560702878}, {"current_trial": 135, "trialdata": {"rt": -1, "trial_type": "single-stim", "word": "banquet", "stimulus": "<p id=\"stim\">BANQUET</p>", "conditions": [24, 800, "v", 12000], "internal_node_id": "0.0-99.0", "trial": 3, "time_elapsed": 676861, "serialpos": 6, "key_press": -1, "wordID": 85, "type": "PRES_VIS", "trial_index": 135}, "uniqueid": "MTK1930:333U7HK6IAM5HUNS7IX5T7JKZSSJD6", "dateTime": 1516560704800}, {"current_trial": 136, "trialdata": {"rt": -1, "trial_type": "single-stim", "word": "dolphin", "stimulus": "<p id=\"stim\">DOLPHIN</p>", "conditions": [24, 800, "v", 12000], "internal_node_id": "0.0-100.0", "trial": 3, "time_elapsed": 678752, "serialpos": 7, "key_press": -1, "wordID": 482, "type": "PRES_VIS", "trial_index": 136}, "uniqueid": "MTK1930:333U7HK6IAM5HUNS7IX5T7JKZSSJD6", "dateTime": 1516560706691}, {"current_trial": 137, "trialdata": {"rt": -1, "trial_type": "single-stim", "word": "antler", "stimulus": "<p id=\"stim\">ANTLER</p>", "conditions": [24, 800, "v", 12000], "internal_node_id": "0.0-101.0", "trial": 3, "time_elapsed": 680605, "serialpos": 8, "key_press": -1, "wordID": 28, "type": "PRES_VIS", "trial_index": 137}, "uniqueid": "MTK1930:333U7HK6IAM5HUNS7IX5T7JKZSSJD6", "dateTime": 1516560708544}, {"current_trial": 138, "trialdata": {"rt": -1, "trial_type": "single-stim", "word": "tuba", "stimulus": "<p id=\"stim\">TUBA</p>", "conditions": [24, 800, "v", 12000], "internal_node_id": "0.0-102.0", "trial": 3, "time_elapsed": 682312, "serialpos": 9, "key_press": -1, "wordID": 1514, "type": "PRES_VIS", "trial_index": 138}, "uniqueid": "MTK1930:333U7HK6IAM5HUNS7IX5T7JKZSSJD6", "dateTime": 1516560710251}, {"current_trial": 139, "trialdata": {"rt": -1, "trial_type": "single-stim", "word": "lava", "stimulus": "<p id=\"stim\">LAVA</p>", "conditions": [24, 800, "v", 12000], "internal_node_id": "0.0-103.0", "trial": 3, "time_elapsed": 684048, "serialpos": 10, "key_press": -1, "wordID": 803, "type": "PRES_VIS", "trial_index": 139}, "uniqueid": "MTK1930:333U7HK6IAM5HUNS7IX5T7JKZSSJD6", "dateTime": 1516560711987}, {"current_trial": 140, "trialdata": {"rt": -1, "trial_type": "single-stim", "word": "picnic", "stimulus": "<p id=\"stim\">PICNIC</p>", "conditions": [24, 800, "v", 12000], "internal_node_id": "0.0-104.0", "trial": 3, "time_elapsed": 685950, "serialpos": 11, "key_press": -1, "wordID": 1059, "type": "PRES_VIS", "trial_index": 140}, "uniqueid": "MTK1930:333U7HK6IAM5HUNS7IX5T7JKZSSJD6", "dateTime": 1516560713889}, {"current_trial": 141, "trialdata": {"rt": -1, "trial_type": "single-stim", "word": "space", "stimulus": "<p id=\"stim\">SPACE</p>", "conditions": [24, 800, "v", 12000], "internal_node_id": "0.0-105.0", "trial": 3, "time_elapsed": 687680, "serialpos": 12, "key_press": -1, "wordID": 1344, "type": "PRES_VIS", "trial_index": 141}, "uniqueid": "MTK1930:333U7HK6IAM5HUNS7IX5T7JKZSSJD6", "dateTime": 1516560715620}, {"current_trial": 142, "trialdata": {"rt": -1, "trial_type": "single-stim", "word": "bucket", "stimulus": "<p id=\"stim\">BUCKET</p>", "conditions": [24, 800, "v", 12000], "internal_node_id": "0.0-106.0", "trial": 3, "time_elapsed": 689428, "serialpos": 13, "key_press": -1, "wordID": 183, "type": "PRES_VIS", "trial_index": 142}, "uniqueid": "MTK1930:333U7HK6IAM5HUNS7IX5T7JKZSSJD6", "dateTime": 1516560717367}, {"current_trial": 143, "trialdata": {"rt": -1, "trial_type": "single-stim", "word": "frame", "stimulus": "<p id=\"stim\">FRAME</p>", "conditions": [24, 800, "v", 12000], "internal_node_id": "0.0-107.0", "trial": 3, "time_elapsed": 691179, "serialpos": 14, "key_press": -1, "wordID": 599, "type": "PRES_VIS", "trial_index": 143}, "uniqueid": "MTK1930:333U7HK6IAM5HUNS7IX5T7JKZSSJD6", "dateTime": 1516560719118}, {"current_trial": 144, "trialdata": {"rt": -1, "trial_type": "single-stim", "word": "box", "stimulus": "<p id=\"stim\">BOX</p>", "conditions": [24, 800, "v", 12000], "internal_node_id": "0.0-108.0", "trial": 3, "time_elapsed": 692898, "serialpos": 15, "key_press": -1, "wordID": 158, "type": "PRES_VIS", "trial_index": 144}, "uniqueid": "MTK1930:333U7HK6IAM5HUNS7IX5T7JKZSSJD6", "dateTime": 1516560720837}, {"current_trial": 145, "trialdata": {"rt": -1, "trial_type": "single-stim", "word": "chapel", "stimulus": "<p id=\"stim\">CHAPEL</p>", "conditions": [24, 800, "v", 12000], "internal_node_id": "0.0-109.0", "trial": 3, "time_elapsed": 694566, "serialpos": 16, "key_press": -1, "wordID": 279, "type": "PRES_VIS", "trial_index": 145}, "uniqueid": "MTK1930:333U7HK6IAM5HUNS7IX5T7JKZSSJD6", "dateTime": 1516560722505}, {"current_trial": 146, "trialdata": {"rt": -1, "trial_type": "single-stim", "word": "piano", "stimulus": "<p id=\"stim\">PIANO</p>", "conditions": [24, 800, "v", 12000], "internal_node_id": "0.0-110.0", "trial": 3, "time_elapsed": 696251, "serialpos": 17, "key_press": -1, "wordID": 1056, "type": "PRES_VIS", "trial_index": 146}, "uniqueid": "MTK1930:333U7HK6IAM5HUNS7IX5T7JKZSSJD6", "dateTime": 1516560724190}, {"current_trial": 147, "trialdata": {"rt": -1, "trial_type": "single-stim", "word": "harp", "stimulus": "<p id=\"stim\">HARP</p>", "conditions": [24, 800, "v", 12000], "internal_node_id": "0.0-111.0", "trial": 3, "time_elapsed": 697988, "serialpos": 18, "key_press": -1, "wordID": 688, "type": "PRES_VIS", "trial_index": 147}, "uniqueid": "MTK1930:333U7HK6IAM5HUNS7IX5T7JKZSSJD6", "dateTime": 1516560725927}, {"current_trial": 148, "trialdata": {"rt": -1, "trial_type": "single-stim", "word": "message", "stimulus": "<p id=\"stim\">MESSAGE</p>", "conditions": [24, 800, "v", 12000], "internal_node_id": "0.0-112.0", "trial": 3, "time_elapsed": 699786, "serialpos": 19, "key_press": -1, "wordID": 887, "type": "PRES_VIS", "trial_index": 148}, "uniqueid": "MTK1930:333U7HK6IAM5HUNS7IX5T7JKZSSJD6", "dateTime": 1516560727725}, {"current_trial": 149, "trialdata": {"rt": -1, "trial_type": "single-stim", "word": "church", "stimulus": "<p id=\"stim\">CHURCH</p>", "conditions": [24, 800, "v", 12000], "internal_node_id": "0.0-113.0", "trial": 3, "time_elapsed": 701689, "serialpos": 20, "key_press": -1, "wordID": 306, "type": "PRES_VIS", "trial_index": 149}, "uniqueid": "MTK1930:333U7HK6IAM5HUNS7IX5T7JKZSSJD6", "dateTime": 1516560729628}, {"current_trial": 150, "trialdata": {"rt": -1, "trial_type": "single-stim", "word": "rod", "stimulus": "<p id=\"stim\">ROD</p>", "conditions": [24, 800, "v", 12000], "internal_node_id": "0.0-114.0", "trial": 3, "time_elapsed": 703575, "serialpos": 21, "key_press": -1, "wordID": 1202, "type": "PRES_VIS", "trial_index": 150}, "uniqueid": "MTK1930:333U7HK6IAM5HUNS7IX5T7JKZSSJD6", "dateTime": 1516560731514}, {"current_trial": 151, "trialdata": {"rt": -1, "trial_type": "single-stim", "word": "actress", "stimulus": "<p id=\"stim\">ACTRESS</p>", "conditions": [24, 800, "v", 12000], "internal_node_id": "0.0-115.0", "trial": 3, "time_elapsed": 705309, "serialpos": 22, "key_press": -1, "wordID": 5, "type": "PRES_VIS", "trial_index": 151}, "uniqueid": "MTK1930:333U7HK6IAM5HUNS7IX5T7JKZSSJD6", "dateTime": 1516560733248}, {"current_trial": 152, "trialdata": {"rt": -1, "trial_type": "single-stim", "word": "garlic", "stimulus": "<p id=\"stim\">GARLIC</p>", "conditions": [24, 800, "v", 12000], "internal_node_id": "0.0-116.0", "trial": 3, "time_elapsed": 707109, "serialpos": 23, "key_press": -1, "wordID": 623, "type": "PRES_VIS", "trial_index": 152}, "uniqueid": "MTK1930:333U7HK6IAM5HUNS7IX5T7JKZSSJD6", "dateTime": 1516560735048}, {"current_trial": 153, "trialdata": {"rt": -1, "trial_type": "single-stim", "stimulus": "", "internal_node_id": "0.0-117.0-0.0", "time_elapsed": 709433, "key_press": -1, "type": "PRE_RECALL_DELAY", "trial_index": 153}, "uniqueid": "MTK1930:333U7HK6IAM5HUNS7IX5T7JKZSSJD6", "dateTime": 1516560737372}, {"current_trial": 154, "trialdata": {"rt": -1000, "trial_type": "single-audio", "stimulus": "/static/audio/400Hz.wav", "internal_node_id": "0.0-118.0", "time_elapsed": 709934, "key_press": -1, "type": "PRE_RECALL_ALERT", "trial_index": 154}, "uniqueid": "MTK1930:333U7HK6IAM5HUNS7IX5T7JKZSSJD6", "dateTime": 1516560737873}, {"current_trial": 155, "trialdata": {"rt": [1980, 2579, 4815, 6087, 7331, 9134, 12756, 28047, 35662], "recwords": ["garlic", "rod", "actress", "piano", "chapel", "church", "basement", "piano", "harp"], "key_times": [1091, 1164, 1338, 1515, 1722, 1846, 1980, 2203, 2282, 2417, 2579, 2831, 3204, 3436, 3618, 3762, 4039, 4144, 4815, 5144, 5277, 5419, 5552, 5751, 6087, 6384, 6497, 6609, 6759, 6851, 7035, 7331, 7868, 8035, 8234, 8284, 8574, 8690, 9134, 10665, 10739, 10840, 11020, 11843, 11938, 12006, 12108, 12756, 26503, 26689, 26825, 26930, 27139, 28047, 35019, 35138, 35241, 35311, 35662], "trial_type": "free-recall", "conditions": [24, 800, "v", 12000], "internal_node_id": "0.0-119.0-0.0", "key_presses": [71, 65, 82, 76, 73, 67, 32, 82, 79, 68, 32, 65, 67, 84, 82, 69, 83, 83, 32, 80, 73, 65, 78, 79, 13, 67, 72, 65, 80, 69, 76, 13, 67, 72, 85, 82, 67, 72, 13, 66, 65, 83, 69, 77, 69, 78, 84, 13, 80, 73, 65, 78, 79, 13, 72, 65, 82, 80, 13], "trial": 3, "time_elapsed": 769936, "type": "FREE_RECALL", "trial_index": 155}, "uniqueid": "MTK1930:333U7HK6IAM5HUNS7IX5T7JKZSSJD6", "dateTime": 1516560797879}, {"current_trial": 156, "trialdata": {"rt": 1503, "trial_type": "text", "internal_node_id": "0.0-120.0", "time_elapsed": 773444, "key_press": 32, "type": "INSTRUCTIONS", "trial_index": 156}, "uniqueid": "MTK1930:333U7HK6IAM5HUNS7IX5T7JKZSSJD6", "dateTime": 1516560801383}, {"current_trial": 157, "trialdata": {"rt": [2649, 5929, 8191, 11234], "trial_type": "math-distractor", "key_times": [1934, 1996, 2649, 5432, 5474, 5929, 7705, 7836, 8191, 10623, 10754, 11234], "responses": ["13", "23", "19", "17"], "num2": [7, 9, 9, 6, 4], "num3": [2, 9, 2, 9, 4], "conditions": [24, 1600, "v", 12000], "internal_node_id": "0.0-121.0", "key_presses": [97, 99, 13, 98, 99, 13, 97, 105, 13, 97, 103, 13], "trial": 4, "time_elapsed": 787447, "type": "DISTRACTOR", "trial_index": 157, "num1": [4, 5, 8, 2, 2]}, "uniqueid": "MTK1930:333U7HK6IAM5HUNS7IX5T7JKZSSJD6", "dateTime": 1516560815386}, {"current_trial": 158, "trialdata": {"rt": -1, "trial_type": "single-stim", "stimulus": "<p id=\"stim\">10</p>", "internal_node_id": "0.0-122.0-0.0", "time_elapsed": 790447, "key_press": -1, "trial_index": 158}, "uniqueid": "MTK1930:333U7HK6IAM5HUNS7IX5T7JKZSSJD6", "dateTime": 1516560818386}, {"current_trial": 159, "trialdata": {"rt": -1, "trial_type": "single-stim", "stimulus": "<p id=\"stim\">9</p>", "internal_node_id": "0.0-122.0-1.0", "time_elapsed": 791448, "key_press": -1, "trial_index": 159}, "uniqueid": "MTK1930:333U7HK6IAM5HUNS7IX5T7JKZSSJD6", "dateTime": 1516560819387}, {"current_trial": 160, "trialdata": {"rt": -1, "trial_type": "single-stim", "stimulus": "<p id=\"stim\">8</p>", "internal_node_id": "0.0-122.0-2.0", "time_elapsed": 792449, "key_press": -1, "trial_index": 160}, "uniqueid": "MTK1930:333U7HK6IAM5HUNS7IX5T7JKZSSJD6", "dateTime": 1516560820388}, {"current_trial": 161, "trialdata": {"rt": -1, "trial_type": "single-stim", "stimulus": "<p id=\"stim\">7</p>", "internal_node_id": "0.0-122.0-3.0", "time_elapsed": 793450, "key_press": -1, "trial_index": 161}, "uniqueid": "MTK1930:333U7HK6IAM5HUNS7IX5T7JKZSSJD6", "dateTime": 1516560821389}, {"current_trial": 162, "trialdata": {"rt": -1, "trial_type": "single-stim", "stimulus": "<p id=\"stim\">6</p>", "internal_node_id": "0.0-122.0-4.0", "time_elapsed": 794451, "key_press": -1, "trial_index": 162}, "uniqueid": "MTK1930:333U7HK6IAM5HUNS7IX5T7JKZSSJD6", "dateTime": 1516560822390}, {"current_trial": 163, "trialdata": {"rt": -1, "trial_type": "single-stim", "stimulus": "<p id=\"stim\">5</p>", "internal_node_id": "0.0-122.0-5.0", "time_elapsed": 795452, "key_press": -1, "trial_index": 163}, "uniqueid": "MTK1930:333U7HK6IAM5HUNS7IX5T7JKZSSJD6", "dateTime": 1516560823391}, {"current_trial": 164, "trialdata": {"rt": -1, "trial_type": "single-stim", "stimulus": "<p id=\"stim\">4</p>", "internal_node_id": "0.0-122.0-6.0", "time_elapsed": 796453, "key_press": -1, "trial_index": 164}, "uniqueid": "MTK1930:333U7HK6IAM5HUNS7IX5T7JKZSSJD6", "dateTime": 1516560824393}, {"current_trial": 165, "trialdata": {"rt": -1, "trial_type": "single-stim", "stimulus": "<p id=\"stim\">3</p>", "internal_node_id": "0.0-122.0-7.0", "time_elapsed": 797454, "key_press": -1, "trial_index": 165}, "uniqueid": "MTK1930:333U7HK6IAM5HUNS7IX5T7JKZSSJD6", "dateTime": 1516560825393}, {"current_trial": 166, "trialdata": {"rt": -1, "trial_type": "single-stim", "stimulus": "<p id=\"stim\">2</p>", "internal_node_id": "0.0-122.0-8.0", "time_elapsed": 798455, "key_press": -1, "trial_index": 166}, "uniqueid": "MTK1930:333U7HK6IAM5HUNS7IX5T7JKZSSJD6", "dateTime": 1516560826394}, {"current_trial": 167, "trialdata": {"rt": -1, "trial_type": "single-stim", "stimulus": "<p id=\"stim\">1</p>", "internal_node_id": "0.0-122.0-9.0", "time_elapsed": 799456, "key_press": -1, "trial_index": 167}, "uniqueid": "MTK1930:333U7HK6IAM5HUNS7IX5T7JKZSSJD6", "dateTime": 1516560827395}, {"current_trial": 168, "trialdata": {"rt": -1, "trial_type": "single-stim", "stimulus": "<p id=\"stim\">+</p>", "internal_node_id": "0.0-123.0-0.0", "time_elapsed": 800957, "key_press": -1, "type": "FIXATION", "trial_index": 168}, "uniqueid": "MTK1930:333U7HK6IAM5HUNS7IX5T7JKZSSJD6", "dateTime": 1516560828896}, {"current_trial": 169, "trialdata": {"rt": -1, "trial_type": "single-stim", "word": "county", "stimulus": "<p id=\"stim\">COUNTY</p>", "conditions": [24, 1600, "v", 12000], "internal_node_id": "0.0-124.0", "trial": 4, "time_elapsed": 802558, "serialpos": 0, "key_press": -1, "wordID": 388, "type": "PRES_VIS", "trial_index": 169}, "uniqueid": "MTK1930:333U7HK6IAM5HUNS7IX5T7JKZSSJD6", "dateTime": 1516560830497}, {"current_trial": 170, "trialdata": {"rt": -1, "trial_type": "single-stim", "word": "juggler", "stimulus": "<p id=\"stim\">JUGGLER</p>", "conditions": [24, 1600, "v", 12000], "internal_node_id": "0.0-125.0", "trial": 4, "time_elapsed": 805349, "serialpos": 1, "key_press": -1, "wordID": 762, "type": "PRES_VIS", "trial_index": 170}, "uniqueid": "MTK1930:333U7HK6IAM5HUNS7IX5T7JKZSSJD6", "dateTime": 1516560833298}, {"current_trial": 171, "trialdata": {"rt": -1, "trial_type": "single-stim", "word": "army", "stimulus": "<p id=\"stim\">ARMY</p>", "conditions": [24, 1600, "v", 12000], "internal_node_id": "0.0-126.0", "trial": 4, "time_elapsed": 807857, "serialpos": 2, "key_press": -1, "wordID": 38, "type": "PRES_VIS", "trial_index": 171}, "uniqueid": "MTK1930:333U7HK6IAM5HUNS7IX5T7JKZSSJD6", "dateTime": 1516560835796}, {"current_trial": 172, "trialdata": {"rt": -1, "trial_type": "single-stim", "word": "sandwich", "stimulus": "<p id=\"stim\">SANDWICH</p>", "conditions": [24, 1600, "v", 12000], "internal_node_id": "0.0-127.0", "trial": 4, "time_elapsed": 810452, "serialpos": 3, "key_press": -1, "wordID": 1231, "type": "PRES_VIS", "trial_index": 172}, "uniqueid": "MTK1930:333U7HK6IAM5HUNS7IX5T7JKZSSJD6", "dateTime": 1516560838391}, {"current_trial": 173, "trialdata": {"rt": -1, "trial_type": "single-stim", "word": "outdoors", "stimulus": "<p id=\"stim\">OUTDOORS</p>", "conditions": [24, 1600, "v", 12000], "internal_node_id": "0.0-128.0", "trial": 4, "time_elapsed": 812903, "serialpos": 4, "key_press": -1, "wordID": 986, "type": "PRES_VIS", "trial_index": 173}, "uniqueid": "MTK1930:333U7HK6IAM5HUNS7IX5T7JKZSSJD6", "dateTime": 1516560840842}, {"current_trial": 174, "trialdata": {"rt": -1, "trial_type": "single-stim", "word": "sheriff", "stimulus": "<p id=\"stim\">SHERIFF</p>", "conditions": [24, 1600, "v", 12000], "internal_node_id": "0.0-129.0", "trial": 4, "time_elapsed": 815556, "serialpos": 5, "key_press": -1, "wordID": 1283, "type": "PRES_VIS", "trial_index": 174}, "uniqueid": "MTK1930:333U7HK6IAM5HUNS7IX5T7JKZSSJD6", "dateTime": 1516560843495}, {"current_trial": 175, "trialdata": {"rt": -1, "trial_type": "single-stim", "word": "trombone", "stimulus": "<p id=\"stim\">TROMBONE</p>", "conditions": [24, 1600, "v", 12000], "internal_node_id": "0.0-130.0", "trial": 4, "time_elapsed": 818259, "serialpos": 6, "key_press": -1, "wordID": 1507, "type": "PRES_VIS", "trial_index": 175}, "uniqueid": "MTK1930:333U7HK6IAM5HUNS7IX5T7JKZSSJD6", "dateTime": 1516560846198}, {"current_trial": 176, "trialdata": {"rt": -1, "trial_type": "single-stim", "word": "gavel", "stimulus": "<p id=\"stim\">GAVEL</p>", "conditions": [24, 1600, "v", 12000], "internal_node_id": "0.0-131.0", "trial": 4, "time_elapsed": 820824, "serialpos": 7, "key_press": -1, "wordID": 626, "type": "PRES_VIS", "trial_index": 176}, "uniqueid": "MTK1930:333U7HK6IAM5HUNS7IX5T7JKZSSJD6", "dateTime": 1516560848763}, {"current_trial": 177, "trialdata": {"rt": -1, "trial_type": "single-stim", "word": "cook", "stimulus": "<p id=\"stim\">COOK</p>", "conditions": [24, 1600, "v", 12000], "internal_node_id": "0.0-132.0", "trial": 4, "time_elapsed": 823617, "serialpos": 8, "key_press": -1, "wordID": 371, "type": "PRES_VIS", "trial_index": 177}, "uniqueid": "MTK1930:333U7HK6IAM5HUNS7IX5T7JKZSSJD6", "dateTime": 1516560851556}, {"current_trial": 178, "trialdata": {"rt": -1, "trial_type": "single-stim", "word": "canal", "stimulus": "<p id=\"stim\">CANAL</p>", "conditions": [24, 1600, "v", 12000], "internal_node_id": "0.0-133.0", "trial": 4, "time_elapsed": 826027, "serialpos": 9, "key_press": -1, "wordID": 225, "type": "PRES_VIS", "trial_index": 178}, "uniqueid": "MTK1930:333U7HK6IAM5HUNS7IX5T7JKZSSJD6", "dateTime": 1516560853966}, {"current_trial": 179, "trialdata": {"rt": -1, "trial_type": "single-stim", "word": "pecan", "stimulus": "<p id=\"stim\">PECAN</p>", "conditions": [24, 1600, "v", 12000], "internal_node_id": "0.0-134.0", "trial": 4, "time_elapsed": 828446, "serialpos": 10, "key_press": -1, "wordID": 1035, "type": "PRES_VIS", "trial_index": 179}, "uniqueid": "MTK1930:333U7HK6IAM5HUNS7IX5T7JKZSSJD6", "dateTime": 1516560856385}, {"current_trial": 180, "trialdata": {"rt": -1, "trial_type": "single-stim", "word": "citrus", "stimulus": "<p id=\"stim\">CITRUS</p>", "conditions": [24, 1600, "v", 12000], "internal_node_id": "0.0-135.0", "trial": 4, "time_elapsed": 830969, "serialpos": 11, "key_press": -1, "wordID": 312, "type": "PRES_VIS", "trial_index": 180}, "uniqueid": "MTK1930:333U7HK6IAM5HUNS7IX5T7JKZSSJD6", "dateTime": 1516560858908}, {"current_trial": 181, "trialdata": {"rt": -1, "trial_type": "single-stim", "word": "crevice", "stimulus": "<p id=\"stim\">CREVICE</p>", "conditions": [24, 1600, "v", 12000], "internal_node_id": "0.0-136.0", "trial": 4, "time_elapsed": 833684, "serialpos": 12, "key_press": -1, "wordID": 404, "type": "PRES_VIS", "trial_index": 181}, "uniqueid": "MTK1930:333U7HK6IAM5HUNS7IX5T7JKZSSJD6", "dateTime": 1516560861623}, {"current_trial": 182, "trialdata": {"rt": -1, "trial_type": "single-stim", "word": "daughter", "stimulus": "<p id=\"stim\">DAUGHTER</p>", "conditions": [24, 1600, "v", 12000], "internal_node_id": "0.0-137.0", "trial": 4, "time_elapsed": 836140, "serialpos": 13, "key_press": -1, "wordID": 441, "type": "PRES_VIS", "trial_index": 182}, "uniqueid": "MTK1930:333U7HK6IAM5HUNS7IX5T7JKZSSJD6", "dateTime": 1516560864079}, {"current_trial": 183, "trialdata": {"rt": -1, "trial_type": "single-stim", "word": "wife", "stimulus": "<p id=\"stim\">WIFE</p>", "conditions": [24, 1600, "v", 12000], "internal_node_id": "0.0-138.0", "trial": 4, "time_elapsed": 838833, "serialpos": 14, "key_press": -1, "wordID": 1608, "type": "PRES_VIS", "trial_index": 183}, "uniqueid": "MTK1930:333U7HK6IAM5HUNS7IX5T7JKZSSJD6", "dateTime": 1516560866772}, {"current_trial": 184, "trialdata": {"rt": -1, "trial_type": "single-stim", "word": "dust", "stimulus": "<p id=\"stim\">DUST</p>", "conditions": [24, 1600, "v", 12000], "internal_node_id": "0.0-139.0", "trial": 4, "time_elapsed": 841435, "serialpos": 15, "key_press": -1, "wordID": 507, "type": "PRES_VIS", "trial_index": 184}, "uniqueid": "MTK1930:333U7HK6IAM5HUNS7IX5T7JKZSSJD6", "dateTime": 1516560869374}, {"current_trial": 185, "trialdata": {"rt": -1, "trial_type": "single-stim", "word": "branch", "stimulus": "<p id=\"stim\">BRANCH</p>", "conditions": [24, 1600, "v", 12000], "internal_node_id": "0.0-140.0", "trial": 4, "time_elapsed": 844013, "serialpos": 16, "key_press": -1, "wordID": 167, "type": "PRES_VIS", "trial_index": 185}, "uniqueid": "MTK1930:333U7HK6IAM5HUNS7IX5T7JKZSSJD6", "dateTime": 1516560871952}, {"current_trial": 186, "trialdata": {"rt": -1, "trial_type": "single-stim", "word": "bug", "stimulus": "<p id=\"stim\">BUG</p>", "conditions": [24, 1600, "v", 12000], "internal_node_id": "0.0-141.0", "trial": 4, "time_elapsed": 846639, "serialpos": 17, "key_press": -1, "wordID": 186, "type": "PRES_VIS", "trial_index": 186}, "uniqueid": "MTK1930:333U7HK6IAM5HUNS7IX5T7JKZSSJD6", "dateTime": 1516560874578}, {"current_trial": 187, "trialdata": {"rt": -1, "trial_type": "single-stim", "word": "spool", "stimulus": "<p id=\"stim\">SPOOL</p>", "conditions": [24, 1600, "v", 12000], "internal_node_id": "0.0-142.0", "trial": 4, "time_elapsed": 849341, "serialpos": 18, "key_press": -1, "wordID": 1355, "type": "PRES_VIS", "trial_index": 187}, "uniqueid": "MTK1930:333U7HK6IAM5HUNS7IX5T7JKZSSJD6", "dateTime": 1516560877280}, {"current_trial": 188, "trialdata": {"rt": -1, "trial_type": "single-stim", "word": "mattress", "stimulus": "<p id=\"stim\">MATTRESS</p>", "conditions": [24, 1600, "v", 12000], "internal_node_id": "0.0-143.0", "trial": 4, "time_elapsed": 851754, "serialpos": 19, "key_press": -1, "wordID": 878, "type": "PRES_VIS", "trial_index": 188}, "uniqueid": "MTK1930:333U7HK6IAM5HUNS7IX5T7JKZSSJD6", "dateTime": 1516560879693}, {"current_trial": 189, "trialdata": {"rt": -1, "trial_type": "single-stim", "word": "bank", "stimulus": "<p id=\"stim\">BANK</p>", "conditions": [24, 1600, "v", 12000], "internal_node_id": "0.0-144.0", "trial": 4, "time_elapsed": 854523, "serialpos": 20, "key_press": -1, "wordID": 82, "type": "PRES_VIS", "trial_index": 189}, "uniqueid": "MTK1930:333U7HK6IAM5HUNS7IX5T7JKZSSJD6", "dateTime": 1516560882463}, {"current_trial": 190, "trialdata": {"rt": -1, "trial_type": "single-stim", "word": "kleenex", "stimulus": "<p id=\"stim\">KLEENEX</p>", "conditions": [24, 1600, "v", 12000], "internal_node_id": "0.0-145.0", "trial": 4, "time_elapsed": 856992, "serialpos": 21, "key_press": -1, "wordID": 781, "type": "PRES_VIS", "trial_index": 190}, "uniqueid": "MTK1930:333U7HK6IAM5HUNS7IX5T7JKZSSJD6", "dateTime": 1516560884931}, {"current_trial": 191, "trialdata": {"rt": -1, "trial_type": "single-stim", "word": "tortoise", "stimulus": "<p id=\"stim\">TORTOISE</p>", "conditions": [24, 1600, "v", 12000], "internal_node_id": "0.0-146.0", "trial": 4, "time_elapsed": 859607, "serialpos": 22, "key_press": -1, "wordID": 1485, "type": "PRES_VIS", "trial_index": 191}, "uniqueid": "MTK1930:333U7HK6IAM5HUNS7IX5T7JKZSSJD6", "dateTime": 1516560887546}, {"current_trial": 192, "trialdata": {"rt": -1, "trial_type": "single-stim", "word": "sword", "stimulus": "<p id=\"stim\">SWORD</p>", "conditions": [24, 1600, "v", 12000], "internal_node_id": "0.0-147.0", "trial": 4, "time_elapsed": 862135, "serialpos": 23, "key_press": -1, "wordID": 1422, "type": "PRES_VIS", "trial_index": 192}, "uniqueid": "MTK1930:333U7HK6IAM5HUNS7IX5T7JKZSSJD6", "dateTime": 1516560890074}, {"current_trial": 193, "trialdata": {"rt": -1, "trial_type": "single-stim", "stimulus": "", "internal_node_id": "0.0-148.0-0.0", "time_elapsed": 864614, "key_press": -1, "type": "PRE_RECALL_DELAY", "trial_index": 193}, "uniqueid": "MTK1930:333U7HK6IAM5HUNS7IX5T7JKZSSJD6", "dateTime": 1516560892553}, {"current_trial": 194, "trialdata": {"rt": -1000, "trial_type": "single-audio", "stimulus": "/static/audio/400Hz.wav", "internal_node_id": "0.0-149.0", "time_elapsed": 865115, "key_press": -1, "type": "PRE_RECALL_ALERT", "trial_index": 194}, "uniqueid": "MTK1930:333U7HK6IAM5HUNS7IX5T7JKZSSJD6", "dateTime": 1516560893054}, {"current_trial": 195, "trialdata": {"rt": [3188, 4873, 7418, 10072, 11531, 13090, 14695, 35861], "recwords": ["daughter", "wife", "sandwich", "outdoors", "sherrif", "county", "cook", "mattress"], "key_times": [2004, 2098, 2363, 2492, 2554, 2693, 2893, 2992, 3188, 4288, 4396, 4521, 4600, 4873, 5072, 5250, 5316, 5476, 5898, 6028, 6430, 6488, 7418, 7743, 7850, 7951, 8188, 8562, 8707, 8893, 9063, 9217, 9571, 10072, 10307, 10432, 10550, 10859, 10992, 11099, 11223, 11531, 11779, 11903, 12009, 12237, 12578, 12711, 13090, 13296, 13387, 13527, 13738, 14695, 34376, 34441, 34711, 34881, 35055, 35145, 35391, 35524, 35861], "trial_type": "free-recall", "conditions": [24, 1600, "v", 12000], "internal_node_id": "0.0-150.0-0.0", "key_presses": [68, 65, 85, 71, 72, 84, 69, 82, 32, 87, 73, 70, 69, 13, 83, 65, 78, 68, 87, 73, 67, 72, 13, 79, 85, 84, 83, 8, 68, 79, 79, 82, 83, 13, 83, 72, 69, 82, 82, 73, 70, 13, 67, 79, 85, 78, 84, 89, 13, 67, 79, 79, 75, 13, 77, 65, 84, 84, 82, 69, 83, 83, 13], "trial": 4, "time_elapsed": 925118, "type": "FREE_RECALL", "trial_index": 195}, "uniqueid": "MTK1930:333U7HK6IAM5HUNS7IX5T7JKZSSJD6", "dateTime": 1516560953062}, {"current_trial": 196, "trialdata": {"rt": 971, "trial_type": "text", "internal_node_id": "0.0-151.0", "time_elapsed": 928095, "key_press": 32, "type": "INSTRUCTIONS", "trial_index": 196}, "uniqueid": "MTK1930:333U7HK6IAM5HUNS7IX5T7JKZSSJD6", "dateTime": 1516560956034}, {"current_trial": 197, "trialdata": {"rt": [4333, 7356, 9913, 12732, 16637, 19330, 21667, 23469], "trial_type": "math-distractor", "key_times": [3525, 3575, 4333, 6209, 6408, 7356, 9278, 9368, 9913, 12215, 12313, 12732, 15666, 15757, 16637, 18832, 18939, 19330, 20893, 21136, 21667, 23023, 23151, 23469], "responses": ["10", "19", "15", "13", "12", "15", "16", "13"], "num2": [4, 3, 5, 2, 2, 6, 7, 3, 3], "num3": [2, 7, 2, 4, 1, 3, 3, 9, 7], "conditions": [12, 800, "v", 24000], "internal_node_id": "0.0-152.0", "key_presses": [97, 96, 13, 97, 105, 13, 97, 101, 13, 97, 99, 13, 97, 98, 13, 97, 101, 13, 97, 102, 13, 97, 99, 13], "trial": 5, "time_elapsed": 954107, "type": "DISTRACTOR", "trial_index": 197, "num1": [3, 9, 8, 7, 9, 6, 6, 1, 7]}, "uniqueid": "MTK1930:333U7HK6IAM5HUNS7IX5T7JKZSSJD6", "dateTime": 1516560982046}, {"current_trial": 198, "trialdata": {"rt": -1, "trial_type": "single-stim", "stimulus": "<p id=\"stim\">10</p>", "internal_node_id": "0.0-153.0-0.0", "time_elapsed": 957107, "key_press": -1, "trial_index": 198}, "uniqueid": "MTK1930:333U7HK6IAM5HUNS7IX5T7JKZSSJD6", "dateTime": 1516560985046}, {"current_trial": 199, "trialdata": {"rt": -1, "trial_type": "single-stim", "stimulus": "<p id=\"stim\">9</p>", "internal_node_id": "0.0-153.0-1.0", "time_elapsed": 958108, "key_press": -1, "trial_index": 199}, "uniqueid": "MTK1930:333U7HK6IAM5HUNS7IX5T7JKZSSJD6", "dateTime": 1516560986047}, {"current_trial": 200, "trialdata": {"rt": -1, "trial_type": "single-stim", "stimulus": "<p id=\"stim\">8</p>", "internal_node_id": "0.0-153.0-2.0", "time_elapsed": 959108, "key_press": -1, "trial_index": 200}, "uniqueid": "MTK1930:333U7HK6IAM5HUNS7IX5T7JKZSSJD6", "dateTime": 1516560987047}, {"current_trial": 201, "trialdata": {"rt": -1, "trial_type": "single-stim", "stimulus": "<p id=\"stim\">7</p>", "internal_node_id": "0.0-153.0-3.0", "time_elapsed": 960109, "key_press": -1, "trial_index": 201}, "uniqueid": "MTK1930:333U7HK6IAM5HUNS7IX5T7JKZSSJD6", "dateTime": 1516560988048}, {"current_trial": 202, "trialdata": {"rt": -1, "trial_type": "single-stim", "stimulus": "<p id=\"stim\">6</p>", "internal_node_id": "0.0-153.0-4.0", "time_elapsed": 961110, "key_press": -1, "trial_index": 202}, "uniqueid": "MTK1930:333U7HK6IAM5HUNS7IX5T7JKZSSJD6", "dateTime": 1516560989049}, {"current_trial": 203, "trialdata": {"rt": -1, "trial_type": "single-stim", "stimulus": "<p id=\"stim\">5</p>", "internal_node_id": "0.0-153.0-5.0", "time_elapsed": 962111, "key_press": -1, "trial_index": 203}, "uniqueid": "MTK1930:333U7HK6IAM5HUNS7IX5T7JKZSSJD6", "dateTime": 1516560990050}, {"current_trial": 204, "trialdata": {"rt": -1, "trial_type": "single-stim", "stimulus": "<p id=\"stim\">4</p>", "internal_node_id": "0.0-153.0-6.0", "time_elapsed": 963112, "key_press": -1, "trial_index": 204}, "uniqueid": "MTK1930:333U7HK6IAM5HUNS7IX5T7JKZSSJD6", "dateTime": 1516560991051}, {"current_trial": 205, "trialdata": {"rt": -1, "trial_type": "single-stim", "stimulus": "<p id=\"stim\">3</p>", "internal_node_id": "0.0-153.0-7.0", "time_elapsed": 964113, "key_press": -1, "trial_index": 205}, "uniqueid": "MTK1930:333U7HK6IAM5HUNS7IX5T7JKZSSJD6", "dateTime": 1516560992052}, {"current_trial": 206, "trialdata": {"rt": -1, "trial_type": "single-stim", "stimulus": "<p id=\"stim\">2</p>", "internal_node_id": "0.0-153.0-8.0", "time_elapsed": 965114, "key_press": -1, "trial_index": 206}, "uniqueid": "MTK1930:333U7HK6IAM5HUNS7IX5T7JKZSSJD6", "dateTime": 1516560993053}, {"current_trial": 207, "trialdata": {"rt": -1, "trial_type": "single-stim", "stimulus": "<p id=\"stim\">1</p>", "internal_node_id": "0.0-153.0-9.0", "time_elapsed": 966115, "key_press": -1, "trial_index": 207}, "uniqueid": "MTK1930:333U7HK6IAM5HUNS7IX5T7JKZSSJD6", "dateTime": 1516560994054}, {"current_trial": 208, "trialdata": {"rt": -1, "trial_type": "single-stim", "stimulus": "<p id=\"stim\">+</p>", "internal_node_id": "0.0-154.0-0.0", "time_elapsed": 967616, "key_press": -1, "type": "FIXATION", "trial_index": 208}, "uniqueid": "MTK1930:333U7HK6IAM5HUNS7IX5T7JKZSSJD6", "dateTime": 1516560995555}, {"current_trial": 209, "trialdata": {"rt": -1, "trial_type": "single-stim", "word": "beast", "stimulus": "<p id=\"stim\">BEAST</p>", "conditions": [12, 800, "v", 24000], "internal_node_id": "0.0-155.0", "trial": 5, "time_elapsed": 968417, "serialpos": 0, "key_press": -1, "wordID": 107, "type": "PRES_VIS", "trial_index": 209}, "uniqueid": "MTK1930:333U7HK6IAM5HUNS7IX5T7JKZSSJD6", "dateTime": 1516560996356}, {"current_trial": 210, "trialdata": {"rt": -1, "trial_type": "single-stim", "word": "doughnut", "stimulus": "<p id=\"stim\">DOUGHNUT</p>", "conditions": [12, 800, "v", 24000], "internal_node_id": "0.0-156.0", "trial": 5, "time_elapsed": 970338, "serialpos": 1, "key_press": -1, "wordID": 489, "type": "PRES_VIS", "trial_index": 210}, "uniqueid": "MTK1930:333U7HK6IAM5HUNS7IX5T7JKZSSJD6", "dateTime": 1516560998277}, {"current_trial": 211, "trialdata": {"rt": -1, "trial_type": "single-stim", "word": "suspect", "stimulus": "<p id=\"stim\">SUSPECT</p>", "conditions": [12, 800, "v", 24000], "internal_node_id": "0.0-157.0", "trial": 5, "time_elapsed": 972023, "serialpos": 2, "key_press": -1, "wordID": 1414, "type": "PRES_VIS", "trial_index": 211}, "uniqueid": "MTK1930:333U7HK6IAM5HUNS7IX5T7JKZSSJD6", "dateTime": 1516560999962}, {"current_trial": 212, "trialdata": {"rt": -1, "trial_type": "single-stim", "word": "victim", "stimulus": "<p id=\"stim\">VICTIM</p>", "conditions": [12, 800, "v", 24000], "internal_node_id": "0.0-158.0", "trial": 5, "time_elapsed": 974007, "serialpos": 3, "key_press": -1, "wordID": 1561, "type": "PRES_VIS", "trial_index": 212}, "uniqueid": "MTK1930:333U7HK6IAM5HUNS7IX5T7JKZSSJD6", "dateTime": 1516561001946}, {"current_trial": 213, "trialdata": {"rt": -1, "trial_type": "single-stim", "word": "custard", "stimulus": "<p id=\"stim\">CUSTARD</p>", "conditions": [12, 800, "v", 24000], "internal_node_id": "0.0-159.0", "trial": 5, "time_elapsed": 975887, "serialpos": 4, "key_press": -1, "wordID": 428, "type": "PRES_VIS", "trial_index": 213}, "uniqueid": "MTK1930:333U7HK6IAM5HUNS7IX5T7JKZSSJD6", "dateTime": 1516561003826}, {"current_trial": 214, "trialdata": {"rt": -1, "trial_type": "single-stim", "word": "marine", "stimulus": "<p id=\"stim\">MARINE</p>", "conditions": [12, 800, "v", 24000], "internal_node_id": "0.0-160.0", "trial": 5, "time_elapsed": 977716, "serialpos": 5, "key_press": -1, "wordID": 868, "type": "PRES_VIS", "trial_index": 214}, "uniqueid": "MTK1930:333U7HK6IAM5HUNS7IX5T7JKZSSJD6", "dateTime": 1516561005655}, {"current_trial": 215, "trialdata": {"rt": -1, "trial_type": "single-stim", "word": "queen", "stimulus": "<p id=\"stim\">QUEEN</p>", "conditions": [12, 800, "v", 24000], "internal_node_id": "0.0-161.0", "trial": 5, "time_elapsed": 979699, "serialpos": 6, "key_press": -1, "wordID": 1148, "type": "PRES_VIS", "trial_index": 215}, "uniqueid": "MTK1930:333U7HK6IAM5HUNS7IX5T7JKZSSJD6", "dateTime": 1516561007639}, {"current_trial": 216, "trialdata": {"rt": -1, "trial_type": "single-stim", "word": "pastry", "stimulus": "<p id=\"stim\">PASTRY</p>", "conditions": [12, 800, "v", 24000], "internal_node_id": "0.0-162.0", "trial": 5, "time_elapsed": 981534, "serialpos": 7, "key_press": -1, "wordID": 1021, "type": "PRES_VIS", "trial_index": 216}, "uniqueid": "MTK1930:333U7HK6IAM5HUNS7IX5T7JKZSSJD6", "dateTime": 1516561009473}, {"current_trial": 217, "trialdata": {"rt": -1, "trial_type": "single-stim", "word": "omelet", "stimulus": "<p id=\"stim\">OMELET</p>", "conditions": [12, 800, "v", 24000], "internal_node_id": "0.0-163.0", "trial": 5, "time_elapsed": 983533, "serialpos": 8, "key_press": -1, "wordID": 975, "type": "PRES_VIS", "trial_index": 217}, "uniqueid": "MTK1930:333U7HK6IAM5HUNS7IX5T7JKZSSJD6", "dateTime": 1516561011472}, {"current_trial": 218, "trialdata": {"rt": -1, "trial_type": "single-stim", "word": "coin", "stimulus": "<p id=\"stim\">COIN</p>", "conditions": [12, 800, "v", 24000], "internal_node_id": "0.0-164.0", "trial": 5, "time_elapsed": 985480, "serialpos": 9, "key_press": -1, "wordID": 342, "type": "PRES_VIS", "trial_index": 218}, "uniqueid": "MTK1930:333U7HK6IAM5HUNS7IX5T7JKZSSJD6", "dateTime": 1516561013420}, {"current_trial": 219, "trialdata": {"rt": -1, "trial_type": "single-stim", "word": "airplane", "stimulus": "<p id=\"stim\">AIRPLANE</p>", "conditions": [12, 800, "v", 24000], "internal_node_id": "0.0-165.0", "trial": 5, "time_elapsed": 987288, "serialpos": 10, "key_press": -1, "wordID": 11, "type": "PRES_VIS", "trial_index": 219}, "uniqueid": "MTK1930:333U7HK6IAM5HUNS7IX5T7JKZSSJD6", "dateTime": 1516561015227}, {"current_trial": 220, "trialdata": {"rt": -1, "trial_type": "single-stim", "word": "critic", "stimulus": "<p id=\"stim\">CRITIC</p>", "conditions": [12, 800, "v", 24000], "internal_node_id": "0.0-166.0", "trial": 5, "time_elapsed": 989082, "serialpos": 11, "key_press": -1, "wordID": 409, "type": "PRES_VIS", "trial_index": 220}, "uniqueid": "MTK1930:333U7HK6IAM5HUNS7IX5T7JKZSSJD6", "dateTime": 1516561017021}, {"current_trial": 221, "trialdata": {"rt": -1, "trial_type": "single-stim", "stimulus": "", "internal_node_id": "0.0-167.0-0.0", "time_elapsed": 991417, "key_press": -1, "type": "PRE_RECALL_DELAY", "trial_index": 221}, "uniqueid": "MTK1930:333U7HK6IAM5HUNS7IX5T7JKZSSJD6", "dateTime": 1516561019356}, {"current_trial": 222, "trialdata": {"rt": -1000, "trial_type": "single-audio", "stimulus": "/static/audio/400Hz.wav", "internal_node_id": "0.0-168.0", "time_elapsed": 991918, "key_press": -1, "type": "PRE_RECALL_ALERT", "trial_index": 222}, "uniqueid": "MTK1930:333U7HK6IAM5HUNS7IX5T7JKZSSJD6", "dateTime": 1516561019857}, {"current_trial": 223, "trialdata": {"rt": [2294, 6916, 8661, 11390, 13660, 24762, 36262], "recwords": ["critic", "airplane", "beast", "doughnut", "pastry", "coo", "cook"], "key_times": [956, 1170, 1269, 1478, 1545, 1761, 2294, 2521, 2850, 2949, 3325, 3627, 3629, 3791, 3888, 4218, 4409, 4570, 4728, 5567, 5680, 5765, 5941, 6021, 6416, 6916, 7237, 7369, 7516, 7670, 7842, 8661, 9443, 9625, 9732, 10160, 10437, 10741, 10969, 11126, 11390, 11694, 11744, 11960, 12155, 12390, 12507, 13660, 24200, 24332, 24506, 24762, 33650, 33991, 34182, 35889, 36262], "trial_type": "free-recall", "conditions": [12, 800, "v", 24000], "internal_node_id": "0.0-169.0-0.0", "key_presses": [67, 82, 73, 84, 73, 67, 13, 65, 73, 82, 80, 65, 76, 78, 69, 8, 8, 8, 8, 76, 65, 78, 69, 69, 8, 13, 66, 69, 65, 83, 84, 13, 68, 79, 85, 71, 72, 78, 85, 84, 13, 80, 65, 83, 84, 82, 89, 13, 67, 79, 79, 188, 67, 79, 79, 75, 13], "trial": 5, "time_elapsed": 1051921, "type": "FREE_RECALL", "trial_index": 223}, "uniqueid": "MTK1930:333U7HK6IAM5HUNS7IX5T7JKZSSJD6", "dateTime": 1516561079883}, {"current_trial": 224, "trialdata": {"rt": 1481, "trial_type": "text", "internal_node_id": "0.0-170.0", "time_elapsed": 1055426, "key_press": 32, "type": "INSTRUCTIONS", "trial_index": 224}, "uniqueid": "MTK1930:333U7HK6IAM5HUNS7IX5T7JKZSSJD6", "dateTime": 1516561083365}, {"current_trial": 225, "trialdata": {"rt": [3137, 6184, 9827], "trial_type": "math-distractor", "key_times": [2582, 2689, 3137, 5633, 5716, 6184, 9105, 9228, 9827], "responses": ["10", "15", "15"], "num2": [2, 4, 2, 1], "num3": [5, 8, 4, 3], "conditions": [12, 1600, "v", 12000], "internal_node_id": "0.0-171.0", "key_presses": [97, 96, 13, 97, 101, 13, 97, 101, 13], "trial": 6, "time_elapsed": 1069428, "type": "DISTRACTOR", "trial_index": 225, "num1": [3, 3, 9, 7]}, "uniqueid": "MTK1930:333U7HK6IAM5HUNS7IX5T7JKZSSJD6", "dateTime": 1516561097367}, {"current_trial": 226, "trialdata": {"rt": -1, "trial_type": "single-stim", "stimulus": "<p id=\"stim\">10</p>", "internal_node_id": "0.0-172.0-0.0", "time_elapsed": 1072428, "key_press": -1, "trial_index": 226}, "uniqueid": "MTK1930:333U7HK6IAM5HUNS7IX5T7JKZSSJD6", "dateTime": 1516561100367}, {"current_trial": 227, "trialdata": {"rt": -1, "trial_type": "single-stim", "stimulus": "<p id=\"stim\">9</p>", "internal_node_id": "0.0-172.0-1.0", "time_elapsed": 1073429, "key_press": -1, "trial_index": 227}, "uniqueid": "MTK1930:333U7HK6IAM5HUNS7IX5T7JKZSSJD6", "dateTime": 1516561101368}, {"current_trial": 228, "trialdata": {"rt": -1, "trial_type": "single-stim", "stimulus": "<p id=\"stim\">8</p>", "internal_node_id": "0.0-172.0-2.0", "time_elapsed": 1074430, "key_press": -1, "trial_index": 228}, "uniqueid": "MTK1930:333U7HK6IAM5HUNS7IX5T7JKZSSJD6", "dateTime": 1516561102369}, {"current_trial": 229, "trialdata": {"rt": -1, "trial_type": "single-stim", "stimulus": "<p id=\"stim\">7</p>", "internal_node_id": "0.0-172.0-3.0", "time_elapsed": 1075431, "key_press": -1, "trial_index": 229}, "uniqueid": "MTK1930:333U7HK6IAM5HUNS7IX5T7JKZSSJD6", "dateTime": 1516561103370}, {"current_trial": 230, "trialdata": {"rt": -1, "trial_type": "single-stim", "stimulus": "<p id=\"stim\">6</p>", "internal_node_id": "0.0-172.0-4.0", "time_elapsed": 1076432, "key_press": -1, "trial_index": 230}, "uniqueid": "MTK1930:333U7HK6IAM5HUNS7IX5T7JKZSSJD6", "dateTime": 1516561104371}, {"current_trial": 231, "trialdata": {"rt": -1, "trial_type": "single-stim", "stimulus": "<p id=\"stim\">5</p>", "internal_node_id": "0.0-172.0-5.0", "time_elapsed": 1077433, "key_press": -1, "trial_index": 231}, "uniqueid": "MTK1930:333U7HK6IAM5HUNS7IX5T7JKZSSJD6", "dateTime": 1516561105372}, {"current_trial": 232, "trialdata": {"rt": -1, "trial_type": "single-stim", "stimulus": "<p id=\"stim\">4</p>", "internal_node_id": "0.0-172.0-6.0", "time_elapsed": 1078434, "key_press": -1, "trial_index": 232}, "uniqueid": "MTK1930:333U7HK6IAM5HUNS7IX5T7JKZSSJD6", "dateTime": 1516561106373}, {"current_trial": 233, "trialdata": {"rt": -1, "trial_type": "single-stim", "stimulus": "<p id=\"stim\">3</p>", "internal_node_id": "0.0-172.0-7.0", "time_elapsed": 1079435, "key_press": -1, "trial_index": 233}, "uniqueid": "MTK1930:333U7HK6IAM5HUNS7IX5T7JKZSSJD6", "dateTime": 1516561107374}, {"current_trial": 234, "trialdata": {"rt": -1, "trial_type": "single-stim", "stimulus": "<p id=\"stim\">2</p>", "internal_node_id": "0.0-172.0-8.0", "time_elapsed": 1080436, "key_press": -1, "trial_index": 234}, "uniqueid": "MTK1930:333U7HK6IAM5HUNS7IX5T7JKZSSJD6", "dateTime": 1516561108375}, {"current_trial": 235, "trialdata": {"rt": -1, "trial_type": "single-stim", "stimulus": "<p id=\"stim\">1</p>", "internal_node_id": "0.0-172.0-9.0", "time_elapsed": 1081437, "key_press": -1, "trial_index": 235}, "uniqueid": "MTK1930:333U7HK6IAM5HUNS7IX5T7JKZSSJD6", "dateTime": 1516561109376}, {"current_trial": 236, "trialdata": {"rt": -1, "trial_type": "single-stim", "stimulus": "<p id=\"stim\">+</p>", "internal_node_id": "0.0-173.0-0.0", "time_elapsed": 1082938, "key_press": -1, "type": "FIXATION", "trial_index": 236}, "uniqueid": "MTK1930:333U7HK6IAM5HUNS7IX5T7JKZSSJD6", "dateTime": 1516561110877}, {"current_trial": 237, "trialdata": {"rt": -1, "trial_type": "single-stim", "word": "subway", "stimulus": "<p id=\"stim\">SUBWAY</p>", "conditions": [12, 1600, "v", 12000], "internal_node_id": "0.0-174.0", "trial": 6, "time_elapsed": 1084539, "serialpos": 0, "key_press": -1, "wordID": 1399, "type": "PRES_VIS", "trial_index": 237}, "uniqueid": "MTK1930:333U7HK6IAM5HUNS7IX5T7JKZSSJD6", "dateTime": 1516561112478}, {"current_trial": 238, "trialdata": {"rt": -1, "trial_type": "single-stim", "word": "bubble", "stimulus": "<p id=\"stim\">BUBBLE</p>", "conditions": [12, 1600, "v", 12000], "internal_node_id": "0.0-175.0", "trial": 6, "time_elapsed": 1087324, "serialpos": 1, "key_press": -1, "wordID": 182, "type": "PRES_VIS", "trial_index": 238}, "uniqueid": "MTK1930:333U7HK6IAM5HUNS7IX5T7JKZSSJD6", "dateTime": 1516561115263}, {"current_trial": 239, "trialdata": {"rt": -1, "trial_type": "single-stim", "word": "dorm", "stimulus": "<p id=\"stim\">DORM</p>", "conditions": [12, 1600, "v", 12000], "internal_node_id": "0.0-176.0", "trial": 6, "time_elapsed": 1089823, "serialpos": 2, "key_press": -1, "wordID": 487, "type": "PRES_VIS", "trial_index": 239}, "uniqueid": "MTK1930:333U7HK6IAM5HUNS7IX5T7JKZSSJD6", "dateTime": 1516561117762}, {"current_trial": 240, "trialdata": {"rt": -1, "trial_type": "single-stim", "word": "costume", "stimulus": "<p id=\"stim\">COSTUME</p>", "conditions": [12, 1600, "v", 12000], "internal_node_id": "0.0-177.0", "trial": 6, "time_elapsed": 1092374, "serialpos": 3, "key_press": -1, "wordID": 382, "type": "PRES_VIS", "trial_index": 240}, "uniqueid": "MTK1930:333U7HK6IAM5HUNS7IX5T7JKZSSJD6", "dateTime": 1516561120313}, {"current_trial": 241, "trialdata": {"rt": -1, "trial_type": "single-stim", "word": "widow", "stimulus": "<p id=\"stim\">WIDOW</p>", "conditions": [12, 1600, "v", 12000], "internal_node_id": "0.0-178.0", "trial": 6, "time_elapsed": 1095094, "serialpos": 4, "key_press": -1, "wordID": 1607, "type": "PRES_VIS", "trial_index": 241}, "uniqueid": "MTK1930:333U7HK6IAM5HUNS7IX5T7JKZSSJD6", "dateTime": 1516561123043}, {"current_trial": 242, "trialdata": {"rt": -1, "trial_type": "single-stim", "word": "husband", "stimulus": "<p id=\"stim\">HUSBAND</p>", "conditions": [12, 1600, "v", 12000], "internal_node_id": "0.0-179.0", "trial": 6, "time_elapsed": 1097701, "serialpos": 5, "key_press": -1, "wordID": 727, "type": "PRES_VIS", "trial_index": 242}, "uniqueid": "MTK1930:333U7HK6IAM5HUNS7IX5T7JKZSSJD6", "dateTime": 1516561125640}, {"current_trial": 243, "trialdata": {"rt": -1, "trial_type": "single-stim", "word": "turnip", "stimulus": "<p id=\"stim\">TURNIP</p>", "conditions": [12, 1600, "v", 12000], "internal_node_id": "0.0-180.0", "trial": 6, "time_elapsed": 1100312, "serialpos": 6, "key_press": -1, "wordID": 1520, "type": "PRES_VIS", "trial_index": 243}, "uniqueid": "MTK1930:333U7HK6IAM5HUNS7IX5T7JKZSSJD6", "dateTime": 1516561128251}, {"current_trial": 244, "trialdata": {"rt": -1, "trial_type": "single-stim", "word": "denim", "stimulus": "<p id=\"stim\">DENIM</p>", "conditions": [12, 1600, "v", 12000], "internal_node_id": "0.0-181.0", "trial": 6, "time_elapsed": 1102970, "serialpos": 7, "key_press": -1, "wordID": 445, "type": "PRES_VIS", "trial_index": 244}, "uniqueid": "MTK1930:333U7HK6IAM5HUNS7IX5T7JKZSSJD6", "dateTime": 1516561130909}, {"current_trial": 245, "trialdata": {"rt": -1, "trial_type": "single-stim", "word": "knapsack", "stimulus": "<p id=\"stim\">KNAPSACK</p>", "conditions": [12, 1600, "v", 12000], "internal_node_id": "0.0-182.0", "trial": 6, "time_elapsed": 1105438, "serialpos": 8, "key_press": -1, "wordID": 782, "type": "PRES_VIS", "trial_index": 245}, "uniqueid": "MTK1930:333U7HK6IAM5HUNS7IX5T7JKZSSJD6", "dateTime": 1516561133377}, {"current_trial": 246, "trialdata": {"rt": -1, "trial_type": "single-stim", "word": "journal", "stimulus": "<p id=\"stim\">JOURNAL</p>", "conditions": [12, 1600, "v", 12000], "internal_node_id": "0.0-183.0", "trial": 6, "time_elapsed": 1108122, "serialpos": 9, "key_press": -1, "wordID": 759, "type": "PRES_VIS", "trial_index": 246}, "uniqueid": "MTK1930:333U7HK6IAM5HUNS7IX5T7JKZSSJD6", "dateTime": 1516561136061}, {"current_trial": 247, "trialdata": {"rt": -1, "trial_type": "single-stim", "word": "cabbage", "stimulus": "<p id=\"stim\">CABBAGE</p>", "conditions": [12, 1600, "v", 12000], "internal_node_id": "0.0-184.0", "trial": 6, "time_elapsed": 1110536, "serialpos": 10, "key_press": -1, "wordID": 209, "type": "PRES_VIS", "trial_index": 247}, "uniqueid": "MTK1930:333U7HK6IAM5HUNS7IX5T7JKZSSJD6", "dateTime": 1516561138475}, {"current_trial": 248, "trialdata": {"rt": -1, "trial_type": "single-stim", "word": "human", "stimulus": "<p id=\"stim\">HUMAN</p>", "conditions": [12, 1600, "v", 12000], "internal_node_id": "0.0-185.0", "trial": 6, "time_elapsed": 1113018, "serialpos": 11, "key_press": -1, "wordID": 725, "type": "PRES_VIS", "trial_index": 248}, "uniqueid": "MTK1930:333U7HK6IAM5HUNS7IX5T7JKZSSJD6", "dateTime": 1516561140957}, {"current_trial": 249, "trialdata": {"rt": -1, "trial_type": "single-stim", "stimulus": "", "internal_node_id": "0.0-186.0-0.0", "time_elapsed": 1115049, "key_press": -1, "type": "PRE_RECALL_DELAY", "trial_index": 249}, "uniqueid": "MTK1930:333U7HK6IAM5HUNS7IX5T7JKZSSJD6", "dateTime": 1516561142988}, {"current_trial": 250, "trialdata": {"rt": -1000, "trial_type": "single-audio", "stimulus": "/static/audio/400Hz.wav", "internal_node_id": "0.0-187.0", "time_elapsed": 1115550, "key_press": -1, "type": "PRE_RECALL_ALERT", "trial_index": 250}, "uniqueid": "MTK1930:333U7HK6IAM5HUNS7IX5T7JKZSSJD6", "dateTime": 1516561143489}, {"current_trial": 251, "trialdata": {"rt": [3600, 5163, 6599, 7883, 10307, 11894, 17165, 21207], "recwords": ["journal", "cabbage", "subway", "human", "husband", "window", "subject", "subway"], "key_times": [2382, 2507, 2607, 2733, 2909, 3042, 3160, 3600, 3929, 4041, 4262, 4441, 4553, 4741, 4872, 5163, 5286, 5438, 5588, 5982, 6140, 6273, 6599, 6956, 7183, 7414, 7514, 7564, 7883, 8828, 9022, 9097, 9498, 9647, 9752, 9854, 10307, 11004, 11100, 11166, 11322, 11420, 11551, 11894, 12386, 14285, 14854, 15016, 15132, 15977, 16224, 17165, 20098, 20219, 2