{"condition": 0, "counterbalance": 1089, "assignmentId": "3X1FV8S5JYYHK9XDQXCW2GXB364VGW", "workerId": "MTK1049", "hitId": "36D1BWBEHN86S8X3NOLEOWODML5M2W", "currenttrial": 626, "bonus": 0, "data": [{"uniqueid": "MTK1049:3X1FV8S5JYYHK9XDQXCW2GXB364VGW", "current_trial": 0, "dateTime": 1513016967101, "trialdata": {"rt": 5122, "key_press": 75, "type": "INSTRUCTIONS", "trial_type": "text", "trial_index": 0, "time_elapsed": 5125, "internal_node_id": "0.0-0.0"}}, {"uniqueid": "MTK1049:3X1FV8S5JYYHK9XDQXCW2GXB364VGW", "current_trial": 1, "dateTime": 1513016982104, "trialdata": {"rt": 15002, "key_press": 32, "type": "INSTRUCTIONS", "trial_type": "text", "trial_index": 1, "time_elapsed": 20128, "internal_node_id": "0.0-1.0"}}, {"uniqueid": "MTK1049:3X1FV8S5JYYHK9XDQXCW2GXB364VGW", "current_trial": 2, "dateTime": 1513016991095, "trialdata": {"rt": [8921], "responses": ["ocean"], "type": "AUDIO_TEST", "trial_type": "audio-test", "trial_index": 2, "time_elapsed": 29120, "internal_node_id": "0.0-2.0"}}, {"uniqueid": "MTK1049:3X1FV8S5JYYHK9XDQXCW2GXB364VGW", "current_trial": 3, "dateTime": 1513016999615, "trialdata": {"rt": [8515], "responses": ["crystal"], "type": "AUDIO_TEST", "trial_type": "audio-test", "trial_index": 3, "time_elapsed": 37640, "internal_node_id": "0.0-3.0"}}, {"uniqueid": "MTK1049:3X1FV8S5JYYHK9XDQXCW2GXB364VGW", "current_trial": 4, "dateTime": 1513017004255, "trialdata": {"rt": [4635], "responses": ["spice"], "type": "AUDIO_TEST", "trial_type": "audio-test", "trial_index": 4, "time_elapsed": 42280, "internal_node_id": "0.0-4.0"}}, {"uniqueid": "MTK1049:3X1FV8S5JYYHK9XDQXCW2GXB364VGW", "current_trial": 5, "dateTime": 1513017040269, "trialdata": {"rt": 35262, "responses": "{\"Q0\":\"12am us eastern\",\"Q1\":\"7am us eastern\",\"Q2\":\"4\"}", "type": "SLEEP_SURVEY", "trial_type": "survey-text", "trial_index": 5, "time_elapsed": 78294, "internal_node_id": "0.0-5.0"}}, {"uniqueid": "MTK1049:3X1FV8S5JYYHK9XDQXCW2GXB364VGW", "current_trial": 6, "dateTime": 1513017105980, "trialdata": {"rt": 64710, "key_press": 68, "type": "INSTRUCTIONS", "trial_type": "text", "trial_index": 6, "time_elapsed": 144005, "internal_node_id": "0.0-6.0"}}, {"uniqueid": "MTK1049:3X1FV8S5JYYHK9XDQXCW2GXB364VGW", "current_trial": 7, "dateTime": 1513017119527, "trialdata": {"rt": 13046, "key_press": 68, "type": "INSTRUCTIONS", "trial_type": "text", "trial_index": 7, "time_elapsed": 157551, "internal_node_id": "0.0-7.0"}}, {"uniqueid": "MTK1049:3X1FV8S5JYYHK9XDQXCW2GXB364VGW", "current_trial": 8, "dateTime": 1513017138932, "trialdata": {"rt": 18904, "key_press": 68, "type": "INSTRUCTIONS", "trial_type": "text", "trial_index": 8, "time_elapsed": 176957, "internal_node_id": "0.0-8.0"}}, {"uniqueid": "MTK1049:3X1FV8S5JYYHK9XDQXCW2GXB364VGW", "current_trial": 9, "dateTime": 1513017157983, "trialdata": {"rt": [3275, 6151, 9334, 14883, 17773], "responses": ["16", "11", "9", "17", "15"], "num1": [4, 2, 1, 6, 9, 7], "num2": [4, 5, 2, 6, 5, 1], "num3": [8, 4, 6, 5, 1, 3], "type": "DISTRACTOR", "conditions": [18, 1200, "v", 18000], "trial": 0, "trial_type": "math-distractor", "trial_index": 9, "time_elapsed": 196008, "internal_node_id": "0.0-9.0"}}, {"uniqueid": "MTK1049:3X1FV8S5JYYHK9XDQXCW2GXB364VGW", "current_trial": 10, "dateTime": 1513017160986, "trialdata": {"rt": -1, "stimulus": "<p id=\"stim\">10</p>", "key_press": -1, "trial_type": "single-stim", "trial_index": 10, "time_elapsed": 199011, "internal_node_id": "0.0-10.0-0.0"}}, {"uniqueid": "MTK1049:3X1FV8S5JYYHK9XDQXCW2GXB364VGW", "current_trial": 11, "dateTime": 1513017161987, "trialdata": {"rt": -1, "stimulus": "<p id=\"stim\">9</p>", "key_press": -1, "trial_type": "single-stim", "trial_index": 11, "time_elapsed": 200011, "internal_node_id": "0.0-10.0-1.0"}}, {"uniqueid": "MTK1049:3X1FV8S5JYYHK9XDQXCW2GXB364VGW", "current_trial": 12, "dateTime": 1513017162987, "trialdata": {"rt": -1, "stimulus": "<p id=\"stim\">8</p>", "key_press": -1, "trial_type": "single-stim", "trial_index": 12, "time_elapsed": 201012, "internal_node_id": "0.0-10.0-2.0"}}, {"uniqueid": "MTK1049:3X1FV8S5JYYHK9XDQXCW2GXB364VGW", "current_trial": 13, "dateTime": 1513017163988, "trialdata": {"rt": -1, "stimulus": "<p id=\"stim\">7</p>", "key_press": -1, "trial_type": "single-stim", "trial_index": 13, "time_elapsed": 202013, "internal_node_id": "0.0-10.0-3.0"}}, {"uniqueid": "MTK1049:3X1FV8S5JYYHK9XDQXCW2GXB364VGW", "current_trial": 14, "dateTime": 1513017164990, "trialdata": {"rt": -1, "stimulus": "<p id=\"stim\">6</p>", "key_press": -1, "trial_type": "single-stim", "trial_index": 14, "time_elapsed": 203015, "internal_node_id": "0.0-10.0-4.0"}}, {"uniqueid": "MTK1049:3X1FV8S5JYYHK9XDQXCW2GXB364VGW", "current_trial": 15, "dateTime": 1513017165991, "trialdata": {"rt": -1, "stimulus": "<p id=\"stim\">5</p>", "key_press": -1, "trial_type": "single-stim", "trial_index": 15, "time_elapsed": 204016, "internal_node_id": "0.0-10.0-5.0"}}, {"uniqueid": "MTK1049:3X1FV8S5JYYHK9XDQXCW2GXB364VGW", "current_trial": 16, "dateTime": 1513017166994, "trialdata": {"rt": -1, "stimulus": "<p id=\"stim\">4</p>", "key_press": -1, "trial_type": "single-stim", "trial_index": 16, "time_elapsed": 205019, "internal_node_id": "0.0-10.0-6.0"}}, {"uniqueid": "MTK1049:3X1FV8S5JYYHK9XDQXCW2GXB364VGW", "current_trial": 17, "dateTime": 1513017167995, "trialdata": {"rt": -1, "stimulus": "<p id=\"stim\">3</p>", "key_press": -1, "trial_type": "single-stim", "trial_index": 17, "time_elapsed": 206020, "internal_node_id": "0.0-10.0-7.0"}}, {"uniqueid": "MTK1049:3X1FV8S5JYYHK9XDQXCW2GXB364VGW", "current_trial": 18, "dateTime": 1513017168995, "trialdata": {"rt": -1, "stimulus": "<p id=\"stim\">2</p>", "key_press": -1, "trial_type": "single-stim", "trial_index": 18, "time_elapsed": 207020, "internal_node_id": "0.0-10.0-8.0"}}, {"uniqueid": "MTK1049:3X1FV8S5JYYHK9XDQXCW2GXB364VGW", "current_trial": 19, "dateTime": 1513017169996, "trialdata": {"rt": -1, "stimulus": "<p id=\"stim\">1</p>", "key_press": -1, "trial_type": "single-stim", "trial_index": 19, "time_elapsed": 208021, "internal_node_id": "0.0-10.0-9.0"}}, {"uniqueid": "MTK1049:3X1FV8S5JYYHK9XDQXCW2GXB364VGW", "current_trial": 20, "dateTime": 1513017171497, "trialdata": {"rt": -1, "stimulus": "<p id=\"stim\">+</p>", "key_press": -1, "type": "FIXATION", "trial_type": "single-stim", "trial_index": 20, "time_elapsed": 209522, "internal_node_id": "0.0-11.0-0.0"}}, {"uniqueid": "MTK1049:3X1FV8S5JYYHK9XDQXCW2GXB364VGW", "current_trial": 21, "dateTime": 1513017172698, "trialdata": {"rt": -1, "stimulus": "<p id=\"stim\">RACKET</p>", "key_press": -1, "type": "PRES_VIS", "word": "racket", "wordID": 1154, "conditions": [18, 1200, "v", 18000], "trial": 0, "serialpos": 0, "trial_type": "single-stim", "trial_index": 21, "time_elapsed": 210723, "internal_node_id": "0.0-12.0"}}, {"uniqueid": "MTK1049:3X1FV8S5JYYHK9XDQXCW2GXB364VGW", "current_trial": 22, "dateTime": 1513017174758, "trialdata": {"rt": -1, "stimulus": "<p id=\"stim\">FIDDLE</p>", "key_press": -1, "type": "PRES_VIS", "word": "fiddle", "wordID": 560, "conditions": [18, 1200, "v", 18000], "trial": 0, "serialpos": 1, "trial_type": "single-stim", "trial_index": 22, "time_elapsed": 212783, "internal_node_id": "0.0-13.0"}}, {"uniqueid": "MTK1049:3X1FV8S5JYYHK9XDQXCW2GXB364VGW", "current_trial": 23, "dateTime": 1513017177105, "trialdata": {"rt": -1, "stimulus": "<p id=\"stim\">FRUIT</p>", "key_press": -1, "type": "PRES_VIS", "word": "fruit", "wordID": 609, "conditions": [18, 1200, "v", 18000], "trial": 0, "serialpos": 2, "trial_type": "single-stim", "trial_index": 23, "time_elapsed": 215130, "internal_node_id": "0.0-14.0"}}, {"uniqueid": "MTK1049:3X1FV8S5JYYHK9XDQXCW2GXB364VGW", "current_trial": 24, "dateTime": 1513017179407, "trialdata": {"rt": -1, "stimulus": "<p id=\"stim\">PARTNER</p>", "key_press": -1, "type": "PRES_VIS", "word": "partner", "wordID": 1016, "conditions": [18, 1200, "v", 18000], "trial": 0, "serialpos": 3, "trial_type": "single-stim", "trial_index": 24, "time_elapsed": 217431, "internal_node_id": "0.0-15.0"}}, {"uniqueid": "MTK1049:3X1FV8S5JYYHK9XDQXCW2GXB364VGW", "current_trial": 25, "dateTime": 1513017181800, "trialdata": {"rt": -1, "stimulus": "<p id=\"stim\">SUITCASE</p>", "key_press": -1, "type": "PRES_VIS", "word": "suitcase", "wordID": 1402, "conditions": [18, 1200, "v", 18000], "trial": 0, "serialpos": 4, "trial_type": "single-stim", "trial_index": 25, "time_elapsed": 219825, "internal_node_id": "0.0-16.0"}}, {"uniqueid": "MTK1049:3X1FV8S5JYYHK9XDQXCW2GXB364VGW", "current_trial": 26, "dateTime": 1513017183865, "trialdata": {"rt": -1, "stimulus": "<p id=\"stim\">CAFE</p>", "key_press": -1, "type": "PRES_VIS", "word": "cafe", "wordID": 215, "conditions": [18, 1200, "v", 18000], "trial": 0, "serialpos": 5, "trial_type": "single-stim", "trial_index": 26, "time_elapsed": 221890, "internal_node_id": "0.0-17.0"}}, {"uniqueid": "MTK1049:3X1FV8S5JYYHK9XDQXCW2GXB364VGW", "current_trial": 27, "dateTime": 1513017186259, "trialdata": {"rt": -1, "stimulus": "<p id=\"stim\">DRIVER</p>", "key_press": -1, "type": "PRES_VIS", "word": "driver", "wordID": 498, "conditions": [18, 1200, "v", 18000], "trial": 0, "serialpos": 6, "trial_type": "single-stim", "trial_index": 27, "time_elapsed": 224284, "internal_node_id": "0.0-18.0"}}, {"uniqueid": "MTK1049:3X1FV8S5JYYHK9XDQXCW2GXB364VGW", "current_trial": 28, "dateTime": 1513017188647, "trialdata": {"rt": -1, "stimulus": "<p id=\"stim\">SCULPTURE</p>", "key_press": -1, "type": "PRES_VIS", "word": "sculpture", "wordID": 1257, "conditions": [18, 1200, "v", 18000], "trial": 0, "serialpos": 7, "trial_type": "single-stim", "trial_index": 28, "time_elapsed": 226672, "internal_node_id": "0.0-19.0"}}, {"uniqueid": "MTK1049:3X1FV8S5JYYHK9XDQXCW2GXB364VGW", "current_trial": 29, "dateTime": 1513017190977, "trialdata": {"rt": -1, "stimulus": "<p id=\"stim\">WAITRESS</p>", "key_press": -1, "type": "PRES_VIS", "word": "waitress", "wordID": 1580, "conditions": [18, 1200, "v", 18000], "trial": 0, "serialpos": 8, "trial_type": "single-stim", "trial_index": 29, "time_elapsed": 229002, "internal_node_id": "0.0-20.0"}}, {"uniqueid": "MTK1049:3X1FV8S5JYYHK9XDQXCW2GXB364VGW", "current_trial": 30, "dateTime": 1513017193010, "trialdata": {"rt": -1, "stimulus": "<p id=\"stim\">CHAPEL</p>", "key_press": -1, "type": "PRES_VIS", "word": "chapel", "wordID": 279, "conditions": [18, 1200, "v", 18000], "trial": 0, "serialpos": 9, "trial_type": "single-stim", "trial_index": 30, "time_elapsed": 231035, "internal_node_id": "0.0-21.0"}}, {"uniqueid": "MTK1049:3X1FV8S5JYYHK9XDQXCW2GXB364VGW", "current_trial": 31, "dateTime": 1513017195334, "trialdata": {"rt": -1, "stimulus": "<p id=\"stim\">CARROT</p>", "key_press": -1, "type": "PRES_VIS", "word": "carrot", "wordID": 248, "conditions": [18, 1200, "v", 18000], "trial": 0, "serialpos": 10, "trial_type": "single-stim", "trial_index": 31, "time_elapsed": 233359, "internal_node_id": "0.0-22.0"}}, {"uniqueid": "MTK1049:3X1FV8S5JYYHK9XDQXCW2GXB364VGW", "current_trial": 32, "dateTime": 1513017197678, "trialdata": {"rt": -1, "stimulus": "<p id=\"stim\">PERMIT</p>", "key_press": -1, "type": "PRES_VIS", "word": "permit", "wordID": 1050, "conditions": [18, 1200, "v", 18000], "trial": 0, "serialpos": 11, "trial_type": "single-stim", "trial_index": 32, "time_elapsed": 235703, "internal_node_id": "0.0-23.0"}}, {"uniqueid": "MTK1049:3X1FV8S5JYYHK9XDQXCW2GXB364VGW", "current_trial": 33, "dateTime": 1513017199682, "trialdata": {"rt": -1, "stimulus": "<p id=\"stim\">GLASS</p>", "key_press": -1, "type": "PRES_VIS", "word": "glass", "wordID": 638, "conditions": [18, 1200, "v", 18000], "trial": 0, "serialpos": 12, "trial_type": "single-stim", "trial_index": 33, "time_elapsed": 237707, "internal_node_id": "0.0-24.0"}}, {"uniqueid": "MTK1049:3X1FV8S5JYYHK9XDQXCW2GXB364VGW", "current_trial": 34, "dateTime": 1513017201699, "trialdata": {"rt": -1, "stimulus": "<p id=\"stim\">BODY</p>", "key_press": -1, "type": "PRES_VIS", "word": "body", "wordID": 144, "conditions": [18, 1200, "v", 18000], "trial": 0, "serialpos": 13, "trial_type": "single-stim", "trial_index": 34, "time_elapsed": 239724, "internal_node_id": "0.0-25.0"}}, {"uniqueid": "MTK1049:3X1FV8S5JYYHK9XDQXCW2GXB364VGW", "current_trial": 35, "dateTime": 1513017203743, "trialdata": {"rt": -1, "stimulus": "<p id=\"stim\">DONKEY</p>", "key_press": -1, "type": "PRES_VIS", "word": "donkey", "wordID": 483, "conditions": [18, 1200, "v", 18000], "trial": 0, "serialpos": 14, "trial_type": "single-stim", "trial_index": 35, "time_elapsed": 241768, "internal_node_id": "0.0-26.0"}}, {"uniqueid": "MTK1049:3X1FV8S5JYYHK9XDQXCW2GXB364VGW", "current_trial": 36, "dateTime": 1513017206139, "trialdata": {"rt": -1, "stimulus": "<p id=\"stim\">SPARROW</p>", "key_press": -1, "type": "PRES_VIS", "word": "sparrow", "wordID": 1346, "conditions": [18, 1200, "v", 18000], "trial": 0, "serialpos": 15, "trial_type": "single-stim", "trial_index": 36, "time_elapsed": 244164, "internal_node_id": "0.0-27.0"}}, {"uniqueid": "MTK1049:3X1FV8S5JYYHK9XDQXCW2GXB364VGW", "current_trial": 37, "dateTime": 1513017208415, "trialdata": {"rt": -1, "stimulus": "<p id=\"stim\">PIGMENT</p>", "key_press": -1, "type": "PRES_VIS", "word": "pigment", "wordID": 1065, "conditions": [18, 1200, "v", 18000], "trial": 0, "serialpos": 16, "trial_type": "single-stim", "trial_index": 37, "time_elapsed": 246440, "internal_node_id": "0.0-28.0"}}, {"uniqueid": "MTK1049:3X1FV8S5JYYHK9XDQXCW2GXB364VGW", "current_trial": 38, "dateTime": 1513017210498, "trialdata": {"rt": -1, "stimulus": "<p id=\"stim\">SADDLE</p>", "key_press": -1, "type": "PRES_VIS", "word": "saddle", "wordID": 1220, "conditions": [18, 1200, "v", 18000], "trial": 0, "serialpos": 17, "trial_type": "single-stim", "trial_index": 38, "time_elapsed": 248522, "internal_node_id": "0.0-29.0"}}, {"uniqueid": "MTK1049:3X1FV8S5JYYHK9XDQXCW2GXB364VGW", "current_trial": 39, "dateTime": 1513017212924, "trialdata": {"rt": -1, "stimulus": "", "key_press": -1, "type": "PRE_RECALL_DELAY", "trial_type": "single-stim", "trial_index": 39, "time_elapsed": 250949, "internal_node_id": "0.0-30.0-0.0"}}, {"uniqueid": "MTK1049:3X1FV8S5JYYHK9XDQXCW2GXB364VGW", "current_trial": 40, "dateTime": 1513017213425, "trialdata": {"rt": -1000, "stimulus": "/static/audio/400Hz.wav", "key_press": -1, "type": "PRE_RECALL_ALERT", "trial_type": "single-audio", "trial_index": 40, "time_elapsed": 251450, "internal_node_id": "0.0-31.0"}}, {"uniqueid": "MTK1049:3X1FV8S5JYYHK9XDQXCW2GXB364VGW", "current_trial": 41, "dateTime": 1513017273430, "trialdata": {"rt": [2293, 4612, 8288, 15441, 24215, 28424, 53308], "recwords": ["saddle", "pigment", "sparrow", "donkey", "cafe", "waittress", "fiddle"], "type": "FREE_RECALL", "conditions": [18, 1200, "v", 18000], "trial": 0, "trial_type": "free-recall", "trial_index": 41, "time_elapsed": 311453, "internal_node_id": "0.0-32.0-0.0"}}, {"uniqueid": "MTK1049:3X1FV8S5JYYHK9XDQXCW2GXB364VGW", "current_trial": 42, "dateTime": 1513017276782, "trialdata": {"rt": 1350, "key_press": 32, "type": "INSTRUCTIONS", "trial_type": "text", "trial_index": 42, "time_elapsed": 314807, "internal_node_id": "0.0-33.0"}}, {"uniqueid": "MTK1049:3X1FV8S5JYYHK9XDQXCW2GXB364VGW", "current_trial": 43, "dateTime": 1513017296784, "trialdata": {"rt": [3297, 7365, 9694, 15992], "responses": ["10", "14", "9", "22"], "num1": [3, 4, 5, 7, 5], "num2": [4, 7, 3, 7, 8], "num3": [3, 3, 1, 8, 6], "type": "DISTRACTOR", "conditions": [18, 1200, "a", 18000], "trial": 1, "trial_type": "math-distractor", "trial_index": 43, "time_elapsed": 334809, "internal_node_id": "0.0-34.0"}}, {"uniqueid": "MTK1049:3X1FV8S5JYYHK9XDQXCW2GXB364VGW", "current_trial": 44, "dateTime": 1513017299786, "trialdata": {"rt": -1, "stimulus": "<p id=\"stim\">10</p>", "key_press": -1, "trial_type": "single-stim", "trial_index": 44, "time_elapsed": 337811, "internal_node_id": "0.0-35.0-0.0"}}, {"uniqueid": "MTK1049:3X1FV8S5JYYHK9XDQXCW2GXB364VGW", "current_trial": 45, "dateTime": 1513017300787, "trialdata": {"rt": -1, "stimulus": "<p id=\"stim\">9</p>", "key_press": -1, "trial_type": "single-stim", "trial_index": 45, "time_elapsed": 338812, "internal_node_id": "0.0-35.0-1.0"}}, {"uniqueid": "MTK1049:3X1FV8S5JYYHK9XDQXCW2GXB364VGW", "current_trial": 46, "dateTime": 1513017301788, "trialdata": {"rt": -1, "stimulus": "<p id=\"stim\">8</p>", "key_press": -1, "trial_type": "single-stim", "trial_index": 46, "time_elapsed": 339813, "internal_node_id": "0.0-35.0-2.0"}}, {"uniqueid": "MTK1049:3X1FV8S5JYYHK9XDQXCW2GXB364VGW", "current_trial": 47, "dateTime": 1513017302788, "trialdata": {"rt": -1, "stimulus": "<p id=\"stim\">7</p>", "key_press": -1, "trial_type": "single-stim", "trial_index": 47, "time_elapsed": 340813, "internal_node_id": "0.0-35.0-3.0"}}, {"uniqueid": "MTK1049:3X1FV8S5JYYHK9XDQXCW2GXB364VGW", "current_trial": 48, "dateTime": 1513017303789, "trialdata": {"rt": -1, "stimulus": "<p id=\"stim\">6</p>", "key_press": -1, "trial_type": "single-stim", "trial_index": 48, "time_elapsed": 341813, "internal_node_id": "0.0-35.0-4.0"}}, {"uniqueid": "MTK1049:3X1FV8S5JYYHK9XDQXCW2GXB364VGW", "current_trial": 49, "dateTime": 1513017304789, "trialdata": {"rt": -1, "stimulus": "<p id=\"stim\">5</p>", "key_press": -1, "trial_type": "single-stim", "trial_index": 49, "time_elapsed": 342814, "internal_node_id": "0.0-35.0-5.0"}}, {"uniqueid": "MTK1049:3X1FV8S5JYYHK9XDQXCW2GXB364VGW", "current_trial": 50, "dateTime": 1513017305789, "trialdata": {"rt": -1, "stimulus": "<p id=\"stim\">4</p>", "key_press": -1, "trial_type": "single-stim", "trial_index": 50, "time_elapsed": 343814, "internal_node_id": "0.0-35.0-6.0"}}, {"uniqueid": "MTK1049:3X1FV8S5JYYHK9XDQXCW2GXB364VGW", "current_trial": 51, "dateTime": 1513017306790, "trialdata": {"rt": -1, "stimulus": "<p id=\"stim\">3</p>", "key_press": -1, "trial_type": "single-stim", "trial_index": 51, "time_elapsed": 344815, "internal_node_id": "0.0-35.0-7.0"}}, {"uniqueid": "MTK1049:3X1FV8S5JYYHK9XDQXCW2GXB364VGW", "current_trial": 52, "dateTime": 1513017307791, "trialdata": {"rt": -1, "stimulus": "<p id=\"stim\">2</p>", "key_press": -1, "trial_type": "single-stim", "trial_index": 52, "time_elapsed": 345816, "internal_node_id": "0.0-35.0-8.0"}}, {"uniqueid": "MTK1049:3X1FV8S5JYYHK9XDQXCW2GXB364VGW", "current_trial": 53, "dateTime": 1513017308791, "trialdata": {"rt": -1, "stimulus": "<p id=\"stim\">1</p>", "key_press": -1, "trial_type": "single-stim", "trial_index": 53, "time_elapsed": 346816, "internal_node_id": "0.0-35.0-9.0"}}, {"uniqueid": "MTK1049:3X1FV8S5JYYHK9XDQXCW2GXB364VGW", "current_trial": 54, "dateTime": 1513017310291, "trialdata": {"rt": -1, "stimulus": "<p id=\"stim\">+</p>", "key_press": -1, "type": "FIXATION", "trial_type": "single-stim", "trial_index": 54, "time_elapsed": 348316, "internal_node_id": "0.0-36.0-0.0"}}, {"uniqueid": "MTK1049:3X1FV8S5JYYHK9XDQXCW2GXB364VGW", "current_trial": 55, "dateTime": 1513017312378, "trialdata": {"rt": -1000, "stimulus": "/static/audio/wordpool/SLUG.wav", "key_press": -1, "type": "PRES_AUD", "word": "slug", "wordID": 1328, "conditions": [18, 1200, "a", 18000], "trial": 1, "serialpos": 0, "trial_type": "single-audio", "trial_index": 55, "time_elapsed": 350403, "internal_node_id": "0.0-37.0"}}, {"uniqueid": "MTK1049:3X1FV8S5JYYHK9XDQXCW2GXB364VGW", "current_trial": 56, "dateTime": 1513017314389, "trialdata": {"rt": -1000, "stimulus": "/static/audio/wordpool/JURY.wav", "key_press": -1, "type": "PRES_AUD", "word": "jury", "wordID": 765, "conditions": [18, 1200, "a", 18000], "trial": 1, "serialpos": 1, "trial_type": "single-audio", "trial_index": 56, "time_elapsed": 352414, "internal_node_id": "0.0-38.0"}}, {"uniqueid": "MTK1049:3X1FV8S5JYYHK9XDQXCW2GXB364VGW", "current_trial": 57, "dateTime": 1513017316713, "trialdata": {"rt": -1000, "stimulus": "/static/audio/wordpool/CURTAIN.wav", "key_press": -1, "type": "PRES_AUD", "word": "curtain", "wordID": 426, "conditions": [18, 1200, "a", 18000], "trial": 1, "serialpos": 2, "trial_type": "single-audio", "trial_index": 57, "time_elapsed": 354738, "internal_node_id": "0.0-39.0"}}, {"uniqueid": "MTK1049:3X1FV8S5JYYHK9XDQXCW2GXB364VGW", "current_trial": 58, "dateTime": 1513017318820, "trialdata": {"rt": -1000, "stimulus": "/static/audio/wordpool/TRENCH.wav", "key_press": -1, "type": "PRES_AUD", "word": "trench", "wordID": 1502, "conditions": [18, 1200, "a", 18000], "trial": 1, "serialpos": 3, "trial_type": "single-audio", "trial_index": 58, "time_elapsed": 356845, "internal_node_id": "0.0-40.0"}}, {"uniqueid": "MTK1049:3X1FV8S5JYYHK9XDQXCW2GXB364VGW", "current_trial": 59, "dateTime": 1513017321124, "trialdata": {"rt": -1000, "stimulus": "/static/audio/wordpool/SCARECROW.wav", "key_press": -1, "type": "PRES_AUD", "word": "scarecrow", "wordID": 1244, "conditions": [18, 1200, "a", 18000], "trial": 1, "serialpos": 4, "trial_type": "single-audio", "trial_index": 59, "time_elapsed": 359149, "internal_node_id": "0.0-41.0"}}, {"uniqueid": "MTK1049:3X1FV8S5JYYHK9XDQXCW2GXB364VGW", "current_trial": 60, "dateTime": 1513017323389, "trialdata": {"rt": -1000, "stimulus": "/static/audio/wordpool/NOMAD.wav", "key_press": -1, "type": "PRES_AUD", "word": "nomad", "wordID": 954, "conditions": [18, 1200, "a", 18000], "trial": 1, "serialpos": 5, "trial_type": "single-audio", "trial_index": 60, "time_elapsed": 361414, "internal_node_id": "0.0-42.0"}}, {"uniqueid": "MTK1049:3X1FV8S5JYYHK9XDQXCW2GXB364VGW", "current_trial": 61, "dateTime": 1513017325546, "trialdata": {"rt": -1000, "stimulus": "/static/audio/wordpool/THIEF.wav", "key_press": -1, "type": "PRES_AUD", "word": "thief", "wordID": 1455, "conditions": [18, 1200, "a", 18000], "trial": 1, "serialpos": 6, "trial_type": "single-audio", "trial_index": 61, "time_elapsed": 363571, "internal_node_id": "0.0-43.0"}}, {"uniqueid": "MTK1049:3X1FV8S5JYYHK9XDQXCW2GXB364VGW", "current_trial": 62, "dateTime": 1513017327902, "trialdata": {"rt": -1000, "stimulus": "/static/audio/wordpool/PIGEON.wav", "key_press": -1, "type": "PRES_AUD", "word": "pigeon", "wordID": 1064, "conditions": [18, 1200, "a", 18000], "trial": 1, "serialpos": 7, "trial_type": "single-audio", "trial_index": 62, "time_elapsed": 365927, "internal_node_id": "0.0-44.0"}}, {"uniqueid": "MTK1049:3X1FV8S5JYYHK9XDQXCW2GXB364VGW", "current_trial": 63, "dateTime": 1513017330285, "trialdata": {"rt": -1000, "stimulus": "/static/audio/wordpool/MILK.wav", "key_press": -1, "type": "PRES_AUD", "word": "milk", "wordID": 894, "conditions": [18, 1200, "a", 18000], "trial": 1, "serialpos": 8, "trial_type": "single-audio", "trial_index": 63, "time_elapsed": 368310, "internal_node_id": "0.0-45.0"}}, {"uniqueid": "MTK1049:3X1FV8S5JYYHK9XDQXCW2GXB364VGW", "current_trial": 64, "dateTime": 1513017332563, "trialdata": {"rt": -1000, "stimulus": "/static/audio/wordpool/COCOON.wav", "key_press": -1, "type": "PRES_AUD", "word": "cocoon", "wordID": 338, "conditions": [18, 1200, "a", 18000], "trial": 1, "serialpos": 9, "trial_type": "single-audio", "trial_index": 64, "time_elapsed": 370588, "internal_node_id": "0.0-46.0"}}, {"uniqueid": "MTK1049:3X1FV8S5JYYHK9XDQXCW2GXB364VGW", "current_trial": 65, "dateTime": 1513017334836, "trialdata": {"rt": -1000, "stimulus": "/static/audio/wordpool/MONSTER.wav", "key_press": -1, "type": "PRES_AUD", "word": "monster", "wordID": 911, "conditions": [18, 1200, "a", 18000], "trial": 1, "serialpos": 10, "trial_type": "single-audio", "trial_index": 65, "time_elapsed": 372861, "internal_node_id": "0.0-47.0"}}, {"uniqueid": "MTK1049:3X1FV8S5JYYHK9XDQXCW2GXB364VGW", "current_trial": 66, "dateTime": 1513017337152, "trialdata": {"rt": -1000, "stimulus": "/static/audio/wordpool/COUNTRY.wav", "key_press": -1, "type": "PRES_AUD", "word": "country", "wordID": 387, "conditions": [18, 1200, "a", 18000], "trial": 1, "serialpos": 11, "trial_type": "single-audio", "trial_index": 66, "time_elapsed": 375177, "internal_node_id": "0.0-48.0"}}, {"uniqueid": "MTK1049:3X1FV8S5JYYHK9XDQXCW2GXB364VGW", "current_trial": 67, "dateTime": 1513017339268, "trialdata": {"rt": -1000, "stimulus": "/static/audio/wordpool/DIME.wav", "key_press": -1, "type": "PRES_AUD", "word": "dime", "wordID": 465, "conditions": [18, 1200, "a", 18000], "trial": 1, "serialpos": 12, "trial_type": "single-audio", "trial_index": 67, "time_elapsed": 377293, "internal_node_id": "0.0-49.0"}}, {"uniqueid": "MTK1049:3X1FV8S5JYYHK9XDQXCW2GXB364VGW", "current_trial": 68, "dateTime": 1513017341569, "trialdata": {"rt": -1000, "stimulus": "/static/audio/wordpool/LAGOON.wav", "key_press": -1, "type": "PRES_AUD", "word": "lagoon", "wordID": 794, "conditions": [18, 1200, "a", 18000], "trial": 1, "serialpos": 13, "trial_type": "single-audio", "trial_index": 68, "time_elapsed": 379592, "internal_node_id": "0.0-50.0"}}, {"uniqueid": "MTK1049:3X1FV8S5JYYHK9XDQXCW2GXB364VGW", "current_trial": 69, "dateTime": 1513017343692, "trialdata": {"rt": -1000, "stimulus": "/static/audio/wordpool/GIRL.wav", "key_press": -1, "type": "PRES_AUD", "word": "girl", "wordID": 636, "conditions": [18, 1200, "a", 18000], "trial": 1, "serialpos": 14, "trial_type": "single-audio", "trial_index": 69, "time_elapsed": 381717, "internal_node_id": "0.0-51.0"}}, {"uniqueid": "MTK1049:3X1FV8S5JYYHK9XDQXCW2GXB364VGW", "current_trial": 70, "dateTime": 1513017345924, "trialdata": {"rt": -1000, "stimulus": "/static/audio/wordpool/CHAUFFEUR.wav", "key_press": -1, "type": "PRES_AUD", "word": "chauffeur", "wordID": 282, "conditions": [18, 1200, "a", 18000], "trial": 1, "serialpos": 15, "trial_type": "single-audio", "trial_index": 70, "time_elapsed": 383949, "internal_node_id": "0.0-52.0"}}, {"uniqueid": "MTK1049:3X1FV8S5JYYHK9XDQXCW2GXB364VGW", "current_trial": 71, "dateTime": 1513017348203, "trialdata": {"rt": -1000, "stimulus": "/static/audio/wordpool/RELISH.wav", "key_press": -1, "type": "PRES_AUD", "word": "relish", "wordID": 1182, "conditions": [18, 1200, "a", 18000], "trial": 1, "serialpos": 16, "trial_type": "single-audio", "trial_index": 71, "time_elapsed": 386228, "internal_node_id": "0.0-53.0"}}, {"uniqueid": "MTK1049:3X1FV8S5JYYHK9XDQXCW2GXB364VGW", "current_trial": 72, "dateTime": 1513017350253, "trialdata": {"rt": -1000, "stimulus": "/static/audio/wordpool/BATHTUB.wav", "key_press": -1, "type": "PRES_AUD", "word": "bathtub", "wordID": 99, "conditions": [18, 1200, "a", 18000], "trial": 1, "serialpos": 17, "trial_type": "single-audio", "trial_index": 72, "time_elapsed": 388278, "internal_node_id": "0.0-54.0"}}, {"uniqueid": "MTK1049:3X1FV8S5JYYHK9XDQXCW2GXB364VGW", "current_trial": 73, "dateTime": 1513017351513, "trialdata": {"rt": -1, "stimulus": "", "key_press": -1, "type": "PRE_RECALL_DELAY", "trial_type": "single-stim", "trial_index": 73, "time_elapsed": 389538, "internal_node_id": "0.0-55.0-0.0"}}, {"uniqueid": "MTK1049:3X1FV8S5JYYHK9XDQXCW2GXB364VGW", "current_trial": 74, "dateTime": 1513017352014, "trialdata": {"rt": -1000, "stimulus": "/static/audio/400Hz.wav", "key_press": -1, "type": "PRE_RECALL_ALERT", "trial_type": "single-audio", "trial_index": 74, "time_elapsed": 390039, "internal_node_id": "0.0-56.0"}}, {"uniqueid": "MTK1049:3X1FV8S5JYYHK9XDQXCW2GXB364VGW", "current_trial": 75, "dateTime": 1513017412018, "trialdata": {"rt": [3010, 4923, 6243, 7883, 10392, 12085, 19719, 23405], "recwords": ["bathtub", "relish", "girl", "nomad", "chaffeur", "time", "lagoon", "slug"], "type": "FREE_RECALL", "conditions": [18, 1200, "a", 18000], "trial": 1, "trial_type": "free-recall", "trial_index": 75, "time_elapsed": 450040, "internal_node_id": "0.0-57.0-0.0"}}, {"uniqueid": "MTK1049:3X1FV8S5JYYHK9XDQXCW2GXB364VGW", "current_trial": 76, "dateTime": 1513017416883, "trialdata": {"rt": 2858, "key_press": 13, "type": "INSTRUCTIONS", "trial_type": "text", "trial_index": 76, "time_elapsed": 454901, "internal_node_id": "0.0-58.0"}}, {"uniqueid": "MTK1049:3X1FV8S5JYYHK9XDQXCW2GXB364VGW", "current_trial": 77, "dateTime": 1513017429887, "trialdata": {"rt": [3978, 6194, 9709], "responses": ["10", "10", "18"], "num1": [4, 4, 7, 7], "num2": [2, 1, 5, 3], "num3": [4, 5, 6, 3], "type": "DISTRACTOR", "conditions": [12, 800, "a", 12000], "trial": 2, "trial_type": "math-distractor", "trial_index": 77, "time_elapsed": 467912, "internal_node_id": "0.0-59.0"}}, {"uniqueid": "MTK1049:3X1FV8S5JYYHK9XDQXCW2GXB364VGW", "current_trial": 78, "dateTime": 1513017432888, "trialdata": {"rt": -1, "stimulus": "<p id=\"stim\">10</p>", "key_press": -1, "trial_type": "single-stim", "trial_index": 78, "time_elapsed": 470913, "internal_node_id": "0.0-60.0-0.0"}}, {"uniqueid": "MTK1049:3X1FV8S5JYYHK9XDQXCW2GXB364VGW", "current_trial": 79, "dateTime": 1513017433888, "trialdata": {"rt": -1, "stimulus": "<p id=\"stim\">9</p>", "key_press": -1, "trial_type": "single-stim", "trial_index": 79, "time_elapsed": 471913, "internal_node_id": "0.0-60.0-1.0"}}, {"uniqueid": "MTK1049:3X1FV8S5JYYHK9XDQXCW2GXB364VGW", "current_trial": 80, "dateTime": 1513017434891, "trialdata": {"rt": -1, "stimulus": "<p id=\"stim\">8</p>", "key_press": -1, "trial_type": "single-stim", "trial_index": 80, "time_elapsed": 472916, "internal_node_id": "0.0-60.0-2.0"}}, {"uniqueid": "MTK1049:3X1FV8S5JYYHK9XDQXCW2GXB364VGW", "current_trial": 81, "dateTime": 1513017435891, "trialdata": {"rt": -1, "stimulus": "<p id=\"stim\">7</p>", "key_press": -1, "trial_type": "single-stim", "trial_index": 81, "time_elapsed": 473916, "internal_node_id": "0.0-60.0-3.0"}}, {"uniqueid": "MTK1049:3X1FV8S5JYYHK9XDQXCW2GXB364VGW", "current_trial": 82, "dateTime": 1513017436893, "trialdata": {"rt": -1, "stimulus": "<p id=\"stim\">6</p>", "key_press": -1, "trial_type": "single-stim", "trial_index": 82, "time_elapsed": 474918, "internal_node_id": "0.0-60.0-4.0"}}, {"uniqueid": "MTK1049:3X1FV8S5JYYHK9XDQXCW2GXB364VGW", "current_trial": 83, "dateTime": 1513017437895, "trialdata": {"rt": -1, "stimulus": "<p id=\"stim\">5</p>", "key_press": -1, "trial_type": "single-stim", "trial_index": 83, "time_elapsed": 475920, "internal_node_id": "0.0-60.0-5.0"}}, {"uniqueid": "MTK1049:3X1FV8S5JYYHK9XDQXCW2GXB364VGW", "current_trial": 84, "dateTime": 1513017438895, "trialdata": {"rt": -1, "stimulus": "<p id=\"stim\">4</p>", "key_press": -1, "trial_type": "single-stim", "trial_index": 84, "time_elapsed": 476920, "internal_node_id": "0.0-60.0-6.0"}}, {"uniqueid": "MTK1049:3X1FV8S5JYYHK9XDQXCW2GXB364VGW", "current_trial": 85, "dateTime": 1513017439895, "trialdata": {"rt": -1, "stimulus": "<p id=\"stim\">3</p>", "key_press": -1, "trial_type": "single-stim", "trial_index": 85, "time_elapsed": 477920, "internal_node_id": "0.0-60.0-7.0"}}, {"uniqueid": "MTK1049:3X1FV8S5JYYHK9XDQXCW2GXB364VGW", "current_trial": 86, "dateTime": 1513017440895, "trialdata": {"rt": -1, "stimulus": "<p id=\"stim\">2</p>", "key_press": -1, "trial_type": "single-stim", "trial_index": 86, "time_elapsed": 478920, "internal_node_id": "0.0-60.0-8.0"}}, {"uniqueid": "MTK1049:3X1FV8S5JYYHK9XDQXCW2GXB364VGW", "current_trial": 87, "dateTime": 1513017441895, "trialdata": {"rt": -1, "stimulus": "<p id=\"stim\">1</p>", "key_press": -1, "trial_type": "single-stim", "trial_index": 87, "time_elapsed": 479920, "internal_node_id": "0.0-60.0-9.0"}}, {"uniqueid": "MTK1049:3X1FV8S5JYYHK9XDQXCW2GXB364VGW", "current_trial": 88, "dateTime": 1513017443395, "trialdata": {"rt": -1, "stimulus": "<p id=\"stim\">+</p>", "key_press": -1, "type": "FIXATION", "trial_type": "single-stim", "trial_index": 88, "time_elapsed": 481420, "internal_node_id": "0.0-61.0-0.0"}}, {"uniqueid": "MTK1049:3X1FV8S5JYYHK9XDQXCW2GXB364VGW", "current_trial": 89, "dateTime": 1513017445241, "trialdata": {"rt": -1000, "stimulus": "/static/audio/wordpool/DIVER.wav", "key_press": -1, "type": "PRES_AUD", "word": "diver", "wordID": 475, "conditions": [12, 800, "a", 12000], "trial": 2, "serialpos": 0, "trial_type": "single-audio", "trial_index": 89, "time_elapsed": 483266, "internal_node_id": "0.0-62.0"}}, {"uniqueid": "MTK1049:3X1FV8S5JYYHK9XDQXCW2GXB364VGW", "current_trial": 90, "dateTime": 1513017447209, "trialdata": {"rt": -1000, "stimulus": "/static/audio/wordpool/SIDEWALK.wav", "key_press": -1, "type": "PRES_AUD", "word": "sidewalk", "wordID": 1302, "conditions": [12, 800, "a", 12000], "trial": 2, "serialpos": 1, "trial_type": "single-audio", "trial_index": 90, "time_elapsed": 485234, "internal_node_id": "0.0-63.0"}}, {"uniqueid": "MTK1049:3X1FV8S5JYYHK9XDQXCW2GXB364VGW", "current_trial": 91, "dateTime": 1513017449091, "trialdata": {"rt": -1000, "stimulus": "/static/audio/wordpool/NAPKIN.wav", "key_press": -1, "type": "PRES_AUD", "word": "napkin", "wordID": 936, "conditions": [12, 800, "a", 12000], "trial": 2, "serialpos": 2, "trial_type": "single-audio", "trial_index": 91, "time_elapsed": 487116, "internal_node_id": "0.0-64.0"}}, {"uniqueid": "MTK1049:3X1FV8S5JYYHK9XDQXCW2GXB364VGW", "current_trial": 92, "dateTime": 1513017450883, "trialdata": {"rt": -1000, "stimulus": "/static/audio/wordpool/CASKET.wav", "key_press": -1, "type": "PRES_AUD", "word": "casket", "wordID": 254, "conditions": [12, 800, "a", 12000], "trial": 2, "serialpos": 3, "trial_type": "single-audio", "trial_index": 92, "time_elapsed": 488908, "internal_node_id": "0.0-65.0"}}, {"uniqueid": "MTK1049:3X1FV8S5JYYHK9XDQXCW2GXB364VGW", "current_trial": 93, "dateTime": 1513017452704, "trialdata": {"rt": -1000, "stimulus": "/static/audio/wordpool/ATLAS.wav", "key_press": -1, "type": "PRES_AUD", "word": "atlas", "wordID": 52, "conditions": [12, 800, "a", 12000], "trial": 2, "serialpos": 4, "trial_type": "single-audio", "trial_index": 93, "time_elapsed": 490729, "internal_node_id": "0.0-66.0"}}, {"uniqueid": "MTK1049:3X1FV8S5JYYHK9XDQXCW2GXB364VGW", "current_trial": 94, "dateTime": 1513017454628, "trialdata": {"rt": -1000, "stimulus": "/static/audio/wordpool/DINER.wav", "key_press": -1, "type": "PRES_AUD", "word": "diner", "wordID": 466, "conditions": [12, 800, "a", 12000], "trial": 2, "serialpos": 5, "trial_type": "single-audio", "trial_index": 94, "time_elapsed": 492653, "internal_node_id": "0.0-67.0"}}, {"uniqueid": "MTK1049:3X1FV8S5JYYHK9XDQXCW2GXB364VGW", "current_trial": 95, "dateTime": 1513017456402, "trialdata": {"rt": -1000, "stimulus": "/static/audio/wordpool/BUREAU.wav", "key_press": -1, "type": "PRES_AUD", "word": "bureau", "wordID": 198, "conditions": [12, 800, "a", 12000], "trial": 2, "serialpos": 6, "trial_type": "single-audio", "trial_index": 95, "time_elapsed": 494427, "internal_node_id": "0.0-68.0"}}, {"uniqueid": "MTK1049:3X1FV8S5JYYHK9XDQXCW2GXB364VGW", "current_trial": 96, "dateTime": 1513017458101, "trialdata": {"rt": -1000, "stimulus": "/static/audio/wordpool/VELVET.wav", "key_press": -1, "type": "PRES_AUD", "word": "velvet", "wordID": 1554, "conditions": [12, 800, "a", 12000], "trial": 2, "serialpos": 7, "trial_type": "single-audio", "trial_index": 96, "time_elapsed": 496126, "internal_node_id": "0.0-69.0"}}, {"uniqueid": "MTK1049:3X1FV8S5JYYHK9XDQXCW2GXB364VGW", "current_trial": 97, "dateTime": 1513017459838, "trialdata": {"rt": -1000, "stimulus": "/static/audio/wordpool/LOFT.wav", "key_press": -1, "type": "PRES_AUD", "word": "loft", "wordID": 839, "conditions": [12, 800, "a", 12000], "trial": 2, "serialpos": 8, "trial_type": "single-audio", "trial_index": 97, "time_elapsed": 497863, "internal_node_id": "0.0-70.0"}}, {"uniqueid": "MTK1049:3X1FV8S5JYYHK9XDQXCW2GXB364VGW", "current_trial": 98, "dateTime": 1513017461460, "trialdata": {"rt": -1000, "stimulus": "/static/audio/wordpool/WASP.wav", "key_press": -1, "type": "PRES_AUD", "word": "wasp", "wordID": 1592, "conditions": [12, 800, "a", 12000], "trial": 2, "serialpos": 9, "trial_type": "single-audio", "trial_index": 98, "time_elapsed": 499485, "internal_node_id": "0.0-71.0"}}, {"uniqueid": "MTK1049:3X1FV8S5JYYHK9XDQXCW2GXB364VGW", "current_trial": 99, "dateTime": 1513017463243, "trialdata": {"rt": -1000, "stimulus": "/static/audio/wordpool/HORNET.wav", "key_press": -1, "type": "PRES_AUD", "word": "hornet", "wordID": 717, "conditions": [12, 800, "a", 12000], "trial": 2, "serialpos": 10, "trial_type": "single-audio", "trial_index": 99, "time_elapsed": 501268, "internal_node_id": "0.0-72.0"}}, {"uniqueid": "MTK1049:3X1FV8S5JYYHK9XDQXCW2GXB364VGW", "current_trial": 100, "dateTime": 1513017464959, "trialdata": {"rt": -1000, "stimulus": "/static/audio/wordpool/LACE.wav", "key_press": -1, "type": "PRES_AUD", "word": "lace", "wordID": 791, "conditions": [12, 800, "a", 12000], "trial": 2, "serialpos": 11, "trial_type": "single-audio", "trial_index": 100, "time_elapsed": 502984, "internal_node_id": "0.0-73.0"}}, {"uniqueid": "MTK1049:3X1FV8S5JYYHK9XDQXCW2GXB364VGW", "current_trial": 101, "dateTime": 1513017466317, "trialdata": {"rt": -1, "stimulus": "", "key_press": -1, "type": "PRE_RECALL_DELAY", "trial_type": "single-stim", "trial_index": 101, "time_elapsed": 504342, "internal_node_id": "0.0-74.0-0.0"}}, {"uniqueid": "MTK1049:3X1FV8S5JYYHK9XDQXCW2GXB364VGW", "current_trial": 102, "dateTime": 1513017466818, "trialdata": {"rt": -1000, "stimulus": "/static/audio/400Hz.wav", "key_press": -1, "type": "PRE_RECALL_ALERT", "trial_type": "single-audio", "trial_index": 102, "time_elapsed": 504843, "internal_node_id": "0.0-75.0"}}, {"uniqueid": "MTK1049:3X1FV8S5JYYHK9XDQXCW2GXB364VGW", "current_trial": 103, "dateTime": 1513017526823, "trialdata": {"rt": [1717, 2694, 4637, 10175, 25932, 27780, 33437, 38338], "recwords": ["lace", "wasp", "hornet", "bureau", "napkin", "casket", "sidewalk", "diver"], "type": "FREE_RECALL", "conditions": [12, 800, "a", 12000], "trial": 2, "trial_type": "free-recall", "trial_index": 103, "time_elapsed": 564846, "internal_node_id": "0.0-76.0-0.0"}}, {"uniqueid": "MTK1049:3X1FV8S5JYYHK9XDQXCW2GXB364VGW", "current_trial": 104, "dateTime": 1513017530469, "trialdata": {"rt": 1646, "key_press": 32, "type": "INSTRUCTIONS", "trial_type": "text", "trial_index": 104, "time_elapsed": 568494, "internal_node_id": "0.0-77.0"}}, {"uniqueid": "MTK1049:3X1FV8S5JYYHK9XDQXCW2GXB364VGW", "current_trial": 105, "dateTime": 1513017544470, "trialdata": {"rt": [2906, 5592, 9332, 11398], "responses": ["16", "17", "13", "10"], "num1": [6, 3, 2, 3, 9], "num2": [5, 7, 5, 6, 6], "num3": [4, 7, 6, 1, 9], "type": "DISTRACTOR", "conditions": [24, 1600, "a", 12000], "trial": 3, "trial_type": "math-distractor", "trial_index": 105, "time_elapsed": 582495, "internal_node_id": "0.0-78.0"}}, {"uniqueid": "MTK1049:3X1FV8S5JYYHK9XDQXCW2GXB364VGW", "current_trial": 106, "dateTime": 1513017547471, "trialdata": {"rt": -1, "stimulus": "<p id=\"stim\">10</p>", "key_press": -1, "trial_type": "single-stim", "trial_index": 106, "time_elapsed": 585496, "internal_node_id": "0.0-79.0-0.0"}}, {"uniqueid": "MTK1049:3X1FV8S5JYYHK9XDQXCW2GXB364VGW", "current_trial": 107, "dateTime": 1513017548471, "trialdata": {"rt": -1, "stimulus": "<p id=\"stim\">9</p>", "key_press": -1, "trial_type": "single-stim", "trial_index": 107, "time_elapsed": 586496, "internal_node_id": "0.0-79.0-1.0"}}, {"uniqueid": "MTK1049:3X1FV8S5JYYHK9XDQXCW2GXB364VGW", "current_trial": 108, "dateTime": 1513017549472, "trialdata": {"rt": -1, "stimulus": "<p id=\"stim\">8</p>", "key_press": -1, "trial_type": "single-stim", "trial_index": 108, "time_elapsed": 587497, "internal_node_id": "0.0-79.0-2.0"}}, {"uniqueid": "MTK1049:3X1FV8S5JYYHK9XDQXCW2GXB364VGW", "current_trial": 109, "dateTime": 1513017550474, "trialdata": {"rt": -1, "stimulus": "<p id=\"stim\">7</p>", "key_press": -1, "trial_type": "single-stim", "trial_index": 109, "time_elapsed": 588499, "internal_node_id": "0.0-79.0-3.0"}}, {"uniqueid": "MTK1049:3X1FV8S5JYYHK9XDQXCW2GXB364VGW", "current_trial": 110, "dateTime": 1513017551475, "trialdata": {"rt": -1, "stimulus": "<p id=\"stim\">6</p>", "key_press": -1, "trial_type": "single-stim", "trial_index": 110, "time_elapsed": 589500, "internal_node_id": "0.0-79.0-4.0"}}, {"uniqueid": "MTK1049:3X1FV8S5JYYHK9XDQXCW2GXB364VGW", "current_trial": 111, "dateTime": 1513017552476, "trialdata": {"rt": -1, "stimulus": "<p id=\"stim\">5</p>", "key_press": -1, "trial_type": "single-stim", "trial_index": 111, "time_elapsed": 590501, "internal_node_id": "0.0-79.0-5.0"}}, {"uniqueid": "MTK1049:3X1FV8S5JYYHK9XDQXCW2GXB364VGW", "current_trial": 112, "dateTime": 1513017553477, "trialdata": {"rt": -1, "stimulus": "<p id=\"stim\">4</p>", "key_press": -1, "trial_type": "single-stim", "trial_index": 112, "time_elapsed": 591502, "internal_node_id": "0.0-79.0-6.0"}}, {"uniqueid": "MTK1049:3X1FV8S5JYYHK9XDQXCW2GXB364VGW", "current_trial": 113, "dateTime": 1513017554478, "trialdata": {"rt": -1, "stimulus": "<p id=\"stim\">3</p>", "key_press": -1, "trial_type": "single-stim", "trial_index": 113, "time_elapsed": 592503, "internal_node_id": "0.0-79.0-7.0"}}, {"uniqueid": "MTK1049:3X1FV8S5JYYHK9XDQXCW2GXB364VGW", "current_trial": 114, "dateTime": 1513017555479, "trialdata": {"rt": -1, "stimulus": "<p id=\"stim\">2</p>", "key_press": -1, "trial_type": "single-stim", "trial_index": 114, "time_elapsed": 593504, "internal_node_id": "0.0-79.0-8.0"}}, {"uniqueid": "MTK1049:3X1FV8S5JYYHK9XDQXCW2GXB364VGW", "current_trial": 115, "dateTime": 1513017556481, "trialdata": {"rt": -1, "stimulus": "<p id=\"stim\">1</p>", "key_press": -1, "trial_type": "single-stim", "trial_index": 115, "time_elapsed": 594506, "internal_node_id": "0.0-79.0-9.0"}}, {"uniqueid": "MTK1049:3X1FV8S5JYYHK9XDQXCW2GXB364VGW", "current_trial": 116, "dateTime": 1513017557982, "trialdata": {"rt": -1, "stimulus": "<p id=\"stim\">+</p>", "key_press": -1, "type": "FIXATION", "trial_type": "single-stim", "trial_index": 116, "time_elapsed": 596007, "internal_node_id": "0.0-80.0-0.0"}}, {"uniqueid": "MTK1049:3X1FV8S5JYYHK9XDQXCW2GXB364VGW", "current_trial": 117, "dateTime": 1513017560533, "trialdata": {"rt": -1000, "stimulus": "/static/audio/wordpool/PASTA.wav", "key_press": -1, "type": "PRES_AUD", "word": "pasta", "wordID": 1020, "conditions": [24, 1600, "a", 12000], "trial": 3, "serialpos": 0, "trial_type": "single-audio", "trial_index": 117, "time_elapsed": 598558, "internal_node_id": "0.0-81.0"}}, {"uniqueid": "MTK1049:3X1FV8S5JYYHK9XDQXCW2GXB364VGW", "current_trial": 118, "dateTime": 1513017563214, "trialdata": {"rt": -1000, "stimulus": "/static/audio/wordpool/BROOK.wav", "key_press": -1, "type": "PRES_AUD", "word": "brook", "wordID": 176, "conditions": [24, 1600, "a", 12000], "trial": 3, "serialpos": 1, "trial_type": "single-audio", "trial_index": 118, "time_elapsed": 601239, "internal_node_id": "0.0-82.0"}}, {"uniqueid": "MTK1049:3X1FV8S5JYYHK9XDQXCW2GXB364VGW", "current_trial": 119, "dateTime": 1513017565925, "trialdata": {"rt": -1000, "stimulus": "/static/audio/wordpool/CLAM.wav", "key_press": -1, "type": "PRES_AUD", "word": "clam", "wordID": 314, "conditions": [24, 1600, "a", 12000], "trial": 3, "serialpos": 2, "trial_type": "single-audio", "trial_index": 119, "time_elapsed": 603950, "internal_node_id": "0.0-83.0"}}, {"uniqueid": "MTK1049:3X1FV8S5JYYHK9XDQXCW2GXB364VGW", "current_trial": 120, "dateTime": 1513017568532, "trialdata": {"rt": -1000, "stimulus": "/static/audio/wordpool/BUNNY.wav", "key_press": -1, "type": "PRES_AUD", "word": "bunny", "wordID": 197, "conditions": [24, 1600, "a", 12000], "trial": 3, "serialpos": 3, "trial_type": "single-audio", "trial_index": 120, "time_elapsed": 606557, "internal_node_id": "0.0-84.0"}}, {"uniqueid": "MTK1049:3X1FV8S5JYYHK9XDQXCW2GXB364VGW", "current_trial": 121, "dateTime": 1513017571170, "trialdata": {"rt": -1000, "stimulus": "/static/audio/wordpool/SWIMMER.wav", "key_press": -1, "type": "PRES_AUD", "word": "swimmer", "wordID": 1419, "conditions": [24, 1600, "a", 12000], "trial": 3, "serialpos": 4, "trial_type": "single-audio", "trial_index": 121, "time_elapsed": 609195, "internal_node_id": "0.0-85.0"}}, {"uniqueid": "MTK1049:3X1FV8S5JYYHK9XDQXCW2GXB364VGW", "current_trial": 122, "dateTime": 1513017573936, "trialdata": {"rt": -1000, "stimulus": "/static/audio/wordpool/KNIFE.wav", "key_press": -1, "type": "PRES_AUD", "word": "knife", "wordID": 784, "conditions": [24, 1600, "a", 12000], "trial": 3, "serialpos": 5, "trial_type": "single-audio", "trial_index": 122, "time_elapsed": 611961, "internal_node_id": "0.0-86.0"}}, {"uniqueid": "MTK1049:3X1FV8S5JYYHK9XDQXCW2GXB364VGW", "current_trial": 123, "dateTime": 1513017576496, "trialdata": {"rt": -1000, "stimulus": "/static/audio/wordpool/BUBBLE.wav", "key_press": -1, "type": "PRES_AUD", "word": "bubble", "wordID": 182, "conditions": [24, 1600, "a", 12000], "trial": 3, "serialpos": 6, "trial_type": "single-audio", "trial_index": 123, "time_elapsed": 614521, "internal_node_id": "0.0-87.0"}}, {"uniqueid": "MTK1049:3X1FV8S5JYYHK9XDQXCW2GXB364VGW", "current_trial": 124, "dateTime": 1513017579124, "trialdata": {"rt": -1000, "stimulus": "/static/audio/wordpool/CRATER.wav", "key_press": -1, "type": "PRES_AUD", "word": "crater", "wordID": 399, "conditions": [24, 1600, "a", 12000], "trial": 3, "serialpos": 7, "trial_type": "single-audio", "trial_index": 124, "time_elapsed": 617149, "internal_node_id": "0.0-88.0"}}, {"uniqueid": "MTK1049:3X1FV8S5JYYHK9XDQXCW2GXB364VGW", "current_trial": 125, "dateTime": 1513017581728, "trialdata": {"rt": -1000, "stimulus": "/static/audio/wordpool/INFANT.wav", "key_press": -1, "type": "PRES_AUD", "word": "infant", "wordID": 736, "conditions": [24, 1600, "a", 12000], "trial": 3, "serialpos": 8, "trial_type": "single-audio", "trial_index": 125, "time_elapsed": 619753, "internal_node_id": "0.0-89.0"}}, {"uniqueid": "MTK1049:3X1FV8S5JYYHK9XDQXCW2GXB364VGW", "current_trial": 126, "dateTime": 1513017584515, "trialdata": {"rt": -1000, "stimulus": "/static/audio/wordpool/CRIB.wav", "key_press": -1, "type": "PRES_AUD", "word": "crib", "wordID": 406, "conditions": [24, 1600, "a", 12000], "trial": 3, "serialpos": 9, "trial_type": "single-audio", "trial_index": 126, "time_elapsed": 622540, "internal_node_id": "0.0-90.0"}}, {"uniqueid": "MTK1049:3X1FV8S5JYYHK9XDQXCW2GXB364VGW", "current_trial": 127, "dateTime": 1513017587092, "trialdata": {"rt": -1000, "stimulus": "/static/audio/wordpool/MAMMAL.wav", "key_press": -1, "type": "PRES_AUD", "word": "mammal", "wordID": 860, "conditions": [24, 1600, "a", 12000], "trial": 3, "serialpos": 10, "trial_type": "single-audio", "trial_index": 127, "time_elapsed": 625117, "internal_node_id": "0.0-91.0"}}, {"uniqueid": "MTK1049:3X1FV8S5JYYHK9XDQXCW2GXB364VGW", "current_trial": 128, "dateTime": 1513017589887, "trialdata": {"rt": -1000, "stimulus": "/static/audio/wordpool/SHORTCAKE.wav", "key_press": -1, "type": "PRES_AUD", "word": "shortcake", "wordID": 1291, "conditions": [24, 1600, "a", 12000], "trial": 3, "serialpos": 11, "trial_type": "single-audio", "trial_index": 128, "time_elapsed": 627912, "internal_node_id": "0.0-92.0"}}, {"uniqueid": "MTK1049:3X1FV8S5JYYHK9XDQXCW2GXB364VGW", "current_trial": 129, "dateTime": 1513017592373, "trialdata": {"rt": -1000, "stimulus": "/static/audio/wordpool/MISSILE.wav", "key_press": -1, "type": "PRES_AUD", "word": "missile", "wordID": 899, "conditions": [24, 1600, "a", 12000], "trial": 3, "serialpos": 12, "trial_type": "single-audio", "trial_index": 129, "time_elapsed": 630398, "internal_node_id": "0.0-93.0"}}, {"uniqueid": "MTK1049:3X1FV8S5JYYHK9XDQXCW2GXB364VGW", "current_trial": 130, "dateTime": 1513017595144, "trialdata": {"rt": -1000, "stimulus": "/static/audio/wordpool/RIFLE.wav", "key_press": -1, "type": "PRES_AUD", "word": "rifle", "wordID": 1191, "conditions": [24, 1600, "a", 12000], "trial": 3, "serialpos": 13, "trial_type": "single-audio", "trial_index": 130, "time_elapsed": 633169, "internal_node_id": "0.0-94.0"}}, {"uniqueid": "MTK1049:3X1FV8S5JYYHK9XDQXCW2GXB364VGW", "current_trial": 131, "dateTime": 1513017597615, "trialdata": {"rt": -1000, "stimulus": "/static/audio/wordpool/GYMNAST.wav", "key_press": -1, "type": "PRES_AUD", "word": "gymnast", "wordID": 674, "conditions": [24, 1600, "a", 12000], "trial": 3, "serialpos": 14, "trial_type": "single-audio", "trial_index": 131, "time_elapsed": 635640, "internal_node_id": "0.0-95.0"}}, {"uniqueid": "MTK1049:3X1FV8S5JYYHK9XDQXCW2GXB364VGW", "current_trial": 132, "dateTime": 1513017600201, "trialdata": {"rt": -1000, "stimulus": "/static/audio/wordpool/KNAPSACK.wav", "key_press": -1, "type": "PRES_AUD", "word": "knapsack", "wordID": 782, "conditions": [24, 1600, "a", 12000], "trial": 3, "serialpos": 15, "trial_type": "single-audio", "trial_index": 132, "time_elapsed": 638226, "internal_node_id": "0.0-96.0"}}, {"uniqueid": "MTK1049:3X1FV8S5JYYHK9XDQXCW2GXB364VGW", "current_trial": 133, "dateTime": 1513017602932, "trialdata": {"rt": -1000, "stimulus": "/static/audio/wordpool/LEOPARD.wav", "key_press": -1, "type": "PRES_AUD", "word": "leopard", "wordID": 811, "conditions": [24, 1600, "a", 12000], "trial": 3, "serialpos": 16, "trial_type": "single-audio", "trial_index": 133, "time_elapsed": 640957, "internal_node_id": "0.0-97.0"}}, {"uniqueid": "MTK1049:3X1FV8S5JYYHK9XDQXCW2GXB364VGW", "current_trial": 134, "dateTime": 1513017605333, "trialdata": {"rt": -1000, "stimulus": "/static/audio/wordpool/DANCER.wav", "key_press": -1, "type": "PRES_AUD", "word": "dancer", "wordID": 436, "conditions": [24, 1600, "a", 12000], "trial": 3, "serialpos": 17, "trial_type": "single-audio", "trial_index": 134, "time_elapsed": 643358, "internal_node_id": "0.0-98.0"}}, {"uniqueid": "MTK1049:3X1FV8S5JYYHK9XDQXCW2GXB364VGW", "current_trial": 135, "dateTime": 1513017607862, "trialdata": {"rt": -1000, "stimulus": "/static/audio/wordpool/COIN.wav", "key_press": -1, "type": "PRES_AUD", "word": "coin", "wordID": 342, "conditions": [24, 1600, "a", 12000], "trial": 3, "serialpos": 18, "trial_type": "single-audio", "trial_index": 135, "time_elapsed": 645887, "internal_node_id": "0.0-99.0"}}, {"uniqueid": "MTK1049:3X1FV8S5JYYHK9XDQXCW2GXB364VGW", "current_trial": 136, "dateTime": 1513017610467, "trialdata": {"rt": -1000, "stimulus": "/static/audio/wordpool/PILOT.wav", "key_press": -1, "type": "PRES_AUD", "word": "pilot", "wordID": 1069, "conditions": [24, 1600, "a", 12000], "trial": 3, "serialpos": 19, "trial_type": "single-audio", "trial_index": 136, "time_elapsed": 648492, "internal_node_id": "0.0-100.0"}}, {"uniqueid": "MTK1049:3X1FV8S5JYYHK9XDQXCW2GXB364VGW", "current_trial": 137, "dateTime": 1513017613036, "trialdata": {"rt": -1000, "stimulus": "/static/audio/wordpool/PORK.wav", "key_press": -1, "type": "PRES_AUD", "word": "pork", "wordID": 1107, "conditions": [24, 1600, "a", 12000], "trial": 3, "serialpos": 20, "trial_type": "single-audio", "trial_index": 137, "time_elapsed": 651061, "internal_node_id": "0.0-101.0"}}, {"uniqueid": "MTK1049:3X1FV8S5JYYHK9XDQXCW2GXB364VGW", "current_trial": 138, "dateTime": 1513017615676, "trialdata": {"rt": -1000, "stimulus": "/static/audio/wordpool/SAUSAGE.wav", "key_press": -1, "type": "PRES_AUD", "word": "sausage", "wordID": 1237, "conditions": [24, 1600, "a", 12000], "trial": 3, "serialpos": 21, "trial_type": "single-audio", "trial_index": 138, "time_elapsed": 653701, "internal_node_id": "0.0-102.0"}}, {"uniqueid": "MTK1049:3X1FV8S5JYYHK9XDQXCW2GXB364VGW", "current_trial": 139, "dateTime": 1513017618452, "trialdata": {"rt": -1000, "stimulus": "/static/audio/wordpool/AIRPORT.wav", "key_press": -1, "type": "PRES_AUD", "word": "airport", "wordID": 12, "conditions": [24, 1600, "a", 12000], "trial": 3, "serialpos": 22, "trial_type": "single-audio", "trial_index": 139, "time_elapsed": 656477, "internal_node_id": "0.0-103.0"}}, {"uniqueid": "MTK1049:3X1FV8S5JYYHK9XDQXCW2GXB364VGW", "current_trial": 140, "dateTime": 1513017621032, "trialdata": {"rt": -1000, "stimulus": "/static/audio/wordpool/BADGE.wav", "key_press": -1, "type": "PRES_AUD", "word": "badge", "wordID": 67, "conditions": [24, 1600, "a", 12000], "trial": 3, "serialpos": 23, "trial_type": "single-audio", "trial_index": 140, "time_elapsed": 659057, "internal_node_id": "0.0-104.0"}}, {"uniqueid": "MTK1049:3X1FV8S5JYYHK9XDQXCW2GXB364VGW", "current_trial": 141, "dateTime": 1513017622357, "trialdata": {"rt": -1, "stimulus": "", "key_press": -1, "type": "PRE_RECALL_DELAY", "trial_type": "single-stim", "trial_index": 141, "time_elapsed": 660382, "internal_node_id": "0.0-105.0-0.0"}}, {"uniqueid": "MTK1049:3X1FV8S5JYYHK9XDQXCW2GXB364VGW", "current_trial": 142, "dateTime": 1513017622857, "trialdata": {"rt": -1000, "stimulus": "/static/audio/400Hz.wav", "key_press": -1, "type": "PRE_RECALL_ALERT", "trial_type": "single-audio", "trial_index": 142, "time_elapsed": 660882, "internal_node_id": "0.0-106.0"}}, {"uniqueid": "MTK1049:3X1FV8S5JYYHK9XDQXCW2GXB364VGW", "current_trial": 143, "dateTime": 1513017682864, "trialdata": {"rt": [1576, 3706, 5991, 7728, 9488, 13911, 45536, 53198], "recwords": ["badge", "airport", "pilot", "missle", "rifle", "infant", "sausage", "mammal"], "type": "FREE_RECALL", "conditions": [24, 1600, "a", 12000], "trial": 3, "trial_type": "free-recall", "trial_index": 143, "time_elapsed": 720885, "internal_node_id": "0.0-107.0-0.0"}}, {"uniqueid": "MTK1049:3X1FV8S5JYYHK9XDQXCW2GXB364VGW", "current_trial": 144, "dateTime": 1513017686178, "trialdata": {"rt": 1313, "key_press": 13, "type": "INSTRUCTIONS", "trial_type": "text", "trial_index": 144, "time_elapsed": 724203, "internal_node_id": "0.0-108.0"}}, {"uniqueid": "MTK1049:3X1FV8S5JYYHK9XDQXCW2GXB364VGW", "current_trial": 145, "dateTime": 1513017712182, "trialdata": {"rt": [3300, 4948, 7920, 12229, 14916, 17995, 21541], "responses": ["18", "18", "19", "26", "19", "16", "24"], "num1": [3, 9, 9, 9, 8, 9, 8, 1], "num2": [9, 1, 2, 9, 2, 6, 9, 4], "num3": [6, 8, 8, 8, 9, 1, 6, 7], "type": "DISTRACTOR", "conditions": [24, 1600, "a", 24000], "trial": 4, "trial_type": "math-distractor", "trial_index": 145, "time_elapsed": 750207, "internal_node_id": "0.0-109.0"}}, {"uniqueid": "MTK1049:3X1FV8S5JYYHK9XDQXCW2GXB364VGW", "current_trial": 146, "dateTime": 1513017715183, "trialdata": {"rt": -1, "stimulus": "<p id=\"stim\">10</p>", "key_press": -1, "trial_type": "single-stim", "trial_index": 146, "time_elapsed": 753208, "internal_node_id": "0.0-110.0-0.0"}}, {"uniqueid": "MTK1049:3X1FV8S5JYYHK9XDQXCW2GXB364VGW", "current_trial": 147, "dateTime": 1513017716184, "trialdata": {"rt": -1, "stimulus": "<p id=\"stim\">9</p>", "key_press": -1, "trial_type": "single-stim", "trial_index": 147, "time_elapsed": 754209, "internal_node_id": "0.0-110.0-1.0"}}, {"uniqueid": "MTK1049:3X1FV8S5JYYHK9XDQXCW2GXB364VGW", "current_trial": 148, "dateTime": 1513017717184, "trialdata": {"rt": -1, "stimulus": "<p id=\"stim\">8</p>", "key_press": -1, "trial_type": "single-stim", "trial_index": 148, "time_elapsed": 755209, "internal_node_id": "0.0-110.0-2.0"}}, {"uniqueid": "MTK1049:3X1FV8S5JYYHK9XDQXCW2GXB364VGW", "current_trial": 149, "dateTime": 1513017718185, "trialdata": {"rt": -1, "stimulus": "<p id=\"stim\">7</p>", "key_press": -1, "trial_type": "single-stim", "trial_index": 149, "time_elapsed": 756210, "internal_node_id": "0.0-110.0-3.0"}}, {"uniqueid": "MTK1049:3X1FV8S5JYYHK9XDQXCW2GXB364VGW", "current_trial": 150, "dateTime": 1513017719186, "trialdata": {"rt": -1, "stimulus": "<p id=\"stim\">6</p>", "key_press": -1, "trial_type": "single-stim", "trial_index": 150, "time_elapsed": 757211, "internal_node_id": "0.0-110.0-4.0"}}, {"uniqueid": "MTK1049:3X1FV8S5JYYHK9XDQXCW2GXB364VGW", "current_trial": 151, "dateTime": 1513017720188, "trialdata": {"rt": -1, "stimulus": "<p id=\"stim\">5</p>", "key_press": -1, "trial_type": "single-stim", "trial_index": 151, "time_elapsed": 758213, "internal_node_id": "0.0-110.0-5.0"}}, {"uniqueid": "MTK1049:3X1FV8S5JYYHK9XDQXCW2GXB364VGW", "current_trial": 152, "dateTime": 1513017721188, "trialdata": {"rt": -1, "stimulus": "<p id=\"stim\">4</p>", "key_press": -1, "trial_type": "single-stim", "trial_index": 152, "time_elapsed": 759213, "internal_node_id": "0.0-110.0-6.0"}}, {"uniqueid": "MTK1049:3X1FV8S5JYYHK9XDQXCW2GXB364VGW", "current_trial": 153, "dateTime": 1513017722189, "trialdata": {"rt": -1, "stimulus": "<p id=\"stim\">3</p>", "key_press": -1, "trial_type": "single-stim", "trial_index": 153, "time_elapsed": 760214, "internal_node_id": "0.0-110.0-7.0"}}, {"uniqueid": "MTK1049:3X1FV8S5JYYHK9XDQXCW2GXB364VGW", "current_trial": 154, "dateTime": 1513017723189, "trialdata": {"rt": -1, "stimulus": "<p id=\"stim\">2</p>", "key_press": -1, "trial_type": "single-stim", "trial_index": 154, "time_elapsed": 761214, "internal_node_id": "0.0-110.0-8.0"}}, {"uniqueid": "MTK1049:3X1FV8S5JYYHK9XDQXCW2GXB364VGW", "current_trial": 155, "dateTime": 1513017724190, "trialdata": {"rt": -1, "stimulus": "<p id=\"stim\">1</p>", "key_press": -1, "trial_type": "single-stim", "trial_index": 155, "time_elapsed": 762214, "internal_node_id": "0.0-110.0-9.0"}}, {"uniqueid": "MTK1049:3X1FV8S5JYYHK9XDQXCW2GXB364VGW", "current_trial": 156, "dateTime": 1513017725690, "trialdata": {"rt": -1, "stimulus": "<p id=\"stim\">+</p>", "key_press": -1, "type": "FIXATION", "trial_type": "single-stim", "trial_index": 156, "time_elapsed": 763715, "internal_node_id": "0.0-111.0-0.0"}}, {"uniqueid": "MTK1049:3X1FV8S5JYYHK9XDQXCW2GXB364VGW", "current_trial": 157, "dateTime": 1513017728351, "trialdata": {"rt": -1000, "stimulus": "/static/audio/wordpool/OYSTER.wav", "key_press": -1, "type": "PRES_AUD", "word": "oyster", "wordID": 994, "conditions": [24, 1600, "a", 24000], "trial": 4, "serialpos": 0, "trial_type": "single-audio", "trial_index": 157, "time_elapsed": 766376, "internal_node_id": "0.0-112.0"}}, {"uniqueid": "MTK1049:3X1FV8S5JYYHK9XDQXCW2GXB364VGW", "current_trial": 158, "dateTime": 1513017731097, "trialdata": {"rt": -1000, "stimulus": "/static/audio/wordpool/CRAB.wav", "key_press": -1, "type": "PRES_AUD", "word": "crab", "wordID": 396, "conditions": [24, 1600, "a", 24000], "trial": 4, "serialpos": 1, "trial_type": "single-audio", "trial_index": 158, "time_elapsed": 769122, "internal_node_id": "0.0-113.0"}}, {"uniqueid": "MTK1049:3X1FV8S5JYYHK9XDQXCW2GXB364VGW", "current_trial": 159, "dateTime": 1513017733881, "trialdata": {"rt": -1000, "stimulus": "/static/audio/wordpool/TOASTER.wav", "key_press": -1, "type": "PRES_AUD", "word": "toaster", "wordID": 1471, "conditions": [24, 1600, "a", 24000], "trial": 4, "serialpos": 2, "trial_type": "single-audio", "trial_index": 159, "time_elapsed": 771906, "internal_node_id": "0.0-114.0"}}, {"uniqueid": "MTK1049:3X1FV8S5JYYHK9XDQXCW2GXB364VGW", "current_trial": 160, "dateTime": 1513017736479, "trialdata": {"rt": -1000, "stimulus": "/static/audio/wordpool/BANJO.wav", "key_press": -1, "type": "PRES_AUD", "word": "banjo", "wordID": 81, "conditions": [24, 1600, "a", 24000], "trial": 4, "serialpos": 3, "trial_type": "single-audio", "trial_index": 160, "time_elapsed": 774504, "internal_node_id": "0.0-115.0"}}, {"uniqueid": "MTK1049:3X1FV8S5JYYHK9XDQXCW2GXB364VGW", "current_trial": 161, "dateTime": 1513017739254, "trialdata": {"rt": -1000, "stimulus": "/static/audio/wordpool/STOVE.wav", "key_press": -1, "type": "PRES_AUD", "word": "stove", "wordID": 1387, "conditions": [24, 1600, "a", 24000], "trial": 4, "serialpos": 4, "trial_type": "single-audio", "trial_index": 161, "time_elapsed": 777279, "internal_node_id": "0.0-116.0"}}, {"uniqueid": "MTK1049:3X1FV8S5JYYHK9XDQXCW2GXB364VGW", "current_trial": 162, "dateTime": 1513017741688, "trialdata": {"rt": -1000, "stimulus": "/static/audio/wordpool/FRAGRANCE.wav", "key_press": -1, "type": "PRES_AUD", "word": "fragrance", "wordID": 598, "conditions": [24, 1600, "a", 24000], "trial": 4, "serialpos": 5, "trial_type": "single-audio", "trial_index": 162, "time_elapsed": 779713, "internal_node_id": "0.0-117.0"}}, {"uniqueid": "MTK1049:3X1FV8S5JYYHK9XDQXCW2GXB364VGW", "current_trial": 163, "dateTime": 1513017744276, "trialdata": {"rt": -1000, "stimulus": "/static/audio/wordpool/PLAID.wav", "key_press": -1, "type": "PRES_AUD", "word": "plaid", "wordID": 1079, "conditions": [24, 1600, "a", 24000], "trial": 4, "serialpos": 6, "trial_type": "single-audio", "trial_index": 163, "time_elapsed": 782301, "internal_node_id": "0.0-118.0"}}, {"uniqueid": "MTK1049:3X1FV8S5JYYHK9XDQXCW2GXB364VGW", "current_trial": 164, "dateTime": 1513017746918, "trialdata": {"rt": -1000, "stimulus": "/static/audio/wordpool/HIKER.wav", "key_press": -1, "type": "PRES_AUD", "word": "hiker", "wordID": 707, "conditions": [24, 1600, "a", 24000], "trial": 4, "serialpos": 7, "trial_type": "single-audio", "trial_index": 164, "time_elapsed": 784943, "internal_node_id": "0.0-119.0"}}, {"uniqueid": "MTK1049:3X1FV8S5JYYHK9XDQXCW2GXB364VGW", "current_trial": 165, "dateTime": 1513017749536, "trialdata": {"rt": -1000, "stimulus": "/static/audio/wordpool/PERFUME.wav", "key_press": -1, "type": "PRES_AUD", "word": "perfume", "wordID": 1048, "conditions": [24, 1600, "a", 24000], "trial": 4, "serialpos": 8, "trial_type": "single-audio", "trial_index": 165, "time_elapsed": 787561, "internal_node_id": "0.0-120.0"}}, {"uniqueid": "MTK1049:3X1FV8S5JYYHK9XDQXCW2GXB364VGW", "current_trial": 166, "dateTime": 1513017752285, "trialdata": {"rt": -1000, "stimulus": "/static/audio/wordpool/HEART.wav", "key_press": -1, "type": "PRES_AUD", "word": "heart", "wordID": 696, "conditions": [24, 1600, "a", 24000], "trial": 4, "serialpos": 9, "trial_type": "single-audio", "trial_index": 166, "time_elapsed": 790310, "internal_node_id": "0.0-121.0"}}, {"uniqueid": "MTK1049:3X1FV8S5JYYHK9XDQXCW2GXB364VGW", "current_trial": 167, "dateTime": 1513017754706, "trialdata": {"rt": -1000, "stimulus": "/static/audio/wordpool/YACHT.wav", "key_press": -1, "type": "PRES_AUD", "word": "yacht", "wordID": 1628, "conditions": [24, 1600, "a", 24000], "trial": 4, "serialpos": 10, "trial_type": "single-audio", "trial_index": 167, "time_elapsed": 792731, "internal_node_id": "0.0-122.0"}}, {"uniqueid": "MTK1049:3X1FV8S5JYYHK9XDQXCW2GXB364VGW", "current_trial": 168, "dateTime": 1513017757150, "trialdata": {"rt": -1000, "stimulus": "/static/audio/wordpool/TUBA.wav", "key_press": -1, "type": "PRES_AUD", "word": "tuba", "wordID": 1514, "conditions": [24, 1600, "a", 24000], "trial": 4, "serialpos": 11, "trial_type": "single-audio", "trial_index": 168, "time_elapsed": 795175, "internal_node_id": "0.0-123.0"}}, {"uniqueid": "MTK1049:3X1FV8S5JYYHK9XDQXCW2GXB364VGW", "current_trial": 169, "dateTime": 1513017759674, "trialdata": {"rt": -1000, "stimulus": "/static/audio/wordpool/FRIEND.wav", "key_press": -1, "type": "PRES_AUD", "word": "friend", "wordID": 605, "conditions": [24, 1600, "a", 24000], "trial": 4, "serialpos": 12, "trial_type": "single-audio", "trial_index": 169, "time_elapsed": 797699, "internal_node_id": "0.0-124.0"}}, {"uniqueid": "MTK1049:3X1FV8S5JYYHK9XDQXCW2GXB364VGW", "current_trial": 170, "dateTime": 1513017762324, "trialdata": {"rt": -1000, "stimulus": "/static/audio/wordpool/FIREMAN.wav", "key_press": -1, "type": "PRES_AUD", "word": "fireman", "wordID": 568, "conditions": [24, 1600, "a", 24000], "trial": 4, "serialpos": 13, "trial_type": "single-audio", "trial_index": 170, "time_elapsed": 800349, "internal_node_id": "0.0-125.0"}}, {"uniqueid": "MTK1049:3X1FV8S5JYYHK9XDQXCW2GXB364VGW", "current_trial": 171, "dateTime": 1513017765113, "trialdata": {"rt": -1000, "stimulus": "/static/audio/wordpool/ULCER.wav", "key_press": -1, "type": "PRES_AUD", "word": "ulcer", "wordID": 1532, "conditions": [24, 1600, "a", 24000], "trial": 4, "serialpos": 14, "trial_type": "single-audio", "trial_index": 171, "time_elapsed": 803138, "internal_node_id": "0.0-126.0"}}, {"uniqueid": "MTK1049:3X1FV8S5JYYHK9XDQXCW2GXB364VGW", "current_trial": 172, "dateTime": 1513017767556, "trialdata": {"rt": -1000, "stimulus": "/static/audio/wordpool/VIRUS.wav", "key_press": -1, "type": "PRES_AUD", "word": "virus", "wordID": 1571, "conditions": [24, 1600, "a", 24000], "trial": 4, "serialpos": 15, "trial_type": "single-audio", "trial_index": 172, "time_elapsed": 805581, "internal_node_id": "0.0-127.0"}}, {"uniqueid": "MTK1049:3X1FV8S5JYYHK9XDQXCW2GXB364VGW", "current_trial": 173, "dateTime": 1513017770275, "trialdata": {"rt": -1000, "stimulus": "/static/audio/wordpool/MILDEW.wav", "key_press": -1, "type": "PRES_AUD", "word": "mildew", "wordID": 892, "conditions": [24, 1600, "a", 24000], "trial": 4, "serialpos": 16, "trial_type": "single-audio", "trial_index": 173, "time_elapsed": 808300, "internal_node_id": "0.0-128.0"}}, {"uniqueid": "MTK1049:3X1FV8S5JYYHK9XDQXCW2GXB364VGW", "current_trial": 174, "dateTime": 1513017773003, "trialdata": {"rt": -1000, "stimulus": "/static/audio/wordpool/TROMBONE.wav", "key_press": -1, "type": "PRES_AUD", "word": "trombone", "wordID": 1507, "conditions": [24, 1600, "a", 24000], "trial": 4, "serialpos": 17, "trial_type": "single-audio", "trial_index": 174, "time_elapsed": 811028, "internal_node_id": "0.0-129.0"}}, {"uniqueid": "MTK1049:3X1FV8S5JYYHK9XDQXCW2GXB364VGW", "current_trial": 175, "dateTime": 1513017775503, "trialdata": {"rt": -1000, "stimulus": "/static/audio/wordpool/APPLE.wav", "key_press": -1, "type": "PRES_AUD", "word": "apple", "wordID": 32, "conditions": [24, 1600, "a", 24000], "trial": 4, "serialpos": 18, "trial_type": "single-audio", "trial_index": 175, "time_elapsed": 813528, "internal_node_id": "0.0-130.0"}}, {"uniqueid": "MTK1049:3X1FV8S5JYYHK9XDQXCW2GXB364VGW", "current_trial": 176, "dateTime": 1513017778040, "trialdata": {"rt": -1000, "stimulus": "/static/audio/wordpool/GRAVEL.wav", "key_press": -1, "type": "PRES_AUD", "word": "gravel", "wordID": 658, "conditions": [24, 1600, "a", 24000], "trial": 4, "serialpos": 19, "trial_type": "single-audio", "trial_index": 176, "time_elapsed": 816065, "internal_node_id": "0.0-131.0"}}, {"uniqueid": "MTK1049:3X1FV8S5JYYHK9XDQXCW2GXB364VGW", "current_trial": 177, "dateTime": 1513017780478, "trialdata": {"rt": -1000, "stimulus": "/static/audio/wordpool/GLOBE.wav", "key_press": -1, "type": "PRES_AUD", "word": "globe", "wordID": 640, "conditions": [24, 1600, "a", 24000], "trial": 4, "serialpos": 20, "trial_type": "single-audio", "trial_index": 177, "time_elapsed": 818503, "internal_node_id": "0.0-132.0"}}, {"uniqueid": "MTK1049:3X1FV8S5JYYHK9XDQXCW2GXB364VGW", "current_trial": 178, "dateTime": 1513017782950, "trialdata": {"rt": -1000, "stimulus": "/static/audio/wordpool/WORLD.wav", "key_press": -1, "type": "PRES_AUD", "word": "world", "wordID": 1621, "conditions": [24, 1600, "a", 24000], "trial": 4, "serialpos": 21, "trial_type": "single-audio", "trial_index": 178, "time_elapsed": 820975, "internal_node_id": "0.0-133.0"}}, {"uniqueid": "MTK1049:3X1FV8S5JYYHK9XDQXCW2GXB364VGW", "current_trial": 179, "dateTime": 1513017785474, "trialdata": {"rt": -1000, "stimulus": "/static/audio/wordpool/BASEMENT.wav", "key_press": -1, "type": "PRES_AUD", "word": "basement", "wordID": 93, "conditions": [24, 1600, "a", 24000], "trial": 4, "serialpos": 22, "trial_type": "single-audio", "trial_index": 179, "time_elapsed": 823499, "internal_node_id": "0.0-134.0"}}, {"uniqueid": "MTK1049:3X1FV8S5JYYHK9XDQXCW2GXB364VGW", "current_trial": 180, "dateTime": 1513017787967, "trialdata": {"rt": -1000, "stimulus": "/static/audio/wordpool/BROTHER.wav", "key_press": -1, "type": "PRES_AUD", "word": "brother", "wordID": 178, "conditions": [24, 1600, "a", 24000], "trial": 4, "serialpos": 23, "trial_type": "single-audio", "trial_index": 180, "time_elapsed": 825992, "internal_node_id": "0.0-135.0"}}, {"uniqueid": "MTK1049:3X1FV8S5JYYHK9XDQXCW2GXB364VGW", "current_trial": 181, "dateTime": 1513017789297, "trialdata": {"rt": -1, "stimulus": "", "key_press": -1, "type": "PRE_RECALL_DELAY", "trial_type": "single-stim", "trial_index": 181, "time_elapsed": 827322, "internal_node_id": "0.0-136.0-0.0"}}, {"uniqueid": "MTK1049:3X1FV8S5JYYHK9XDQXCW2GXB364VGW", "current_trial": 182, "dateTime": 1513017789797, "trialdata": {"rt": -1000, "stimulus": "/static/audio/400Hz.wav", "key_press": -1, "type": "PRE_RECALL_ALERT", "trial_type": "single-audio", "trial_index": 182, "time_elapsed": 827822, "internal_node_id": "0.0-137.0"}}, {"uniqueid": "MTK1049:3X1FV8S5JYYHK9XDQXCW2GXB364VGW", "current_trial": 183, "dateTime": 1513017849803, "trialdata": {"rt": [2612, 4396, 7228, 10807, 13855, 15740, 18629, 31798, 36920, 44612], "recwords": ["brother", "basement", "trombone", "fireman", "oyster", "crab", "mildew", "hiker", "apple", "toaster"], "type": "FREE_RECALL", "conditions": [24, 1600, "a", 24000], "trial": 4, "trial_type": "free-recall", "trial_index": 183, "time_elapsed": 887825, "internal_node_id": "0.0-138.0-0.0"}}, {"uniqueid": "MTK1049:3X1FV8S5JYYHK9XDQXCW2GXB364VGW", "current_trial": 184, "dateTime": 1513017852716, "trialdata": {"rt": 912, "key_press": 13, "type": "INSTRUCTIONS", "trial_type": "text", "trial_index": 184, "time_elapsed": 890741, "internal_node_id": "0.0-139.0"}}, {"uniqueid": "MTK1049:3X1FV8S5JYYHK9XDQXCW2GXB364VGW", "current_trial": 185, "dateTime": 1513017866719, "trialdata": {"rt": [2115, 4002, 6199, 9827], "responses": ["8", "10", "7", "18"], "num1": [1, 2, 2, 7, 9], "num2": [5, 2, 4, 4, 2], "num3": [2, 6, 1, 7, 9], "type": "DISTRACTOR", "conditions": [24, 800, "a", 12000], "trial": 5, "trial_type": "math-distractor", "trial_index": 185, "time_elapsed": 904744, "internal_node_id": "0.0-140.0"}}, {"uniqueid": "MTK1049:3X1FV8S5JYYHK9XDQXCW2GXB364VGW", "current_trial": 186, "dateTime": 1513017869722, "trialdata": {"rt": -1, "stimulus": "<p id=\"stim\">10</p>", "key_press": -1, "trial_type": "single-stim", "trial_index": 186, "time_elapsed": 907747, "internal_node_id": "0.0-141.0-0.0"}}, {"uniqueid": "MTK1049:3X1FV8S5JYYHK9XDQXCW2GXB364VGW", "current_trial": 187, "dateTime": 1513017870722, "trialdata": {"rt": -1, "stimulus": "<p id=\"stim\">9</p>", "key_press": -1, "trial_type": "single-stim", "trial_index": 187, "time_elapsed": 908747, "internal_node_id": "0.0-141.0-1.0"}}, {"uniqueid": "MTK1049:3X1FV8S5JYYHK9XDQXCW2GXB364VGW", "current_trial": 188, "dateTime": 1513017871724, "trialdata": {"rt": -1, "stimulus": "<p id=\"stim\">8</p>", "key_press": -1, "trial_type": "single-stim", "trial_index": 188, "time_elapsed": 909749, "internal_node_id": "0.0-141.0-2.0"}}, {"uniqueid": "MTK1049:3X1FV8S5JYYHK9XDQXCW2GXB364VGW", "current_trial": 189, "dateTime": 1513017872725, "trialdata": {"rt": -1, "stimulus": "<p id=\"stim\">7</p>", "key_press": -1, "trial_type": "single-stim", "trial_index": 189, "time_elapsed": 910750, "internal_node_id": "0.0-141.0-3.0"}}, {"uniqueid": "MTK1049:3X1FV8S5JYYHK9XDQXCW2GXB364VGW", "current_trial": 190, "dateTime": 1513017873727, "trialdata": {"rt": -1, "stimulus": "<p id=\"stim\">6</p>", "key_press": -1, "trial_type": "single-stim", "trial_index": 190, "time_elapsed": 911752, "internal_node_id": "0.0-141.0-4.0"}}, {"uniqueid": "MTK1049:3X1FV8S5JYYHK9XDQXCW2GXB364VGW", "current_trial": 191, "dateTime": 1513017874729, "trialdata": {"rt": -1, "stimulus": "<p id=\"stim\">5</p>", "key_press": -1, "trial_type": "single-stim", "trial_index": 191, "time_elapsed": 912754, "internal_node_id": "0.0-141.0-5.0"}}, {"uniqueid": "MTK1049:3X1FV8S5JYYHK9XDQXCW2GXB364VGW", "current_trial": 192, "dateTime": 1513017875731, "trialdata": {"rt": -1, "stimulus": "<p id=\"stim\">4</p>", "key_press": -1, "trial_type": "single-stim", "trial_index": 192, "time_elapsed": 913756, "internal_node_id": "0.0-141.0-6.0"}}, {"uniqueid": "MTK1049:3X1FV8S5JYYHK9XDQXCW2GXB364VGW", "current_trial": 193, "dateTime": 1513017876731, "trialdata": {"rt": -1, "stimulus": "<p id=\"stim\">3</p>", "key_press": -1, "trial_type": "single-stim", "trial_index": 193, "time_elapsed": 914756, "internal_node_id": "0.0-141.0-7.0"}}, {"uniqueid": "MTK1049:3X1FV8S5JYYHK9XDQXCW2GXB364VGW", "current_trial": 194, "dateTime": 1513017877731, "trialdata": {"rt": -1, "stimulus": "<p id=\"stim\">2</p>", "key_press": -1, "trial_type": "single-stim", "trial_index": 194, "time_elapsed": 915756, "internal_node_id": "0.0-141.0-8.0"}}, {"uniqueid": "MTK1049:3X1FV8S5JYYHK9XDQXCW2GXB364VGW", "current_trial": 195, "dateTime": 1513017878732, "trialdata": {"rt": -1, "stimulus": "<p id=\"stim\">1</p>", "key_press": -1, "trial_type": "single-stim", "trial_index": 195, "time_elapsed": 916757, "internal_node_id": "0.0-141.0-9.0"}}, {"uniqueid": "MTK1049:3X1FV8S5JYYHK9XDQXCW2GXB364VGW", "current_trial": 196, "dateTime": 1513017880233, "trialdata": {"rt": -1, "stimulus": "<p id=\"stim\">+</p>", "key_press": -1, "type": "FIXATION", "trial_type": "single-stim", "trial_index": 196, "time_elapsed": 918258, "internal_node_id": "0.0-142.0-0.0"}}, {"uniqueid": "MTK1049:3X1FV8S5JYYHK9XDQXCW2GXB364VGW", "current_trial": 197, "dateTime": 1513017881959, "trialdata": {"rt": -1000, "stimulus": "/static/audio/wordpool/SKIRT.wav", "key_press": -1, "type": "PRES_AUD", "word": "skirt", "wordID": 1318, "conditions": [24, 800, "a", 12000], "trial": 5, "serialpos": 0, "trial_type": "single-audio", "trial_index": 197, "time_elapsed": 919984, "internal_node_id": "0.0-143.0"}}, {"uniqueid": "MTK1049:3X1FV8S5JYYHK9XDQXCW2GXB364VGW", "current_trial": 198, "dateTime": 1513017883573, "trialdata": {"rt": -1000, "stimulus": "/static/audio/wordpool/BEAVER.wav", "key_press": -1, "type": "PRES_AUD", "word": "beaver", "wordID": 108, "conditions": [24, 800, "a", 12000], "trial": 5, "serialpos": 1, "trial_type": "single-audio", "trial_index": 198, "time_elapsed": 921598, "internal_node_id": "0.0-144.0"}}, {"uniqueid": "MTK1049:3X1FV8S5JYYHK9XDQXCW2GXB364VGW", "current_trial": 199, "dateTime": 1513017885291, "trialdata": {"rt": -1000, "stimulus": "/static/audio/wordpool/GLOVE.wav", "key_press": -1, "type": "PRES_AUD", "word": "glove", "wordID": 641, "conditions": [24, 800, "a", 12000], "trial": 5, "serialpos": 2, "trial_type": "single-audio", "trial_index": 199, "time_elapsed": 923316, "internal_node_id": "0.0-145.0"}}, {"uniqueid": "MTK1049:3X1FV8S5JYYHK9XDQXCW2GXB364VGW", "current_trial": 200, "dateTime": 1513017886967, "trialdata": {"rt": -1000, "stimulus": "/static/audio/wordpool/ORCHID.wav", "key_press": -1, "type": "PRES_AUD", "word": "orchid", "wordID": 981, "conditions": [24, 800, "a", 12000], "trial": 5, "serialpos": 3, "trial_type": "single-audio", "trial_index": 200, "time_elapsed": 924992, "internal_node_id": "0.0-146.0"}}, {"uniqueid": "MTK1049:3X1FV8S5JYYHK9XDQXCW2GXB364VGW", "current_trial": 201, "dateTime": 1513017888791, "trialdata": {"rt": -1000, "stimulus": "/static/audio/wordpool/HONEY.wav", "key_press": -1, "type": "PRES_AUD", "word": "honey", "wordID": 712, "conditions": [24, 800, "a", 12000], "trial": 5, "serialpos": 4, "trial_type": "single-audio", "trial_index": 201, "time_elapsed": 926816, "internal_node_id": "0.0-147.0"}}, {"uniqueid": "MTK1049:3X1FV8S5JYYHK9XDQXCW2GXB364VGW", "current_trial": 202, "dateTime": 1513017890595, "trialdata": {"rt": -1000, "stimulus": "/static/audio/wordpool/CREATURE.wav", "key_press": -1, "type": "PRES_AUD", "word": "creature", "wordID": 402, "conditions": [24, 800, "a", 12000], "trial": 5, "serialpos": 5, "trial_type": "single-audio", "trial_index": 202, "time_elapsed": 928620, "internal_node_id": "0.0-148.0"}}, {"uniqueid": "MTK1049:3X1FV8S5JYYHK9XDQXCW2GXB364VGW", "current_trial": 203, "dateTime": 1513017892448, "trialdata": {"rt": -1000, "stimulus": "/static/audio/wordpool/CYCLONE.wav", "key_press": -1, "type": "PRES_AUD", "word": "cyclone", "wordID": 430, "conditions": [24, 800, "a", 12000], "trial": 5, "serialpos": 6, "trial_type": "single-audio", "trial_index": 203, "time_elapsed": 930473, "internal_node_id": "0.0-149.0"}}, {"uniqueid": "MTK1049:3X1FV8S5JYYHK9XDQXCW2GXB364VGW", "current_trial": 204, "dateTime": 1513017894190, "trialdata": {"rt": -1000, "stimulus": "/static/audio/wordpool/GAZELLE.wav", "key_press": -1, "type": "PRES_AUD", "word": "gazelle", "wordID": 627, "conditions": [24, 800, "a", 12000], "trial": 5, "serialpos": 7, "trial_type": "single-audio", "trial_index": 204, "time_elapsed": 932215, "internal_node_id": "0.0-150.0"}}, {"uniqueid": "MTK1049:3X1FV8S5JYYHK9XDQXCW2GXB364VGW", "current_trial": 205, "dateTime": 1513017896154, "trialdata": {"rt": -1000, "stimulus": "/static/audio/wordpool/TRACTOR.wav", "key_press": -1, "type": "PRES_AUD", "word": "tractor", "wordID": 1492, "conditions": [24, 800, "a", 12000], "trial": 5, "serialpos": 8, "trial_type": "single-audio", "trial_index": 205, "time_elapsed": 934179, "internal_node_id": "0.0-151.0"}}, {"uniqueid": "MTK1049:3X1FV8S5JYYHK9XDQXCW2GXB364VGW", "current_trial": 206, "dateTime": 1513017897999, "trialdata": {"rt": -1000, "stimulus": "/static/audio/wordpool/WAGON.wav", "key_press": -1, "type": "PRES_AUD", "word": "wagon", "wordID": 1577, "conditions": [24, 800, "a", 12000], "trial": 5, "serialpos": 9, "trial_type": "single-audio", "trial_index": 206, "time_elapsed": 936024, "internal_node_id": "0.0-152.0"}}, {"uniqueid": "MTK1049:3X1FV8S5JYYHK9XDQXCW2GXB364VGW", "current_trial": 207, "dateTime": 1513017899723, "trialdata": {"rt": -1000, "stimulus": "/static/audio/wordpool/GOBLIN.wav", "key_press": -1, "type": "PRES_AUD", "word": "goblin", "wordID": 644, "conditions": [24, 800, "a", 12000], "trial": 5, "serialpos": 10, "trial_type": "single-audio", "trial_index": 207, "time_elapsed": 937748, "internal_node_id": "0.0-153.0"}}, {"uniqueid": "MTK1049:3X1FV8S5JYYHK9XDQXCW2GXB364VGW", "current_trial": 208, "dateTime": 1513017901366, "trialdata": {"rt": -1000, "stimulus": "/static/audio/wordpool/FLOWER.wav", "key_press": -1, "type": "PRES_AUD", "word": "flower", "wordID": 583, "conditions": [24, 800, "a", 12000], "trial": 5, "serialpos": 11, "trial_type": "single-audio", "trial_index": 208, "time_elapsed": 939389, "internal_node_id": "0.0-154.0"}}, {"uniqueid": "MTK1049:3X1FV8S5JYYHK9XDQXCW2GXB364VGW", "current_trial": 209, "dateTime": 1513017903015, "trialdata": {"rt": -1000, "stimulus": "/static/audio/wordpool/QUARTER.wav", "key_press": -1, "type": "PRES_AUD", "word": "quarter", "wordID": 1147, "conditions": [24, 800, "a", 12000], "trial": 5, "serialpos": 12, "trial_type": "single-audio", "trial_index": 209, "time_elapsed": 941040, "internal_node_id": "0.0-155.0"}}, {"uniqueid": "MTK1049:3X1FV8S5JYYHK9XDQXCW2GXB364VGW", "current_trial": 210, "dateTime": 1513017904895, "trialdata": {"rt": -1000, "stimulus": "/static/audio/wordpool/SPONGE.wav", "key_press": -1, "type": "PRES_AUD", "word": "sponge", "wordID": 1354, "conditions": [24, 800, "a", 12000], "trial": 5, "serialpos": 13, "trial_type": "single-audio", "trial_index": 210, "time_elapsed": 942920, "internal_node_id": "0.0-156.0"}}, {"uniqueid": "MTK1049:3X1FV8S5JYYHK9XDQXCW2GXB364VGW", "current_trial": 211, "dateTime": 1513017906499, "trialdata": {"rt": -1000, "stimulus": "/static/audio/wordpool/COUSIN.wav", "key_press": -1, "type": "PRES_AUD", "word": "cousin", "wordID": 391, "conditions": [24, 800, "a", 12000], "trial": 5, "serialpos": 14, "trial_type": "single-audio", "trial_index": 211, "time_elapsed": 944524, "internal_node_id": "0.0-157.0"}}, {"uniqueid": "MTK1049:3X1FV8S5JYYHK9XDQXCW2GXB364VGW", "current_trial": 212, "dateTime": 1513017908230, "trialdata": {"rt": -1000, "stimulus": "/static/audio/wordpool/SHOVEL.wav", "key_press": -1, "type": "PRES_AUD", "word": "shovel", "wordID": 1294, "conditions": [24, 800, "a", 12000], "trial": 5, "serialpos": 15, "trial_type": "single-audio", "trial_index": 212, "time_elapsed": 946255, "internal_node_id": "0.0-158.0"}}, {"uniqueid": "MTK1049:3X1FV8S5JYYHK9XDQXCW2GXB364VGW", "current_trial": 213, "dateTime": 1513017910029, "trialdata": {"rt": -1000, "stimulus": "/static/audio/wordpool/MACHINE.wav", "key_press": -1, "type": "PRES_AUD", "word": "machine", "wordID": 851, "conditions": [24, 800, "a", 12000], "trial": 5, "serialpos": 16, "trial_type": "single-audio", "trial_index": 213, "time_elapsed": 948054, "internal_node_id": "0.0-159.0"}}, {"uniqueid": "MTK1049:3X1FV8S5JYYHK9XDQXCW2GXB364VGW", "current_trial": 214, "dateTime": 1513017911699, "trialdata": {"rt": -1000, "stimulus": "/static/audio/wordpool/PEPPER.wav", "key_press": -1, "type": "PRES_AUD", "word": "pepper", "wordID": 1046, "conditions": [24, 800, "a", 12000], "trial": 5, "serialpos": 17, "trial_type": "single-audio", "trial_index": 214, "time_elapsed": 949724, "internal_node_id": "0.0-160.0"}}, {"uniqueid": "MTK1049:3X1FV8S5JYYHK9XDQXCW2GXB364VGW", "current_trial": 215, "dateTime": 1513017913440, "trialdata": {"rt": -1000, "stimulus": "/static/audio/wordpool/PARSLEY.wav", "key_press": -1, "type": "PRES_AUD", "word": "parsley", "wordID": 1015, "conditions": [24, 800, "a", 12000], "trial": 5, "serialpos": 18, "trial_type": "single-audio", "trial_index": 215, "time_elapsed": 951465, "internal_node_id": "0.0-161.0"}}, {"uniqueid": "MTK1049:3X1FV8S5JYYHK9XDQXCW2GXB364VGW", "current_trial": 216, "dateTime": 1513017915145, "trialdata": {"rt": -1000, "stimulus": "/static/audio/wordpool/SUSPECT.wav", "key_press": -1, "type": "PRES_AUD", "word": "suspect", "wordID": 1414, "conditions": [24, 800, "a", 12000], "trial": 5, "serialpos": 19, "trial_type": "single-audio", "trial_index": 216, "time_elapsed": 953170, "internal_node_id": "0.0-162.0"}}, {"uniqueid": "MTK1049:3X1FV8S5JYYHK9XDQXCW2GXB364VGW", "current_trial": 217, "dateTime": 1513017916776, "trialdata": {"rt": -1000, "stimulus": "/static/audio/wordpool/AWARD.wav", "key_press": -1, "type": "PRES_AUD", "word": "award", "wordID": 62, "conditions": [24, 800, "a", 12000], "trial": 5, "serialpos": 20, "trial_type": "single-audio", "trial_index": 217, "time_elapsed": 954801, "internal_node_id": "0.0-163.0"}}, {"uniqueid": "MTK1049:3X1FV8S5JYYHK9XDQXCW2GXB364VGW", "current_trial": 218, "dateTime": 1513017918561, "trialdata": {"rt": -1000, "stimulus": "/static/audio/wordpool/POLICE.wav", "key_press": -1, "type": "PRES_AUD", "word": "police", "wordID": 1097, "conditions": [24, 800, "a", 12000], "trial": 5, "serialpos": 21, "trial_type": "single-audio", "trial_index": 218, "time_elapsed": 956586, "internal_node_id": "0.0-164.0"}}, {"uniqueid": "MTK1049:3X1FV8S5JYYHK9XDQXCW2GXB364VGW", "current_trial": 219, "dateTime": 1513017920417, "trialdata": {"rt": -1000, "stimulus": "/static/audio/wordpool/RUST.wav", "key_press": -1, "type": "PRES_AUD", "word": "rust", "wordID": 1218, "conditions": [24, 800, "a", 12000], "trial": 5, "serialpos": 22, "trial_type": "single-audio", "trial_index": 219, "time_elapsed": 958442, "internal_node_id": "0.0-165.0"}}, {"uniqueid": "MTK1049:3X1FV8S5JYYHK9XDQXCW2GXB364VGW", "current_trial": 220, "dateTime": 1513017922082, "trialdata": {"rt": -1000, "stimulus": "/static/audio/wordpool/SIBLING.wav", "key_press": -1, "type": "PRES_AUD", "word": "sibling", "wordID": 1300, "conditions": [24, 800, "a", 12000], "trial": 5, "serialpos": 23, "trial_type": "single-audio", "trial_index": 220, "time_elapsed": 960107, "internal_node_id": "0.0-166.0"}}, {"uniqueid": "MTK1049:3X1FV8S5JYYHK9XDQXCW2GXB364VGW", "current_trial": 221, "dateTime": 1513017923304, "trialdata": {"rt": -1, "stimulus": "", "key_press": -1, "type": "PRE_RECALL_DELAY", "trial_type": "single-stim", "trial_index": 221, "time_elapsed": 961329, "internal_node_id": "0.0-167.0-0.0"}}, {"uniqueid": "MTK1049:3X1FV8S5JYYHK9XDQXCW2GXB364VGW", "current_trial": 222, "dateTime": 1513017923806, "trialdata": {"rt": -1000, "stimulus": "/static/audio/400Hz.wav", "key_press": -1, "type": "PRE_RECALL_ALERT", "trial_type": "single-audio", "trial_index": 222, "time_elapsed": 961831, "internal_node_id": "0.0-168.0"}}, {"uniqueid": "MTK1049:3X1FV8S5JYYHK9XDQXCW2GXB364VGW", "current_trial": 223, "dateTime": 1513017983813, "trialdata": {"rt": [2025, 3318, 5525, 7552, 24276, 37896], "recwords": ["sibling", "rust", "honey", "creature", "award", "orchid"], "type": "FREE_RECALL", "conditions": [24, 800, "a", 12000], "trial": 5, "trial_type": "free-recall", "trial_index": 223, "time_elapsed": 1021835, "internal_node_id": "0.0-169.0-0.0"}}, {"uniqueid": "MTK1049:3X1FV8S5JYYHK9XDQXCW2GXB364VGW", "current_trial": 224, "dateTime": 1513017989554, "trialdata": {"rt": 3741, "key_press": 13, "type": "INSTRUCTIONS", "trial_type": "text", "trial_index": 224, "time_elapsed": 1027579, "internal_node_id": "0.0-170.0"}}, {"uniqueid": "MTK1049:3X1FV8S5JYYHK9XDQXCW2GXB364VGW", "current_trial": 225, "dateTime": 1513018003556, "trialdata": {"rt": [5614, 8234], "responses": ["17", "12"], "num1": [6, 9, 2], "num2": [7, 8, 6], "num3": [8, 2, 9], "type": "DISTRACTOR", "conditions": [12, 1600, "v", 12000], "trial": 6, "trial_type": "math-distractor", "trial_index": 225, "time_elapsed": 1041580, "internal_node_id": "0.0-171.0"}}, {"uniqueid": "MTK1049:3X1FV8S5JYYHK9XDQXCW2GXB364VGW", "current_trial": 226, "dateTime": 1513018006557, "trialdata": {"rt": -1, "stimulus": "<p id=\"stim\">10</p>", "key_press": -1, "trial_type": "single-stim", "trial_index": 226, "time_elapsed": 1044582, "internal_node_id": "0.0-172.0-0.0"}}, {"uniqueid": "MTK1049:3X1FV8S5JYYHK9XDQXCW2GXB364VGW", "current_trial": 227, "dateTime": 1513018007557, "trialdata": {"rt": -1, "stimulus": "<p id=\"stim\">9</p>", "key_press": -1, "trial_type": "single-stim", "trial_index": 227, "time_elapsed": 1045582, "internal_node_id": "0.0-172.0-1.0"}}, {"uniqueid": "MTK1049:3X1FV8S5JYYHK9XDQXCW2GXB364VGW", "current_trial": 228, "dateTime": 1513018008558, "trialdata": {"rt": -1, "stimulus": "<p id=\"stim\">8</p>", "key_press": -1, "trial_type": "single-stim", "trial_index": 228, "time_elapsed": 1046583, "internal_node_id": "0.0-172.0-2.0"}}, {"uniqueid": "MTK1049:3X1FV8S5JYYHK9XDQXCW2GXB364VGW", "current_trial": 229, "dateTime": 1513018009559, "trialdata": {"rt": -1, "stimulus": "<p id=\"stim\">7</p>", "key_press": -1, "trial_type": "single-stim", "trial_index": 229, "time_elapsed": 1047584, "internal_node_id": "0.0-172.0-3.0"}}, {"uniqueid": "MTK1049:3X1FV8S5JYYHK9XDQXCW2GXB364VGW", "current_trial": 230, "dateTime": 1513018010559, "trialdata": {"rt": -1, "stimulus": "<p id=\"stim\">6</p>", "key_press": -1, "trial_type": "single-stim", "trial_index": 230, "time_elapsed": 1048584, "internal_node_id": "0.0-172.0-4.0"}}, {"uniqueid": "MTK1049:3X1FV8S5JYYHK9XDQXCW2GXB364VGW", "current_trial": 231, "dateTime": 1513018011559, "trialdata": {"rt": -1, "stimulus": "<p id=\"stim\">5</p>", "key_press": -1, "trial_type": "single-stim", "trial_index": 231, "time_elapsed": 1049584, "internal_node_id": "0.0-172.0-5.0"}}, {"uniqueid": "MTK1049:3X1FV8S5JYYHK9XDQXCW2GXB364VGW", "current_trial": 232, "dateTime": 1513018012559, "trialdata": {"rt": -1, "stimulus": "<p id=\"stim\">4</p>", "key_press": -1, "trial_type": "single-stim", "trial_index": 232, "time_elapsed": 1050584, "internal_node_id": "0.0-172.0-6.0"}}, {"uniqueid": "MTK1049:3X1FV8S5JYYHK9XDQXCW2GXB364VGW", "current_trial": 233, "dateTime": 1513018013559, "trialdata": {"rt": -1, "stimulus": "<p id=\"stim\">3</p>", "key_press": -1, "trial_type": "single-stim", "trial_index": 233, "time_elapsed": 1051584, "internal_node_id": "0.0-172.0-7.0"}}, {"uniqueid": "MTK1049:3X1FV8S5JYYHK9XDQXCW2GXB364VGW", "current_trial": 234, "dateTime": 1513018014559, "trialdata": {"rt": -1, "stimulus": "<p id=\"stim\">2</p>", "key_press": -1, "trial_type": "single-stim", "trial_index": 234, "time_elapsed": 1052584, "internal_node_id": "0.0-172.0-8.0"}}, {"uniqueid": "MTK1049:3X1FV8S5JYYHK9XDQXCW2GXB364VGW", "current_trial": 235, "dateTime": 1513018015560, "trialdata": {"rt": -1, "stimulus": "<p id=\"stim\">1</p>", "key_press": -1, "trial_type": "single-stim", "trial_index": 235, "time_elapsed": 1053585, "internal_node_id": "0.0-172.0-9.0"}}, {"uniqueid": "MTK1049:3X1FV8S5JYYHK9XDQXCW2GXB364VGW", "current_trial": 236, "dateTime": 1513018017060, "trialdata": {"rt": -1, "stimulus": "<p id=\"stim\">+</p>", "key_press": -1, "type": "FIXATION", "trial_type": "single-stim", "trial_index": 236, "time_elapsed": 1055085, "internal_node_id": "0.0-173.0-0.0"}}, {"uniqueid": "MTK1049:3X1FV8S5JYYHK9XDQXCW2GXB364VGW", "current_trial": 237, "dateTime": 1513018018662, "trialdata": {"rt": -1, "stimulus": "<p id=\"stim\">LASER</p>", "key_press": -1, "type": "PRES_VIS", "word": "laser", "wordID": 800, "conditions": [12, 1600, "v", 12000], "trial": 6, "serialpos": 0, "trial_type": "single-stim", "trial_index": 237, "time_elapsed": 1056687, "internal_node_id": "0.0-174.0"}}, {"uniqueid": "MTK1049:3X1FV8S5JYYHK9XDQXCW2GXB364VGW", "current_trial": 238, "dateTime": 1513018021358, "trialdata": {"rt": -1, "stimulus": "<p id=\"stim\">ISLAND</p>", "key_press": -1, "type": "PRES_VIS", "word": "island", "wordID": 744, "conditions": [12, 1600, "v", 12000], "trial": 6, "serialpos": 1, "trial_type": "single-stim", "trial_index": 238, "time_elapsed": 1059383, "internal_node_id": "0.0-175.0"}}, {"uniqueid": "MTK1049:3X1FV8S5JYYHK9XDQXCW2GXB364VGW", "current_trial": 239, "dateTime": 1513018024052, "trialdata": {"rt": -1, "stimulus": "<p id=\"stim\">LION</p>", "key_press": -1, "type": "PRES_VIS", "word": "lion", "wordID": 826, "conditions": [12, 1600, "v", 12000], "trial": 6, "serialpos": 2, "trial_type": "single-stim", "trial_index": 239, "time_elapsed": 1062077, "internal_node_id": "0.0-176.0"}}, {"uniqueid": "MTK1049:3X1FV8S5JYYHK9XDQXCW2GXB364VGW", "current_trial": 240, "dateTime": 1513018026790, "trialdata": {"rt": -1, "stimulus": "<p id=\"stim\">SHARK</p>", "key_press": -1, "type": "PRES_VIS", "word": "shark", "wordID": 1274, "conditions": [12, 1600, "v", 12000], "trial": 6, "serialpos": 3, "trial_type": "single-stim", "trial_index": 240, "time_elapsed": 1064815, "internal_node_id": "0.0-177.0"}}, {"uniqueid": "MTK1049:3X1FV8S5JYYHK9XDQXCW2GXB364VGW", "current_trial": 241, "dateTime": 1513018029430, "trialdata": {"rt": -1, "stimulus": "<p id=\"stim\">LAMP</p>", "key_press": -1, "type": "PRES_VIS", "word": "lamp", "wordID": 797, "conditions": [12, 1600, "v", 12000], "trial": 6, "serialpos": 4, "trial_type": "single-stim", "trial_index": 241, "time_elapsed": 1067455, "internal_node_id": "0.0-178.0"}}, {"uniqueid": "MTK1049:3X1FV8S5JYYHK9XDQXCW2GXB364VGW", "current_trial": 242, "dateTime": 1513018032013, "trialdata": {"rt": -1, "stimulus": "<p id=\"stim\">ELBOW</p>", "key_press": -1, "type": "PRES_VIS", "word": "elbow", "wordID": 519, "conditions": [12, 1600, "v", 12000], "trial": 6, "serialpos": 5, "trial_type": "single-stim", "trial_index": 242, "time_elapsed": 1070038, "internal_node_id": "0.0-179.0"}}, {"uniqueid": "MTK1049:3X1FV8S5JYYHK9XDQXCW2GXB364VGW", "current_trial": 243, "dateTime": 1513018034668, "trialdata": {"rt": -1, "stimulus": "<p id=\"stim\">CLOTHES</p>", "key_press": -1, "type": "PRES_VIS", "word": "clothes", "wordID": 326, "conditions": [12, 1600, "v", 12000], "trial": 6, "serialpos": 6, "trial_type": "single-stim", "trial_index": 243, "time_elapsed": 1072693, "internal_node_id": "0.0-180.0"}}, {"uniqueid": "MTK1049:3X1FV8S5JYYHK9XDQXCW2GXB364VGW", "current_trial": 244, "dateTime": 1513018037468, "trialdata": {"rt": -1, "stimulus": "<p id=\"stim\">DENIM</p>", "key_press": -1, "type": "PRES_VIS", "word": "denim", "wordID": 445, "conditions": [12, 1600, "v", 12000], "trial": 6, "serialpos": 7, "trial_type": "single-stim", "trial_index": 244, "time_elapsed": 1075493, "internal_node_id": "0.0-181.0"}}, {"uniqueid": "MTK1049:3X1FV8S5JYYHK9XDQXCW2GXB364VGW", "current_trial": 245, "dateTime": 1513018040153, "trialdata": {"rt": -1, "stimulus": "<p id=\"stim\">SWITCH</p>", "key_press": -1, "type": "PRES_VIS", "word": "switch", "wordID": 1421, "conditions": [12, 1600, "v", 12000], "trial": 6, "serialpos": 8, "trial_type": "single-stim", "trial_index": 245, "time_elapsed": 1078178, "internal_node_id": "0.0-182.0"}}, {"uniqueid": "MTK1049:3X1FV8S5JYYHK9XDQXCW2GXB364VGW", "current_trial": 246, "dateTime": 1513018042712, "trialdata": {"rt": -1, "stimulus": "<p id=\"stim\">PECAN</p>", "key_press": -1, "type": "PRES_VIS", "word": "pecan", "wordID": 1035, "conditions": [12, 1600, "v", 12000], "trial": 6, "serialpos": 9, "trial_type": "single-stim", "trial_index": 246, "time_elapsed": 1080737, "internal_node_id": "0.0-183.0"}}, {"uniqueid": "MTK1049:3X1FV8S5JYYHK9XDQXCW2GXB364VGW", "current_trial": 247, "dateTime": 1513018045347, "trialdata": {"rt": -1, "stimulus": "<p id=\"stim\">ANKLE</p>", "key_press": -1, "type": "PRES_VIS", "word": "ankle", "wordID": 23, "conditions": [12, 1600, "v", 12000], "trial": 6, "serialpos": 10, "trial_type": "single-stim", "trial_index": 247, "time_elapsed": 1083372, "internal_node_id": "0.0-184.0"}}, {"uniqueid": "MTK1049:3X1FV8S5JYYHK9XDQXCW2GXB364VGW", "current_trial": 248, "dateTime": 1513018048073, "trialdata": {"rt": -1, "stimulus": "<p id=\"stim\">BISON</p>", "key_press": -1, "type": "PRES_VIS", "word": "bison", "wordID": 130, "conditions": [12, 1600, "v", 12000], "trial": 6, "serialpos": 11, "trial_type": "single-stim", "trial_index": 248, "time_elapsed": 1086098, "internal_node_id": "0.0-185.0"}}, {"uniqueid": "MTK1049:3X1FV8S5JYYHK9XDQXCW2GXB364VGW", "current_trial": 249, "dateTime": 1513018050640, "trialdata": {"rt": -1, "stimulus": "", "key_press": -1, "type": "PRE_RECALL_DELAY", "trial_type": "single-stim", "trial_index": 249, "time_elapsed": 1088665, "internal_node_id": "0.0-186.0-0.0"}}, {"uniqueid": "MTK1049:3X1FV8S5JYYHK9XDQXCW2GXB364VGW", "current_trial": 250, "dateTime": 1513018051141, "trialdata": {"rt": -1000, "stimulus": "/static/audio/400Hz.wav", "key_press": -1, "type": "PRE_RECALL_ALERT", "trial_type": "single-audio", "trial_index": 250, "time_elapsed": 1089166, "internal_node_id": "0.0-187.0"}}, {"uniqueid": "MTK1049:3X1FV8S5JYYHK9XDQXCW2GXB364VGW", "current_trial": 251, "dateTime": 1513018111149, "trialdata": {"rt": [2652, 4904, 7243, 9486, 11115, 12675, 14608, 20819, 45308], "recwords": ["bison", "ankle", "clothes", "denim", "shark", "lazer", "pecan", "elbow", "lion"], "type": "FREE_RECALL", "conditions": [12, 1600, "v", 12000], "trial": 6, "trial_type": "free-recall", "trial_index": 251, "time_elapsed": 1149169, "internal_node_id": "0.0-188.0-0.0"}}, {"uniqueid": "MTK1049:3X1FV8S5JYYHK9XDQXCW2GXB364VGW", "current_trial": 252, "dateTime": 1513018114020, "trialdata": {"rt": 870, "key_press": 13, "type": "INSTRUCTIONS", "trial_type": "text", "trial_index": 252, "time_elapsed": 1152045, "internal_node_id": "0.0-189.0"}}, {"uniqueid": "MTK1049:3X1FV8S5JYYHK9XDQXCW2GXB364VGW", "current_trial": 253, "dateTime": 1513018140024, "trialdata": {"rt": [2642, 5020, 7522, 12783, 15642, 17880], "responses": ["7", "14", "17", "16", "18", "12"], "num1": [1, 4, 5, 5, 7, 2, 8], "num2": [2, 2, 4, 9, 5, 7, 9], "num3": [4, 8, 8, 2, 6, 3, 4], "type": "DISTRACTOR", "conditions": [24, 800, "v", 24000], "trial": 7, "trial_type": "math-distractor", "trial_index": 253, "time_elapsed": 1178048, "internal_node_id": "0.0-190.0"}}, {"uniqueid": "MTK1049:3X1FV8S5JYYHK9XDQXCW2GXB364VGW", "current_trial": 254, "dateTime": 1513018143025, "trialdata": {"rt": -1, "stimulus": "<p id=\"stim\">10</p>", "key_press": -1, "trial_type": "single-stim", "trial_index": 254, "time_elapsed": 1181050, "internal_node_id": "0.0-191.0-0.0"}}, {"uniqueid": "MTK1049:3X1FV8S5JYYHK9XDQXCW2GXB364VGW", "current_trial": 255, "dateTime": 1513018144027, "trialdata": {"rt": -1, "stimulus": "<p id=\"stim\">9</p>", "key_press": -1, "trial_type": "single-stim", "trial_index": 255, "time_elapsed": 1182052, "internal_node_id": "0.0-191.0-1.0"}}, {"uniqueid": "MTK1049:3X1FV8S5JYYHK9XDQXCW2GXB364VGW", "current_trial": 256, "dateTime": 1513018145028, "trialdata": {"rt": -1, "stimulus": "<p id=\"stim\">8</p>", "key_press": -1, "trial_type": "single-stim", "trial_index": 256, "time_elapsed": 1183053, "internal_node_id": "0.0-191.0-2.0"}}, {"uniqueid": "MTK1049:3X1FV8S5JYYHK9XDQXCW2GXB364VGW", "current_trial": 257, "dateTime": 1513018146030, "trialdata": {"rt": -1, "stimulus": "<p id=\"stim\">7</p>", "key_press": -1, "trial_type": "single-stim", "trial_index": 257, "time_elapsed": 1184055, "internal_node_id": "0.0-191.0-3.0"}}, {"uniqueid": "MTK1049:3X1FV8S5JYYHK9XDQXCW2GXB364VGW", "current_trial": 258, "dateTime": 1513018147031, "trialdata": {"rt": -1, "stimulus": "<p id=\"stim\">6</p>", "key_press": -1, "trial_type": "single-stim", "trial_index": 258, "time_elapsed": 1185055, "internal_node_id": "0.0-191.0-4.0"}}, {"uniqueid": "MTK1049:3X1FV8S5JYYHK9XDQXCW2GXB364VGW", "current_trial": 259, "dateTime": 1513018148031, "trialdata": {"rt": -1, "stimulus": "<p id=\"stim\">5</p>", "key_press": -1, "trial_type": "single-stim", "trial_index": 259, "time_elapsed": 1186056, "internal_node_id": "0.0-191.0-5.0"}}, {"uniqueid": "MTK1049:3X1FV8S5JYYHK9XDQXCW2GXB364VGW", "current_trial": 260, "dateTime": 1513018149032, "trialdata": {"rt": -1, "stimulus": "<p id=\"stim\">4</p>", "key_press": -1, "trial_type": "single-stim", "trial_index": 260, "time_elapsed": 1187057, "internal_node_id": "0.0-191.0-6.0"}}, {"uniqueid": "MTK1049:3X1FV8S5JYYHK9XDQXCW2GXB364VGW", "current_trial": 261, "dateTime": 1513018150033, "trialdata": {"rt": -1, "stimulus": "<p id=\"stim\">3</p>", "key_press": -1, "trial_type": "single-stim", "trial_index": 261, "time_elapsed": 1188058, "internal_node_id": "0.0-191.0-7.0"}}, {"uniqueid": "MTK1049:3X1FV8S5JYYHK9XDQXCW2GXB364VGW", "current_trial": 262, "dateTime": 1513018151035, "trialdata": {"rt": -1, "stimulus": "<p id=\"stim\">2</p>", "key_press": -1, "trial_type": "single-stim", "trial_index": 262, "time_elapsed": 1189060, "internal_node_id": "0.0-191.0-8.0"}}, {"uniqueid": "MTK1049:3X1FV8S5JYYHK9XDQXCW2GXB364VGW", "current_trial": 263, "dateTime": 1513018152036, "trialdata": {"rt": -1, "stimulus": "<p id=\"stim\">1</p>", "key_press": -1, "trial_type": "single-stim", "trial_index": 263, "time_elapsed": 1190061, "internal_node_id": "0.0-191.0-9.0"}}, {"uniqueid": "MTK1049:3X1FV8S5JYYHK9XDQXCW2GXB364VGW", "current_trial": 264, "dateTime": 1513018153536, "trialdata": {"rt": -1, "stimulus": "<p id=\"stim\">+</p>", "key_press": -1, "type": "FIXATION", "trial_type": "single-stim", "trial_index": 264, "time_elapsed": 1191561, "internal_node_id": "0.0-192.0-0.0"}}, {"uniqueid": "MTK1049:3X1FV8S5JYYHK9XDQXCW2GXB364VGW", "current_trial": 265, "dateTime": 1513018154336, "trialdata": {"rt": -1, "stimulus": "<p id=\"stim\">ZEBRA</p>", "key_press": -1, "type": "PRES_VIS", "word": "zebra", "wordID": 1634, "conditions": [24, 800, "v", 24000], "trial": 7, "serialpos": 0, "trial_type": "single-stim", "trial_index": 265, "time_elapsed": 1192361, "internal_node_id": "0.0-193.0"}}, {"uniqueid": "MTK1049:3X1FV8S5JYYHK9XDQXCW2GXB364VGW", "current_trial": 266, "dateTime": 1513018156199, "trialdata": {"rt": -1, "stimulus": "<p id=\"stim\">SEAFOOD</p>", "key_press": -1, "type": "PRES_VIS", "word": "seafood", "wordID": 1259, "conditions": [24, 800, "v", 24000], "trial": 7, "serialpos": 1, "trial_type": "single-stim", "trial_index": 266, "time_elapsed": 1194224, "internal_node_id": "0.0-194.0"}}, {"uniqueid": "MTK1049:3X1FV8S5JYYHK9XDQXCW2GXB364VGW", "current_trial": 267, "dateTime": 1513018158016, "trialdata": {"rt": -1, "stimulus": "<p id=\"stim\">WIFE</p>", "key_press": -1, "type": "PRES_VIS", "word": "wife", "wordID": 1608, "conditions": [24, 800, "v", 24000], "trial": 7, "serialpos": 2, "trial_type": "single-stim", "trial_index": 267, "time_elapsed": 1196041, "internal_node_id": "0.0-195.0"}}, {"uniqueid": "MTK1049:3X1FV8S5JYYHK9XDQXCW2GXB364VGW", "current_trial": 268, "dateTime": 1513018159715, "trialdata": {"rt": -1, "stimulus": "<p id=\"stim\">DAUGHTER</p>", "key_press": -1, "type": "PRES_VIS", "word": "daughter", "wordID": 441, "conditions": [24, 800, "v", 24000], "trial": 7, "serialpos": 3, "trial_type": "single-stim", "trial_index": 268, "time_elapsed": 1197740, "internal_node_id": "0.0-196.0"}}, {"uniqueid": "MTK1049:3X1FV8S5JYYHK9XDQXCW2GXB364VGW", "current_trial": 269, "dateTime": 1513018161511, "trialdata": {"rt": -1, "stimulus": "<p id=\"stim\">SLIME</p>", "key_press": -1, "type": "PRES_VIS", "word": "slime", "wordID": 1326, "conditions": [24, 800, "v", 24000], "trial": 7, "serialpos": 4, "trial_type": "single-stim", "trial_index": 269, "time_elapsed": 1199536, "internal_node_id": "0.0-197.0"}}, {"uniqueid": "MTK1049:3X1FV8S5JYYHK9XDQXCW2GXB364VGW", "current_trial": 270, "dateTime": 1513018163390, "trialdata": {"rt": -1, "stimulus": "<p id=\"stim\">HAWK</p>", "key_press": -1, "type": "PRES_VIS", "word": "hawk", "wordID": 691, "conditions": [24, 800, "v", 24000], "trial": 7, "serialpos": 5, "trial_type": "single-stim", "trial_index": 270, "time_elapsed": 1201415, "internal_node_id": "0.0-198.0"}}, {"uniqueid": "MTK1049:3X1FV8S5JYYHK9XDQXCW2GXB364VGW", "current_trial": 271, "dateTime": 1513018165341, "trialdata": {"rt": -1, "stimulus": "<p id=\"stim\">WORKER</p>", "key_press": -1, "type": "PRES_VIS", "word": "worker", "wordID": 1620, "conditions": 