{"assignmentId": "3X66WABAJXPX80VU6N6QJL5SFR0G3M", "workerId": "MTK1655", "questiondata": {"origin": "United States", "strat-rehearsal": "61", "marital": "Married/Domestic Partnership", "education": "High school diploma", "ethnicity": "Not Hispanic", "color_depth": 24, "distracted": "No", "wrote-notes": "Yes", "strat-other": "", "screen_width": 1440, "avail_screen_width": 1440, "avail_screen_height": 797, "strat-image": "70", "language": "english", "gender": "Female", "age": "46", "gender_other": "", "race": ["White"], "strat-categorize": "83", "pixel_depth": 24, "strat-spatial": "55", "strat-story": "36", "race_other": "", "screen_height": 900}, "bonus": 0, "hitId": "37OPIVELUUA95XRW96YG29ZFIKSAH7", "counterbalance": 644, "useragent": "Mozilla/5.0 (Macintosh; Intel Mac OS X 10_13_2) AppleWebKit/537.36 (KHTML, like Gecko) Chrome/63.0.3239.132 Safari/537.36", "eventdata": [{"eventtype": "initialized", "interval": 0, "value": null, "timestamp": 1516121319915}, {"eventtype": "window_resize", "interval": 0, "value": [1440, 746], "timestamp": 1516121319915}, {"eventtype": "focus", "interval": 237373, "value": "off", "timestamp": 1516121557288}, {"eventtype": "focus", "interval": 7837, "value": "on", "timestamp": 1516121565125}, {"eventtype": "focus", "interval": 936732, "value": "off", "timestamp": 1516122501857}, {"eventtype": "focus", "interval": 46991, "value": "on", "timestamp": 1516122548848}, {"eventtype": "focus", "interval": 286838, "value": "off", "timestamp": 1516122835686}, {"eventtype": "focus", "interval": 45860, "value": "on", "timestamp": 1516122881546}, {"eventtype": "focus", "interval": 281227, "value": "off", "timestamp": 1516123162773}, {"eventtype": "focus", "interval": 9834, "value": "on", "timestamp": 1516123172607}, {"eventtype": "focus", "interval": 96578, "value": "off", "timestamp": 1516123269185}, {"eventtype": "focus", "interval": 20402, "value": "on", "timestamp": 1516123289587}, {"eventtype": "focus", "interval": 259514, "value": "off", "timestamp": 1516123549101}, {"eventtype": "focus", "interval": 16652, "value": "on", "timestamp": 1516123565753}, {"eventtype": "focus", "interval": 439523, "value": "off", "timestamp": 1516124005276}, {"eventtype": "focus", "interval": 8491, "value": "on", "timestamp": 1516124013767}, {"eventtype": "focus", "interval": 3, "value": "off", "timestamp": 1516124013770}, {"eventtype": "focus", "interval": 30510, "value": "on", "timestamp": 1516124044280}, {"eventtype": "focus", "interval": 105871, "value": "off", "timestamp": 1516124150151}, {"eventtype": "focus", "interval": 8611, "value": "on", "timestamp": 1516124158762}, {"eventtype": "focus", "interval": 384751, "value": "off", "timestamp": 1516124543513}, {"eventtype": "focus", "interval": 7771, "value": "on", "timestamp": 1516124551284}, {"eventtype": "focus", "interval": 175777, "value": "off", "timestamp": 1516124727061}, {"eventtype": "focus", "interval": 61459, "value": "on", "timestamp": 1516124788520}, {"eventtype": "focus", "interval": 2301, "value": "off", "timestamp": 1516124790821}, {"eventtype": "focus", "interval": 37653, "value": "on", "timestamp": 1516124828474}, {"eventtype": "focus", "interval": 1575, "value": "off", "timestamp": 1516124830049}, {"eventtype": "focus", "interval": 59383, "value": "on", "timestamp": 1516124889432}], "data": [{"current_trial": 0, "trialdata": {"rt": 96770, "trial_type": "text", "internal_node_id": "0.0-0.0", "time_elapsed": 96772, "key_press": 32, "type": "INSTRUCTIONS", "trial_index": 0}, "uniqueid": "MTK1655:3X66WABAJXPX80VU6N6QJL5SFR0G3M", "dateTime": 1516121426661}, {"current_trial": 1, "trialdata": {"rt": 14917, "trial_type": "text", "internal_node_id": "0.0-1.0", "time_elapsed": 111691, "key_press": 13, "type": "INSTRUCTIONS", "trial_index": 1}, "uniqueid": "MTK1655:3X66WABAJXPX80VU6N6QJL5SFR0G3M", "dateTime": 1516121441579}, {"current_trial": 2, "trialdata": {"rt": [22660], "trial_type": "audio-test", "responses": ["ocean"], "internal_node_id": "0.0-2.0", "time_elapsed": 134363, "type": "AUDIO_TEST", "trial_index": 2}, "uniqueid": "MTK1655:3X66WABAJXPX80VU6N6QJL5SFR0G3M", "dateTime": 1516121464251}, {"current_trial": 3, "trialdata": {"rt": [6331], "trial_type": "audio-test", "responses": ["crystal"], "internal_node_id": "0.0-3.0", "time_elapsed": 140698, "type": "AUDIO_TEST", "trial_index": 3}, "uniqueid": "MTK1655:3X66WABAJXPX80VU6N6QJL5SFR0G3M", "dateTime": 1516121470586}, {"current_trial": 4, "trialdata": {"rt": [4509], "trial_type": "audio-test", "responses": ["spice"], "internal_node_id": "0.0-4.0", "time_elapsed": 145210, "type": "AUDIO_TEST", "trial_index": 4}, "uniqueid": "MTK1655:3X66WABAJXPX80VU6N6QJL5SFR0G3M", "dateTime": 1516121475098}, {"current_trial": 5, "trialdata": {"rt": 27086, "trial_type": "survey-text", "responses": "{\"Q0\":\"10\",\"Q1\":\"5\",\"Q2\":\"4\"}", "internal_node_id": "0.0-5.0", "time_elapsed": 173051, "type": "SLEEP_SURVEY", "trial_index": 5}, "uniqueid": "MTK1655:3X66WABAJXPX80VU6N6QJL5SFR0G3M", "dateTime": 1516121502939}, {"current_trial": 6, "trialdata": {"rt": 23794, "trial_type": "text", "internal_node_id": "0.0-6.0", "time_elapsed": 197849, "key_press": 13, "type": "INSTRUCTIONS", "trial_index": 6}, "uniqueid": "MTK1655:3X66WABAJXPX80VU6N6QJL5SFR0G3M", "dateTime": 1516121527737}, {"current_trial": 7, "trialdata": {"rt": 23915, "trial_type": "text", "internal_node_id": "0.0-7.0", "time_elapsed": 222269, "key_press": 32, "type": "INSTRUCTIONS", "trial_index": 7}, "uniqueid": "MTK1655:3X66WABAJXPX80VU6N6QJL5SFR0G3M", "dateTime": 1516121552157}, {"current_trial": 8, "trialdata": {"rt": 19455, "trial_type": "text", "internal_node_id": "0.0-8.0", "time_elapsed": 242225, "key_press": 32, "type": "INSTRUCTIONS", "trial_index": 8}, "uniqueid": "MTK1655:3X66WABAJXPX80VU6N6QJL5SFR0G3M", "dateTime": 1516121572113}, {"current_trial": 9, "trialdata": {"rt": [7646, 14638], "trial_type": "math-distractor", "key_times": [6558, 6902, 7646, 13791, 14254, 14638], "responses": ["13", "14"], "num2": [2, 3, 5], "num3": [4, 3, 7], "conditions": [18, 1200, "a", 18000], "internal_node_id": "0.0-9.0", "key_presses": [49, 51, 13, 49, 52, 13], "trial": 0, "time_elapsed": 261237, "type": "DISTRACTOR", "trial_index": 9, "num1": [7, 8, 9]}, "uniqueid": "MTK1655:3X66WABAJXPX80VU6N6QJL5SFR0G3M", "dateTime": 1516121591125}, {"current_trial": 10, "trialdata": {"rt": -1, "trial_type": "single-stim", "stimulus": "<p id=\"stim\">10</p>", "internal_node_id": "0.0-10.0-0.0", "time_elapsed": 264245, "key_press": -1, "trial_index": 10}, "uniqueid": "MTK1655:3X66WABAJXPX80VU6N6QJL5SFR0G3M", "dateTime": 1516121594133}, {"current_trial": 11, "trialdata": {"rt": -1, "trial_type": "single-stim", "stimulus": "<p id=\"stim\">9</p>", "internal_node_id": "0.0-10.0-1.0", "time_elapsed": 265249, "key_press": -1, "trial_index": 11}, "uniqueid": "MTK1655:3X66WABAJXPX80VU6N6QJL5SFR0G3M", "dateTime": 1516121595137}, {"current_trial": 12, "trialdata": {"rt": -1, "trial_type": "single-stim", "stimulus": "<p id=\"stim\">8</p>", "internal_node_id": "0.0-10.0-2.0", "time_elapsed": 266253, "key_press": -1, "trial_index": 12}, "uniqueid": "MTK1655:3X66WABAJXPX80VU6N6QJL5SFR0G3M", "dateTime": 1516121596141}, {"current_trial": 13, "trialdata": {"rt": -1, "trial_type": "single-stim", "stimulus": "<p id=\"stim\">7</p>", "internal_node_id": "0.0-10.0-3.0", "time_elapsed": 267257, "key_press": -1, "trial_index": 13}, "uniqueid": "MTK1655:3X66WABAJXPX80VU6N6QJL5SFR0G3M", "dateTime": 1516121597145}, {"current_trial": 14, "trialdata": {"rt": -1, "trial_type": "single-stim", "stimulus": "<p id=\"stim\">6</p>", "internal_node_id": "0.0-10.0-4.0", "time_elapsed": 268261, "key_press": -1, "trial_index": 14}, "uniqueid": "MTK1655:3X66WABAJXPX80VU6N6QJL5SFR0G3M", "dateTime": 1516121598149}, {"current_trial": 15, "trialdata": {"rt": -1, "trial_type": "single-stim", "stimulus": "<p id=\"stim\">5</p>", "internal_node_id": "0.0-10.0-5.0", "time_elapsed": 269266, "key_press": -1, "trial_index": 15}, "uniqueid": "MTK1655:3X66WABAJXPX80VU6N6QJL5SFR0G3M", "dateTime": 1516121599154}, {"current_trial": 16, "trialdata": {"rt": -1, "trial_type": "single-stim", "stimulus": "<p id=\"stim\">4</p>", "internal_node_id": "0.0-10.0-6.0", "time_elapsed": 270269, "key_press": -1, "trial_index": 16}, "uniqueid": "MTK1655:3X66WABAJXPX80VU6N6QJL5SFR0G3M", "dateTime": 1516121600157}, {"current_trial": 17, "trialdata": {"rt": -1, "trial_type": "single-stim", "stimulus": "<p id=\"stim\">3</p>", "internal_node_id": "0.0-10.0-7.0", "time_elapsed": 271275, "key_press": -1, "trial_index": 17}, "uniqueid": "MTK1655:3X66WABAJXPX80VU6N6QJL5SFR0G3M", "dateTime": 1516121601163}, {"current_trial": 18, "trialdata": {"rt": -1, "trial_type": "single-stim", "stimulus": "<p id=\"stim\">2</p>", "internal_node_id": "0.0-10.0-8.0", "time_elapsed": 272277, "key_press": -1, "trial_index": 18}, "uniqueid": "MTK1655:3X66WABAJXPX80VU6N6QJL5SFR0G3M", "dateTime": 1516121602165}, {"current_trial": 19, "trialdata": {"rt": -1, "trial_type": "single-stim", "stimulus": "<p id=\"stim\">1</p>", "internal_node_id": "0.0-10.0-9.0", "time_elapsed": 273283, "key_press": -1, "trial_index": 19}, "uniqueid": "MTK1655:3X66WABAJXPX80VU6N6QJL5SFR0G3M", "dateTime": 1516121603171}, {"current_trial": 20, "trialdata": {"rt": -1, "trial_type": "single-stim", "stimulus": "<p id=\"stim\">+</p>", "internal_node_id": "0.0-11.0-0.0", "time_elapsed": 274785, "key_press": -1, "type": "FIXATION", "trial_index": 20}, "uniqueid": "MTK1655:3X66WABAJXPX80VU6N6QJL5SFR0G3M", "dateTime": 1516121604673}, {"current_trial": 21, "trialdata": {"rt": -1000, "trial_type": "single-audio", "word": "cashew", "stimulus": "/static/audio/wordpool/CASHEW.wav", "conditions": [18, 1200, "a", 18000], "internal_node_id": "0.0-12.0", "trial": 0, "time_elapsed": 277032, "serialpos": 0, "key_press": -1, "wordID": 252, "type": "PRES_AUD", "trial_index": 21}, "uniqueid": "MTK1655:3X66WABAJXPX80VU6N6QJL5SFR0G3M", "dateTime": 1516121606920}, {"current_trial": 22, "trialdata": {"rt": -1000, "trial_type": "single-audio", "word": "drill", "stimulus": "/static/audio/wordpool/DRILL.wav", "conditions": [18, 1200, "a", 18000], "internal_node_id": "0.0-13.0", "trial": 0, "time_elapsed": 279105, "serialpos": 1, "key_press": -1, "wordID": 496, "type": "PRES_AUD", "trial_index": 22}, "uniqueid": "MTK1655:3X66WABAJXPX80VU6N6QJL5SFR0G3M", "dateTime": 1516121608993}, {"current_trial": 23, "trialdata": {"rt": -1000, "trial_type": "single-audio", "word": "cafe", "stimulus": "/static/audio/wordpool/CAFE.wav", "conditions": [18, 1200, "a", 18000], "internal_node_id": "0.0-14.0", "trial": 0, "time_elapsed": 281387, "serialpos": 2, "key_press": -1, "wordID": 215, "type": "PRES_AUD", "trial_index": 23}, "uniqueid": "MTK1655:3X66WABAJXPX80VU6N6QJL5SFR0G3M", "dateTime": 1516121611275}, {"current_trial": 24, "trialdata": {"rt": -1000, "trial_type": "single-audio", "word": "swimmer", "stimulus": "/static/audio/wordpool/SWIMMER.wav", "conditions": [18, 1200, "a", 18000], "internal_node_id": "0.0-15.0", "trial": 0, "time_elapsed": 283780, "serialpos": 3, "key_press": -1, "wordID": 1419, "type": "PRES_AUD", "trial_index": 24}, "uniqueid": "MTK1655:3X66WABAJXPX80VU6N6QJL5SFR0G3M", "dateTime": 1516121613668}, {"current_trial": 25, "trialdata": {"rt": -1000, "trial_type": "single-audio", "word": "dashboard", "stimulus": "/static/audio/wordpool/DASHBOARD.wav", "conditions": [18, 1200, "a", 18000], "internal_node_id": "0.0-16.0", "trial": 0, "time_elapsed": 286044, "serialpos": 4, "key_press": -1, "wordID": 440, "type": "PRES_AUD", "trial_index": 25}, "uniqueid": "MTK1655:3X66WABAJXPX80VU6N6QJL5SFR0G3M", "dateTime": 1516121615933}, {"current_trial": 26, "trialdata": {"rt": -1000, "trial_type": "single-audio", "word": "ankle", "stimulus": "/static/audio/wordpool/ANKLE.wav", "conditions": [18, 1200, "a", 18000], "internal_node_id": "0.0-17.0", "trial": 0, "time_elapsed": 288400, "serialpos": 5, "key_press": -1, "wordID": 23, "type": "PRES_AUD", "trial_index": 26}, "uniqueid": "MTK1655:3X66WABAJXPX80VU6N6QJL5SFR0G3M", "dateTime": 1516121618288}, {"current_trial": 27, "trialdata": {"rt": -1000, "trial_type": "single-audio", "word": "queen", "stimulus": "/static/audio/wordpool/QUEEN.wav", "conditions": [18, 1200, "a", 18000], "internal_node_id": "0.0-18.0", "trial": 0, "time_elapsed": 290762, "serialpos": 6, "key_press": -1, "wordID": 1148, "type": "PRES_AUD", "trial_index": 27}, "uniqueid": "MTK1655:3X66WABAJXPX80VU6N6QJL5SFR0G3M", "dateTime": 1516121620650}, {"current_trial": 28, "trialdata": {"rt": -1000, "trial_type": "single-audio", "word": "france", "stimulus": "/static/audio/wordpool/FRANCE.wav", "conditions": [18, 1200, "a", 18000], "internal_node_id": "0.0-19.0", "trial": 0, "time_elapsed": 292975, "serialpos": 7, "key_press": -1, "wordID": 600, "type": "PRES_AUD", "trial_index": 28}, "uniqueid": "MTK1655:3X66WABAJXPX80VU6N6QJL5SFR0G3M", "dateTime": 1516121622863}, {"current_trial": 29, "trialdata": {"rt": -1000, "trial_type": "single-audio", "word": "robot", "stimulus": "/static/audio/wordpool/ROBOT.wav", "conditions": [18, 1200, "a", 18000], "internal_node_id": "0.0-20.0", "trial": 0, "time_elapsed": 295004, "serialpos": 8, "key_press": -1, "wordID": 1199, "type": "PRES_AUD", "trial_index": 29}, "uniqueid": "MTK1655:3X66WABAJXPX80VU6N6QJL5SFR0G3M", "dateTime": 1516121624893}, {"current_trial": 30, "trialdata": {"rt": -1000, "trial_type": "single-audio", "word": "quarter", "stimulus": "/static/audio/wordpool/QUARTER.wav", "conditions": [18, 1200, "a", 18000], "internal_node_id": "0.0-21.0", "trial": 0, "time_elapsed": 297210, "serialpos": 9, "key_press": -1, "wordID": 1147, "type": "PRES_AUD", "trial_index": 30}, "uniqueid": "MTK1655:3X66WABAJXPX80VU6N6QJL5SFR0G3M", "dateTime": 1516121627098}, {"current_trial": 31, "trialdata": {"rt": -1000, "trial_type": "single-audio", "word": "banjo", "stimulus": "/static/audio/wordpool/BANJO.wav", "conditions": [18, 1200, "a", 18000], "internal_node_id": "0.0-22.0", "trial": 0, "time_elapsed": 299224, "serialpos": 10, "key_press": -1, "wordID": 81, "type": "PRES_AUD", "trial_index": 31}, "uniqueid": "MTK1655:3X66WABAJXPX80VU6N6QJL5SFR0G3M", "dateTime": 1516121629112}, {"current_trial": 32, "trialdata": {"rt": -1000, "trial_type": "single-audio", "word": "valve", "stimulus": "/static/audio/wordpool/VALVE.wav", "conditions": [18, 1200, "a", 18000], "internal_node_id": "0.0-23.0", "trial": 0, "time_elapsed": 301366, "serialpos": 11, "key_press": -1, "wordID": 1545, "type": "PRES_AUD", "trial_index": 32}, "uniqueid": "MTK1655:3X66WABAJXPX80VU6N6QJL5SFR0G3M", "dateTime": 1516121631254}, {"current_trial": 33, "trialdata": {"rt": -1000, "trial_type": "single-audio", "word": "critic", "stimulus": "/static/audio/wordpool/CRITIC.wav", "conditions": [18, 1200, "a", 18000], "internal_node_id": "0.0-24.0", "trial": 0, "time_elapsed": 303635, "serialpos": 12, "key_press": -1, "wordID": 409, "type": "PRES_AUD", "trial_index": 33}, "uniqueid": "MTK1655:3X66WABAJXPX80VU6N6QJL5SFR0G3M", "dateTime": 1516121633523}, {"current_trial": 34, "trialdata": {"rt": -1000, "trial_type": "single-audio", "word": "airport", "stimulus": "/static/audio/wordpool/AIRPORT.wav", "conditions": [18, 1200, "a", 18000], "internal_node_id": "0.0-25.0", "trial": 0, "time_elapsed": 305649, "serialpos": 13, "key_press": -1, "wordID": 12, "type": "PRES_AUD", "trial_index": 34}, "uniqueid": "MTK1655:3X66WABAJXPX80VU6N6QJL5SFR0G3M", "dateTime": 1516121635537}, {"current_trial": 35, "trialdata": {"rt": -1000, "trial_type": "single-audio", "word": "concert", "stimulus": "/static/audio/wordpool/CONCERT.wav", "conditions": [18, 1200, "a", 18000], "internal_node_id": "0.0-26.0", "trial": 0, "time_elapsed": 308005, "serialpos": 14, "key_press": -1, "wordID": 359, "type": "PRES_AUD", "trial_index": 35}, "uniqueid": "MTK1655:3X66WABAJXPX80VU6N6QJL5SFR0G3M", "dateTime": 1516121637893}, {"current_trial": 36, "trialdata": {"rt": -1000, "trial_type": "single-audio", "word": "costume", "stimulus": "/static/audio/wordpool/COSTUME.wav", "conditions": [18, 1200, "a", 18000], "internal_node_id": "0.0-27.0", "trial": 0, "time_elapsed": 310127, "serialpos": 15, "key_press": -1, "wordID": 382, "type": "PRES_AUD", "trial_index": 36}, "uniqueid": "MTK1655:3X66WABAJXPX80VU6N6QJL5SFR0G3M", "dateTime": 1516121640015}, {"current_trial": 37, "trialdata": {"rt": -1000, "trial_type": "single-audio", "word": "bathtub", "stimulus": "/static/audio/wordpool/BATHTUB.wav", "conditions": [18, 1200, "a", 18000], "internal_node_id": "0.0-28.0", "trial": 0, "time_elapsed": 312438, "serialpos": 16, "key_press": -1, "wordID": 99, "type": "PRES_AUD", "trial_index": 37}, "uniqueid": "MTK1655:3X66WABAJXPX80VU6N6QJL5SFR0G3M", "dateTime": 1516121642326}, {"current_trial": 38, "trialdata": {"rt": -1000, "trial_type": "single-audio", "word": "daughter", "stimulus": "/static/audio/wordpool/DAUGHTER.wav", "conditions": [18, 1200, "a", 18000], "internal_node_id": "0.0-29.0", "trial": 0, "time_elapsed": 314552, "serialpos": 17, "key_press": -1, "wordID": 441, "type": "PRES_AUD", "trial_index": 38}, "uniqueid": "MTK1655:3X66WABAJXPX80VU6N6QJL5SFR0G3M", "dateTime": 1516121644440}, {"current_trial": 39, "trialdata": {"rt": -1, "trial_type": "single-stim", "stimulus": "", "internal_node_id": "0.0-30.0-0.0", "time_elapsed": 315827, "key_press": -1, "type": "PRE_RECALL_DELAY", "trial_index": 39}, "uniqueid": "MTK1655:3X66WABAJXPX80VU6N6QJL5SFR0G3M", "dateTime": 1516121645716}, {"current_trial": 40, "trialdata": {"rt": -1000, "trial_type": "single-audio", "stimulus": "/static/audio/400Hz.wav", "internal_node_id": "0.0-31.0", "time_elapsed": 316329, "key_press": -1, "type": "PRE_RECALL_ALERT", "trial_index": 40}, "uniqueid": "MTK1655:3X66WABAJXPX80VU6N6QJL5SFR0G3M", "dateTime": 1516121646217}, {"current_trial": 41, "trialdata": {"rt": [2522, 4956, 7522, 9786, 12378, 23923, 28890], "recwords": ["cashew", "drill", "daughter", "drill", "queen", "", "canteen"], "key_times": [1283, 1354, 1578, 1754, 1979, 2274, 2522, 3466, 3730, 3970, 4186, 4338, 4956, 5850, 5978, 6265, 6514, 6690, 6890, 7034, 7290, 7522, 8298, 8530, 8738, 8986, 9161, 9786, 11122, 11338, 11546, 11754, 11954, 12378, 23923, 27562, 27633, 27857, 28097, 28234, 28426, 28570, 28890], "trial_type": "free-recall", "conditions": [18, 1200, "a", 18000], "internal_node_id": "0.0-32.0-0.0", "key_presses": [67, 65, 83, 72, 69, 87, 13, 68, 82, 73, 76, 76, 13, 68, 65, 85, 71, 72, 84, 69, 82, 13, 68, 82, 73, 76, 76, 13, 81, 85, 69, 69, 78, 13, 13, 67, 65, 78, 84, 69, 69, 78, 13], "trial": 0, "time_elapsed": 376334, "type": "FREE_RECALL", "trial_index": 41}, "uniqueid": "MTK1655:3X66WABAJXPX80VU6N6QJL5SFR0G3M", "dateTime": 1516121706225}, {"current_trial": 42, "trialdata": {"rt": 2544, "trial_type": "text", "internal_node_id": "0.0-33.0", "time_elapsed": 380885, "key_press": 32, "type": "INSTRUCTIONS", "trial_index": 42}, "uniqueid": "MTK1655:3X66WABAJXPX80VU6N6QJL5SFR0G3M", "dateTime": 1516121710773}, {"current_trial": 43, "trialdata": {"rt": [3835, 7659, 10259, 14347, 16905], "trial_type": "math-distractor", "key_times": [3307, 3419, 3835, 6915, 7347, 7659, 9379, 9883, 10259, 12483, 13067, 13987, 14347, 16034, 16546, 16905], "responses": ["12", "17", "16", "5", "20"], "num2": [4, 5, 4, 2, 9, 5], "num3": [3, 8, 8, 1, 2, 8], "conditions": [18, 1200, "a", 18000], "internal_node_id": "0.0-34.0", "key_presses": [49, 50, 13, 49, 55, 13, 49, 54, 13, 52, 8, 53, 13, 50, 48, 13], "trial": 1, "time_elapsed": 400895, "type": "DISTRACTOR", "trial_index": 43, "num1": [5, 4, 4, 2, 9, 7]}, "uniqueid": "MTK1655:3X66WABAJXPX80VU6N6QJL5SFR0G3M", "dateTime": 1516121730783}, {"current_trial": 44, "trialdata": {"rt": -1, "trial_type": "single-stim", "stimulus": "<p id=\"stim\">10</p>", "internal_node_id": "0.0-35.0-0.0", "time_elapsed": 403905, "key_press": -1, "trial_index": 44}, "uniqueid": "MTK1655:3X66WABAJXPX80VU6N6QJL5SFR0G3M", "dateTime": 1516121733793}, {"current_trial": 45, "trialdata": {"rt": -1, "trial_type": "single-stim", "stimulus": "<p id=\"stim\">9</p>", "internal_node_id": "0.0-35.0-1.0", "time_elapsed": 404909, "key_press": -1, "trial_index": 45}, "uniqueid": "MTK1655:3X66WABAJXPX80VU6N6QJL5SFR0G3M", "dateTime": 1516121734797}, {"current_trial": 46, "trialdata": {"rt": -1, "trial_type": "single-stim", "stimulus": "<p id=\"stim\">8</p>", "internal_node_id": "0.0-35.0-2.0", "time_elapsed": 405912, "key_press": -1, "trial_index": 46}, "uniqueid": "MTK1655:3X66WABAJXPX80VU6N6QJL5SFR0G3M", "dateTime": 1516121735800}, {"current_trial": 47, "trialdata": {"rt": -1, "trial_type": "single-stim", "stimulus": "<p id=\"stim\">7</p>", "internal_node_id": "0.0-35.0-3.0", "time_elapsed": 406917, "key_press": -1, "trial_index": 47}, "uniqueid": "MTK1655:3X66WABAJXPX80VU6N6QJL5SFR0G3M", "dateTime": 1516121736805}, {"current_trial": 48, "trialdata": {"rt": -1, "trial_type": "single-stim", "stimulus": "<p id=\"stim\">6</p>", "internal_node_id": "0.0-35.0-4.0", "time_elapsed": 407921, "key_press": -1, "trial_index": 48}, "uniqueid": "MTK1655:3X66WABAJXPX80VU6N6QJL5SFR0G3M", "dateTime": 1516121737809}, {"current_trial": 49, "trialdata": {"rt": -1, "trial_type": "single-stim", "stimulus": "<p id=\"stim\">5</p>", "internal_node_id": "0.0-35.0-5.0", "time_elapsed": 408925, "key_press": -1, "trial_index": 49}, "uniqueid": "MTK1655:3X66WABAJXPX80VU6N6QJL5SFR0G3M", "dateTime": 1516121738813}, {"current_trial": 50, "trialdata": {"rt": -1, "trial_type": "single-stim", "stimulus": "<p id=\"stim\">4</p>", "internal_node_id": "0.0-35.0-6.0", "time_elapsed": 409929, "key_press": -1, "trial_index": 50}, "uniqueid": "MTK1655:3X66WABAJXPX80VU6N6QJL5SFR0G3M", "dateTime": 1516121739817}, {"current_trial": 51, "trialdata": {"rt": -1, "trial_type": "single-stim", "stimulus": "<p id=\"stim\">3</p>", "internal_node_id": "0.0-35.0-7.0", "time_elapsed": 410933, "key_press": -1, "trial_index": 51}, "uniqueid": "MTK1655:3X66WABAJXPX80VU6N6QJL5SFR0G3M", "dateTime": 1516121740821}, {"current_trial": 52, "trialdata": {"rt": -1, "trial_type": "single-stim", "stimulus": "<p id=\"stim\">2</p>", "internal_node_id": "0.0-35.0-8.0", "time_elapsed": 411937, "key_press": -1, "trial_index": 52}, "uniqueid": "MTK1655:3X66WABAJXPX80VU6N6QJL5SFR0G3M", "dateTime": 1516121741825}, {"current_trial": 53, "trialdata": {"rt": -1, "trial_type": "single-stim", "stimulus": "<p id=\"stim\">1</p>", "internal_node_id": "0.0-35.0-9.0", "time_elapsed": 412941, "key_press": -1, "trial_index": 53}, "uniqueid": "MTK1655:3X66WABAJXPX80VU6N6QJL5SFR0G3M", "dateTime": 1516121742829}, {"current_trial": 54, "trialdata": {"rt": -1, "trial_type": "single-stim", "stimulus": "<p id=\"stim\">+</p>", "internal_node_id": "0.0-36.0-0.0", "time_elapsed": 414447, "key_press": -1, "type": "FIXATION", "trial_index": 54}, "uniqueid": "MTK1655:3X66WABAJXPX80VU6N6QJL5SFR0G3M", "dateTime": 1516121744335}, {"current_trial": 55, "trialdata": {"rt": -1000, "trial_type": "single-audio", "word": "blueprint", "stimulus": "/static/audio/wordpool/BLUEPRINT.wav", "conditions": [18, 1200, "a", 18000], "internal_node_id": "0.0-37.0", "trial": 1, "time_elapsed": 416629, "serialpos": 0, "key_press": -1, "wordID": 141, "type": "PRES_AUD", "trial_index": 55}, "uniqueid": "MTK1655:3X66WABAJXPX80VU6N6QJL5SFR0G3M", "dateTime": 1516121746517}, {"current_trial": 56, "trialdata": {"rt": -1000, "trial_type": "single-audio", "word": "quail", "stimulus": "/static/audio/wordpool/QUAIL.wav", "conditions": [18, 1200, "a", 18000], "internal_node_id": "0.0-38.0", "trial": 1, "time_elapsed": 418816, "serialpos": 1, "key_press": -1, "wordID": 1146, "type": "PRES_AUD", "trial_index": 56}, "uniqueid": "MTK1655:3X66WABAJXPX80VU6N6QJL5SFR0G3M", "dateTime": 1516121748704}, {"current_trial": 57, "trialdata": {"rt": -1000, "trial_type": "single-audio", "word": "barrel", "stimulus": "/static/audio/wordpool/BARREL.wav", "conditions": [18, 1200, "a", 18000], "internal_node_id": "0.0-39.0", "trial": 1, "time_elapsed": 420941, "serialpos": 2, "key_press": -1, "wordID": 90, "type": "PRES_AUD", "trial_index": 57}, "uniqueid": "MTK1655:3X66WABAJXPX80VU6N6QJL5SFR0G3M", "dateTime": 1516121750829}, {"current_trial": 58, "trialdata": {"rt": -1000, "trial_type": "single-audio", "word": "knapsack", "stimulus": "/static/audio/wordpool/KNAPSACK.wav", "conditions": [18, 1200, "a", 18000], "internal_node_id": "0.0-40.0", "trial": 1, "time_elapsed": 422949, "serialpos": 3, "key_press": -1, "wordID": 782, "type": "PRES_AUD", "trial_index": 58}, "uniqueid": "MTK1655:3X66WABAJXPX80VU6N6QJL5SFR0G3M", "dateTime": 1516121752837}, {"current_trial": 59, "trialdata": {"rt": -1000, "trial_type": "single-audio", "word": "cashier", "stimulus": "/static/audio/wordpool/CASHIER.wav", "conditions": [18, 1200, "a", 18000], "internal_node_id": "0.0-41.0", "trial": 1, "time_elapsed": 425228, "serialpos": 4, "key_press": -1, "wordID": 253, "type": "PRES_AUD", "trial_index": 59}, "uniqueid": "MTK1655:3X66WABAJXPX80VU6N6QJL5SFR0G3M", "dateTime": 1516121755116}, {"current_trial": 60, "trialdata": {"rt": -1000, "trial_type": "single-audio", "word": "paper", "stimulus": "/static/audio/wordpool/PAPER.wav", "conditions": [18, 1200, "a", 18000], "internal_node_id": "0.0-42.0", "trial": 1, "time_elapsed": 427464, "serialpos": 5, "key_press": -1, "wordID": 1010, "type": "PRES_AUD", "trial_index": 60}, "uniqueid": "MTK1655:3X66WABAJXPX80VU6N6QJL5SFR0G3M", "dateTime": 1516121757352}, {"current_trial": 61, "trialdata": {"rt": -1000, "trial_type": "single-audio", "word": "cabbage", "stimulus": "/static/audio/wordpool/CABBAGE.wav", "conditions": [18, 1200, "a", 18000], "internal_node_id": "0.0-43.0", "trial": 1, "time_elapsed": 429825, "serialpos": 6, "key_press": -1, "wordID": 209, "type": "PRES_AUD", "trial_index": 61}, "uniqueid": "MTK1655:3X66WABAJXPX80VU6N6QJL5SFR0G3M", "dateTime": 1516121759714}, {"current_trial": 62, "trialdata": {"rt": -1000, "trial_type": "single-audio", "word": "church", "stimulus": "/static/audio/wordpool/CHURCH.wav", "conditions": [18, 1200, "a", 18000], "internal_node_id": "0.0-44.0", "trial": 1, "time_elapsed": 432130, "serialpos": 7, "key_press": -1, "wordID": 306, "type": "PRES_AUD", "trial_index": 62}, "uniqueid": "MTK1655:3X66WABAJXPX80VU6N6QJL5SFR0G3M", "dateTime": 1516121762018}, {"current_trial": 63, "trialdata": {"rt": -1000, "trial_type": "single-audio", "word": "grill", "stimulus": "/static/audio/wordpool/GRILL.wav", "conditions": [18, 1200, "a", 18000], "internal_node_id": "0.0-45.0", "trial": 1, "time_elapsed": 434458, "serialpos": 8, "key_press": -1, "wordID": 660, "type": "PRES_AUD", "trial_index": 63}, "uniqueid": "MTK1655:3X66WABAJXPX80VU6N6QJL5SFR0G3M", "dateTime": 1516121764346}, {"current_trial": 64, "trialdata": {"rt": -1000, "trial_type": "single-audio", "word": "mammal", "stimulus": "/static/audio/wordpool/MAMMAL.wav", "conditions": [18, 1200, "a", 18000], "internal_node_id": "0.0-46.0", "trial": 1, "time_elapsed": 436513, "serialpos": 9, "key_press": -1, "wordID": 860, "type": "PRES_AUD", "trial_index": 64}, "uniqueid": "MTK1655:3X66WABAJXPX80VU6N6QJL5SFR0G3M", "dateTime": 1516121766401}, {"current_trial": 65, "trialdata": {"rt": -1000, "trial_type": "single-audio", "word": "asia", "stimulus": "/static/audio/wordpool/ASIA.wav", "conditions": [18, 1200, "a", 18000], "internal_node_id": "0.0-47.0", "trial": 1, "time_elapsed": 438886, "serialpos": 10, "key_press": -1, "wordID": 45, "type": "PRES_AUD", "trial_index": 65}, "uniqueid": "MTK1655:3X66WABAJXPX80VU6N6QJL5SFR0G3M", "dateTime": 1516121768774}, {"current_trial": 66, "trialdata": {"rt": -1000, "trial_type": "single-audio", "word": "tutu", "stimulus": "/static/audio/wordpool/TUTU.wav", "conditions": [18, 1200, "a", 18000], "internal_node_id": "0.0-48.0", "trial": 1, "time_elapsed": 441260, "serialpos": 11, "key_press": -1, "wordID": 1523, "type": "PRES_AUD", "trial_index": 66}, "uniqueid": "MTK1655:3X66WABAJXPX80VU6N6QJL5SFR0G3M", "dateTime": 1516121771148}, {"current_trial": 67, "trialdata": {"rt": -1000, "trial_type": "single-audio", "word": "brother", "stimulus": "/static/audio/wordpool/BROTHER.wav", "conditions": [18, 1200, "a", 18000], "internal_node_id": "0.0-49.0", "trial": 1, "time_elapsed": 443297, "serialpos": 12, "key_press": -1, "wordID": 178, "type": "PRES_AUD", "trial_index": 67}, "uniqueid": "MTK1655:3X66WABAJXPX80VU6N6QJL5SFR0G3M", "dateTime": 1516121773186}, {"current_trial": 68, "trialdata": {"rt": -1000, "trial_type": "single-audio", "word": "shrub", "stimulus": "/static/audio/wordpool/SHRUB.wav", "conditions": [18, 1200, "a", 18000], "internal_node_id": "0.0-50.0", "trial": 1, "time_elapsed": 445340, "serialpos": 13, "key_press": -1, "wordID": 1298, "type": "PRES_AUD", "trial_index": 68}, "uniqueid": "MTK1655:3X66WABAJXPX80VU6N6QJL5SFR0G3M", "dateTime": 1516121775230}, {"current_trial": 69, "trialdata": {"rt": -1000, "trial_type": "single-audio", "word": "banker", "stimulus": "/static/audio/wordpool/BANKER.wav", "conditions": [18, 1200, "a", 18000], "internal_node_id": "0.0-51.0", "trial": 1, "time_elapsed": 447742, "serialpos": 14, "key_press": -1, "wordID": 83, "type": "PRES_AUD", "trial_index": 69}, "uniqueid": "MTK1655:3X66WABAJXPX80VU6N6QJL5SFR0G3M", "dateTime": 1516121777630}, {"current_trial": 70, "trialdata": {"rt": -1000, "trial_type": "single-audio", "word": "blade", "stimulus": "/static/audio/wordpool/BLADE.wav", "conditions": [18, 1200, "a", 18000], "internal_node_id": "0.0-52.0", "trial": 1, "time_elapsed": 449995, "serialpos": 15, "key_press": -1, "wordID": 133, "type": "PRES_AUD", "trial_index": 70}, "uniqueid": "MTK1655:3X66WABAJXPX80VU6N6QJL5SFR0G3M", "dateTime": 1516121779883}, {"current_trial": 71, "trialdata": {"rt": -1000, "trial_type": "single-audio", "word": "cloud", "stimulus": "/static/audio/wordpool/CLOUD.wav", "conditions": [18, 1200, "a", 18000], "internal_node_id": "0.0-53.0", "trial": 1, "time_elapsed": 452336, "serialpos": 16, "key_press": -1, "wordID": 327, "type": "PRES_AUD", "trial_index": 71}, "uniqueid": "MTK1655:3X66WABAJXPX80VU6N6QJL5SFR0G3M", "dateTime": 1516121782224}, {"current_trial": 72, "trialdata": {"rt": -1000, "trial_type": "single-audio", "word": "coffee", "stimulus": "/static/audio/wordpool/COFFEE.wav", "conditions": [18, 1200, "a", 18000], "internal_node_id": "0.0-54.0", "trial": 1, "time_elapsed": 454562, "serialpos": 17, "key_press": -1, "wordID": 340, "type": "PRES_AUD", "trial_index": 72}, "uniqueid": "MTK1655:3X66WABAJXPX80VU6N6QJL5SFR0G3M", "dateTime": 1516121784451}, {"current_trial": 73, "trialdata": {"rt": -1, "trial_type": "single-stim", "stimulus": "", "internal_node_id": "0.0-55.0-0.0", "time_elapsed": 455804, "key_press": -1, "type": "PRE_RECALL_DELAY", "trial_index": 73}, "uniqueid": "MTK1655:3X66WABAJXPX80VU6N6QJL5SFR0G3M", "dateTime": 1516121785692}, {"current_trial": 74, "trialdata": {"rt": -1000, "trial_type": "single-audio", "stimulus": "/static/audio/400Hz.wav", "internal_node_id": "0.0-56.0", "time_elapsed": 456306, "key_press": -1, "type": "PRE_RECALL_ALERT", "trial_index": 74}, "uniqueid": "MTK1655:3X66WABAJXPX80VU6N6QJL5SFR0G3M", "dateTime": 1516121786195}, {"current_trial": 75, "trialdata": {"rt": [3877, 8934, 12709, 16845, 19141, 22836, 25701, 28892], "recwords": ["coffee", "quail", "cashier", "cabbage", "grill", "tutu", "asia", "shrub"], "key_times": [2039, 2341, 2734, 2917, 3197, 3621, 3877, 7015, 7525, 7686, 8278, 8469, 8934, 11117, 11229, 11461, 11669, 12110, 12268, 12509, 12709, 15125, 15269, 15597, 15757, 15901, 16205, 16317, 16845, 17333, 17525, 17805, 18037, 18197, 19141, 20711, 22093, 22317, 22445, 22836, 23205, 23462, 23805, 23909, 25701, 26109, 26317, 26628, 26860, 27093, 27900, 28317, 28892], "trial_type": "free-recall", "conditions": [18, 1200, "a", 18000], "internal_node_id": "0.0-57.0-0.0", "key_presses": [67, 79, 70, 70, 69, 69, 13, 81, 85, 65, 73, 76, 13, 67, 65, 83, 72, 73, 69, 82, 13, 67, 65, 66, 66, 65, 71, 69, 13, 71, 82, 73, 76, 76, 13, 84, 85, 84, 85, 13, 65, 83, 73, 65, 13, 83, 72, 82, 85, 78, 8, 66, 13], "trial": 1, "time_elapsed": 516310, "type": "FREE_RECALL", "trial_index": 75}, "uniqueid": "MTK1655:3X66WABAJXPX80VU6N6QJL5SFR0G3M", "dateTime": 1516121846199}, {"current_trial": 76, "trialdata": {"rt": 4381, "trial_type": "text", "internal_node_id": "0.0-58.0", "time_elapsed": 522695, "key_press": 32, "type": "INSTRUCTIONS", "trial_index": 76}, "uniqueid": "MTK1655:3X66WABAJXPX80VU6N6QJL5SFR0G3M", "dateTime": 1516121852583}, {"current_trial": 77, "trialdata": {"rt": [3551, 6191, 8888], "trial_type": "math-distractor", "key_times": [2776, 3095, 3551, 5407, 5783, 6191, 8455, 8671, 8888], "responses": ["15", "16", "12"], "num2": [2, 6, 7, 6], "num3": [8, 5, 4, 8], "conditions": [12, 1600, "a", 12000], "internal_node_id": "0.0-59.0", "key_presses": [49, 53, 13, 49, 54, 13, 49, 50, 13], "trial": 2, "time_elapsed": 535705, "type": "DISTRACTOR", "trial_index": 77, "num1": [5, 5, 1, 7]}, "uniqueid": "MTK1655:3X66WABAJXPX80VU6N6QJL5SFR0G3M", "dateTime": 1516121865593}, {"current_trial": 78, "trialdata": {"rt": -1, "trial_type": "single-stim", "stimulus": "<p id=\"stim\">10</p>", "internal_node_id": "0.0-60.0-0.0", "time_elapsed": 538715, "key_press": -1, "trial_index": 78}, "uniqueid": "MTK1655:3X66WABAJXPX80VU6N6QJL5SFR0G3M", "dateTime": 1516121868603}, {"current_trial": 79, "trialdata": {"rt": -1, "trial_type": "single-stim", "stimulus": "<p id=\"stim\">9</p>", "internal_node_id": "0.0-60.0-1.0", "time_elapsed": 539718, "key_press": -1, "trial_index": 79}, "uniqueid": "MTK1655:3X66WABAJXPX80VU6N6QJL5SFR0G3M", "dateTime": 1516121869606}, {"current_trial": 80, "trialdata": {"rt": -1, "trial_type": "single-stim", "stimulus": "<p id=\"stim\">8</p>", "internal_node_id": "0.0-60.0-2.0", "time_elapsed": 540723, "key_press": -1, "trial_index": 80}, "uniqueid": "MTK1655:3X66WABAJXPX80VU6N6QJL5SFR0G3M", "dateTime": 1516121870611}, {"current_trial": 81, "trialdata": {"rt": -1, "trial_type": "single-stim", "stimulus": "<p id=\"stim\">7</p>", "internal_node_id": "0.0-60.0-3.0", "time_elapsed": 541727, "key_press": -1, "trial_index": 81}, "uniqueid": "MTK1655:3X66WABAJXPX80VU6N6QJL5SFR0G3M", "dateTime": 1516121871615}, {"current_trial": 82, "trialdata": {"rt": -1, "trial_type": "single-stim", "stimulus": "<p id=\"stim\">6</p>", "internal_node_id": "0.0-60.0-4.0", "time_elapsed": 542731, "key_press": -1, "trial_index": 82}, "uniqueid": "MTK1655:3X66WABAJXPX80VU6N6QJL5SFR0G3M", "dateTime": 1516121872619}, {"current_trial": 83, "trialdata": {"rt": -1, "trial_type": "single-stim", "stimulus": "<p id=\"stim\">5</p>", "internal_node_id": "0.0-60.0-5.0", "time_elapsed": 543732, "key_press": -1, "trial_index": 83}, "uniqueid": "MTK1655:3X66WABAJXPX80VU6N6QJL5SFR0G3M", "dateTime": 1516121873621}, {"current_trial": 84, "trialdata": {"rt": -1, "trial_type": "single-stim", "stimulus": "<p id=\"stim\">4</p>", "internal_node_id": "0.0-60.0-6.0", "time_elapsed": 544734, "key_press": -1, "trial_index": 84}, "uniqueid": "MTK1655:3X66WABAJXPX80VU6N6QJL5SFR0G3M", "dateTime": 1516121874622}, {"current_trial": 85, "trialdata": {"rt": -1, "trial_type": "single-stim", "stimulus": "<p id=\"stim\">3</p>", "internal_node_id": "0.0-60.0-7.0", "time_elapsed": 545735, "key_press": -1, "trial_index": 85}, "uniqueid": "MTK1655:3X66WABAJXPX80VU6N6QJL5SFR0G3M", "dateTime": 1516121875623}, {"current_trial": 86, "trialdata": {"rt": -1, "trial_type": "single-stim", "stimulus": "<p id=\"stim\">2</p>", "internal_node_id": "0.0-60.0-8.0", "time_elapsed": 546736, "key_press": -1, "trial_index": 86}, "uniqueid": "MTK1655:3X66WABAJXPX80VU6N6QJL5SFR0G3M", "dateTime": 1516121876624}, {"current_trial": 87, "trialdata": {"rt": -1, "trial_type": "single-stim", "stimulus": "<p id=\"stim\">1</p>", "internal_node_id": "0.0-60.0-9.0", "time_elapsed": 547737, "key_press": -1, "trial_index": 87}, "uniqueid": "MTK1655:3X66WABAJXPX80VU6N6QJL5SFR0G3M", "dateTime": 1516121877625}, {"current_trial": 88, "trialdata": {"rt": -1, "trial_type": "single-stim", "stimulus": "<p id=\"stim\">+</p>", "internal_node_id": "0.0-61.0-0.0", "time_elapsed": 549242, "key_press": -1, "type": "FIXATION", "trial_index": 88}, "uniqueid": "MTK1655:3X66WABAJXPX80VU6N6QJL5SFR0G3M", "dateTime": 1516121879131}, {"current_trial": 89, "trialdata": {"rt": -1000, "trial_type": "single-audio", "word": "diver", "stimulus": "/static/audio/wordpool/DIVER.wav", "conditions": [12, 1600, "a", 12000], "internal_node_id": "0.0-62.0", "trial": 2, "time_elapsed": 551677, "serialpos": 0, "key_press": -1, "wordID": 475, "type": "PRES_AUD", "trial_index": 89}, "uniqueid": "MTK1655:3X66WABAJXPX80VU6N6QJL5SFR0G3M", "dateTime": 1516121881565}, {"current_trial": 90, "trialdata": {"rt": -1000, "trial_type": "single-audio", "word": "actress", "stimulus": "/static/audio/wordpool/ACTRESS.wav", "conditions": [12, 1600, "a", 12000], "internal_node_id": "0.0-63.0", "trial": 2, "time_elapsed": 554115, "serialpos": 1, "key_press": -1, "wordID": 5, "type": "PRES_AUD", "trial_index": 90}, "uniqueid": "MTK1655:3X66WABAJXPX80VU6N6QJL5SFR0G3M", "dateTime": 1516121884003}, {"current_trial": 91, "trialdata": {"rt": -1000, "trial_type": "single-audio", "word": "iceberg", "stimulus": "/static/audio/wordpool/ICEBERG.wav", "conditions": [12, 1600, "a", 12000], "internal_node_id": "0.0-64.0", "trial": 2, "time_elapsed": 556918, "serialpos": 2, "key_press": -1, "wordID": 730, "type": "PRES_AUD", "trial_index": 91}, "uniqueid": "MTK1655:3X66WABAJXPX80VU6N6QJL5SFR0G3M", "dateTime": 1516121886806}, {"current_trial": 92, "trialdata": {"rt": -1000, "trial_type": "single-audio", "word": "scarf", "stimulus": "/static/audio/wordpool/SCARF.wav", "conditions": [12, 1600, "a", 12000], "internal_node_id": "0.0-65.0", "trial": 2, "time_elapsed": 559326, "serialpos": 3, "key_press": -1, "wordID": 1245, "type": "PRES_AUD", "trial_index": 92}, "uniqueid": "MTK1655:3X66WABAJXPX80VU6N6QJL5SFR0G3M", "dateTime": 1516121889214}, {"current_trial": 93, "trialdata": {"rt": -1000, "trial_type": "single-audio", "word": "blouse", "stimulus": "/static/audio/wordpool/BLOUSE.wav", "conditions": [12, 1600, "a", 12000], "internal_node_id": "0.0-66.0", "trial": 2, "time_elapsed": 561758, "serialpos": 4, "key_press": -1, "wordID": 138, "type": "PRES_AUD", "trial_index": 93}, "uniqueid": "MTK1655:3X66WABAJXPX80VU6N6QJL5SFR0G3M", "dateTime": 1516121891646}, {"current_trial": 94, "trialdata": {"rt": -1000, "trial_type": "single-audio", "word": "island", "stimulus": "/static/audio/wordpool/ISLAND.wav", "conditions": [12, 1600, "a", 12000], "internal_node_id": "0.0-67.0", "trial": 2, "time_elapsed": 564505, "serialpos": 5, "key_press": -1, "wordID": 744, "type": "PRES_AUD", "trial_index": 94}, "uniqueid": "MTK1655:3X66WABAJXPX80VU6N6QJL5SFR0G3M", "dateTime": 1516121894393}, {"current_trial": 95, "trialdata": {"rt": -1000, "trial_type": "single-audio", "word": "driver", "stimulus": "/static/audio/wordpool/DRIVER.wav", "conditions": [12, 1600, "a", 12000], "internal_node_id": "0.0-68.0", "trial": 2, "time_elapsed": 567045, "serialpos": 6, "key_press": -1, "wordID": 498, "type": "PRES_AUD", "trial_index": 95}, "uniqueid": "MTK1655:3X66WABAJXPX80VU6N6QJL5SFR0G3M", "dateTime": 1516121896933}, {"current_trial": 96, "trialdata": {"rt": -1000, "trial_type": "single-audio", "word": "garbage", "stimulus": "/static/audio/wordpool/GARBAGE.wav", "conditions": [12, 1600, "a", 12000], "internal_node_id": "0.0-69.0", "trial": 2, "time_elapsed": 569761, "serialpos": 7, "key_press": -1, "wordID": 621, "type": "PRES_AUD", "trial_index": 96}, "uniqueid": "MTK1655:3X66WABAJXPX80VU6N6QJL5SFR0G3M", "dateTime": 1516121899650}, {"current_trial": 97, "trialdata": {"rt": -1000, "trial_type": "single-audio", "word": "slug", "stimulus": "/static/audio/wordpool/SLUG.wav", "conditions": [12, 1600, "a", 12000], "internal_node_id": "0.0-70.0", "trial": 2, "time_elapsed": 572524, "serialpos": 8, "key_press": -1, "wordID": 1328, "type": "PRES_AUD", "trial_index": 97}, "uniqueid": "MTK1655:3X66WABAJXPX80VU6N6QJL5SFR0G3M", "dateTime": 1516121902412}, {"current_trial": 98, "trialdata": {"rt": -1000, "trial_type": "single-audio", "word": "chest", "stimulus": "/static/audio/wordpool/CHEST.wav", "conditions": [12, 1600, "a", 12000], "internal_node_id": "0.0-71.0", "trial": 2, "time_elapsed": 575171, "serialpos": 9, "key_press": -1, "wordID": 294, "type": "PRES_AUD", "trial_index": 98}, "uniqueid": "MTK1655:3X66WABAJXPX80VU6N6QJL5SFR0G3M", "dateTime": 1516121905059}, {"current_trial": 99, "trialdata": {"rt": -1000, "trial_type": "single-audio", "word": "seagull", "stimulus": "/static/audio/wordpool/SEAGULL.wav", "conditions": [12, 1600, "a", 12000], "internal_node_id": "0.0-72.0", "trial": 2, "time_elapsed": 577597, "serialpos": 10, "key_press": -1, "wordID": 1260, "type": "PRES_AUD", "trial_index": 99}, "uniqueid": "MTK1655:3X66WABAJXPX80VU6N6QJL5SFR0G3M", "dateTime": 1516121907485}, {"current_trial": 100, "trialdata": {"rt": -1000, "trial_type": "single-audio", "word": "actor", "stimulus": "/static/audio/wordpool/ACTOR.wav", "conditions": [12, 1600, "a", 12000], "internal_node_id": "0.0-73.0", "trial": 2, "time_elapsed": 580220, "serialpos": 11, "key_press": -1, "wordID": 4, "type": "PRES_AUD", "trial_index": 100}, "uniqueid": "MTK1655:3X66WABAJXPX80VU6N6QJL5SFR0G3M", "dateTime": 1516121910108}, {"current_trial": 101, "trialdata": {"rt": -1, "trial_type": "single-stim", "stimulus": "", "internal_node_id": "0.0-74.0-0.0", "time_elapsed": 581474, "key_press": -1, "type": "PRE_RECALL_DELAY", "trial_index": 101}, "uniqueid": "MTK1655:3X66WABAJXPX80VU6N6QJL5SFR0G3M", "dateTime": 1516121911362}, {"current_trial": 102, "trialdata": {"rt": -1000, "trial_type": "single-audio", "stimulus": "/static/audio/400Hz.wav", "internal_node_id": "0.0-75.0", "time_elapsed": 581975, "key_press": -1, "type": "PRE_RECALL_ALERT", "trial_index": 102}, "uniqueid": "MTK1655:3X66WABAJXPX80VU6N6QJL5SFR0G3M", "dateTime": 1516121911863}, {"current_trial": 103, "trialdata": {"rt": [4353, 6665, 9938, 13242, 15633, 21824], "recwords": ["diver", "isnad", "seagull", "scarf", "blouse", "slug"], "key_times": [2602, 2785, 3186, 3354, 3610, 4353, 5305, 5474, 5905, 6025, 6353, 6665, 7737, 7961, 8202, 8666, 9002, 9273, 9433, 9938, 11537, 11737, 11849, 11985, 12369, 13242, 14105, 14377, 14576, 14785, 14977, 15289, 15633, 20889, 21031, 21287, 21543, 21824], "trial_type": "free-recall", "conditions": [12, 1600, "a", 12000], "internal_node_id": "0.0-76.0-0.0", "key_presses": [68, 73, 86, 69, 82, 13, 73, 83, 78, 65, 68, 13, 83, 69, 65, 71, 85, 76, 76, 13, 83, 67, 65, 82, 70, 13, 66, 76, 79, 85, 83, 69, 13, 83, 76, 85, 71, 13], "trial": 2, "time_elapsed": 641976, "type": "FREE_RECALL", "trial_index": 103}, "uniqueid": "MTK1655:3X66WABAJXPX80VU6N6QJL5SFR0G3M", "dateTime": 1516121971866}, {"current_trial": 104, "trialdata": {"rt": 1123, "trial_type": "text", "internal_node_id": "0.0-77.0", "time_elapsed": 645103, "key_press": 32, "type": "INSTRUCTIONS", "trial_index": 104}, "uniqueid": "MTK1655:3X66WABAJXPX80VU6N6QJL5SFR0G3M", "dateTime": 1516121974991}, {"current_trial": 105, "trialdata": {"rt": [3923, 6611, 8515], "trial_type": "math-distractor", "key_times": [3147, 3291, 3923, 5979, 6419, 6611, 8044, 8355, 8515, 11531, 11747], "responses": ["18", "15", "13"], "num2": [7, 6, 2, 3], "num3": [8, 6, 3, 4], "conditions": [12, 800, "a", 12000], "internal_node_id": "0.0-78.0", "key_presses": [49, 56, 13, 49, 53, 13, 49, 51, 13, 49, 48], "trial": 3, "time_elapsed": 659111, "type": "DISTRACTOR", "trial_index": 105, "num1": [5, 3, 8, 3]}, "uniqueid": "MTK1655:3X66WABAJXPX80VU6N6QJL5SFR0G3M", "dateTime": 1516121988999}, {"current_trial": 106, "trialdata": {"rt": -1, "trial_type": "single-stim", "stimulus": "<p id=\"stim\">10</p>", "internal_node_id": "0.0-79.0-0.0", "time_elapsed": 662120, "key_press": -1, "trial_index": 106}, "uniqueid": "MTK1655:3X66WABAJXPX80VU6N6QJL5SFR0G3M", "dateTime": 1516121992009}, {"current_trial": 107, "trialdata": {"rt": -1, "trial_type": "single-stim", "stimulus": "<p id=\"stim\">9</p>", "internal_node_id": "0.0-79.0-1.0", "time_elapsed": 663124, "key_press": -1, "trial_index": 107}, "uniqueid": "MTK1655:3X66WABAJXPX80VU6N6QJL5SFR0G3M", "dateTime": 1516121993013}, {"current_trial": 108, "trialdata": {"rt": -1, "trial_type": "single-stim", "stimulus": "<p id=\"stim\">8</p>", "internal_node_id": "0.0-79.0-2.0", "time_elapsed": 664130, "key_press": -1, "trial_index": 108}, "uniqueid": "MTK1655:3X66WABAJXPX80VU6N6QJL5SFR0G3M", "dateTime": 1516121994018}, {"current_trial": 109, "trialdata": {"rt": -1, "trial_type": "single-stim", "stimulus": "<p id=\"stim\">7</p>", "internal_node_id": "0.0-79.0-3.0", "time_elapsed": 665135, "key_press": -1, "trial_index": 109}, "uniqueid": "MTK1655:3X66WABAJXPX80VU6N6QJL5SFR0G3M", "dateTime": 1516121995023}, {"current_trial": 110, "trialdata": {"rt": -1, "trial_type": "single-stim", "stimulus": "<p id=\"stim\">6</p>", "internal_node_id": "0.0-79.0-4.0", "time_elapsed": 666139, "key_press": -1, "trial_index": 110}, "uniqueid": "MTK1655:3X66WABAJXPX80VU6N6QJL5SFR0G3M", "dateTime": 1516121996027}, {"current_trial": 111, "trialdata": {"rt": -1, "trial_type": "single-stim", "stimulus": "<p id=\"stim\">5</p>", "internal_node_id": "0.0-79.0-5.0", "time_elapsed": 667143, "key_press": -1, "trial_index": 111}, "uniqueid": "MTK1655:3X66WABAJXPX80VU6N6QJL5SFR0G3M", "dateTime": 1516121997031}, {"current_trial": 112, "trialdata": {"rt": -1, "trial_type": "single-stim", "stimulus": "<p id=\"stim\">4</p>", "internal_node_id": "0.0-79.0-6.0", "time_elapsed": 668146, "key_press": -1, "trial_index": 112}, "uniqueid": "MTK1655:3X66WABAJXPX80VU6N6QJL5SFR0G3M", "dateTime": 1516121998034}, {"current_trial": 113, "trialdata": {"rt": -1, "trial_type": "single-stim", "stimulus": "<p id=\"stim\">3</p>", "internal_node_id": "0.0-79.0-7.0", "time_elapsed": 669151, "key_press": -1, "trial_index": 113}, "uniqueid": "MTK1655:3X66WABAJXPX80VU6N6QJL5SFR0G3M", "dateTime": 1516121999039}, {"current_trial": 114, "trialdata": {"rt": -1, "trial_type": "single-stim", "stimulus": "<p id=\"stim\">2</p>", "internal_node_id": "0.0-79.0-8.0", "time_elapsed": 670155, "key_press": -1, "trial_index": 114}, "uniqueid": "MTK1655:3X66WABAJXPX80VU6N6QJL5SFR0G3M", "dateTime": 1516122000043}, {"current_trial": 115, "trialdata": {"rt": -1, "trial_type": "single-stim", "stimulus": "<p id=\"stim\">1</p>", "internal_node_id": "0.0-79.0-9.0", "time_elapsed": 671159, "key_press": -1, "trial_index": 115}, "uniqueid": "MTK1655:3X66WABAJXPX80VU6N6QJL5SFR0G3M", "dateTime": 1516122001047}, {"current_trial": 116, "trialdata": {"rt": -1, "trial_type": "single-stim", "stimulus": "<p id=\"stim\">+</p>", "internal_node_id": "0.0-80.0-0.0", "time_elapsed": 672662, "key_press": -1, "type": "FIXATION", "trial_index": 116}, "uniqueid": "MTK1655:3X66WABAJXPX80VU6N6QJL5SFR0G3M", "dateTime": 1516122002550}, {"current_trial": 117, "trialdata": {"rt": -1000, "trial_type": "single-audio", "word": "breast", "stimulus": "/static/audio/wordpool/BREAST.wav", "conditions": [12, 800, "a", 12000], "internal_node_id": "0.0-81.0", "trial": 3, "time_elapsed": 674482, "serialpos": 0, "key_press": -1, "wordID": 170, "type": "PRES_AUD", "trial_index": 117}, "uniqueid": "MTK1655:3X66WABAJXPX80VU6N6QJL5SFR0G3M", "dateTime": 1516122004370}, {"current_trial": 118, "trialdata": {"rt": -1000, "trial_type": "single-audio", "word": "preacher", "stimulus": "/static/audio/wordpool/PREACHER.wav", "conditions": [12, 800, "a", 12000], "internal_node_id": "0.0-82.0", "trial": 3, "time_elapsed": 676086, "serialpos": 1, "key_press": -1, "wordID": 1118, "type": "PRES_AUD", "trial_index": 118}, "uniqueid": "MTK1655:3X66WABAJXPX80VU6N6QJL5SFR0G3M", "dateTime": 1516122005974}, {"current_trial": 119, "trialdata": {"rt": -1000, "trial_type": "single-audio", "word": "rocket", "stimulus": "/static/audio/wordpool/ROCKET.wav", "conditions": [12, 800, "a", 12000], "internal_node_id": "0.0-83.0", "trial": 3, "time_elapsed": 678037, "serialpos": 2, "key_press": -1, "wordID": 1201, "type": "PRES_AUD", "trial_index": 119}, "uniqueid": "MTK1655:3X66WABAJXPX80VU6N6QJL5SFR0G3M", "dateTime": 1516122007925}, {"current_trial": 120, "trialdata": {"rt": -1000, "trial_type": "single-audio", "word": "pastry", "stimulus": "/static/audio/wordpool/PASTRY.wav", "conditions": [12, 800, "a", 12000], "internal_node_id": "0.0-84.0", "trial": 3, "time_elapsed": 679849, "serialpos": 3, "key_press": -1, "wordID": 1021, "type": "PRES_AUD", "trial_index": 120}, "uniqueid": "MTK1655:3X66WABAJXPX80VU6N6QJL5SFR0G3M", "dateTime": 1516122009737}, {"current_trial": 121, "trialdata": {"rt": -1000, "trial_type": "single-audio", "word": "juggler", "stimulus": "/static/audio/wordpool/JUGGLER.wav", "conditions": [12, 800, "a", 12000], "internal_node_id": "0.0-85.0", "trial": 3, "time_elapsed": 681720, "serialpos": 4, "key_press": -1, "wordID": 762, "type": "PRES_AUD", "trial_index": 121}, "uniqueid": "MTK1655:3X66WABAJXPX80VU6N6QJL5SFR0G3M", "dateTime": 1516122011608}, {"current_trial": 122, "trialdata": {"rt": -1000, "trial_type": "single-audio", "word": "razor", "stimulus": "/static/audio/wordpool/RAZOR.wav", "conditions": [12, 800, "a", 12000], "internal_node_id": "0.0-86.0", "trial": 3, "time_elapsed": 683555, "serialpos": 5, "key_press": -1, "wordID": 1170, "type": "PRES_AUD", "trial_index": 122}, "uniqueid": "MTK1655:3X66WABAJXPX80VU6N6QJL5SFR0G3M", "dateTime": 1516122013443}, {"current_trial": 123, "trialdata": {"rt": -1000, "trial_type": "single-audio", "word": "knife", "stimulus": "/static/audio/wordpool/KNIFE.wav", "conditions": [12, 800, "a", 12000], "internal_node_id": "0.0-87.0", "trial": 3, "time_elapsed": 685469, "serialpos": 6, "key_press": -1, "wordID": 784, "type": "PRES_AUD", "trial_index": 123}, "uniqueid": "MTK1655:3X66WABAJXPX80VU6N6QJL5SFR0G3M", "dateTime": 1516122015357}, {"current_trial": 124, "trialdata": {"rt": -1000, "trial_type": "single-audio", "word": "custard", "stimulus": "/static/audio/wordpool/CUSTARD.wav", "conditions": [12, 800, "a", 12000], "internal_node_id": "0.0-88.0", "trial": 3, "time_elapsed": 687367, "serialpos": 7, "key_press": -1, "wordID": 428, "type": "PRES_AUD", "trial_index": 124}, "uniqueid": "MTK1655:3X66WABAJXPX80VU6N6QJL5SFR0G3M", "dateTime": 1516122017255}, {"current_trial": 125, "trialdata": {"rt": -1000, "trial_type": "single-audio", "word": "motor", "stimulus": "/static/audio/wordpool/MOTOR.wav", "conditions": [12, 800, "a", 12000], "internal_node_id": "0.0-89.0", "trial": 3, "time_elapsed": 689188, "serialpos": 8, "key_press": -1, "wordID": 921, "type": "PRES_AUD", "trial_index": 125}, "uniqueid": "MTK1655:3X66WABAJXPX80VU6N6QJL5SFR0G3M", "dateTime": 1516122019077}, {"current_trial": 126, "trialdata": {"rt": -1000, "trial_type": "single-audio", "word": "yacht", "stimulus": "/static/audio/wordpool/YACHT.wav", "conditions": [12, 800, "a", 12000], "internal_node_id": "0.0-90.0", "trial": 3, "time_elapsed": 691063, "serialpos": 9, "key_press": -1, "wordID": 1628, "type": "PRES_AUD", "trial_index": 126}, "uniqueid": "MTK1655:3X66WABAJXPX80VU6N6QJL5SFR0G3M", "dateTime": 1516122020952}, {"current_trial": 127, "trialdata": {"rt": -1000, "trial_type": "single-audio", "word": "pliers", "stimulus": "/static/audio/wordpool/PLIERS.wav", "conditions": [12, 800, "a", 12000], "internal_node_id": "0.0-91.0", "trial": 3, "time_elapsed": 692676, "serialpos": 10, "key_press": -1, "wordID": 1088, "type": "PRES_AUD", "trial_index": 127}, "uniqueid": "MTK1655:3X66WABAJXPX80VU6N6QJL5SFR0G3M", "dateTime": 1516122022564}, {"current_trial": 128, "trialdata": {"rt": -1000, "trial_type": "single-audio", "word": "chauffeur", "stimulus": "/static/audio/wordpool/CHAUFFEUR.wav", "conditions": [12, 800, "a", 12000], "internal_node_id": "0.0-92.0", "trial": 3, "time_elapsed": 694523, "serialpos": 11, "key_press": -1, "wordID": 282, "type": "PRES_AUD", "trial_index": 128}, "uniqueid": "MTK1655:3X66WABAJXPX80VU6N6QJL5SFR0G3M", "dateTime": 1516122024411}, {"current_trial": 129, "trialdata": {"rt": -1, "trial_type": "single-stim", "stimulus": "", "internal_node_id": "0.0-93.0-0.0", "time_elapsed": 695771, "key_press": -1, "type": "PRE_RECALL_DELAY", "trial_index": 129}, "uniqueid": "MTK1655:3X66WABAJXPX80VU6N6QJL5SFR0G3M", "dateTime": 1516122025659}, {"current_trial": 130, "trialdata": {"rt": -1000, "trial_type": "single-audio", "stimulus": "/static/audio/400Hz.wav", "internal_node_id": "0.0-94.0", "time_elapsed": 696273, "key_press": -1, "type": "PRE_RECALL_ALERT", "trial_index": 130}, "uniqueid": "MTK1655:3X66WABAJXPX80VU6N6QJL5SFR0G3M", "dateTime": 1516122026161}, {"current_trial": 131, "trialdata": {"rt": [7056, 11184, 14107, 16991, 22639, 26543], "recwords": ["creature", "rocket", "razor", "knife", "custard", "pliers"], "key_times": [5268, 5448, 5624, 5728, 5976, 6377, 6544, 6784, 7056, 9143, 9360, 9632, 9832, 10056, 10247, 10704, 10920, 11184, 12968, 13120, 13407, 13655, 13871, 14107, 14855, 15296, 15751, 16448, 16591, 16991, 19999, 20383, 21247, 21415, 21552, 21863, 22071, 22639, 24639, 24823, 25031, 25199, 25424, 25703, 26543], "trial_type": "free-recall", "conditions": [12, 800, "a", 12000], "internal_node_id": "0.0-95.0-0.0", "key_presses": [67, 82, 69, 65, 84, 85, 82, 69, 13, 82, 79, 67, 75, 69, 89, 8, 84, 13, 82, 65, 90, 79, 82, 13, 75, 78, 73, 70, 69, 13, 67, 85, 83, 84, 65, 82, 68, 13, 80, 76, 73, 69, 82, 83, 13], "trial": 3, "time_elapsed": 756275, "type": "FREE_RECALL", "trial_index": 131}, "uniqueid": "MTK1655:3X66WABAJXPX80VU6N6QJL5SFR0G3M", "dateTime": 1516122086165}, {"current_trial": 132, "trialdata": {"rt": 1402, "trial_type": "text", "internal_node_id": "0.0-96.0", "time_elapsed": 759685, "key_press": 32, "type": "INSTRUCTIONS", "trial_index": 132}, "uniqueid": "MTK1655:3X66WABAJXPX80VU6N6QJL5SFR0G3M", "dateTime": 1516122089573}, {"current_trial": 133, "trialdata": {"rt": [2372, 5573, 8884, 11068, 15604, 17899, 22227], "trial_type": "math-distractor", "key_times": [2238, 2372, 4532, 5012, 5573, 8317, 8508, 8884, 10516, 10884, 11068, 15028, 15427, 15604, 17364, 17708, 17899, 21044, 21203, 21691, 21955, 22227], "responses": ["4", "19", "20", "15", "16", "14", "10"], "num2": [1, 9, 6, 1, 5, 2, 2, 8], "num3": [1, 8, 7, 9, 7, 6, 4, 6], "conditions": [12, 1600, "a", 24000], "internal_node_id": "0.0-97.0", "key_presses": [52, 13, 49, 57, 13, 50, 48, 13, 49, 53, 13, 49, 54, 13, 49, 52, 13, 49, 57, 8, 48, 13], "trial": 4, "time_elapsed": 785695, "type": "DISTRACTOR", "trial_index": 133, "num1": [2, 2, 7, 5, 3, 6, 4, 7]}, "uniqueid": "MTK1655:3X66WABAJXPX80VU6N6QJL5SFR0G3M", "dateTime": 1516122115583}, {"current_trial": 134, "trialdata": {"rt": -1, "trial_type": "single-stim", "stimulus": "<p id=\"stim\">10</p>", "internal_node_id": "0.0-98.0-0.0", "time_elapsed": 788704, "key_press": -1, "trial_index": 134}, "uniqueid": "MTK1655:3X66WABAJXPX80VU6N6QJL5SFR0G3M", "dateTime": 1516122118593}, {"current_trial": 135, "trialdata": {"rt": -1, "trial_type": "single-stim", "stimulus": "<p id=\"stim\">9</p>", "internal_node_id": "0.0-98.0-1.0", "time_elapsed": 789708, "key_press": -1, "trial_index": 135}, "uniqueid": "MTK1655:3X66WABAJXPX80VU6N6QJL5SFR0G3M", "dateTime": 1516122119596}, {"current_trial": 136, "trialdata": {"rt": -1, "trial_type": "single-stim", "stimulus": "<p id=\"stim\">8</p>", "internal_node_id": "0.0-98.0-2.0", "time_elapsed": 790712, "key_press": -1, "trial_index": 136}, "uniqueid": "MTK1655:3X66WABAJXPX80VU6N6QJL5SFR0G3M", "dateTime": 1516122120601}, {"current_trial": 137, "trialdata": {"rt": -1, "trial_type": "single-stim", "stimulus": "<p id=\"stim\">7</p>", "internal_node_id": "0.0-98.0-3.0", "time_elapsed": 791717, "key_press": -1, "trial_index": 137}, "uniqueid": "MTK1655:3X66WABAJXPX80VU6N6QJL5SFR0G3M", "dateTime": 1516122121605}, {"current_trial": 138, "trialdata": {"rt": -1, "trial_type": "single-stim", "stimulus": "<p id=\"stim\">6</p>", "internal_node_id": "0.0-98.0-4.0", "time_elapsed": 792720, "key_press": -1, "trial_index": 138}, "uniqueid": "MTK1655:3X66WABAJXPX80VU6N6QJL5SFR0G3M", "dateTime": 1516122122608}, {"current_trial": 139, "trialdata": {"rt": -1, "trial_type": "single-stim", "stimulus": "<p id=\"stim\">5</p>", "internal_node_id": "0.0-98.0-5.0", "time_elapsed": 793721, "key_press": -1, "trial_index": 139}, "uniqueid": "MTK1655:3X66WABAJXPX80VU6N6QJL5SFR0G3M", "dateTime": 1516122123609}, {"current_trial": 140, "trialdata": {"rt": -1, "trial_type": "single-stim", "stimulus": "<p id=\"stim\">4</p>", "internal_node_id": "0.0-98.0-6.0", "time_elapsed": 794723, "key_press": -1, "trial_index": 140}, "uniqueid": "MTK1655:3X66WABAJXPX80VU6N6QJL5SFR0G3M", "dateTime": 1516122124611}, {"current_trial": 141, "trialdata": {"rt": -1, "trial_type": "single-stim", "stimulus": "<p id=\"stim\">3</p>", "internal_node_id": "0.0-98.0-7.0", "time_elapsed": 795724, "key_press": -1, "trial_index": 141}, "uniqueid": "MTK1655:3X66WABAJXPX80VU6N6QJL5SFR0G3M", "dateTime": 1516122125612}, {"current_trial": 142, "trialdata": {"rt": -1, "trial_type": "single-stim", "stimulus": "<p id=\"stim\">2</p>", "internal_node_id": "0.0-98.0-8.0", "time_elapsed": 796725, "key_press": -1, "trial_index": 142}, "uniqueid": "MTK1655:3X66WABAJXPX80VU6N6QJL5SFR0G3M", "dateTime": 1516122126613}, {"current_trial": 143, "trialdata": {"rt": -1, "trial_type": "single-stim", "stimulus": "<p id=\"stim\">1</p>", "internal_node_id": "0.0-98.0-9.0", "time_elapsed": 797726, "key_press": -1, "trial_index": 143}, "uniqueid": "MTK1655:3X66WABAJXPX80VU6N6QJL5SFR0G3M", "dateTime": 1516122127614}, {"current_trial": 144, "trialdata": {"rt": -1, "trial_type": "single-stim", "stimulus": "<p id=\"stim\">+</p>", "internal_node_id": "0.0-99.0-0.0", "time_elapsed": 799229, "key_press": -1, "type": "FIXATION", "trial_index": 144}, "uniqueid": "MTK1655:3X66WABAJXPX80VU6N6QJL5SFR0G3M", "dateTime": 1516122129117}, {"current_trial": 145, "trialdata": {"rt": -1000, "trial_type": "single-audio", "word": "grape", "stimulus": "/static/audio/wordpool/GRAPE.wav", "conditions": [12, 1600, "a", 24000], "internal_node_id": "0.0-100.0", "trial": 4, "time_elapsed": 801840, "serialpos": 0, "key_press": -1, "wordID": 653, "type": "PRES_AUD", "trial_index": 145}, "uniqueid": "MTK1655:3X66WABAJXPX80VU6N6QJL5SFR0G3M", "dateTime": 1516122131728}, {"current_trial": 146, "trialdata": {"rt": -1000, "trial_type": "single-audio", "word": "racket", "stimulus": "/static/audio/wordpool/RACKET.wav", "conditions": [12, 1600, "a", 24000], "internal_node_id": "0.0-101.0", "trial": 4, "time_elapsed": 804597, "serialpos": 1, "key_press": -1, "wordID": 1154, "type": "PRES_AUD", "trial_index": 146}, "uniqueid": "MTK1655:3X66WABAJXPX80VU6N6QJL5SFR0G3M", "dateTime": 1516122134485}, {"current_trial": 147, "trialdata": {"rt": -1000, "trial_type": "single-audio", "word": "child", "stimulus": "/static/audio/wordpool/CHILD.wav", "conditions": [12, 1600, "a", 24000], "internal_node_id": "0.0-102.0", "trial": 4, "time_elapsed": 807240, "serialpos": 2, "key_press": -1, "wordID": 298, "type": "PRES_AUD", "trial_index": 147}, "uniqueid": "MTK1655:3X66WABAJXPX80VU6N6QJL5SFR0G3M", "dateTime": 1516122137128}, {"current_trial": 148, "trialdata": {"rt": -1000, "trial_type": "single-audio", "word": "barley", "stimulus": "/static/audio/wordpool/BARLEY.wav", "conditions": [12, 1600, "a", 24000], "internal_node_id": "0.0-103.0", "trial": 4, "time_elapsed": 809913, "serialpos": 3, "key_press": -1, "wordID": 87, "type": "PRES_AUD", "trial_index": 148}, "uniqueid": "MTK1655:3X66WABAJXPX80VU6N6QJL5SFR0G3M", "dateTime": 1516122139801}, {"current_trial": 149, "trialdata": {"rt": -1000, "trial_type": "single-audio", "word": "patrol", "stimulus": "/static/audio/wordpool/PATROL.wav", "conditions": [12, 1600, "a", 24000], "internal_node_id": "0.0-104.0", "trial": 4, "time_elapsed": 812631, "serialpos": 4, "key_press": -1, "wordID": 1026, "type": "PRES_AUD", "trial_index": 149}, "uniqueid": "MTK1655:3X66WABAJXPX80VU6N6QJL5SFR0G3M", "dateTime": 1516122142520}, {"current_trial": 150, "trialdata": {"rt": -1000, "trial_type": "single-audio", "word": "milk", "stimulus": "/static/audio/wordpool/MILK.wav", "conditions": [12, 1600, "a", 24000], "internal_node_id": "0.0-105.0", "trial": 4, "time_elapsed": 815415, "serialpos": 5, "key_press": -1, "wordID": 894, "type": "PRES_AUD", "trial_index": 150}, "uniqueid": "MTK1655:3X66WABAJXPX80VU6N6QJL5SFR0G3M", "dateTime": 1516122145304}, {"current_trial": 151, "trialdata": {"rt": -1000, "trial_type": "single-audio", "word": "velvet", "stimulus": "/static/audio/wordpool/VELVET.wav", "conditions": [12, 1600, "a", 24000], "internal_node_id": "0.0-106.0", "trial": 4, "time_elapsed": 818090, "serialpos": 6, "key_press": -1, "wordID": 1554, "type": "PRES_AUD", "trial_index": 151}, "uniqueid": "MTK1655:3X66WABAJXPX80VU6N6QJL5SFR0G3M", "dateTime": 1516122147978}, {"current_trial": 152, "trialdata": {"rt": -1000, "trial_type": "single-audio", "word": "lace", "stimulus": "/static/audio/wordpool/LACE.wav", "conditions": [12, 1600, "a", 24000], "internal_node_id": "0.0-107.0", "trial": 4, "time_elapsed": 820842, "serialpos": 7, "key_press": -1, "wordID": 791, "type": "PRES_AUD", "trial_index": 152}, "uniqueid": "MTK1655:3X66WABAJXPX80VU6N6QJL5SFR0G3M", "dateTime": 1516122150730}, {"current_trial": 153, "trialdata": {"rt": -1000, "trial_type": "single-audio", "word": "army", "stimulus": "/static/audio/wordpool/ARMY.wav", "conditions": [12, 1600, "a", 24000], "internal_node_id": "0.0-108.0", "trial": 4, "time_elapsed": 823475, "serialpos": 8, "key_press": -1, "wordID": 38, "type": "PRES_AUD", "trial_index": 153}, "uniqueid": "MTK1655:3X66WABAJXPX80VU6N6QJL5SFR0G3M", "dateTime": 1516122153363}, {"current_trial": 154, "trialdata": {"rt": -1000, "trial_type": "single-audio", "word": "match", "stimulus": "/static/audio/wordpool/MATCH.wav", "conditions": [12, 1600, "a", 24000], "internal_node_id": "0.0-109.0", "trial": 4, "time_elapsed": 826216, "serialpos": 9, "key_press": -1, "wordID": 877, "type": "PRES_AUD", "trial_index": 154}, "uniqueid": "MTK1655:3X66WABAJXPX80VU6N6QJL5SFR0G3M", "dateTime": 1516122156104}, {"current_trial": 155, "trialdata": {"rt": -1000, "trial_type": "single-audio", "word": "marsh", "stimulus": "/static/audio/wordpool/MARSH.wav", "conditions": [12, 1600, "a", 24000], "internal_node_id": "0.0-110.0", "trial": 4, "time_elapsed": 828898, "serialpos": 10, "key_press": -1, "wordID": 873, "type": "PRES_AUD", "trial_index": 155}, "uniqueid": "MTK1655:3X66WABAJXPX80VU6N6QJL5SFR0G3M", "dateTime": 1516122158786}, {"current_trial": 156, "trialdata": {"rt": -1000, "trial_type": "single-audio", "word": "sheriff", "stimulus": "/static/audio/wordpool/SHERIFF.wav", "conditions": [12, 1600, "a", 24000], "internal_node_id": "0.0-111.0", "trial": 4, "time_elapsed": 831347, "serialpos": 11, "key_press": -1, "wordID": 1283, "type": "PRES_AUD", "trial_index": 156}, "uniqueid": "MTK1655:3X66WABAJXPX80VU6N6QJL5SFR0G3M", "dateTime": 1516122161235}, {"current_trial": 157, "trialdata": {"rt": -1, "trial_type": "single-stim", "stimulus": "", "internal_node_id": "0.0-112.0-0.0", "time_elapsed": 832728, "key_press": -1, "type": "PRE_RECALL_DELAY", "trial_index": 157}, "uniqueid": "MTK1655:3X66WABAJXPX80VU6N6QJL5SFR0G3M", "dateTime": 1516122162616}, {"current_trial": 158, "trialdata": {"rt": -1000, "trial_type": "single-audio", "stimulus": "/static/audio/400Hz.wav", "internal_node_id": "0.0-113.0", "time_elapsed": 833229, "key_press": -1, "type": "PRE_RECALL_ALERT", "trial_index": 158}, "uniqueid": "MTK1655:3X66WABAJXPX80VU6N6QJL5SFR0G3M", "dateTime": 1516122163118}, {"current_trial": 159, "trialdata": {"rt": [3785, 7136, 10568, 13232, 18408, 21903], "recwords": ["grape", "barley", "milk", "lace", "velvet", "match"], "key_times": [2297, 2472, 2609, 2960, 3201, 3785, 5520, 5664, 5848, 6362, 6512, 6792, 7136, 9376, 9816, 10024, 10184, 10568, 12336, 12552, 12824, 12953, 13232, 13800, 13936, 14248, 15624, 15784, 16128, 18408, 20736, 20888, 21079, 21272, 21552, 21903], "trial_type": "free-recall", "conditions": [12, 1600, "a", 24000], "internal_node_id": "0.0-114.0-0.0", "key_presses": [71, 82, 65, 80, 69, 13, 66, 65, 82, 76, 69, 89, 13, 77, 73, 76, 75, 13, 76, 65, 67, 69, 13, 86, 69, 76, 86, 69, 84, 13, 77, 65, 84, 67, 72, 13], "trial": 4, "time_elapsed": 893234, "type": "FREE_RECALL", "trial_index": 159}, "uniqueid": "MTK1655:3X66WABAJXPX80VU6N6QJL5SFR0G3M", "dateTime": 1516122223124}, {"current_trial": 160, "trialdata": {"rt": 147680, "trial_type": "text", "internal_node_id": "0.0-115.0", "time_elapsed": 1042922, "key_press": 32, "type": "INSTRUCTIONS", "trial_index": 160}, "uniqueid": "MTK1655:3X66WABAJXPX80VU6N6QJL5SFR0G3M", "dateTime": 1516122372810}, {"current_trial": 161, "trialdata": {"rt": [2649, 6273, 9529], "trial_type": "math-distractor", "key_times": [2161, 2465, 2649, 5585, 5897, 6273, 9026, 9305, 9529, 11345, 11928], "responses": ["15", "23", "24"], "num2": [4, 8, 8, 6], "num3": [4, 8, 6, 5], "conditions": [24, 1600, "a", 12000], "internal_node_id": "0.0-116.0", "key_presses": [49, 53, 13, 50, 51, 13, 50, 52, 13, 49, 54], "trial": 5, "time_elapsed": 1056929, "type": "DISTRACTOR", "trial_index": 161, "num1": [7, 7, 8, 5]}, "uniqueid": "MTK1655:3X66WABAJXPX80VU6N6QJL5SFR0G3M", "dateTime": 1516122386818}, {"current_trial": 162, "trialdata": {"rt": -1, "trial_type": "single-stim", "stimulus": "<p id=\"stim\">10</p>", "internal_node_id": "0.0-117.0-0.0", "time_elapsed": 1059935, "key_press": -1, "trial_index": 162}, "uniqueid": "MTK1655:3X66WABAJXPX80VU6N6QJL5SFR0G3M", "dateTime": 1516122389824}, {"current_trial": 163, "trialdata": {"rt": -1, "trial_type": "single-stim", "stimulus": "<p id=\"stim\">9</p>", "internal_node_id": "0.0-117.0-1.0", "time_elapsed": 1060939, "key_press": -1, "trial_index": 163}, "uniqueid": "MTK1655:3X66WABAJXPX80VU6N6QJL5SFR0G3M", "dateTime": 1516122390828}, {"current_trial": 164, "trialdata": {"rt": -1, "trial_type": "single-stim", "stimulus": "<p id=\"stim\">8</p>", "internal_node_id": "0.0-117.0-2.0", "time_elapsed": 1061944, "key_press": -1, "trial_index": 164}, "uniqueid": "MTK1655:3X66WABAJXPX80VU6N6QJL5SFR0G3M", "dateTime": 1516122391832}, {"current_trial": 165, "trialdata": {"rt": -1, "trial_type": "single-stim", "stimulus": "<p id=\"stim\">7</p>", "internal_node_id": "0.0-117.0-3.0", "time_elapsed": 1062947, "key_press": -1, "trial_index": 165}, "uniqueid": "MTK1655:3X66WABAJXPX80VU6N6QJL5SFR0G3M", "dateTime": 1516122392835}, {"current_trial": 166, "trialdata": {"rt": -1, "trial_type": "single-stim", "stimulus": "<p id=\"stim\">6</p>", "internal_node_id": "0.0-117.0-4.0", "time_elapsed": 1063952, "key_press": -1, "trial_index": 166}, "uniqueid": "MTK1655:3X66WABAJXPX80VU6N6QJL5SFR0G3M", "dateTime": 1516122393840}, {"current_trial": 167, "trialdata": {"rt": -1, "trial_type": "single-stim", "stimulus": "<p id=\"stim\">5</p>", "internal_node_id": "0.0-117.0-5.0", "time_elapsed": 1064956, "key_press": -1, "trial_index": 167}, "uniqueid": "MTK1655:3X66WABAJXPX80VU6N6QJL5SFR0G3M", "dateTime": 1516122394844}, {"current_trial": 168, "trialdata": {"rt": -1, "trial_type": "single-stim", "stimulus": "<p id=\"stim\">4</p>", "internal_node_id": "0.0-117.0-6.0", "time_elapsed": 1065960, "key_press": -1, "trial_index": 168}, "uniqueid": "MTK1655:3X66WABAJXPX80VU6N6QJL5SFR0G3M", "dateTime": 1516122395848}, {"current_trial": 169, "trialdata": {"rt": -1, "trial_type": "single-stim", "stimulus": "<p id=\"stim\">3</p>", "internal_node_id": "0.0-117.0-7.0", "time_elapsed": 1066964, "key_press": -1, "trial_index": 169}, "uniqueid": "MTK1655:3X66WABAJXPX80VU6N6QJL5SFR0G3M", "dateTime": 1516122396852}, {"current_trial": 170, "trialdata": {"rt": -1, "trial_type": "single-stim", "stimulus": "<p id=\"stim\">2</p>", "internal_node_id": "0.0-117.0-8.0", "time_elapsed": 1067968, "key_press": -1, "trial_index": 170}, "uniqueid": "MTK1655:3X66WABAJXPX80VU6N6QJL5SFR0G3M", "dateTime": 1516122397856}, {"current_trial": 171, "trialdata": {"rt": -1, "trial_type": "single-stim", "stimulus": "<p id=\"stim\">1</p>", "internal_node_id": "0.0-117.0-9.0", "time_elapsed": 1068972, "key_press": -1, "trial_index": 171}, "uniqueid": "MTK1655:3X66WABAJXPX80VU6N6QJL5SFR0G3M", "dateTime": 1516122398860}, {"current_trial": 172, "trialdata": {"rt": -1, "trial_type": "single-stim", "stimulus": "<p id=\"stim\">+</p>", "internal_node_id": "0.0-118.0-0.0", "time_elapsed": 1070475, "key_press": -1, "type": "FIXATION", "trial_index": 172}, "uniqueid": "MTK1655:3X66WABAJXPX80VU6N6QJL5SFR0G3M", "dateTime": 1516122400363}, {"current_trial": 173, "trialdata": {"rt": -1000, "trial_type": "single-audio", "word": "popcorn", "stimulus": "/static/audio/wordpool/POPCORN.wav", "conditions": [24, 1600, "a", 12000], "internal_node_id": "0.0-119.0", "trial": 5, "time_elapsed": 1073196, "serialpos": 0, "key_press": -1, "wordID": 1103, "type": "PRES_AUD", "trial_index": 173}, "uniqueid": "MTK1655:3X66WABAJXPX80VU6N6QJL5SFR0G3M", "dateTime": 1516122403084}, {"current_trial": 174, "trialdata": {"rt": -1000, "trial_type": "single-audio", "word": "jelly", "stimulus": "/static/audio/wordpool/JELLY.wav", "conditions": [24, 1600, "a", 12000], "internal_node_id": "0.0-120.0", "trial": 5, "time_elapsed": 1075906, "serialpos": 1, "key_press": -1, "wordID": 754, "type": "PRES_AUD", "trial_index": 174}, "uniqueid": "MTK1655:3X66WABAJXPX80VU6N6QJL5SFR0G3M", "dateTime": 1516122405794}, {"current_trial": 175, "trialdata": {"rt": -1000, "trial_type": "single-audio", "word": "flask", "stimulus": "/static/audio/wordpool/FLASK.wav", "conditions": [24, 1600, "a", 12000], "internal_node_id": "0.0-121.0", "trial": 5, "time_elapsed": 1078532, "serialpos": 2, "key_press": -1, "wordID": 575, "type": "PRES_AUD", "trial_index": 175}, "uniqueid": "MTK1655:3X66WABAJXPX80VU6N6QJL5SFR0G3M", "dateTime": 1516122408420}, {"current_trial": 176, "trialdata": {"rt": -1000, "trial_type": "single-audio", "word": "bike", "stimulus": "/static/audio/wordpool/BIKE.wav", "conditions": [24, 1600, "a", 12000], "internal_node_id": "0.0-122.0", "trial": 5, "time_elapsed": 1080967, "serialpos": 3, "key_press": -1, "wordID": 124, "type": "PRES_AUD", "trial_index": 176}, "uniqueid": "MTK1655:3X66WABAJXPX80VU6N6QJL5SFR0G3M", "dateTime": 1516122410855}, {"current_trial": 177, "trialdata": {"rt": -1000, "trial_type": "single-audio", "word": "contract", "stimulus": "/static/audio/wordpool/CONTRACT.wav", "conditions": [24, 1600, "a", 12000], "internal_node_id": "0.0-123.0", "trial": 5, "time_elapsed": 1083538, "serialpos": 4, "key_press": -1, "wordID": 367, "type": "PRES_AUD", "trial_index": 177}, "uniqueid": "MTK1655:3X66WABAJXPX80VU6N6QJL5SFR0G3M", "dateTime": 1516122413426}, {"current_trial": 178, "trialdata": {"rt": -1000, "trial_type": "single-audio", "word": "fleet", "stimulus": "/static/audio/wordpool/FLEET.wav", "conditions": [24, 1600, "a", 12000], "internal_node_id": "0.0-124.0", "trial": 5, "time_elapsed": 1086168, "serialpos": 5, "key_press": -1, "wordID": 577, "type": "PRES_AUD", "trial_index": 178}, "uniqueid": "MTK1655:3X66WABAJXPX80VU6N6QJL5SFR0G3M", "dateTime": 1516122416056}, {"current_trial": 179, "trialdata": {"rt": -1000, "trial_type": "single-audio", "word": "seafood", "stimulus": "/static/audio/wordpool/SEAFOOD.wav", "conditions": [24, 1600, "a", 12000], "internal_node_id": "0.0-125.0", "trial": 5, "time_elapsed": 1088798, "serialpos": 6, "key_press": -1, "wordID": 1259, "type": "PRES_AUD", "trial_index": 179}, "uniqueid": "MTK1655:3X66WABAJXPX80VU6N6QJL5SFR0G3M", "dateTime": 1516122418686}, {"current_trial": 180, "trialdata": {"rt": -1000, "trial_type": "single-audio", "word": "europe", "stimulus": "/static/audio/wordpool/EUROPE.wav", "conditions": [24, 1600, "a", 12000], "internal_node_id": "0.0-126.0", "trial": 5, "time_elapsed": 1091298, "serialpos": 7, "key_press": -1, "wordID": 540, "type": "PRES_AUD", "trial_index": 180}, "uniqueid": "MTK1655:3X66WABAJXPX80VU6N6QJL5SFR0G3M", "dateTime": 1516122421186}, {"current_trial": 181, "trialdata": {"rt": -1000, "trial_type": "single-audio", "word": "london", "stimulus": "/static/audio/wordpool/LONDON.wav", "conditions": [24, 1600, "a", 12000], "internal_node_id": "0.0-127.0", "trial": 5, "time_elapsed": 1093801, "serialpos": 8, "key_press": -1, "wordID": 842, "type": "PRES_AUD", "trial_index": 181}, "uniqueid": "MTK1655:3X66WABAJXPX80VU6N6QJL5SFR0G3M", "dateTime": 1516122423689}, {"current_trial": 182, "trialdata": {"rt": -1000, "trial_type": "single-audio", "word": "cod", "stimulus": "/static/audio/wordpool/COD.wav", "conditions": [24, 1600, "a", 12000], "internal_node_id": "0.0-128.0", "trial": 5, "time_elapsed": 1096341, "serialpos": 9, "key_press": -1, "wordID": 339, "type": "PRES_AUD", "trial_index": 182}, "uniqueid": "MTK1655:3X66WABAJXPX80VU6N6QJL5SFR0G3M", "dateTime": 1516122426229}, {"current_trial": 183, "trialdata": {"rt": -1000, "trial_type": "single-audio", "word": "rug", "stimulus": "/static/audio/wordpool/RUG.wav", "conditions": [24, 1600, "a", 12000], "internal_node_id": "0.0-129.0", "trial": 5, "time_elapsed": 1098860, "serialpos": 10, "key_press": -1, "wordID": 1214, "type": "PRES_AUD", "trial_index": 183}, "uniqueid": "MTK1655:3X66WABAJXPX80VU6N6QJL5SFR0G3M", "dateTime": 1516122428748}, {"current_trial": 184, "trialdata": {"rt": -1000, "trial_type": "single-audio", "word": "headband", "stimulus": "/static/audio/wordpool/HEADBAND.wav", "conditions": [24, 1600, "a", 12000], "internal_node_id": "0.0-130.0", "trial": 5, "time_elapsed": 1101362, "serialpos": 11, "key_press": -1, "wordID": 695, "type": "PRES_AUD", "trial_index": 184}, "uniqueid": "MTK1655:3X66WABAJXPX80VU6N6QJL5SFR0G3M", "dateTime": 1516122431250}, {"current_trial": 185, "trialdata": {"rt": -1000, "trial_type": "single-audio", "word": "hiker", "stimulus": "/static/audio/wordpool/HIKER.wav", "conditions": [24, 1600, "a", 12000], "internal_node_id": "0.0-131.0", "trial": 5, "time_elapsed": 1104101, "serialpos": 12, "key_press": -1, "wordID": 707, "type": "PRES_AUD", "trial_index": 185}, "uniqueid": "MTK1655:3X66WABAJXPX80VU6N6QJL5SFR0G3M", "dateTime": 1516122433989}, {"current_trial": 186, "trialdata": {"rt": -1000, "trial_type": "single-audio", "word": "climber", "stimulus": "/static/audio/wordpool/CLIMBER.wav", "conditions": [24, 1600, "a", 12000], "internal_node_id": "0.0-132.0", "trial": 5, "time_elapsed": 1106856, "serialpos": 13, "key_press": -1, "wordID": 322, "type": "PRES_AUD", "trial_index": 186}, "uniqueid": "MTK1655:3X66WABAJXPX80VU6N6QJL5SFR0G3M", "dateTime": 1516122436744}, {"current_trial": 187, "trialdata": {"rt": -1000, "trial_type": "single-audio", "word": "doughnut", "stimulus": "/static/audio/wordpool/DOUGHNUT.wav", "conditions": [24, 1600, "a", 12000], "internal_node_id": "0.0-133.0", "trial": 5, "time_elapsed": 1109260, "serialpos": 14, "key_press": -1, "wordID": 489, "type": "PRES_AUD", "trial_index": 187}, "uniqueid": "MTK1655:3X66WABAJXPX80VU6N6QJL5SFR0G3M", "dateTime": 1516122439149}, {"current_trial": 188, "trialdata": {"rt": -1000, "trial_type": "single-audio", "word": "brandy", "stimulus": "/static/audio/wordpool/BRANDY.wav", "conditions": [24, 1600, "a", 12000], "internal_node_id": "0.0-134.0", "trial": 5, "time_elapsed": 1111738, "serialpos": 15, "key_press": -1, "wordID": 168, "type": "PRES_AUD", "trial_index": 188}, "uniqueid": "MTK1655:3X66WABAJXPX80VU6N6QJL5SFR0G3M", "dateTime": 1516122441626}, {"current_trial": 189, "trialdata": {"rt": -1000, "trial_type": "single-audio", "word": "sketch", "stimulus": "/static/audio/wordpool/SKETCH.wav", "conditions": [24, 1600, "a", 12000], "internal_node_id": "0.0-135.0", "trial": 5, "time_elapsed": 1114472, "serialpos": 16, "key_press": -1, "wordID": 1314, "type": "PRES_AUD", "trial_index": 189}, "uniqueid": "MTK1655:3X66WABAJXPX80VU6N6QJL5SFR0G3M", "dateTime": 1516122444360}, {"current_trial": 190, "trialdata": {"rt": -1000, "trial_type": "single-audio", "word": "forehead", "stimulus": "/static/audio/wordpool/FOREHEAD.wav", "conditions": [24, 1600, "a", 12000], "internal_node_id": "0.0-136.0", "trial": 5, "time_elapsed": 1117212, "serialpos": 17, "key_press": -1, "wordID": 591, "type": "PRES_AUD", "trial_index": 190}, "uniqueid": "MTK1655:3X66WABAJXPX80VU6N6QJL5SFR0G3M", "dateTime": 1516122447100}, {"current_trial": 191, "trialdata": {"rt": -1000, "trial_type": "single-audio", "word": "chipmunk", "stimulus": "/static/audio/wordpool/CHIPMUNK.wav", "conditions": [24, 1600, "a", 12000], "internal_node_id": "0.0-137.0", "trial": 5, "time_elapsed": 1119696, "serialpos": 18, "key_press": -1, "wordID": 303, "type": "PRES_AUD", "trial_index": 191}, "uniqueid": "MTK1655:3X66WABAJXPX80VU6N6QJL5SFR0G3M", "dateTime": 1516122449585}, {"current_trial": 192, "trialdata": {"rt": -1000, "trial_type": "single-audio", "word": "pilot", "stimulus": "/static/audio/wordpool/PILOT.wav", "conditions": [24, 1600, "a", 12000], "internal_node_id": "0.0-138.0", "trial": 5, "time_elapsed": 1122400, "serialpos": 19, "key_press": -1, "wordID": 1069, "type": "PRES_AUD", "trial_index": 192}, "uniqueid": "MTK1655:3X66WABAJXPX80VU6N6QJL5SFR0G3M", "dateTime": 1516122452288}, {"current_trial": 193, "trialdata": {"rt": -1000, "trial_type": "single-audio", "word": "tile", "stimulus": "/static/audio/wordpool/TILE.wav", "conditions": [24, 1600, "a", 12000], "internal_node_id": "0.0-139.0", "trial": 5, "time_elapsed": 1125186, "serialpos": 20, "key_press": -1, "wordID": 1467, "type": "PRES_AUD", "trial_index": 193}, "uniqueid": "MTK1655:3X66WABAJXPX80VU6N6QJL5SFR0G3M", "dateTime": 1516122455074}, {"current_trial": 194, "trialdata": {"rt": -1000, "trial_type": "single-audio", "word": "poet", "stimulus": "/static/audio/wordpool/POET.wav", "conditions": [24, 1600, "a", 12000], "internal_node_id": "0.0-140.0", "trial": 5, "time_elapsed": 1127698, "serialpos": 21, "key_press": -1, "wordID": 1094, "type": "PRES_AUD", "trial_index": 194}, "uniqueid": "MTK1655:3X66WABAJXPX80VU6N6QJL5SFR0G3M", "dateTime": 1516122457587}, {"current_trial": 195, "trialdata": {"rt": -1000, "trial_type": "single-audio", "word": "beaver", "stimulus": "/static/audio/wordpool/BEAVER.wav", "conditions": [24, 1600, "a", 12000], "internal_node_id": "0.0-141.0", "trial": 5, "time_elapsed": 1130258, "serialpos": 22, "key_press": -1, "wordID": 108, "type": "PRES_AUD", "trial_index": 195}, "uniqueid": "MTK1655:3X66WABAJXPX80VU6N6QJL5SFR0G3M", "dateTime": 1516122460146}, {"current_trial": 196, "trialdata": {"rt": -1000, "trial_type": "single-audio", "word": "crater", "stimulus": "/static/audio/wordpool/CRATER.wav", "conditions": [24, 1600, "a", 12000], "internal_node_id": "0.0-142.0", "trial": 5, "time_elapsed": 1132911, "serialpos": 23, "key_press": -1, "wordID": 399, "type": "PRES_AUD", "trial_index": 196}, "uniqueid": "MTK1655:3X66WABAJXPX80VU6N6QJL5SFR0G3M", "dateTime": 1516122462799}, {"current_trial": 197, "trialdata": {"rt": -1, "trial_type": "single-stim", "stimulus": "", "internal_node_id": "0.0-143.0-0.0", "time_elapsed": 1134121, "key_press": -1, "type": "PRE_RECALL_DELAY", "trial_index": 197}, "uniqueid": "MTK1655:3X66WABAJXPX80VU6N6QJL5SFR0G3M", "dateTime": 1516122464009}, {"current_trial": 198, "trialdata": {"rt": -1000, "trial_type": "single-audio", "stimulus": "/static/audio/400Hz.wav", "internal_node_id": "0.0-144.0", "time_elapsed": 1134622, "key_press": -1, "type": "PRE_RECALL_ALERT", "trial_index": 198}, "uniqueid": "MTK1655:3X66WABAJXPX80VU6N6QJL5SFR0G3M", "dateTime": 1516122464511}, {"current_trial": 199, "trialdata": {"rt": [4785, 7088, 12613, 18389, 20710, 26325, 30604], "recwords": ["popcorn", "jelly", "seafood", "eurpoe", "london", "donut", "brandy"], "key_times": [2641, 2792, 2937, 3392, 3769, 4033, 4288, 4785, 5633, 5825, 6064, 6376, 6736, 7088, 10757, 10974, 11358, 11774, 12030, 12182, 12421, 12613, 15591, 16661, 17150, 17390, 17597, 17877, 18389, 18877, 19061, 19277, 19629, 19789, 20029, 20710, 23469, 25093, 25333, 25678, 25981, 26325, 28509, 28781, 29021, 29229, 29605, 29845, 30604], "trial_type": "free-recall", "conditions": [24, 1600, "a", 12000], "internal_node_id": "0.0-145.0-0.0", "key_presses": [80, 79, 80, 67, 79, 82, 78, 13, 74, 69, 76, 76, 89, 13, 83, 69, 65, 70, 79, 79, 68, 13, 69, 85, 82, 80, 79, 69, 13, 76, 79, 78, 68, 79, 78, 13, 68, 79, 78, 85, 84, 32, 66, 82, 65, 78, 68, 89, 13], "trial": 5, "time_elapsed": 1194626, "type": "FREE_RECALL", "trial_index": 199}, "uniqueid": "MTK1655:3X66WABAJXPX80VU6N6QJL5SFR0G3M", "dateTime": 1516122524517}, {"current_trial": 200, "trialdata": {"rt": 25129, "trial_type": "text", "internal_node_id": "0.0-146.0", "time_elapsed": 1221763, "key_press": 32, "type": "INSTRUCTIONS", "trial_index": 200}, "uniqueid": "MTK1655:3X66WABAJXPX80VU6N6QJL5SFR0G3M", "dateTime": 1516122551652}, {"current_trial": 201, "trialdata": {"rt": [2849, 7113, 10752, 14168, 17448, 20944], "trial_type": "math-distractor", "key_times": [2121, 2609, 2849, 6329, 6872, 7113, 10408, 10616, 10752, 13504, 13759, 14168, 16960, 17280, 17448, 20753, 20944], "responses": ["15", "14", "12", "20", "13", "7"], "num2": [6, 9, 5, 9, 1, 3, 6], "num3": [7, 9, 6, 6, 3, 1, 2], "conditions": [24, 1600, "a", 24000], "internal_node_id": "0.0-147.0", "key_presses": [49, 53, 13, 49, 52, 13, 49, 50, 13, 50, 48, 13, 49, 51, 13, 55, 13], "trial": 6, "time_elapsed": 1247773, "type": "DISTRACTOR", "trial_index": 201, "num1": [1, 5, 6, 5, 9, 3, 4]}, "uniqueid": "MTK1655:3X66WABAJXPX80VU6N6QJL5SFR0G3M", "dateTime": 1516122577661}, {"current_trial": 202, "trialdata": {"rt": -1, "trial_type": "single-stim", "stimulus": "<p id=\"stim\">10</p>", "internal_node_id": "0.0-148.0-0.0", "time_elapsed": 1250780, "key_press": -1, "trial_index": 202}, "uniqueid": "MTK1655:3X66WABAJXPX80VU6N6QJL5SFR0G3M", "dateTime": 1516122580668}, {"current_trial": 203, "trialdata": {"rt": -1, "trial_type": "single-stim", "stimulus": "<p id=\"stim\">9</p>", "internal_node_id": "0.0-148.0-1.0", "time_elapsed": 1251786, "key_press": -1, "trial_index": 203}, "uniqueid": "MTK1655:3X66WABAJXPX80VU6N6QJL5SFR0G3M", "dateTime": 1516122581674}, {"current_trial": 204, "trialdata": {"rt": -1, "trial_type": "single-stim", "stimulus": "<p id=\"stim\">8</p>", "internal_node_id": "0.0-148.0-2.0", "time_elapsed": 1252788, "key_press": -1, "trial_index": 204}, "uniqueid": "MTK1655:3X66WABAJXPX80VU6N6QJL5SFR0G3M", "dateTime": 1516122582676}, {"current_trial": 205, "trialdata": {"rt": -1, "trial_type": "single-stim", "stimulus": "<p id=\"stim\">7</p>", "internal_node_id": "0.0-148.0-3.0", "time_elapsed": 1253793, "key_press": -1, "trial_index": 205}, "uniqueid": "MTK1655:3X66WABAJXPX80VU6N6QJL5SFR0G3M", "dateTime": 1516122583681}, {"current_trial": 206, "trialdata": {"rt": -1, "trial_type": "single-stim", "stimulus": "<p id=\"stim\">6</p>", "internal_node_id": "0.0-148.0-4.0", "time_elapsed": 1254795, "key_press": -1, "trial_index": 206}, "uniqueid": "MTK1655:3X66WABAJXPX80VU6N6QJL5SFR0G3M", "dateTime": 1516122584684}, {"current_trial": 207, "trialdata": {"rt": -1, "trial_type": "single-stim", "stimulus": "<p id=\"stim\">5</p>", "internal_node_id": "0.0-148.0-5.0", "time_elapsed": 1255800, "key_press": -1, "trial_index": 207}, "uniqueid": "MTK1655:3X66WABAJXPX80VU6N6QJL5SFR0G3M", "dateTime": 1516122585688}, {"current_trial": 208, "trialdata": {"rt": -1, "trial_type": "single-stim", "stimulus": "<p id=\"stim\">4</p>", "internal_node_id": "0.0-148.0-6.0", "time_elapsed": 1256804, "key_press": -1, "trial_index": 208}, "uniqueid": "MTK1655:3X66WABAJXPX80VU6N6QJL5SFR0G3M", "dateTime": 1516122586692}, {"current_trial": 209, "trialdata": {"rt": -1, "trial_type": "single-stim", "stimulus": "<p id=\"stim\">3</p>", "internal_node_id": "0.0-148.0-7.0", "time_elapsed": 1257808, "key_press": -1, "trial_index": 209}, "uniqueid": "MTK1655:3X66WABAJXPX80VU6N6QJL5SFR0G3M", "dateTime": 1516122587696}, {"current_trial": 210, "trialdata": {"rt": -1, "trial_type": "single-stim", "stimulus": "<p id=\"stim\">2</p>", "internal_node_id": "0.0-148.0-8.0", "time_elapsed": 1258812, "key_press": -1, "trial_index": 210}, "uniqueid": "MTK1655:3X66WABAJXPX80VU6N6QJL5SFR0G3M", "dateTime": 1516122588700}, {"current_trial": 211, "trialdata": {"rt": -1, "trial_type": "single-stim", "stimulus": "<p id=\"stim\">1</p>", "internal_node_id": "0.0-148.0-9.0", "time_elapsed": 1259816, "key_press": -1, "trial_index": 211}, "uniqueid": "MTK1655:3X66WABAJXPX80VU6N6QJL5SFR0G3M", "dateTime": 1516122589704}, {"current_trial": 212, "trialdata": {"rt": -1, "trial_type": "single-stim", "stimulus": "<p id=\"stim\">+</p>", "internal_node_id": "0.0-149.0-0.0", "time_elapsed": 1261320, "key_press": -1, "type": "FIXATION", "trial_index": 212}, "uniqueid": "MTK1655:3X66WABAJXPX80VU6N6QJL5SFR0G3M", "dateTime": 1516122591208}, {"current_trial": 213, "trialdata": {"rt": -1000, "trial_type": "single-audio", "word": "finger", "stimulus": "/static/audio/wordpool/FINGER.wav", "conditions": [24, 1600, "a", 24000], "internal_node_id": "0.0-150.0", "trial": 6, "time_elapsed": 1263908, "serialpos": 0, "key_press": -1, "wordID": 566, "type": "PRES_AUD", "trial_index": 213}, "uniqueid": "MTK1655:3X66WABAJXPX80VU6N6QJL5SFR0G3M", "dateTime": 1516122593796}, {"current_trial": 214, "trialdata": {"rt": -1000, "trial_type": "single-audio", "word": "harp", "stimulus": "/static/audio/wordpool/HARP.wav", "conditions": [24, 1600, "a", 24000], "internal_node_id": "0.0-151.0", "trial": 6, "time_elapsed": 1266531, "serialpos": 1, "key_press": -1, "wordID": 688, "type": "PRES_AUD", "trial_index": 214}, "uniqueid": "MTK1655:3X66WABAJXPX80VU6N6QJL5SFR0G3M", "dateTime": 1516122596419}, {"current_trial": 215, "trialdata": {"rt": -1000, "trial_type": "single-audio", "word": "piano", "stimulus": "/static/audio/wordpool/PIANO.wav", "conditions": [24, 1600, "a", 24000], "internal_node_id": "0.0-152.0", "trial": 6, "time_elapsed": 1269102, "serialpos": 2, "key_press": -1, "wordID": 1056, "type": "PRES_AUD", "trial_index": 215}, "uniqueid": "MTK1655:3X66WABAJXPX80VU6N6QJL5SFR0G3M", "dateTime": 1516122598990}, {"current_trial": 216, "trialdata": {"rt": -1000, "trial_type": "single-audio", "word": "hero", "stimulus": "/static/audio/wordpool/HERO.wav", "conditions": [24, 1600, "a", 24000], "internal_node_id": "0.0-153.0", "trial": 6, "time_elapsed": 1271807, "serialpos": 3, "key_press": -1, "wordID": 705, "type": "PRES_AUD", "trial_index": 216}, "uniqueid": "MTK1655:3X66WABAJXPX80VU6N6QJL5SFR0G3M", "dateTime": 1516122601695}, {"current_trial": 217, "trialdata": {"rt": -1000, "trial_type": "single-audio", "word": "valley", "stimulus": "/static/audio/wordpool/VALLEY.wav", "conditions": [24, 1600, "a", 24000], "internal_node_id": "0.0-154.0", "trial": 6, "time_elapsed": 1274552, "serialpos": 4, "key_press": -1, "wordID": 1544, "type": "PRES_AUD", "trial_index": 217}, "uniqueid": "MTK1655:3X66WABAJXPX80VU6N6QJL5SFR0G3M", "dateTime": 1516122604440}, {"current_trial": 218, "trialdata": {"rt": -1000, "trial_type": "single-audio", "word": "wrist", "stimulus": "/static/audio/wordpool/WRIST.wav", "conditions": [24, 1600, "a", 24000], "internal_node_id": "0.0-155.0", "trial": 6, "time_elapsed": 1276966, "serialpos": 5, "key_press": -1, "wordID": 1625, "type": "PRES_AUD", "trial_index": 218}, "uniqueid": "MTK1655:3X66WABAJXPX80VU6N6QJL5SFR0G3M", "dateTime": 1516122606855}, {"current_trial": 219, "trialdata": {"rt": -1000, "trial_type": "single-audio", "word": "mister", "stimulus": "/static/audio/wordpool/MISTER.wav", "conditions": [24, 1600, "a", 24000], "internal_node_id": "0.0-156.0", "trial": 6, "time_elapsed": 1279520, "serialpos": 6, "key_press": -1, "wordID": 900, "type": "PRES_AUD", "trial_index": 219}, "uniqueid": "MTK1655:3X66WABAJXPX80VU6N6QJL5SFR0G3M", "dateTime": 1516122609408}, {"current_trial": 220, "trialdata": {"rt": -1000, "trial_type": "single-audio", "word": "muffin", "stimulus": "/static/audio/wordpool/MUFFIN.wav", "conditions": [24, 1600, "a", 24000], "internal_node_id": "0.0-157.0", "trial": 6, "time_elapsed": 1282272, "serialpos": 7, "key_press": -1, "wordID": 928, "type": "PRES_AUD", "trial_index": 220}, "uniqueid": "MTK1655:3X66WABAJXPX80VU6N6QJL5SFR0G3M", "dateTime": 1516122612160}, {"current_trial": 221, "trialdata": {"rt": -1000, "trial_type": "single-audio", "word": "lake", "stimulus": "/static/audio/wordpool/LAKE.wav", "conditions": [24, 1600, "a", 24000], "internal_node_id": "0.0-158.0", "trial": 6, "time_elapsed": 1284807, "serialpos": 8, "key_press": -1, "wordID": 795, "type": "PRES_AUD", "trial_index": 221}, "uniqueid": "MTK1655:3X66WABAJXPX80VU6N6QJL5SFR0G3M", "dateTime": 1516122614696}, {"current_trial": 222, "trialdata": {"rt": -1000, "trial_type": "single-audio", "word": "virus", "stimulus": "/static/audio/wordpool/VIRUS.wav", "conditions": [24, 1600, "a", 24000], "internal_node_id": "0.0-159.0", "trial": 6, "time_elapsed": 1287374, "serialpos": 9, "key_press": -1, "wordID": 1571, "type": "PRES_AUD", "trial_index": 222}, "uniqueid": "MTK1655:3X66WABAJXPX80VU6N6QJL5SFR0G3M", "dateTime": 1516122617262}, {"current_trial": 223, "trialdata": {"rt": -1000, "trial_type": "single-audio", "word": "creature", "stimulus": "/static/audio/wordpool/CREATURE.wav", "conditions": [24, 1600, "a", 24000], "internal_node_id": "0.0-160.0", "trial": 6, "time_elapsed": 1289882, "serialpos": 10, "key_press": -1, "wordID": 402, "type": "PRES_AUD", "trial_index": 223}, "uniqueid": "MTK1655:3X66WABAJXPX80VU6N6QJL5SFR0G3M", "dateTime": 1516122619770}, {"current_trial": 224, "trialdata": {"rt": -1000, "trial_type": "single-audio", "word": "shelter", "stimulus": "/static/audio/wordpool/SHELTER.wav", "conditions": [24, 1600, "a", 24000], "internal_node_id": "0.0-161.0", "trial": 6, "time_elapsed": 1292579, "serialpos": 11, "key_press": -1, "wordID": 1281, "type": "PRES_AUD", "trial_index": 224}, "uniqueid": "MTK1655:3X66WABAJXPX80VU6N6QJL5SFR0G3M", "dateTime": 1516122622467}, {"current_trial": 225, "trialdata": {"rt": -1000, "trial_type": "single-audio", "word": "tourist", "stimulus": "/static/audio/wordpool/TOURIST.wav", "conditions": [24, 1600, "a", 24000], "internal_node_id": "0.0-162.0", "trial": 6, "time_elapsed": 1295353, "serialpos": 12, "key_press": -1, "wordID": 1487, "type": "PRES_AUD", "trial_index": 225}, "uniqueid": "MTK1655:3X66WABAJXPX80VU6N6QJL5SFR0G3M", "dateTime": 1516122625241}, {"current_trial": 226, "trialdata": {"rt": -1000, "trial_type": "single-audio", "word": "cobra", "stimulus": "/static/audio/wordpool/COBRA.wav", "conditions": [24, 1600, "a", 24000], "internal_node_id": "0.0-163.0", "trial": 6, "time_elapsed": 1297784, "serialpos": 13, "key_press": -1, "wordID": 335, "type": "PRES_AUD", "trial_index": 226}, "uniqueid": "MTK1655:3X66WABAJXPX80VU6N6QJL5SFR0G3M", "dateTime": 1516122627672}, {"current_trial": 227, "trialdata": {"rt": -1000, "trial_type": "single-audio", "word": "garlic", "stimulus": "/static/audio/wordpool/GARLIC.wav", "conditions": [24, 1600, "a", 24000], "internal_node_id": "0.0-164.0", "trial": 6, "time_elapsed": 1300402, "serialpos": 14, "key_press": -1, "wordID": 623, "type": "PRES_AUD", "trial_index": 227}, "uniqueid": "MTK1655:3X66WABAJXPX80VU6N6QJL5SFR0G3M", "dateTime": 1516122630290}, {"current_trial": 228, "trialdata": {"rt": -1000, "trial_type": "single-audio", "word": "badge", "stimulus": "/static/audio/wordpool/BADGE.wav", "conditions": [24, 1600, "a", 24000], "internal_node_id": "0.0-165.0", "trial": 6, "time_elapsed": 1302996, "serialpos": 15, "key_press": -1, "wordID": 67, "type": "PRES_AUD", "trial_index": 228}, "uniqueid": "MTK1655:3X66WABAJXPX80VU6N6QJL5SFR0G3M", "dateTime": 1516122632884}, {"current_trial": 229, "trialdata": {"rt": -1000, "trial_type": "single-audio", "word": "gravel", "stimulus": "/static/audio/wordpool/GRAVEL.wav", "conditions": [24, 1600, "a", 24000], "internal_node_id": "0.0-166.0", "trial": 6, "time_elapsed": 1305628, "serialpos": 16, "key_press": -1, "wordID": 658, "type": "PRES_AUD", "trial_index": 229}, "uniqueid": "MTK1655:3X66WABAJXPX80VU6N6QJL5SFR0G3M", "dateTime": 1516122635516}, {"current_trial": 230, "trialdata": {"rt": -1000, "trial_type": "single-audio", "word": "lady", "stimulus": "/static/audio/wordpool/LADY.wav", "conditions": [24, 1600, "a", 24000], "internal_node_id": "0.0-167.0", "trial": 6, "time_elapsed": 1308068, "serialpos": 17, "key_press": -1, "wordID": 793, "type": "PRES_AUD", "trial_index": 230}, "uniqueid": "MTK1655:3X66WABAJXPX80VU6N6QJL5SFR0G3M", "dateTime": 1516122637957}, {"current_trial": 231, "trialdata": {"rt": -1000, "trial_type": "single-audio", "word": "sticker", "stimulus": "/static/audio/wordpool/STICKER.wav", "conditions": [24, 1600, "a", 24000], "internal_node_id": "0.0-168.0", "trial": 6, "time_elapsed": 1310534, "serialpos": 18, "key_press": -1, "wordID": 1381, "type": "PRES_AUD", "trial_index": 231}, "uniqueid": "MTK1655:3X66WABAJXPX80VU6N6QJL5SFR0G3M", "dateTime": 1516122640422}, {"current_trial": 232, "trialdata": {"rt": -1000, "trial_type": "single-audio", "word": "salmon", "stimulus": "/static/audio/wordpool/SALMON.wav", "conditions": [24, 1600, "a", 24000], "internal_node_id": "0.0-169.0", "trial": 6, "time_elapsed": 1312962, "serialpos": 19, "key_press": -1, "wordID": 1226, "type": "PRES_AUD", "trial_index": 232}, "uniqueid": "MTK1655:3X66WABAJXPX80VU6N6QJL5SFR0G3M", "dateTime": 1516122642850}, {"current_trial": 233, "trialdata": {"rt": -1000, "trial_type": "single-audio", "word": "scallop", "stimulus": "/static/audio/wordpool/SCALLOP.wav", "conditions": [24, 1600, "a", 24000], "internal_node_id": "0.0-170.0", "trial": 6, "time_elapsed": 1315762, "serialpos": 20, "key_press": -1, "wordID": 1241, "type": "PRES_AUD", "trial_index": 233}, "uniqueid": "MTK1655:3X66WABAJXPX80VU6N6QJL5SFR0G3M", "dateTime": 1516122645650}, {"current_trial": 234, "trialdata": {"rt": -1000, "trial_type": "single-audio", "word": "fiddle", "stimulus": "/static/audio/wordpool/FIDDLE.wav", "conditions": [24, 1600, "a", 24000], "internal_node_id": "0.0-171.0", "trial": 6, "time_elapsed": 1318221, "serialpos": 21, "key_press": -1, "wordID": 560, "type": "PRES_AUD", "trial_index": 234}, "uniqueid": "MTK1655:3X66WABAJXPX80VU6N6QJL5SFR0G3M", "dateTime": 1516122648109}, {"current_trial": 235, "trialdata": {"rt": -1000, "trial_type": "single-audio", "word": "outlaw", "stimulus": "/static/audio/wordpool/OUTLAW.wav", "conditions": [24, 1600, "a", 24000], "internal_node_id": "0.0-172.0", "trial": 6, "time_elapsed": 1320634, "serialpos": 22, "key_press": -1, "wordID": 988, "type": "PRES_AUD", "trial_index": 235}, "uniqueid": "MTK1655:3X66WABAJXPX80VU6N6QJL5SFR0G3M", "dateTime": 1516122650522}, {"current_trial": 236, "trialdata": {"rt": -1000, "trial_type": "single-audio", "word": "hawk", "stimulus": "/static/audio/wordpool/HAWK.wav", "conditions": [24, 1600, "a", 24000], "internal_node_id": "0.0-173.0", "trial": 6, "time_elapsed": 1323182, "serialpos": 23, "key_press": -1, "wordID": 691, "type": "PRES_AUD", "trial_index": 236}, "uniqueid": "MTK1655:3X66WABAJXPX80VU6N6QJL5SFR0G3M", "dateTime": 1516122653070}, {"current_trial": 237, "trialdata": {"rt": -1, "trial_type": "single-stim", "stimulus": "", "internal_node_id": "0.0-174.0-0.0", "time_elapsed": 1324494, "key_press": -1, "type": "PRE_RECALL_DELAY", "trial_index": 237}, "uniqueid": "MTK1655:3X66WABAJXPX80VU6N6QJL5SFR0G3M", "dateTime": 1516122654382}, {"current_trial": 238, "trialdata": {"rt": -1000, "trial_type": "single-audio", "stimulus": "/static/audio/400Hz.wav", "internal_node_id": "0.0-175.0", "time_elapsed": 1324995, "key_press": -1, "type": "PRE_RECALL_ALERT", "trial_index": 238}, "uniqueid": "MTK1655:3X66WABAJXPX80VU6N6QJL5SFR0G3M", "dateTime": 1516122654883}, {"current_trial": 239, "trialdata": {"rt": [3389, 5597, 7717, 13429, 17244, 19884, 21620, 25732], "recwords": ["finger", "harp", "piano", "muffin", "creature", "lady", "salmon", "scallop"], "key_times": [2173, 2341, 2549, 2765, 2932, 3212, 3389, 3949, 4085, 4461, 5093, 5597, 6285, 6517, 6789, 6973, 7389, 7717, 10661, 10941, 11285, 11477, 11597, 11813, 13429, 15421, 15668, 15836, 16013, 16156, 16540, 16797, 17053, 17244, 17764, 17932, 18244, 18436, 19884, 20293, 20540, 20708, 20908, 21124, 21325, 21620, 21989, 22308, 22492, 22661, 22812, 23012, 24252, 25732], "trial_type": "free-recall", "conditions": [24, 1600, "a", 24000], "internal_node_id": "0.0-176.0-0.0", "key_presses": [70, 73, 78, 71, 69, 82, 13, 72, 65, 82, 80, 13, 80, 73, 65, 78, 79, 13, 77, 85, 70, 70, 73, 78, 13, 67, 82, 69, 65, 84, 85, 82, 69, 13, 76, 65, 68, 89, 13, 83, 65, 76, 77, 79, 78, 13, 83, 67, 65, 76, 76, 79, 80, 13], "trial": 6, "time_elapsed": 1384996, "type": "FREE_RECALL", "trial_index": 239}, "uniqueid": "MTK1655:3X66WABAJXPX80VU6N6QJL5SFR0G3M", "dateTime": 1516122714887}, {"current_trial": 240, "trialdata": {"rt": 167917, "trial_type": "text", "internal_node_id": "0.0-177.0", "time_elapsed": 1554921, "key_press": 32, "type": "INSTRUCTIONS", "trial_index": 240}, "uniqueid": "MTK1655:3X66WABAJXPX80VU6N6QJL5SFR0G3M", "dateTime": 1516122884809}, {"current_trial": 241, "trialdata": {"rt": [5681, 8745, 10874, 13818, 16514, 20098, 23121], "trial_type": "math-distractor", "key_times": [5238, 5394, 5681, 8171, 8418, 8745, 10570, 10874, 12905, 13362, 13818, 16147, 16370, 16514, 19482, 19898, 20098, 21990, 22681, 22946, 23121], "responses": ["20", "17", "9", "14", "12", "14", "5"], "num2": [7, 5, 1, 4, 4, 3, 1, 5], "num3": [6, 6, 1, 6, 3, 5, 2, 1], "conditions": [24, 1600, "a", 24000], "internal_node_id": "0.0-178.0", "key_presses": [50, 48, 13, 49, 55, 13, 57, 13, 49, 52, 13, 49, 50, 13, 49, 52, 13, 52, 8, 53, 13], "trial": 7, "time_elapsed": 1580930, "type": "DISTRACTOR", "trial_index": 241, "num1": [8, 6, 7, 4, 5, 6, 2, 3]}, "uniqueid": "MTK1655:3X66WABAJXPX80VU6N6QJL5SFR0G3M", "dateTime": 1516122910818}, {"current_trial": 242, "trialdata": {"rt": -1, "trial_type": "single-stim", "stimulus": "<p id=\"stim\">10</p>", "internal_node_id": "0.0-179.0-0.0", "time_elapsed": 1583940, "key_press": -1, "trial_index": 242}, "uniqueid": "MTK1655:3X66WABAJXPX80VU6N6QJL5SFR0G3M", "dateTime": 1516122913828}, {"current_trial": 243, "trialdata": {"rt": -1, "trial_type": "single-stim", "stimulus": "<p id=\"stim\">9</p>", "internal_node_id": "0.0-179.0-1.0", "time_elapsed": 1584946, "key_press": -1, "trial_index": 243}, "uniqueid": "MTK1655:3X66WABAJXPX80VU6N6QJL5SFR0G3M", "dateTime": 1516122914834}, {"current_trial": 244, "trialdata": {"rt": -1, "trial_type": "single-stim", "stimulus": "<p id=\"stim\">8</p>", "internal_node_id": "0.0-179.0-2.0", "time_elapsed": 1585951, "key_press": -1, "trial_index": 244}, "uniqueid": "MTK1655:3X66WABAJXPX80VU6N6QJL5SFR0G3M", "dateTime": 1516122915839}, {"current_trial": 245, "trialdata": {"rt": -1, "trial_type": "single-stim", "stimulus": "<p id=\"stim\">7</p>", "internal_node_id": "0.0-179.0-3.0", "time_elapsed": 1586955, "key_press": -1, "trial_index": 245}, "uniqueid": "MTK1655:3X66WABAJXPX80VU6N6QJL5SFR0G3M", "dateTime": 1516122916843}, {"current_trial": 246, "trialdata": {"rt": -1, "trial_type": "single-stim", "stimulus": "<p id=\"stim\">6</p>", "internal_node_id": "0.0-179.0-4.0", "time_elapsed": 1587959, "key_press": -1, "trial_index": 246}, "uniqueid": "MTK1655:3X66WABAJXPX80VU6N6QJL5SFR0G3M", "dateTime": 1516122917847}, {"current_trial": 247, "trialdata": {"rt": -1, "trial_type": "single-stim", "stimulus": "<p id=\"stim\">5</p>", "internal_node_id": "0.0-179.0-5.0", "time_elapsed": 1588963, "key_press": -1, "trial_index": 247}, "uniqueid": "MTK1655:3X66WABAJXPX80VU6N6QJL5SFR0G3M", "dateTime": 1516122918851}, {"current_trial": 248, "trialdata": {"rt": -1, "trial_type": "single-stim", "stimulus": "<p id=\"stim\">4</p>", "internal_node_id": "0.0-179.0-6.0", "time_elapsed": 1589967, "key_press": -1, "trial_index": 248}, "uniqueid": "MTK1655:3X66WABAJXPX80VU6N6QJL5SFR0G3M", "dateTime": 1516122919855}, {"current_trial": 249, "trialdata": {"rt": -1, "trial_type": "single-stim", "stimulus": "<p id=\"stim\">3</p>", "internal_node_id": "0.0-179.0-7.0", "time_elapsed": 1590971, "key_press": -1, "trial_index": 249}, "uniqueid": "MTK1655:3X66WABAJXPX80VU6N6QJL5SFR0G3M", "dateTime": 1516122920859}, {"current_trial": 250, "trialdata": {"rt": -1, "trial_type": "single-stim", "stimulus": "<p id=\"stim\">2</p>", "internal_node_id": "0.0-179.0-8.0", "time_elapsed": 1591975, "key_press": -1, "trial_index": 250}, "uniqueid": "MTK1655:3X66WABAJXPX80VU6N6QJL5SFR0G3M", "dateTime": 15161229218