{"assignmentId": "39O5D9O87UZKROFP41A7TUKDHPQ3CX", "workerId": "MTK1613", "questiondata": {"origin": "United States", "strat-rehearsal": "10", "marital": "Single", "education": "Some college", "ethnicity": "Not Hispanic", "color_depth": 24, "distracted": "No", "wrote-notes": "No", "strat-other": "", "screen_width": 1024, "avail_screen_width": 1024, "avail_screen_height": 568, "strat-image": "50", "language": "English", "gender": "Male", "age": "30", "gender_other": "", "race": ["White"], "strat-categorize": "30", "pixel_depth": 24, "strat-spatial": "5", "strat-story": "10", "race_other": "", "screen_height": 600}, "bonus": 0, "hitId": "3L2OEKSTW9HH84O6M8IQSIONIOR8YE", "counterbalance": 1181, "useragent": "Mozilla/5.0 (X11; Linux i686) AppleWebKit/537.36 (KHTML, like Gecko) Chrome/62.0.3202.75 Safari/537.36", "eventdata": [{"eventtype": "initialized", "interval": 0, "value": null, "timestamp": 1516042933969}, {"eventtype": "window_resize", "interval": 0, "value": [1022, 511], "timestamp": 1516042933969}, {"eventtype": "window_resize", "interval": 6524, "value": [1024, 517], "timestamp": 1516042940493}, {"eventtype": "focus", "interval": 228869, "value": "off", "timestamp": 1516043169362}, {"eventtype": "focus", "interval": 1266880, "value": "on", "timestamp": 1516044436242}, {"eventtype": "focus", "interval": 3, "value": "off", "timestamp": 1516044436245}, {"eventtype": "focus", "interval": 32, "value": "on", "timestamp": 1516044436277}], "data": [{"current_trial": 0, "trialdata": {"rt": 6747, "trial_type": "text", "internal_node_id": "0.0-0.0", "time_elapsed": 6783, "key_press": 32, "type": "INSTRUCTIONS", "trial_index": 0}, "uniqueid": "MTK1613:39O5D9O87UZKROFP41A7TUKDHPQ3CX", "dateTime": 1516042941704}, {"current_trial": 1, "trialdata": {"rt": 20338, "trial_type": "text", "internal_node_id": "0.0-1.0", "time_elapsed": 27136, "key_press": 32, "type": "INSTRUCTIONS", "trial_index": 1}, "uniqueid": "MTK1613:39O5D9O87UZKROFP41A7TUKDHPQ3CX", "dateTime": 1516042962052}, {"current_trial": 2, "trialdata": {"rt": [7199], "trial_type": "audio-test", "responses": ["ocean"], "internal_node_id": "0.0-2.0", "time_elapsed": 34736, "type": "AUDIO_TEST", "trial_index": 2}, "uniqueid": "MTK1613:39O5D9O87UZKROFP41A7TUKDHPQ3CX", "dateTime": 1516042969652}, {"current_trial": 3, "trialdata": {"rt": [8795], "trial_type": "audio-test", "responses": ["crystal"], "internal_node_id": "0.0-3.0", "time_elapsed": 43589, "type": "AUDIO_TEST", "trial_index": 3}, "uniqueid": "MTK1613:39O5D9O87UZKROFP41A7TUKDHPQ3CX", "dateTime": 1516042978504}, {"current_trial": 4, "trialdata": {"rt": [5746], "trial_type": "audio-test", "responses": ["spice"], "internal_node_id": "0.0-4.0", "time_elapsed": 49364, "type": "AUDIO_TEST", "trial_index": 4}, "uniqueid": "MTK1613:39O5D9O87UZKROFP41A7TUKDHPQ3CX", "dateTime": 1516042984280}, {"current_trial": 5, "trialdata": {"rt": 32681, "trial_type": "survey-text", "responses": "{\"Q0\":\"8:00pm\",\"Q1\":\"4:00am\",\"Q2\":\"5\"}", "internal_node_id": "0.0-5.0", "time_elapsed": 82809, "type": "SLEEP_SURVEY", "trial_index": 5}, "uniqueid": "MTK1613:39O5D9O87UZKROFP41A7TUKDHPQ3CX", "dateTime": 1516043017725}, {"current_trial": 6, "trialdata": {"rt": 26913, "trial_type": "text", "internal_node_id": "0.0-6.0", "time_elapsed": 110730, "key_press": 219, "type": "INSTRUCTIONS", "trial_index": 6}, "uniqueid": "MTK1613:39O5D9O87UZKROFP41A7TUKDHPQ3CX", "dateTime": 1516043045645}, {"current_trial": 7, "trialdata": {"rt": 1393291, "trial_type": "text", "internal_node_id": "0.0-7.0", "time_elapsed": 1504527, "key_press": 32, "type": "INSTRUCTIONS", "trial_index": 7}, "uniqueid": "MTK1613:39O5D9O87UZKROFP41A7TUKDHPQ3CX", "dateTime": 1516044439442}, {"current_trial": 8, "trialdata": {"rt": 11434, "trial_type": "text", "internal_node_id": "0.0-8.0", "time_elapsed": 1516465, "key_press": 32, "type": "INSTRUCTIONS", "trial_index": 8}, "uniqueid": "MTK1613:39O5D9O87UZKROFP41A7TUKDHPQ3CX", "dateTime": 1516044451380}, {"current_trial": 9, "trialdata": {"rt": [3899, 6803, 9826, 11918, 14350, 16989], "trial_type": "math-distractor", "key_times": [2461, 2615, 3899, 6474, 6578, 6803, 9307, 9475, 9826, 11534, 11665, 11918, 14000, 14350, 16361, 16469, 16989], "responses": ["18", "12", "13", "14", "9", "18"], "num2": [9, 2, 1, 4, 3, 5, 3], "num3": [8, 6, 6, 3, 5, 4, 3], "conditions": [18, 1200, "v", 18000], "internal_node_id": "0.0-9.0", "key_presses": [49, 56, 13, 49, 50, 13, 49, 51, 13, 49, 52, 13, 57, 13, 49, 56, 13], "trial": 0, "time_elapsed": 1535640, "type": "DISTRACTOR", "trial_index": 9, "num1": [1, 4, 8, 7, 1, 9, 5]}, "uniqueid": "MTK1613:39O5D9O87UZKROFP41A7TUKDHPQ3CX", "dateTime": 1516044470556}, {"current_trial": 10, "trialdata": {"rt": -1, "trial_type": "single-stim", "stimulus": "<p id=\"stim\">10</p>", "internal_node_id": "0.0-10.0-0.0", "time_elapsed": 1538650, "key_press": -1, "trial_index": 10}, "uniqueid": "MTK1613:39O5D9O87UZKROFP41A7TUKDHPQ3CX", "dateTime": 1516044473565}, {"current_trial": 11, "trialdata": {"rt": -1, "trial_type": "single-stim", "stimulus": "<p id=\"stim\">9</p>", "internal_node_id": "0.0-10.0-1.0", "time_elapsed": 1539657, "key_press": -1, "trial_index": 11}, "uniqueid": "MTK1613:39O5D9O87UZKROFP41A7TUKDHPQ3CX", "dateTime": 1516044474572}, {"current_trial": 12, "trialdata": {"rt": -1, "trial_type": "single-stim", "stimulus": "<p id=\"stim\">8</p>", "internal_node_id": "0.0-10.0-2.0", "time_elapsed": 1540663, "key_press": -1, "trial_index": 12}, "uniqueid": "MTK1613:39O5D9O87UZKROFP41A7TUKDHPQ3CX", "dateTime": 1516044475578}, {"current_trial": 13, "trialdata": {"rt": -1, "trial_type": "single-stim", "stimulus": "<p id=\"stim\">7</p>", "internal_node_id": "0.0-10.0-3.0", "time_elapsed": 1541685, "key_press": -1, "trial_index": 13}, "uniqueid": "MTK1613:39O5D9O87UZKROFP41A7TUKDHPQ3CX", "dateTime": 1516044476600}, {"current_trial": 14, "trialdata": {"rt": -1, "trial_type": "single-stim", "stimulus": "<p id=\"stim\">6</p>", "internal_node_id": "0.0-10.0-4.0", "time_elapsed": 1542690, "key_press": -1, "trial_index": 14}, "uniqueid": "MTK1613:39O5D9O87UZKROFP41A7TUKDHPQ3CX", "dateTime": 1516044477606}, {"current_trial": 15, "trialdata": {"rt": -1, "trial_type": "single-stim", "stimulus": "<p id=\"stim\">5</p>", "internal_node_id": "0.0-10.0-5.0", "time_elapsed": 1543696, "key_press": -1, "trial_index": 15}, "uniqueid": "MTK1613:39O5D9O87UZKROFP41A7TUKDHPQ3CX", "dateTime": 1516044478611}, {"current_trial": 16, "trialdata": {"rt": -1, "trial_type": "single-stim", "stimulus": "<p id=\"stim\">4</p>", "internal_node_id": "0.0-10.0-6.0", "time_elapsed": 1544700, "key_press": -1, "trial_index": 16}, "uniqueid": "MTK1613:39O5D9O87UZKROFP41A7TUKDHPQ3CX", "dateTime": 1516044479615}, {"current_trial": 17, "trialdata": {"rt": -1, "trial_type": "single-stim", "stimulus": "<p id=\"stim\">3</p>", "internal_node_id": "0.0-10.0-7.0", "time_elapsed": 1545705, "key_press": -1, "trial_index": 17}, "uniqueid": "MTK1613:39O5D9O87UZKROFP41A7TUKDHPQ3CX", "dateTime": 1516044480620}, {"current_trial": 18, "trialdata": {"rt": -1, "trial_type": "single-stim", "stimulus": "<p id=\"stim\">2</p>", "internal_node_id": "0.0-10.0-8.0", "time_elapsed": 1546716, "key_press": -1, "trial_index": 18}, "uniqueid": "MTK1613:39O5D9O87UZKROFP41A7TUKDHPQ3CX", "dateTime": 1516044481631}, {"current_trial": 19, "trialdata": {"rt": -1, "trial_type": "single-stim", "stimulus": "<p id=\"stim\">1</p>", "internal_node_id": "0.0-10.0-9.0", "time_elapsed": 1547721, "key_press": -1, "trial_index": 19}, "uniqueid": "MTK1613:39O5D9O87UZKROFP41A7TUKDHPQ3CX", "dateTime": 1516044482636}, {"current_trial": 20, "trialdata": {"rt": -1, "trial_type": "single-stim", "stimulus": "<p id=\"stim\">+</p>", "internal_node_id": "0.0-11.0-0.0", "time_elapsed": 1549225, "key_press": -1, "type": "FIXATION", "trial_index": 20}, "uniqueid": "MTK1613:39O5D9O87UZKROFP41A7TUKDHPQ3CX", "dateTime": 1516044484141}, {"current_trial": 21, "trialdata": {"rt": -1, "trial_type": "single-stim", "word": "pastry", "stimulus": "<p id=\"stim\">PASTRY</p>", "conditions": [18, 1200, "v", 18000], "internal_node_id": "0.0-12.0", "trial": 0, "time_elapsed": 1550431, "serialpos": 0, "key_press": -1, "wordID": 1021, "type": "PRES_VIS", "trial_index": 21}, "uniqueid": "MTK1613:39O5D9O87UZKROFP41A7TUKDHPQ3CX", "dateTime": 1516044485347}, {"current_trial": 22, "trialdata": {"rt": -1, "trial_type": "single-stim", "word": "suitcase", "stimulus": "<p id=\"stim\">SUITCASE</p>", "conditions": [18, 1200, "v", 18000], "internal_node_id": "0.0-13.0", "trial": 0, "time_elapsed": 1552608, "serialpos": 1, "key_press": -1, "wordID": 1402, "type": "PRES_VIS", "trial_index": 22}, "uniqueid": "MTK1613:39O5D9O87UZKROFP41A7TUKDHPQ3CX", "dateTime": 1516044487524}, {"current_trial": 23, "trialdata": {"rt": -1, "trial_type": "single-stim", "word": "garden", "stimulus": "<p id=\"stim\">GARDEN</p>", "conditions": [18, 1200, "v", 18000], "internal_node_id": "0.0-14.0", "trial": 0, "time_elapsed": 1554943, "serialpos": 2, "key_press": -1, "wordID": 622, "type": "PRES_VIS", "trial_index": 23}, "uniqueid": "MTK1613:39O5D9O87UZKROFP41A7TUKDHPQ3CX", "dateTime": 1516044489859}, {"current_trial": 24, "trialdata": {"rt": -1, "trial_type": "single-stim", "word": "europe", "stimulus": "<p id=\"stim\">EUROPE</p>", "conditions": [18, 1200, "v", 18000], "internal_node_id": "0.0-15.0", "trial": 0, "time_elapsed": 1557143, "serialpos": 3, "key_press": -1, "wordID": 540, "type": "PRES_VIS", "trial_index": 24}, "uniqueid": "MTK1613:39O5D9O87UZKROFP41A7TUKDHPQ3CX", "dateTime": 1516044492058}, {"current_trial": 25, "trialdata": {"rt": -1, "trial_type": "single-stim", "word": "tile", "stimulus": "<p id=\"stim\">TILE</p>", "conditions": [18, 1200, "v", 18000], "internal_node_id": "0.0-16.0", "trial": 0, "time_elapsed": 1559267, "serialpos": 4, "key_press": -1, "wordID": 1467, "type": "PRES_VIS", "trial_index": 25}, "uniqueid": "MTK1613:39O5D9O87UZKROFP41A7TUKDHPQ3CX", "dateTime": 1516044494182}, {"current_trial": 26, "trialdata": {"rt": -1, "trial_type": "single-stim", "word": "yacht", "stimulus": "<p id=\"stim\">YACHT</p>", "conditions": [18, 1200, "v", 18000], "internal_node_id": "0.0-17.0", "trial": 0, "time_elapsed": 1561324, "serialpos": 5, "key_press": -1, "wordID": 1628, "type": "PRES_VIS", "trial_index": 26}, "uniqueid": "MTK1613:39O5D9O87UZKROFP41A7TUKDHPQ3CX", "dateTime": 1516044496240}, {"current_trial": 27, "trialdata": {"rt": -1, "trial_type": "single-stim", "word": "paper", "stimulus": "<p id=\"stim\">PAPER</p>", "conditions": [18, 1200, "v", 18000], "internal_node_id": "0.0-18.0", "trial": 0, "time_elapsed": 1563460, "serialpos": 6, "key_press": -1, "wordID": 1010, "type": "PRES_VIS", "trial_index": 27}, "uniqueid": "MTK1613:39O5D9O87UZKROFP41A7TUKDHPQ3CX", "dateTime": 1516044498375}, {"current_trial": 28, "trialdata": {"rt": -1, "trial_type": "single-stim", "word": "nomad", "stimulus": "<p id=\"stim\">NOMAD</p>", "conditions": [18, 1200, "v", 18000], "internal_node_id": "0.0-19.0", "trial": 0, "time_elapsed": 1565749, "serialpos": 7, "key_press": -1, "wordID": 954, "type": "PRES_VIS", "trial_index": 28}, "uniqueid": "MTK1613:39O5D9O87UZKROFP41A7TUKDHPQ3CX", "dateTime": 1516044500665}, {"current_trial": 29, "trialdata": {"rt": -1, "trial_type": "single-stim", "word": "gavel", "stimulus": "<p id=\"stim\">GAVEL</p>", "conditions": [18, 1200, "v", 18000], "internal_node_id": "0.0-20.0", "trial": 0, "time_elapsed": 1567816, "serialpos": 8, "key_press": -1, "wordID": 626, "type": "PRES_VIS", "trial_index": 29}, "uniqueid": "MTK1613:39O5D9O87UZKROFP41A7TUKDHPQ3CX", "dateTime": 1516044502731}, {"current_trial": 30, "trialdata": {"rt": -1, "trial_type": "single-stim", "word": "zipper", "stimulus": "<p id=\"stim\">ZIPPER</p>", "conditions": [18, 1200, "v", 18000], "internal_node_id": "0.0-21.0", "trial": 0, "time_elapsed": 1569856, "serialpos": 9, "key_press": -1, "wordID": 1635, "type": "PRES_VIS", "trial_index": 30}, "uniqueid": "MTK1613:39O5D9O87UZKROFP41A7TUKDHPQ3CX", "dateTime": 1516044504774}, {"current_trial": 31, "trialdata": {"rt": -1, "trial_type": "single-stim", "word": "razor", "stimulus": "<p id=\"stim\">RAZOR</p>", "conditions": [18, 1200, "v", 18000], "internal_node_id": "0.0-22.0", "trial": 0, "time_elapsed": 1571926, "serialpos": 10, "key_press": -1, "wordID": 1170, "type": "PRES_VIS", "trial_index": 31}, "uniqueid": "MTK1613:39O5D9O87UZKROFP41A7TUKDHPQ3CX", "dateTime": 1516044506842}, {"current_trial": 32, "trialdata": {"rt": -1, "trial_type": "single-stim", "word": "glove", "stimulus": "<p id=\"stim\">GLOVE</p>", "conditions": [18, 1200, "v", 18000], "internal_node_id": "0.0-23.0", "trial": 0, "time_elapsed": 1573968, "serialpos": 11, "key_press": -1, "wordID": 641, "type": "PRES_VIS", "trial_index": 32}, "uniqueid": "MTK1613:39O5D9O87UZKROFP41A7TUKDHPQ3CX", "dateTime": 1516044508883}, {"current_trial": 33, "trialdata": {"rt": -1, "trial_type": "single-stim", "word": "banjo", "stimulus": "<p id=\"stim\">BANJO</p>", "conditions": [18, 1200, "v", 18000], "internal_node_id": "0.0-24.0", "trial": 0, "time_elapsed": 1576045, "serialpos": 12, "key_press": -1, "wordID": 81, "type": "PRES_VIS", "trial_index": 33}, "uniqueid": "MTK1613:39O5D9O87UZKROFP41A7TUKDHPQ3CX", "dateTime": 1516044510960}, {"current_trial": 34, "trialdata": {"rt": -1, "trial_type": "single-stim", "word": "smog", "stimulus": "<p id=\"stim\">SMOG</p>", "conditions": [18, 1200, "v", 18000], "internal_node_id": "0.0-25.0", "trial": 0, "time_elapsed": 1578457, "serialpos": 13, "key_press": -1, "wordID": 1329, "type": "PRES_VIS", "trial_index": 34}, "uniqueid": "MTK1613:39O5D9O87UZKROFP41A7TUKDHPQ3CX", "dateTime": 1516044513372}, {"current_trial": 35, "trialdata": {"rt": -1, "trial_type": "single-stim", "word": "picture", "stimulus": "<p id=\"stim\">PICTURE</p>", "conditions": [18, 1200, "v", 18000], "internal_node_id": "0.0-26.0", "trial": 0, "time_elapsed": 1580528, "serialpos": 14, "key_press": -1, "wordID": 1060, "type": "PRES_VIS", "trial_index": 35}, "uniqueid": "MTK1613:39O5D9O87UZKROFP41A7TUKDHPQ3CX", "dateTime": 1516044515443}, {"current_trial": 36, "trialdata": {"rt": -1, "trial_type": "single-stim", "word": "breast", "stimulus": "<p id=\"stim\">BREAST</p>", "conditions": [18, 1200, "v", 18000], "internal_node_id": "0.0-27.0", "trial": 0, "time_elapsed": 1582733, "serialpos": 15, "key_press": -1, "wordID": 170, "type": "PRES_VIS", "trial_index": 36}, "uniqueid": "MTK1613:39O5D9O87UZKROFP41A7TUKDHPQ3CX", "dateTime": 1516044517648}, {"current_trial": 37, "trialdata": {"rt": -1, "trial_type": "single-stim", "word": "silk", "stimulus": "<p id=\"stim\">SILK</p>", "conditions": [18, 1200, "v", 18000], "internal_node_id": "0.0-28.0", "trial": 0, "time_elapsed": 1584908, "serialpos": 16, "key_press": -1, "wordID": 1306, "type": "PRES_VIS", "trial_index": 37}, "uniqueid": "MTK1613:39O5D9O87UZKROFP41A7TUKDHPQ3CX", "dateTime": 1516044519823}, {"current_trial": 38, "trialdata": {"rt": -1, "trial_type": "single-stim", "word": "chipmunk", "stimulus": "<p id=\"stim\">CHIPMUNK</p>", "conditions": [18, 1200, "v", 18000], "internal_node_id": "0.0-29.0", "trial": 0, "time_elapsed": 1587006, "serialpos": 17, "key_press": -1, "wordID": 303, "type": "PRES_VIS", "trial_index": 38}, "uniqueid": "MTK1613:39O5D9O87UZKROFP41A7TUKDHPQ3CX", "dateTime": 1516044521921}, {"current_trial": 39, "trialdata": {"rt": -1, "trial_type": "single-stim", "stimulus": "", "internal_node_id": "0.0-30.0-0.0", "time_elapsed": 1589389, "key_press": -1, "type": "PRE_RECALL_DELAY", "trial_index": 39}, "uniqueid": "MTK1613:39O5D9O87UZKROFP41A7TUKDHPQ3CX", "dateTime": 1516044524304}, {"current_trial": 40, "trialdata": {"rt": -1000, "trial_type": "single-audio", "stimulus": "/static/audio/400Hz.wav", "internal_node_id": "0.0-31.0", "time_elapsed": 1589895, "key_press": -1, "type": "PRE_RECALL_ALERT", "trial_index": 40}, "uniqueid": "MTK1613:39O5D9O87UZKROFP41A7TUKDHPQ3CX", "dateTime": 1516044524811}, {"current_trial": 41, "trialdata": {"rt": [4118, 6480, 8046, 11024, 12311, 13697, 15414, 18037, 30448, 35097, 50412], "recwords": ["pastry", "suitcase", "yacht", "picture", "nomad", "razor", "zipper", "gavel", "paper", "europe", "glove"], "key_times": [1650, 1723, 1974, 2091, 2328, 2621, 3422, 3562, 3859, 4118, 4645, 4687, 4932, 5030, 5197, 5630, 5797, 5919, 5993, 6480, 6730, 6889, 7078, 7320, 7485, 7610, 8046, 8575, 9975, 10214, 10316, 10499, 10593, 10756, 10816, 11024, 11352, 11461, 11612, 11766, 11882, 12017, 12311, 12490, 12687, 12893, 13150, 13329, 13466, 13697, 14113, 14465, 14695, 14774, 14977, 15079, 15135, 15414, 16870, 16992, 17262, 17435, 17550, 17680, 18037, 29442, 29620, 29911, 30048, 30168, 30272, 30448, 33517, 33616, 33873, 33969, 34106, 34297, 34552, 35097, 44978, 45899, 49393, 49581, 49697, 49860, 49948, 50106, 50412], "trial_type": "free-recall", "conditions": [18, 1200, "v", 18000], "internal_node_id": "0.0-32.0-0.0", "key_presses": [16, 80, 65, 83, 84, 89, 8, 82, 89, 13, 16, 83, 85, 73, 84, 67, 65, 83, 69, 13, 16, 89, 65, 67, 72, 84, 13, 16, 80, 73, 67, 84, 85, 82, 69, 13, 16, 78, 79, 77, 65, 68, 13, 16, 82, 65, 90, 79, 82, 13, 16, 90, 73, 80, 80, 69, 82, 13, 16, 71, 65, 86, 69, 76, 13, 16, 80, 65, 80, 69, 82, 13, 16, 69, 85, 82, 79, 80, 69, 13, 16, 8, 16, 71, 76, 79, 86, 69, 13], "trial": 0, "time_elapsed": 1649915, "type": "FREE_RECALL", "trial_index": 41}, "uniqueid": "MTK1613:39O5D9O87UZKROFP41A7TUKDHPQ3CX", "dateTime": 1516044584861}, {"current_trial": 42, "trialdata": {"rt": 1476, "trial_type": "text", "internal_node_id": "0.0-33.0", "time_elapsed": 1653429, "key_press": 32, "type": "INSTRUCTIONS", "trial_index": 42}, "uniqueid": "MTK1613:39O5D9O87UZKROFP41A7TUKDHPQ3CX", "dateTime": 1516044588344}, {"current_trial": 43, "trialdata": {"rt": [3120, 4733, 6568, 8707, 10697, 14114, 15901], "trial_type": "math-distractor", "key_times": [2642, 2736, 3120, 4360, 4436, 4733, 6211, 6296, 6568, 8365, 8707, 10292, 10391, 10697, 13661, 13769, 14114, 15562, 15627, 15901, 17938], "responses": ["15", "19", "10", "5", "10", "15", "18"], "num2": [4, 3, 1, 1, 1, 3, 9, 9], "num3": [7, 9, 6, 2, 4, 7, 1, 9], "conditions": [18, 1200, "v", 18000], "internal_node_id": "0.0-34.0", "key_presses": [49, 53, 13, 49, 57, 13, 49, 48, 13, 53, 13, 49, 48, 13, 49, 53, 13, 49, 56, 13, 50], "trial": 1, "time_elapsed": 1673465, "type": "DISTRACTOR", "trial_index": 43, "num1": [4, 7, 3, 2, 5, 5, 8, 2]}, "uniqueid": "MTK1613:39O5D9O87UZKROFP41A7TUKDHPQ3CX", "dateTime": 1516044608380}, {"current_trial": 44, "trialdata": {"rt": -1, "trial_type": "single-stim", "stimulus": "<p id=\"stim\">10</p>", "internal_node_id": "0.0-35.0-0.0", "time_elapsed": 1676471, "key_press": -1, "trial_index": 44}, "uniqueid": "MTK1613:39O5D9O87UZKROFP41A7TUKDHPQ3CX", "dateTime": 1516044611386}, {"current_trial": 45, "trialdata": {"rt": -1, "trial_type": "single-stim", "stimulus": "<p id=\"stim\">9</p>", "internal_node_id": "0.0-35.0-1.0", "time_elapsed": 1677475, "key_press": -1, "trial_index": 45}, "uniqueid": "MTK1613:39O5D9O87UZKROFP41A7TUKDHPQ3CX", "dateTime": 1516044612390}, {"current_trial": 46, "trialdata": {"rt": -1, "trial_type": "single-stim", "stimulus": "<p id=\"stim\">8</p>", "internal_node_id": "0.0-35.0-2.0", "time_elapsed": 1678480, "key_press": -1, "trial_index": 46}, "uniqueid": "MTK1613:39O5D9O87UZKROFP41A7TUKDHPQ3CX", "dateTime": 1516044613395}, {"current_trial": 47, "trialdata": {"rt": -1, "trial_type": "single-stim", "stimulus": "<p id=\"stim\">7</p>", "internal_node_id": "0.0-35.0-3.0", "time_elapsed": 1679484, "key_press": -1, "trial_index": 47}, "uniqueid": "MTK1613:39O5D9O87UZKROFP41A7TUKDHPQ3CX", "dateTime": 1516044614399}, {"current_trial": 48, "trialdata": {"rt": -1, "trial_type": "single-stim", "stimulus": "<p id=\"stim\">6</p>", "internal_node_id": "0.0-35.0-4.0", "time_elapsed": 1680488, "key_press": -1, "trial_index": 48}, "uniqueid": "MTK1613:39O5D9O87UZKROFP41A7TUKDHPQ3CX", "dateTime": 1516044615403}, {"current_trial": 49, "trialdata": {"rt": -1, "trial_type": "single-stim", "stimulus": "<p id=\"stim\">5</p>", "internal_node_id": "0.0-35.0-5.0", "time_elapsed": 1681492, "key_press": -1, "trial_index": 49}, "uniqueid": "MTK1613:39O5D9O87UZKROFP41A7TUKDHPQ3CX", "dateTime": 1516044616407}, {"current_trial": 50, "trialdata": {"rt": -1, "trial_type": "single-stim", "stimulus": "<p id=\"stim\">4</p>", "internal_node_id": "0.0-35.0-6.0", "time_elapsed": 1682496, "key_press": -1, "trial_index": 50}, "uniqueid": "MTK1613:39O5D9O87UZKROFP41A7TUKDHPQ3CX", "dateTime": 1516044617411}, {"current_trial": 51, "trialdata": {"rt": -1, "trial_type": "single-stim", "stimulus": "<p id=\"stim\">3</p>", "internal_node_id": "0.0-35.0-7.0", "time_elapsed": 1683502, "key_press": -1, "trial_index": 51}, "uniqueid": "MTK1613:39O5D9O87UZKROFP41A7TUKDHPQ3CX", "dateTime": 1516044618417}, {"current_trial": 52, "trialdata": {"rt": -1, "trial_type": "single-stim", "stimulus": "<p id=\"stim\">2</p>", "internal_node_id": "0.0-35.0-8.0", "time_elapsed": 1684505, "key_press": -1, "trial_index": 52}, "uniqueid": "MTK1613:39O5D9O87UZKROFP41A7TUKDHPQ3CX", "dateTime": 1516044619421}, {"current_trial": 53, "trialdata": {"rt": -1, "trial_type": "single-stim", "stimulus": "<p id=\"stim\">1</p>", "internal_node_id": "0.0-35.0-9.0", "time_elapsed": 1685509, "key_press": -1, "trial_index": 53}, "uniqueid": "MTK1613:39O5D9O87UZKROFP41A7TUKDHPQ3CX", "dateTime": 1516044620425}, {"current_trial": 54, "trialdata": {"rt": -1, "trial_type": "single-stim", "stimulus": "<p id=\"stim\">+</p>", "internal_node_id": "0.0-36.0-0.0", "time_elapsed": 1687014, "key_press": -1, "type": "FIXATION", "trial_index": 54}, "uniqueid": "MTK1613:39O5D9O87UZKROFP41A7TUKDHPQ3CX", "dateTime": 1516044621929}, {"current_trial": 55, "trialdata": {"rt": -1, "trial_type": "single-stim", "word": "london", "stimulus": "<p id=\"stim\">LONDON</p>", "conditions": [18, 1200, "v", 18000], "internal_node_id": "0.0-37.0", "trial": 1, "time_elapsed": 1688218, "serialpos": 0, "key_press": -1, "wordID": 842, "type": "PRES_VIS", "trial_index": 55}, "uniqueid": "MTK1613:39O5D9O87UZKROFP41A7TUKDHPQ3CX", "dateTime": 1516044623134}, {"current_trial": 56, "trialdata": {"rt": -1, "trial_type": "single-stim", "word": "husband", "stimulus": "<p id=\"stim\">HUSBAND</p>", "conditions": [18, 1200, "v", 18000], "internal_node_id": "0.0-38.0", "trial": 1, "time_elapsed": 1690554, "serialpos": 1, "key_press": -1, "wordID": 727, "type": "PRES_VIS", "trial_index": 56}, "uniqueid": "MTK1613:39O5D9O87UZKROFP41A7TUKDHPQ3CX", "dateTime": 1516044625469}, {"current_trial": 57, "trialdata": {"rt": -1, "trial_type": "single-stim", "word": "author", "stimulus": "<p id=\"stim\">AUTHOR</p>", "conditions": [18, 1200, "v", 18000], "internal_node_id": "0.0-39.0", "trial": 1, "time_elapsed": 1692646, "serialpos": 2, "key_press": -1, "wordID": 60, "type": "PRES_VIS", "trial_index": 57}, "uniqueid": "MTK1613:39O5D9O87UZKROFP41A7TUKDHPQ3CX", "dateTime": 1516044627561}, {"current_trial": 58, "trialdata": {"rt": -1, "trial_type": "single-stim", "word": "cigar", "stimulus": "<p id=\"stim\">CIGAR</p>", "conditions": [18, 1200, "v", 18000], "internal_node_id": "0.0-40.0", "trial": 1, "time_elapsed": 1694832, "serialpos": 3, "key_press": -1, "wordID": 307, "type": "PRES_VIS", "trial_index": 58}, "uniqueid": "MTK1613:39O5D9O87UZKROFP41A7TUKDHPQ3CX", "dateTime": 1516044629747}, {"current_trial": 59, "trialdata": {"rt": -1, "trial_type": "single-stim", "word": "trench", "stimulus": "<p id=\"stim\">TRENCH</p>", "conditions": [18, 1200, "v", 18000], "internal_node_id": "0.0-41.0", "trial": 1, "time_elapsed": 1697184, "serialpos": 4, "key_press": -1, "wordID": 1502, "type": "PRES_VIS", "trial_index": 59}, "uniqueid": "MTK1613:39O5D9O87UZKROFP41A7TUKDHPQ3CX", "dateTime": 1516044632100}, {"current_trial": 60, "trialdata": {"rt": -1, "trial_type": "single-stim", "word": "sheriff", "stimulus": "<p id=\"stim\">SHERIFF</p>", "conditions": [18, 1200, "v", 18000], "internal_node_id": "0.0-42.0", "trial": 1, "time_elapsed": 1699552, "serialpos": 5, "key_press": -1, "wordID": 1283, "type": "PRES_VIS", "trial_index": 60}, "uniqueid": "MTK1613:39O5D9O87UZKROFP41A7TUKDHPQ3CX", "dateTime": 1516044634468}, {"current_trial": 61, "trialdata": {"rt": -1, "trial_type": "single-stim", "word": "world", "stimulus": "<p id=\"stim\">WORLD</p>", "conditions": [18, 1200, "v", 18000], "internal_node_id": "0.0-43.0", "trial": 1, "time_elapsed": 1701935, "serialpos": 6, "key_press": -1, "wordID": 1621, "type": "PRES_VIS", "trial_index": 61}, "uniqueid": "MTK1613:39O5D9O87UZKROFP41A7TUKDHPQ3CX", "dateTime": 1516044636850}, {"current_trial": 62, "trialdata": {"rt": -1, "trial_type": "single-stim", "word": "shortcake", "stimulus": "<p id=\"stim\">SHORTCAKE</p>", "conditions": [18, 1200, "v", 18000], "internal_node_id": "0.0-44.0", "trial": 1, "time_elapsed": 1704094, "serialpos": 7, "key_press": -1, "wordID": 1291, "type": "PRES_VIS", "trial_index": 62}, "uniqueid": "MTK1613:39O5D9O87UZKROFP41A7TUKDHPQ3CX", "dateTime": 1516044639010}, {"current_trial": 63, "trialdata": {"rt": -1, "trial_type": "single-stim", "word": "shovel", "stimulus": "<p id=\"stim\">SHOVEL</p>", "conditions": [18, 1200, "v", 18000], "internal_node_id": "0.0-45.0", "trial": 1, "time_elapsed": 1706104, "serialpos": 8, "key_press": -1, "wordID": 1294, "type": "PRES_VIS", "trial_index": 63}, "uniqueid": "MTK1613:39O5D9O87UZKROFP41A7TUKDHPQ3CX", "dateTime": 1516044641020}, {"current_trial": 64, "trialdata": {"rt": -1, "trial_type": "single-stim", "word": "cook", "stimulus": "<p id=\"stim\">COOK</p>", "conditions": [18, 1200, "v", 18000], "internal_node_id": "0.0-46.0", "trial": 1, "time_elapsed": 1708428, "serialpos": 9, "key_press": -1, "wordID": 371, "type": "PRES_VIS", "trial_index": 64}, "uniqueid": "MTK1613:39O5D9O87UZKROFP41A7TUKDHPQ3CX", "dateTime": 1516044643343}, {"current_trial": 65, "trialdata": {"rt": -1, "trial_type": "single-stim", "word": "outfit", "stimulus": "<p id=\"stim\">OUTFIT</p>", "conditions": [18, 1200, "v", 18000], "internal_node_id": "0.0-47.0", "trial": 1, "time_elapsed": 1710591, "serialpos": 10, "key_press": -1, "wordID": 987, "type": "PRES_VIS", "trial_index": 65}, "uniqueid": "MTK1613:39O5D9O87UZKROFP41A7TUKDHPQ3CX", "dateTime": 1516044645507}, {"current_trial": 66, "trialdata": {"rt": -1, "trial_type": "single-stim", "word": "fox", "stimulus": "<p id=\"stim\">FOX</p>", "conditions": [18, 1200, "v", 18000], "internal_node_id": "0.0-48.0", "trial": 1, "time_elapsed": 1712880, "serialpos": 11, "key_press": -1, "wordID": 597, "type": "PRES_VIS", "trial_index": 66}, "uniqueid": "MTK1613:39O5D9O87UZKROFP41A7TUKDHPQ3CX", "dateTime": 1516044647796}, {"current_trial": 67, "trialdata": {"rt": -1, "trial_type": "single-stim", "word": "turkey", "stimulus": "<p id=\"stim\">TURKEY</p>", "conditions": [18, 1200, "v", 18000], "internal_node_id": "0.0-49.0", "trial": 1, "time_elapsed": 1715040, "serialpos": 12, "key_press": -1, "wordID": 1519, "type": "PRES_VIS", "trial_index": 67}, "uniqueid": "MTK1613:39O5D9O87UZKROFP41A7TUKDHPQ3CX", "dateTime": 1516044649955}, {"current_trial": 68, "trialdata": {"rt": -1, "trial_type": "single-stim", "word": "grape", "stimulus": "<p id=\"stim\">GRAPE</p>", "conditions": [18, 1200, "v", 18000], "internal_node_id": "0.0-50.0", "trial": 1, "time_elapsed": 1717233, "serialpos": 13, "key_press": -1, "wordID": 653, "type": "PRES_VIS", "trial_index": 68}, "uniqueid": "MTK1613:39O5D9O87UZKROFP41A7TUKDHPQ3CX", "dateTime": 1516044652156}, {"current_trial": 69, "trialdata": {"rt": -1, "trial_type": "single-stim", "word": "igloo", "stimulus": "<p id=\"stim\">IGLOO</p>", "conditions": [18, 1200, "v", 18000], "internal_node_id": "0.0-51.0", "trial": 1, "time_elapsed": 1719598, "serialpos": 14, "key_press": -1, "wordID": 733, "type": "PRES_VIS", "trial_index": 69}, "uniqueid": "MTK1613:39O5D9O87UZKROFP41A7TUKDHPQ3CX", "dateTime": 1516044654513}, {"current_trial": 70, "trialdata": {"rt": -1, "trial_type": "single-stim", "word": "concert", "stimulus": "<p id=\"stim\">CONCERT</p>", "conditions": [18, 1200, "v", 18000], "internal_node_id": "0.0-52.0", "trial": 1, "time_elapsed": 1721802, "serialpos": 15, "key_press": -1, "wordID": 359, "type": "PRES_VIS", "trial_index": 70}, "uniqueid": "MTK1613:39O5D9O87UZKROFP41A7TUKDHPQ3CX", "dateTime": 1516044656717}, {"current_trial": 71, "trialdata": {"rt": -1, "trial_type": "single-stim", "word": "picnic", "stimulus": "<p id=\"stim\">PICNIC</p>", "conditions": [18, 1200, "v", 18000], "internal_node_id": "0.0-53.0", "trial": 1, "time_elapsed": 1723955, "serialpos": 16, "key_press": -1, "wordID": 1059, "type": "PRES_VIS", "trial_index": 71}, "uniqueid": "MTK1613:39O5D9O87UZKROFP41A7TUKDHPQ3CX", "dateTime": 1516044658870}, {"current_trial": 72, "trialdata": {"rt": -1, "trial_type": "single-stim", "word": "hornet", "stimulus": "<p id=\"stim\">HORNET</p>", "conditions": [18, 1200, "v", 18000], "internal_node_id": "0.0-54.0", "trial": 1, "time_elapsed": 1726201, "serialpos": 17, "key_press": -1, "wordID": 717, "type": "PRES_VIS", "trial_index": 72}, "uniqueid": "MTK1613:39O5D9O87UZKROFP41A7TUKDHPQ3CX", "dateTime": 1516044661116}, {"current_trial": 73, "trialdata": {"rt": -1, "trial_type": "single-stim", "stimulus": "", "internal_node_id": "0.0-55.0-0.0", "time_elapsed": 1728540, "key_press": -1, "type": "PRE_RECALL_DELAY", "trial_index": 73}, "uniqueid": "MTK1613:39O5D9O87UZKROFP41A7TUKDHPQ3CX", "dateTime": 1516044663455}, {"current_trial": 74, "trialdata": {"rt": -1000, "trial_type": "single-audio", "stimulus": "/static/audio/400Hz.wav", "internal_node_id": "0.0-56.0", "time_elapsed": 1729044, "key_press": -1, "type": "PRE_RECALL_ALERT", "trial_index": 74}, "uniqueid": "MTK1613:39O5D9O87UZKROFP41A7TUKDHPQ3CX", "dateTime": 1516044663960}, {"current_trial": 75, "trialdata": {"rt": [2374, 5250, 9154, 13171, 14254, 18143, 30013, 52934, 55383, 58629], "recwords": ["hornet", "igloo", "sheriff", "pastry", "cook", "husband", "shovel", "trench", "fox", "grape"], "key_times": [905, 986, 1169, 1285, 1398, 1596, 1901, 1969, 2044, 2374, 2604, 2916, 3246, 3362, 3560, 3720, 5250, 5919, 6012, 6199, 6293, 6412, 6849, 6979, 7172, 7680, 7829, 7975, 8146, 8267, 8420, 9154, 11011, 11799, 12121, 12257, 12428, 12631, 12887, 13171, 13334, 13473, 13700, 13837, 13940, 14254, 14735, 16327, 16555, 16660, 16792, 17167, 17259, 17429, 17541, 17701, 18143, 19380, 27497, 27771, 28144, 28363, 28553, 28640, 30013, 38539, 51155, 51313, 51545, 52047, 52206, 52404, 52504, 52934, 54718, 54788, 55004, 55125, 55383, 57159, 57801, 58033, 58126, 58292, 58407, 58629], "trial_type": "free-recall", "conditions": [18, 1200, "v", 18000], "internal_node_id": "0.0-57.0-0.0", "key_presses": [16, 72, 79, 82, 78, 73, 8, 69, 84, 13, 16, 73, 71, 76, 79, 79, 13, 16, 83, 72, 69, 82, 82, 73, 70, 8, 8, 8, 73, 70, 70, 13, 16, 80, 65, 83, 84, 82, 89, 13, 16, 67, 79, 79, 75, 13, 16, 72, 85, 83, 84, 8, 66, 65, 78, 68, 13, 16, 83, 72, 79, 86, 69, 76, 13, 16, 16, 84, 82, 69, 78, 67, 72, 13, 16, 70, 79, 88, 13, 16, 71, 82, 65, 80, 69, 13], "trial": 1, "time_elapsed": 1789058, "type": "FREE_RECALL", "trial_index": 75}, "uniqueid": "MTK1613:39O5D9O87UZKROFP41A7TUKDHPQ3CX", "dateTime": 1516044724006}, {"current_trial": 76, "trialdata": {"rt": 1438, "trial_type": "text", "internal_node_id": "0.0-58.0", "time_elapsed": 1792535, "key_press": 32, "type": "INSTRUCTIONS", "trial_index": 76}, "uniqueid": "MTK1613:39O5D9O87UZKROFP41A7TUKDHPQ3CX", "dateTime": 1516044727450}, {"current_trial": 77, "trialdata": {"rt": [3822, 5693, 8468, 10708], "trial_type": "math-distractor", "key_times": [2822, 2883, 3822, 5386, 5530, 5693, 8137, 8239, 8468, 10234, 10357, 10708], "responses": ["13", "14", "21", "12"], "num2": [4, 4, 5, 2, 2], "num3": [5, 5, 9, 8, 5], "conditions": [24, 800, "v", 12000], "internal_node_id": "0.0-59.0", "key_presses": [49, 51, 13, 49, 52, 13, 50, 49, 13, 49, 50, 13], "trial": 2, "time_elapsed": 1805550, "type": "DISTRACTOR", "trial_index": 77, "num1": [3, 5, 7, 2, 4]}, "uniqueid": "MTK1613:39O5D9O87UZKROFP41A7TUKDHPQ3CX", "dateTime": 1516044740465}, {"current_trial": 78, "trialdata": {"rt": -1, "trial_type": "single-stim", "stimulus": "<p id=\"stim\">10</p>", "internal_node_id": "0.0-60.0-0.0", "time_elapsed": 1808558, "key_press": -1, "trial_index": 78}, "uniqueid": "MTK1613:39O5D9O87UZKROFP41A7TUKDHPQ3CX", "dateTime": 1516044743474}, {"current_trial": 79, "trialdata": {"rt": -1, "trial_type": "single-stim", "stimulus": "<p id=\"stim\">9</p>", "internal_node_id": "0.0-60.0-1.0", "time_elapsed": 1809564, "key_press": -1, "trial_index": 79}, "uniqueid": "MTK1613:39O5D9O87UZKROFP41A7TUKDHPQ3CX", "dateTime": 1516044744479}, {"current_trial": 80, "trialdata": {"rt": -1, "trial_type": "single-stim", "stimulus": "<p id=\"stim\">8</p>", "internal_node_id": "0.0-60.0-2.0", "time_elapsed": 1810569, "key_press": -1, "trial_index": 80}, "uniqueid": "MTK1613:39O5D9O87UZKROFP41A7TUKDHPQ3CX", "dateTime": 1516044745484}, {"current_trial": 81, "trialdata": {"rt": -1, "trial_type": "single-stim", "stimulus": "<p id=\"stim\">7</p>", "internal_node_id": "0.0-60.0-3.0", "time_elapsed": 1811573, "key_press": -1, "trial_index": 81}, "uniqueid": "MTK1613:39O5D9O87UZKROFP41A7TUKDHPQ3CX", "dateTime": 1516044746488}, {"current_trial": 82, "trialdata": {"rt": -1, "trial_type": "single-stim", "stimulus": "<p id=\"stim\">6</p>", "internal_node_id": "0.0-60.0-4.0", "time_elapsed": 1812582, "key_press": -1, "trial_index": 82}, "uniqueid": "MTK1613:39O5D9O87UZKROFP41A7TUKDHPQ3CX", "dateTime": 1516044747498}, {"current_trial": 83, "trialdata": {"rt": -1, "trial_type": "single-stim", "stimulus": "<p id=\"stim\">5</p>", "internal_node_id": "0.0-60.0-5.0", "time_elapsed": 1813587, "key_press": -1, "trial_index": 83}, "uniqueid": "MTK1613:39O5D9O87UZKROFP41A7TUKDHPQ3CX", "dateTime": 1516044748502}, {"current_trial": 84, "trialdata": {"rt": -1, "trial_type": "single-stim", "stimulus": "<p id=\"stim\">4</p>", "internal_node_id": "0.0-60.0-6.0", "time_elapsed": 1814597, "key_press": -1, "trial_index": 84}, "uniqueid": "MTK1613:39O5D9O87UZKROFP41A7TUKDHPQ3CX", "dateTime": 1516044749513}, {"current_trial": 85, "trialdata": {"rt": -1, "trial_type": "single-stim", "stimulus": "<p id=\"stim\">3</p>", "internal_node_id": "0.0-60.0-7.0", "time_elapsed": 1815603, "key_press": -1, "trial_index": 85}, "uniqueid": "MTK1613:39O5D9O87UZKROFP41A7TUKDHPQ3CX", "dateTime": 1516044750519}, {"current_trial": 86, "trialdata": {"rt": -1, "trial_type": "single-stim", "stimulus": "<p id=\"stim\">2</p>", "internal_node_id": "0.0-60.0-8.0", "time_elapsed": 1816608, "key_press": -1, "trial_index": 86}, "uniqueid": "MTK1613:39O5D9O87UZKROFP41A7TUKDHPQ3CX", "dateTime": 1516044751523}, {"current_trial": 87, "trialdata": {"rt": -1, "trial_type": "single-stim", "stimulus": "<p id=\"stim\">1</p>", "internal_node_id": "0.0-60.0-9.0", "time_elapsed": 1817612, "key_press": -1, "trial_index": 87}, "uniqueid": "MTK1613:39O5D9O87UZKROFP41A7TUKDHPQ3CX", "dateTime": 1516044752528}, {"current_trial": 88, "trialdata": {"rt": -1, "trial_type": "single-stim", "stimulus": "<p id=\"stim\">+</p>", "internal_node_id": "0.0-61.0-0.0", "time_elapsed": 1819116, "key_press": -1, "type": "FIXATION", "trial_index": 88}, "uniqueid": "MTK1613:39O5D9O87UZKROFP41A7TUKDHPQ3CX", "dateTime": 1516044754031}, {"current_trial": 89, "trialdata": {"rt": -1, "trial_type": "single-stim", "word": "victim", "stimulus": "<p id=\"stim\">VICTIM</p>", "conditions": [24, 800, "v", 12000], "internal_node_id": "0.0-62.0", "trial": 2, "time_elapsed": 1819920, "serialpos": 0, "key_press": -1, "wordID": 1561, "type": "PRES_VIS", "trial_index": 89}, "uniqueid": "MTK1613:39O5D9O87UZKROFP41A7TUKDHPQ3CX", "dateTime": 1516044754835}, {"current_trial": 90, "trialdata": {"rt": -1, "trial_type": "single-stim", "word": "market", "stimulus": "<p id=\"stim\">MARKET</p>", "conditions": [24, 800, "v", 12000], "internal_node_id": "0.0-63.0", "trial": 2, "time_elapsed": 1821924, "serialpos": 1, "key_press": -1, "wordID": 870, "type": "PRES_VIS", "trial_index": 90}, "uniqueid": "MTK1613:39O5D9O87UZKROFP41A7TUKDHPQ3CX", "dateTime": 1516044756839}, {"current_trial": 91, "trialdata": {"rt": -1, "trial_type": "single-stim", "word": "crab", "stimulus": "<p id=\"stim\">CRAB</p>", "conditions": [24, 800, "v", 12000], "internal_node_id": "0.0-64.0", "trial": 2, "time_elapsed": 1823767, "serialpos": 2, "key_press": -1, "wordID": 396, "type": "PRES_VIS", "trial_index": 91}, "uniqueid": "MTK1613:39O5D9O87UZKROFP41A7TUKDHPQ3CX", "dateTime": 1516044758682}, {"current_trial": 92, "trialdata": {"rt": -1, "trial_type": "single-stim", "word": "seafood", "stimulus": "<p id=\"stim\">SEAFOOD</p>", "conditions": [24, 800, "v", 12000], "internal_node_id": "0.0-65.0", "trial": 2, "time_elapsed": 1825420, "serialpos": 3, "key_press": -1, "wordID": 1259, "type": "PRES_VIS", "trial_index": 92}, "uniqueid": "MTK1613:39O5D9O87UZKROFP41A7TUKDHPQ3CX", "dateTime": 1516044760335}, {"current_trial": 93, "trialdata": {"rt": -1, "trial_type": "single-stim", "word": "eagle", "stimulus": "<p id=\"stim\">EAGLE</p>", "conditions": [24, 800, "v", 12000], "internal_node_id": "0.0-66.0", "trial": 2, "time_elapsed": 1827053, "serialpos": 4, "key_press": -1, "wordID": 511, "type": "PRES_VIS", "trial_index": 93}, "uniqueid": "MTK1613:39O5D9O87UZKROFP41A7TUKDHPQ3CX", "dateTime": 1516044761969}, {"current_trial": 94, "trialdata": {"rt": -1, "trial_type": "single-stim", "word": "crater", "stimulus": "<p id=\"stim\">CRATER</p>", "conditions": [24, 800, "v", 12000], "internal_node_id": "0.0-67.0", "trial": 2, "time_elapsed": 1829037, "serialpos": 5, "key_press": -1, "wordID": 399, "type": "PRES_VIS", "trial_index": 94}, "uniqueid": "MTK1613:39O5D9O87UZKROFP41A7TUKDHPQ3CX", "dateTime": 1516044763952}, {"current_trial": 95, "trialdata": {"rt": -1, "trial_type": "single-stim", "word": "leopard", "stimulus": "<p id=\"stim\">LEOPARD</p>", "conditions": [24, 800, "v", 12000], "internal_node_id": "0.0-68.0", "trial": 2, "time_elapsed": 1830699, "serialpos": 6, "key_press": -1, "wordID": 811, "type": "PRES_VIS", "trial_index": 95}, "uniqueid": "MTK1613:39O5D9O87UZKROFP41A7TUKDHPQ3CX", "dateTime": 1516044765614}, {"current_trial": 96, "trialdata": {"rt": -1, "trial_type": "single-stim", "word": "primate", "stimulus": "<p id=\"stim\">PRIMATE</p>", "conditions": [24, 800, "v", 12000], "internal_node_id": "0.0-69.0", "trial": 2, "time_elapsed": 1832562, "serialpos": 7, "key_press": -1, "wordID": 1122, "type": "PRES_VIS", "trial_index": 96}, "uniqueid": "MTK1613:39O5D9O87UZKROFP41A7TUKDHPQ3CX", "dateTime": 1516044767478}, {"current_trial": 97, "trialdata": {"rt": -1, "trial_type": "single-stim", "word": "female", "stimulus": "<p id=\"stim\">FEMALE</p>", "conditions": [24, 800, "v", 12000], "internal_node_id": "0.0-70.0", "trial": 2, "time_elapsed": 1834267, "serialpos": 8, "key_press": -1, "wordID": 558, "type": "PRES_VIS", "trial_index": 97}, "uniqueid": "MTK1613:39O5D9O87UZKROFP41A7TUKDHPQ3CX", "dateTime": 1516044769182}, {"current_trial": 98, "trialdata": {"rt": -1, "trial_type": "single-stim", "word": "box", "stimulus": "<p id=\"stim\">BOX</p>", "conditions": [24, 800, "v", 12000], "internal_node_id": "0.0-71.0", "trial": 2, "time_elapsed": 1835873, "serialpos": 9, "key_press": -1, "wordID": 158, "type": "PRES_VIS", "trial_index": 98}, "uniqueid": "MTK1613:39O5D9O87UZKROFP41A7TUKDHPQ3CX", "dateTime": 1516044770789}, {"current_trial": 99, "trialdata": {"rt": -1, "trial_type": "single-stim", "word": "rifle", "stimulus": "<p id=\"stim\">RIFLE</p>", "conditions": [24, 800, "v", 12000], "internal_node_id": "0.0-72.0", "trial": 2, "time_elapsed": 1837692, "serialpos": 10, "key_press": -1, "wordID": 1191, "type": "PRES_VIS", "trial_index": 99}, "uniqueid": "MTK1613:39O5D9O87UZKROFP41A7TUKDHPQ3CX", "dateTime": 1516044772607}, {"current_trial": 100, "trialdata": {"rt": -1, "trial_type": "single-stim", "word": "woman", "stimulus": "<p id=\"stim\">WOMAN</p>", "conditions": [24, 800, "v", 12000], "internal_node_id": "0.0-73.0", "trial": 2, "time_elapsed": 1839432, "serialpos": 11, "key_press": -1, "wordID": 1619, "type": "PRES_VIS", "trial_index": 100}, "uniqueid": "MTK1613:39O5D9O87UZKROFP41A7TUKDHPQ3CX", "dateTime": 1516044774347}, {"current_trial": 101, "trialdata": {"rt": -1, "trial_type": "single-stim", "word": "student", "stimulus": "<p id=\"stim\">STUDENT</p>", "conditions": [24, 800, "v", 12000], "internal_node_id": "0.0-74.0", "trial": 2, "time_elapsed": 1841372, "serialpos": 12, "key_press": -1, "wordID": 1394, "type": "PRES_VIS", "trial_index": 101}, "uniqueid": "MTK1613:39O5D9O87UZKROFP41A7TUKDHPQ3CX", "dateTime": 1516044776287}, {"current_trial": 102, "trialdata": {"rt": -1, "trial_type": "single-stim", "word": "record", "stimulus": "<p id=\"stim\">RECORD</p>", "conditions": [24, 800, "v", 12000], "internal_node_id": "0.0-75.0", "trial": 2, "time_elapsed": 1843150, "serialpos": 13, "key_press": -1, "wordID": 1175, "type": "PRES_VIS", "trial_index": 102}, "uniqueid": "MTK1613:39O5D9O87UZKROFP41A7TUKDHPQ3CX", "dateTime": 1516044778066}, {"current_trial": 103, "trialdata": {"rt": -1, "trial_type": "single-stim", "word": "glass", "stimulus": "<p id=\"stim\">GLASS</p>", "conditions": [24, 800, "v", 12000], "internal_node_id": "0.0-76.0", "trial": 2, "time_elapsed": 1844899, "serialpos": 14, "key_press": -1, "wordID": 638, "type": "PRES_VIS", "trial_index": 103}, "uniqueid": "MTK1613:39O5D9O87UZKROFP41A7TUKDHPQ3CX", "dateTime": 1516044779815}, {"current_trial": 104, "trialdata": {"rt": -1, "trial_type": "single-stim", "word": "stove", "stimulus": "<p id=\"stim\">STOVE</p>", "conditions": [24, 800, "v", 12000], "internal_node_id": "0.0-77.0", "trial": 2, "time_elapsed": 1846751, "serialpos": 15, "key_press": -1, "wordID": 1387, "type": "PRES_VIS", "trial_index": 104}, "uniqueid": "MTK1613:39O5D9O87UZKROFP41A7TUKDHPQ3CX", "dateTime": 1516044781666}, {"current_trial": 105, "trialdata": {"rt": -1, "trial_type": "single-stim", "word": "fireplace", "stimulus": "<p id=\"stim\">FIREPLACE</p>", "conditions": [24, 800, "v", 12000], "internal_node_id": "0.0-78.0", "trial": 2, "time_elapsed": 1848680, "serialpos": 16, "key_press": -1, "wordID": 569, "type": "PRES_VIS", "trial_index": 105}, "uniqueid": "MTK1613:39O5D9O87UZKROFP41A7TUKDHPQ3CX", "dateTime": 1516044783595}, {"current_trial": 106, "trialdata": {"rt": -1, "trial_type": "single-stim", "word": "dorm", "stimulus": "<p id=\"stim\">DORM</p>", "conditions": [24, 800, "v", 12000], "internal_node_id": "0.0-79.0", "trial": 2, "time_elapsed": 1850540, "serialpos": 17, "key_press": -1, "wordID": 487, "type": "PRES_VIS", "trial_index": 106}, "uniqueid": "MTK1613:39O5D9O87UZKROFP41A7TUKDHPQ3CX", "dateTime": 1516044785456}, {"current_trial": 107, "trialdata": {"rt": -1, "trial_type": "single-stim", "word": "worker", "stimulus": "<p id=\"stim\">WORKER</p>", "conditions": [24, 800, "v", 12000], "internal_node_id": "0.0-80.0", "trial": 2, "time_elapsed": 1852328, "serialpos": 18, "key_press": -1, "wordID": 1620, "type": "PRES_VIS", "trial_index": 107}, "uniqueid": "MTK1613:39O5D9O87UZKROFP41A7TUKDHPQ3CX", "dateTime": 1516044787243}, {"current_trial": 108, "trialdata": {"rt": -1, "trial_type": "single-stim", "word": "necklace", "stimulus": "<p id=\"stim\">NECKLACE</p>", "conditions": [24, 800, "v", 12000], "internal_node_id": "0.0-81.0", "trial": 2, "time_elapsed": 1854220, "serialpos": 19, "key_press": -1, "wordID": 939, "type": "PRES_VIS", "trial_index": 108}, "uniqueid": "MTK1613:39O5D9O87UZKROFP41A7TUKDHPQ3CX", "dateTime": 1516044789136}, {"current_trial": 109, "trialdata": {"rt": -1, "trial_type": "single-stim", "word": "knife", "stimulus": "<p id=\"stim\">KNIFE</p>", "conditions": [24, 800, "v", 12000], "internal_node_id": "0.0-82.0", "trial": 2, "time_elapsed": 1856063, "serialpos": 20, "key_press": -1, "wordID": 784, "type": "PRES_VIS", "trial_index": 109}, "uniqueid": "MTK1613:39O5D9O87UZKROFP41A7TUKDHPQ3CX", "dateTime": 1516044790978}, {"current_trial": 110, "trialdata": {"rt": -1, "trial_type": "single-stim", "word": "empire", "stimulus": "<p id=\"stim\">EMPIRE</p>", "conditions": [24, 800, "v", 12000], "internal_node_id": "0.0-83.0", "trial": 2, "time_elapsed": 1857713, "serialpos": 21, "key_press": -1, "wordID": 529, "type": "PRES_VIS", "trial_index": 110}, "uniqueid": "MTK1613:39O5D9O87UZKROFP41A7TUKDHPQ3CX", "dateTime": 1516044792628}, {"current_trial": 111, "trialdata": {"rt": -1, "trial_type": "single-stim", "word": "label", "stimulus": "<p id=\"stim\">LABEL</p>", "conditions": [24, 800, "v", 12000], "internal_node_id": "0.0-84.0", "trial": 2, "time_elapsed": 1859412, "serialpos": 22, "key_press": -1, "wordID": 789, "type": "PRES_VIS", "trial_index": 111}, "uniqueid": "MTK1613:39O5D9O87UZKROFP41A7TUKDHPQ3CX", "dateTime": 1516044794327}, {"current_trial": 112, "trialdata": {"rt": -1, "trial_type": "single-stim", "word": "handbag", "stimulus": "<p id=\"stim\">HANDBAG</p>", "conditions": [24, 800, "v", 12000], "internal_node_id": "0.0-85.0", "trial": 2, "time_elapsed": 1861163, "serialpos": 23, "key_press": -1, "wordID": 683, "type": "PRES_VIS", "trial_index": 112}, "uniqueid": "MTK1613:39O5D9O87UZKROFP41A7TUKDHPQ3CX", "dateTime": 1516044796079}, {"current_trial": 113, "trialdata": {"rt": -1, "trial_type": "single-stim", "stimulus": "", "internal_node_id": "0.0-86.0-0.0", "time_elapsed": 1863656, "key_press": -1, "type": "PRE_RECALL_DELAY", "trial_index": 113}, "uniqueid": "MTK1613:39O5D9O87UZKROFP41A7TUKDHPQ3CX", "dateTime": 1516044798571}, {"current_trial": 114, "trialdata": {"rt": -1000, "trial_type": "single-audio", "stimulus": "/static/audio/400Hz.wav", "internal_node_id": "0.0-87.0", "time_elapsed": 1864160, "key_press": -1, "type": "PRE_RECALL_ALERT", "trial_index": 114}, "uniqueid": "MTK1613:39O5D9O87UZKROFP41A7TUKDHPQ3CX", "dateTime": 1516044799075}, {"current_trial": 115, "trialdata": {"rt": [1967, 3199, 4289, 5560, 6761, 9507, 11126, 16036, 20074], "recwords": ["handbag", "woman", "female", "student", "box", "stove", "fireplace", "victim", "rifle"], "key_times": [334, 456, 625, 733, 839, 1087, 1244, 1676, 1967, 2374, 2491, 2655, 2786, 2813, 2947, 3199, 3372, 3450, 3625, 3790, 3846, 3993, 4079, 4289, 4440, 4535, 4745, 4885, 4959, 5163, 5243, 5394, 5560, 5999, 6242, 6445, 6539, 6761, 8303, 8558, 8794, 8953, 9170, 9346, 9507, 9646, 9716, 9876, 10007, 10053, 10316, 10442, 10518, 10724, 10936, 11126, 11897, 12135, 12761, 14604, 14758, 14977, 15071, 15317, 15409, 15539, 16036, 17887, 17963, 18344, 18389, 18664, 18781, 18916, 19020, 20074], "trial_type": "free-recall", "conditions": [24, 800, "v", 12000], "internal_node_id": "0.0-88.0-0.0", "key_presses": [16, 72, 65, 78, 68, 66, 65, 71, 13, 16, 87, 79, 77, 65, 78, 13, 16, 70, 69, 77, 65, 76, 69, 13, 16, 83, 84, 85, 68, 69, 78, 84, 13, 16, 66, 79, 88, 13, 16, 83, 84, 79, 86, 69, 13, 16, 70, 73, 82, 69, 80, 76, 65, 67, 69, 13, 16, 79, 8, 16, 86, 73, 67, 84, 73, 77, 13, 16, 70, 8, 82, 73, 70, 76, 69, 13], "trial": 2, "time_elapsed": 1924173, "type": "FREE_RECALL", "trial_index": 115}, "uniqueid": "MTK1613:39O5D9O87UZKROFP41A7TUKDHPQ3CX", "dateTime": 1516044859118}, {"current_trial": 116, "trialdata": {"rt": 878, "trial_type": "text", "internal_node_id": "0.0-89.0", "time_elapsed": 1927089, "key_press": 32, "type": "INSTRUCTIONS", "trial_index": 116}, "uniqueid": "MTK1613:39O5D9O87UZKROFP41A7TUKDHPQ3CX", "dateTime": 1516044862005}, {"current_trial": 117, "trialdata": {"rt": [2200, 3685, 5395, 7397, 9289, 11035, 12690, 14674, 16912, 19787, 21631], "trial_type": "math-distractor", "key_times": [1884, 2200, 3395, 3685, 4902, 5010, 5395, 7069, 7245, 7397, 8903, 9070, 9289, 10537, 10844, 11035, 12408, 12522, 12690, 14250, 14425, 14674, 16105, 16161, 16526, 16673, 16769, 16796, 16912, 19374, 19497, 19787, 21355, 21470, 21631, 23768, 23940], "responses": ["8", "6", "13", "22", "18", "13", "14", "10", "21", "10", "13"], "num2": [6, 2, 9, 9, 5, 9, 2, 1, 8, 1, 2, 6], "num3": [1, 2, 1, 4, 5, 3, 7, 2, 5, 2, 5, 5], "conditions": [24, 1600, "v", 24000], "internal_node_id": "0.0-90.0", "key_presses": [56, 13, 54, 13, 49, 51, 13, 50, 50, 13, 49, 56, 13, 49, 51, 13, 49, 52, 13, 49, 48, 13, 49, 50, 8, 8, 50, 49, 13, 49, 48, 13, 49, 51, 13, 50, 48], "trial": 3, "time_elapsed": 1953104, "type": "DISTRACTOR", "trial_index": 117, "num1": [1, 2, 3, 9, 8, 1, 5, 7, 8, 7, 6, 9]}, "uniqueid": "MTK1613:39O5D9O87UZKROFP41A7TUKDHPQ3CX", "dateTime": 1516044888021}, {"current_trial": 118, "trialdata": {"rt": -1, "trial_type": "single-stim", "stimulus": "<p id=\"stim\">10</p>", "internal_node_id": "0.0-91.0-0.0", "time_elapsed": 1956112, "key_press": -1, "trial_index": 118}, "uniqueid": "MTK1613:39O5D9O87UZKROFP41A7TUKDHPQ3CX", "dateTime": 1516044891027}, {"current_trial": 119, "trialdata": {"rt": -1, "trial_type": "single-stim", "stimulus": "<p id=\"stim\">9</p>", "internal_node_id": "0.0-91.0-1.0", "time_elapsed": 1957115, "key_press": -1, "trial_index": 119}, "uniqueid": "MTK1613:39O5D9O87UZKROFP41A7TUKDHPQ3CX", "dateTime": 1516044892031}, {"current_trial": 120, "trialdata": {"rt": -1, "trial_type": "single-stim", "stimulus": "<p id=\"stim\">8</p>", "internal_node_id": "0.0-91.0-2.0", "time_elapsed": 1958119, "key_press": -1, "trial_index": 120}, "uniqueid": "MTK1613:39O5D9O87UZKROFP41A7TUKDHPQ3CX", "dateTime": 1516044893034}, {"current_trial": 121, "trialdata": {"rt": -1, "trial_type": "single-stim", "stimulus": "<p id=\"stim\">7</p>", "internal_node_id": "0.0-91.0-3.0", "time_elapsed": 1959123, "key_press": -1, "trial_index": 121}, "uniqueid": "MTK1613:39O5D9O87UZKROFP41A7TUKDHPQ3CX", "dateTime": 1516044894038}, {"current_trial": 122, "trialdata": {"rt": -1, "trial_type": "single-stim", "stimulus": "<p id=\"stim\">6</p>", "internal_node_id": "0.0-91.0-4.0", "time_elapsed": 1960129, "key_press": -1, "trial_index": 122}, "uniqueid": "MTK1613:39O5D9O87UZKROFP41A7TUKDHPQ3CX", "dateTime": 1516044895044}, {"current_trial": 123, "trialdata": {"rt": -1, "trial_type": "single-stim", "stimulus": "<p id=\"stim\">5</p>", "internal_node_id": "0.0-91.0-5.0", "time_elapsed": 1961132, "key_press": -1, "trial_index": 123}, "uniqueid": "MTK1613:39O5D9O87UZKROFP41A7TUKDHPQ3CX", "dateTime": 1516044896048}, {"current_trial": 124, "trialdata": {"rt": -1, "trial_type": "single-stim", "stimulus": "<p id=\"stim\">4</p>", "internal_node_id": "0.0-91.0-6.0", "time_elapsed": 1962136, "key_press": -1, "trial_index": 124}, "uniqueid": "MTK1613:39O5D9O87UZKROFP41A7TUKDHPQ3CX", "dateTime": 1516044897052}, {"current_trial": 125, "trialdata": {"rt": -1, "trial_type": "single-stim", "stimulus": "<p id=\"stim\">3</p>", "internal_node_id": "0.0-91.0-7.0", "time_elapsed": 1963140, "key_press": -1, "trial_index": 125}, "uniqueid": "MTK1613:39O5D9O87UZKROFP41A7TUKDHPQ3CX", "dateTime": 1516044898056}, {"current_trial": 126, "trialdata": {"rt": -1, "trial_type": "single-stim", "stimulus": "<p id=\"stim\">2</p>", "internal_node_id": "0.0-91.0-8.0", "time_elapsed": 1964145, "key_press": -1, "trial_index": 126}, "uniqueid": "MTK1613:39O5D9O87UZKROFP41A7TUKDHPQ3CX", "dateTime": 1516044899060}, {"current_trial": 127, "trialdata": {"rt": -1, "trial_type": "single-stim", "stimulus": "<p id=\"stim\">1</p>", "internal_node_id": "0.0-91.0-9.0", "time_elapsed": 1965149, "key_press": -1, "trial_index": 127}, "uniqueid": "MTK1613:39O5D9O87UZKROFP41A7TUKDHPQ3CX", "dateTime": 1516044900064}, {"current_trial": 128, "trialdata": {"rt": -1, "trial_type": "single-stim", "stimulus": "<p id=\"stim\">+</p>", "internal_node_id": "0.0-92.0-0.0", "time_elapsed": 1966652, "key_press": -1, "type": "FIXATION", "trial_index": 128}, "uniqueid": "MTK1613:39O5D9O87UZKROFP41A7TUKDHPQ3CX", "dateTime": 1516044901568}, {"current_trial": 129, "trialdata": {"rt": -1, "trial_type": "single-stim", "word": "rust", "stimulus": "<p id=\"stim\">RUST</p>", "conditions": [24, 1600, "v", 24000], "internal_node_id": "0.0-93.0", "trial": 3, "time_elapsed": 1968256, "serialpos": 0, "key_press": -1, "wordID": 1218, "type": "PRES_VIS", "trial_index": 129}, "uniqueid": "MTK1613:39O5D9O87UZKROFP41A7TUKDHPQ3CX", "dateTime": 1516044903172}, {"current_trial": 130, "trialdata": {"rt": -1, "trial_type": "single-stim", "word": "shirt", "stimulus": "<p id=\"stim\">SHIRT</p>", "conditions": [24, 1600, "v", 24000], "internal_node_id": "0.0-94.0", "trial": 3, "time_elapsed": 1970997, "serialpos": 1, "key_press": -1, "wordID": 1286, "type": "PRES_VIS", "trial_index": 130}, "uniqueid": "MTK1613:39O5D9O87UZKROFP41A7TUKDHPQ3CX", "dateTime": 1516044905913}, {"current_trial": 131, "trialdata": {"rt": -1, "trial_type": "single-stim", "word": "hood", "stimulus": "<p id=\"stim\">HOOD</p>", "conditions": [24, 1600, "v", 24000], "internal_node_id": "0.0-95.0", "trial": 3, "time_elapsed": 1973464, "serialpos": 2, "key_press": -1, "wordID": 713, "type": "PRES_VIS", "trial_index": 131}, "uniqueid": "MTK1613:39O5D9O87UZKROFP41A7TUKDHPQ3CX", "dateTime": 1516044908380}, {"current_trial": 132, "trialdata": {"rt": -1, "trial_type": "single-stim", "word": "sibling", "stimulus": "<p id=\"stim\">SIBLING</p>", "conditions": [24, 1600, "v", 24000], "internal_node_id": "0.0-96.0", "trial": 3, "time_elapsed": 1976091, "serialpos": 3, "key_press": -1, "wordID": 1300, "type": "PRES_VIS", "trial_index": 132}, "uniqueid": "MTK1613:39O5D9O87UZKROFP41A7TUKDHPQ3CX", "dateTime": 1516044911006}, {"current_trial": 133, "trialdata": {"rt": -1, "trial_type": "single-stim", "word": "pecan", "stimulus": "<p id=\"stim\">PECAN</p>", "conditions": [24, 1600, "v", 24000], "internal_node_id": "0.0-97.0", "trial": 3, "time_elapsed": 1978628, "serialpos": 4, "key_press": -1, "wordID": 1035, "type": "PRES_VIS", "trial_index": 133}, "uniqueid": "MTK1613:39O5D9O87UZKROFP41A7TUKDHPQ3CX", "dateTime": 1516044913543}, {"current_trial": 134, "trialdata": {"rt": -1, "trial_type": "single-stim", "word": "nurse", "stimulus": "<p id=\"stim\">NURSE</p>", "conditions": [24, 1600, "v", 24000], "internal_node_id": "0.0-98.0", "trial": 3, "time_elapsed": 1981254, "serialpos": 5, "key_press": -1, "wordID": 962, "type": "PRES_VIS", "trial_index": 134}, "uniqueid": "MTK1613:39O5D9O87UZKROFP41A7TUKDHPQ3CX", "dateTime": 1516044916169}, {"current_trial": 135, "trialdata": {"rt": -1, "trial_type": "single-stim", "word": "police", "stimulus": "<p id=\"stim\">POLICE</p>", "conditions": [24, 1600, "v", 24000], "internal_node_id": "0.0-99.0", "trial": 3, "time_elapsed": 1983986, "serialpos": 6, "key_press": -1, "wordID": 1097, "type": "PRES_VIS", "trial_index": 135}, "uniqueid": "MTK1613:39O5D9O87UZKROFP41A7TUKDHPQ3CX", "dateTime": 1516044918901}, {"current_trial": 136, "trialdata": {"rt": -1, "trial_type": "single-stim", "word": "mustard", "stimulus": "<p id=\"stim\">MUSTARD</p>", "conditions": [24, 1600, "v", 24000], "internal_node_id": "0.0-100.0", "trial": 3, "time_elapsed": 1986461, "serialpos": 7, "key_press": -1, "wordID": 934, "type": "PRES_VIS", "trial_index": 136}, "uniqueid": "MTK1613:39O5D9O87UZKROFP41A7TUKDHPQ3CX", "dateTime": 1516044921376}, {"current_trial": 137, "trialdata": {"rt": -1, "trial_type": "single-stim", "word": "headband", "stimulus": "<p id=\"stim\">HEADBAND</p>", "conditions": [24, 1600, "v", 24000], "internal_node_id": "0.0-101.0", "trial": 3, "time_elapsed": 1988982, "serialpos": 8, "key_press": -1, "wordID": 695, "type": "PRES_VIS", "trial_index": 137}, "uniqueid": "MTK1613:39O5D9O87UZKROFP41A7TUKDHPQ3CX", "dateTime": 1516044923897}, {"current_trial": 138, "trialdata": {"rt": -1, "trial_type": "single-stim", "word": "curtain", "stimulus": "<p id=\"stim\">CURTAIN</p>", "conditions": [24, 1600, "v", 24000], "internal_node_id": "0.0-102.0", "trial": 3, "time_elapsed": 1991742, "serialpos": 9, "key_press": -1, "wordID": 426, "type": "PRES_VIS", "trial_index": 138}, "uniqueid": "MTK1613:39O5D9O87UZKROFP41A7TUKDHPQ3CX", "dateTime": 1516044926658}, {"current_trial": 139, "trialdata": {"rt": -1, "trial_type": "single-stim", "word": "child", "stimulus": "<p id=\"stim\">CHILD</p>", "conditions": [24, 1600, "v", 24000], "internal_node_id": "0.0-103.0", "trial": 3, "time_elapsed": 1994432, "serialpos": 10, "key_press": -1, "wordID": 298, "type": "PRES_VIS", "trial_index": 139}, "uniqueid": "MTK1613:39O5D9O87UZKROFP41A7TUKDHPQ3CX", "dateTime": 1516044929348}, {"current_trial": 140, "trialdata": {"rt": -1, "trial_type": "single-stim", "word": "baby", "stimulus": "<p id=\"stim\">BABY</p>", "conditions": [24, 1600, "v", 24000], "internal_node_id": "0.0-104.0", "trial": 3, "time_elapsed": 1997097, "serialpos": 11, "key_press": -1, "wordID": 63, "type": "PRES_VIS", "trial_index": 140}, "uniqueid": "MTK1613:39O5D9O87UZKROFP41A7TUKDHPQ3CX", "dateTime": 1516044932012}, {"current_trial": 141, "trialdata": {"rt": -1, "trial_type": "single-stim", "word": "fruit", "stimulus": "<p id=\"stim\">FRUIT</p>", "conditions": [24, 1600, "v", 24000], "internal_node_id": "0.0-105.0", "trial": 3, "time_elapsed": 1999688, "serialpos": 12, "key_press": -1, "wordID": 609, "type": "PRES_VIS", "trial_index": 141}, "uniqueid": "MTK1613:39O5D9O87UZKROFP41A7TUKDHPQ3CX", "dateTime": 1516044934604}, {"current_trial": 142, "trialdata": {"rt": -1, "trial_type": "single-stim", "word": "dragon", "stimulus": "<p id=\"stim\">DRAGON</p>", "conditions": [24, 1600, "v", 24000], "internal_node_id": "0.0-106.0", "trial": 3, "time_elapsed": 2002386, "serialpos": 13, "key_press": -1, "wordID": 491, "type": "PRES_VIS", "trial_index": 142}, "uniqueid": "MTK1613:39O5D9O87UZKROFP41A7TUKDHPQ3CX", "dateTime": 1516044937302}, {"current_trial": 143, "trialdata": {"rt": -1, "trial_type": "single-stim", "word": "parrot", "stimulus": "<p id=\"stim\">PARROT</p>", "conditions": [24, 1600, "v", 24000], "internal_node_id": "0.0-107.0", "trial": 3, "time_elapsed": 2004794, "serialpos": 14, "key_press": -1, "wordID": 1014, "type": "PRES_VIS", "trial_index": 143}, "uniqueid": "MTK1613:39O5D9O87UZKROFP41A7TUKDHPQ3CX", "dateTime": 1516044939709}, {"current_trial": 144, "trialdata": {"rt": -1, "trial_type": "single-stim", "word": "lace", "stimulus": "<p id=\"stim\">LACE</p>", "conditions": [24, 1600, "v", 24000], "internal_node_id": "0.0-108.0", "trial": 3, "time_elapsed": 2007467, "serialpos": 15, "key_press": -1, "wordID": 791, "type": "PRES_VIS", "trial_index": 144}, "uniqueid": "MTK1613:39O5D9O87UZKROFP41A7TUKDHPQ3CX", "dateTime": 1516044942382}, {"current_trial": 145, "trialdata": {"rt": -1, "trial_type": "single-stim", "word": "iceberg", "stimulus": "<p id=\"stim\">ICEBERG</p>", "conditions": [24, 1600, "v", 24000], "internal_node_id": "0.0-109.0", "trial": 3, "time_elapsed": 2010203, "serialpos": 16, "key_press": -1, "wordID": 730, "type": "PRES_VIS", "trial_index": 145}, "uniqueid": "MTK1613:39O5D9O87UZKROFP41A7TUKDHPQ3CX", "dateTime": 1516044945119}, {"current_trial": 146, "trialdata": {"rt": -1, "trial_type": "single-stim", "word": "inmate", "stimulus": "<p id=\"stim\">INMATE</p>", "conditions": [24, 1600, "v", 24000], "internal_node_id": "0.0-110.0", "trial": 3, "time_elapsed": 2012779, "serialpos": 17, "key_press": -1, "wordID": 737, "type": "PRES_VIS", "trial_index": 146}, "uniqueid": "MTK1613:39O5D9O87UZKROFP41A7TUKDHPQ3CX", "dateTime": 1516044947695}, {"current_trial": 147, "trialdata": {"rt": -1, "trial_type": "single-stim", "word": "dolphin", "stimulus": "<p id=\"stim\">DOLPHIN</p>", "conditions": [24, 1600, "v", 24000], "internal_node_id": "0.0-111.0", "trial": 3, "time_elapsed": 2015483, "serialpos": 18, "key_press": -1, "wordID": 482, "type": "PRES_VIS", "trial_index": 147}, "uniqueid": "MTK1613:39O5D9O87UZKROFP41A7TUKDHPQ3CX", "dateTime": 1516044950398}, {"current_trial": 148, "trialdata": {"rt": -1, "trial_type": "single-stim", "word": "valley", "stimulus": "<p id=\"stim\">VALLEY</p>", "conditions": [24, 1600, "v", 24000], "internal_node_id": "0.0-112.0", "trial": 3, "time_elapsed": 2018091, "serialpos": 19, "key_press": -1, "wordID": 1544, "type": "PRES_VIS", "trial_index": 148}, "uniqueid": "MTK1613:39O5D9O87UZKROFP41A7TUKDHPQ3CX", "dateTime": 1516044953007}, {"current_trial": 149, "trialdata": {"rt": -1, "trial_type": "single-stim", "word": "canyon", "stimulus": "<p id=\"stim\">CANYON</p>", "conditions": [24, 1600, "v", 24000], "internal_node_id": "0.0-113.0", "trial": 3, "time_elapsed": 2020509, "serialpos": 20, "key_press": -1, "wordID": 234, "type": "PRES_VIS", "trial_index": 149}, "uniqueid": "MTK1613:39O5D9O87UZKROFP41A7TUKDHPQ3CX", "dateTime": 1516044955424}, {"current_trial": 150, "trialdata": {"rt": -1, "trial_type": "single-stim", "word": "cafe", "stimulus": "<p id=\"stim\">CAFE</p>", "conditions": [24, 1600, "v", 24000], "internal_node_id": "0.0-114.0", "trial": 3, "time_elapsed": 2023309, "serialpos": 21, "key_press": -1, "wordID": 215, "type": "PRES_VIS", "trial_index": 150}, "uniqueid": "MTK1613:39O5D9O87UZKROFP41A7TUKDHPQ3CX", "dateTime": 1516044958225}, {"current_trial": 151, "trialdata": {"rt": -1, "trial_type": "single-stim", "word": "plaid", "stimulus": "<p id=\"stim\">PLAID</p>", "conditions": [24, 1600, "v", 24000], "internal_node_id": "0.0-115.0", "trial": 3, "time_elapsed": 2025899, "serialpos": 22, "key_press": -1, "wordID": 1079, "type": "PRES_VIS", "trial_index": 151}, "uniqueid": "MTK1613:39O5D9O87UZKROFP41A7TUKDHPQ3CX", "dateTime": 1516044960814}, {"current_trial": 152, "trialdata": {"rt": -1, "trial_type": "single-stim", "word": "climber", "stimulus": "<p id=\"stim\">CLIMBER</p>", "conditions": [24, 1600, "v", 24000], "internal_node_id": "0.0-116.0", "trial": 3, "time_elapsed": 2028585, "serialpos": 23, "key_press": -1, "wordID": 322, "type": "PRES_VIS", "trial_index": 152}, "uniqueid": "MTK1613:39O5D9O87UZKROFP41A7TUKDHPQ3CX", "dateTime": 1516044963500}, {"current_trial": 153, "trialdata": {"rt": -1, "trial_type": "single-stim", "stimulus": "", "internal_node_id": "0.0-117.0-0.0", "time_elapsed": 2030723, "key_press": -1, "type": "PRE_RECALL_DELAY", "trial_index": 153}, "uniqueid": "MTK1613:39O5D9O87UZKROFP41A7TUKDHPQ3CX", "dateTime": 1516044965639}, {"current_trial": 154, "trialdata": {"rt": -1000, "trial_type": "single-audio", "stimulus": "/static/audio/400Hz.wav", "internal_node_id": "0.0-118.0", "time_elapsed": 2031227, "key_press": -1, "type": "PRE_RECALL_ALERT", "trial_index": 154}, "uniqueid": "MTK1613:39O5D9O87UZKROFP41A7TUKDHPQ3CX", "dateTime": 1516044966142}, {"current_trial": 155, "trialdata": {"rt": [1901, 3225, 4371, 5838, 7179, 8426, 35231, 37678, 56038], "recwords": ["iceberg", "child", "baby", "rust", "shirt", "hood", "fruit", "dragon", "lace"], "key_times": [340, 439, 599, 799, 1035, 1242, 1340, 1579, 1901, 2254, 2481, 2668, 2762, 2825, 2927, 3225, 3387, 3495, 3677, 3784, 4160, 4371, 4818, 5241, 5467, 5574, 5664, 5838, 5979, 6069, 6219, 6331, 6419, 6996, 7179, 7359, 7458, 7667, 7807, 7882, 8426, 33715, 34391, 34635, 34780, 34859, 34972, 35231, 35484, 36659, 36886, 36972, 37146, 37325, 37399, 37678, 54994, 55108, 55434, 55637, 55839, 56038], "trial_type": "free-recall", "conditions": [24, 1600, "v", 24000], "internal_node_id": "0.0-119.0-0.0", "key_presses": [16, 73, 67, 69, 66, 69, 82, 71, 13, 16, 67, 72, 73, 76, 68, 13, 16, 66, 65, 66, 89, 13, 16, 82, 85, 83, 84, 13, 16, 83, 72, 73, 82, 84, 13, 16, 72, 79, 79, 68, 13, 16, 70, 82, 85, 73, 84, 13, 16, 68, 82, 65, 71, 79, 78, 13, 16, 76, 65, 67, 69, 13], "trial": 3, "time_elapsed": 2091243, "type": "FREE_RECALL", "trial_index": 155}, "uniqueid": "MTK1613:39O5D9O87UZKROFP41A7TUKDHPQ3CX", "dateTime": 1516045026189}, {"current_trial": 156, "trialdata": {"rt": 533, "trial_type": "text", "internal_node_id": "0.0-120.0", "time_elapsed": 2093833, "key_press": 32, "type": "INSTRUCTIONS", "trial_index": 156}, "uniqueid": "MTK1613:39O5D9O87UZKROFP41A7TUKDHPQ3CX", "dateTime": 1516045028749}, {"current_trial": 157, "trialdata": {"rt": [6615, 8426, 10836], "trial_type": "math-distractor", "key_times": [2761, 2823, 6615, 7983, 8128, 8426, 10321, 10491, 10836], "responses": ["21", "14", "17"], "num2": [6, 8, 8, 4], "num3": [9, 4, 6, 1], "conditions": [12, 1600, "v", 12000], "internal_node_id": "0.0-121.0", "key_presses": [50, 49, 13, 49, 52, 13, 49, 55, 13], "trial": 4, "time_elapsed": 2107849, "type": "DISTRACTOR", "trial_index": 157, "num1": [6, 2, 3, 4]}, "uniqueid": "MTK1613:39O5D9O87UZKROFP41A7TUKDHPQ3CX", "dateTime": 1516045042765}, {"current_trial": 158, "trialdata": {"rt": -1, "trial_type": "single-stim", "stimulus": "<p id=\"stim\">10</p>", "internal_node_id": "0.0-122.0-0.0", "time_elapsed": 2110857, "key_press": -1, "trial_index": 158}, "uniqueid": "MTK1613:39O5D9O87UZKROFP41A7TUKDHPQ3CX", "dateTime": 1516045045772}, {"current_trial": 159, "trialdata": {"rt": -1, "trial_type": "single-stim", "stimulus": "<p id=\"stim\">9</p>", "internal_node_id": "0.0-122.0-1.0", "time_elapsed": 2111861, "key_press": -1, "trial_index": 159}, "uniqueid": "MTK1613:39O5D9O87UZKROFP41A7TUKDHPQ3CX", "dateTime": 1516045046777}, {"current_trial": 160, "trialdata": {"rt": -1, "trial_type": "single-stim", "stimulus": "<p id=\"stim\">8</p>", "internal_node_id": "0.0-122.0-2.0", "time_elapsed": 2112866, "key_press": -1, "trial_index": 160}, "uniqueid": "MTK1613:39O5D9O87UZKROFP41A7TUKDHPQ3CX", "dateTime": 1516045047781}, {"current_trial": 161, "trialdata": {"rt": -1, "trial_type": "single-stim", "stimulus": "<p id=\"stim\">7</p>", "internal_node_id": "0.0-122.0-3.0", "time_elapsed": 2113870, "key_press": -1, "trial_index": 161}, "uniqueid": "MTK1613:39O5D9O87UZKROFP41A7TUKDHPQ3CX", "dateTime": 1516045048785}, {"current_trial": 162, "trialdata": {"rt": -1, "trial_type": "single-stim", "stimulus": "<p id=\"stim\">6</p>", "internal_node_id": "0.0-122.0-4.0", "time_elapsed": 2114874, "key_press": -1, "trial_index": 162}, "uniqueid": "MTK1613:39O5D9O87UZKROFP41A7TUKDHPQ3CX", "dateTime": 1516045049789}, {"current_trial": 163, "trialdata": {"rt": -1, "trial_type": "single-stim", "stimulus": "<p id=\"stim\">5</p>", "internal_node_id": "0.0-122.0-5.0", "time_elapsed": 2115877, "key_press": -1, "trial_index": 163}, "uniqueid": "MTK1613:39O5D9O87UZKROFP41A7TUKDHPQ3CX", "dateTime": 1516045050792}, {"current_trial": 164, "trialdata": {"rt": -1, "trial_type": "single-stim", "stimulus": "<p id=\"stim\">4</p>", "internal_node_id": "0.0-122.0-6.0", "time_elapsed": 2116881, "key_press": -1, "trial_index": 164}, "uniqueid": "MTK1613:39O5D9O87UZKROFP41A7TUKDHPQ3CX", "dateTime": 1516045051800}, {"current_trial": 165, "trialdata": {"rt": -1, "trial_type": "single-stim", "stimulus": "<p id=\"stim\">3</p>", "internal_node_id": "0.0-122.0-7.0", "time_elapsed": 2117889, "key_press": -1, "trial_index": 165}, "uniqueid": "MTK1613:39O5D9O87UZKROFP41A7TUKDHPQ3CX", "dateTime": 1516045052804}, {"current_trial": 166, "trialdata": {"rt": -1, "trial_type": "single-stim", "stimulus": "<p id=\"stim\">2</p>", "internal_node_id": "0.0-122.0-8.0", "time_elapsed": 2118899, "key_press": -1, "trial_index": 166}, "uniqueid": "MTK1613:39O5D9O87UZKROFP41A7TUKDHPQ3CX", "dateTime": 1516045053815}, {"current_trial": 167, "trialdata": {"rt": -1, "trial_type": "single-stim", "stimulus": "<p id=\"stim\">1</p>", "internal_node_id": "0.0-122.0-9.0", "time_elapsed": 2119904, "key_press": -1, "trial_index": 167}, "uniqueid": "MTK1613:39O5D9O87UZKROFP41A7TUKDHPQ3CX", "dateTime": 1516045054819}, {"current_trial": 168, "trialdata": {"rt": -1, "trial_type": "single-stim", "stimulus": "<p id=\"stim\">+</p>", "internal_node_id": "0.0-123.0-0.0", "time_elapsed": 2121414, "key_press": -1, "type": "FIXATION", "trial_index": 168}, "uniqueid": "MTK1613:39O5D9O87UZKROFP41A7TUKDHPQ3CX", "dateTime": 1516045056329}, {"current_trial": 169, "trialdata": {"rt": -1, "trial_type": "single-stim", "word": "mailbox", "stimulus": "<p id=\"stim\">MAILBOX</p>", "conditions": [12, 1600, "v", 12000], "internal_node_id": "0.0-124.0", "trial": 4, "time_elapsed": 2123018, "serialpos": 0, "key_press": -1, "wordID": 856, "type": "PRES_VIS", "trial_index": 169}, "uniqueid": "MTK1613:39O5D9O87UZKROFP41A7TUKDHPQ3CX", "dateTime": 1516045057934}, {"current_trial": 170, "trialdata": {"rt": -1, "trial_type": "single-stim", "word": "basement", "stimulus": "<p id=\"stim\">BASEMENT</p>", "conditions": [12, 1600, "v", 12000], "internal_node_id": "0.0-125.0", "trial": 4, "time_elapsed": 2125676, "serialpos": 1, "key_press": -1, "wordID": 93, "type": "PRES_VIS", "trial_index": 170}, "uniqueid": "MTK1613:39O5D9O87UZKROFP41A7TUKDHPQ3CX", "dateTime": 1516045060591}, {"current_trial": 171, "trialdata": {"rt": -1, "trial_type": "single-stim", "word": "cellar", "stimulus": "<p id=\"stim\">CELLAR</p>", "conditions": [12, 1600, "v", 12000], "internal_node_id": "0.0-126.0", "trial": 4, "time_elapsed": 2128350, "serialpos": 2, "key_press": -1, "wordID": 266, "type": "PRES_VIS", "trial_index": 171}, "uniqueid": "MTK1613:39O5D9O87UZKROFP41A7TUKDHPQ3CX", "dateTime": 1516045063266}, {"current_trial": 172, "trialdata": {"rt": -1, "trial_type": "single-stim", "word": "citrus", "stimulus": "<p id=\"stim\">CITRUS</p>", "conditions": [12, 1600, "v", 12000], "internal_node_id": "0.0-127.0", "trial": 4, "time_elapsed": 2130818, "serialpos": 3, "key_press": -1, "wordID": 312, "type": "PRES_VIS", "trial_index": 172}, "uniqueid": "MTK1613:39O5D9O87UZKROFP41A7TUKDHPQ3CX", "dateTime": 1516045065733}, {"current_trial": 173, "trialdata": {"rt": -1, "trial_type": "single-stim", "word": "pistol", "stimulus": "<p id=\"stim\">PISTOL</p>", "conditions": [12, 1600, "v", 12000], "internal_node_id": "0.0-128.0", "trial": 4, "time_elapsed": 2133369, "serialpos": 4, "key_press": -1, "wordID": 1074, "type": "PRES_VIS", "trial_index": 173}, "uniqueid": "MTK1613:39O5D9O87UZKROFP41A7TUKDHPQ3CX", "dateTime": 1516045068284}, {"current_trial": 174, "trialdata": {"rt": -1, "trial_type": "single-stim", "word": "judge", "stimulus": "<p id=\"stim\">JUDGE</p>", "conditions": [12, 1600, "v", 12000], "internal_node_id": "0.0-129.0", "trial": 4, "time_elapsed": 2136079, "serialpos": 5, "key_press": -1, "wordID": 760, "type": "PRES_VIS", "trial_index": 174}, "uniqueid": "MTK1613:39O5D9O87UZKROFP41A7TUKDHPQ3CX", "dateTime": 1516045070995}, {"current_trial": 175, "trialdata": {"rt": -1, "trial_type": "single-stim", "word": "servant", "stimulus": "<p id=\"stim\">SERVANT</p>", "conditions": [12, 1600, "v", 12000], "internal_node_id": "0.0-130.0", "trial": 4, "time_elapsed": 2138762, "serialpos": 6, "key_press": -1, "wordID": 1270, "type": "PRES_VIS", "trial_index": 175}, "uniqueid": "MTK1613:39O5D9O87UZKROFP41A7TUKDHPQ3CX", "dateTime": 1516045073678}, {"current_trial": 176, "trialdata": {"rt": -1, "trial_type": "single-stim", "word": "friend", "stimulus": "<p id=\"stim\">FRIEND</p>", "conditions": [12, 1600, "v", 12000], "internal_node_id": "0.0-131.0", "trial": 4, "time_elapsed": 2141310, "serialpos": 7, "key_press": -1, "wordID": 605, "type": "PRES_VIS", "trial_index": 176}, "uniqueid": "MTK1613:39O5D9O87UZKROFP41A7TUKDHPQ3CX", "dateTime": 1516045076225}, {"current_trial": 177, "trialdata": {"rt": -1, "trial_type": "single-stim", "word": "sculpture", "stimulus": "<p id=\"stim\">SCULPTURE</p>", "conditions": [12, 1600, "v", 12000], "internal_node_id": "0.0-132.0", "trial": 4, "time_elapsed": 2144077, "serialpos": 8, "key_press": -1, "wordID": 1257, "type": "PRES_VIS", "trial_index": 177}, "uniqueid": "MTK1613:39O5D9O87UZKROFP41A7TUKDHPQ3CX", "dateTime": 1516045078992}, {"current_trial": 178, "trialdata": {"rt": -1, "trial_type": "single-stim", "word": "binder", "stimulus": "<p id=\"stim\">BINDER</p>", "conditions": [12, 1600, "v", 12000], "internal_node_id": "0.0-133.0", "trial": 4, "time_elapsed": 2146561, "serialpos": 9, "key_press": -1, "wordID": 126, "type": "PRES_VIS", "trial_index": 178}, "uniqueid": "MTK1613:39O5D9O87UZKROFP41A7TUKDHPQ3CX", "dateTime": 1516045081477}, {"current_trial": 179, "trialdata": {"rt": -1, "trial_type": "single-stim", "word": "peach", "stimulus": "<p id=\"stim\">PEACH</p>", "conditions": [12, 1600, "v", 12000], "internal_node_id": "0.0-134.0", "trial": 4, "time_elapsed": 2149131, "serialpos": 10, "key_press": -1, "wordID": 1030, "type": "PRES_VIS", "trial_index": 179}, "uniqueid": "MTK1613:39O5D9O87UZKROFP41A7TUKDHPQ3CX", "dateTime": 1516045084047}, {"current_trial": 180, "trialdata": {"rt": -1, "trial_type": "single-stim", "word": "machine", "stimulus": "<p id=\"stim\">MACHINE</p>", "conditions": [12, 1600, "v", 12000], "internal_node_id": "0.0-135.0", "trial": 4, "time_elapsed": 2151710, "serialpos": 11, "key_press": -1, "wordID": 851, "type": "PRES_VIS", "trial_index": 180}, "uniqueid": "MTK1613:39O5D9O87UZKROFP41A7TUKDHPQ3CX", "dateTime": 1516045086625}, {"current_trial": 181, "trialdata": {"rt": -1, "trial_type": "single-stim", "stimulus": "", "internal_node_id": "0.0-136.0-0.0", "time_elapsed": 2154154, "key_press": -1, "type": "PRE_RECALL_DELAY", "trial_index": 181}, "uniqueid": "MTK1613:39O5D9O87UZKROFP41A7TUKDHPQ3CX", "dateTime": 1516045089070}, {"current_trial": 182, "trialdata": {"rt": -1000, "trial_type": "single-audio", "stimulus": "/static/audio/400Hz.wav", "internal_node_id": "0.0-137.0", "time_elapsed": 2154658, "key_press": -1, "type": "PRE_RECALL_ALERT", "trial_index": 182}, "uniqueid": "MTK1613:39O5D9O87UZKROFP41A7TUKDHPQ3CX", "dateTime": 1516045089574}, {"current_trial": 183, "trialdata": {"rt": [1177, 2420, 3808, 5494, 6662, 7961, 12385, 30647], "recwords": ["peach", "machine", "cellar", "basement", "friend", "servant", "mailbox", "pistol"], "key_times": [302, 407, 561, 635, 846, 968, 1177, 1362, 1475, 1625, 1819, 1908, 1994, 2107, 2194, 2420, 2508, 2741, 2998, 3100, 3223, 3343, 3492, 3808, 4074, 4293, 4493, 4635, 4719, 4926, 5057, 5168, 5272, 5494, 5748, 5828, 6033, 6166, 6242, 6361, 6448, 6662, 6772, 6862, 7081, 7165, 7377, 7438, 7593, 7738, 7961, 9073, 11374, 11579, 11678, 11759, 11948, 12053, 12237, 12385, 16264, 16901, 17212, 29340, 29541, 29774, 29882, 30107, 30203, 30371, 30647], "trial_type": "free-recall", "conditions": [12, 1600, "v", 12000], "internal_node_id": "0.0-138.0-0.0", "key_presses": [16, 80, 69, 65, 67, 72, 13, 16, 77, 65, 67, 72, 73, 78, 69, 13, 16, 67, 69, 76, 76, 65, 82, 13, 16, 66, 65, 83, 69, 77, 69, 78, 84, 13, 16, 70, 82, 73, 69, 78, 68, 13, 16, 83, 69, 82, 86, 65, 78, 84, 13, 16, 77, 65, 73, 76, 66, 79, 88, 13, 74, 8, 8, 16, 80, 73, 83, 84, 79, 76, 13], "trial": 4, "time_elapsed": 2214675, "type": "FREE_RECALL", "trial_index": 183}, "uniqueid": "MTK1613:39O5D9O87UZKROFP41A7TUKDHPQ3CX", "dateTime": 1516045149615}, {"current_trial": 184, "trialdata": {"rt": 818, "trial_type": "text", "internal_node_id": "0.0-139.0", "time_elapsed": 2217525, "key_press": 32, "type": "INSTRUCTIONS", "trial_index": 184}, "uniqueid": "MTK1613:39O5D9O87UZKROFP41A7TUKDHPQ3CX", "dateTime": 1516045152441}, {"current_trial": 185, "trialdata": {"rt": [4420, 7458, 9777, 11826], "trial_type": "math-distractor", "key_times": [3697, 3773, 4420, 6513, 6635, 7458, 9389, 9511, 9777, 10969, 11108, 11826], "responses": ["23", "23", "13", "17"], "num2": [6, 8, 8, 5, 3], "num3": [9, 7, 1, 7, 8], "conditions": [24, 800, "v", 12000], "internal_node_id": "0.0-140.0", "key_presses": [50, 51, 13, 50, 51, 13, 49, 51, 13, 49, 55, 13], "trial": 5, "time_elapsed": 2231542, "type": "DISTRACTOR", "trial_index": 185, "num1": [7, 8, 4, 5, 1]}, "uniqueid": "MTK1613:39O5D9O87UZKROFP41A7TUKDHPQ3CX", "dateTime": 1516045166457}, {"current_trial": 186, "trialdata": {"rt": -1, "trial_type": "single-stim", "stimulus": "<p id=\"stim\">10</p>", "internal_node_id": "0.0-141.0-0.0", "time_elapsed": 2234550, "key_press": -1, "trial_index": 186}, "uniqueid": "MTK1613:39O5D9O87UZKROFP41A7TUKDHPQ3CX", "dateTime": 1516045169465}, {"current_trial": 187, "trialdata": {"rt": -1, "trial_type": "single-stim", "stimulus": "<p id=\"stim\">9</p>", "internal_node_id": "0.0-141.0-1.0", "time_elapsed": 2235554, "key_press": -1, "trial_index": 187}, "uniqueid": "MTK1613:39O5D9O87UZKROFP41A7TUKDHPQ3CX", "dateTime": 1516045170469}, {"current_trial": 188, "trialdata": {"rt": -1, "trial_type": "single-stim", "stimulus": "<p id=\"stim\">8</p>", "internal_node_id": "0.0-141.0-2.0", "time_elapsed": 2236558, "key_press": -1, "trial_index": 188}, "uniqueid": "MTK1613:39O5D9O87UZKROFP41A7TUKDHPQ3CX", "dateTime": 1516045171474}, {"current_trial": 189, "trialdata": {"rt": -1, "trial_type": "single-stim", "stimulus": "<p id=\"stim\">7</p>", "internal_node_id": "0.0-141.0-3.0", "time_elapsed": 2237563, "key_press": -1, "trial_index": 189}, "uniqueid": "MTK1613:39O5D9O87UZKROFP41A7TUKDHPQ3CX", "dateTime": 1516045172478}, {"current_trial": 190, "trialdata": {"rt": -1, "trial_type": "single-stim", "stimulus": "<p id=\"stim\">6</p>", "internal_node_id": "0.0-141.0-4.0", "time_elapsed": 2238572, "key_press": -1, "trial_index": 190}, "uniqueid": "MTK1613:39O5D9O87UZKROFP41A7TUKDHPQ3CX", "dateTime": 1516045173487}, {"current_trial": 191, "trialdata": {"rt": -1, "trial_type": "single-stim", "stimulus": "<p id=\"stim\">5</p>", "internal_node_id": "0.0-141.0-5.0", "time_elapsed": 2239577, "key_press": -1, "trial_index": 191}, "uniqueid": "MTK1613:39O5D9O87UZKROFP41A7TUKDHPQ3CX", "dateTime": 1516045174492}, {"current_trial": 192, "trialdata": {"rt": -1, "trial_type": "single-stim", "stimulus": "<p id=\"stim\">4</p>", "internal_node_id": "0.0-141.0-6.0", "time_elapsed": 2240582, "key_press": -1, "trial_index": 192}, "uniqueid": "MTK1613:39O5D9O87UZKROFP41A7TUKDHPQ3CX", "dateTime": 1516045175510}, {"current_trial": 193, "trialdata": {"rt": -1, "trial_type": "single-stim", "stimulus": "<p id=\"stim\">3</p>", "internal_node_id": "0.0-141.0-7.0", "time_elapsed": 2241599, "key_press": -1, "trial_index": 193}, "uniqueid": "MTK1613:39O5D9O87UZKROFP41A7TUKDHPQ3CX", "dateTime": 1516045176515}, {"current_trial": 194, "trialdata": {"rt": -1, "trial_type": "single-stim", "stimulus": "<p id=\"stim\">2</p>", "internal_node_id": "0.0-141.0-8.0", "time_elapsed": 2242604, "key_press": -1, "trial_index": 194}, "uniqueid": "MTK1613:39O5D9O87UZKROFP41A7TUKDHPQ3CX", "dateTime": 1516045177519}, {"current_trial": 195, "trialdata": {"rt": -1, "trial_type": "single-stim", "stimulus": "<p id=\"stim\">1</p>", "internal_node_id": "0.0-141.0-9.0", "time_elapsed": 2243614, "key_press": -1, "trial_index": 195}, "uniqueid": "MTK1613:39O5D9O87UZKROFP41A7TUKDHPQ3CX", "dateTime": 1516045178530}, {"current_trial": 196, "trialdata": {"rt": -1, "trial_type": "single-stim", "stimulus": "<p id=\"stim\">+</p>", "internal_node_id": "0.0-142.0-0.0", "time_elapsed": 2245118, "key_press": -1, "type": "FIXATION", "trial_index": 196}, "uniqueid": "MTK1613:39O5D9O87UZKROFP41A7TUKDHPQ3CX", "dateTime": 1516045180033}, {"current_trial": 197, "trialdata": {"rt": -1, "trial_type": "single-stim", "word": "liver", "stimulus": "<p id=\"stim\">LIVER</p>", "conditions": [24, 800, "v", 12000], "internal_node_id": "0.0-143.0", "trial": 5, "time_elapsed": 2245922, "serialpos": 0, "key_press": -1, "wordID": 832, "type": "PRES_VIS", "trial_index": 197}, "uniqueid": "MTK1613:39O5D9O87UZKROFP41A7TUKDHPQ3CX", "dateTime": 1516045180837}, {"current_trial": 198, "trialdata": {"rt": -1, "trial_type": "single-stim", "word": "island", "stimulus": "<p id=\"stim\">ISLAND</p>", "conditions": [24, 800, "v", 12000], "internal_node_id": "0.0-144.0", "trial": 5, "time_elapsed": 2247673, "serialpos": 1, "key_press": -1, "wordID": 744, "type": "PRES_VIS", "trial_index": 198}, "uniqueid": "MTK1613:39O5D9O87UZKROFP41A7TUKDHPQ3CX", "dateTime": 1516045182589}, {"current_trial": 199, "trialdata": {"rt": -1, "trial_type": "single-stim", "word": "gymnast", "stimulus": "<p id=\"stim\">GYMNAST</p>", "conditions": [24, 800, "v", 12000], "internal_node_id": "0.0-145.0", "trial": 5, "time_elapsed": 2249573, "serialpos": 2, "key_press": -1, "wordID": 674, "type": "PRES_VIS", "trial_index": 199}, "uniqueid": "MTK1613:39O5D9O87UZKROFP41A7TUKDHPQ3CX", "dateTime": 1516045184489}, {"current_trial": 200, "trialdata": {"rt": -1, "trial_type": "single-stim", "word": "beast", "stimulus": "<p id=\"stim\">BEAST</p>", "conditions": [24, 800, "v", 12000], "internal_node_id": "0.0-146.0", "trial": 5, "time_elapsed": 2251530, "serialpos": 3, "key_press": -1, "wordID": 107, "type": "PRES_VIS", "trial_index": 200}, "uniqueid": "MTK1613:39O5D9O87UZKROFP41A7TUKDHPQ3CX", "dateTime": 1516045186446}, {"current_trial": 201, "trialdata": {"rt": -1, "trial_type": "single-stim", "word": "diner", "stimulus": "<p id=\"stim\">DINER</p>", "conditions": [24, 800, "v", 12000], "internal_node_id": "0.0-147.0", "trial": 5, "time_elapsed": 2253496, "serialpos": 4, "key_press": -1, "wordID": 466, "type": "PRES_VIS", "trial_index": 201}, "uniqueid": "MTK1613:39O5D9O87UZKROFP41A7TUKDHPQ3CX", "dateTime": 1516045188411}, {"current_trial": 202, "trialdata": {"rt": -1, "trial_type": "single-stim", "word": "princess", "stimulus": "<p id=\"stim\">PRINCESS</p>", "conditions": [24, 800, "v", 12000], "internal_node_id": "0.0-148.0", "trial": 5, "time_elapsed": 2255300, "serialpos": 5, "key_press": -1, "wordID": 1124, "type": "PRES_VIS", "trial_index": 202}, "uniqueid": "MTK1613:39O5D9O87UZKROFP41A7TUKDHPQ3CX", "dateTime": 1516045190215}, {"current_trial": 203, "trialdata": {"rt": -1, "trial_type": "single-stim", "word": "cottage", "stimulus": "<p id=\"stim\">COTTAGE</p>", "conditions": [24, 800, "v", 12000], "internal_node_id": "0.0-149.0", "trial": 5, "time_elapsed": 2257053, "serialpos": 6, "key_press": -1, "wordID": 383, "type": "PRES_VIS", "trial_index": 203}, "uniqueid": "MTK1613:39O5D9O87UZKROFP41A7TUKDHPQ3CX", "dateTime": 1516045191968}, {"current_trial": 204, "trialdata": {"rt": -1, "trial_type": "single-stim", "word": "piston", "stimulus": "<p id=\"stim\">PISTON</p>", "conditions": [24, 800, "v", 12000], "internal_node_id": "0.0-150.0", "trial": 5, "time_elapsed": 2258911, "serialpos": 7, "key_press": -1, "wordID": 1075, "type": "PRES_VIS", "trial_index": 204}, "uniqueid": "MTK1613:39O5D9O87UZKROFP41A7TUKDHPQ3CX", "dateTime": 1516045193827}, {"current_trial": 205, "trialdata": {"rt": -1, "trial_type": "single-stim", "word": "costume", "stimulus": "<p id=\"stim\">COSTUME</p>", "conditions": [24, 800, "v", 12000], "internal_node_id": "0.0-151.0", "trial": 5, "time_elapsed": 2260640, "serialpos": 8, "key_press": -1, "wordID": 382, "type": "PRES_VIS", "trial_index": 205}, "uniqueid": "MTK1613:39O5D9O87UZKROFP41A7TUKDHPQ3CX", "dateTime": 1516045195555}, {"current_trial": 206, "trialdata": {"rt": -1, "trial_type": "single-stim", "word": "scarecrow", "stimulus": "<p id=\"stim\">SCARECROW</p>", "conditions": [24, 800, "v", 12000], "internal_node_id": "0.0-152.0", "trial": 5, "time_elapsed": 2262355, "serialpos": 9, "key_press": -1, "wordID": 1244, "type": "PRES_VIS", "trial_index": 206}, "uniqueid": "MTK1613:39O5D9O87UZKROFP41A7TUKDHPQ3CX", "dateTime": 1516045197271}, {"current_trial": 207, "trialdata": {"rt": -1, "trial_type": "single-stim", "word": "rod", "stimulus": "<p id=\"stim\">ROD</p>", "conditions": [24, 800, "v", 12000], "internal_node_id": "0.0-153.0", "trial": 5, "time_elapsed": 2264320, "serialpos": 10, "key_press": -1, "wordID": 1202, "type": "PRES_VIS", "trial_index": 207}, "uniqueid": "MTK1613:39O5D9O87UZKROFP41A7TUKDHPQ3CX", "dateTime": 1516045199235}, {"current_trial": 208, "trialdata": {"rt": -1, "trial_type": "single-stim", "word": "valve", "stimulus": "<p id=\"stim\">VALVE</p>", "conditions": [24, 800, "v", 12000], "internal_node_id": "0.0-154.0", "trial": 5, "time_elapsed": 2265975, "serialpos": 11, "key_press": -1, "wordID": 1545, "type": "PRES_VIS", "trial_index": 208}, "uniqueid": "MTK1613:39O5D9O87UZKROFP41A7TUKDHPQ3CX", "dateTime": 1516045200891}, {"current_trial": 209, "trialdata": {"rt": -1, "trial_type": "single-stim", "word": "flipper", "stimulus": "<p id=\"stim\">FLIPPER</p>", "conditions": [24, 800, "v", 12000], "internal_node_id": "0.0-155.0", "trial": 5, "time_elapsed": 2267709, "serialpos": 12, "key_press": -1, "wordID": 579, "type": "PRES_VIS", "trial_index": 209}, "uniqueid": "MTK1613:39O5D9O87UZKROFP41A7TUKDHPQ3CX", "dateTime": 1516045202624}, {"current_trial": 210, "trialdata": {"rt": -1, "trial_type": "single-stim", "word": "plaza", "stimulus": "<p id=\"stim\">PLAZA</p>", "conditions": [24, 800, "v", 12000], "internal_node_id": "0.0-156.0", "trial": 5, "time_elapsed": 2269655, "serialpos": 13, "key_press": -1, "wordID": 1087, "type": "PRES_VIS", "trial_index": 210}, "uniqueid": "MTK1613:39O5D9O87UZKROFP41A7TUKDHPQ3CX", "dateTime": 1516045204571}, {"current_trial": 211, "trialdata": {"rt": -1, "trial_type": "single-stim", "word": "custard", "stimulus": "<p id=\"stim\">CUSTARD</p>", "conditions": [24, 800, "v", 12000], "internal_node_id": "0.0-157.0", "trial": 5, "time_elapsed": 2271389, "serialpos": 14, "key_press": -1, "wordID": 428, "type": "PRES_VIS", "trial_index": 211}, "uniqueid": "MTK1613:39O5D9O87UZKROFP41A7TUKDHPQ3CX", "dateTime": 1516045206304}, {"current_trial": 212, "trialdata": {"rt": -1, "trial_type": "single-stim", "word": "ground", "stimulus": "<p id=\"stim\">GROUND</p>", "conditions": [24, 800, "v", 12000], "internal_node_id": "0.0-158.0", "trial": 5, "time_elapsed": 2273330, "serialpos": 15, "key_press": -1, "wordID": 665, "type": "PRES_VIS", "trial_index": 212}, "uniqueid": "MTK1613:39O5D9O87UZKROFP41A7TUKDHPQ3CX", "dateTime": 1516045208246}, {"current_trial": 213, "trialdata": {"rt": -1, "trial_type": "single-stim", "word": "raft", "stimulus": "<p id=\"stim\">RAFT</p>", "conditions": [24, 800, "v", 12000], "internal_node_id": "0.0-159.0", "trial": 5, "time_elapsed": 2275236, "serialpos": 16, "key_press": -1, "wordID": 1158, "type": "PRES_VIS", "trial_index": 213}, "uniqueid": "MTK1613:39O5D9O87UZKROFP41A7TUKDHPQ3CX", "dateTime": 1516045210152}, {"current_trial": 214, "trialdata": {"rt": -1, "trial_type": "single-stim", "word": "dime", "stimulus": "<p id=\"stim\">DIME</p>", "conditions": [24, 800, "v", 12000], "internal_node_id": "0.0-160.0", "trial": 5, "time_elapsed": 2277130, "serialpos": 17, "key_press": -1, "wordID": 465, "type": "PRES_VIS", "trial_index": 214}, "uniqueid": "MTK1613:39O5D9O87UZKROFP41A7TUKDHPQ3CX", "dateTime": 1516045212046}, {"current_trial": 215, "trialdata": {"rt": -1, "trial_type": "single-stim", "word": "paddle", "stimulus": "<p id=\"stim\">PADDLE</p>", "conditions": [24, 800, "v", 12000], "internal_node_id": "0.0-161.0", "trial": 5, "time_elapsed": 2278839, "serialpos": 18, "key_press": -1, "wordID": 999, "type": "PRES_VIS", "trial_index": 215}, "uniqueid": "MTK1613:39O5D9O87UZKROFP41A7TUKDHPQ3CX", "dateTime": 1516045213754}, {"current_trial": 216, "trialdata": {"rt": -1, "trial_type": "single-stim", "word": "mildew", "stimulus": "<p id=\"stim\">MILDEW</p>", "conditions": [24, 800, "v", 12000], "internal_node_id": "0.0-162.0", "trial": 5, "time_elapsed": 2280837, "serialpos": 19, "key_press": -1, "wordID": 892, "type": "PRES_VIS", "trial_index": 216}, "uniqueid": "MTK1613:39O5D9O87UZKROFP41A7TUKDHPQ3CX", "dateTime": 1516045215752}, {"current_trial": 217, "trialdata": {"rt": -1, "trial_type": "single-stim", "word": "fungus", "stimulus": "<p id=\"stim\">FUNGUS</p>", "conditions": [24, 800, "v", 12000], "internal_node_id": "0.0-163.0", "trial": 5, "time_elapsed": 2282673, "serialpos": 20, "key_press": -1, "wordID": 613, "type": "PRES_VIS", "trial_index": 217}, "uniqueid": "MTK1613:39O5D9O87UZKROFP41A7TUKDHPQ3CX", "dateTime": 1516045217588}, {"current_trial": 218, "trialdata": {"rt": -1, "trial_type": "single-stim", "word": "pudding", "stimulus": "<p id=\"stim\">PUDDING</p>", "conditions": [24, 800, "v", 12000], "internal_node_id": "0.0-164.0", "trial": 5, "time_elapsed": 2284479, "serialpos": 21, "key_press": -1, "wordID": 1138, "type": "PRES_VIS", "trial_index": 218}, "uniqueid": "MTK1613:39O5D9O87UZKROFP41A7TUKDHPQ3CX", "dateTime": 1516045219394}, {"current_trial": 219, "trialdata": {"rt": -1, "trial_type": "single-stim", "word": "lipstick", "stimulus": "<p id=\"stim\">LIPSTICK</p>", "conditions": [24, 800, "v", 12000], "internal_node_id": "0.0-165.0", "trial": 5, "time_elapsed": 2286346, "serialpos": 22, "key_press": -1, "wordID": 828, "type": "PRES_VIS", "trial_index": 219}, "uniqueid": "MTK1613:39O5D9O87UZKROFP41A7TUKDHPQ3CX", "dateTime": 1516045221262}, {"current_trial": 220, "trialdata": {"rt": -1, "trial_type": "single-stim", "word": "antler", "stimulus": "<p id=\"stim\">ANTLER</p>", "conditions": [24, 800, "v", 12000], "internal_node_id": "0.0-166.0", "trial": 5, "time_elapsed": 2288147, "serialpos": 23, "key_press": -1, "wordID": 28, "type": "PRES_VIS", "trial_index": 220}, "uniqueid": "MTK1613:39O5D9O87UZKROFP41A7TUKDHPQ3CX", "dateTime": 1516045223063}, {"current_trial": 221, "trialdata": {"rt": -1, "trial_type": "single-stim", "stimulus": "", "internal_node_id": "0.0-167.0-0.0", "time_elapsed": 2290527, "key_press": -1, "type": "PRE_RECALL_DELAY", "trial_index": 221}, "uniqueid": "MTK1613:39O5D9O87UZKROFP41A7TUKDHPQ3CX", "dateTime": 1516045225442}, {"current_trial": 222, "trialdata": {"rt": -1000, "trial_type": "single-audio", "stimulus": "/static/audio/400Hz.wav", "internal_node_id": "0.0-168.0", "time_elapsed": 2291029, "key_press": -1, "type": "PRE_RECALL_ALERT", "trial_index": 222}, "uniqueid": "MTK1613:39O5D9O87UZKROFP41A7TUKDHPQ3CX", "dateTime": 1516045225945}, {"current_trial": 223, "trialdata": {"rt": [1461, 5048, 7829, 10240, 16218, 18164, 26034, 28197], "recwords": ["dew", "mildew", "fungus", "liver", "princess", "gymnist", "flipper", "swamp"], "key_times": [483, 493, 1093, 1177, 1461, 1794, 1873, 2054, 2165, 2630, 2952, 3067, 5048, 5685, 6213, 6441, 6616, 6794, 6897, 7027, 7829, 8787, 9451, 9697, 9781, 9973, 10053, 10240, 11160, 14909, 15162, 15269, 15361, 15478, 15665, 15735, 15959, 16218, 16362, 16474, 16774, 16919, 17294, 17715, 17817, 17944, 18164, 19599, 24072, 24479, 24610, 24741, 24986, 25089, 25175, 26034, 26653, 26774, 27197, 27312, 27561, 27669, 28197], "trial_type": "free-recall", "conditions": [24, 800, "v", 12000], "internal_node_id": "0.0-169.0-0.0", "key_presses": [16, 68, 69, 87, 13, 16, 77, 73, 76, 68, 69, 87, 13, 16, 70, 85, 78, 71, 85, 83, 13, 16, 76, 73, 86, 69, 82, 13, 16, 80, 82, 73, 78, 67, 69, 83, 83, 13, 16, 71, 89, 77, 78, 73, 83, 84, 13, 16, 70, 76, 73, 80, 80, 69, 82, 13, 16, 83, 87, 65, 77, 80, 13], "trial": 5, "time_elapsed": 2351047, "type": "FREE_RECALL", "trial_index": 223}, "uniqueid": "MTK1613:39O5D9O87UZKROFP41A7TUKDHPQ3CX", "dateTime": 1516045285994}, {"current_trial": 224, "trialdata": {"rt": 379, "trial_type": "text", "internal_node_id": "0.0-170.0", "time_elapsed": 2353465, "key_press": 32, "type": "INSTRUCTIONS", "trial_index": 224}, "uniqueid": "MTK1613:39O5D9O87UZKROFP41A7TUKDHPQ3CX", "dateTime": 1516045288380}, {"current_trial": 225, "trialdata": {"rt": [2862, 5157, 10298], "trial_type": "math-distractor", "key_times": [2469, 2585, 2862, 4518, 4783, 5157, 8230, 8289, 9908, 10080, 10298, 11984], "responses": ["18", "24", "22"], "num2": [3, 8, 9, 3], "num3": [6, 6, 5, 8], "conditions": [12, 1600, "v", 12000], "internal_node_id": "0.0-171.0", "key_presses": [49, 56, 13, 50, 52, 13, 50, 51, 8, 50, 13, 49], "trial": 6, "time_elapsed": 2367496, "type": "DISTRACTOR", "trial_index": 225, "num1": [9, 8, 8, 2]}, "uniqueid": "MTK1613:39O5D9O87UZKROFP41A7TUKDHPQ3CX", "dateTime": 1516045302412}, {"current_trial": 226, "trialdata": {"rt": -1, "trial_type": "single-stim", "stimulus": "<p id=\"stim\">10</p>", "internal_node_id": "0.0-172.0-0.0", "time_elapsed": 2370502, "key_press": -1, "trial_index": 226}, "uniqueid": "MTK1613:39O5D9O87UZKROFP41A7TUKDHPQ3CX", "dateTime": 1516045305418}, {"current_trial": 227, "trialdata": {"rt": -1, "trial_type": "single-stim", "stimulus": "<p id=\"stim\">9</p>", "internal_node_id": "0.0-172.0-1.0", "time_elapsed": 2371507, "key_press": -1, "trial_index": 227}, "uniqueid": "MTK1613:39O5D9O87UZKROFP41A7TUKDHPQ3CX", "dateTime": 1516045306422}, {"current_trial": 228, "trialdata": {"rt": -1, "trial_type": "single-stim", "stimulus": "<p id=\"stim\">8</p>", "internal_node_id": "0.0-172.0-2.0", "time_elapsed": 2372511, "key_press": -1, "trial_index": 228}, "uniqueid": "MTK1613:39O5D9O87UZKROFP41A7TUKDHPQ3CX", "dateTime": 1516045307427}, {"current_trial": 229, "trialdata": {"rt": -1, "trial_type": "single-stim", "stimulus": "<p id=\"stim\">7</p>", "internal_node_id": "0.0-172.0-3.0", "time_elapsed": 2373515, "key_press": -1, "trial_index": 229}, "uniqueid": "MTK1613:39O5D9O87UZKROFP41A7TUKDHPQ3CX", "dateTime": 1516045308430}, {"current_trial": 230, "trialdata": {"rt": -1, "trial_type": "single-stim", "stimulus": "<p id=\"stim\">6</p>", "internal_node_id": "0.0-172.0-4.0", "time_elapsed": 2374519, "key_press": -1, "trial_index": 230}, "uniqueid": "MTK1613:39O5D9O87UZKROFP41A7TUKDHPQ3CX", "dateTime": 1516045309434}, {"current_trial": 231, "trialdata": {"rt": -1, "trial_type": "single-stim", "stimulus": "<p id=\"stim\">5</p>", "internal_node_id": "0.0-172.0-5.0", "time_elapsed": 2375523, "key_press": -1, "trial_index": 231}, "uniqueid": "MTK1613:39O5D9O87UZKROFP41A7TUKDHPQ3CX", "dateTime": 1516045310438}, {"current_trial": 232, "trialdata": {"rt": -1, "trial_type": "single-stim", "stimulus": "<p id=\"stim\">4</p>", "internal_node_id": "0.0-172.0-6.0", "time_elapsed": 2376527, "key_press": -1, "trial_index": 232}, "uniqueid": "MTK1613:39O5D9O87UZKROFP41A7TUKDHPQ3CX", "dateTime": 1516045311442}, {"current_trial": 233, "trialdata": {"rt": -1, "trial_type": "single-stim", "stimulus": "<p id=\"stim\">3</p>", "internal_node_id": "0.0-172.0-7.0", "time_elapsed": 2377531, "key_press": -1, "trial_index": 233}, "uniqueid": "MTK1613:39O5D9O87UZKROFP41A7TUKDHPQ3CX", "dateTime": 1516045312447}, {"current_trial": 234, "trialdata": {"rt": -1, "trial_type": "single-stim", "stimulus": "<p id=\"stim\">2</p>", "internal_node_id": "0.0-172.0-8.0", "time_elapsed": 2378536, "key_press": -1, "trial_index": 234}, "uniqueid": "MTK1613:39O5D9O87UZKROFP41A7TUKDHPQ3CX", "dateTime": 1516045313451}, {"current_trial": 235, "trialdata": {"rt": -1, "trial_type": "single-stim", "stimulus": "<p id=\"stim\">1</p>", "internal_node_id": "0.0-172.0-9.0", "time_elapsed": 2379540, "key_press": -1, "trial_index": 235}, "uniqueid": "MTK1613:39O5D9O87UZKROFP41A7TUKDHPQ3CX", "dateTime": 1516045314456}, {"current_trial": 236, "trialdata": {"rt": -1, "trial_type": "single-stim", "stimulus": "<p id=\"stim\">+</p>", "internal_node_id": "0.0-173.0-0.0", "time_elapsed": 2381049, "key_press": -1, "type": "FIXATION", "trial_index": 236}, "uniqueid": "MTK1613:39O5D9O87UZKROFP41A7TUKDHPQ3CX", "dateTime": 1516045315964}, {"current_trial": 237, "trialdata": {"rt": -1, "trial_type": "single-stim", "word": "flower", "stimulus": "<p id=\"stim\">FLOWER</p>", "conditions": [12, 1600, "v", 12000], "internal_node_id": "0.0-174.0", "trial": 6, "time_elapsed": 2382653, "serialpos": 0, "key_press": -1, "wordID": 583, "type": "PRES_VIS", "trial_index": 237}, "uniqueid": "MTK1613:39O5D9O87UZKROFP41A7TUKDHPQ3CX", "dateTime": 1516045317569}, {"current_trial": 238, "trialdata": {"rt": -1, "trial_type": "single-stim", "word": "turtle", "stimulus": "<p id=\"stim\">TURTLE</p>", "conditions": [12, 1600, "v", 12000], "internal_node_id": "0.0-175.0", "trial": 6, "time_elapsed": 2385217, "serialpos": 1, "key_press": -1, "wordID": 1521, "type": "PRES_VIS", "trial_index": 238}, "uniqueid": "MTK1613:39O5D9O87UZKROFP41A7TUKDHPQ3CX", "dateTime": 1516045320132}, {"current_trial": 239, "trialdata": {"rt": -1, "trial_type": "single-stim", "word": "preacher", "stimulus": "<p id=\"stim\">PREACHER</p>", "conditions": [12, 1600, "v", 12000], "internal_node_id": "0.0-176.0", "trial": 6, "time_elapsed": 2387915, "serialpos": 2, "key_press": -1, "wordID": 1118, "type": "PRES_VIS", "trial_index": 239}, "uniqueid": "MTK1613:39O5D9O87UZKROFP41A7TUKDHPQ3CX", "dateTime": 1516045322830}, {"current_trial": 240, "trialdata": {"rt": -1, "trial_type": "single-stim", "word": "robber", "stimulus": "<p id=\"stim\">ROBBER</p>", "conditions": [12, 1600, "v", 12000], "internal_node_id": "0.0-177.0", "trial": 6, "time_elapsed": 2390611, "serialpos": 3, "key_press": -1, "wordID": 1196, "type": "PRES_VIS", "trial_index": 240}, "uniqueid": "MTK1613:39O5D9O87UZKROFP41A7TUKDHPQ3CX", "dateTime": 1516045325532}, {"current_trial": 241, "trialdata": {"rt": -1, "trial_type": "single-stim", "word": "beaker", "stimulus": "<p id=\"stim\">BEAKER</p>", "conditions": [12, 1600, "v", 12000], "internal_node_id": "0.0-178.0", "trial": 6, "time_elapsed": 2393140, "serialpos": 4, "key_press": -1, "wordID": 103, "type": "PRES_VIS", "trial_index": 241}, "uniqueid": "MTK1613:39O5D9O87UZKROFP41A7TUKDHPQ3CX", "dateTime": 1516045328056}, {"current_trial": 242, "trialdata": {"rt": -1, "trial_type": "single-stim", "word": "coffee", "stimulus": "<p id=\"stim\">COFFEE</p>", "conditions": [12, 1600, "v", 12000], "internal_node_id": "0.0-179.0", "trial": 6, "time_elapsed": 2395941, "serialpos": 5, "key_press": -1, "wordID": 340, "type": "PRES_VIS", "trial_index": 242}, "uniqueid": "MTK1613:39O5D9O87UZKROFP41A7TUKDHPQ3CX", "dateTime": 1516045330857}, {"current_trial": 243, "trialdata": {"rt": -1, "trial_type": "single-stim", "word": "canal", "stimulus": "<p id=\"stim\">CANAL</p>", "conditions": [12, 1600, "v", 12000], "internal_node_id": "0.0-180.0", "trial": 6, "time_elapsed": 2398721, "serialpos": 6, "key_press": -1, "wordID": 225, "type": "PRES_VIS", "trial_index": 243}, "uniqueid": "MTK1613:39O5D9O87UZKROFP41A7TUKDHPQ3CX", "dateTime": 1516045333636}, {"current_trial": 244, "trialdata": {"rt": -1, "trial_type": "single-stim", "word": "radish", "stimulus": "<p id=\"stim\">RADISH</p>", "conditions": [12, 1600, "v", 12000], "internal_node_id": "0.0-181.0", "trial": 6, "time_elapsed": 2401175, "serialpos": 7, "key_press": -1, "wordID": 1157, "type": "PRES_VIS", "trial_index": 244}, "uniqueid": "MTK1613:39O5D9O87UZKROFP41A7TUKDHPQ3CX", "dateTime": 1516045336090}, {"current_trial": 245, "trialdata": {"rt": -1, "trial_type": "single-stim", "word": "backbone", "stimulus": "<p id=\"stim\">BACKBONE</p>", "conditions": [12, 1600, "v", 12000], "internal_node_id": "0.0-182.0", "trial": 6, "time_elapsed": 2403662, "serialpos": 8, "key_press": -1, "wordID": 65, "type": "PRES_VIS", "trial_index": 245}, "uniqueid": "MTK1613:39O5D9O87UZKROFP41A7TUKDHPQ3CX", "dateTime": 1516045338577}, {"current_trial": 246, "trialdata": {"rt": -1, "trial_type": "single-stim", "word": "cashier", "stimulus": "<p id=\"stim\">CASHIER</p>", "conditions": [12, 1600, "v", 12000], "internal_node_id": "0.0-183.0", "trial": 6, "time_elapsed": 2406069, "serialpos": 9, "key_press": -1, "wordID": 253, "type": "PRES_VIS", "trial_index": 246}, "uniqueid": "MTK1613:39O5D9O87UZKROFP41A7TUKDHPQ3CX", "dateTime": 1516045340985}, {"current_trial": 247, "trialdata": {"rt": -1, "trial_type": "single-stim", "word": "bison", "stimulus": "<p id=\"stim\">BISON</p>", "conditions": [12, 1600, "v", 12000], "internal_node_id": "0.0-184.0", "trial": 6, "time_elapsed": 2408478, "serialpos": 10, "key_press": -1, "wordID": 130, "type": "PRES_VIS", "trial_index": 247}, "uniqueid": "MTK1613:39O5D9O87UZKROFP41A7TUKDHPQ3CX", "dateTime": 1516045343394}, {"current_trial": 248, "trialdata": {"rt": -1, "trial_type": "single-stim", "word": "cattle", "stimulus": "<p id=\"stim\">CATTLE</p>", "conditions": [12, 1600, "v", 12000], "internal_node_id": "0.0-185.0", "trial": 6, "time_elapsed": 2411141, "serialpos": 11, "key_press": -1, "wordID": 260, "type": "PRES_VIS", "trial_index": 248}, "uniqueid": "MTK1613:39O5D9O87UZKROFP41A7TUKDHPQ3CX", "dateTime": 1516045346056}, {"current_trial": 249, "trialdata": {"rt": -1, "trial_type": "single-stim", "stimulus": "", "internal_node_id": "0.0-186.0-0.0", "time_elapsed": 2413380, "key_press": -1, "type": "PRE_RECALL_DELAY", "trial_index": 249}, "uniqueid": "MTK1613:39O5D9O87UZKROFP41A7TUKDHPQ3CX", "dateTime": 1516045348296}, {"current_trial": 250, "trialdata": {"rt": -1000, "trial_type": "single-audio", "stimulus": "/static/audio/400Hz.wav", "internal_node_id": "0.0-187.0", "time_elapsed": 2413885, "key_press": -1, "type": "PRE_RECALL_ALERT", "trial_index": 250}, "uniqueid": "MTK1613:39O5D9O87UZKROFP41A7TUKDHPQ3CX", "dateTime": 1516045348800}, {"current_trial": 251, "trialdata": {"rt": [1175, 2548, 4334, 6880, 9816, 24804, 27081, 52986], "recwords": ["bison", "cattle", "coffee", "rancher", "cashier", "robber", "banker", "worker"], "key_times": [246, 429, 549, 694, 771, 869, 1175, 1365, 1495, 1727, 1840, 2035, 2167, 2226, 2548, 2983, 3214, 3414, 3493, 3668, 3822