{"assignmentId": "3ERET4BTVNGOPOGTDNSF8Q07LEQK90", "workerId": "MTK1416", "questiondata": {"origin": "United States", "strat-rehearsal": "76", "marital": "Single", "education": "Bachelor's degree", "ethnicity": "Not Hispanic", "color_depth": 24, "distracted": "No", "wrote-notes": "No", "strat-other": "", "screen_width": 1366, "avail_screen_width": 1366, "avail_screen_height": 728, "strat-image": "8", "language": "english", "gender": "Male", "age": "42", "gender_other": "", "race": ["White"], "strat-categorize": "86", "pixel_depth": 24, "strat-spatial": "0", "strat-story": "19", "race_other": "", "screen_height": 768}, "bonus": 0, "hitId": "30ZKOOGW2WDY1M6I7HVVAMJ81QOA1Q", "counterbalance": 1450, "useragent": "Mozilla/5.0 (Windows NT 6.1; Win64; x64) AppleWebKit/537.36 (KHTML, like Gecko) Chrome/63.0.3239.132 Safari/537.36", "eventdata": [{"eventtype": "initialized", "interval": 0, "value": null, "timestamp": 1515879125313}, {"eventtype": "window_resize", "interval": 0, "value": [1366, 722], "timestamp": 1515879125313}, {"eventtype": "window_resize", "interval": 639, "value": [1366, 678], "timestamp": 1515879125952}, {"eventtype": "focus", "interval": 1866, "value": "off", "timestamp": 1515879127818}, {"eventtype": "focus", "interval": 17267, "value": "on", "timestamp": 1515879145085}, {"eventtype": "focus", "interval": 27350, "value": "off", "timestamp": 1515879172435}, {"eventtype": "focus", "interval": 2919, "value": "on", "timestamp": 1515879175354}, {"eventtype": "focus", "interval": 1884, "value": "off", "timestamp": 1515879177238}, {"eventtype": "focus", "interval": 2051, "value": "on", "timestamp": 1515879179289}, {"eventtype": "focus", "interval": 117542, "value": "off", "timestamp": 1515879296831}, {"eventtype": "focus", "interval": 16089, "value": "on", "timestamp": 1515879312920}], "data": [{"current_trial": 0, "trialdata": {"rt": 25367, "trial_type": "text", "internal_node_id": "0.0-0.0", "time_elapsed": 25371, "key_press": 32, "type": "INSTRUCTIONS", "trial_index": 0}, "uniqueid": "MTK1416:3ERET4BTVNGOPOGTDNSF8Q07LEQK90", "dateTime": 1515879151327}, {"current_trial": 1, "trialdata": {"rt": 9242, "trial_type": "text", "internal_node_id": "0.0-1.0", "time_elapsed": 34619, "key_press": 32, "type": "INSTRUCTIONS", "trial_index": 1}, "uniqueid": "MTK1416:3ERET4BTVNGOPOGTDNSF8Q07LEQK90", "dateTime": 1515879160573}, {"current_trial": 2, "trialdata": {"rt": [21253], "trial_type": "audio-test", "responses": ["ocean"], "internal_node_id": "0.0-2.0", "time_elapsed": 55906, "type": "AUDIO_TEST", "trial_index": 2}, "uniqueid": "MTK1416:3ERET4BTVNGOPOGTDNSF8Q07LEQK90", "dateTime": 1515879181861}, {"current_trial": 3, "trialdata": {"rt": [7437], "trial_type": "audio-test", "responses": ["crystal"], "internal_node_id": "0.0-3.0", "time_elapsed": 63350, "type": "AUDIO_TEST", "trial_index": 3}, "uniqueid": "MTK1416:3ERET4BTVNGOPOGTDNSF8Q07LEQK90", "dateTime": 1515879189304}, {"current_trial": 4, "trialdata": {"rt": [6137], "trial_type": "audio-test", "responses": ["spice"], "internal_node_id": "0.0-4.0", "time_elapsed": 69499, "type": "AUDIO_TEST", "trial_index": 4}, "uniqueid": "MTK1416:3ERET4BTVNGOPOGTDNSF8Q07LEQK90", "dateTime": 1515879195453}, {"current_trial": 5, "trialdata": {"rt": 28370, "trial_type": "survey-text", "responses": "{\"Q0\":\"9:00pm\",\"Q1\":\"7:00am\",\"Q2\":\"5\"}", "internal_node_id": "0.0-5.0", "time_elapsed": 98625, "type": "SLEEP_SURVEY", "trial_index": 5}, "uniqueid": "MTK1416:3ERET4BTVNGOPOGTDNSF8Q07LEQK90", "dateTime": 1515879224579}, {"current_trial": 6, "trialdata": {"rt": 89262, "trial_type": "text", "internal_node_id": "0.0-6.0", "time_elapsed": 188890, "key_press": 32, "type": "INSTRUCTIONS", "trial_index": 6}, "uniqueid": "MTK1416:3ERET4BTVNGOPOGTDNSF8Q07LEQK90", "dateTime": 1515879314844}, {"current_trial": 7, "trialdata": {"rt": 14729, "trial_type": "text", "internal_node_id": "0.0-7.0", "time_elapsed": 204121, "key_press": 32, "type": "INSTRUCTIONS", "trial_index": 7}, "uniqueid": "MTK1416:3ERET4BTVNGOPOGTDNSF8Q07LEQK90", "dateTime": 1515879330075}, {"current_trial": 8, "trialdata": {"rt": 9038, "trial_type": "text", "internal_node_id": "0.0-8.0", "time_elapsed": 213662, "key_press": 32, "type": "INSTRUCTIONS", "trial_index": 8}, "uniqueid": "MTK1416:3ERET4BTVNGOPOGTDNSF8Q07LEQK90", "dateTime": 1515879339616}, {"current_trial": 9, "trialdata": {"rt": [4541, 6842, 9701, 11682, 14368, 16339], "trial_type": "math-distractor", "key_times": [2629, 3800, 4541, 6197, 6470, 6842, 9076, 9490, 9701, 11502, 11682, 13728, 14137, 14368, 16008, 16158, 16339, 17853], "responses": ["17", "17", "16", "6", "15", "11"], "num2": [7, 6, 3, 2, 8, 3, 7], "num3": [7, 7, 8, 2, 5, 5, 9], "conditions": [18, 1200, "v", 18000], "internal_node_id": "0.0-9.0", "key_presses": [49, 55, 13, 49, 55, 13, 49, 54, 13, 54, 13, 49, 53, 13, 49, 49, 13, 49], "trial": 0, "time_elapsed": 232675, "type": "DISTRACTOR", "trial_index": 9, "num1": [3, 4, 5, 2, 2, 3, 3]}, "uniqueid": "MTK1416:3ERET4BTVNGOPOGTDNSF8Q07LEQK90", "dateTime": 1515879358630}, {"current_trial": 10, "trialdata": {"rt": -1, "trial_type": "single-stim", "stimulus": "<p id=\"stim\">10</p>", "internal_node_id": "0.0-10.0-0.0", "time_elapsed": 235680, "key_press": -1, "trial_index": 10}, "uniqueid": "MTK1416:3ERET4BTVNGOPOGTDNSF8Q07LEQK90", "dateTime": 1515879361635}, {"current_trial": 11, "trialdata": {"rt": -1, "trial_type": "single-stim", "stimulus": "<p id=\"stim\">9</p>", "internal_node_id": "0.0-10.0-1.0", "time_elapsed": 236683, "key_press": -1, "trial_index": 11}, "uniqueid": "MTK1416:3ERET4BTVNGOPOGTDNSF8Q07LEQK90", "dateTime": 1515879362637}, {"current_trial": 12, "trialdata": {"rt": -1, "trial_type": "single-stim", "stimulus": "<p id=\"stim\">8</p>", "internal_node_id": "0.0-10.0-2.0", "time_elapsed": 237685, "key_press": -1, "trial_index": 12}, "uniqueid": "MTK1416:3ERET4BTVNGOPOGTDNSF8Q07LEQK90", "dateTime": 1515879363639}, {"current_trial": 13, "trialdata": {"rt": -1, "trial_type": "single-stim", "stimulus": "<p id=\"stim\">7</p>", "internal_node_id": "0.0-10.0-3.0", "time_elapsed": 238687, "key_press": -1, "trial_index": 13}, "uniqueid": "MTK1416:3ERET4BTVNGOPOGTDNSF8Q07LEQK90", "dateTime": 1515879364641}, {"current_trial": 14, "trialdata": {"rt": -1, "trial_type": "single-stim", "stimulus": "<p id=\"stim\">6</p>", "internal_node_id": "0.0-10.0-4.0", "time_elapsed": 239689, "key_press": -1, "trial_index": 14}, "uniqueid": "MTK1416:3ERET4BTVNGOPOGTDNSF8Q07LEQK90", "dateTime": 1515879365643}, {"current_trial": 15, "trialdata": {"rt": -1, "trial_type": "single-stim", "stimulus": "<p id=\"stim\">5</p>", "internal_node_id": "0.0-10.0-5.0", "time_elapsed": 240691, "key_press": -1, "trial_index": 15}, "uniqueid": "MTK1416:3ERET4BTVNGOPOGTDNSF8Q07LEQK90", "dateTime": 1515879366645}, {"current_trial": 16, "trialdata": {"rt": -1, "trial_type": "single-stim", "stimulus": "<p id=\"stim\">4</p>", "internal_node_id": "0.0-10.0-6.0", "time_elapsed": 241693, "key_press": -1, "trial_index": 16}, "uniqueid": "MTK1416:3ERET4BTVNGOPOGTDNSF8Q07LEQK90", "dateTime": 1515879367647}, {"current_trial": 17, "trialdata": {"rt": -1, "trial_type": "single-stim", "stimulus": "<p id=\"stim\">3</p>", "internal_node_id": "0.0-10.0-7.0", "time_elapsed": 242695, "key_press": -1, "trial_index": 17}, "uniqueid": "MTK1416:3ERET4BTVNGOPOGTDNSF8Q07LEQK90", "dateTime": 1515879368649}, {"current_trial": 18, "trialdata": {"rt": -1, "trial_type": "single-stim", "stimulus": "<p id=\"stim\">2</p>", "internal_node_id": "0.0-10.0-8.0", "time_elapsed": 243697, "key_press": -1, "trial_index": 18}, "uniqueid": "MTK1416:3ERET4BTVNGOPOGTDNSF8Q07LEQK90", "dateTime": 1515879369651}, {"current_trial": 19, "trialdata": {"rt": -1, "trial_type": "single-stim", "stimulus": "<p id=\"stim\">1</p>", "internal_node_id": "0.0-10.0-9.0", "time_elapsed": 244699, "key_press": -1, "trial_index": 19}, "uniqueid": "MTK1416:3ERET4BTVNGOPOGTDNSF8Q07LEQK90", "dateTime": 1515879370653}, {"current_trial": 20, "trialdata": {"rt": -1, "trial_type": "single-stim", "stimulus": "<p id=\"stim\">+</p>", "internal_node_id": "0.0-11.0-0.0", "time_elapsed": 246201, "key_press": -1, "type": "FIXATION", "trial_index": 20}, "uniqueid": "MTK1416:3ERET4BTVNGOPOGTDNSF8Q07LEQK90", "dateTime": 1515879372155}, {"current_trial": 21, "trialdata": {"rt": -1, "trial_type": "single-stim", "word": "basement", "stimulus": "<p id=\"stim\">BASEMENT</p>", "conditions": [18, 1200, "v", 18000], "internal_node_id": "0.0-12.0", "trial": 0, "time_elapsed": 247404, "serialpos": 0, "key_press": -1, "wordID": 93, "type": "PRES_VIS", "trial_index": 21}, "uniqueid": "MTK1416:3ERET4BTVNGOPOGTDNSF8Q07LEQK90", "dateTime": 1515879373358}, {"current_trial": 22, "trialdata": {"rt": -1, "trial_type": "single-stim", "word": "lettuce", "stimulus": "<p id=\"stim\">LETTUCE</p>", "conditions": [18, 1200, "v", 18000], "internal_node_id": "0.0-13.0", "trial": 0, "time_elapsed": 249788, "serialpos": 1, "key_press": -1, "wordID": 813, "type": "PRES_VIS", "trial_index": 22}, "uniqueid": "MTK1416:3ERET4BTVNGOPOGTDNSF8Q07LEQK90", "dateTime": 1515879375742}, {"current_trial": 23, "trialdata": {"rt": -1, "trial_type": "single-stim", "word": "package", "stimulus": "<p id=\"stim\">PACKAGE</p>", "conditions": [18, 1200, "v", 18000], "internal_node_id": "0.0-14.0", "trial": 0, "time_elapsed": 251825, "serialpos": 2, "key_press": -1, "wordID": 996, "type": "PRES_VIS", "trial_index": 23}, "uniqueid": "MTK1416:3ERET4BTVNGOPOGTDNSF8Q07LEQK90", "dateTime": 1515879377779}, {"current_trial": 24, "trialdata": {"rt": -1, "trial_type": "single-stim", "word": "glove", "stimulus": "<p id=\"stim\">GLOVE</p>", "conditions": [18, 1200, "v", 18000], "internal_node_id": "0.0-15.0", "trial": 0, "time_elapsed": 253850, "serialpos": 3, "key_press": -1, "wordID": 641, "type": "PRES_VIS", "trial_index": 24}, "uniqueid": "MTK1416:3ERET4BTVNGOPOGTDNSF8Q07LEQK90", "dateTime": 1515879379804}, {"current_trial": 25, "trialdata": {"rt": -1, "trial_type": "single-stim", "word": "critic", "stimulus": "<p id=\"stim\">CRITIC</p>", "conditions": [18, 1200, "v", 18000], "internal_node_id": "0.0-16.0", "trial": 0, "time_elapsed": 256015, "serialpos": 4, "key_press": -1, "wordID": 409, "type": "PRES_VIS", "trial_index": 25}, "uniqueid": "MTK1416:3ERET4BTVNGOPOGTDNSF8Q07LEQK90", "dateTime": 1515879381969}, {"current_trial": 26, "trialdata": {"rt": -1, "trial_type": "single-stim", "word": "judge", "stimulus": "<p id=\"stim\">JUDGE</p>", "conditions": [18, 1200, "v", 18000], "internal_node_id": "0.0-17.0", "trial": 0, "time_elapsed": 258292, "serialpos": 5, "key_press": -1, "wordID": 760, "type": "PRES_VIS", "trial_index": 26}, "uniqueid": "MTK1416:3ERET4BTVNGOPOGTDNSF8Q07LEQK90", "dateTime": 1515879384246}, {"current_trial": 27, "trialdata": {"rt": -1, "trial_type": "single-stim", "word": "girl", "stimulus": "<p id=\"stim\">GIRL</p>", "conditions": [18, 1200, "v", 18000], "internal_node_id": "0.0-18.0", "trial": 0, "time_elapsed": 260628, "serialpos": 6, "key_press": -1, "wordID": 636, "type": "PRES_VIS", "trial_index": 27}, "uniqueid": "MTK1416:3ERET4BTVNGOPOGTDNSF8Q07LEQK90", "dateTime": 1515879386583}, {"current_trial": 28, "trialdata": {"rt": -1, "trial_type": "single-stim", "word": "pepper", "stimulus": "<p id=\"stim\">PEPPER</p>", "conditions": [18, 1200, "v", 18000], "internal_node_id": "0.0-19.0", "trial": 0, "time_elapsed": 262744, "serialpos": 7, "key_press": -1, "wordID": 1046, "type": "PRES_VIS", "trial_index": 28}, "uniqueid": "MTK1416:3ERET4BTVNGOPOGTDNSF8Q07LEQK90", "dateTime": 1515879388699}, {"current_trial": 29, "trialdata": {"rt": -1, "trial_type": "single-stim", "word": "japan", "stimulus": "<p id=\"stim\">JAPAN</p>", "conditions": [18, 1200, "v", 18000], "internal_node_id": "0.0-20.0", "trial": 0, "time_elapsed": 264890, "serialpos": 8, "key_press": -1, "wordID": 748, "type": "PRES_VIS", "trial_index": 29}, "uniqueid": "MTK1416:3ERET4BTVNGOPOGTDNSF8Q07LEQK90", "dateTime": 1515879390844}, {"current_trial": 30, "trialdata": {"rt": -1, "trial_type": "single-stim", "word": "virus", "stimulus": "<p id=\"stim\">VIRUS</p>", "conditions": [18, 1200, "v", 18000], "internal_node_id": "0.0-21.0", "trial": 0, "time_elapsed": 267103, "serialpos": 9, "key_press": -1, "wordID": 1571, "type": "PRES_VIS", "trial_index": 30}, "uniqueid": "MTK1416:3ERET4BTVNGOPOGTDNSF8Q07LEQK90", "dateTime": 1515879393057}, {"current_trial": 31, "trialdata": {"rt": -1, "trial_type": "single-stim", "word": "asia", "stimulus": "<p id=\"stim\">ASIA</p>", "conditions": [18, 1200, "v", 18000], "internal_node_id": "0.0-22.0", "trial": 0, "time_elapsed": 269259, "serialpos": 10, "key_press": -1, "wordID": 45, "type": "PRES_VIS", "trial_index": 31}, "uniqueid": "MTK1416:3ERET4BTVNGOPOGTDNSF8Q07LEQK90", "dateTime": 1515879395213}, {"current_trial": 32, "trialdata": {"rt": -1, "trial_type": "single-stim", "word": "panther", "stimulus": "<p id=\"stim\">PANTHER</p>", "conditions": [18, 1200, "v", 18000], "internal_node_id": "0.0-23.0", "trial": 0, "time_elapsed": 271566, "serialpos": 11, "key_press": -1, "wordID": 1008, "type": "PRES_VIS", "trial_index": 32}, "uniqueid": "MTK1416:3ERET4BTVNGOPOGTDNSF8Q07LEQK90", "dateTime": 1515879397520}, {"current_trial": 33, "trialdata": {"rt": -1, "trial_type": "single-stim", "word": "truck", "stimulus": "<p id=\"stim\">TRUCK</p>", "conditions": [18, 1200, "v", 18000], "internal_node_id": "0.0-24.0", "trial": 0, "time_elapsed": 273766, "serialpos": 12, "key_press": -1, "wordID": 1511, "type": "PRES_VIS", "trial_index": 33}, "uniqueid": "MTK1416:3ERET4BTVNGOPOGTDNSF8Q07LEQK90", "dateTime": 1515879399720}, {"current_trial": 34, "trialdata": {"rt": -1, "trial_type": "single-stim", "word": "turnip", "stimulus": "<p id=\"stim\">TURNIP</p>", "conditions": [18, 1200, "v", 18000], "internal_node_id": "0.0-25.0", "trial": 0, "time_elapsed": 276087, "serialpos": 13, "key_press": -1, "wordID": 1520, "type": "PRES_VIS", "trial_index": 34}, "uniqueid": "MTK1416:3ERET4BTVNGOPOGTDNSF8Q07LEQK90", "dateTime": 1515879402041}, {"current_trial": 35, "trialdata": {"rt": -1, "trial_type": "single-stim", "word": "fireman", "stimulus": "<p id=\"stim\">FIREMAN</p>", "conditions": [18, 1200, "v", 18000], "internal_node_id": "0.0-26.0", "trial": 0, "time_elapsed": 278489, "serialpos": 14, "key_press": -1, "wordID": 568, "type": "PRES_VIS", "trial_index": 35}, "uniqueid": "MTK1416:3ERET4BTVNGOPOGTDNSF8Q07LEQK90", "dateTime": 1515879404443}, {"current_trial": 36, "trialdata": {"rt": -1, "trial_type": "single-stim", "word": "dust", "stimulus": "<p id=\"stim\">DUST</p>", "conditions": [18, 1200, "v", 18000], "internal_node_id": "0.0-27.0", "trial": 0, "time_elapsed": 280877, "serialpos": 15, "key_press": -1, "wordID": 507, "type": "PRES_VIS", "trial_index": 36}, "uniqueid": "MTK1416:3ERET4BTVNGOPOGTDNSF8Q07LEQK90", "dateTime": 1515879406832}, {"current_trial": 37, "trialdata": {"rt": -1, "trial_type": "single-stim", "word": "washer", "stimulus": "<p id=\"stim\">WASHER</p>", "conditions": [18, 1200, "v", 18000], "internal_node_id": "0.0-28.0", "trial": 0, "time_elapsed": 283260, "serialpos": 16, "key_press": -1, "wordID": 1591, "type": "PRES_VIS", "trial_index": 37}, "uniqueid": "MTK1416:3ERET4BTVNGOPOGTDNSF8Q07LEQK90", "dateTime": 1515879409214}, {"current_trial": 38, "trialdata": {"rt": -1, "trial_type": "single-stim", "word": "gymnast", "stimulus": "<p id=\"stim\">GYMNAST</p>", "conditions": [18, 1200, "v", 18000], "internal_node_id": "0.0-29.0", "trial": 0, "time_elapsed": 285573, "serialpos": 17, "key_press": -1, "wordID": 674, "type": "PRES_VIS", "trial_index": 38}, "uniqueid": "MTK1416:3ERET4BTVNGOPOGTDNSF8Q07LEQK90", "dateTime": 1515879411528}, {"current_trial": 39, "trialdata": {"rt": -1, "trial_type": "single-stim", "stimulus": "", "internal_node_id": "0.0-30.0-0.0", "time_elapsed": 288040, "key_press": -1, "type": "PRE_RECALL_DELAY", "trial_index": 39}, "uniqueid": "MTK1416:3ERET4BTVNGOPOGTDNSF8Q07LEQK90", "dateTime": 1515879413995}, {"current_trial": 40, "trialdata": {"rt": -1000, "trial_type": "single-audio", "stimulus": "/static/audio/400Hz.wav", "internal_node_id": "0.0-31.0", "time_elapsed": 288555, "key_press": -1, "type": "PRE_RECALL_ALERT", "trial_index": 40}, "uniqueid": "MTK1416:3ERET4BTVNGOPOGTDNSF8Q07LEQK90", "dateTime": 1515879414509}, {"current_trial": 41, "trialdata": {"rt": [4650, 6925, 10964, 12742, 14736, 15925, 17261, 28624, 57201], "recwords": ["basement", "lettuce", "firefighter", "judge", "japan", "asia", "girl", "pavement", "school"], "key_times": [2795, 3014, 3155, 3409, 3569, 3680, 3803, 3944, 4650, 5509, 5628, 5883, 6033, 6124, 6539, 6764, 6925, 8064, 8195, 8369, 8913, 9074, 9590, 9894, 9984, 10155, 10328, 10499, 10730, 10814, 10964, 11649, 11845, 12025, 12311, 12561, 12742, 13524, 13525, 14096, 14301, 14461, 14736, 15066, 15319, 15439, 15610, 15925, 16359, 16550, 16693, 16866, 17261, 27344, 27461, 27733, 27936, 28097, 28167, 28302, 28412, 28624, 55210, 55464, 55584, 55869, 56302, 56595, 56768, 56961, 57201], "trial_type": "free-recall", "conditions": [18, 1200, "v", 18000], "internal_node_id": "0.0-32.0-0.0", "key_presses": [66, 65, 83, 69, 77, 69, 78, 84, 13, 76, 69, 84, 84, 85, 67, 69, 13, 70, 73, 71, 8, 82, 69, 70, 73, 71, 72, 84, 69, 82, 13, 74, 85, 68, 71, 69, 13, 74, 65, 80, 65, 78, 13, 65, 83, 73, 65, 13, 71, 73, 82, 76, 13, 80, 65, 86, 69, 77, 69, 78, 84, 13, 83, 67, 72, 72, 8, 79, 79, 76, 13], "trial": 0, "time_elapsed": 348561, "type": "FREE_RECALL", "trial_index": 41}, "uniqueid": "MTK1416:3ERET4BTVNGOPOGTDNSF8Q07LEQK90", "dateTime": 1515879474520}, {"current_trial": 42, "trialdata": {"rt": 2120, "trial_type": "text", "internal_node_id": "0.0-33.0", "time_elapsed": 352688, "key_press": 32, "type": "INSTRUCTIONS", "trial_index": 42}, "uniqueid": "MTK1416:3ERET4BTVNGOPOGTDNSF8Q07LEQK90", "dateTime": 1515879478643}, {"current_trial": 43, "trialdata": {"rt": [4807, 7353, 9491, 11635, 14386, 16981], "trial_type": "math-distractor", "key_times": [4293, 4502, 4807, 7229, 7353, 9006, 9321, 9491, 10848, 11424, 11635, 13665, 14221, 14386, 16336, 16860, 16981], "responses": ["15", "8", "15", "14", "17", "20"], "num2": [4, 3, 4, 2, 7, 4, 7], "num3": [9, 4, 5, 4, 4, 8, 7], "conditions": [18, 1200, "v", 18000], "internal_node_id": "0.0-34.0", "key_presses": [49, 53, 13, 56, 13, 49, 53, 13, 49, 52, 13, 49, 55, 13, 50, 48, 13], "trial": 1, "time_elapsed": 372696, "type": "DISTRACTOR", "trial_index": 43, "num1": [2, 1, 6, 8, 6, 8, 1]}, "uniqueid": "MTK1416:3ERET4BTVNGOPOGTDNSF8Q07LEQK90", "dateTime": 1515879498650}, {"current_trial": 44, "trialdata": {"rt": -1, "trial_type": "single-stim", "stimulus": "<p id=\"stim\">10</p>", "internal_node_id": "0.0-35.0-0.0", "time_elapsed": 375699, "key_press": -1, "trial_index": 44}, "uniqueid": "MTK1416:3ERET4BTVNGOPOGTDNSF8Q07LEQK90", "dateTime": 1515879501653}, {"current_trial": 45, "trialdata": {"rt": -1, "trial_type": "single-stim", "stimulus": "<p id=\"stim\">9</p>", "internal_node_id": "0.0-35.0-1.0", "time_elapsed": 376701, "key_press": -1, "trial_index": 45}, "uniqueid": "MTK1416:3ERET4BTVNGOPOGTDNSF8Q07LEQK90", "dateTime": 1515879502655}, {"current_trial": 46, "trialdata": {"rt": -1, "trial_type": "single-stim", "stimulus": "<p id=\"stim\">8</p>", "internal_node_id": "0.0-35.0-2.0", "time_elapsed": 377703, "key_press": -1, "trial_index": 46}, "uniqueid": "MTK1416:3ERET4BTVNGOPOGTDNSF8Q07LEQK90", "dateTime": 1515879503657}, {"current_trial": 47, "trialdata": {"rt": -1, "trial_type": "single-stim", "stimulus": "<p id=\"stim\">7</p>", "internal_node_id": "0.0-35.0-3.0", "time_elapsed": 378705, "key_press": -1, "trial_index": 47}, "uniqueid": "MTK1416:3ERET4BTVNGOPOGTDNSF8Q07LEQK90", "dateTime": 1515879504659}, {"current_trial": 48, "trialdata": {"rt": -1, "trial_type": "single-stim", "stimulus": "<p id=\"stim\">6</p>", "internal_node_id": "0.0-35.0-4.0", "time_elapsed": 379707, "key_press": -1, "trial_index": 48}, "uniqueid": "MTK1416:3ERET4BTVNGOPOGTDNSF8Q07LEQK90", "dateTime": 1515879505661}, {"current_trial": 49, "trialdata": {"rt": -1, "trial_type": "single-stim", "stimulus": "<p id=\"stim\">5</p>", "internal_node_id": "0.0-35.0-5.0", "time_elapsed": 380709, "key_press": -1, "trial_index": 49}, "uniqueid": "MTK1416:3ERET4BTVNGOPOGTDNSF8Q07LEQK90", "dateTime": 1515879506663}, {"current_trial": 50, "trialdata": {"rt": -1, "trial_type": "single-stim", "stimulus": "<p id=\"stim\">4</p>", "internal_node_id": "0.0-35.0-6.0", "time_elapsed": 381711, "key_press": -1, "trial_index": 50}, "uniqueid": "MTK1416:3ERET4BTVNGOPOGTDNSF8Q07LEQK90", "dateTime": 1515879507665}, {"current_trial": 51, "trialdata": {"rt": -1, "trial_type": "single-stim", "stimulus": "<p id=\"stim\">3</p>", "internal_node_id": "0.0-35.0-7.0", "time_elapsed": 382713, "key_press": -1, "trial_index": 51}, "uniqueid": "MTK1416:3ERET4BTVNGOPOGTDNSF8Q07LEQK90", "dateTime": 1515879508667}, {"current_trial": 52, "trialdata": {"rt": -1, "trial_type": "single-stim", "stimulus": "<p id=\"stim\">2</p>", "internal_node_id": "0.0-35.0-8.0", "time_elapsed": 383715, "key_press": -1, "trial_index": 52}, "uniqueid": "MTK1416:3ERET4BTVNGOPOGTDNSF8Q07LEQK90", "dateTime": 1515879509669}, {"current_trial": 53, "trialdata": {"rt": -1, "trial_type": "single-stim", "stimulus": "<p id=\"stim\">1</p>", "internal_node_id": "0.0-35.0-9.0", "time_elapsed": 384717, "key_press": -1, "trial_index": 53}, "uniqueid": "MTK1416:3ERET4BTVNGOPOGTDNSF8Q07LEQK90", "dateTime": 1515879510671}, {"current_trial": 54, "trialdata": {"rt": -1, "trial_type": "single-stim", "stimulus": "<p id=\"stim\">+</p>", "internal_node_id": "0.0-36.0-0.0", "time_elapsed": 386219, "key_press": -1, "type": "FIXATION", "trial_index": 54}, "uniqueid": "MTK1416:3ERET4BTVNGOPOGTDNSF8Q07LEQK90", "dateTime": 1515879512173}, {"current_trial": 55, "trialdata": {"rt": -1, "trial_type": "single-stim", "word": "fragrance", "stimulus": "<p id=\"stim\">FRAGRANCE</p>", "conditions": [18, 1200, "v", 18000], "internal_node_id": "0.0-37.0", "trial": 1, "time_elapsed": 387422, "serialpos": 0, "key_press": -1, "wordID": 598, "type": "PRES_VIS", "trial_index": 55}, "uniqueid": "MTK1416:3ERET4BTVNGOPOGTDNSF8Q07LEQK90", "dateTime": 1515879513381}, {"current_trial": 56, "trialdata": {"rt": -1, "trial_type": "single-stim", "word": "sphinx", "stimulus": "<p id=\"stim\">SPHINX</p>", "conditions": [18, 1200, "v", 18000], "internal_node_id": "0.0-38.0", "trial": 1, "time_elapsed": 389454, "serialpos": 1, "key_press": -1, "wordID": 1348, "type": "PRES_VIS", "trial_index": 56}, "uniqueid": "MTK1416:3ERET4BTVNGOPOGTDNSF8Q07LEQK90", "dateTime": 1515879515408}, {"current_trial": 57, "trialdata": {"rt": -1, "trial_type": "single-stim", "word": "rooster", "stimulus": "<p id=\"stim\">ROOSTER</p>", "conditions": [18, 1200, "v", 18000], "internal_node_id": "0.0-39.0", "trial": 1, "time_elapsed": 391619, "serialpos": 2, "key_press": -1, "wordID": 1208, "type": "PRES_VIS", "trial_index": 57}, "uniqueid": "MTK1416:3ERET4BTVNGOPOGTDNSF8Q07LEQK90", "dateTime": 1515879517573}, {"current_trial": 58, "trialdata": {"rt": -1, "trial_type": "single-stim", "word": "backbone", "stimulus": "<p id=\"stim\">BACKBONE</p>", "conditions": [18, 1200, "v", 18000], "internal_node_id": "0.0-40.0", "trial": 1, "time_elapsed": 393792, "serialpos": 3, "key_press": -1, "wordID": 65, "type": "PRES_VIS", "trial_index": 58}, "uniqueid": "MTK1416:3ERET4BTVNGOPOGTDNSF8Q07LEQK90", "dateTime": 1515879519746}, {"current_trial": 59, "trialdata": {"rt": -1, "trial_type": "single-stim", "word": "whiskers", "stimulus": "<p id=\"stim\">WHISKERS</p>", "conditions": [18, 1200, "v", 18000], "internal_node_id": "0.0-41.0", "trial": 1, "time_elapsed": 396124, "serialpos": 4, "key_press": -1, "wordID": 1604, "type": "PRES_VIS", "trial_index": 59}, "uniqueid": "MTK1416:3ERET4BTVNGOPOGTDNSF8Q07LEQK90", "dateTime": 1515879522079}, {"current_trial": 60, "trialdata": {"rt": -1, "trial_type": "single-stim", "word": "scalpel", "stimulus": "<p id=\"stim\">SCALPEL</p>", "conditions": [18, 1200, "v", 18000], "internal_node_id": "0.0-42.0", "trial": 1, "time_elapsed": 398482, "serialpos": 5, "key_press": -1, "wordID": 1242, "type": "PRES_VIS", "trial_index": 60}, "uniqueid": "MTK1416:3ERET4BTVNGOPOGTDNSF8Q07LEQK90", "dateTime": 1515879524437}, {"current_trial": 61, "trialdata": {"rt": -1, "trial_type": "single-stim", "word": "seal", "stimulus": "<p id=\"stim\">SEAL</p>", "conditions": [18, 1200, "v", 18000], "internal_node_id": "0.0-43.0", "trial": 1, "time_elapsed": 400732, "serialpos": 6, "key_press": -1, "wordID": 1261, "type": "PRES_VIS", "trial_index": 61}, "uniqueid": "MTK1416:3ERET4BTVNGOPOGTDNSF8Q07LEQK90", "dateTime": 1515879526687}, {"current_trial": 62, "trialdata": {"rt": -1, "trial_type": "single-stim", "word": "lace", "stimulus": "<p id=\"stim\">LACE</p>", "conditions": [18, 1200, "v", 18000], "internal_node_id": "0.0-44.0", "trial": 1, "time_elapsed": 403044, "serialpos": 7, "key_press": -1, "wordID": 791, "type": "PRES_VIS", "trial_index": 62}, "uniqueid": "MTK1416:3ERET4BTVNGOPOGTDNSF8Q07LEQK90", "dateTime": 1515879528998}, {"current_trial": 63, "trialdata": {"rt": -1, "trial_type": "single-stim", "word": "cocoon", "stimulus": "<p id=\"stim\">COCOON</p>", "conditions": [18, 1200, "v", 18000], "internal_node_id": "0.0-45.0", "trial": 1, "time_elapsed": 405240, "serialpos": 8, "key_press": -1, "wordID": 338, "type": "PRES_VIS", "trial_index": 63}, "uniqueid": "MTK1416:3ERET4BTVNGOPOGTDNSF8Q07LEQK90", "dateTime": 1515879531194}, {"current_trial": 64, "trialdata": {"rt": -1, "trial_type": "single-stim", "word": "razor", "stimulus": "<p id=\"stim\">RAZOR</p>", "conditions": [18, 1200, "v", 18000], "internal_node_id": "0.0-46.0", "trial": 1, "time_elapsed": 407257, "serialpos": 9, "key_press": -1, "wordID": 1170, "type": "PRES_VIS", "trial_index": 64}, "uniqueid": "MTK1416:3ERET4BTVNGOPOGTDNSF8Q07LEQK90", "dateTime": 1515879533211}, {"current_trial": 65, "trialdata": {"rt": -1, "trial_type": "single-stim", "word": "breast", "stimulus": "<p id=\"stim\">BREAST</p>", "conditions": [18, 1200, "v", 18000], "internal_node_id": "0.0-47.0", "trial": 1, "time_elapsed": 409472, "serialpos": 10, "key_press": -1, "wordID": 170, "type": "PRES_VIS", "trial_index": 65}, "uniqueid": "MTK1416:3ERET4BTVNGOPOGTDNSF8Q07LEQK90", "dateTime": 1515879535426}, {"current_trial": 66, "trialdata": {"rt": -1, "trial_type": "single-stim", "word": "money", "stimulus": "<p id=\"stim\">MONEY</p>", "conditions": [18, 1200, "v", 18000], "internal_node_id": "0.0-48.0", "trial": 1, "time_elapsed": 411704, "serialpos": 11, "key_press": -1, "wordID": 907, "type": "PRES_VIS", "trial_index": 66}, "uniqueid": "MTK1416:3ERET4BTVNGOPOGTDNSF8Q07LEQK90", "dateTime": 1515879537658}, {"current_trial": 67, "trialdata": {"rt": -1, "trial_type": "single-stim", "word": "record", "stimulus": "<p id=\"stim\">RECORD</p>", "conditions": [18, 1200, "v", 18000], "internal_node_id": "0.0-49.0", "trial": 1, "time_elapsed": 413831, "serialpos": 12, "key_press": -1, "wordID": 1175, "type": "PRES_VIS", "trial_index": 67}, "uniqueid": "MTK1416:3ERET4BTVNGOPOGTDNSF8Q07LEQK90", "dateTime": 1515879539785}, {"current_trial": 68, "trialdata": {"rt": -1, "trial_type": "single-stim", "word": "captive", "stimulus": "<p id=\"stim\">CAPTIVE</p>", "conditions": [18, 1200, "v", 18000], "internal_node_id": "0.0-50.0", "trial": 1, "time_elapsed": 415903, "serialpos": 13, "key_press": -1, "wordID": 239, "type": "PRES_VIS", "trial_index": 68}, "uniqueid": "MTK1416:3ERET4BTVNGOPOGTDNSF8Q07LEQK90", "dateTime": 1515879541857}, {"current_trial": 69, "trialdata": {"rt": -1, "trial_type": "single-stim", "word": "whistle", "stimulus": "<p id=\"stim\">WHISTLE</p>", "conditions": [18, 1200, "v", 18000], "internal_node_id": "0.0-51.0", "trial": 1, "time_elapsed": 418244, "serialpos": 14, "key_press": -1, "wordID": 1605, "type": "PRES_VIS", "trial_index": 69}, "uniqueid": "MTK1416:3ERET4BTVNGOPOGTDNSF8Q07LEQK90", "dateTime": 1515879544198}, {"current_trial": 70, "trialdata": {"rt": -1, "trial_type": "single-stim", "word": "lake", "stimulus": "<p id=\"stim\">LAKE</p>", "conditions": [18, 1200, "v", 18000], "internal_node_id": "0.0-52.0", "trial": 1, "time_elapsed": 420600, "serialpos": 15, "key_press": -1, "wordID": 795, "type": "PRES_VIS", "trial_index": 70}, "uniqueid": "MTK1416:3ERET4BTVNGOPOGTDNSF8Q07LEQK90", "dateTime": 1515879546554}, {"current_trial": 71, "trialdata": {"rt": -1, "trial_type": "single-stim", "word": "bacon", "stimulus": "<p id=\"stim\">BACON</p>", "conditions": [18, 1200, "v", 18000], "internal_node_id": "0.0-53.0", "trial": 1, "time_elapsed": 422815, "serialpos": 16, "key_press": -1, "wordID": 66, "type": "PRES_VIS", "trial_index": 71}, "uniqueid": "MTK1416:3ERET4BTVNGOPOGTDNSF8Q07LEQK90", "dateTime": 1515879548769}, {"current_trial": 72, "trialdata": {"rt": -1, "trial_type": "single-stim", "word": "mop", "stimulus": "<p id=\"stim\">MOP</p>", "conditions": [18, 1200, "v", 18000], "internal_node_id": "0.0-54.0", "trial": 1, "time_elapsed": 425175, "serialpos": 17, "key_press": -1, "wordID": 915, "type": "PRES_VIS", "trial_index": 72}, "uniqueid": "MTK1416:3ERET4BTVNGOPOGTDNSF8Q07LEQK90", "dateTime": 1515879551129}, {"current_trial": 73, "trialdata": {"rt": -1, "trial_type": "single-stim", "stimulus": "", "internal_node_id": "0.0-55.0-0.0", "time_elapsed": 427475, "key_press": -1, "type": "PRE_RECALL_DELAY", "trial_index": 73}, "uniqueid": "MTK1416:3ERET4BTVNGOPOGTDNSF8Q07LEQK90", "dateTime": 1515879553429}, {"current_trial": 74, "trialdata": {"rt": -1000, "trial_type": "single-audio", "stimulus": "/static/audio/400Hz.wav", "internal_node_id": "0.0-56.0", "time_elapsed": 427984, "key_press": -1, "type": "PRE_RECALL_ALERT", "trial_index": 74}, "uniqueid": "MTK1416:3ERET4BTVNGOPOGTDNSF8Q07LEQK90", "dateTime": 1515879553938}, {"current_trial": 75, "trialdata": {"rt": [1253, 2751, 3981, 6617, 11821, 25687], "recwords": ["lake", "bacon", "mop", "fragrance", "sphinx", "mop"], "key_times": [565, 717, 918, 1009, 1253, 1534, 1748, 1958, 2254, 2384, 2751, 3083, 3266, 3670, 3981, 4266, 4476, 4629, 4960, 5830, 5980, 6135, 6295, 6516, 6617, 7062, 7226, 8276, 8840, 9031, 10506, 10699, 10899, 11101, 11405, 11821, 24938, 25108, 25373, 25687], "trial_type": "free-recall", "conditions": [18, 1200, "v", 18000], "internal_node_id": "0.0-57.0-0.0", "key_presses": [76, 65, 75, 69, 13, 66, 65, 67, 79, 78, 13, 77, 79, 80, 13, 70, 82, 65, 71, 82, 65, 78, 67, 69, 13, 83, 80, 72, 8, 8, 80, 72, 73, 78, 88, 13, 77, 79, 80, 13], "trial": 1, "time_elapsed": 487989, "type": "FREE_RECALL", "trial_index": 75}, "uniqueid": "MTK1416:3ERET4BTVNGOPOGTDNSF8Q07LEQK90", "dateTime": 1515879613948}, {"current_trial": 76, "trialdata": {"rt": 2645, "trial_type": "text", "internal_node_id": "0.0-58.0", "time_elapsed": 492641, "key_press": 32, "type": "INSTRUCTIONS", "trial_index": 76}, "uniqueid": "MTK1416:3ERET4BTVNGOPOGTDNSF8Q07LEQK90", "dateTime": 1515879618596}, {"current_trial": 77, "trialdata": {"rt": [2331, 5637, 8284, 10564, 13385, 15972, 19207, 21786], "trial_type": "math-distractor", "key_times": [1614, 1995, 2331, 5220, 5523, 5637, 8173, 8284, 9977, 10431, 10564, 12879, 13134, 13385, 15618, 15801, 15972, 18518, 19073, 19207, 21209, 21632, 21786], "responses": ["15", "14", "9", "15", "13", "11", "19", "17"], "num2": [4, 7, 5, 5, 3, 3, 3, 9, 9], "num3": [5, 5, 2, 5, 5, 6, 8, 6, 2], "conditions": [24, 800, "v", 24000], "internal_node_id": "0.0-59.0", "key_presses": [49, 53, 13, 49, 52, 13, 57, 13, 49, 53, 13, 49, 51, 13, 49, 49, 13, 49, 57, 13, 49, 55, 13], "trial": 2, "time_elapsed": 517650, "type": "DISTRACTOR", "trial_index": 77, "num1": [6, 2, 2, 6, 5, 2, 8, 2, 6]}, "uniqueid": "MTK1416:3ERET4BTVNGOPOGTDNSF8Q07LEQK90", "dateTime": 1515879643604}, {"current_trial": 78, "trialdata": {"rt": -1, "trial_type": "single-stim", "stimulus": "<p id=\"stim\">10</p>", "internal_node_id": "0.0-60.0-0.0", "time_elapsed": 520652, "key_press": -1, "trial_index": 78}, "uniqueid": "MTK1416:3ERET4BTVNGOPOGTDNSF8Q07LEQK90", "dateTime": 1515879646607}, {"current_trial": 79, "trialdata": {"rt": -1, "trial_type": "single-stim", "stimulus": "<p id=\"stim\">9</p>", "internal_node_id": "0.0-60.0-1.0", "time_elapsed": 521654, "key_press": -1, "trial_index": 79}, "uniqueid": "MTK1416:3ERET4BTVNGOPOGTDNSF8Q07LEQK90", "dateTime": 1515879647609}, {"current_trial": 80, "trialdata": {"rt": -1, "trial_type": "single-stim", "stimulus": "<p id=\"stim\">8</p>", "internal_node_id": "0.0-60.0-2.0", "time_elapsed": 522656, "key_press": -1, "trial_index": 80}, "uniqueid": "MTK1416:3ERET4BTVNGOPOGTDNSF8Q07LEQK90", "dateTime": 1515879648611}, {"current_trial": 81, "trialdata": {"rt": -1, "trial_type": "single-stim", "stimulus": "<p id=\"stim\">7</p>", "internal_node_id": "0.0-60.0-3.0", "time_elapsed": 523661, "key_press": -1, "trial_index": 81}, "uniqueid": "MTK1416:3ERET4BTVNGOPOGTDNSF8Q07LEQK90", "dateTime": 1515879649616}, {"current_trial": 82, "trialdata": {"rt": -1, "trial_type": "single-stim", "stimulus": "<p id=\"stim\">6</p>", "internal_node_id": "0.0-60.0-4.0", "time_elapsed": 524663, "key_press": -1, "trial_index": 82}, "uniqueid": "MTK1416:3ERET4BTVNGOPOGTDNSF8Q07LEQK90", "dateTime": 1515879650618}, {"current_trial": 83, "trialdata": {"rt": -1, "trial_type": "single-stim", "stimulus": "<p id=\"stim\">5</p>", "internal_node_id": "0.0-60.0-5.0", "time_elapsed": 525666, "key_press": -1, "trial_index": 83}, "uniqueid": "MTK1416:3ERET4BTVNGOPOGTDNSF8Q07LEQK90", "dateTime": 1515879651620}, {"current_trial": 84, "trialdata": {"rt": -1, "trial_type": "single-stim", "stimulus": "<p id=\"stim\">4</p>", "internal_node_id": "0.0-60.0-6.0", "time_elapsed": 526667, "key_press": -1, "trial_index": 84}, "uniqueid": "MTK1416:3ERET4BTVNGOPOGTDNSF8Q07LEQK90", "dateTime": 1515879652622}, {"current_trial": 85, "trialdata": {"rt": -1, "trial_type": "single-stim", "stimulus": "<p id=\"stim\">3</p>", "internal_node_id": "0.0-60.0-7.0", "time_elapsed": 527670, "key_press": -1, "trial_index": 85}, "uniqueid": "MTK1416:3ERET4BTVNGOPOGTDNSF8Q07LEQK90", "dateTime": 1515879653624}, {"current_trial": 86, "trialdata": {"rt": -1, "trial_type": "single-stim", "stimulus": "<p id=\"stim\">2</p>", "internal_node_id": "0.0-60.0-8.0", "time_elapsed": 528672, "key_press": -1, "trial_index": 86}, "uniqueid": "MTK1416:3ERET4BTVNGOPOGTDNSF8Q07LEQK90", "dateTime": 1515879654626}, {"current_trial": 87, "trialdata": {"rt": -1, "trial_type": "single-stim", "stimulus": "<p id=\"stim\">1</p>", "internal_node_id": "0.0-60.0-9.0", "time_elapsed": 529674, "key_press": -1, "trial_index": 87}, "uniqueid": "MTK1416:3ERET4BTVNGOPOGTDNSF8Q07LEQK90", "dateTime": 1515879655628}, {"current_trial": 88, "trialdata": {"rt": -1, "trial_type": "single-stim", "stimulus": "<p id=\"stim\">+</p>", "internal_node_id": "0.0-61.0-0.0", "time_elapsed": 531176, "key_press": -1, "type": "FIXATION", "trial_index": 88}, "uniqueid": "MTK1416:3ERET4BTVNGOPOGTDNSF8Q07LEQK90", "dateTime": 1515879657130}, {"current_trial": 89, "trialdata": {"rt": -1, "trial_type": "single-stim", "word": "flute", "stimulus": "<p id=\"stim\">FLUTE</p>", "conditions": [24, 800, "v", 24000], "internal_node_id": "0.0-62.0", "trial": 2, "time_elapsed": 531978, "serialpos": 0, "key_press": -1, "wordID": 584, "type": "PRES_VIS", "trial_index": 89}, "uniqueid": "MTK1416:3ERET4BTVNGOPOGTDNSF8Q07LEQK90", "dateTime": 1515879657932}, {"current_trial": 90, "trialdata": {"rt": -1, "trial_type": "single-stim", "word": "tuba", "stimulus": "<p id=\"stim\">TUBA</p>", "conditions": [24, 800, "v", 24000], "internal_node_id": "0.0-63.0", "trial": 2, "time_elapsed": 533937, "serialpos": 1, "key_press": -1, "wordID": 1514, "type": "PRES_VIS", "trial_index": 90}, "uniqueid": "MTK1416:3ERET4BTVNGOPOGTDNSF8Q07LEQK90", "dateTime": 1515879659891}, {"current_trial": 91, "trialdata": {"rt": -1, "trial_type": "single-stim", "word": "handbag", "stimulus": "<p id=\"stim\">HANDBAG</p>", "conditions": [24, 800, "v", 24000], "internal_node_id": "0.0-64.0", "trial": 2, "time_elapsed": 535838, "serialpos": 2, "key_press": -1, "wordID": 683, "type": "PRES_VIS", "trial_index": 91}, "uniqueid": "MTK1416:3ERET4BTVNGOPOGTDNSF8Q07LEQK90", "dateTime": 1515879661792}, {"current_trial": 92, "trialdata": {"rt": -1, "trial_type": "single-stim", "word": "velvet", "stimulus": "<p id=\"stim\">VELVET</p>", "conditions": [24, 800, "v", 24000], "internal_node_id": "0.0-65.0", "trial": 2, "time_elapsed": 537752, "serialpos": 3, "key_press": -1, "wordID": 1554, "type": "PRES_VIS", "trial_index": 92}, "uniqueid": "MTK1416:3ERET4BTVNGOPOGTDNSF8Q07LEQK90", "dateTime": 1515879663706}, {"current_trial": 93, "trialdata": {"rt": -1, "trial_type": "single-stim", "word": "parent", "stimulus": "<p id=\"stim\">PARENT</p>", "conditions": [24, 800, "v", 24000], "internal_node_id": "0.0-66.0", "trial": 2, "time_elapsed": 539670, "serialpos": 4, "key_press": -1, "wordID": 1012, "type": "PRES_VIS", "trial_index": 93}, "uniqueid": "MTK1416:3ERET4BTVNGOPOGTDNSF8Q07LEQK90", "dateTime": 1515879665624}, {"current_trial": 94, "trialdata": {"rt": -1, "trial_type": "single-stim", "word": "silk", "stimulus": "<p id=\"stim\">SILK</p>", "conditions": [24, 800, "v", 24000], "internal_node_id": "0.0-67.0", "trial": 2, "time_elapsed": 541447, "serialpos": 5, "key_press": -1, "wordID": 1306, "type": "PRES_VIS", "trial_index": 94}, "uniqueid": "MTK1416:3ERET4BTVNGOPOGTDNSF8Q07LEQK90", "dateTime": 1515879667401}, {"current_trial": 95, "trialdata": {"rt": -1, "trial_type": "single-stim", "word": "island", "stimulus": "<p id=\"stim\">ISLAND</p>", "conditions": [24, 800, "v", 24000], "internal_node_id": "0.0-68.0", "trial": 2, "time_elapsed": 543124, "serialpos": 6, "key_press": -1, "wordID": 744, "type": "PRES_VIS", "trial_index": 95}, "uniqueid": "MTK1416:3ERET4BTVNGOPOGTDNSF8Q07LEQK90", "dateTime": 1515879669078}, {"current_trial": 96, "trialdata": {"rt": -1, "trial_type": "single-stim", "word": "window", "stimulus": "<p id=\"stim\">WINDOW</p>", "conditions": [24, 800, "v", 24000], "internal_node_id": "0.0-69.0", "trial": 2, "time_elapsed": 545089, "serialpos": 7, "key_press": -1, "wordID": 1610, "type": "PRES_VIS", "trial_index": 96}, "uniqueid": "MTK1416:3ERET4BTVNGOPOGTDNSF8Q07LEQK90", "dateTime": 1515879671043}, {"current_trial": 97, "trialdata": {"rt": -1, "trial_type": "single-stim", "word": "plaid", "stimulus": "<p id=\"stim\">PLAID</p>", "conditions": [24, 800, "v", 24000], "internal_node_id": "0.0-70.0", "trial": 2, "time_elapsed": 546995, "serialpos": 8, "key_press": -1, "wordID": 1079, "type": "PRES_VIS", "trial_index": 97}, "uniqueid": "MTK1416:3ERET4BTVNGOPOGTDNSF8Q07LEQK90", "dateTime": 1515879672949}, {"current_trial": 98, "trialdata": {"rt": -1, "trial_type": "single-stim", "word": "dashboard", "stimulus": "<p id=\"stim\">DASHBOARD</p>", "conditions": [24, 800, "v", 24000], "internal_node_id": "0.0-71.0", "trial": 2, "time_elapsed": 548667, "serialpos": 9, "key_press": -1, "wordID": 440, "type": "PRES_VIS", "trial_index": 98}, "uniqueid": "MTK1416:3ERET4BTVNGOPOGTDNSF8Q07LEQK90", "dateTime": 1515879674621}, {"current_trial": 99, "trialdata": {"rt": -1, "trial_type": "single-stim", "word": "pocket", "stimulus": "<p id=\"stim\">POCKET</p>", "conditions": [24, 800, "v", 24000], "internal_node_id": "0.0-72.0", "trial": 2, "time_elapsed": 550465, "serialpos": 10, "key_press": -1, "wordID": 1092, "type": "PRES_VIS", "trial_index": 99}, "uniqueid": "MTK1416:3ERET4BTVNGOPOGTDNSF8Q07LEQK90", "dateTime": 1515879676419}, {"current_trial": 100, "trialdata": {"rt": -1, "trial_type": "single-stim", "word": "suspect", "stimulus": "<p id=\"stim\">SUSPECT</p>", "conditions": [24, 800, "v", 24000], "internal_node_id": "0.0-73.0", "trial": 2, "time_elapsed": 552449, "serialpos": 11, "key_press": -1, "wordID": 1414, "type": "PRES_VIS", "trial_index": 100}, "uniqueid": "MTK1416:3ERET4BTVNGOPOGTDNSF8Q07LEQK90", "dateTime": 1515879678404}, {"current_trial": 101, "trialdata": {"rt": -1, "trial_type": "single-stim", "word": "mailbox", "stimulus": "<p id=\"stim\">MAILBOX</p>", "conditions": [24, 800, "v", 24000], "internal_node_id": "0.0-74.0", "trial": 2, "time_elapsed": 554235, "serialpos": 12, "key_press": -1, "wordID": 856, "type": "PRES_VIS", "trial_index": 101}, "uniqueid": "MTK1416:3ERET4BTVNGOPOGTDNSF8Q07LEQK90", "dateTime": 1515879680190}, {"current_trial": 102, "trialdata": {"rt": -1, "trial_type": "single-stim", "word": "bike", "stimulus": "<p id=\"stim\">BIKE</p>", "conditions": [24, 800, "v", 24000], "internal_node_id": "0.0-75.0", "trial": 2, "time_elapsed": 556105, "serialpos": 13, "key_press": -1, "wordID": 124, "type": "PRES_VIS", "trial_index": 102}, "uniqueid": "MTK1416:3ERET4BTVNGOPOGTDNSF8Q07LEQK90", "dateTime": 1515879682060}, {"current_trial": 103, "trialdata": {"rt": -1, "trial_type": "single-stim", "word": "crib", "stimulus": "<p id=\"stim\">CRIB</p>", "conditions": [24, 800, "v", 24000], "internal_node_id": "0.0-76.0", "trial": 2, "time_elapsed": 557905, "serialpos": 14, "key_press": -1, "wordID": 406, "type": "PRES_VIS", "trial_index": 103}, "uniqueid": "MTK1416:3ERET4BTVNGOPOGTDNSF8Q07LEQK90", "dateTime": 1515879683860}, {"current_trial": 104, "trialdata": {"rt": -1, "trial_type": "single-stim", "word": "mailman", "stimulus": "<p id=\"stim\">MAILMAN</p>", "conditions": [24, 800, "v", 24000], "internal_node_id": "0.0-77.0", "trial": 2, "time_elapsed": 559647, "serialpos": 15, "key_press": -1, "wordID": 857, "type": "PRES_VIS", "trial_index": 104}, "uniqueid": "MTK1416:3ERET4BTVNGOPOGTDNSF8Q07LEQK90", "dateTime": 1515879685602}, {"current_trial": 105, "trialdata": {"rt": -1, "trial_type": "single-stim", "word": "fungus", "stimulus": "<p id=\"stim\">FUNGUS</p>", "conditions": [24, 800, "v", 24000], "internal_node_id": "0.0-78.0", "trial": 2, "time_elapsed": 561446, "serialpos": 16, "key_press": -1, "wordID": 613, "type": "PRES_VIS", "trial_index": 105}, "uniqueid": "MTK1416:3ERET4BTVNGOPOGTDNSF8Q07LEQK90", "dateTime": 1515879687400}, {"current_trial": 106, "trialdata": {"rt": -1, "trial_type": "single-stim", "word": "mildew", "stimulus": "<p id=\"stim\">MILDEW</p>", "conditions": [24, 800, "v", 24000], "internal_node_id": "0.0-79.0", "trial": 2, "time_elapsed": 563444, "serialpos": 17, "key_press": -1, "wordID": 892, "type": "PRES_VIS", "trial_index": 106}, "uniqueid": "MTK1416:3ERET4BTVNGOPOGTDNSF8Q07LEQK90", "dateTime": 1515879689398}, {"current_trial": 107, "trialdata": {"rt": -1, "trial_type": "single-stim", "word": "sunset", "stimulus": "<p id=\"stim\">SUNSET</p>", "conditions": [24, 800, "v", 24000], "internal_node_id": "0.0-80.0", "trial": 2, "time_elapsed": 565090, "serialpos": 18, "key_press": -1, "wordID": 1407, "type": "PRES_VIS", "trial_index": 107}, "uniqueid": "MTK1416:3ERET4BTVNGOPOGTDNSF8Q07LEQK90", "dateTime": 1515879691044}, {"current_trial": 108, "trialdata": {"rt": -1, "trial_type": "single-stim", "word": "motel", "stimulus": "<p id=\"stim\">MOTEL</p>", "conditions": [24, 800, "v", 24000], "internal_node_id": "0.0-81.0", "trial": 2, "time_elapsed": 566974, "serialpos": 19, "key_press": -1, "wordID": 918, "type": "PRES_VIS", "trial_index": 108}, "uniqueid": "MTK1416:3ERET4BTVNGOPOGTDNSF8Q07LEQK90", "dateTime": 1515879692928}, {"current_trial": 109, "trialdata": {"rt": -1, "trial_type": "single-stim", "word": "cowboy", "stimulus": "<p id=\"stim\">COWBOY</p>", "conditions": [24, 800, "v", 24000], "internal_node_id": "0.0-82.0", "trial": 2, "time_elapsed": 568909, "serialpos": 20, "key_press": -1, "wordID": 394, "type": "PRES_VIS", "trial_index": 109}, "uniqueid": "MTK1416:3ERET4BTVNGOPOGTDNSF8Q07LEQK90", "dateTime": 1515879694863}, {"current_trial": 110, "trialdata": {"rt": -1, "trial_type": "single-stim", "word": "lady", "stimulus": "<p id=\"stim\">LADY</p>", "conditions": [24, 800, "v", 24000], "internal_node_id": "0.0-83.0", "trial": 2, "time_elapsed": 570783, "serialpos": 21, "key_press": -1, "wordID": 793, "type": "PRES_VIS", "trial_index": 110}, "uniqueid": "MTK1416:3ERET4BTVNGOPOGTDNSF8Q07LEQK90", "dateTime": 1515879696737}, {"current_trial": 111, "trialdata": {"rt": -1, "trial_type": "single-stim", "word": "crater", "stimulus": "<p id=\"stim\">CRATER</p>", "conditions": [24, 800, "v", 24000], "internal_node_id": "0.0-84.0", "trial": 2, "time_elapsed": 572427, "serialpos": 22, "key_press": -1, "wordID": 399, "type": "PRES_VIS", "trial_index": 111}, "uniqueid": "MTK1416:3ERET4BTVNGOPOGTDNSF8Q07LEQK90", "dateTime": 1515879698381}, {"current_trial": 112, "trialdata": {"rt": -1, "trial_type": "single-stim", "word": "patient", "stimulus": "<p id=\"stim\">PATIENT</p>", "conditions": [24, 800, "v", 24000], "internal_node_id": "0.0-85.0", "trial": 2, "time_elapsed": 574152, "serialpos": 23, "key_press": -1, "wordID": 1023, "type": "PRES_VIS", "trial_index": 112}, "uniqueid": "MTK1416:3ERET4BTVNGOPOGTDNSF8Q07LEQK90", "dateTime": 1515879700106}, {"current_trial": 113, "trialdata": {"rt": -1, "trial_type": "single-stim", "stimulus": "", "internal_node_id": "0.0-86.0-0.0", "time_elapsed": 576412, "key_press": -1, "type": "PRE_RECALL_DELAY", "trial_index": 113}, "uniqueid": "MTK1416:3ERET4BTVNGOPOGTDNSF8Q07LEQK90", "dateTime": 1515879702366}, {"current_trial": 114, "trialdata": {"rt": -1000, "trial_type": "single-audio", "stimulus": "/static/audio/400Hz.wav", "internal_node_id": "0.0-87.0", "time_elapsed": 576922, "key_press": -1, "type": "PRE_RECALL_ALERT", "trial_index": 114}, "uniqueid": "MTK1416:3ERET4BTVNGOPOGTDNSF8Q07LEQK90", "dateTime": 1515879702876}, {"current_trial": 115, "trialdata": {"rt": [1444, 2699, 4830, 6961, 8770, 10519, 12744, 15320, 17149], "recwords": ["flute", "tuba", "fabric", "velvet", "plaid", "silk", "mailman", "lady", "handbag"], "key_times": [485, 697, 858, 1101, 1282, 1444, 1899, 2031, 2243, 2484, 2699, 3639, 3809, 4011, 4265, 4405, 4670, 4830, 5184, 5466, 5640, 5931, 6426, 6613, 6961, 7629, 7849, 7990, 8194, 8465, 8770, 9458, 9621, 9821, 10255, 10519, 11426, 11528, 11662, 11843, 12167, 12288, 12439, 12744, 13128, 13278, 13543, 13663, 15320, 15835, 15915, 16059, 16190, 16492, 16675, 16965, 17149], "trial_type": "free-recall", "conditions": [24, 800, "v", 24000], "internal_node_id": "0.0-88.0-0.0", "key_presses": [70, 76, 85, 84, 69, 13, 84, 85, 66, 65, 13, 70, 65, 66, 82, 73, 67, 13, 86, 69, 76, 86, 69, 84, 13, 80, 76, 65, 73, 68, 13, 83, 73, 76, 75, 13, 77, 65, 73, 76, 77, 65, 78, 13, 76, 65, 68, 89, 13, 72, 65, 78, 68, 66, 65, 71, 13], "trial": 2, "time_elapsed": 636927, "type": "FREE_RECALL", "trial_index": 115}, "uniqueid": "MTK1416:3ERET4BTVNGOPOGTDNSF8Q07LEQK90", "dateTime": 1515879762886}, {"current_trial": 116, "trialdata": {"rt": 1407, "trial_type": "text", "internal_node_id": "0.0-89.0", "time_elapsed": 640340, "key_press": 32, "type": "INSTRUCTIONS", "trial_index": 116}, "uniqueid": "MTK1416:3ERET4BTVNGOPOGTDNSF8Q07LEQK90", "dateTime": 1515879766294}, {"current_trial": 117, "trialdata": {"rt": [2987, 6159, 8768, 10444], "trial_type": "math-distractor", "key_times": [2502, 2605, 2987, 5198, 5756, 6159, 8160, 8582, 8768, 9967, 10283, 10444], "responses": ["19", "10", "16", "15"], "num2": [5, 3, 1, 5, 9], "num3": [8, 4, 8, 5, 2], "conditions": [12, 800, "v", 12000], "internal_node_id": "0.0-90.0", "key_presses": [49, 57, 13, 49, 48, 13, 49, 54, 13, 49, 53, 13], "trial": 3, "time_elapsed": 654346, "type": "DISTRACTOR", "trial_index": 117, "num1": [6, 3, 7, 5, 7]}, "uniqueid": "MTK1416:3ERET4BTVNGOPOGTDNSF8Q07LEQK90", "dateTime": 1515879780300}, {"current_trial": 118, "trialdata": {"rt": -1, "trial_type": "single-stim", "stimulus": "<p id=\"stim\">10</p>", "internal_node_id": "0.0-91.0-0.0", "time_elapsed": 657348, "key_press": -1, "trial_index": 118}, "uniqueid": "MTK1416:3ERET4BTVNGOPOGTDNSF8Q07LEQK90", "dateTime": 1515879783302}, {"current_trial": 119, "trialdata": {"rt": -1, "trial_type": "single-stim", "stimulus": "<p id=\"stim\">9</p>", "internal_node_id": "0.0-91.0-1.0", "time_elapsed": 658350, "key_press": -1, "trial_index": 119}, "uniqueid": "MTK1416:3ERET4BTVNGOPOGTDNSF8Q07LEQK90", "dateTime": 1515879784304}, {"current_trial": 120, "trialdata": {"rt": -1, "trial_type": "single-stim", "stimulus": "<p id=\"stim\">8</p>", "internal_node_id": "0.0-91.0-2.0", "time_elapsed": 659352, "key_press": -1, "trial_index": 120}, "uniqueid": "MTK1416:3ERET4BTVNGOPOGTDNSF8Q07LEQK90", "dateTime": 1515879785306}, {"current_trial": 121, "trialdata": {"rt": -1, "trial_type": "single-stim", "stimulus": "<p id=\"stim\">7</p>", "internal_node_id": "0.0-91.0-3.0", "time_elapsed": 660354, "key_press": -1, "trial_index": 121}, "uniqueid": "MTK1416:3ERET4BTVNGOPOGTDNSF8Q07LEQK90", "dateTime": 1515879786308}, {"current_trial": 122, "trialdata": {"rt": -1, "trial_type": "single-stim", "stimulus": "<p id=\"stim\">6</p>", "internal_node_id": "0.0-91.0-4.0", "time_elapsed": 661356, "key_press": -1, "trial_index": 122}, "uniqueid": "MTK1416:3ERET4BTVNGOPOGTDNSF8Q07LEQK90", "dateTime": 1515879787310}, {"current_trial": 123, "trialdata": {"rt": -1, "trial_type": "single-stim", "stimulus": "<p id=\"stim\">5</p>", "internal_node_id": "0.0-91.0-5.0", "time_elapsed": 662358, "key_press": -1, "trial_index": 123}, "uniqueid": "MTK1416:3ERET4BTVNGOPOGTDNSF8Q07LEQK90", "dateTime": 1515879788313}, {"current_trial": 124, "trialdata": {"rt": -1, "trial_type": "single-stim", "stimulus": "<p id=\"stim\">4</p>", "internal_node_id": "0.0-91.0-6.0", "time_elapsed": 663360, "key_press": -1, "trial_index": 124}, "uniqueid": "MTK1416:3ERET4BTVNGOPOGTDNSF8Q07LEQK90", "dateTime": 1515879789315}, {"current_trial": 125, "trialdata": {"rt": -1, "trial_type": "single-stim", "stimulus": "<p id=\"stim\">3</p>", "internal_node_id": "0.0-91.0-7.0", "time_elapsed": 664362, "key_press": -1, "trial_index": 125}, "uniqueid": "MTK1416:3ERET4BTVNGOPOGTDNSF8Q07LEQK90", "dateTime": 1515879790317}, {"current_trial": 126, "trialdata": {"rt": -1, "trial_type": "single-stim", "stimulus": "<p id=\"stim\">2</p>", "internal_node_id": "0.0-91.0-8.0", "time_elapsed": 665364, "key_press": -1, "trial_index": 126}, "uniqueid": "MTK1416:3ERET4BTVNGOPOGTDNSF8Q07LEQK90", "dateTime": 1515879791319}, {"current_trial": 127, "trialdata": {"rt": -1, "trial_type": "single-stim", "stimulus": "<p id=\"stim\">1</p>", "internal_node_id": "0.0-91.0-9.0", "time_elapsed": 666366, "key_press": -1, "trial_index": 127}, "uniqueid": "MTK1416:3ERET4BTVNGOPOGTDNSF8Q07LEQK90", "dateTime": 1515879792321}, {"current_trial": 128, "trialdata": {"rt": -1, "trial_type": "single-stim", "stimulus": "<p id=\"stim\">+</p>", "internal_node_id": "0.0-92.0-0.0", "time_elapsed": 667869, "key_press": -1, "type": "FIXATION", "trial_index": 128}, "uniqueid": "MTK1416:3ERET4BTVNGOPOGTDNSF8Q07LEQK90", "dateTime": 1515879793823}, {"current_trial": 129, "trialdata": {"rt": -1, "trial_type": "single-stim", "word": "typist", "stimulus": "<p id=\"stim\">TYPIST</p>", "conditions": [12, 800, "v", 12000], "internal_node_id": "0.0-93.0", "trial": 3, "time_elapsed": 668671, "serialpos": 0, "key_press": -1, "wordID": 1531, "type": "PRES_VIS", "trial_index": 129}, "uniqueid": "MTK1416:3ERET4BTVNGOPOGTDNSF8Q07LEQK90", "dateTime": 1515879794625}, {"current_trial": 130, "trialdata": {"rt": -1, "trial_type": "single-stim", "word": "belly", "stimulus": "<p id=\"stim\">BELLY</p>", "conditions": [12, 800, "v", 12000], "internal_node_id": "0.0-94.0", "trial": 3, "time_elapsed": 670511, "serialpos": 1, "key_press": -1, "wordID": 118, "type": "PRES_VIS", "trial_index": 130}, "uniqueid": "MTK1416:3ERET4BTVNGOPOGTDNSF8Q07LEQK90", "dateTime": 1515879796465}, {"current_trial": 131, "trialdata": {"rt": -1, "trial_type": "single-stim", "word": "apple", "stimulus": "<p id=\"stim\">APPLE</p>", "conditions": [12, 800, "v", 12000], "internal_node_id": "0.0-95.0", "trial": 3, "time_elapsed": 672465, "serialpos": 2, "key_press": -1, "wordID": 32, "type": "PRES_VIS", "trial_index": 131}, "uniqueid": "MTK1416:3ERET4BTVNGOPOGTDNSF8Q07LEQK90", "dateTime": 1515879798419}, {"current_trial": 132, "trialdata": {"rt": -1, "trial_type": "single-stim", "word": "grape", "stimulus": "<p id=\"stim\">GRAPE</p>", "conditions": [12, 800, "v", 12000], "internal_node_id": "0.0-96.0", "trial": 3, "time_elapsed": 674199, "serialpos": 3, "key_press": -1, "wordID": 653, "type": "PRES_VIS", "trial_index": 132}, "uniqueid": "MTK1416:3ERET4BTVNGOPOGTDNSF8Q07LEQK90", "dateTime": 1515879800153}, {"current_trial": 133, "trialdata": {"rt": -1, "trial_type": "single-stim", "word": "soda", "stimulus": "<p id=\"stim\">SODA</p>", "conditions": [12, 800, "v", 12000], "internal_node_id": "0.0-97.0", "trial": 3, "time_elapsed": 675888, "serialpos": 4, "key_press": -1, "wordID": 1340, "type": "PRES_VIS", "trial_index": 133}, "uniqueid": "MTK1416:3ERET4BTVNGOPOGTDNSF8Q07LEQK90", "dateTime": 1515879801842}, {"current_trial": 134, "trialdata": {"rt": -1, "trial_type": "single-stim", "word": "luggage", "stimulus": "<p id=\"stim\">LUGGAGE</p>", "conditions": [12, 800, "v", 12000], "internal_node_id": "0.0-98.0", "trial": 3, "time_elapsed": 677640, "serialpos": 5, "key_press": -1, "wordID": 846, "type": "PRES_VIS", "trial_index": 134}, "uniqueid": "MTK1416:3ERET4BTVNGOPOGTDNSF8Q07LEQK90", "dateTime": 1515879803594}, {"current_trial": 135, "trialdata": {"rt": -1, "trial_type": "single-stim", "word": "thief", "stimulus": "<p id=\"stim\">THIEF</p>", "conditions": [12, 800, "v", 12000], "internal_node_id": "0.0-99.0", "trial": 3, "time_elapsed": 679444, "serialpos": 6, "key_press": -1, "wordID": 1455, "type": "PRES_VIS", "trial_index": 135}, "uniqueid": "MTK1416:3ERET4BTVNGOPOGTDNSF8Q07LEQK90", "dateTime": 1515879805398}, {"current_trial": 136, "trialdata": {"rt": -1, "trial_type": "single-stim", "word": "shortcake", "stimulus": "<p id=\"stim\">SHORTCAKE</p>", "conditions": [12, 800, "v", 12000], "internal_node_id": "0.0-100.0", "trial": 3, "time_elapsed": 681401, "serialpos": 7, "key_press": -1, "wordID": 1291, "type": "PRES_VIS", "trial_index": 136}, "uniqueid": "MTK1416:3ERET4BTVNGOPOGTDNSF8Q07LEQK90", "dateTime": 1515879807355}, {"current_trial": 137, "trialdata": {"rt": -1, "trial_type": "single-stim", "word": "coffee", "stimulus": "<p id=\"stim\">COFFEE</p>", "conditions": [12, 800, "v", 12000], "internal_node_id": "0.0-101.0", "trial": 3, "time_elapsed": 683047, "serialpos": 8, "key_press": -1, "wordID": 340, "type": "PRES_VIS", "trial_index": 137}, "uniqueid": "MTK1416:3ERET4BTVNGOPOGTDNSF8Q07LEQK90", "dateTime": 1515879809001}, {"current_trial": 138, "trialdata": {"rt": -1, "trial_type": "single-stim", "word": "hedge", "stimulus": "<p id=\"stim\">HEDGE</p>", "conditions": [12, 800, "v", 12000], "internal_node_id": "0.0-102.0", "trial": 3, "time_elapsed": 684773, "serialpos": 9, "key_press": -1, "wordID": 698, "type": "PRES_VIS", "trial_index": 138}, "uniqueid": "MTK1416:3ERET4BTVNGOPOGTDNSF8Q07LEQK90", "dateTime": 1515879810727}, {"current_trial": 139, "trialdata": {"rt": -1, "trial_type": "single-stim", "word": "mammal", "stimulus": "<p id=\"stim\">MAMMAL</p>", "conditions": [12, 800, "v", 12000], "internal_node_id": "0.0-103.0", "trial": 3, "time_elapsed": 686720, "serialpos": 10, "key_press": -1, "wordID": 860, "type": "PRES_VIS", "trial_index": 139}, "uniqueid": "MTK1416:3ERET4BTVNGOPOGTDNSF8Q07LEQK90", "dateTime": 1515879812674}, {"current_trial": 140, "trialdata": {"rt": -1, "trial_type": "single-stim", "word": "bullet", "stimulus": "<p id=\"stim\">BULLET</p>", "conditions": [12, 800, "v", 12000], "internal_node_id": "0.0-104.0", "trial": 3, "time_elapsed": 688575, "serialpos": 11, "key_press": -1, "wordID": 193, "type": "PRES_VIS", "trial_index": 140}, "uniqueid": "MTK1416:3ERET4BTVNGOPOGTDNSF8Q07LEQK90", "dateTime": 1515879814529}, {"current_trial": 141, "trialdata": {"rt": -1, "trial_type": "single-stim", "stimulus": "", "internal_node_id": "0.0-105.0-0.0", "time_elapsed": 690923, "key_press": -1, "type": "PRE_RECALL_DELAY", "trial_index": 141}, "uniqueid": "MTK1416:3ERET4BTVNGOPOGTDNSF8Q07LEQK90", "dateTime": 1515879816877}, {"current_trial": 142, "trialdata": {"rt": -1000, "trial_type": "single-audio", "stimulus": "/static/audio/400Hz.wav", "internal_node_id": "0.0-106.0", "time_elapsed": 691438, "key_press": -1, "type": "PRE_RECALL_ALERT", "trial_index": 142}, "uniqueid": "MTK1416:3ERET4BTVNGOPOGTDNSF8Q07LEQK90", "dateTime": 1515879817392}, {"current_trial": 143, "trialdata": {"rt": [2230, 4385, 5987, 7592, 11487, 15862], "recwords": ["bullet", "mammal", "grape", "apple", "belly", "suspect"], "key_times": [1170, 1323, 1623, 1797, 1927, 2087, 2230, 2715, 2848, 3118, 3614, 3828, 4119, 4385, 4942, 5142, 5278, 5439, 5730, 5987, 6431, 6762, 6957, 7271, 7391, 7592, 10406, 10616, 10790, 10950, 11171, 11487, 14425, 14575, 14666, 15032, 15194, 15417, 15658, 15862], "trial_type": "free-recall", "conditions": [12, 800, "v", 12000], "internal_node_id": "0.0-107.0-0.0", "key_presses": [66, 85, 76, 76, 69, 84, 13, 77, 65, 77, 77, 65, 76, 13, 71, 82, 65, 80, 69, 13, 65, 80, 80, 76, 69, 13, 66, 69, 76, 76, 89, 13, 83, 85, 83, 80, 69, 67, 84, 13], "trial": 3, "time_elapsed": 751444, "type": "FREE_RECALL", "trial_index": 143}, "uniqueid": "MTK1416:3ERET4BTVNGOPOGTDNSF8Q07LEQK90", "dateTime": 1515879877406}, {"current_trial": 144, "trialdata": {"rt": 1545, "trial_type": "text", "internal_node_id": "0.0-108.0", "time_elapsed": 754998, "key_press": 32, "type": "INSTRUCTIONS", "trial_index": 144}, "uniqueid": "MTK1416:3ERET4BTVNGOPOGTDNSF8Q07LEQK90", "dateTime": 1515879880952}, {"current_trial": 145, "trialdata": {"rt": [2967, 5857, 8937, 10672], "trial_type": "math-distractor", "key_times": [2351, 2571, 2967, 5258, 5702, 5857, 7853, 8693, 8937, 10381, 10541, 10672], "responses": ["20", "13", "12", "11"], "num2": [9, 2, 7, 4, 4], "num3": [2, 2, 3, 6, 4], "conditions": [24, 800, "v", 12000], "internal_node_id": "0.0-109.0", "key_presses": [50, 48, 13, 49, 51, 13, 49, 50, 13, 49, 49, 13], "trial": 4, "time_elapsed": 769006, "type": "DISTRACTOR", "trial_index": 145, "num1": [9, 9, 2, 1, 2]}, "uniqueid": "MTK1416:3ERET4BTVNGOPOGTDNSF8Q07LEQK90", "dateTime": 1515879894960}, {"current_trial": 146, "trialdata": {"rt": -1, "trial_type": "single-stim", "stimulus": "<p id=\"stim\">10</p>", "internal_node_id": "0.0-110.0-0.0", "time_elapsed": 772009, "key_press": -1, "trial_index": 146}, "uniqueid": "MTK1416:3ERET4BTVNGOPOGTDNSF8Q07LEQK90", "dateTime": 1515879897963}, {"current_trial": 147, "trialdata": {"rt": -1, "trial_type": "single-stim", "stimulus": "<p id=\"stim\">9</p>", "internal_node_id": "0.0-110.0-1.0", "time_elapsed": 773011, "key_press": -1, "trial_index": 147}, "uniqueid": "MTK1416:3ERET4BTVNGOPOGTDNSF8Q07LEQK90", "dateTime": 1515879898965}, {"current_trial": 148, "trialdata": {"rt": -1, "trial_type": "single-stim", "stimulus": "<p id=\"stim\">8</p>", "internal_node_id": "0.0-110.0-2.0", "time_elapsed": 774013, "key_press": -1, "trial_index": 148}, "uniqueid": "MTK1416:3ERET4BTVNGOPOGTDNSF8Q07LEQK90", "dateTime": 1515879899968}, {"current_trial": 149, "trialdata": {"rt": -1, "trial_type": "single-stim", "stimulus": "<p id=\"stim\">7</p>", "internal_node_id": "0.0-110.0-3.0", "time_elapsed": 775015, "key_press": -1, "trial_index": 149}, "uniqueid": "MTK1416:3ERET4BTVNGOPOGTDNSF8Q07LEQK90", "dateTime": 1515879900970}, {"current_trial": 150, "trialdata": {"rt": -1, "trial_type": "single-stim", "stimulus": "<p id=\"stim\">6</p>", "internal_node_id": "0.0-110.0-4.0", "time_elapsed": 776017, "key_press": -1, "trial_index": 150}, "uniqueid": "MTK1416:3ERET4BTVNGOPOGTDNSF8Q07LEQK90", "dateTime": 1515879901972}, {"current_trial": 151, "trialdata": {"rt": -1, "trial_type": "single-stim", "stimulus": "<p id=\"stim\">5</p>", "internal_node_id": "0.0-110.0-5.0", "time_elapsed": 777019, "key_press": -1, "trial_index": 151}, "uniqueid": "MTK1416:3ERET4BTVNGOPOGTDNSF8Q07LEQK90", "dateTime": 1515879902974}, {"current_trial": 152, "trialdata": {"rt": -1, "trial_type": "single-stim", "stimulus": "<p id=\"stim\">4</p>", "internal_node_id": "0.0-110.0-6.0", "time_elapsed": 778021, "key_press": -1, "trial_index": 152}, "uniqueid": "MTK1416:3ERET4BTVNGOPOGTDNSF8Q07LEQK90", "dateTime": 1515879903976}, {"current_trial": 153, "trialdata": {"rt": -1, "trial_type": "single-stim", "stimulus": "<p id=\"stim\">3</p>", "internal_node_id": "0.0-110.0-7.0", "time_elapsed": 779023, "key_press": -1, "trial_index": 153}, "uniqueid": "MTK1416:3ERET4BTVNGOPOGTDNSF8Q07LEQK90", "dateTime": 1515879904978}, {"current_trial": 154, "trialdata": {"rt": -1, "trial_type": "single-stim", "stimulus": "<p id=\"stim\">2</p>", "internal_node_id": "0.0-110.0-8.0", "time_elapsed": 780026, "key_press": -1, "trial_index": 154}, "uniqueid": "MTK1416:3ERET4BTVNGOPOGTDNSF8Q07LEQK90", "dateTime": 1515879905980}, {"current_trial": 155, "trialdata": {"rt": -1, "trial_type": "single-stim", "stimulus": "<p id=\"stim\">1</p>", "internal_node_id": "0.0-110.0-9.0", "time_elapsed": 781028, "key_press": -1, "trial_index": 155}, "uniqueid": "MTK1416:3ERET4BTVNGOPOGTDNSF8Q07LEQK90", "dateTime": 1515879906982}, {"current_trial": 156, "trialdata": {"rt": -1, "trial_type": "single-stim", "stimulus": "<p id=\"stim\">+</p>", "internal_node_id": "0.0-111.0-0.0", "time_elapsed": 782529, "key_press": -1, "type": "FIXATION", "trial_index": 156}, "uniqueid": "MTK1416:3ERET4BTVNGOPOGTDNSF8Q07LEQK90", "dateTime": 1515879908484}, {"current_trial": 157, "trialdata": {"rt": -1, "trial_type": "single-stim", "word": "candy", "stimulus": "<p id=\"stim\">CANDY</p>", "conditions": [24, 800, "v", 12000], "internal_node_id": "0.0-112.0", "trial": 4, "time_elapsed": 783332, "serialpos": 0, "key_press": -1, "wordID": 229, "type": "PRES_VIS", "trial_index": 157}, "uniqueid": "MTK1416:3ERET4BTVNGOPOGTDNSF8Q07LEQK90", "dateTime": 1515879909286}, {"current_trial": 158, "trialdata": {"rt": -1, "trial_type": "single-stim", "word": "pork", "stimulus": "<p id=\"stim\">PORK</p>", "conditions": [24, 800, "v", 12000], "internal_node_id": "0.0-113.0", "trial": 4, "time_elapsed": 785175, "serialpos": 1, "key_press": -1, "wordID": 1107, "type": "PRES_VIS", "trial_index": 158}, "uniqueid": "MTK1416:3ERET4BTVNGOPOGTDNSF8Q07LEQK90", "dateTime": 1515879911129}, {"current_trial": 159, "trialdata": {"rt": -1, "trial_type": "single-stim", "word": "briefcase", "stimulus": "<p id=\"stim\">BRIEFCASE</p>", "conditions": [24, 800, "v", 12000], "internal_node_id": "0.0-114.0", "trial": 4, "time_elapsed": 787058, "serialpos": 2, "key_press": -1, "wordID": 174, "type": "PRES_VIS", "trial_index": 159}, "uniqueid": "MTK1416:3ERET4BTVNGOPOGTDNSF8Q07LEQK90", "dateTime": 1515879913019}, {"current_trial": 160, "trialdata": {"rt": -1, "trial_type": "single-stim", "word": "turtle", "stimulus": "<p id=\"stim\">TURTLE</p>", "conditions": [24, 800, "v", 12000], "internal_node_id": "0.0-115.0", "trial": 4, "time_elapsed": 788908, "serialpos": 3, "key_press": -1, "wordID": 1521, "type": "PRES_VIS", "trial_index": 160}, "uniqueid": "MTK1416:3ERET4BTVNGOPOGTDNSF8Q07LEQK90", "dateTime": 1515879914862}, {"current_trial": 161, "trialdata": {"rt": -1, "trial_type": "single-stim", "word": "neutron", "stimulus": "<p id=\"stim\">NEUTRON</p>", "conditions": [24, 800, "v", 12000], "internal_node_id": "0.0-116.0", "trial": 4, "time_elapsed": 790559, "serialpos": 4, "key_press": -1, "wordID": 946, "type": "PRES_VIS", "trial_index": 161}, "uniqueid": "MTK1416:3ERET4BTVNGOPOGTDNSF8Q07LEQK90", "dateTime": 1515879916513}, {"current_trial": 162, "trialdata": {"rt": -1, "trial_type": "single-stim", "word": "padding", "stimulus": "<p id=\"stim\">PADDING</p>", "conditions": [24, 800, "v", 12000], "internal_node_id": "0.0-117.0", "trial": 4, "time_elapsed": 792539, "serialpos": 5, "key_press": -1, "wordID": 998, "type": "PRES_VIS", "trial_index": 162}, "uniqueid": "MTK1416:3ERET4BTVNGOPOGTDNSF8Q07LEQK90", "dateTime": 1515879918493}, {"current_trial": 163, "trialdata": {"rt": -1, "trial_type": "single-stim", "word": "cookbook", "stimulus": "<p id=\"stim\">COOKBOOK</p>", "conditions": [24, 800, "v", 12000], "internal_node_id": "0.0-118.0", "trial": 4, "time_elapsed": 794329, "serialpos": 6, "key_press": -1, "wordID": 372, "type": "PRES_VIS", "trial_index": 163}, "uniqueid": "MTK1416:3ERET4BTVNGOPOGTDNSF8Q07LEQK90", "dateTime": 1515879920283}, {"current_trial": 164, "trialdata": {"rt": -1, "trial_type": "single-stim", "word": "diner", "stimulus": "<p id=\"stim\">DINER</p>", "conditions": [24, 800, "v", 12000], "internal_node_id": "0.0-119.0", "trial": 4, "time_elapsed": 796052, "serialpos": 7, "key_press": -1, "wordID": 466, "type": "PRES_VIS", "trial_index": 164}, "uniqueid": "MTK1416:3ERET4BTVNGOPOGTDNSF8Q07LEQK90", "dateTime": 1515879922006}, {"current_trial": 165, "trialdata": {"rt": -1, "trial_type": "single-stim", "word": "freezer", "stimulus": "<p id=\"stim\">FREEZER</p>", "conditions": [24, 800, "v", 12000], "internal_node_id": "0.0-120.0", "trial": 4, "time_elapsed": 797788, "serialpos": 8, "key_press": -1, "wordID": 603, "type": "PRES_VIS", "trial_index": 165}, "uniqueid": "MTK1416:3ERET4BTVNGOPOGTDNSF8Q07LEQK90", "dateTime": 1515879923742}, {"current_trial": 166, "trialdata": {"rt": -1, "trial_type": "single-stim", "word": "fox", "stimulus": "<p id=\"stim\">FOX</p>", "conditions": [24, 800, "v", 12000], "internal_node_id": "0.0-121.0", "trial": 4, "time_elapsed": 799484, "serialpos": 9, "key_press": -1, "wordID": 597, "type": "PRES_VIS", "trial_index": 166}, "uniqueid": "MTK1416:3ERET4BTVNGOPOGTDNSF8Q07LEQK90", "dateTime": 1515879925438}, {"current_trial": 167, "trialdata": {"rt": -1, "trial_type": "single-stim", "word": "possum", "stimulus": "<p id=\"stim\">POSSUM</p>", "conditions": [24, 800, "v", 12000], "internal_node_id": "0.0-122.0", "trial": 4, "time_elapsed": 801449, "serialpos": 10, "key_press": -1, "wordID": 1111, "type": "PRES_VIS", "trial_index": 167}, "uniqueid": "MTK1416:3ERET4BTVNGOPOGTDNSF8Q07LEQK90", "dateTime": 1515879927403}, {"current_trial": 168, "trialdata": {"rt": -1, "trial_type": "single-stim", "word": "shark", "stimulus": "<p id=\"stim\">SHARK</p>", "conditions": [24, 800, "v", 12000], "internal_node_id": "0.0-123.0", "trial": 4, "time_elapsed": 803265, "serialpos": 11, "key_press": -1, "wordID": 1274, "type": "PRES_VIS", "trial_index": 168}, "uniqueid": "MTK1416:3ERET4BTVNGOPOGTDNSF8Q07LEQK90", "dateTime": 1515879929219}, {"current_trial": 169, "trialdata": {"rt": -1, "trial_type": "single-stim", "word": "atom", "stimulus": "<p id=\"stim\">ATOM</p>", "conditions": [24, 800, "v", 12000], "internal_node_id": "0.0-124.0", "trial": 4, "time_elapsed": 805085, "serialpos": 12, "key_press": -1, "wordID": 54, "type": "PRES_VIS", "trial_index": 169}, "uniqueid": "MTK1416:3ERET4BTVNGOPOGTDNSF8Q07LEQK90", "dateTime": 1515879931039}, {"current_trial": 170, "trialdata": {"rt": -1, "trial_type": "single-stim", "word": "trench", "stimulus": "<p id=\"stim\">TRENCH</p>", "conditions": [24, 800, "v", 12000], "internal_node_id": "0.0-125.0", "trial": 4, "time_elapsed": 806778, "serialpos": 13, "key_press": -1, "wordID": 1502, "type": "PRES_VIS", "trial_index": 170}, "uniqueid": "MTK1416:3ERET4BTVNGOPOGTDNSF8Q07LEQK90", "dateTime": 1515879932732}, {"current_trial": 171, "trialdata": {"rt": -1, "trial_type": "single-stim", "word": "sunrise", "stimulus": "<p id=\"stim\">SUNRISE</p>", "conditions": [24, 800, "v", 12000], "internal_node_id": "0.0-126.0", "trial": 4, "time_elapsed": 808619, "serialpos": 14, "key_press": -1, "wordID": 1406, "type": "PRES_VIS", "trial_index": 171}, "uniqueid": "MTK1416:3ERET4BTVNGOPOGTDNSF8Q07LEQK90", "dateTime": 1515879934573}, {"current_trial": 172, "trialdata": {"rt": -1, "trial_type": "single-stim", "word": "novel", "stimulus": "<p id=\"stim\">NOVEL</p>", "conditions": [24, 800, "v", 12000], "internal_node_id": "0.0-127.0", "trial": 4, "time_elapsed": 810610, "serialpos": 15, "key_press": -1, "wordID": 959, "type": "PRES_VIS", "trial_index": 172}, "uniqueid": "MTK1416:3ERET4BTVNGOPOGTDNSF8Q07LEQK90", "dateTime": 1515879936565}, {"current_trial": 173, "trialdata": {"rt": -1, "trial_type": "single-stim", "word": "shoulder", "stimulus": "<p id=\"stim\">SHOULDER</p>", "conditions": [24, 800, "v", 12000], "internal_node_id": "0.0-128.0", "trial": 4, "time_elapsed": 812437, "serialpos": 16, "key_press": -1, "wordID": 1293, "type": "PRES_VIS", "trial_index": 173}, "uniqueid": "MTK1416:3ERET4BTVNGOPOGTDNSF8Q07LEQK90", "dateTime": 1515879938392}, {"current_trial": 174, "trialdata": {"rt": -1, "trial_type": "single-stim", "word": "arm", "stimulus": "<p id=\"stim\">ARM</p>", "conditions": [24, 800, "v", 12000], "internal_node_id": "0.0-129.0", "trial": 4, "time_elapsed": 814057, "serialpos": 17, "key_press": -1, "wordID": 37, "type": "PRES_VIS", "trial_index": 174}, "uniqueid": "MTK1416:3ERET4BTVNGOPOGTDNSF8Q07LEQK90", "dateTime": 1515879940012}, {"current_trial": 175, "trialdata": {"rt": -1, "trial_type": "single-stim", "word": "brook", "stimulus": "<p id=\"stim\">BROOK</p>", "conditions": [24, 800, "v", 12000], "internal_node_id": "0.0-130.0", "trial": 4, "time_elapsed": 815674, "serialpos": 18, "key_press": -1, "wordID": 176, "type": "PRES_VIS", "trial_index": 175}, "uniqueid": "MTK1416:3ERET4BTVNGOPOGTDNSF8Q07LEQK90", "dateTime": 1515879941628}, {"current_trial": 176, "trialdata": {"rt": -1, "trial_type": "single-stim", "word": "blender", "stimulus": "<p id=\"stim\">BLENDER</p>", "conditions": [24, 800, "v", 12000], "internal_node_id": "0.0-131.0", "trial": 4, "time_elapsed": 817606, "serialpos": 19, "key_press": -1, "wordID": 135, "type": "PRES_VIS", "trial_index": 176}, "uniqueid": "MTK1416:3ERET4BTVNGOPOGTDNSF8Q07LEQK90", "dateTime": 1515879943561}, {"current_trial": 177, "trialdata": {"rt": -1, "trial_type": "single-stim", "word": "hatchet", "stimulus": "<p id=\"stim\">HATCHET</p>", "conditions": [24, 800, "v", 12000], "internal_node_id": "0.0-132.0", "trial": 4, "time_elapsed": 819588, "serialpos": 20, "key_press": -1, "wordID": 690, "type": "PRES_VIS", "trial_index": 177}, "uniqueid": "MTK1416:3ERET4BTVNGOPOGTDNSF8Q07LEQK90", "dateTime": 1515879945543}, {"current_trial": 178, "trialdata": {"rt": -1, "trial_type": "single-stim", "word": "dresser", "stimulus": "<p id=\"stim\">DRESSER</p>", "conditions": [24, 800, "v", 12000], "internal_node_id": "0.0-133.0", "trial": 4, "time_elapsed": 821497, "serialpos": 21, "key_press": -1, "wordID": 495, "type": "PRES_VIS", "trial_index": 178}, "uniqueid": "MTK1416:3ERET4BTVNGOPOGTDNSF8Q07LEQK90", "dateTime": 1515879947451}, {"current_trial": 179, "trialdata": {"rt": -1, "trial_type": "single-stim", "word": "cabin", "stimulus": "<p id=\"stim\">CABIN</p>", "conditions": [24, 800, "v", 12000], "internal_node_id": "0.0-134.0", "trial": 4, "time_elapsed": 823113, "serialpos": 22, "key_press": -1, "wordID": 210, "type": "PRES_VIS", "trial_index": 179}, "uniqueid": "MTK1416:3ERET4BTVNGOPOGTDNSF8Q07LEQK90", "dateTime": 1515879949068}, {"current_trial": 180, "trialdata": {"rt": -1, "trial_type": "single-stim", "word": "skillet", "stimulus": "<p id=\"stim\">SKILLET</p>", "conditions": [24, 800, "v", 12000], "internal_node_id": "0.0-135.0", "trial": 4, "time_elapsed": 824994, "serialpos": 23, "key_press": -1, "wordID": 1316, "type": "PRES_VIS", "trial_index": 180}, "uniqueid": "MTK1416:3ERET4BTVNGOPOGTDNSF8Q07LEQK90", "dateTime": 1515879950948}, {"current_trial": 181, "trialdata": {"rt": -1, "trial_type": "single-stim", "stimulus": "", "internal_node_id": "0.0-136.0-0.0", "time_elapsed": 827247, "key_press": -1, "type": "PRE_RECALL_DELAY", "trial_index": 181}, "uniqueid": "MTK1416:3ERET4BTVNGOPOGTDNSF8Q07LEQK90", "dateTime": 1515879953201}, {"current_trial": 182, "trialdata": {"rt": -1000, "trial_type": "single-audio", "stimulus": "/static/audio/400Hz.wav", "internal_node_id": "0.0-137.0", "time_elapsed": 827751, "key_press": -1, "type": "PRE_RECALL_ALERT", "trial_index": 182}, "uniqueid": "MTK1416:3ERET4BTVNGOPOGTDNSF8Q07LEQK90", "dateTime": 1515879953705}, {"current_trial": 183, "trialdata": {"rt": [1403, 3252, 4851, 6717, 8607, 9892, 15247, 20321, 22119], "recwords": ["cabin", "skillet", "hatchet", "freezer", "fox", "shark", "briefcase", "atom", "neutron"], "key_times": [483, 673, 846, 1007, 1159, 1403, 1743, 2047, 2250, 2594, 2758, 2939, 3099, 3252, 3576, 3698, 3871, 4163, 4289, 4436, 4687, 4851, 5436, 5646, 5810, 5981, 6243, 6466, 6557, 6717, 7861, 7991, 8426, 8607, 8922, 9052, 9173, 9287, 9598, 9892, 13470, 13741, 13925, 14025, 14290, 14621, 14804, 14915, 15135, 15247, 19482, 19762, 19895, 20006, 20321, 20711, 20874, 21095, 21433, 21613, 21723, 21837, 22119], "trial_type": "free-recall", "conditions": [24, 800, "v", 12000], "internal_node_id": "0.0-138.0-0.0", "key_presses": [67, 65, 66, 73, 78, 13, 83, 75, 73, 76, 76, 69, 84, 13, 72, 65, 84, 67, 72, 69, 84, 13, 70, 82, 69, 69, 90, 69, 82, 13, 70, 79, 88, 13, 83, 72, 65, 82, 75, 13, 66, 82, 73, 69, 70, 67, 65, 83, 69, 13, 65, 84, 79, 77, 13, 78, 69, 85, 84, 82, 79, 78, 13], "trial": 4, "time_elapsed": 887757, "type": "FREE_RECALL", "trial_index": 183}, "uniqueid": "MTK1416:3ERET4BTVNGOPOGTDNSF8Q07LEQK90", "dateTime": 1515880013718}, {"current_trial": 184, "trialdata": {"rt": 1347, "trial_type": "text", "internal_node_id": "0.0-139.0", "time_elapsed": 891114, "key_press": 32, "type": "INSTRUCTIONS", "trial_index": 184}, "uniqueid": "MTK1416:3ERET4BTVNGOPOGTDNSF8Q07LEQK90", "dateTime": 1515880017068}, {"current_trial": 185, "trialdata": {"rt": [3261, 8271, 10062, 12512, 15232, 17980, 21474], "trial_type": "math-distractor", "key_times": [2399, 2520, 3261, 7805, 8100, 8271, 9542, 9917, 10062, 12181, 12341, 12512, 14808, 15106, 15232, 17302, 17818, 17980, 20848, 21302, 21474, 23504, 23700], "responses": ["19", "25", "15", "12", "15", "20", "17"], "num2": [2, 9, 1, 5, 9, 5, 1, 2], "num3": [8, 8, 5, 3, 2, 9, 8, 1], "conditions": [24, 1600, "v", 24000], "internal_node_id": "0.0-140.0", "key_presses": [49, 57, 13, 50, 53, 13, 49, 53, 13, 49, 50, 13, 49, 53, 13, 50, 48, 13, 49, 55, 13, 54, 55], "trial": 5, "time_elapsed": 917121, "type": "DISTRACTOR", "trial_index": 185, "num1": [9, 8, 9, 4, 4, 6, 8, 4]}, "uniqueid": "MTK1416:3ERET4BTVNGOPOGTDNSF8Q07LEQK90", "dateTime": 1515880043082}, {"current_trial": 186, "trialdata": {"rt": -1, "trial_type": "single-stim", "stimulus": "<p id=\"stim\">10</p>", "internal_node_id": "0.0-141.0-0.0", "time_elapsed": 920131, "key_press": -1, "trial_index": 186}, "uniqueid": "MTK1416:3ERET4BTVNGOPOGTDNSF8Q07LEQK90", "dateTime": 1515880046085}, {"current_trial": 187, "trialdata": {"rt": -1, "trial_type": "single-stim", "stimulus": "<p id=\"stim\">9</p>", "internal_node_id": "0.0-141.0-1.0", "time_elapsed": 921133, "key_press": -1, "trial_index": 187}, "uniqueid": "MTK1416:3ERET4BTVNGOPOGTDNSF8Q07LEQK90", "dateTime": 1515880047087}, {"current_trial": 188, "trialdata": {"rt": -1, "trial_type": "single-stim", "stimulus": "<p id=\"stim\">8</p>", "internal_node_id": "0.0-141.0-2.0", "time_elapsed": 922135, "key_press": -1, "trial_index": 188}, "uniqueid": "MTK1416:3ERET4BTVNGOPOGTDNSF8Q07LEQK90", "dateTime": 1515880048089}, {"current_trial": 189, "trialdata": {"rt": -1, "trial_type": "single-stim", "stimulus": "<p id=\"stim\">7</p>", "internal_node_id": "0.0-141.0-3.0", "time_elapsed": 923137, "key_press": -1, "trial_index": 189}, "uniqueid": "MTK1416:3ERET4BTVNGOPOGTDNSF8Q07LEQK90", "dateTime": 1515880049091}, {"current_trial": 190, "trialdata": {"rt": -1, "trial_type": "single-stim", "stimulus": "<p id=\"stim\">6</p>", "internal_node_id": "0.0-141.0-4.0", "time_elapsed": 924139, "key_press": -1, "trial_index": 190}, "uniqueid": "MTK1416:3ERET4BTVNGOPOGTDNSF8Q07LEQK90", "dateTime": 1515880050093}, {"current_trial": 191, "trialdata": {"rt": -1, "trial_type": "single-stim", "stimulus": "<p id=\"stim\">5</p>", "internal_node_id": "0.0-141.0-5.0", "time_elapsed": 925141, "key_press": -1, "trial_index": 191}, "uniqueid": "MTK1416:3ERET4BTVNGOPOGTDNSF8Q07LEQK90", "dateTime": 1515880051095}, {"current_trial": 192, "trialdata": {"rt": -1, "trial_type": "single-stim", "stimulus": "<p id=\"stim\">4</p>", "internal_node_id": "0.0-141.0-6.0", "time_elapsed": 926143, "key_press": -1, "trial_index": 192}, "uniqueid": "MTK1416:3ERET4BTVNGOPOGTDNSF8Q07LEQK90", "dateTime": 1515880052097}, {"current_trial": 193, "trialdata": {"rt": -1, "trial_type": "single-stim", "stimulus": "<p id=\"stim\">3</p>", "internal_node_id": "0.0-141.0-7.0", "time_elapsed": 927145, "key_press": -1, "trial_index": 193}, "uniqueid": "MTK1416:3ERET4BTVNGOPOGTDNSF8Q07LEQK90", "dateTime": 1515880053099}, {"current_trial": 194, "trialdata": {"rt": -1, "trial_type": "single-stim", "stimulus": "<p id=\"stim\">2</p>", "internal_node_id": "0.0-141.0-8.0", "time_elapsed": 928147, "key_press": -1, "trial_index": 194}, "uniqueid": "MTK1416:3ERET4BTVNGOPOGTDNSF8Q07LEQK90", "dateTime": 1515880054101}, {"current_trial": 195, "trialdata": {"rt": -1, "trial_type": "single-stim", "stimulus": "<p id=\"stim\">1</p>", "internal_node_id": "0.0-141.0-9.0", "time_elapsed": 929150, "key_press": -1, "trial_index": 195}, "uniqueid": "MTK1416:3ERET4BTVNGOPOGTDNSF8Q07LEQK90", "dateTime": 1515880055104}, {"current_trial": 196, "trialdata": {"rt": -1, "trial_type": "single-stim", "stimulus": "<p id=\"stim\">+</p>", "internal_node_id": "0.0-142.0-0.0", "time_elapsed": 930652, "key_press": -1, "type": "FIXATION", "trial_index": 196}, "uniqueid": "MTK1416:3ERET4BTVNGOPOGTDNSF8Q07LEQK90", "dateTime": 1515880056606}, {"current_trial": 197, "trialdata": {"rt": -1, "trial_type": "single-stim", "word": "shrub", "stimulus": "<p id=\"stim\">SHRUB</p>", "conditions": [24, 1600, "v", 24000], "internal_node_id": "0.0-143.0", "trial": 5, "time_elapsed": 932253, "serialpos": 0, "key_press": -1, "wordID": 1298, "type": "PRES_VIS", "trial_index": 197}, "uniqueid": "MTK1416:3ERET4BTVNGOPOGTDNSF8Q07LEQK90", "dateTime": 1515880058207}, {"current_trial": 198, "trialdata": {"rt": -1, "trial_type": "single-stim", "word": "clam", "stimulus": "<p id=\"stim\">CLAM</p>", "conditions": [24, 1600, "v", 24000], "internal_node_id": "0.0-144.0", "trial": 5, "time_elapsed": 934800, "serialpos": 1, "key_press": -1, "wordID": 314, "type": "PRES_VIS", "trial_index": 198}, "uniqueid": "MTK1416:3ERET4BTVNGOPOGTDNSF8Q07LEQK90", "dateTime": 1515880060755}, {"current_trial": 199, "trialdata": {"rt": -1, "trial_type": "single-stim", "word": "fruit", "stimulus": "<p id=\"stim\">FRUIT</p>", "conditions": [24, 1600, "v", 24000], "internal_node_id": "0.0-145.0", "trial": 5, "time_elapsed": 937553, "serialpos": 2, "key_press": -1, "wordID": 609, "type": "PRES_VIS", "trial_index": 199}, "uniqueid": "MTK1416:3ERET4BTVNGOPOGTDNSF8Q07LEQK90", "dateTime": 1515880063508}, {"current_trial": 200, "trialdata": {"rt": -1, "trial_type": "single-stim", "word": "dragon", "stimulus": "<p id=\"stim\">DRAGON</p>", "conditions": [24, 1600, "v", 24000], "internal_node_id": "0.0-146.0", "trial": 5, "time_elapsed": 940103, "serialpos": 3, "key_press": -1, "wordID": 491, "type": "PRES_VIS", "trial_index": 200}, "uniqueid": "MTK1416:3ERET4BTVNGOPOGTDNSF8Q07LEQK90", "dateTime": 1515880066058}, {"current_trial": 201, "trialdata": {"rt": -1, "trial_type": "single-stim", "word": "nightgown", "stimulus": "<p id=\"stim\">NIGHTGOWN</p>", "conditions": [24, 1600, "v", 24000], "internal_node_id": "0.0-147.0", "trial": 5, "time_elapsed": 942894, "serialpos": 4, "key_press": -1, "wordID": 952, "type": "PRES_VIS", "trial_index": 201}, "uniqueid": "MTK1416:3ERET4BTVNGOPOGTDNSF8Q07LEQK90", "dateTime": 1515880068849}, {"current_trial": 202, "trialdata": {"rt": -1, "trial_type": "single-stim", "word": "county", "stimulus": "<p id=\"stim\">COUNTY</p>", "conditions": [24, 1600, "v", 24000], "internal_node_id": "0.0-148.0", "trial": 5, "time_elapsed": 945597, "serialpos": 5, "key_press": -1, "wordID": 388, "type": "PRES_VIS", "trial_index": 202}, "uniqueid": "MTK1416:3ERET4BTVNGOPOGTDNSF8Q07LEQK90", "dateTime": 1515880071551}, {"current_trial": 203, "trialdata": {"rt": -1, "trial_type": "single-stim", "word": "sheriff", "stimulus": "<p id=\"stim\">SHERIFF</p>", "conditions": [24, 1600, "v", 24000], "internal_node_id": "0.0-149.0", "trial": 5, "time_elapsed": 948396, "serialpos": 6, "key_press": -1, "wordID": 1283, "type": "PRES_VIS", "trial_index": 203}, "uniqueid": "MTK1416:3ERET4BTVNGOPOGTDNSF8Q07LEQK90", "dateTime": 1515880074350}, {"current_trial": 204, "trialdata": {"rt": -1, "trial_type": "single-stim", "word": "jury", "stimulus": "<p id=\"stim\">JURY</p>", "conditions": [24, 1600, "v", 24000], "internal_node_id": "0.0-150.0", "trial": 5, "time_elapsed": 951122, "serialpos": 7, "key_press": -1, "wordID": 765, "type": "PRES_VIS", "trial_index": 204}, "uniqueid": "MTK1416:3ERET4BTVNGOPOGTDNSF8Q07LEQK90", "dateTime": 1515880077076}, {"current_trial": 205, "trialdata": {"rt": -1, "trial_type": "single-stim", "word": "creature", "stimulus": "<p id=\"stim\">CREATURE</p>", "conditions": [24, 1600, "v", 24000], "internal_node_id": "0.0-151.0", "trial": 5, "time_elapsed": 953916, "serialpos": 8, "key_press": -1, "wordID": 402, "type": "PRES_VIS", "trial_index": 205}, "uniqueid": "MTK1416:3ERET4BTVNGOPOGTDNSF8Q07LEQK90", "dateTime": 1515880079870}, {"current_trial": 206, "trialdata": {"rt": -1, "trial_type": "single-stim", "word": "pigeon", "stimulus": "<p id=\"stim\">PIGEON</p>", "conditions": [24, 1600, "v", 24000], "internal_node_id": "0.0-152.0", "trial": 5, "time_elapsed": 956621, "serialpos": 9, "key_press": -1, "wordID": 1064, "type": "PRES_VIS", "trial_index": 206}, "uniqueid": "MTK1416:3ERET4BTVNGOPOGTDNSF8Q07LEQK90", "dateTime": 1515880082575}, {"current_trial": 207, "trialdata": {"rt": -1, "trial_type": "single-stim", "word": "crevice", "stimulus": "<p id=\"stim\">CREVICE</p>", "conditions": [24, 1600, "v", 24000], "internal_node_id": "0.0-153.0", "trial": 5, "time_elapsed": 959174, "serialpos": 10, "key_press": -1, "wordID": 404, "type": "PRES_VIS", "trial_index": 207}, "uniqueid": "MTK1416:3ERET4BTVNGOPOGTDNSF8Q07LEQK90", "dateTime": 1515880085128}, {"current_trial": 208, "trialdata": {"rt": -1, "trial_type": "single-stim", "word": "goblin", "stimulus": "<p id=\"stim\">GOBLIN</p>", "conditions": [24, 1600, "v", 24000], "internal_node_id": "0.0-154.0", "trial": 5, "time_elapsed": 961645, "serialpos": 11, "key_press": -1, "wordID": 644, "type": "PRES_VIS", "trial_index": 208}, "uniqueid": "MTK1416:3ERET4BTVNGOPOGTDNSF8Q07LEQK90", "dateTime": 1515880087599}, {"current_trial": 209, "trialdata": {"rt": -1, "trial_type": "single-stim", "word": "supper", "stimulus": "<p id=\"stim\">SUPPER</p>", "conditions": [24, 1600, "v", 24000], "internal_node_id": "0.0-155.0", "trial": 5, "time_elapsed": 964152, "serialpos": 12, "key_press": -1, "wordID": 1410, "type": "PRES_VIS", "trial_index": 209}, "uniqueid": "MTK1416:3ERET4BTVNGOPOGTDNSF8Q07LEQK90", "dateTime": 1515880090106}, {"current_trial": 210, "trialdata": {"rt": -1, "trial_type": "single-stim", "word": "picnic", "stimulus": "<p id=\"stim\">PICNIC</p>", "conditions": [24, 1600, "v", 24000], "internal_node_id": "0.0-156.0", "trial": 5, "time_elapsed": 966798, "serialpos": 13, "key_press": -1, "wordID": 1059, "type": "PRES_VIS", "trial_index": 210}, "uniqueid": "MTK1416:3ERET4BTVNGOPOGTDNSF8Q07LEQK90", "dateTime": 1515880092752}, {"current_trial": 211, "trialdata": {"rt": -1, "trial_type": "single-stim", "word": "burglar", "stimulus": "<p id=\"stim\">BURGLAR</p>", "conditions": [24, 1600, "v", 24000], "internal_node_id": "0.0-157.0", "trial": 5, "time_elapsed": 969249, "serialpos": 14, "key_press": -1, "wordID": 199, "type": "PRES_VIS", "trial_index": 211}, "uniqueid": "MTK1416:3ERET4BTVNGOPOGTDNSF8Q07LEQK90", "dateTime": 1515880095203}, {"current_trial": 212, "trialdata": {"rt": -1, "trial_type": "single-stim", "word": "stallion", "stimulus": "<p id=\"stim\">STALLION</p>", "conditions": [24, 1600, "v", 24000], "internal_node_id": "0.0-158.0", "trial": 5, "time_elapsed": 971871, "serialpos": 15, "key_press": -1, "wordID": 1368, "type": "PRES_VIS", "trial_index": 212}, "uniqueid": "MTK1416:3ERET4BTVNGOPOGTDNSF8Q07LEQK90", "dateTime": 1515880097825}, {"current_trial": 213, "trialdata": {"rt": -1, "trial_type": "single-stim", "word": "server", "stimulus": "<p id=\"stim\">SERVER</p>", "conditions": [24, 1600, "v", 24000], "internal_node_id": "0.0-159.0", "trial": 5, "time_elapsed": 974606, "serialpos": 16, "key_press": -1, "wordID": 1271, "type": "PRES_VIS", "trial_index": 213}, "uniqueid": "MTK1416:3ERET4BTVNGOPOGTDNSF8Q07LEQK90", "dateTime": 1515880100561}, {"current_trial": 214, "trialdata": {"rt": -1, "trial_type": "single-stim", "word": "doughnut", "stimulus": "<p id=\"stim\">DOUGHNUT</p>", "conditions": [24, 1600, "v", 24000], "internal_node_id": "0.0-160.0", "trial": 5, "time_elapsed": 977358, "serialpos": 17, "key_press": -1, "wordID": 489, "type": "PRES_VIS", "trial_index": 214}, "uniqueid": "MTK1416:3ERET4BTVNGOPOGTDNSF8Q07LEQK90", "dateTime": 1515880103313}, {"current_trial": 215, "trialdata": {"rt": -1, "trial_type": "single-stim", "word": "guitar", "stimulus": "<p id=\"stim\">GUITAR</p>", "conditions": [24, 1600, "v", 24000], "internal_node_id": "0.0-161.0", "trial": 5, "time_elapsed": 980084, "serialpos": 18, "key_press": -1, "wordID": 669, "type": "PRES_VIS", "trial_index": 215}, "uniqueid": "MTK1416:3ERET4BTVNGOPOGTDNSF8Q07LEQK90", "dateTime": 1515880106039}, {"current_trial": 216, "trialdata": {"rt": -1, "trial_type": "single-stim", "word": "concert", "stimulus": "<p id=\"stim\">CONCERT</p>", "conditions": [24, 1600, "v", 24000], "internal_node_id": "0.0-162.0", "trial": 5, "time_elapsed": 982868, "serialpos": 19, "key_press": -1, "wordID": 359, "type": "PRES_VIS", "trial_index": 216}, "uniqueid": "MTK1416:3ERET4BTVNGOPOGTDNSF8Q07LEQK90", "dateTime": 1515880108822}, {"current_trial": 217, "trialdata": {"rt": -1, "trial_type": "single-stim", "word": "waitress", "stimulus": "<p id=\"stim\">WAITRESS</p>", "conditions": [24, 1600, "v", 24000], "internal_node_id": "0.0-163.0", "trial": 5, "time_elapsed": 985613, "serialpos": 20, "key_press": -1, "wordID": 1580, "type": "PRES_VIS", "trial_index": 217}, "uniqueid": "MTK1416:3ERET4BTVNGOPOGTDNSF8Q07LEQK90", "dateTime": 1515880111567}, {"current_trial": 218, "trialdata": {"rt": -1, "trial_type": "single-stim", "word": "cyclone", "stimulus": "<p id=\"stim\">CYCLONE</p>", "conditions": [24, 1600, "v", 24000], "internal_node_id": "0.0-164.0", "trial": 5, "time_elapsed": 988055, "serialpos": 21, "key_press": -1, "wordID": 430, "type": "PRES_VIS", "trial_index": 218}, "uniqueid": "MTK1416:3ERET4BTVNGOPOGTDNSF8Q07LEQK90", "dateTime": 1515880114009}, {"current_trial": 219, "trialdata": {"rt": -1, "trial_type": "single-stim", "word": "scarf", "stimulus": "<p id=\"stim\">SCARF</p>", "conditions": [24, 1600, "v", 24000], "internal_node_id": "0.0-165.0", "trial": 5, "time_elapsed": 990509, "serialpos": 22, "key_press": -1, "wordID": 1245, "type": "PRES_VIS", "trial_index": 219}, "uniqueid": "MTK1416:3ERET4BTVNGOPOGTDNSF8Q07LEQK90", "dateTime": 1515880116463}, {"current_trial": 220, "trialdata": {"rt": -1, "trial_type": "single-stim", "word": "hostess", "stimulus": "<p id=\"stim\">HOSTESS</p>", "conditions": [24, 1600, "v", 24000], "internal_node_id": "0.0-166.0", "trial": 5, "time_elapsed": 993086, "serialpos": 23, "key_press": -1, "wordID": 722, "type": "PRES_VIS", "trial_index": 220}, "uniqueid": "MTK1416:3ERET4BTVNGOPOGTDNSF8Q07LEQK90", "dateTime": 1515880119040}, {"current_trial": 221, "trialdata": {"rt": -1, "trial_type": "single-stim", "stimulus": "", "internal_node_id": "0.0-167.0-0.0", "time_elapsed": 995290, "key_press": -1, "type": "PRE_RECALL_DELAY", "trial_index": 221}, "uniqueid": "MTK1416:3ERET4BTVNGOPOGTDNSF8Q07LEQK90", "dateTime": 1515880121244}, {"current_trial": 222, "trialdata": {"rt": -1000, "trial_type": "single-audio", "stimulus": "/static/audio/400Hz.wav", "internal_node_id": "0.0-168.0", "time_elapsed": 995799, "key_press": -1, "type": "PRE_RECALL_ALERT", "trial_index": 222}, "uniqueid": "MTK1416:3ERET4BTVNGOPOGTDNSF8Q07LEQK90", "dateTime": 1515880121753}, {"current_trial": 223, "trialdata": {"rt": [2203, 3765, 5611, 7077, 8938, 11246, 14596, 20864, 32235], "recwords": ["fruit", "dragon", "waitress", "diner", "supper", "jury", "sherriff", "nightgown", "county"], "key_times": [626, 887, 1059, 1263, 1443, 2203, 2549, 2782, 2933, 3207, 3328, 3448, 3765, 4025, 4218, 4332, 4520, 4874, 5045, 5279, 5440, 5611, 5985, 6140, 6371, 6656, 6776, 7077, 7906, 8076, 8320, 8492, 8677, 8767, 8938, 10303, 10483, 10710, 10919, 11246, 12516, 12790, 12931, 13234, 13586, 13820, 14111, 14294, 14596, 18922, 19103, 19196, 19276, 19437, 20113, 20276, 20437, 20568, 20864, 31171, 31243, 31343, 31545, 31700, 31920, 32235], "trial_type": "free-recall", "conditions": [24, 1600, "v", 24000], "internal_node_id": "0.0-169.0-0.0", "key_presses": [70, 82, 85, 73, 84, 13, 68, 82, 65, 71, 79, 78, 13, 87, 65, 73, 84, 82, 69, 83, 83, 13, 68, 73, 78, 69, 82, 13, 83, 85, 80, 80, 69, 82, 13, 74, 85, 82, 89, 13, 83, 72, 69, 82, 82, 73, 70, 70, 13, 78, 73, 71, 72, 84, 71, 79, 87, 78, 13, 67, 79, 85, 78, 84, 89, 13], "trial": 5, "time_elapsed": 1055797, "type": "FREE_RECALL", "trial_index": 223}, "uniqueid": "MTK1416:3ERET4BTVNGOPOGTDNSF8Q07LEQK90", "dateTime": 1515880181759}, {"current_trial": 224, "trialdata": {"rt": 1402, "trial_type": "text", "internal_node_id": "0.0-170.0", "time_elapsed": 1059209, "key_press": 32, "type": "INSTRUCTIONS", "trial_index": 224}, "uniqueid": "MTK1416:3ERET4BTVNGOPOGTDNSF8Q07LEQK90", "dateTime": 1515880185163}, {"current_trial": 225, "trialdata": {"rt": [2715, 5130, 7324, 9944], "trial_type": "math-distractor", "key_times": [1968, 2178, 2715, 4675, 4930, 5130, 6952, 7162, 7324, 9678, 9944], "responses": ["10", "12", "12", "9"], "num2": [7, 3, 1, 2, 9], "num3": [2, 5, 7, 6, 5], "conditions": [24, 1600, "v", 12000], "internal_node_id": "0.0-171.0", "key_presses": [49, 48, 13, 49, 50, 13, 49, 50, 13, 57, 13], "trial": 6, "time_elapsed": 1073215, "type": "DISTRACTOR", "trial_index": 225, "num1": [1, 4, 4, 1, 8]}, "uniqueid": "MTK1416:3ERET4BTVNGOPOGTDNSF8Q07LEQK90", "dateTime": 1515880199169}, {"current_trial": 226, "trialdata": {"rt": -1, "trial_type": "single-stim", "stimulus": "<p id=\"stim\">10</p>", "internal_node_id": "0.0-172.0-0.0", "time_elapsed": 1076218, "key_press": -1, "trial_index": 226}, "uniqueid": "MTK1416:3ERET4BTVNGOPOGTDNSF8Q07LEQK90", "dateTime": 1515880202173}, {"current_trial": 227, "trialdata": {"rt": -1, "trial_type": "single-stim", "stimulus": "<p id=\"stim\">9</p>", "internal_node_id": "0.0-172.0-1.0", "time_elapsed": 1077220, "key_press": -1, "trial_index": 227}, "uniqueid": "MTK1416:3ERET4BTVNGOPOGTDNSF8Q07LEQK90", "dateTime": 1515880203175}, {"current_trial": 228, "trialdata": {"rt": -1, "trial_type": "single-stim", "stimulus": "<p id=\"stim\">8</p>", "internal_node_id": "0.0-172.0-2.0", "time_elapsed": 1078222, "key_press": -1, "trial_index": 228}, "uniqueid": "MTK1416:3ERET4BTVNGOPOGTDNSF8Q07LEQK90", "dateTime": 1515880204177}, {"current_trial": 229, "trialdata": {"rt": -1, "trial_type": "single-stim", "stimulus": "<p id=\"stim\">7</p>", "internal_node_id": "0.0-172.0-3.0", "time_elapsed": 1079224, "key_press": -1, "trial_index": 229}, "uniqueid": "MTK1416:3ERET4BTVNGOPOGTDNSF8Q07LEQK90", "dateTime": 1515880205179}, {"current_trial": 230, "trialdata": {"rt": -1, "trial_type": "single-stim", "stimulus": "<p id=\"stim\">6</p>", "internal_node_id": "0.0-172.0-4.0", "time_elapsed": 1080226, "key_press": -1, "trial_index": 230}, "uniqueid": "MTK1416:3ERET4BTVNGOPOGTDNSF8Q07LEQK90", "dateTime": 1515880206180}, {"current_trial": 231, "trialdata": {"rt": -1, "trial_type": "single-stim", "stimulus": "<p id=\"stim\">5</p>", "internal_node_id": "0.0-172.0-5.0", "time_elapsed": 1081229, "key_press": -1, "trial_index": 231}, "uniqueid": "MTK1416:3ERET4BTVNGOPOGTDNSF8Q07LEQK90", "dateTime": 1515880207183}, {"current_trial": 232, "trialdata": {"rt": -1, "trial_type": "single-stim", "stimulus": "<p id=\"stim\">4</p>", "internal_node_id": "0.0-172.0-6.0", "time_elapsed": 1082230, "key_press": -1, "trial_index": 232}, "uniqueid": "MTK1416:3ERET4BTVNGOPOGTDNSF8Q07LEQK90", "dateTime": 1515880208185}, {"current_trial": 233, "trialdata": {"rt": -1, "trial_type": "single-stim", "stimulus": "<p id=\"stim\">3</p>", "internal_node_id": "0.0-172.0-7.0", "time_elapsed": 1083233, "key_press": -1, "trial_index": 233}, "uniqueid": "MTK1416:3ERET4BTVNGOPOGTDNSF8Q07LEQK90", "dateTime": 1515880209187}, {"current_trial": 234, "trialdata": {"rt": -1, "trial_type": "single-stim", "stimulus": "<p id=\"stim\">2</p>", "internal_node_id": "0.0-172.0-8.0", "time_elapsed": 1084235, "key_press": -1, "trial_index": 234}, "uniqueid": "MTK1416:3ERET4BTVNGOPOGTDNSF8Q07LEQK90", "dateTime": 1515880210189}, {"current_trial": 235, "trialdata": {"rt": -1, "trial_type": "single-stim", "stimulus": "<p id=\"stim\">1</p>", "internal_node_id": "0.0-172.0-9.0", "time_elapsed": 1085236, "key_press": -1, "trial_index": 235}, "uniqueid": "MTK1416:3ERET4BTVNGOPOGTDNSF8Q07LEQK90", "dateTime": 1515880211190}, {"current_trial": 236, "trialdata": {"rt": -1, "trial_type": "single-stim", "stimulus": "<p id=\"stim\">+</p>", "internal_node_id": "0.0-173.0-0.0", "time_elapsed": 1086739, "key_press": -1, "type": "FIXATION", "trial_index": 236}, "uniqueid": "MTK1416:3ERET4BTVNGOPOGTDNSF8Q07LEQK90", "dateTime": 1515880212693}, {"current_trial": 237, "trialdata": {"rt": -1, "trial_type": "single-stim", "word": "cashew", "stimulus": "<p id=\"stim\">CASHEW</p>", "conditions": [24, 1600, "v", 12000], "internal_node_id": "0.0-174.0", "trial": 6, "time_elapsed": 1088341, "serialpos": 0, "key_press": -1, "wordID": 252, "type": "PRES_VIS", "trial_index": 237}, "uniqueid": "MTK1416:3ERET4BTVNGOPOGTDNSF8Q07LEQK90", "dateTime": 1515880214295}, {"current_trial": 238, "trialdata": {"rt": -1, "trial_type": "single-stim", "word": "tractor", "stimulus": "<p id=\"stim\">TRACTOR</p>", "conditions": [24, 1600, "v", 12000], "internal_node_id": "0.0-175.0", "trial": 6, "time_elapsed": 1090880, "serialpos": 1, "key_press": -1, "wordID": 1492, "type": "PRES_VIS", "trial_index": 238}, "uniqueid": "MTK1416:3ERET4BTVNGOPOGTDNSF8Q07LEQK90", "dateTime": 1515880216834}, {"current_trial": 239, "trialdata": {"rt": -1, "trial_type": "single-stim", "word": "summit", "stimulus": "<p id=\"stim\">SUMMIT</p>", "conditions": [24, 1600, "v", 12000], "internal_node_id": "0.0-176.0", "trial": 6, "time_elapsed": 1093535, "serialpos": 2, "key_press": -1, "wordID": 1404, "type": "PRES_VIS", "trial_index": 239}, "uniqueid": "MTK1416:3ERET4BTVNGOPOGTDNSF8Q07LEQK90", "dateTime": 1515880219489}, {"current_trial": 240, "trialdata": {"rt": -1, "trial_type": "single-stim", "word": "table", "stimulus": "<p id=\"stim\">TABLE</p>", "conditions": [24, 1600, "v", 12000], "internal_node_id": "0.0-177.0", "trial": 6, "time_elapsed": 1096191, "serialpos": 3, "key_press": -1, "wordID": 1425, "type": "PRES_VIS", "trial_index": 240}, "uniqueid": "MTK1416:3ERET4BTVNGOPOGTDNSF8Q07LEQK90", "dateTime": 1515880222145}, {"current_trial": 241, "trialdata": {"rt": -1, "trial_type": "single-stim", "word": "buggy", "stimulus": "<p id=\"stim\">BUGGY</p>", "conditions": [24, 1600, "v", 12000], "internal_node_id": "0.0-178.0", "trial": 6, "time_elapsed": 1098721, "serialpos": 4, "key_press": -1, "wordID": 187, "type": "PRES_VIS", "trial_index": 241}, "uniqueid": "MTK1416:3ERET4BTVNGOPOGTDNSF8Q07LEQK90", "dateTime": 1515880224683}, {"current_trial": 242, "trialdata": {"rt": -1, "trial_type": "single-stim", "word": "brick", "stimulus": "<p id=\"stim\">BRICK</p>", "conditions": [24, 1600, "v", 12000], "internal_node_id": "0.0-179.0", "trial": 6, "time_elapsed": 1101489, "serialpos": 5, "key_press": -1, "wordID": 171, "type": "PRES_VIS", "trial_index": 242}, "uniqueid": "MTK1416:3ERET4BTVNGOPOGTDNSF8Q07LEQK90", "dateTime": 1515880227443}, {"current_trial": 243, "trialdata": {"rt": -1, "trial_type": "single-stim", "word": "stone", "stimulus": "<p id=\"stim\">STONE</p>", "conditions": [24, 1600, "v", 12000], "internal_node_id": "0.0-180.0", "trial": 6, "time_elapsed": 1103993, "serialpos": 6, "key_press": -1, "wordID": 1384, "type": "PRES_VIS", "trial_index": 243}, "uniqueid": "MTK1416:3ERET4BTVNGOPOGTDNSF8Q07LEQK90", "dateTime": 1515880229947}, {"current_trial": 244, "trialdata": {"rt": -1, "trial_type": "single-stim", "word": "costume", "stimulus": "<p id=\"stim\">COSTUME</p>", "conditions": [24, 1600, "v", 12000], "internal_node_id": "0.0-181.0", "trial": 6, "time_elapsed": 1106477, "serialpos": 7, "key_press": -1, "wordID": 382, "type": "PRES_VIS", "trial_index": 244}, "uniqueid": "MTK1416:3ERET4BTVNGOPOGTDNSF8Q07LEQK90", "dateTime": 1515880232431}, {"current_trial": 245, "trialdata": {"rt": -1, "trial_type": "single-stim", "word": "ointment", "stimulus": "<p id=\"stim\">OINTMENT</p>", "conditions": [24, 1600, "v", 12000], "internal_node_id": "0.0-182.0", "trial": 6, "time_elapsed": 1109135, "serialpos": 8, "key_press": -1, "wordID": 973, "type": "PRES_VIS", "trial_index": 245}, "uniqueid": "MTK1416:3ERET4BTVNGOPOGTDNSF8Q07LEQK90", "dateTime": 1515880235089}, {"current_trial": 246, "trialdata": {"rt": -1, "trial_type": "single-stim", "word": "gazelle", "stimulus": "<p id=\"stim\">GAZELLE</p>", "conditions": [24, 1600, "v", 12000], "internal_node_id": "0.0-183.0", "trial": 6, "time_elapsed": 1111839, "serialpos": 9, "key_press": -1, "wordID": 627, "type": "PRES_VIS", "trial_index": 246}, "uniqueid": "MTK1416:3ERET4BTVNGOPOGTDNSF8Q07LEQK90", "dateTime": 1515880237794}, {"current_trial": 247, "trialdata": {"rt": -1, "trial_type": "single-stim", "word": "chauffeur", "stimulus": "<p id=\"stim\">CHAUFFEUR</p>", "conditions": [24, 1600, "v", 12000], "internal_node_id": "0.0-184.0", "trial": 6, "time_elapsed": 1114567, "serialpos": 10, "key_press": -1, "wordID": 282, "type": "PRES_VIS", "trial_index": 247}, "uniqueid": "MTK1416:3ERET4BTVNGOPOGTDNSF8Q07LEQK90", "dateTime": 1515880240522}, {"current_trial": 248, "trialdata": {"rt": -1, "trial_type": "single-stim", "word": "wardrobe", "stimulus": "<p id=\"stim\">WARDROBE</p>", "conditions": [24, 1600, "v", 12000], "internal_node_id": "0.0-185.0", "trial": 6, "time_elapsed": 1117138, "serialpos": 11, "key_press": -1, "wordID": 1586, "type": "PRES_VIS", "trial_index": 248}, "uniqueid": "MTK1416:3ERET4BTVNGOPOGTDNSF8Q07LEQK90", "dateTime": 1515880243092}, {"current_trial": 249, "trialdata": {"rt": -1, "trial_type": "single-stim", "word": "shorts", "stimulus": "<p id=\"stim\">SHORTS</p>", "conditions": [24, 1600, "v", 12000], "internal_node_id": "0.0-186.0", "trial": 6, "time_elapsed": 1119779, "serialpos": 12, "key_press": -1, "wordID": 1292, "type": "PRES_VIS", "trial_index": 249}, "uniqueid": "MTK1416:3ERET4BTVNGOPOGTDNSF8Q07LEQK90", "dateTime": 1515880245734}, {"current_trial": 250, "trialdata": {"rt": -1, "trial_type": "single-stim", "word": "airport", "stimulus": "<p id=\"stim\">AIRPORT</p>", "conditions": [24, 1600, "v", 12000], "internal_node_id": "0.0-187.0", "trial": 6, "time_elapsed": 1122526, "serialpos": 13, "key_press": -1, "wordID": 12, "type": "PRES_VIS", "trial_index": 250}, "uniqueid": "MTK1416:3ERET4BTVNGOPOGTDNSF8Q07LEQK90", "dateTime": 1515880248480}, {"current_trial": 251, "trialdata": {"rt": -1, "trial_type": "single-stim", "word": "zipper", "stimulus": "<p id=\"stim\">ZIPPER</p>", "conditions": [24, 1600, "v", 12000], "internal_node_id": "0.0-188.0", "trial": 6, "time_elapsed": 1125128, "serialpos": 14, "key_press": -1, "wordID": 1635, "type": "PRES_VIS", "trial_index": 251}, "uniqueid": "MTK1416:3ERET4BTVNGOPOGTDNSF8Q07LEQK90", "dateTime": 1515880251082}, {"current_trial": 252, "trialdata": {"rt": -1, "trial_type": "single-stim", "word": "seafood", "stimulus": "<p id=\"stim\">SEAFOOD</p>", "conditions": [24, 1600, "v", 12000], "internal_node_id": "0.0-189.0", "trial": 6, "time_elapsed": 1127611, "serialpos": 15, "key_press": -1, "wordID": 1259, "type": "PRES_VIS", "trial_index": 252}, "uniqueid": "MTK1416:3ERET4BTVNGOPOGTDNSF8Q07LEQK90", "dateTime": 1515880253565}, {"current_trial": 253, "trialdata": {"rt": -1, "trial_type": "single-stim", "word": "crab", "stimulus": "<p id=\"stim\">CRAB</p>", "conditions": [24, 1600, "v", 12000], "internal_node_id": "0.0-190.0", "trial": 6, "time_elapsed": 1130336, "serialpos": 16, "key_press": -1, "wordID": 396, "type": "PRES_VIS", "trial_index": 253}, "uniqueid": "MTK1416:3ERET4BTVNGOPOGTDNSF8Q07LEQK90", "dateTime": 15158802