{"assignmentId": "351SEKWQS1OVI2TDAFAX9ZB119MDMB", "workerId": "MTK1530", "questiondata": {"origin": "United States", "strat-rehearsal": "47", "marital": "Single", "education": "Some college", "ethnicity": "Not Hispanic", "color_depth": 24, "distracted": "No", "wrote-notes": "No", "strat-other": "", "screen_width": 1536, "avail_screen_width": 1536, "avail_screen_height": 824, "strat-image": "34", "language": "English", "gender": "Other", "age": "24", "gender_other": "Androgynous", "race": ["White"], "strat-categorize": "47", "pixel_depth": 24, "strat-spatial": "53", "strat-story": "52", "race_other": "", "screen_height": 864}, "bonus": 0, "hitId": "3W5PY7V3UPE6SLKPDCFHH8X1YY5JYR", "counterbalance": 1561, "useragent": "Mozilla/5.0 (Windows NT 10.0; Win64; x64) AppleWebKit/537.36 (KHTML, like Gecko) Chrome/63.0.3239.132 Safari/537.36", "eventdata": [{"eventtype": "initialized", "interval": 0, "value": null, "timestamp": 1515953303331}, {"eventtype": "window_resize", "interval": 0, "value": [1536, 774], "timestamp": 1515953303331}, {"eventtype": "focus", "interval": 27649, "value": "off", "timestamp": 1515953330980}, {"eventtype": "focus", "interval": 7076, "value": "on", "timestamp": 1515953338056}, {"eventtype": "focus", "interval": 1362408, "value": "off", "timestamp": 1515954700464}, {"eventtype": "focus", "interval": 5555, "value": "on", "timestamp": 1515954706019}, {"eventtype": "focus", "interval": 878, "value": "off", "timestamp": 1515954706897}, {"eventtype": "focus", "interval": 5980, "value": "on", "timestamp": 1515954712877}, {"eventtype": "focus", "interval": 586982, "value": "off", "timestamp": 1515955299859}, {"eventtype": "focus", "interval": 4717, "value": "on", "timestamp": 1515955304576}, {"eventtype": "focus", "interval": 314963, "value": "off", "timestamp": 1515955619539}, {"eventtype": "focus", "interval": 4192, "value": "on", "timestamp": 1515955623731}, {"eventtype": "focus", "interval": 187901, "value": "off", "timestamp": 1515955811632}, {"eventtype": "focus", "interval": 308, "value": "on", "timestamp": 1515955811940}, {"eventtype": "focus", "interval": 618460, "value": "off", "timestamp": 1515956430400}, {"eventtype": "focus", "interval": 2269, "value": "on", "timestamp": 1515956432669}], "data": [{"current_trial": 0, "trialdata": {"rt": 1927, "trial_type": "text", "internal_node_id": "0.0-0.0", "time_elapsed": 1932, "key_press": 32, "type": "INSTRUCTIONS", "trial_index": 0}, "uniqueid": "MTK1530:351SEKWQS1OVI2TDAFAX9ZB119MDMB", "dateTime": 1515953306098}, {"current_trial": 1, "trialdata": {"rt": 41299, "trial_type": "text", "internal_node_id": "0.0-1.0", "time_elapsed": 43235, "key_press": 32, "type": "INSTRUCTIONS", "trial_index": 1}, "uniqueid": "MTK1530:351SEKWQS1OVI2TDAFAX9ZB119MDMB", "dateTime": 1515953347399}, {"current_trial": 2, "trialdata": {"rt": [9012], "trial_type": "audio-test", "responses": ["ocean"], "internal_node_id": "0.0-2.0", "time_elapsed": 52262, "type": "AUDIO_TEST", "trial_index": 2}, "uniqueid": "MTK1530:351SEKWQS1OVI2TDAFAX9ZB119MDMB", "dateTime": 1515953356426}, {"current_trial": 3, "trialdata": {"rt": [7692], "trial_type": "audio-test", "responses": ["crystal"], "internal_node_id": "0.0-3.0", "time_elapsed": 59958, "type": "AUDIO_TEST", "trial_index": 3}, "uniqueid": "MTK1530:351SEKWQS1OVI2TDAFAX9ZB119MDMB", "dateTime": 1515953364122}, {"current_trial": 4, "trialdata": {"rt": [5837], "trial_type": "audio-test", "responses": ["spice"], "internal_node_id": "0.0-4.0", "time_elapsed": 65800, "type": "AUDIO_TEST", "trial_index": 4}, "uniqueid": "MTK1530:351SEKWQS1OVI2TDAFAX9ZB119MDMB", "dateTime": 1515953369964}, {"current_trial": 5, "trialdata": {"rt": 26248, "trial_type": "survey-text", "responses": "{\"Q0\":\"1 AM\",\"Q1\":\"9 AM\",\"Q2\":\"4\"}", "internal_node_id": "0.0-5.0", "time_elapsed": 92802, "type": "SLEEP_SURVEY", "trial_index": 5}, "uniqueid": "MTK1530:351SEKWQS1OVI2TDAFAX9ZB119MDMB", "dateTime": 1515953396967}, {"current_trial": 6, "trialdata": {"rt": 55149, "trial_type": "text", "internal_node_id": "0.0-6.0", "time_elapsed": 148954, "key_press": 32, "type": "INSTRUCTIONS", "trial_index": 6}, "uniqueid": "MTK1530:351SEKWQS1OVI2TDAFAX9ZB119MDMB", "dateTime": 1515953453119}, {"current_trial": 7, "trialdata": {"rt": 12873, "trial_type": "text", "internal_node_id": "0.0-7.0", "time_elapsed": 162329, "key_press": 13, "type": "INSTRUCTIONS", "trial_index": 7}, "uniqueid": "MTK1530:351SEKWQS1OVI2TDAFAX9ZB119MDMB", "dateTime": 1515953466493}, {"current_trial": 8, "trialdata": {"rt": 9709, "trial_type": "text", "internal_node_id": "0.0-8.0", "time_elapsed": 172539, "key_press": 13, "type": "INSTRUCTIONS", "trial_index": 8}, "uniqueid": "MTK1530:351SEKWQS1OVI2TDAFAX9ZB119MDMB", "dateTime": 1515953476703}, {"current_trial": 9, "trialdata": {"rt": [3045, 7094, 17601], "trial_type": "math-distractor", "key_times": [2440, 2630, 3045, 6857, 6924, 7094, 16819, 17244, 17601], "responses": ["14", "19", "26"], "num2": [4, 8, 9, 4], "num3": [1, 2, 8, 5], "conditions": [18, 1200, "v", 18000], "internal_node_id": "0.0-9.0", "key_presses": [49, 52, 13, 49, 57, 13, 50, 54, 13], "trial": 0, "time_elapsed": 191552, "type": "DISTRACTOR", "trial_index": 9, "num1": [9, 9, 9, 7]}, "uniqueid": "MTK1530:351SEKWQS1OVI2TDAFAX9ZB119MDMB", "dateTime": 1515953495716}, {"current_trial": 10, "trialdata": {"rt": -1, "trial_type": "single-stim", "stimulus": "<p id=\"stim\">10</p>", "internal_node_id": "0.0-10.0-0.0", "time_elapsed": 194555, "key_press": -1, "trial_index": 10}, "uniqueid": "MTK1530:351SEKWQS1OVI2TDAFAX9ZB119MDMB", "dateTime": 1515953498720}, {"current_trial": 11, "trialdata": {"rt": -1, "trial_type": "single-stim", "stimulus": "<p id=\"stim\">9</p>", "internal_node_id": "0.0-10.0-1.0", "time_elapsed": 195558, "key_press": -1, "trial_index": 11}, "uniqueid": "MTK1530:351SEKWQS1OVI2TDAFAX9ZB119MDMB", "dateTime": 1515953499722}, {"current_trial": 12, "trialdata": {"rt": -1, "trial_type": "single-stim", "stimulus": "<p id=\"stim\">8</p>", "internal_node_id": "0.0-10.0-2.0", "time_elapsed": 196560, "key_press": -1, "trial_index": 12}, "uniqueid": "MTK1530:351SEKWQS1OVI2TDAFAX9ZB119MDMB", "dateTime": 1515953500724}, {"current_trial": 13, "trialdata": {"rt": -1, "trial_type": "single-stim", "stimulus": "<p id=\"stim\">7</p>", "internal_node_id": "0.0-10.0-3.0", "time_elapsed": 197562, "key_press": -1, "trial_index": 13}, "uniqueid": "MTK1530:351SEKWQS1OVI2TDAFAX9ZB119MDMB", "dateTime": 1515953501726}, {"current_trial": 14, "trialdata": {"rt": -1, "trial_type": "single-stim", "stimulus": "<p id=\"stim\">6</p>", "internal_node_id": "0.0-10.0-4.0", "time_elapsed": 198565, "key_press": -1, "trial_index": 14}, "uniqueid": "MTK1530:351SEKWQS1OVI2TDAFAX9ZB119MDMB", "dateTime": 1515953502729}, {"current_trial": 15, "trialdata": {"rt": -1, "trial_type": "single-stim", "stimulus": "<p id=\"stim\">5</p>", "internal_node_id": "0.0-10.0-5.0", "time_elapsed": 199568, "key_press": -1, "trial_index": 15}, "uniqueid": "MTK1530:351SEKWQS1OVI2TDAFAX9ZB119MDMB", "dateTime": 1515953503732}, {"current_trial": 16, "trialdata": {"rt": -1, "trial_type": "single-stim", "stimulus": "<p id=\"stim\">4</p>", "internal_node_id": "0.0-10.0-6.0", "time_elapsed": 200570, "key_press": -1, "trial_index": 16}, "uniqueid": "MTK1530:351SEKWQS1OVI2TDAFAX9ZB119MDMB", "dateTime": 1515953504734}, {"current_trial": 17, "trialdata": {"rt": -1, "trial_type": "single-stim", "stimulus": "<p id=\"stim\">3</p>", "internal_node_id": "0.0-10.0-7.0", "time_elapsed": 201572, "key_press": -1, "trial_index": 17}, "uniqueid": "MTK1530:351SEKWQS1OVI2TDAFAX9ZB119MDMB", "dateTime": 1515953505736}, {"current_trial": 18, "trialdata": {"rt": -1, "trial_type": "single-stim", "stimulus": "<p id=\"stim\">2</p>", "internal_node_id": "0.0-10.0-8.0", "time_elapsed": 202576, "key_press": -1, "trial_index": 18}, "uniqueid": "MTK1530:351SEKWQS1OVI2TDAFAX9ZB119MDMB", "dateTime": 1515953506740}, {"current_trial": 19, "trialdata": {"rt": -1, "trial_type": "single-stim", "stimulus": "<p id=\"stim\">1</p>", "internal_node_id": "0.0-10.0-9.0", "time_elapsed": 203578, "key_press": -1, "trial_index": 19}, "uniqueid": "MTK1530:351SEKWQS1OVI2TDAFAX9ZB119MDMB", "dateTime": 1515953507742}, {"current_trial": 20, "trialdata": {"rt": -1, "trial_type": "single-stim", "stimulus": "<p id=\"stim\">+</p>", "internal_node_id": "0.0-11.0-0.0", "time_elapsed": 205081, "key_press": -1, "type": "FIXATION", "trial_index": 20}, "uniqueid": "MTK1530:351SEKWQS1OVI2TDAFAX9ZB119MDMB", "dateTime": 1515953509245}, {"current_trial": 21, "trialdata": {"rt": -1, "trial_type": "single-stim", "word": "snake", "stimulus": "<p id=\"stim\">SNAKE</p>", "conditions": [18, 1200, "v", 18000], "internal_node_id": "0.0-12.0", "trial": 0, "time_elapsed": 206283, "serialpos": 0, "key_press": -1, "wordID": 1332, "type": "PRES_VIS", "trial_index": 21}, "uniqueid": "MTK1530:351SEKWQS1OVI2TDAFAX9ZB119MDMB", "dateTime": 1515953510447}, {"current_trial": 22, "trialdata": {"rt": -1, "trial_type": "single-stim", "word": "flower", "stimulus": "<p id=\"stim\">FLOWER</p>", "conditions": [18, 1200, "v", 18000], "internal_node_id": "0.0-13.0", "trial": 0, "time_elapsed": 208427, "serialpos": 1, "key_press": -1, "wordID": 583, "type": "PRES_VIS", "trial_index": 22}, "uniqueid": "MTK1530:351SEKWQS1OVI2TDAFAX9ZB119MDMB", "dateTime": 1515953512591}, {"current_trial": 23, "trialdata": {"rt": -1, "trial_type": "single-stim", "word": "pigeon", "stimulus": "<p id=\"stim\">PIGEON</p>", "conditions": [18, 1200, "v", 18000], "internal_node_id": "0.0-14.0", "trial": 0, "time_elapsed": 210579, "serialpos": 2, "key_press": -1, "wordID": 1064, "type": "PRES_VIS", "trial_index": 23}, "uniqueid": "MTK1530:351SEKWQS1OVI2TDAFAX9ZB119MDMB", "dateTime": 1515953514743}, {"current_trial": 24, "trialdata": {"rt": -1, "trial_type": "single-stim", "word": "comet", "stimulus": "<p id=\"stim\">COMET</p>", "conditions": [18, 1200, "v", 18000], "internal_node_id": "0.0-15.0", "trial": 0, "time_elapsed": 212814, "serialpos": 3, "key_press": -1, "wordID": 352, "type": "PRES_VIS", "trial_index": 24}, "uniqueid": "MTK1530:351SEKWQS1OVI2TDAFAX9ZB119MDMB", "dateTime": 1515953516979}, {"current_trial": 25, "trialdata": {"rt": -1, "trial_type": "single-stim", "word": "crab", "stimulus": "<p id=\"stim\">CRAB</p>", "conditions": [18, 1200, "v", 18000], "internal_node_id": "0.0-16.0", "trial": 0, "time_elapsed": 214905, "serialpos": 4, "key_press": -1, "wordID": 396, "type": "PRES_VIS", "trial_index": 25}, "uniqueid": "MTK1530:351SEKWQS1OVI2TDAFAX9ZB119MDMB", "dateTime": 1515953519069}, {"current_trial": 26, "trialdata": {"rt": -1, "trial_type": "single-stim", "word": "spouse", "stimulus": "<p id=\"stim\">SPOUSE</p>", "conditions": [18, 1200, "v", 18000], "internal_node_id": "0.0-17.0", "trial": 0, "time_elapsed": 216970, "serialpos": 5, "key_press": -1, "wordID": 1357, "type": "PRES_VIS", "trial_index": 26}, "uniqueid": "MTK1530:351SEKWQS1OVI2TDAFAX9ZB119MDMB", "dateTime": 1515953521134}, {"current_trial": 27, "trialdata": {"rt": -1, "trial_type": "single-stim", "word": "cocktail", "stimulus": "<p id=\"stim\">COCKTAIL</p>", "conditions": [18, 1200, "v", 18000], "internal_node_id": "0.0-18.0", "trial": 0, "time_elapsed": 219179, "serialpos": 6, "key_press": -1, "wordID": 337, "type": "PRES_VIS", "trial_index": 27}, "uniqueid": "MTK1530:351SEKWQS1OVI2TDAFAX9ZB119MDMB", "dateTime": 1515953523343}, {"current_trial": 28, "trialdata": {"rt": -1, "trial_type": "single-stim", "word": "award", "stimulus": "<p id=\"stim\">AWARD</p>", "conditions": [18, 1200, "v", 18000], "internal_node_id": "0.0-19.0", "trial": 0, "time_elapsed": 221264, "serialpos": 7, "key_press": -1, "wordID": 62, "type": "PRES_VIS", "trial_index": 28}, "uniqueid": "MTK1530:351SEKWQS1OVI2TDAFAX9ZB119MDMB", "dateTime": 1515953525428}, {"current_trial": 29, "trialdata": {"rt": -1, "trial_type": "single-stim", "word": "dentist", "stimulus": "<p id=\"stim\">DENTIST</p>", "conditions": [18, 1200, "v", 18000], "internal_node_id": "0.0-20.0", "trial": 0, "time_elapsed": 223382, "serialpos": 8, "key_press": -1, "wordID": 446, "type": "PRES_VIS", "trial_index": 29}, "uniqueid": "MTK1530:351SEKWQS1OVI2TDAFAX9ZB119MDMB", "dateTime": 1515953527547}, {"current_trial": 30, "trialdata": {"rt": -1, "trial_type": "single-stim", "word": "pudding", "stimulus": "<p id=\"stim\">PUDDING</p>", "conditions": [18, 1200, "v", 18000], "internal_node_id": "0.0-21.0", "trial": 0, "time_elapsed": 225648, "serialpos": 9, "key_press": -1, "wordID": 1138, "type": "PRES_VIS", "trial_index": 30}, "uniqueid": "MTK1530:351SEKWQS1OVI2TDAFAX9ZB119MDMB", "dateTime": 1515953529813}, {"current_trial": 31, "trialdata": {"rt": -1, "trial_type": "single-stim", "word": "sculpture", "stimulus": "<p id=\"stim\">SCULPTURE</p>", "conditions": [18, 1200, "v", 18000], "internal_node_id": "0.0-22.0", "trial": 0, "time_elapsed": 227834, "serialpos": 10, "key_press": -1, "wordID": 1257, "type": "PRES_VIS", "trial_index": 31}, "uniqueid": "MTK1530:351SEKWQS1OVI2TDAFAX9ZB119MDMB", "dateTime": 1515953531998}, {"current_trial": 32, "trialdata": {"rt": -1, "trial_type": "single-stim", "word": "seal", "stimulus": "<p id=\"stim\">SEAL</p>", "conditions": [18, 1200, "v", 18000], "internal_node_id": "0.0-23.0", "trial": 0, "time_elapsed": 229995, "serialpos": 11, "key_press": -1, "wordID": 1261, "type": "PRES_VIS", "trial_index": 32}, "uniqueid": "MTK1530:351SEKWQS1OVI2TDAFAX9ZB119MDMB", "dateTime": 1515953534159}, {"current_trial": 33, "trialdata": {"rt": -1, "trial_type": "single-stim", "word": "valve", "stimulus": "<p id=\"stim\">VALVE</p>", "conditions": [18, 1200, "v", 18000], "internal_node_id": "0.0-24.0", "trial": 0, "time_elapsed": 232013, "serialpos": 12, "key_press": -1, "wordID": 1545, "type": "PRES_VIS", "trial_index": 33}, "uniqueid": "MTK1530:351SEKWQS1OVI2TDAFAX9ZB119MDMB", "dateTime": 1515953536177}, {"current_trial": 34, "trialdata": {"rt": -1, "trial_type": "single-stim", "word": "hedge", "stimulus": "<p id=\"stim\">HEDGE</p>", "conditions": [18, 1200, "v", 18000], "internal_node_id": "0.0-25.0", "trial": 0, "time_elapsed": 234085, "serialpos": 13, "key_press": -1, "wordID": 698, "type": "PRES_VIS", "trial_index": 34}, "uniqueid": "MTK1530:351SEKWQS1OVI2TDAFAX9ZB119MDMB", "dateTime": 1515953538250}, {"current_trial": 35, "trialdata": {"rt": -1, "trial_type": "single-stim", "word": "garbage", "stimulus": "<p id=\"stim\">GARBAGE</p>", "conditions": [18, 1200, "v", 18000], "internal_node_id": "0.0-26.0", "trial": 0, "time_elapsed": 236439, "serialpos": 14, "key_press": -1, "wordID": 621, "type": "PRES_VIS", "trial_index": 35}, "uniqueid": "MTK1530:351SEKWQS1OVI2TDAFAX9ZB119MDMB", "dateTime": 1515953540603}, {"current_trial": 36, "trialdata": {"rt": -1, "trial_type": "single-stim", "word": "skillet", "stimulus": "<p id=\"stim\">SKILLET</p>", "conditions": [18, 1200, "v", 18000], "internal_node_id": "0.0-27.0", "trial": 0, "time_elapsed": 238687, "serialpos": 15, "key_press": -1, "wordID": 1316, "type": "PRES_VIS", "trial_index": 36}, "uniqueid": "MTK1530:351SEKWQS1OVI2TDAFAX9ZB119MDMB", "dateTime": 1515953542851}, {"current_trial": 37, "trialdata": {"rt": -1, "trial_type": "single-stim", "word": "statue", "stimulus": "<p id=\"stim\">STATUE</p>", "conditions": [18, 1200, "v", 18000], "internal_node_id": "0.0-28.0", "trial": 0, "time_elapsed": 241069, "serialpos": 16, "key_press": -1, "wordID": 1373, "type": "PRES_VIS", "trial_index": 37}, "uniqueid": "MTK1530:351SEKWQS1OVI2TDAFAX9ZB119MDMB", "dateTime": 1515953545233}, {"current_trial": 38, "trialdata": {"rt": -1, "trial_type": "single-stim", "word": "picture", "stimulus": "<p id=\"stim\">PICTURE</p>", "conditions": [18, 1200, "v", 18000], "internal_node_id": "0.0-29.0", "trial": 0, "time_elapsed": 243318, "serialpos": 17, "key_press": -1, "wordID": 1060, "type": "PRES_VIS", "trial_index": 38}, "uniqueid": "MTK1530:351SEKWQS1OVI2TDAFAX9ZB119MDMB", "dateTime": 1515953547482}, {"current_trial": 39, "trialdata": {"rt": -1, "trial_type": "single-stim", "stimulus": "", "internal_node_id": "0.0-30.0-0.0", "time_elapsed": 245734, "key_press": -1, "type": "PRE_RECALL_DELAY", "trial_index": 39}, "uniqueid": "MTK1530:351SEKWQS1OVI2TDAFAX9ZB119MDMB", "dateTime": 1515953549898}, {"current_trial": 40, "trialdata": {"rt": -1000, "trial_type": "single-audio", "stimulus": "/static/audio/400Hz.wav", "internal_node_id": "0.0-31.0", "time_elapsed": 246237, "key_press": -1, "type": "PRE_RECALL_ALERT", "trial_index": 40}, "uniqueid": "MTK1530:351SEKWQS1OVI2TDAFAX9ZB119MDMB", "dateTime": 1515953550402}, {"current_trial": 41, "trialdata": {"rt": [2523, 3399, 4578, 5542, 7305, 14524, 17489, 34303], "recwords": ["snake", "flower", "pigeon", "crown", "statue", "pudding", "skillet", "cocktail"], "key_times": [1800, 1841, 1936, 2045, 2172, 2523, 2897, 2962, 3129, 3194, 3286, 3320, 3399, 3684, 3974, 4127, 4299, 4376, 4504, 4578, 5023, 5217, 5268, 5365, 5435, 5542, 6596, 6751, 6878, 6977, 7106, 7214, 7305, 13682, 13802, 14017, 14189, 14252, 14359, 14448, 14524, 16757, 16814, 16970, 17116, 17230, 17294, 17373, 17489, 33334, 33460, 33536, 33664, 33819, 33928, 33988, 34147, 34303], "trial_type": "free-recall", "conditions": [18, 1200, "v", 18000], "internal_node_id": "0.0-32.0-0.0", "key_presses": [83, 78, 65, 75, 69, 13, 70, 76, 79, 87, 69, 82, 13, 80, 73, 71, 69, 79, 78, 13, 67, 82, 79, 87, 78, 13, 83, 84, 65, 84, 85, 69, 13, 80, 85, 68, 68, 73, 78, 71, 13, 83, 75, 73, 76, 76, 69, 84, 13, 67, 79, 67, 75, 84, 65, 73, 76, 13], "trial": 0, "time_elapsed": 306244, "type": "FREE_RECALL", "trial_index": 41}, "uniqueid": "MTK1530:351SEKWQS1OVI2TDAFAX9ZB119MDMB", "dateTime": 1515953610412}, {"current_trial": 42, "trialdata": {"rt": 2631, "trial_type": "text", "internal_node_id": "0.0-33.0", "time_elapsed": 310881, "key_press": 32, "type": "INSTRUCTIONS", "trial_index": 42}, "uniqueid": "MTK1530:351SEKWQS1OVI2TDAFAX9ZB119MDMB", "dateTime": 1515953615045}, {"current_trial": 43, "trialdata": {"rt": [3071, 5658, 7445, 10754, 12543, 15865], "trial_type": "math-distractor", "key_times": [2712, 2945, 3071, 5146, 5571, 5658, 7027, 7342, 7445, 10083, 10673, 10754, 12301, 12457, 12543, 15605, 15681, 15865], "responses": ["14", "16", "16", "18", "11", "21"], "num2": [2, 1, 3, 9, 1, 8, 7], "num3": [8, 8, 6, 7, 5, 8, 5], "conditions": [18, 1200, "v", 18000], "internal_node_id": "0.0-34.0", "key_presses": [49, 52, 13, 49, 54, 13, 49, 54, 13, 49, 56, 13, 49, 49, 13, 50, 49, 13], "trial": 1, "time_elapsed": 330885, "type": "DISTRACTOR", "trial_index": 43, "num1": [4, 7, 7, 2, 5, 5, 4]}, "uniqueid": "MTK1530:351SEKWQS1OVI2TDAFAX9ZB119MDMB", "dateTime": 1515953635050}, {"current_trial": 44, "trialdata": {"rt": -1, "trial_type": "single-stim", "stimulus": "<p id=\"stim\">10</p>", "internal_node_id": "0.0-35.0-0.0", "time_elapsed": 333889, "key_press": -1, "trial_index": 44}, "uniqueid": "MTK1530:351SEKWQS1OVI2TDAFAX9ZB119MDMB", "dateTime": 1515953638053}, {"current_trial": 45, "trialdata": {"rt": -1, "trial_type": "single-stim", "stimulus": "<p id=\"stim\">9</p>", "internal_node_id": "0.0-35.0-1.0", "time_elapsed": 334891, "key_press": -1, "trial_index": 45}, "uniqueid": "MTK1530:351SEKWQS1OVI2TDAFAX9ZB119MDMB", "dateTime": 1515953639055}, {"current_trial": 46, "trialdata": {"rt": -1, "trial_type": "single-stim", "stimulus": "<p id=\"stim\">8</p>", "internal_node_id": "0.0-35.0-2.0", "time_elapsed": 335893, "key_press": -1, "trial_index": 46}, "uniqueid": "MTK1530:351SEKWQS1OVI2TDAFAX9ZB119MDMB", "dateTime": 1515953640057}, {"current_trial": 47, "trialdata": {"rt": -1, "trial_type": "single-stim", "stimulus": "<p id=\"stim\">7</p>", "internal_node_id": "0.0-35.0-3.0", "time_elapsed": 336895, "key_press": -1, "trial_index": 47}, "uniqueid": "MTK1530:351SEKWQS1OVI2TDAFAX9ZB119MDMB", "dateTime": 1515953641059}, {"current_trial": 48, "trialdata": {"rt": -1, "trial_type": "single-stim", "stimulus": "<p id=\"stim\">6</p>", "internal_node_id": "0.0-35.0-4.0", "time_elapsed": 337897, "key_press": -1, "trial_index": 48}, "uniqueid": "MTK1530:351SEKWQS1OVI2TDAFAX9ZB119MDMB", "dateTime": 1515953642061}, {"current_trial": 49, "trialdata": {"rt": -1, "trial_type": "single-stim", "stimulus": "<p id=\"stim\">5</p>", "internal_node_id": "0.0-35.0-5.0", "time_elapsed": 338899, "key_press": -1, "trial_index": 49}, "uniqueid": "MTK1530:351SEKWQS1OVI2TDAFAX9ZB119MDMB", "dateTime": 1515953643063}, {"current_trial": 50, "trialdata": {"rt": -1, "trial_type": "single-stim", "stimulus": "<p id=\"stim\">4</p>", "internal_node_id": "0.0-35.0-6.0", "time_elapsed": 339901, "key_press": -1, "trial_index": 50}, "uniqueid": "MTK1530:351SEKWQS1OVI2TDAFAX9ZB119MDMB", "dateTime": 1515953644065}, {"current_trial": 51, "trialdata": {"rt": -1, "trial_type": "single-stim", "stimulus": "<p id=\"stim\">3</p>", "internal_node_id": "0.0-35.0-7.0", "time_elapsed": 340903, "key_press": -1, "trial_index": 51}, "uniqueid": "MTK1530:351SEKWQS1OVI2TDAFAX9ZB119MDMB", "dateTime": 1515953645067}, {"current_trial": 52, "trialdata": {"rt": -1, "trial_type": "single-stim", "stimulus": "<p id=\"stim\">2</p>", "internal_node_id": "0.0-35.0-8.0", "time_elapsed": 341905, "key_press": -1, "trial_index": 52}, "uniqueid": "MTK1530:351SEKWQS1OVI2TDAFAX9ZB119MDMB", "dateTime": 1515953646070}, {"current_trial": 53, "trialdata": {"rt": -1, "trial_type": "single-stim", "stimulus": "<p id=\"stim\">1</p>", "internal_node_id": "0.0-35.0-9.0", "time_elapsed": 342908, "key_press": -1, "trial_index": 53}, "uniqueid": "MTK1530:351SEKWQS1OVI2TDAFAX9ZB119MDMB", "dateTime": 1515953647072}, {"current_trial": 54, "trialdata": {"rt": -1, "trial_type": "single-stim", "stimulus": "<p id=\"stim\">+</p>", "internal_node_id": "0.0-36.0-0.0", "time_elapsed": 344411, "key_press": -1, "type": "FIXATION", "trial_index": 54}, "uniqueid": "MTK1530:351SEKWQS1OVI2TDAFAX9ZB119MDMB", "dateTime": 1515953648575}, {"current_trial": 55, "trialdata": {"rt": -1, "trial_type": "single-stim", "word": "scotch", "stimulus": "<p id=\"stim\">SCOTCH</p>", "conditions": [18, 1200, "v", 18000], "internal_node_id": "0.0-37.0", "trial": 1, "time_elapsed": 345613, "serialpos": 0, "key_press": -1, "wordID": 1250, "type": "PRES_VIS", "trial_index": 55}, "uniqueid": "MTK1530:351SEKWQS1OVI2TDAFAX9ZB119MDMB", "dateTime": 1515953649777}, {"current_trial": 56, "trialdata": {"rt": -1, "trial_type": "single-stim", "word": "suspect", "stimulus": "<p id=\"stim\">SUSPECT</p>", "conditions": [18, 1200, "v", 18000], "internal_node_id": "0.0-38.0", "trial": 1, "time_elapsed": 347828, "serialpos": 1, "key_press": -1, "wordID": 1414, "type": "PRES_VIS", "trial_index": 56}, "uniqueid": "MTK1530:351SEKWQS1OVI2TDAFAX9ZB119MDMB", "dateTime": 1515953651992}, {"current_trial": 57, "trialdata": {"rt": -1, "trial_type": "single-stim", "word": "backbone", "stimulus": "<p id=\"stim\">BACKBONE</p>", "conditions": [18, 1200, "v", 18000], "internal_node_id": "0.0-39.0", "trial": 1, "time_elapsed": 349860, "serialpos": 2, "key_press": -1, "wordID": 65, "type": "PRES_VIS", "trial_index": 57}, "uniqueid": "MTK1530:351SEKWQS1OVI2TDAFAX9ZB119MDMB", "dateTime": 1515953654024}, {"current_trial": 58, "trialdata": {"rt": -1, "trial_type": "single-stim", "word": "salad", "stimulus": "<p id=\"stim\">SALAD</p>", "conditions": [18, 1200, "v", 18000], "internal_node_id": "0.0-40.0", "trial": 1, "time_elapsed": 352012, "serialpos": 3, "key_press": -1, "wordID": 1223, "type": "PRES_VIS", "trial_index": 58}, "uniqueid": "MTK1530:351SEKWQS1OVI2TDAFAX9ZB119MDMB", "dateTime": 1515953656176}, {"current_trial": 59, "trialdata": {"rt": -1, "trial_type": "single-stim", "word": "actress", "stimulus": "<p id=\"stim\">ACTRESS</p>", "conditions": [18, 1200, "v", 18000], "internal_node_id": "0.0-41.0", "trial": 1, "time_elapsed": 354183, "serialpos": 4, "key_press": -1, "wordID": 5, "type": "PRES_VIS", "trial_index": 59}, "uniqueid": "MTK1530:351SEKWQS1OVI2TDAFAX9ZB119MDMB", "dateTime": 1515953658347}, {"current_trial": 60, "trialdata": {"rt": -1, "trial_type": "single-stim", "word": "shrub", "stimulus": "<p id=\"stim\">SHRUB</p>", "conditions": [18, 1200, "v", 18000], "internal_node_id": "0.0-42.0", "trial": 1, "time_elapsed": 356561, "serialpos": 5, "key_press": -1, "wordID": 1298, "type": "PRES_VIS", "trial_index": 60}, "uniqueid": "MTK1530:351SEKWQS1OVI2TDAFAX9ZB119MDMB", "dateTime": 1515953660725}, {"current_trial": 61, "trialdata": {"rt": -1, "trial_type": "single-stim", "word": "rabbit", "stimulus": "<p id=\"stim\">RABBIT</p>", "conditions": [18, 1200, "v", 18000], "internal_node_id": "0.0-43.0", "trial": 1, "time_elapsed": 358751, "serialpos": 6, "key_press": -1, "wordID": 1151, "type": "PRES_VIS", "trial_index": 61}, "uniqueid": "MTK1530:351SEKWQS1OVI2TDAFAX9ZB119MDMB", "dateTime": 1515953662915}, {"current_trial": 62, "trialdata": {"rt": -1, "trial_type": "single-stim", "word": "sunset", "stimulus": "<p id=\"stim\">SUNSET</p>", "conditions": [18, 1200, "v", 18000], "internal_node_id": "0.0-44.0", "trial": 1, "time_elapsed": 361100, "serialpos": 7, "key_press": -1, "wordID": 1407, "type": "PRES_VIS", "trial_index": 62}, "uniqueid": "MTK1530:351SEKWQS1OVI2TDAFAX9ZB119MDMB", "dateTime": 1515953665264}, {"current_trial": 63, "trialdata": {"rt": -1, "trial_type": "single-stim", "word": "cloud", "stimulus": "<p id=\"stim\">CLOUD</p>", "conditions": [18, 1200, "v", 18000], "internal_node_id": "0.0-45.0", "trial": 1, "time_elapsed": 363334, "serialpos": 8, "key_press": -1, "wordID": 327, "type": "PRES_VIS", "trial_index": 63}, "uniqueid": "MTK1530:351SEKWQS1OVI2TDAFAX9ZB119MDMB", "dateTime": 1515953667498}, {"current_trial": 64, "trialdata": {"rt": -1, "trial_type": "single-stim", "word": "egypt", "stimulus": "<p id=\"stim\">EGYPT</p>", "conditions": [18, 1200, "v", 18000], "internal_node_id": "0.0-46.0", "trial": 1, "time_elapsed": 365374, "serialpos": 9, "key_press": -1, "wordID": 518, "type": "PRES_VIS", "trial_index": 64}, "uniqueid": "MTK1530:351SEKWQS1OVI2TDAFAX9ZB119MDMB", "dateTime": 1515953669539}, {"current_trial": 65, "trialdata": {"rt": -1, "trial_type": "single-stim", "word": "lover", "stimulus": "<p id=\"stim\">LOVER</p>", "conditions": [18, 1200, "v", 18000], "internal_node_id": "0.0-47.0", "trial": 1, "time_elapsed": 367723, "serialpos": 10, "key_press": -1, "wordID": 845, "type": "PRES_VIS", "trial_index": 65}, "uniqueid": "MTK1530:351SEKWQS1OVI2TDAFAX9ZB119MDMB", "dateTime": 1515953671887}, {"current_trial": 66, "trialdata": {"rt": -1, "trial_type": "single-stim", "word": "slide", "stimulus": "<p id=\"stim\">SLIDE</p>", "conditions": [18, 1200, "v", 18000], "internal_node_id": "0.0-48.0", "trial": 1, "time_elapsed": 370076, "serialpos": 11, "key_press": -1, "wordID": 1325, "type": "PRES_VIS", "trial_index": 66}, "uniqueid": "MTK1530:351SEKWQS1OVI2TDAFAX9ZB119MDMB", "dateTime": 1515953674241}, {"current_trial": 67, "trialdata": {"rt": -1, "trial_type": "single-stim", "word": "agent", "stimulus": "<p id=\"stim\">AGENT</p>", "conditions": [18, 1200, "v", 18000], "internal_node_id": "0.0-49.0", "trial": 1, "time_elapsed": 372081, "serialpos": 12, "key_press": -1, "wordID": 9, "type": "PRES_VIS", "trial_index": 67}, "uniqueid": "MTK1530:351SEKWQS1OVI2TDAFAX9ZB119MDMB", "dateTime": 1515953676246}, {"current_trial": 68, "trialdata": {"rt": -1, "trial_type": "single-stim", "word": "sparrow", "stimulus": "<p id=\"stim\">SPARROW</p>", "conditions": [18, 1200, "v", 18000], "internal_node_id": "0.0-50.0", "trial": 1, "time_elapsed": 374335, "serialpos": 13, "key_press": -1, "wordID": 1346, "type": "PRES_VIS", "trial_index": 68}, "uniqueid": "MTK1530:351SEKWQS1OVI2TDAFAX9ZB119MDMB", "dateTime": 1515953678503}, {"current_trial": 69, "trialdata": {"rt": -1, "trial_type": "single-stim", "word": "bison", "stimulus": "<p id=\"stim\">BISON</p>", "conditions": [18, 1200, "v", 18000], "internal_node_id": "0.0-51.0", "trial": 1, "time_elapsed": 376626, "serialpos": 14, "key_press": -1, "wordID": 130, "type": "PRES_VIS", "trial_index": 69}, "uniqueid": "MTK1530:351SEKWQS1OVI2TDAFAX9ZB119MDMB", "dateTime": 1515953680790}, {"current_trial": 70, "trialdata": {"rt": -1, "trial_type": "single-stim", "word": "elbow", "stimulus": "<p id=\"stim\">ELBOW</p>", "conditions": [18, 1200, "v", 18000], "internal_node_id": "0.0-52.0", "trial": 1, "time_elapsed": 378903, "serialpos": 15, "key_press": -1, "wordID": 519, "type": "PRES_VIS", "trial_index": 70}, "uniqueid": "MTK1530:351SEKWQS1OVI2TDAFAX9ZB119MDMB", "dateTime": 1515953683067}, {"current_trial": 71, "trialdata": {"rt": -1, "trial_type": "single-stim", "word": "record", "stimulus": "<p id=\"stim\">RECORD</p>", "conditions": [18, 1200, "v", 18000], "internal_node_id": "0.0-53.0", "trial": 1, "time_elapsed": 381207, "serialpos": 16, "key_press": -1, "wordID": 1175, "type": "PRES_VIS", "trial_index": 71}, "uniqueid": "MTK1530:351SEKWQS1OVI2TDAFAX9ZB119MDMB", "dateTime": 1515953685371}, {"current_trial": 72, "trialdata": {"rt": -1, "trial_type": "single-stim", "word": "machine", "stimulus": "<p id=\"stim\">MACHINE</p>", "conditions": [18, 1200, "v", 18000], "internal_node_id": "0.0-54.0", "trial": 1, "time_elapsed": 383411, "serialpos": 17, "key_press": -1, "wordID": 851, "type": "PRES_VIS", "trial_index": 72}, "uniqueid": "MTK1530:351SEKWQS1OVI2TDAFAX9ZB119MDMB", "dateTime": 1515953687575}, {"current_trial": 73, "trialdata": {"rt": -1, "trial_type": "single-stim", "stimulus": "", "internal_node_id": "0.0-55.0-0.0", "time_elapsed": 385964, "key_press": -1, "type": "PRE_RECALL_DELAY", "trial_index": 73}, "uniqueid": "MTK1530:351SEKWQS1OVI2TDAFAX9ZB119MDMB", "dateTime": 1515953690128}, {"current_trial": 74, "trialdata": {"rt": -1000, "trial_type": "single-audio", "stimulus": "/static/audio/400Hz.wav", "internal_node_id": "0.0-56.0", "time_elapsed": 386467, "key_press": -1, "type": "PRE_RECALL_ALERT", "trial_index": 74}, "uniqueid": "MTK1530:351SEKWQS1OVI2TDAFAX9ZB119MDMB", "dateTime": 1515953690631}, {"current_trial": 75, "trialdata": {"rt": [2684, 4063, 5682, 7363, 12799, 16365, 25097, 33250, 59766], "recwords": ["scotch", "elbow", "backbone", "sunset", "egypt", "machine", "record", "slide", "rabbit"], "key_times": [1735, 1914, 2161, 2249, 2467, 2532, 2684, 3464, 3534, 3703, 3781, 3922, 4063, 4287, 4375, 4475, 4897, 5142, 5273, 5416, 5492, 5682, 6542, 6631, 6800, 6869, 6945, 7070, 7363, 11201, 11397, 11546, 11651, 11804, 12799, 13098, 13203, 13597, 13721, 14893, 14946, 15077, 15184, 15251, 15404, 16266, 16365, 24357, 24448, 24642, 24733, 24850, 25001, 25097, 32650, 32708, 32863, 32926, 33120, 33250, 59184, 59289, 59377, 59509, 59590, 59637, 59766], "trial_type": "free-recall", "conditions": [18, 1200, "v", 18000], "internal_node_id": "0.0-57.0-0.0", "key_presses": [83, 67, 79, 84, 67, 72, 13, 69, 76, 66, 79, 87, 13, 66, 65, 67, 75, 66, 79, 78, 69, 13, 83, 85, 78, 83, 69, 84, 13, 69, 71, 89, 80, 84, 13, 83, 80, 8, 8, 77, 65, 67, 72, 73, 78, 69, 13, 82, 69, 67, 79, 82, 68, 13, 83, 76, 73, 68, 69, 13, 82, 65, 66, 66, 73, 84, 13], "trial": 1, "time_elapsed": 446472, "type": "FREE_RECALL", "trial_index": 75}, "uniqueid": "MTK1530:351SEKWQS1OVI2TDAFAX9ZB119MDMB", "dateTime": 1515953750643}, {"current_trial": 76, "trialdata": {"rt": 2910, "trial_type": "text", "internal_node_id": "0.0-58.0", "time_elapsed": 451391, "key_press": 32, "type": "INSTRUCTIONS", "trial_index": 76}, "uniqueid": "MTK1530:351SEKWQS1OVI2TDAFAX9ZB119MDMB", "dateTime": 1515953755555}, {"current_trial": 77, "trialdata": {"rt": [3873, 10994, 14168, 16437, 18783, 20870, 23889], "trial_type": "math-distractor", "key_times": [3580, 3722, 3873, 3889, 10803, 10851, 10994, 14027, 14168, 16240, 16325, 16437, 18610, 18640, 18783, 20740, 20870, 22877, 23424, 23889], "responses": ["19", "12", "9", "21", "12", "9", "17"], "num2": [9, 1, 6, 5, 1, 2, 6, 4], "num3": [3, 4, 1, 8, 2, 6, 4, 4], "conditions": [12, 800, "v", 24000], "internal_node_id": "0.0-59.0", "key_presses": [49, 57, 13, 16, 49, 50, 13, 57, 13, 50, 49, 13, 49, 50, 13, 57, 13, 49, 55, 13], "trial": 2, "time_elapsed": 476396, "type": "DISTRACTOR", "trial_index": 77, "num1": [7, 7, 2, 8, 9, 1, 7, 2]}, "uniqueid": "MTK1530:351SEKWQS1OVI2TDAFAX9ZB119MDMB", "dateTime": 1515953780560}, {"current_trial": 78, "trialdata": {"rt": -1, "trial_type": "single-stim", "stimulus": "<p id=\"stim\">10</p>", "internal_node_id": "0.0-60.0-0.0", "time_elapsed": 479399, "key_press": -1, "trial_index": 78}, "uniqueid": "MTK1530:351SEKWQS1OVI2TDAFAX9ZB119MDMB", "dateTime": 1515953783563}, {"current_trial": 79, "trialdata": {"rt": -1, "trial_type": "single-stim", "stimulus": "<p id=\"stim\">9</p>", "internal_node_id": "0.0-60.0-1.0", "time_elapsed": 480401, "key_press": -1, "trial_index": 79}, "uniqueid": "MTK1530:351SEKWQS1OVI2TDAFAX9ZB119MDMB", "dateTime": 1515953784566}, {"current_trial": 80, "trialdata": {"rt": -1, "trial_type": "single-stim", "stimulus": "<p id=\"stim\">8</p>", "internal_node_id": "0.0-60.0-2.0", "time_elapsed": 481403, "key_press": -1, "trial_index": 80}, "uniqueid": "MTK1530:351SEKWQS1OVI2TDAFAX9ZB119MDMB", "dateTime": 1515953785567}, {"current_trial": 81, "trialdata": {"rt": -1, "trial_type": "single-stim", "stimulus": "<p id=\"stim\">7</p>", "internal_node_id": "0.0-60.0-3.0", "time_elapsed": 482405, "key_press": -1, "trial_index": 81}, "uniqueid": "MTK1530:351SEKWQS1OVI2TDAFAX9ZB119MDMB", "dateTime": 1515953786569}, {"current_trial": 82, "trialdata": {"rt": -1, "trial_type": "single-stim", "stimulus": "<p id=\"stim\">6</p>", "internal_node_id": "0.0-60.0-4.0", "time_elapsed": 483407, "key_press": -1, "trial_index": 82}, "uniqueid": "MTK1530:351SEKWQS1OVI2TDAFAX9ZB119MDMB", "dateTime": 1515953787571}, {"current_trial": 83, "trialdata": {"rt": -1, "trial_type": "single-stim", "stimulus": "<p id=\"stim\">5</p>", "internal_node_id": "0.0-60.0-5.0", "time_elapsed": 484408, "key_press": -1, "trial_index": 83}, "uniqueid": "MTK1530:351SEKWQS1OVI2TDAFAX9ZB119MDMB", "dateTime": 1515953788572}, {"current_trial": 84, "trialdata": {"rt": -1, "trial_type": "single-stim", "stimulus": "<p id=\"stim\">4</p>", "internal_node_id": "0.0-60.0-6.0", "time_elapsed": 485410, "key_press": -1, "trial_index": 84}, "uniqueid": "MTK1530:351SEKWQS1OVI2TDAFAX9ZB119MDMB", "dateTime": 1515953789574}, {"current_trial": 85, "trialdata": {"rt": -1, "trial_type": "single-stim", "stimulus": "<p id=\"stim\">3</p>", "internal_node_id": "0.0-60.0-7.0", "time_elapsed": 486411, "key_press": -1, "trial_index": 85}, "uniqueid": "MTK1530:351SEKWQS1OVI2TDAFAX9ZB119MDMB", "dateTime": 1515953790576}, {"current_trial": 86, "trialdata": {"rt": -1, "trial_type": "single-stim", "stimulus": "<p id=\"stim\">2</p>", "internal_node_id": "0.0-60.0-8.0", "time_elapsed": 487414, "key_press": -1, "trial_index": 86}, "uniqueid": "MTK1530:351SEKWQS1OVI2TDAFAX9ZB119MDMB", "dateTime": 1515953791579}, {"current_trial": 87, "trialdata": {"rt": -1, "trial_type": "single-stim", "stimulus": "<p id=\"stim\">1</p>", "internal_node_id": "0.0-60.0-9.0", "time_elapsed": 488417, "key_press": -1, "trial_index": 87}, "uniqueid": "MTK1530:351SEKWQS1OVI2TDAFAX9ZB119MDMB", "dateTime": 1515953792581}, {"current_trial": 88, "trialdata": {"rt": -1, "trial_type": "single-stim", "stimulus": "<p id=\"stim\">+</p>", "internal_node_id": "0.0-61.0-0.0", "time_elapsed": 489919, "key_press": -1, "type": "FIXATION", "trial_index": 88}, "uniqueid": "MTK1530:351SEKWQS1OVI2TDAFAX9ZB119MDMB", "dateTime": 1515953794083}, {"current_trial": 89, "trialdata": {"rt": -1, "trial_type": "single-stim", "word": "mildew", "stimulus": "<p id=\"stim\">MILDEW</p>", "conditions": [12, 800, "v", 24000], "internal_node_id": "0.0-62.0", "trial": 2, "time_elapsed": 490720, "serialpos": 0, "key_press": -1, "wordID": 892, "type": "PRES_VIS", "trial_index": 89}, "uniqueid": "MTK1530:351SEKWQS1OVI2TDAFAX9ZB119MDMB", "dateTime": 1515953794885}, {"current_trial": 90, "trialdata": {"rt": -1, "trial_type": "single-stim", "word": "palace", "stimulus": "<p id=\"stim\">PALACE</p>", "conditions": [12, 800, "v", 24000], "internal_node_id": "0.0-63.0", "trial": 2, "time_elapsed": 492464, "serialpos": 1, "key_press": -1, "wordID": 1005, "type": "PRES_VIS", "trial_index": 90}, "uniqueid": "MTK1530:351SEKWQS1OVI2TDAFAX9ZB119MDMB", "dateTime": 1515953796628}, {"current_trial": 91, "trialdata": {"rt": -1, "trial_type": "single-stim", "word": "victim", "stimulus": "<p id=\"stim\">VICTIM</p>", "conditions": [12, 800, "v", 24000], "internal_node_id": "0.0-64.0", "trial": 2, "time_elapsed": 494367, "serialpos": 2, "key_press": -1, "wordID": 1561, "type": "PRES_VIS", "trial_index": 91}, "uniqueid": "MTK1530:351SEKWQS1OVI2TDAFAX9ZB119MDMB", "dateTime": 1515953798531}, {"current_trial": 92, "trialdata": {"rt": -1, "trial_type": "single-stim", "word": "lily", "stimulus": "<p id=\"stim\">LILY</p>", "conditions": [12, 800, "v", 24000], "internal_node_id": "0.0-65.0", "trial": 2, "time_elapsed": 496118, "serialpos": 3, "key_press": -1, "wordID": 820, "type": "PRES_VIS", "trial_index": 92}, "uniqueid": "MTK1530:351SEKWQS1OVI2TDAFAX9ZB119MDMB", "dateTime": 1515953800282}, {"current_trial": 93, "trialdata": {"rt": -1, "trial_type": "single-stim", "word": "pepper", "stimulus": "<p id=\"stim\">PEPPER</p>", "conditions": [12, 800, "v", 24000], "internal_node_id": "0.0-66.0", "trial": 2, "time_elapsed": 497998, "serialpos": 4, "key_press": -1, "wordID": 1046, "type": "PRES_VIS", "trial_index": 93}, "uniqueid": "MTK1530:351SEKWQS1OVI2TDAFAX9ZB119MDMB", "dateTime": 1515953802162}, {"current_trial": 94, "trialdata": {"rt": -1, "trial_type": "single-stim", "word": "beef", "stimulus": "<p id=\"stim\">BEEF</p>", "conditions": [12, 800, "v", 24000], "internal_node_id": "0.0-67.0", "trial": 2, "time_elapsed": 499884, "serialpos": 5, "key_press": -1, "wordID": 112, "type": "PRES_VIS", "trial_index": 94}, "uniqueid": "MTK1530:351SEKWQS1OVI2TDAFAX9ZB119MDMB", "dateTime": 1515953804048}, {"current_trial": 95, "trialdata": {"rt": -1, "trial_type": "single-stim", "word": "bank", "stimulus": "<p id=\"stim\">BANK</p>", "conditions": [12, 800, "v", 24000], "internal_node_id": "0.0-68.0", "trial": 2, "time_elapsed": 501769, "serialpos": 6, "key_press": -1, "wordID": 82, "type": "PRES_VIS", "trial_index": 95}, "uniqueid": "MTK1530:351SEKWQS1OVI2TDAFAX9ZB119MDMB", "dateTime": 1515953805934}, {"current_trial": 96, "trialdata": {"rt": -1, "trial_type": "single-stim", "word": "banker", "stimulus": "<p id=\"stim\">BANKER</p>", "conditions": [12, 800, "v", 24000], "internal_node_id": "0.0-69.0", "trial": 2, "time_elapsed": 503689, "serialpos": 7, "key_press": -1, "wordID": 83, "type": "PRES_VIS", "trial_index": 96}, "uniqueid": "MTK1530:351SEKWQS1OVI2TDAFAX9ZB119MDMB", "dateTime": 1515953807853}, {"current_trial": 97, "trialdata": {"rt": -1, "trial_type": "single-stim", "word": "silk", "stimulus": "<p id=\"stim\">SILK</p>", "conditions": [12, 800, "v", 24000], "internal_node_id": "0.0-70.0", "trial": 2, "time_elapsed": 505516, "serialpos": 8, "key_press": -1, "wordID": 1306, "type": "PRES_VIS", "trial_index": 97}, "uniqueid": "MTK1530:351SEKWQS1OVI2TDAFAX9ZB119MDMB", "dateTime": 1515953809681}, {"current_trial": 98, "trialdata": {"rt": -1, "trial_type": "single-stim", "word": "trench", "stimulus": "<p id=\"stim\">TRENCH</p>", "conditions": [12, 800, "v", 24000], "internal_node_id": "0.0-71.0", "trial": 2, "time_elapsed": 507149, "serialpos": 9, "key_press": -1, "wordID": 1502, "type": "PRES_VIS", "trial_index": 98}, "uniqueid": "MTK1530:351SEKWQS1OVI2TDAFAX9ZB119MDMB", "dateTime": 1515953811313}, {"current_trial": 99, "trialdata": {"rt": -1, "trial_type": "single-stim", "word": "orchid", "stimulus": "<p id=\"stim\">ORCHID</p>", "conditions": [12, 800, "v", 24000], "internal_node_id": "0.0-72.0", "trial": 2, "time_elapsed": 509003, "serialpos": 10, "key_press": -1, "wordID": 981, "type": "PRES_VIS", "trial_index": 99}, "uniqueid": "MTK1530:351SEKWQS1OVI2TDAFAX9ZB119MDMB", "dateTime": 1515953813168}, {"current_trial": 100, "trialdata": {"rt": -1, "trial_type": "single-stim", "word": "plaid", "stimulus": "<p id=\"stim\">PLAID</p>", "conditions": [12, 800, "v", 24000], "internal_node_id": "0.0-73.0", "trial": 2, "time_elapsed": 510708, "serialpos": 11, "key_press": -1, "wordID": 1079, "type": "PRES_VIS", "trial_index": 100}, "uniqueid": "MTK1530:351SEKWQS1OVI2TDAFAX9ZB119MDMB", "dateTime": 1515953814872}, {"current_trial": 101, "trialdata": {"rt": -1, "trial_type": "single-stim", "stimulus": "", "internal_node_id": "0.0-74.0-0.0", "time_elapsed": 513244, "key_press": -1, "type": "PRE_RECALL_DELAY", "trial_index": 101}, "uniqueid": "MTK1530:351SEKWQS1OVI2TDAFAX9ZB119MDMB", "dateTime": 1515953817408}, {"current_trial": 102, "trialdata": {"rt": -1000, "trial_type": "single-audio", "stimulus": "/static/audio/400Hz.wav", "internal_node_id": "0.0-75.0", "time_elapsed": 513746, "key_press": -1, "type": "PRE_RECALL_ALERT", "trial_index": 102}, "uniqueid": "MTK1530:351SEKWQS1OVI2TDAFAX9ZB119MDMB", "dateTime": 1515953817910}, {"current_trial": 103, "trialdata": {"rt": [2504, 5032, 6083, 15176, 16436, 19221, 58944], "recwords": ["mildew", "palace", "victim", "pepper", "beef", "plaid", "statue"], "key_times": [1213, 1390, 1562, 1671, 1978, 2078, 2504, 3763, 4122, 4341, 4466, 4574, 4671, 4769, 4924, 5032, 5284, 5392, 5509, 5719, 5788, 5940, 6083, 11798, 11988, 12081, 12184, 12363, 13590, 13714, 13847, 13978, 14200, 14422, 14530, 14628, 14771, 14873, 14949, 15176, 15815, 15921, 16065, 16249, 16436, 18610, 18793, 18915, 19000, 19126, 19221, 58165, 58358, 58481, 58603, 58741, 58856, 58944], "trial_type": "free-recall", "conditions": [12, 800, "v", 24000], "internal_node_id": "0.0-76.0-0.0", "key_presses": [77, 73, 76, 68, 69, 87, 13, 86, 8, 80, 65, 76, 65, 67, 69, 13, 86, 73, 67, 84, 73, 77, 13, 80, 76, 65, 73, 68, 8, 8, 8, 8, 8, 80, 69, 80, 80, 69, 82, 13, 66, 69, 69, 70, 13, 80, 76, 65, 73, 68, 13, 83, 84, 65, 84, 85, 69, 13], "trial": 2, "time_elapsed": 573753, "type": "FREE_RECALL", "trial_index": 103}, "uniqueid": "MTK1530:351SEKWQS1OVI2TDAFAX9ZB119MDMB", "dateTime": 1515953877920}, {"current_trial": 104, "trialdata": {"rt": 1807, "trial_type": "text", "internal_node_id": "0.0-77.0", "time_elapsed": 577565, "key_press": 32, "type": "INSTRUCTIONS", "trial_index": 104}, "uniqueid": "MTK1530:351SEKWQS1OVI2TDAFAX9ZB119MDMB", "dateTime": 1515953881730}, {"current_trial": 105, "trialdata": {"rt": [2492, 5193, 8440, 10884], "trial_type": "math-distractor", "key_times": [2117, 2202, 2492, 4641, 4736, 5193, 7863, 8369, 8440, 10657, 10794, 10884], "responses": ["13", "10", "16", "22"], "num2": [3, 2, 8, 8, 9], "num3": [6, 4, 7, 8, 6], "conditions": [24, 800, "v", 12000], "internal_node_id": "0.0-78.0", "key_presses": [49, 51, 13, 49, 48, 13, 49, 54, 13, 50, 50, 13], "trial": 3, "time_elapsed": 591572, "type": "DISTRACTOR", "trial_index": 105, "num1": [4, 4, 1, 6, 6]}, "uniqueid": "MTK1530:351SEKWQS1OVI2TDAFAX9ZB119MDMB", "dateTime": 1515953895736}, {"current_trial": 106, "trialdata": {"rt": -1, "trial_type": "single-stim", "stimulus": "<p id=\"stim\">10</p>", "internal_node_id": "0.0-79.0-0.0", "time_elapsed": 594575, "key_press": -1, "trial_index": 106}, "uniqueid": "MTK1530:351SEKWQS1OVI2TDAFAX9ZB119MDMB", "dateTime": 1515953898739}, {"current_trial": 107, "trialdata": {"rt": -1, "trial_type": "single-stim", "stimulus": "<p id=\"stim\">9</p>", "internal_node_id": "0.0-79.0-1.0", "time_elapsed": 595577, "key_press": -1, "trial_index": 107}, "uniqueid": "MTK1530:351SEKWQS1OVI2TDAFAX9ZB119MDMB", "dateTime": 1515953899743}, {"current_trial": 108, "trialdata": {"rt": -1, "trial_type": "single-stim", "stimulus": "<p id=\"stim\">8</p>", "internal_node_id": "0.0-79.0-2.0", "time_elapsed": 596581, "key_press": -1, "trial_index": 108}, "uniqueid": "MTK1530:351SEKWQS1OVI2TDAFAX9ZB119MDMB", "dateTime": 1515953900745}, {"current_trial": 109, "trialdata": {"rt": -1, "trial_type": "single-stim", "stimulus": "<p id=\"stim\">7</p>", "internal_node_id": "0.0-79.0-3.0", "time_elapsed": 597583, "key_press": -1, "trial_index": 109}, "uniqueid": "MTK1530:351SEKWQS1OVI2TDAFAX9ZB119MDMB", "dateTime": 1515953901747}, {"current_trial": 110, "trialdata": {"rt": -1, "trial_type": "single-stim", "stimulus": "<p id=\"stim\">6</p>", "internal_node_id": "0.0-79.0-4.0", "time_elapsed": 598585, "key_press": -1, "trial_index": 110}, "uniqueid": "MTK1530:351SEKWQS1OVI2TDAFAX9ZB119MDMB", "dateTime": 1515953902749}, {"current_trial": 111, "trialdata": {"rt": -1, "trial_type": "single-stim", "stimulus": "<p id=\"stim\">5</p>", "internal_node_id": "0.0-79.0-5.0", "time_elapsed": 599588, "key_press": -1, "trial_index": 111}, "uniqueid": "MTK1530:351SEKWQS1OVI2TDAFAX9ZB119MDMB", "dateTime": 1515953903752}, {"current_trial": 112, "trialdata": {"rt": -1, "trial_type": "single-stim", "stimulus": "<p id=\"stim\">4</p>", "internal_node_id": "0.0-79.0-6.0", "time_elapsed": 600590, "key_press": -1, "trial_index": 112}, "uniqueid": "MTK1530:351SEKWQS1OVI2TDAFAX9ZB119MDMB", "dateTime": 1515953904754}, {"current_trial": 113, "trialdata": {"rt": -1, "trial_type": "single-stim", "stimulus": "<p id=\"stim\">3</p>", "internal_node_id": "0.0-79.0-7.0", "time_elapsed": 601593, "key_press": -1, "trial_index": 113}, "uniqueid": "MTK1530:351SEKWQS1OVI2TDAFAX9ZB119MDMB", "dateTime": 1515953905757}, {"current_trial": 114, "trialdata": {"rt": -1, "trial_type": "single-stim", "stimulus": "<p id=\"stim\">2</p>", "internal_node_id": "0.0-79.0-8.0", "time_elapsed": 602595, "key_press": -1, "trial_index": 114}, "uniqueid": "MTK1530:351SEKWQS1OVI2TDAFAX9ZB119MDMB", "dateTime": 1515953906759}, {"current_trial": 115, "trialdata": {"rt": -1, "trial_type": "single-stim", "stimulus": "<p id=\"stim\">1</p>", "internal_node_id": "0.0-79.0-9.0", "time_elapsed": 603598, "key_press": -1, "trial_index": 115}, "uniqueid": "MTK1530:351SEKWQS1OVI2TDAFAX9ZB119MDMB", "dateTime": 1515953907762}, {"current_trial": 116, "trialdata": {"rt": -1, "trial_type": "single-stim", "stimulus": "<p id=\"stim\">+</p>", "internal_node_id": "0.0-80.0-0.0", "time_elapsed": 605099, "key_press": -1, "type": "FIXATION", "trial_index": 116}, "uniqueid": "MTK1530:351SEKWQS1OVI2TDAFAX9ZB119MDMB", "dateTime": 1515953909264}, {"current_trial": 117, "trialdata": {"rt": -1, "trial_type": "single-stim", "word": "leg", "stimulus": "<p id=\"stim\">LEG</p>", "conditions": [24, 800, "v", 12000], "internal_node_id": "0.0-81.0", "trial": 3, "time_elapsed": 605901, "serialpos": 0, "key_press": -1, "wordID": 808, "type": "PRES_VIS", "trial_index": 117}, "uniqueid": "MTK1530:351SEKWQS1OVI2TDAFAX9ZB119MDMB", "dateTime": 1515953910065}, {"current_trial": 118, "trialdata": {"rt": -1, "trial_type": "single-stim", "word": "ankle", "stimulus": "<p id=\"stim\">ANKLE</p>", "conditions": [24, 800, "v", 12000], "internal_node_id": "0.0-82.0", "trial": 3, "time_elapsed": 607518, "serialpos": 1, "key_press": -1, "wordID": 23, "type": "PRES_VIS", "trial_index": 118}, "uniqueid": "MTK1530:351SEKWQS1OVI2TDAFAX9ZB119MDMB", "dateTime": 1515953911682}, {"current_trial": 119, "trialdata": {"rt": -1, "trial_type": "single-stim", "word": "knife", "stimulus": "<p id=\"stim\">KNIFE</p>", "conditions": [24, 800, "v", 12000], "internal_node_id": "0.0-83.0", "trial": 3, "time_elapsed": 609149, "serialpos": 2, "key_press": -1, "wordID": 784, "type": "PRES_VIS", "trial_index": 119}, "uniqueid": "MTK1530:351SEKWQS1OVI2TDAFAX9ZB119MDMB", "dateTime": 1515953913313}, {"current_trial": 120, "trialdata": {"rt": -1, "trial_type": "single-stim", "word": "burglar", "stimulus": "<p id=\"stim\">BURGLAR</p>", "conditions": [24, 800, "v", 12000], "internal_node_id": "0.0-84.0", "trial": 3, "time_elapsed": 611142, "serialpos": 3, "key_press": -1, "wordID": 199, "type": "PRES_VIS", "trial_index": 120}, "uniqueid": "MTK1530:351SEKWQS1OVI2TDAFAX9ZB119MDMB", "dateTime": 1515953915306}, {"current_trial": 121, "trialdata": {"rt": -1, "trial_type": "single-stim", "word": "server", "stimulus": "<p id=\"stim\">SERVER</p>", "conditions": [24, 800, "v", 12000], "internal_node_id": "0.0-85.0", "trial": 3, "time_elapsed": 613071, "serialpos": 4, "key_press": -1, "wordID": 1271, "type": "PRES_VIS", "trial_index": 121}, "uniqueid": "MTK1530:351SEKWQS1OVI2TDAFAX9ZB119MDMB", "dateTime": 1515953917236}, {"current_trial": 122, "trialdata": {"rt": -1, "trial_type": "single-stim", "word": "mask", "stimulus": "<p id=\"stim\">MASK</p>", "conditions": [24, 800, "v", 12000], "internal_node_id": "0.0-86.0", "trial": 3, "time_elapsed": 614763, "serialpos": 5, "key_press": -1, "wordID": 875, "type": "PRES_VIS", "trial_index": 122}, "uniqueid": "MTK1530:351SEKWQS1OVI2TDAFAX9ZB119MDMB", "dateTime": 1515953918928}, {"current_trial": 123, "trialdata": {"rt": -1, "trial_type": "single-stim", "word": "sausage", "stimulus": "<p id=\"stim\">SAUSAGE</p>", "conditions": [24, 800, "v", 12000], "internal_node_id": "0.0-87.0", "trial": 3, "time_elapsed": 616450, "serialpos": 6, "key_press": -1, "wordID": 1237, "type": "PRES_VIS", "trial_index": 123}, "uniqueid": "MTK1530:351SEKWQS1OVI2TDAFAX9ZB119MDMB", "dateTime": 1515953920614}, {"current_trial": 124, "trialdata": {"rt": -1, "trial_type": "single-stim", "word": "laser", "stimulus": "<p id=\"stim\">LASER</p>", "conditions": [24, 800, "v", 12000], "internal_node_id": "0.0-88.0", "trial": 3, "time_elapsed": 618341, "serialpos": 7, "key_press": -1, "wordID": 800, "type": "PRES_VIS", "trial_index": 124}, "uniqueid": "MTK1530:351SEKWQS1OVI2TDAFAX9ZB119MDMB", "dateTime": 1515953922505}, {"current_trial": 125, "trialdata": {"rt": -1, "trial_type": "single-stim", "word": "zebra", "stimulus": "<p id=\"stim\">ZEBRA</p>", "conditions": [24, 800, "v", 12000], "internal_node_id": "0.0-89.0", "trial": 3, "time_elapsed": 619982, "serialpos": 8, "key_press": -1, "wordID": 1634, "type": "PRES_VIS", "trial_index": 125}, "uniqueid": "MTK1530:351SEKWQS1OVI2TDAFAX9ZB119MDMB", "dateTime": 1515953924146}, {"current_trial": 126, "trialdata": {"rt": -1, "trial_type": "single-stim", "word": "critic", "stimulus": "<p id=\"stim\">CRITIC</p>", "conditions": [24, 800, "v", 12000], "internal_node_id": "0.0-90.0", "trial": 3, "time_elapsed": 621922, "serialpos": 9, "key_press": -1, "wordID": 409, "type": "PRES_VIS", "trial_index": 126}, "uniqueid": "MTK1530:351SEKWQS1OVI2TDAFAX9ZB119MDMB", "dateTime": 1515953926086}, {"current_trial": 127, "trialdata": {"rt": -1, "trial_type": "single-stim", "word": "pasta", "stimulus": "<p id=\"stim\">PASTA</p>", "conditions": [24, 800, "v", 12000], "internal_node_id": "0.0-91.0", "trial": 3, "time_elapsed": 623852, "serialpos": 10, "key_press": -1, "wordID": 1020, "type": "PRES_VIS", "trial_index": 127}, "uniqueid": "MTK1530:351SEKWQS1OVI2TDAFAX9ZB119MDMB", "dateTime": 1515953928016}, {"current_trial": 128, "trialdata": {"rt": -1, "trial_type": "single-stim", "word": "scarf", "stimulus": "<p id=\"stim\">SCARF</p>", "conditions": [24, 800, "v", 12000], "internal_node_id": "0.0-92.0", "trial": 3, "time_elapsed": 625630, "serialpos": 11, "key_press": -1, "wordID": 1245, "type": "PRES_VIS", "trial_index": 128}, "uniqueid": "MTK1530:351SEKWQS1OVI2TDAFAX9ZB119MDMB", "dateTime": 1515953929794}, {"current_trial": 129, "trialdata": {"rt": -1, "trial_type": "single-stim", "word": "turtle", "stimulus": "<p id=\"stim\">TURTLE</p>", "conditions": [24, 800, "v", 12000], "internal_node_id": "0.0-93.0", "trial": 3, "time_elapsed": 627237, "serialpos": 12, "key_press": -1, "wordID": 1521, "type": "PRES_VIS", "trial_index": 129}, "uniqueid": "MTK1530:351SEKWQS1OVI2TDAFAX9ZB119MDMB", "dateTime": 1515953931401}, {"current_trial": 130, "trialdata": {"rt": -1, "trial_type": "single-stim", "word": "sticker", "stimulus": "<p id=\"stim\">STICKER</p>", "conditions": [24, 800, "v", 12000], "internal_node_id": "0.0-94.0", "trial": 3, "time_elapsed": 628865, "serialpos": 13, "key_press": -1, "wordID": 1381, "type": "PRES_VIS", "trial_index": 130}, "uniqueid": "MTK1530:351SEKWQS1OVI2TDAFAX9ZB119MDMB", "dateTime": 1515953933029}, {"current_trial": 131, "trialdata": {"rt": -1, "trial_type": "single-stim", "word": "swamp", "stimulus": "<p id=\"stim\">SWAMP</p>", "conditions": [24, 800, "v", 12000], "internal_node_id": "0.0-95.0", "trial": 3, "time_elapsed": 630689, "serialpos": 14, "key_press": -1, "wordID": 1415, "type": "PRES_VIS", "trial_index": 131}, "uniqueid": "MTK1530:351SEKWQS1OVI2TDAFAX9ZB119MDMB", "dateTime": 1515953934853}, {"current_trial": 132, "trialdata": {"rt": -1, "trial_type": "single-stim", "word": "climber", "stimulus": "<p id=\"stim\">CLIMBER</p>", "conditions": [24, 800, "v", 12000], "internal_node_id": "0.0-96.0", "trial": 3, "time_elapsed": 632599, "serialpos": 15, "key_press": -1, "wordID": 322, "type": "PRES_VIS", "trial_index": 132}, "uniqueid": "MTK1530:351SEKWQS1OVI2TDAFAX9ZB119MDMB", "dateTime": 1515953936763}, {"current_trial": 133, "trialdata": {"rt": -1, "trial_type": "single-stim", "word": "drink", "stimulus": "<p id=\"stim\">DRINK</p>", "conditions": [24, 800, "v", 12000], "internal_node_id": "0.0-97.0", "trial": 3, "time_elapsed": 634382, "serialpos": 16, "key_press": -1, "wordID": 497, "type": "PRES_VIS", "trial_index": 133}, "uniqueid": "MTK1530:351SEKWQS1OVI2TDAFAX9ZB119MDMB", "dateTime": 1515953938547}, {"current_trial": 134, "trialdata": {"rt": -1, "trial_type": "single-stim", "word": "lettuce", "stimulus": "<p id=\"stim\">LETTUCE</p>", "conditions": [24, 800, "v", 12000], "internal_node_id": "0.0-98.0", "trial": 3, "time_elapsed": 635996, "serialpos": 17, "key_press": -1, "wordID": 813, "type": "PRES_VIS", "trial_index": 134}, "uniqueid": "MTK1530:351SEKWQS1OVI2TDAFAX9ZB119MDMB", "dateTime": 1515953940160}, {"current_trial": 135, "trialdata": {"rt": -1, "trial_type": "single-stim", "word": "fruit", "stimulus": "<p id=\"stim\">FRUIT</p>", "conditions": [24, 800, "v", 12000], "internal_node_id": "0.0-99.0", "trial": 3, "time_elapsed": 637667, "serialpos": 18, "key_press": -1, "wordID": 609, "type": "PRES_VIS", "trial_index": 135}, "uniqueid": "MTK1530:351SEKWQS1OVI2TDAFAX9ZB119MDMB", "dateTime": 1515953941831}, {"current_trial": 136, "trialdata": {"rt": -1, "trial_type": "single-stim", "word": "breast", "stimulus": "<p id=\"stim\">BREAST</p>", "conditions": [24, 800, "v", 12000], "internal_node_id": "0.0-100.0", "trial": 3, "time_elapsed": 639565, "serialpos": 19, "key_press": -1, "wordID": 170, "type": "PRES_VIS", "trial_index": 136}, "uniqueid": "MTK1530:351SEKWQS1OVI2TDAFAX9ZB119MDMB", "dateTime": 1515953943729}, {"current_trial": 137, "trialdata": {"rt": -1, "trial_type": "single-stim", "word": "penguin", "stimulus": "<p id=\"stim\">PENGUIN</p>", "conditions": [24, 800, "v", 12000], "internal_node_id": "0.0-101.0", "trial": 3, "time_elapsed": 641332, "serialpos": 20, "key_press": -1, "wordID": 1043, "type": "PRES_VIS", "trial_index": 137}, "uniqueid": "MTK1530:351SEKWQS1OVI2TDAFAX9ZB119MDMB", "dateTime": 1515953945496}, {"current_trial": 138, "trialdata": {"rt": -1, "trial_type": "single-stim", "word": "skirt", "stimulus": "<p id=\"stim\">SKIRT</p>", "conditions": [24, 800, "v", 12000], "internal_node_id": "0.0-102.0", "trial": 3, "time_elapsed": 643127, "serialpos": 21, "key_press": -1, "wordID": 1318, "type": "PRES_VIS", "trial_index": 138}, "uniqueid": "MTK1530:351SEKWQS1OVI2TDAFAX9ZB119MDMB", "dateTime": 1515953947291}, {"current_trial": 139, "trialdata": {"rt": -1, "trial_type": "single-stim", "word": "crown", "stimulus": "<p id=\"stim\">CROWN</p>", "conditions": [24, 800, "v", 12000], "internal_node_id": "0.0-103.0", "trial": 3, "time_elapsed": 644900, "serialpos": 22, "key_press": -1, "wordID": 414, "type": "PRES_VIS", "trial_index": 139}, "uniqueid": "MTK1530:351SEKWQS1OVI2TDAFAX9ZB119MDMB", "dateTime": 1515953949064}, {"current_trial": 140, "trialdata": {"rt": -1, "trial_type": "single-stim", "word": "badge", "stimulus": "<p id=\"stim\">BADGE</p>", "conditions": [24, 800, "v", 12000], "internal_node_id": "0.0-104.0", "trial": 3, "time_elapsed": 646670, "serialpos": 23, "key_press": -1, "wordID": 67, "type": "PRES_VIS", "trial_index": 140}, "uniqueid": "MTK1530:351SEKWQS1OVI2TDAFAX9ZB119MDMB", "dateTime": 1515953950835}, {"current_trial": 141, "trialdata": {"rt": -1, "trial_type": "single-stim", "stimulus": "", "internal_node_id": "0.0-105.0-0.0", "time_elapsed": 648941, "key_press": -1, "type": "PRE_RECALL_DELAY", "trial_index": 141}, "uniqueid": "MTK1530:351SEKWQS1OVI2TDAFAX9ZB119MDMB", "dateTime": 1515953953105}, {"current_trial": 142, "trialdata": {"rt": -1000, "trial_type": "single-audio", "stimulus": "/static/audio/400Hz.wav", "internal_node_id": "0.0-106.0", "time_elapsed": 649443, "key_press": -1, "type": "PRE_RECALL_ALERT", "trial_index": 142}, "uniqueid": "MTK1530:351SEKWQS1OVI2TDAFAX9ZB119MDMB", "dateTime": 1515953953607}, {"current_trial": 143, "trialdata": {"rt": [1572, 2644, 3484, 4534, 8845, 9593, 13266, 14412, 44796, 45649, 49029], "recwords": ["leg", "ankle", "knife", "burglar", "lettuce", "server", "fruit", "crown", "breast", "skirt", "penguin"], "key_times": [1128, 1201, 1366, 1572, 1698, 1838, 1927, 2026, 2515, 2644, 2990, 3147, 3201, 3264, 3350, 3484, 3707, 3878, 3949, 4140, 4222, 4346, 4404, 4534, 6438, 6503, 6583, 6728, 6805, 6947, 7188, 8845, 8948, 9000, 9075, 9298, 9461, 9511, 9593, 12722, 12903, 12989, 13058, 13157, 13266, 13916, 14095, 14164, 14244, 14321, 14412, 43673, 43976, 44053, 44163, 44253, 44371, 44796, 45106, 45190, 45357, 45399, 45573, 45649, 47676, 48137, 48245, 48337, 48442, 48510, 48704, 49029], "trial_type": "free-recall", "conditions": [24, 800, "v", 12000], "internal_node_id": "0.0-107.0-0.0", "key_presses": [76, 69, 71, 13, 65, 78, 75, 76, 69, 13, 75, 78, 73, 70, 69, 13, 66, 85, 82, 71, 76, 65, 82, 13, 76, 69, 84, 84, 85, 67, 69, 13, 83, 69, 82, 86, 69, 82, 13, 70, 82, 85, 73, 84, 13, 67, 82, 79, 87, 78, 13, 66, 82, 69, 65, 83, 84, 13, 83, 75, 73, 82, 84, 13, 80, 69, 78, 71, 85, 73, 78, 13], "trial": 3, "time_elapsed": 709448, "type": "FREE_RECALL", "trial_index": 143}, "uniqueid": "MTK1530:351SEKWQS1OVI2TDAFAX9ZB119MDMB", "dateTime": 1515954013617}, {"current_trial": 144, "trialdata": {"rt": 1219, "trial_type": "text", "internal_node_id": "0.0-108.0", "time_elapsed": 712675, "key_press": 32, "type": "INSTRUCTIONS", "trial_index": 144}, "uniqueid": "MTK1530:351SEKWQS1OVI2TDAFAX9ZB119MDMB", "dateTime": 1515954016839}, {"current_trial": 145, "trialdata": {"rt": [2343, 7247, 10165], "trial_type": "math-distractor", "key_times": [1944, 2245, 2343, 6898, 7164, 7247, 9900, 10064, 10165], "responses": ["15", "16", "13"], "num2": [5, 5, 1, 5], "num3": [4, 6, 6, 6], "conditions": [24, 1600, "v", 12000], "internal_node_id": "0.0-109.0", "key_presses": [49, 53, 13, 49, 54, 13, 49, 51, 13], "trial": 4, "time_elapsed": 726681, "type": "DISTRACTOR", "trial_index": 145, "num1": [6, 6, 6, 8]}, "uniqueid": "MTK1530:351SEKWQS1OVI2TDAFAX9ZB119MDMB", "dateTime": 1515954030845}, {"current_trial": 146, "trialdata": {"rt": -1, "trial_type": "single-stim", "stimulus": "<p id=\"stim\">10</p>", "internal_node_id": "0.0-110.0-0.0", "time_elapsed": 729683, "key_press": -1, "trial_index": 146}, "uniqueid": "MTK1530:351SEKWQS1OVI2TDAFAX9ZB119MDMB", "dateTime": 1515954033847}, {"current_trial": 147, "trialdata": {"rt": -1, "trial_type": "single-stim", "stimulus": "<p id=\"stim\">9</p>", "internal_node_id": "0.0-110.0-1.0", "time_elapsed": 730686, "key_press": -1, "trial_index": 147}, "uniqueid": "MTK1530:351SEKWQS1OVI2TDAFAX9ZB119MDMB", "dateTime": 1515954034850}, {"current_trial": 148, "trialdata": {"rt": -1, "trial_type": "single-stim", "stimulus": "<p id=\"stim\">8</p>", "internal_node_id": "0.0-110.0-2.0", "time_elapsed": 731688, "key_press": -1, "trial_index": 148}, "uniqueid": "MTK1530:351SEKWQS1OVI2TDAFAX9ZB119MDMB", "dateTime": 1515954035852}, {"current_trial": 149, "trialdata": {"rt": -1, "trial_type": "single-stim", "stimulus": "<p id=\"stim\">7</p>", "internal_node_id": "0.0-110.0-3.0", "time_elapsed": 732689, "key_press": -1, "trial_index": 149}, "uniqueid": "MTK1530:351SEKWQS1OVI2TDAFAX9ZB119MDMB", "dateTime": 1515954036854}, {"current_trial": 150, "trialdata": {"rt": -1, "trial_type": "single-stim", "stimulus": "<p id=\"stim\">6</p>", "internal_node_id": "0.0-110.0-4.0", "time_elapsed": 733692, "key_press": -1, "trial_index": 150}, "uniqueid": "MTK1530:351SEKWQS1OVI2TDAFAX9ZB119MDMB", "dateTime": 1515954037856}, {"current_trial": 151, "trialdata": {"rt": -1, "trial_type": "single-stim", "stimulus": "<p id=\"stim\">5</p>", "internal_node_id": "0.0-110.0-5.0", "time_elapsed": 734695, "key_press": -1, "trial_index": 151}, "uniqueid": "MTK1530:351SEKWQS1OVI2TDAFAX9ZB119MDMB", "dateTime": 1515954038859}, {"current_trial": 152, "trialdata": {"rt": -1, "trial_type": "single-stim", "stimulus": "<p id=\"stim\">4</p>", "internal_node_id": "0.0-110.0-6.0", "time_elapsed": 735697, "key_press": -1, "trial_index": 152}, "uniqueid": "MTK1530:351SEKWQS1OVI2TDAFAX9ZB119MDMB", "dateTime": 1515954039861}, {"current_trial": 153, "trialdata": {"rt": -1, "trial_type": "single-stim", "stimulus": "<p id=\"stim\">3</p>", "internal_node_id": "0.0-110.0-7.0", "time_elapsed": 736700, "key_press": -1, "trial_index": 153}, "uniqueid": "MTK1530:351SEKWQS1OVI2TDAFAX9ZB119MDMB", "dateTime": 1515954040864}, {"current_trial": 154, "trialdata": {"rt": -1, "trial_type": "single-stim", "stimulus": "<p id=\"stim\">2</p>", "internal_node_id": "0.0-110.0-8.0", "time_elapsed": 737701, "key_press": -1, "trial_index": 154}, "uniqueid": "MTK1530:351SEKWQS1OVI2TDAFAX9ZB119MDMB", "dateTime": 1515954041865}, {"current_trial": 155, "trialdata": {"rt": -1, "trial_type": "single-stim", "stimulus": "<p id=\"stim\">1</p>", "internal_node_id": "0.0-110.0-9.0", "time_elapsed": 738703, "key_press": -1, "trial_index": 155}, "uniqueid": "MTK1530:351SEKWQS1OVI2TDAFAX9ZB119MDMB", "dateTime": 1515954042867}, {"current_trial": 156, "trialdata": {"rt": -1, "trial_type": "single-stim", "stimulus": "<p id=\"stim\">+</p>", "internal_node_id": "0.0-111.0-0.0", "time_elapsed": 740204, "key_press": -1, "type": "FIXATION", "trial_index": 156}, "uniqueid": "MTK1530:351SEKWQS1OVI2TDAFAX9ZB119MDMB", "dateTime": 1515954044368}, {"current_trial": 157, "trialdata": {"rt": -1, "trial_type": "single-stim", "word": "gymnast", "stimulus": "<p id=\"stim\">GYMNAST</p>", "conditions": [24, 1600, "v", 12000], "internal_node_id": "0.0-112.0", "trial": 4, "time_elapsed": 741805, "serialpos": 0, "key_press": -1, "wordID": 674, "type": "PRES_VIS", "trial_index": 157}, "uniqueid": "MTK1530:351SEKWQS1OVI2TDAFAX9ZB119MDMB", "dateTime": 1515954045970}, {"current_trial": 158, "trialdata": {"rt": -1, "trial_type": "single-stim", "word": "sibling", "stimulus": "<p id=\"stim\">SIBLING</p>", "conditions": [24, 1600, "v", 12000], "internal_node_id": "0.0-113.0", "trial": 4, "time_elapsed": 744227, "serialpos": 1, "key_press": -1, "wordID": 1300, "type": "PRES_VIS", "trial_index": 158}, "uniqueid": "MTK1530:351SEKWQS1OVI2TDAFAX9ZB119MDMB", "dateTime": 1515954048391}, {"current_trial": 159, "trialdata": {"rt": -1, "trial_type": "single-stim", "word": "rooster", "stimulus": "<p id=\"stim\">ROOSTER</p>", "conditions": [24, 1600, "v", 12000], "internal_node_id": "0.0-114.0", "trial": 4, "time_elapsed": 746640, "serialpos": 2, "key_press": -1, "wordID": 1208, "type": "PRES_VIS", "trial_index": 159}, "uniqueid": "MTK1530:351SEKWQS1OVI2TDAFAX9ZB119MDMB", "dateTime": 1515954050804}, {"current_trial": 160, "trialdata": {"rt": -1, "trial_type": "single-stim", "word": "parrot", "stimulus": "<p id=\"stim\">PARROT</p>", "conditions": [24, 1600, "v", 12000], "internal_node_id": "0.0-115.0", "trial": 4, "time_elapsed": 749347, "serialpos": 3, "key_press": -1, "wordID": 1014, "type": "PRES_VIS", "trial_index": 160}, "uniqueid": "MTK1530:351SEKWQS1OVI2TDAFAX9ZB119MDMB", "dateTime": 1515954053511}, {"current_trial": 161, "trialdata": {"rt": -1, "trial_type": "single-stim", "word": "london", "stimulus": "<p id=\"stim\">LONDON</p>", "conditions": [24, 1600, "v", 12000], "internal_node_id": "0.0-116.0", "trial": 4, "time_elapsed": 751870, "serialpos": 4, "key_press": -1, "wordID": 842, "type": "PRES_VIS", "trial_index": 161}, "uniqueid": "MTK1530:351SEKWQS1OVI2TDAFAX9ZB119MDMB", "dateTime": 1515954056034}, {"current_trial": 162, "trialdata": {"rt": -1, "trial_type": "single-stim", "word": "ghetto", "stimulus": "<p id=\"stim\">GHETTO</p>", "conditions": [24, 1600, "v", 12000], "internal_node_id": "0.0-117.0", "trial": 4, "time_elapsed": 754574, "serialpos": 5, "key_press": -1, "wordID": 632, "type": "PRES_VIS", "trial_index": 162}, "uniqueid": "MTK1530:351SEKWQS1OVI2TDAFAX9ZB119MDMB", "dateTime": 1515954058738}, {"current_trial": 163, "trialdata": {"rt": -1, "trial_type": "single-stim", "word": "lace", "stimulus": "<p id=\"stim\">LACE</p>", "conditions": [24, 1600, "v", 12000], "internal_node_id": "0.0-118.0", "trial": 4, "time_elapsed": 757307, "serialpos": 6, "key_press": -1, "wordID": 791, "type": "PRES_VIS", "trial_index": 163}, "uniqueid": "MTK1530:351SEKWQS1OVI2TDAFAX9ZB119MDMB", "dateTime": 1515954061471}, {"current_trial": 164, "trialdata": {"rt": -1, "trial_type": "single-stim", "word": "dancer", "stimulus": "<p id=\"stim\">DANCER</p>", "conditions": [24, 1600, "v", 12000], "internal_node_id": "0.0-119.0", "trial": 4, "time_elapsed": 760068, "serialpos": 7, "key_press": -1, "wordID": 436, "type": "PRES_VIS", "trial_index": 164}, "uniqueid": "MTK1530:351SEKWQS1OVI2TDAFAX9ZB119MDMB", "dateTime": 1515954064232}, {"current_trial": 165, "trialdata": {"rt": -1, "trial_type": "single-stim", "word": "maple", "stimulus": "<p id=\"stim\">MAPLE</p>", "conditions": [24, 1600, "v", 12000], "internal_node_id": "0.0-120.0", "trial": 4, "time_elapsed": 762492, "serialpos": 8, "key_press": -1, "wordID": 865, "type": "PRES_VIS", "trial_index": 165}, "uniqueid": "MTK1530:351SEKWQS1OVI2TDAFAX9ZB119MDMB", "dateTime": 1515954066657}, {"current_trial": 166, "trialdata": {"rt": -1, "trial_type": "single-stim", "word": "viking", "stimulus": "<p id=\"stim\">VIKING</p>", "conditions": [24, 1600, "v", 12000], "internal_node_id": "0.0-121.0", "trial": 4, "time_elapsed": 765263, "serialpos": 9, "key_press": -1, "wordID": 1564, "type": "PRES_VIS", "trial_index": 166}, "uniqueid": "MTK1530:351SEKWQS1OVI2TDAFAX9ZB119MDMB", "dateTime": 1515954069427}, {"current_trial": 167, "trialdata": {"rt": -1, "trial_type": "single-stim", "word": "orange", "stimulus": "<p id=\"stim\">ORANGE</p>", "conditions": [24, 1600, "v", 12000], "internal_node_id": "0.0-122.0", "trial": 4, "time_elapsed": 767909, "serialpos": 10, "key_press": -1, "wordID": 979, "type": "PRES_VIS", "trial_index": 167}, "uniqueid": "MTK1530:351SEKWQS1OVI2TDAFAX9ZB119MDMB", "dateTime": 1515954072073}, {"current_trial": 168, "trialdata": {"rt": -1, "trial_type": "single-stim", "word": "picnic", "stimulus": "<p id=\"stim\">PICNIC</p>", "conditions": [24, 1600, "v", 12000], "internal_node_id": "0.0-123.0", "trial": 4, "time_elapsed": 770651, "serialpos": 11, "key_press": -1, "wordID": 1059, "type": "PRES_VIS", "trial_index": 168}, "uniqueid": "MTK1530:351SEKWQS1OVI2TDAFAX9ZB119MDMB", "dateTime": 1515954074816}, {"current_trial": 169, "trialdata": {"rt": -1, "trial_type": "single-stim", "word": "student", "stimulus": "<p id=\"stim\">STUDENT</p>", "conditions": [24, 1600, "v", 12000], "internal_node_id": "0.0-124.0", "trial": 4, "time_elapsed": 773102, "serialpos": 12, "key_press": -1, "wordID": 1394, "type": "PRES_VIS", "trial_index": 169}, "uniqueid": "MTK1530:351SEKWQS1OVI2TDAFAX9ZB119MDMB", "dateTime": 1515954077266}, {"current_trial": 170, "trialdata": {"rt": -1, "trial_type": "single-stim", "word": "farmer", "stimulus": "<p id=\"stim\">FARMER</p>", "conditions": [24, 1600, "v", 12000], "internal_node_id": "0.0-125.0", "trial": 4, "time_elapsed": 775750, "serialpos": 13, "key_press": -1, "wordID": 552, "type": "PRES_VIS", "trial_index": 170}, "uniqueid": "MTK1530:351SEKWQS1OVI2TDAFAX9ZB119MDMB", "dateTime": 1515954079914}, {"current_trial": 171, "trialdata": {"rt": -1, "trial_type": "single-stim", "word": "blouse", "stimulus": "<p id=\"stim\">BLOUSE</p>", "conditions": [24, 1600, "v", 12000], "internal_node_id": "0.0-126.0", "trial": 4, "time_elapsed": 778365, "serialpos": 14, "key_press": -1, "wordID": 138, "type": "PRES_VIS", "trial_index": 171}, "uniqueid": "MTK1530:351SEKWQS1OVI2TDAFAX9ZB119MDMB", "dateTime": 1515954082530}, {"current_trial": 172, "trialdata": {"rt": -1, "trial_type": "single-stim", "word": "shovel", "stimulus": "<p id=\"stim\">SHOVEL</p>", "conditions": [24, 1600, "v", 12000], "internal_node_id": "0.0-127.0", "trial": 4, "time_elapsed": 781068, "serialpos": 15, "key_press": -1, "wordID": 1294, "type": "PRES_VIS", "trial_index": 172}, "uniqueid": "MTK1530:351SEKWQS1OVI2TDAFAX9ZB119MDMB", "dateTime": 1515954085232}, {"current_trial": 173, "trialdata": {"rt": -1, "trial_type": "single-stim", "word": "turkey", "stimulus": "<p id=\"stim\">TURKEY</p>", "conditions": [24, 1600, "v", 12000], "internal_node_id": "0.0-128.0", "trial": 4, "time_elapsed": 783534, "serialpos": 16, "key_press": -1, "wordID": 1519, "type": "PRES_VIS", "trial_index": 173}, "uniqueid": "MTK1530:351SEKWQS1OVI2TDAFAX9ZB119MDMB", "dateTime": 1515954087698}, {"current_trial": 174, "trialdata": {"rt": -1, "trial_type": "single-stim", "word": "quail", "stimulus": "<p id=\"stim\">QUAIL</p>", "conditions": [24, 1600, "v", 12000], "internal_node_id": "0.0-129.0", "trial": 4, "time_elapsed": 786285, "serialpos": 17, "key_press": -1, "wordID": 1146, "type": "PRES_VIS", "trial_index": 174}, "uniqueid": "MTK1530:351SEKWQS1OVI2TDAFAX9ZB119MDMB", "dateTime": 1515954090450}, {"current_trial": 175, "trialdata": {"rt": -1, "trial_type": "single-stim", "word": "briefcase", "stimulus": "<p id=\"stim\">BRIEFCASE</p>", "conditions": [24, 1600, "v", 12000], "internal_node_id": "0.0-130.0", "trial": 4, "time_elapsed": 788701, "serialpos": 18, "key_press": -1, "wordID": 174, "type": "PRES_VIS", "trial_index": 175}, "uniqueid": "MTK1530:351SEKWQS1OVI2TDAFAX9ZB119MDMB", "dateTime": 1515954092865}, {"current_trial": 176, "trialdata": {"rt": -1, "trial_type": "single-stim", "word": "razor", "stimulus": "<p id=\"stim\">RAZOR</p>", "conditions": [24, 1600, "v", 12000], "internal_node_id": "0.0-131.0", "trial": 4, "time_elapsed": 791453, "serialpos": 19, "key_press": -1, "wordID": 1170, "type": "PRES_VIS", "trial_index": 176}, "uniqueid": "MTK1530:351SEKWQS1OVI2TDAFAX9ZB119MDMB", "dateTime": 1515954095617}, {"current_trial": 177, "trialdata": {"rt": -1, "trial_type": "single-stim", "word": "cousin", "stimulus": "<p id=\"stim\">COUSIN</p>", "conditions": [24, 1600, "v", 12000], "internal_node_id": "0.0-132.0", "trial": 4, "time_elapsed": 794234, "serialpos": 20, "key_press": -1, "wordID": 391, "type": "PRES_VIS", "trial_index": 177}, "uniqueid": "MTK1530:351SEKWQS1OVI2TDAFAX9ZB119MDMB", "dateTime": 1515954098399}, {"current_trial": 178, "trialdata": {"rt": -1, "trial_type": "single-stim", "word": "lapel", "stimulus": "<p id=\"stim\">LAPEL</p>", "conditions": [24, 1600, "v", 12000], "internal_node_id": "0.0-133.0", "trial": 4, "time_elapsed": 796677, "serialpos": 21, "key_press": -1, "wordID": 799, "type": "PRES_VIS", "trial_index": 178}, "uniqueid": "MTK1530:351SEKWQS1OVI2TDAFAX9ZB119MDMB", "dateTime": 1515954100842}, {"current_trial": 179, "trialdata": {"rt": -1, "trial_type": "single-stim", "word": "twig", "stimulus": "<p id=\"stim\">TWIG</p>", "conditions": [24, 1600, "v", 12000], "internal_node_id": "0.0-134.0", "trial": 4, "time_elapsed": 799253, "serialpos": 22, "key_press": -1, "wordID": 1526, "type": "PRES_VIS", "trial_index": 179}, "uniqueid": "MTK1530:351SEKWQS1OVI2TDAFAX9ZB119MDMB", "dateTime": 1515954103418}, {"current_trial": 180, "trialdata": {"rt": -1, "trial_type": "single-stim", "word": "blade", "stimulus": "<p id=\"stim\">BLADE</p>", "conditions": [24, 1600, "v", 12000], "internal_node_id": "0.0-135.0", "trial": 4, "time_elapsed": 801954, "serialpos": 23, "key_press": -1, "wordID": 133, "type": "PRES_VIS", "trial_index": 180}, "uniqueid": "MTK1530:351SEKWQS1OVI2TDAFAX9ZB119MDMB", "dateTime": 1515954106118}, {"current_trial": 181, "trialdata": {"rt": -1, "trial_type": "single-stim", "stimulus": "", "internal_node_id": "0.0-136.0-0.0", "time_elapsed": 804312, "key_press": -1, "type": "PRE_RECALL_DELAY", "trial_index": 181}, "uniqueid": "MTK1530:351SEKWQS1OVI2TDAFAX9ZB119MDMB", "dateTime": 1515954108476}, {"current_trial": 182, "trialdata": {"rt": -1000, "trial_type": "single-audio", "stimulus": "/static/audio/400Hz.wav", "internal_node_id": "0.0-137.0", "time_elapsed": 804813, "key_press": -1, "type": "PRE_RECALL_ALERT", "trial_index": 182}, "uniqueid": "MTK1530:351SEKWQS1OVI2TDAFAX9ZB119MDMB", "dateTime": 1515954108978}, {"current_trial": 183, "trialdata": {"rt": [2284, 3426, 5212, 7926, 12234, 13150, 19221, 20178, 20800, 27303], "recwords": ["gymnast", "sibbling", "rooster", "parrot", "turkey", "quail", "london", "ghetto", "lace", "blouse"], "key_times": [956, 1092, 1567, 1741, 1844, 1940, 2049, 2284, 2469, 2567, 2731, 2888, 2966, 3126, 3247, 3322, 3426, 4373, 4454, 4604, 4668, 4736, 4873, 4948, 5212, 5574, 5641, 5706, 5894, 5994, 6115, 7926, 11600, 11694, 11795, 11881, 11982, 12090, 12234, 12329, 12442, 12576, 12767, 12929, 13150, 18106, 18268, 18386, 18474, 18574, 18683, 19221, 19330, 19483, 19609, 19763, 19915, 19993, 20178, 20385, 20450, 20539, 20673, 20800, 26242, 26435, 26636, 26721, 26981, 27117, 27303], "trial_type": "free-recall", "conditions": [24, 1600, "v", 12000], "internal_node_id": "0.0-138.0-0.0", "key_presses": [71, 89, 77, 78, 65, 83, 84, 13, 83, 73, 66, 66, 76, 73, 78, 71, 13, 82, 79, 79, 83, 84, 69, 82, 13, 80, 65, 82, 82, 79, 84, 13, 84, 85, 82, 75, 69, 89, 13, 81, 85, 65, 73, 76, 13, 76, 79, 78, 68, 79, 78, 13, 71, 72, 69, 84, 84, 79, 13, 76, 65, 67, 69, 13, 66, 76, 79, 85, 83, 69, 13], "trial": 4, "time_elapsed": 864819, "type": "FREE_RECALL", "trial_index": 183}, "uniqueid": "MTK1530:351SEKWQS1OVI2TDAFAX9ZB119MDMB", "dateTime": 1515954168992}, {"current_trial": 184, "trialdata": {"rt": 5974, "trial_type": "text", "internal_node_id": "0.0-139.0", "time_elapsed": 872804, "key_press": 32, "type": "INSTRUCTIONS", "trial_index": 184}, "uniqueid": "MTK1530:351SEKWQS1OVI2TDAFAX9ZB119MDMB", "dateTime": 1515954176968}, {"current_trial": 185, "trialdata": {"rt": [4018, 7250, 9513, 11973], "trial_type": "math-distractor", "key_times": [3854, 4018, 7075, 7206, 7250, 9392, 9513, 11703, 11814, 11973], "responses": ["7", "11", "8", "18"], "num2": [2, 5, 3, 5, 8], "num3": [4, 4, 4, 6, 1], "conditions": [12, 1600, "v", 12000], "internal_node_id": "0.0-140.0", "key_presses": [55, 13, 49, 49, 13, 56, 13, 49, 56, 13], "trial": 5, "time_elapsed": 886808, "type": "DISTRACTOR", "trial_index": 185, "num1": [1, 2, 1, 7, 2]}, "uniqueid": "MTK1530:351SEKWQS1OVI2TDAFAX9ZB119MDMB", "dateTime": 1515954190972}, {"current_trial": 186, "trialdata": {"rt": -1, "trial_type": "single-stim", "stimulus": "<p id=\"stim\">10</p>", "internal_node_id": "0.0-141.0-0.0", "time_elapsed": 889811, "key_press": -1, "trial_index": 186}, "uniqueid": "MTK1530:351SEKWQS1OVI2TDAFAX9ZB119MDMB", "dateTime": 1515954193975}, {"current_trial": 187, "trialdata": {"rt": -1, "trial_type": "single-stim", "stimulus": "<p id=\"stim\">9</p>", "internal_node_id": "0.0-141.0-1.0", "time_elapsed": 890814, "key_press": -1, "trial_index": 187}, "uniqueid": "MTK1530:351SEKWQS1OVI2TDAFAX9ZB119MDMB", "dateTime": 1515954194978}, {"current_trial": 188, "trialdata": {"rt": -1, "trial_type": "single-stim", "stimulus": "<p id=\"stim\">8</p>", "internal_node_id": "0.0-141.0-2.0", "time_elapsed": 891816, "key_press": -1, "trial_index": 188}, "uniqueid": "MTK1530:351SEKWQS1OVI2TDAFAX9ZB119MDMB", "dateTime": 1515954195981}, {"current_trial": 189, "trialdata": {"rt": -1, "trial_type": "single-stim", "stimulus": "<p id=\"stim\">7</p>", "internal_node_id": "0.0-141.0-3.0", "time_elapsed": 892818, "key_press": -1, "trial_index": 189}, "uniqueid": "MTK1530:351SEKWQS1OVI2TDAFAX9ZB119MDMB", "dateTime": 1515954196982}, {"current_trial": 190, "trialdata": {"rt": -1, "trial_type": "single-stim", "stimulus": "<p id=\"stim\">6</p>", "internal_node_id": "0.0-141.0-4.0", "time_elapsed": 893821, "key_press": -1, "trial_index": 190}, "uniqueid": "MTK1530:351SEKWQS1OVI2TDAFAX9ZB119MDMB", "dateTime": 1515954197985}, {"current_trial": 191, "trialdata": {"rt": -1, "trial_type": "single-stim", "stimulus": "<p id=\"stim\">5</p>", "internal_node_id": "0.0-141.0-5.0", "time_elapsed": 894824, "key_press": -1, "trial_index": 191}, "uniqueid": "MTK1530:351SEKWQS1OVI2TDAFAX9ZB119MDMB", "dateTime": 1515954198988}, {"current_trial": 192, "trialdata": {"rt": -1, "trial_type": "single-stim", "stimulus": "<p id=\"stim\">4</p>", "internal_node_id": "0.0-141.0-6.0", "time_elapsed": 895825, "key_press": -1, "trial_index": 192}, "uniqueid": "MTK1530:351SEKWQS1OVI2TDAFAX9ZB119MDMB", "dateTime": 1515954199990}, {"current_trial": 193, "trialdata": {"rt": -1, "trial_type": "single-stim", "stimulus": "<p id=\"stim\">3</p>", "internal_node_id": "0.0-141.0-7.0", "time_elapsed": 896828, "key_press": -1, "trial_index": 193}, "uniqueid": "MTK1530:351SEKWQS1OVI2TDAFAX9ZB119MDMB", "dateTime": 1515954200992}, {"current_trial": 194, "trialdata": {"rt": -1, "trial_type": "single-stim", "stimulus": "<p id=\"stim\">2</p>", "internal_node_id": "0.0-141.0-8.0", "time_elapsed": 897830, "key_press": -1, "trial_index": 194}, "uniqueid": "MTK1530:351SEKWQS1OVI2TDAFAX9ZB119MDMB", "dateTime": 1515954201994}, {"current_trial": 195, "trialdata": {"rt": -1, "trial_type": "single-stim", "stimulus": "<p id=\"stim\">1</p>", "internal_node_id": "0.0-141.0-9.0", "time_elapsed": 898832, "key_press": -1, "trial_index": 195}, "uniqueid": "MTK1530:351SEKWQS1OVI2TDAFAX9ZB119MDMB", "dateTime": 1515954202996}, {"current_trial": 196, "trialdata": {"rt": -1, "trial_type": "single-stim", "stimulus": "<p id=\"stim\">+</p>", "internal_node_id": "0.0-142.0-0.0", "time_elapsed": 900334, "key_press": -1, "type": "FIXATION", "trial_index": 196}, "uniqueid": "MTK1530:351SEKWQS1OVI2TDAFAX9ZB119MDMB", "dateTime": 1515954204498}, {"current_trial": 197, "trialdata": {"rt": -1, "trial_type": "single-stim", "word": "airport", "stimulus": "<p id=\"stim\">AIRPORT</p>", "conditions": [12, 1600, "v", 12000], "internal_node_id": "0.0-143.0", "trial": 5, "time_elapsed": 901937, "serialpos": 0, "key_press": -1, "wordID": 12, "type": "PRES_VIS", "trial_index": 197}, "uniqueid": "MTK1530:351SEKWQS1OVI2TDAFAX9ZB119MDMB", "dateTime": 1515954206102}, {"current_trial": 198, "trialdata": {"rt": -1, "trial_type": "single-stim", "word": "star", "stimulus": "<p id=\"stim\">STAR</p>", "conditions": [12, 1600, "v", 12000], "internal_node_id": "0.0-144.0", "trial": 5, "time_elapsed": 904507, "serialpos": 1, "key_press": -1, "wordID": 1372, "type": "PRES_VIS", "trial_index": 198}, "uniqueid": "MTK1530:351SEKWQS1OVI2TDAFAX9ZB119MDMB", "dateTime": 1515954208671}, {"current_trial": 199, "trialdata": {"rt": -1, "trial_type": "single-stim", "word": "kleenex", "stimulus": "<p id=\"stim\">KLEENEX</p>", "conditions": [12, 1600, "v", 12000], "internal_node_id": "0.0-145.0", "trial": 5, "time_elapsed": 907222, "serialpos": 2, "key_press": -1, "wordID": 781, "type": "PRES_VIS", "trial_index": 199}, "uniqueid": "MTK1530:351SEKWQS1OVI2TDAFAX9ZB119MDMB", "dateTime": 1515954211386}, {"current_trial": 200, "trialdata": {"rt": -1, "trial_type": "single-stim", "word": "snack", "stimulus": "<p id=\"stim\">SNACK</p>", "conditions": [12, 1600, "v", 12000], "internal_node_id": "0.0-146.0", "trial": 5, "time_elapsed": 909931, "serialpos": 3, "key_press": -1, "wordID": 1330, "type": "PRES_VIS", "trial_index": 200}, "uniqueid": "MTK1530:351SEKWQS1OVI2TDAFAX9ZB119MDMB", "dateTime": 1515954214096}, {"current_trial": 201, "trialdata": {"rt": -1, "trial_type": "single-stim", "word": "handbag", "stimulus": "<p id=\"stim\">HANDBAG</p>", "conditions": [12, 1600, "v", 12000], "internal_node_id": "0.0-147.0", "trial": 5, "time_elapsed": 912346, "serialpos": 4, "key_press": -1, "wordID": 683, "type": "PRES_VIS", "trial_index": 201}, "uniqueid": "MTK1530:351SEKWQS1OVI2TDAFAX9ZB119MDMB", "dateTime": 1515954216510}, {"current_trial": 202, "trialdata": {"rt": -1, "trial_type": "single-stim", "word": "sheriff", "stimulus": "<p id=\"stim\">SHERIFF</p>", "conditions": [12, 1600, "v", 12000], "internal_node_id": "0.0-148.0", "trial": 5, "time_elapsed": 914792, "serialpos": 5, "key_press": -1, "wordID": 1283, "type": "PRES_VIS", "trial_index": 202}, "uniqueid": "MTK1530:351SEKWQS1OVI2TDAFAX9ZB119MDMB", "dateTime": 1515954218957}, {"current_trial": 203, "trialdata": {"rt": -1, "trial_type": "single-stim", "word": "county", "stimulus": "<p id=\"stim\">COUNTY</p>", "conditions": [12, 1600, "v", 12000], "internal_node_id": "0.0-149.0", "trial": 5, "time_elapsed": 917283, "serialpos": 6, "key_press": -1, "wordID": 388, "type": "PRES_VIS", "trial_index": 203}, "uniqueid": "MTK1530:351SEKWQS1OVI2TDAFAX9ZB119MDMB", "dateTime": 1515954221447}, {"current_trial": 204, "trialdata": {"rt": -1, "trial_type": "single-stim", "word": "sunrise", "stimulus": "<p id=\"stim\">SUNRISE</p>", "conditions": [12, 1600, "v", 12000], "internal_node_id": "0.0-150.0", "trial": 5, "time_elapsed": 919906, "serialpos": 7, "key_press": -1, "wordID": 1406, "type": "PRES_VIS", "trial_index": 204}, "uniqueid": "MTK1530:351SEKWQS1OVI2TDAFAX9ZB119MDMB", "dateTime": 1515954224070}, {"current_trial": 205, "trialdata": {"rt": -1, "trial_type": "single-stim", "word": "candy", "stimulus": "<p id=\"stim\">CANDY</p>", "conditions": [12, 1600, "v", 12000], "internal_node_id": "0.0-151.0", "trial": 5, "time_elapsed": 922563, "serialpos": 8, "key_press": -1, "wordID": 229, "type": "PRES_VIS", "trial_index": 205}, "uniqueid": "MTK1530:351SEKWQS1OVI2TDAFAX9ZB119MDMB", "dateTime": 1515954226728}, {"current_trial": 206, "trialdata": {"rt": -1, "trial_type": "single-stim", "word": "robin", "stimulus": "<p id=\"stim\">ROBIN</p>", "conditions": [12, 1600, "v", 12000], "internal_node_id": "0.0-152.0", "trial": 5, "time_elapsed": 925077, "serialpos": 9, "key_press": -1, "wordID": 1198, "type": "PRES_VIS", "trial_index": 206}, "uniqueid": "MTK1530:351SEKWQS1OVI2TDAFAX9ZB119MDMB", "dateTime": 1515954229241}, {"current_trial": 207, "trialdata": {"rt": -1, "trial_type": "single-stim", "word": "lake", "stimulus": "<p id=\"stim\">LAKE</p>", "conditions": [12, 1600, "v", 12000], "internal_node_id": "0.0-153.0", "trial": 5, "time_elapsed": 927767, "serialpos": 10, "key_press": -1, "wordID": 795, "type": "PRES_VIS", "trial_index": 207}, "uniqueid": "MTK1530:351SEKWQS1OVI2TDAFAX9ZB119MDMB", "dateTime": 1515954231931}, {"current_trial": 208, "trialdata": {"rt": -1, "trial_type": "single-stim", "word": "ointment", "stimulus": "<p id=\"stim\">OINTMENT</p>", "conditions": [12, 1600, "v", 12000], "internal_node_id": "0.0-154.0", "trial": 5, "time_elapsed": 930282, "serialpos": 11, "key_press": -1, "wordID": 973, "type": "PRES_VIS", "trial_index": 208}, "uniqueid": "MTK1530:351SEKWQS1OVI2TDAFAX9ZB119MDMB", "dateTime": 1515954234446}, {"current_trial": 209, "trialdata": {"rt": -1, "trial_type": "single-stim", "stimulus": "", "internal_node_id": "0.0-155.0-0.0", "time_elapsed": 932584, "key_press": -1, "type": "PRE_RECALL_DELAY", "trial_index": 209}, "uniqueid": "MTK1530:351SEKWQS1OVI2TDAFAX9ZB119MDMB", "dateTime": 1515954236748}, {"current_trial": 210, "trialdata": {"rt": -1000, "trial_type": "single-audio", "stimulus": "/static/audio/400Hz.wav", "internal_node_id": "0.0-156.0", "time_elapsed": 933086, "key_press": -1, "type": "PRE_RECALL_ALERT", "trial_index": 210}, "uniqueid": "MTK1530:351SEKWQS1OVI2TDAFAX9ZB119MDMB", "dateTime": 1515954237250}, {"current_trial": 211, "trialdata": {"rt": [1992, 3636, 4802, 16740, 19973, 20697], "recwords": ["airport", "kleenex", "snack", "suitcase", "robin", "lake"], "key_times": [995, 1096, 1183, 1303, 1380, 1526, 1730, 1992, 2352, 2530, 2632, 2894, 3021, 3129, 3343, 3636, 4265, 4379, 4471, 4610, 4662, 4802, 15568, 15827, 15903, 16015, 16257, 16384, 16489, 16548, 16740, 19214, 19324, 19515, 19622, 19769, 19973, 20324, 20416, 20525, 20615, 20697], "trial_type": "free-recall", "conditions": [12, 1600, "v", 12000], "internal_node_id": "0.0-157.0-0.0", "key_presses": [65, 73, 82, 80, 79, 82, 84, 13, 75, 76, 69, 69, 78, 69, 88, 13, 83, 78, 65, 67, 75, 13, 83, 85, 73, 84, 67, 65, 83, 69, 13, 82, 79, 66, 73, 78, 13, 76, 65, 75, 69, 13], "trial": 5, "time_elapsed": 993092, "type": "FREE_RECALL", "trial_index": 211}, "uniqueid": "MTK1530:351SEKWQS1OVI2TDAFAX9ZB119MDMB", "dateTime": 1515954297262}, {"current_trial": 212, "trialdata": {"rt": 1251, "trial_type": "text", "internal_node_id": "0.0-158.0", "time_elapsed": 996350, "key_press": 32, "type": "INSTRUCTIONS", "trial_index": 212}, "uniqueid": "MTK1530:351SEKWQS1OVI2TDAFAX9ZB119MDMB", "dateTime": 1515954300515}, {"current_trial": 213, "trialdata": {"rt": [1624, 3024, 5465, 8470, 11106], "trial_type": "math-distractor", "key_times": [1458, 1499, 1624, 2745, 2873, 3024, 5340, 5465, 8306, 8356, 8470, 10924, 10982, 11106], "responses": ["19", "18", "8", "20", "18"], "num2": [7, 3, 1, 7, 9, 7], "num3": [3, 8, 3, 9, 7, 5], "conditions": [12, 800, "v", 12000], "internal_node_id": "0.0-159.0", "key_presses": [49, 57, 13, 49, 56, 13, 56, 13, 50, 48, 13, 49, 56, 13], "trial": 6, "time_elapsed": 1010359, "type": "DISTRACTOR", "trial_index": 213, "num1": [9, 7, 4, 4, 1, 6]}, "uniqueid": "MTK1530:351SEKWQS1OVI2TDAFAX9ZB119MDMB", "dateTime": 1515954314523}, {"current_trial": 214, "trialdata": {"rt": -1, "trial_type": "single-stim", "stimulus": "<p id=\"stim\">10</p>", "internal_node_id": "0.0-160.0-0.0", "time_elapsed": 1013363, "key_press": -1, "trial_index": 214}, "uniqueid": "MTK1530:351SEKWQS1OVI2TDAFAX9ZB119MDMB", "dateTime": 1515954317527}, {"current_trial": 215, "trialdata": {"rt": -1, "trial_type": "single-stim", "stimulus": "<p id=\"stim\">9</p>", "internal_node_id": "0.0-160.0-1.0", "time_elapsed": 1014366, "key_press": -1, "trial_index": 215}, "uniqueid": "MTK1530:351SEKWQS1OVI2TDAFAX9ZB119MDMB", "dateTime": 1515954318530}, {"current_trial": 216, "trialdata": {"rt": -1, "trial_type": "single-stim", "stimulus": "<p id=\"stim\">8</p>", "internal_node_id": "0.0-160.0-2.0", "time_elapsed": 1015369, "key_press": -1, "trial_index": 216}, "uniqueid": "MTK1530:351SEKWQS1OVI2TDAFAX9ZB119MDMB", "dateTime": 1515954319534}, {"current_trial": 217, "trialdata": {"rt": -1, "trial_type": "single-stim", "stimulus": "<p id=\"stim\">7</p>", "internal_node_id": "0.0-160.0-3.0", "time_elapsed": 1016371, "key_press": -1, "trial_index": 217}, "uniqueid": "MTK1530:351SEKWQS1OVI2TDAFAX9ZB119MDMB", "dateTime": 1515954320535}, {"current_trial": 218, "trialdata": {"rt": -1, "trial_type": "single-stim", "stimulus": "<p id=\"stim\">6</p>", "internal_node_id": "0.0-160.0-4.0", "time_elapsed": 1017373, "key_press": -1, "trial_index": 218}, "uniqueid": "MTK1530:351SEKWQS1OVI2TDAFAX9ZB119MDMB", "dateTime": 1515954321537}, {"current_trial": 219, "trialdata": {"rt": -1, "trial_type": "single-stim", "stimulus": "<p id=\"stim\">5</p>", "internal_node_id": "0.0-160.0-5.0", "time_elapsed": 1018375, "key_press": -1, "trial_index": 219}, "uniqueid": "MTK1530:351SEKWQS1OVI2TDAFAX9ZB119MDMB", "dateTime": 1515954322539}, {"current_trial": 220, "trialdata": {"rt": -1, "trial_type": "single-stim", "stimulus": "<p id=\"stim\">4</p>", "internal_node_id": "0.0-160.0-6.0", "time_elapsed": 1019377, "key_press": -1, "trial_index": 220}, "uniqueid": "MTK1530:351SEKWQS1OVI2TDAFAX9ZB119MDMB", "dateTime": 1515954323541}, {"current_trial": 221, "trialdata": {"rt": -1, "trial_type": "single-stim", "stimulus": "<p id=\"stim\">3</p>", "internal_node_id": "0.0-160.0-7.0", "time_elapsed": 1020379, "key_press": -1, "trial_index": 221}, "uniqueid": "MTK1530:351SEKWQS1OVI2TDAFAX9ZB119MDMB", "dateTime": 1515954324544}, {"current_trial": 222, "trialdata": {"rt": -1, "trial_type": "single-stim", "stimulus": "<p id=\"stim\">2</p>", "internal_node_id": "0.0-160.0-8.0", "time_elapsed": 1021382, "key_press": -1, "trial_index": 222}, "uniqueid": "MTK1530:351SEKWQS1OVI2TDAFAX9ZB119MDMB", "dateTime": 1515954325546}, {"current_trial": 223, "trialdata": {"rt": -1, "trial_type": "single-stim", "stimulus": "<p id=\"stim\">1</p>", "internal_node_id": "0.0-160.0-9.0", "time_elapsed": 1022384, "key_press": -1, "trial_index": 223}, "uniqueid": "MTK1530:351SEKWQS1OVI2TDAFAX9ZB119MDMB", "dateTime": 1515954326549}, {"current_trial": 224, "trialdata": {"rt": -1, "trial_type": "single-stim", "stimulus": "<p id=\"stim\">+</p>", "internal_node_id": "0.0-161.0-0.0", "time_elapsed": 1023886, "key_press": -1, "type": "FIXATION", "trial_index": 224}, "uniqueid": "MTK1530:351SEKWQS1OVI2TDAFAX9ZB119MDMB", "dateTime": 1515954328051}, {"current_trial": 225, "trialdata": {"rt": -1, "trial_type": "single-stim", "word": "flute", "stimulus": "<p id=\"stim\">FLUTE</p>", "conditions": [12, 800, "v", 12000], "internal_node_id": "0.0-162.0", "trial": 6, "time_elapsed": 1024688, "serialpos": 0, "key_press": -1, "wordID": 584, "type": "PRES_VIS", "trial_index": 225}, "uniqueid": "MTK1530:351SEKWQS1OVI2TDAFAX9ZB119MDMB", "dateTime": 1515954328853}, {"current_trial": 226, "trialdata": {"rt": -1, "trial_type": "single-stim", "word": "fiddle", "stimulus": "<p id=\"stim\">FIDDLE</p>", "conditions": [12, 800, "v", 12000], "internal_node_id": "0.0-163.0", "trial": 6, "time_elapsed": 1026441, "serialpos": 1, "key_press": -1, "wordID": 560, "type": "PRES_VIS", "trial_index": 226}, "uniqueid": "MTK1530:351SEKWQS1OVI2TDAFAX9ZB119MDMB", "dateTime": 1515954330605}, {"current_trial": 227, "trialdata": {"rt": -1, "trial_type": "single-stim", "word": "toaster", "stimulus": "<p id=\"stim\">TOASTER</p>", "conditions": [12, 800, "v", 12000], "internal_node_id": "0.0-164.0", "trial": 6, "time_elapsed": 1028409, "serialpos": 2, "key_press": -1, "wordID": 1471, "type": "PRES_VIS", "trial_index": 227}, "uniqueid": "MTK1530:351SEKWQS1OVI2TDAFAX9ZB119MDMB", "dateTime": 1515954332574}, {"current_trial": 228, "trialdata": {"rt": -1, "trial_type": "single-stim", "word": "neutron", "stimulus": "<p id=\"stim\">NEUTRON</p>", "conditions": [12, 800, "v", 12000], "internal_node_id": "0.0-165.0", "trial": 6, "time_elapsed": 1030115, "serialpos": 3, "key_press": -1, "wordID": 946, "type": "PRES_VIS", "trial_index": 228}, "uniqueid": "MTK1530:351SEKWQS1OVI2TDAFAX9ZB119MDMB", "dateTime": 1515954334279}, {"current_trial": 229, "trialdata": {"rt": -1, "trial_type": "single-stim", "word": "creature", "stimulus": "<p id=\"stim\">CREATURE</p>", "conditions": [12, 800, "v", 12000], "internal_node_id": "0.0-166.0", "trial": 6, "time_elapsed": 1031857, "serialpos": 4, "key_press": -1, "wordID": 402, "type": "PRES_VIS", "trial_index": 229}, "uniqueid": "MTK1530:351SEKWQS1OVI2TDAFAX9ZB119MDMB", "dateTime": 1515954336022}, {"current_trial": 230, "trialdata": {"rt": -1, "trial_type": "single-stim", "word": "scalpel", "stimulus": "<p id=\"stim\">SCALPEL</p>", "conditions": [12, 800, "v", 12000], "internal_node_id": "0.0-167.0", "trial": 6, "time_elapsed": 1033471, "serialpos": 5, "key_press": -1, "wordID": 1242, "type": "PRES_VIS", "trial_index": 230}, "uniqueid": "MTK1530:351SEKWQS1OVI2TDAFAX9ZB119MDMB", "dateTime": 1515954337636}, {"current_trial": 231, "trialdata": {"rt": -1, "trial_type": "single-stim", "word": "tutu", "stimulus": "<p id=\"stim\">TUTU</p>", "conditions": [12, 800, "v", 12000], "internal_node_id": "0.0-168.0", "trial": 6, "time_elapsed": 1035243, "serialpos": 6, "key_press": -1, "wordID": 1523, "type": "PRES_VIS", "trial_index": 231}, "uniqueid": "MTK1530:351SEKWQS1OVI2TDAFAX9ZB119MDMB", "dateTime": 1515954339407}, {"current_trial": 232, "trialdata": {"rt": -1, "trial_type": "single-stim", "word": "nightgown", "stimulus": "<p id=\"stim\">NIGHTGOWN</p>", "conditions": [12, 800, "v", 12000], "internal_node_id": "0.0-169.0", "trial": 6, "time_elapsed": 1037221, "serialpos": 7, "key_press": -1, "wordID": 952, "type": "PRES_VIS", "trial_index": 232}, "uniqueid": "MTK1530:351SEKWQS1OVI2TDAFAX9ZB119MDMB", "dateTime": 1515954341386}, {"current_trial": 233, "trialdata": {"rt": -1, "trial_type": "single-stim", "word": "spider", "stimulus": "<p id=\"stim\">SPIDER</p>", "conditions": [12, 800, "v", 12000], "internal_node_id": "0.0-170.0", "trial": 6, "time_elapsed": 1038993, "serialpos": 8, "key_press": -1, "wordID": 1350, "type": "PRES_VIS", "trial_index": 233}, "uniqueid": "MTK1530:351SEKWQS1OVI2TDAFAX9ZB119MDMB", "dateTime": 1515954343158}, {"current_trial": 234, "trialdata": {"rt": -1, "trial_type": "single-stim", "word": "temple", "stimulus": "<p id=\"stim\">TEMPLE</p>", "conditions": [12, 800, "v", 12000], "internal_node_id": "0.0-171.0", "trial": 6, "time_elapsed": 1040641, "serialpos": 9, "key_press": -1, "wordID": 1447, "type": "PRES_VIS", "trial_index": 234}, "uniqueid": "MTK1530:351SEKWQS1OVI2TDAFAX9ZB119MDMB", "dateTime": 1515954344805}, {"current_trial": 235, "trialdata": {"rt": -1, "trial_type": "single-stim", "word": "stone", "stimulus": "<p id=\"stim\">STONE</p>", "conditions": [12, 800, "v", 12000], "internal_node_id": "0.0-172.0", "trial": 6, "time_elapsed": 1042346, "serialpos": 10, "key_press": -1, "wordID": 1384, "type": "PRES_VIS", "trial_index": 235}, "uniqueid": "MTK1530:351SEKWQS1OVI2TDAFAX9ZB119MDMB", "dateTime": 1515954346510}, {"current_trial": 236, "trialdata": {"rt": -1, "trial_type": "single-stim", "word": "umpire", "stimulus": "<p id=\"stim\">UMPIRE</p>", "conditions": [12, 800, "v", 12000], "internal_node_id": "0.0-173.0", "trial": 6, "time_elapsed": 1044150, "serialpos": 11, "key_press": -1, "wordID": 1534, "type": "PRES_VIS", "trial_index": 236}, "uniqueid": "MTK1530:351SEKWQS1OVI2TDAFAX9ZB119MDMB", "dateTime": 1515954348315}, {"current_trial": 237, "trialdata": {"rt": -1, "trial_type": "single-stim", "stimulus": "", "internal_node_id": "0.0-174.0-0.0", "time_elapsed": 1046395, "key_press": -1, "type": "PRE_RECALL_DELAY", "trial_index": 237}, "uniqueid": "MTK1530:351SEKWQS1OVI2TDAFAX9ZB119MDMB", "dateTime": 1515954350559}, {"current_trial": 238, "trialdata": {"rt": -1000, "trial_type": "single-audio", "stimulus": "/static/audio/400Hz.wav", "internal_node_id": "0.0-175.0", "time_elapsed": 1046898, "key_press": -1, "type": "PRE_RECALL_ALERT", "trial_index": 238}, "uniqueid": "MTK1530:351SEKWQS1OVI2TDAFAX9ZB119MDMB", "dateTime": 1515954351063}, {"current_trial": 239, "trialdata": {"rt": [3068, 3866, 4909, 6760, 11721, 14392, 15184, 15778, 48748, 50731], "recwords": ["flute", "fiddle", "toaster", "neutron", "nightgown", "spider", "temple", "stone", "scalpel", "tutu"], "key_times": [2637, 2662, 2846, 2911, 2977, 3068, 3217, 3290, 3473, 3596, 3674, 3799, 3866, 4296, 4391, 4471, 4549, 4628, 4782, 4847, 4909, 5115, 5186, 5583, 5743, 5811, 5963, 6131, 6202, 6531, 6760, 10335, 10418, 10505, 10610, 10726, 11244, 11377, 11455, 11542, 11721, 13665, 13742, 13844, 13970, 14161, 14226, 14392, 14494, 14578, 14678, 14745, 14969, 15055, 15184, 15299, 15378, 15484, 15611, 15688, 15778, 47867, 47996, 48102, 48195, 48376, 48527, 48595, 48748, 50301, 50386, 50491, 50570, 50731], "trial_type": "free-recall", "conditions": [12, 800, "v", 12000], "internal_node_id": "0.0-176.0-0.0", "key_presses": [70, 76, 85, 84, 69, 13, 70, 73, 68, 68, 76, 69, 13, 84, 79, 65, 83, 84, 69, 82, 13, 78, 79, 8, 69, 85, 84, 82, 79, 78, 13, 78, 73, 71, 72, 84, 71, 79, 87, 78, 13, 83, 80, 73, 68, 69, 82, 13, 84, 69, 77, 80, 76, 69, 13, 83, 84, 79, 78, 69, 13, 83, 67, 65, 76, 80, 69, 76, 13, 84, 85, 84, 85, 13], "trial": 6, "time_elapsed": 1106903, "type": "FREE_RECALL", "trial_index": 239}, "uniqueid": "MTK1530:351SEKWQS1OVI2TDAFAX9ZB119MDMB", "dateTime": 1515954411073}, {"current_trial": 240, "trialdata": {"rt": 1124, "trial_type": "text", "internal_node_id": "0.0-177.0", "time_elapsed": 1110035, "key_press": 32, "type": "INSTRUCTIONS", "trial_index": 240}, "uniqueid": "MTK1530:351SEKWQS1OVI2TDAFAX9ZB119MDMB", "dateTime": 1515954414199}, {"current_trial": 241, "trialdata": {"rt": [2920, 7694, 10390, 14452, 16204, 17953, 20965], "trial_type": "math-distractor", "key_times": [2733, 2858, 2920, 7469, 7516, 7694, 10078, 10296, 10390, 14053, 14327, 14452, 15879, 15945, 16204, 17730, 17816, 17953, 20734, 20877, 20965], "responses": ["22", "16", "14", "13", "13", "13", "11"], "num2": [9, 2, 1, 3, 7, 9, 5, 8], "num3": [7, 8, 4, 3, 3, 3, 2, 7], "conditions": [12, 1600, "v", 24000], "internal_node_id": "0.0-178.0", "key_presses": [50, 50, 13, 49, 54, 13, 49, 52, 13, 49, 51, 13, 49, 51, 13, 49, 51, 13, 49, 49, 13], "trial": 7, "time_elapsed": 1136040, "type": "DISTRACTOR", "trial_index": 241, "num1": [6, 5, 9, 7, 3, 1, 4, 9]}, "uniqueid": "MTK1530:351SEKWQS1OVI2TDAFAX9ZB119MDMB", "dateTime": 1515954440205}, {"current_trial": 242, "trialdata": {"rt": -1, "trial_type": "single-stim", "stimulus": "<p id=\"stim\">10</p>", "internal_node_id": "0.0-179.0-0.0", "time_elapsed": 1139043, "key_press": -1, "trial_index": 242}, "uniqueid": "MTK1530:351SEKWQS1OVI2TDAFAX9ZB119MDMB", "dateTime": 1515954443207}, {"current_trial": 243, "trialdata": {"rt": -1, "trial_type": "single-stim", "stimulus": "<p id=\"stim\">9</p>", "internal_node_id": "0.0-179.0-1.0", "time_elapsed": 1140046, "key_press": -1, "trial_index": 243}, "uniqueid": "MTK1530:351SEKWQS1OVI2TDAFAX9ZB119MDMB", "dateTime": 1515954444210}, {"current_trial": 244, "trialdata": {"rt": -1, "trial_type": "single-stim", "stimulus": "<p id=\"stim\">8</p>", "internal_node_id": "0.0-179.0-2.0", "time_elapsed": 1141048, "key_press": -1, "trial_index": 244}, "uniqueid": "MTK1530:351SEKWQS1OVI2TDAFAX9ZB119MDMB", "dateTime": 1515954445212}, {"current_trial": 245, "trialdata": {"rt": -1, "trial_type": "single-stim", "stimulus": "<p id=\"stim\">7</p>", "internal_node_id": "0.0-179.0-3.0", "time_elapsed": 1142050, "key_press": -1, "trial_index": 245}, "uniqueid": "MTK1530:351SEKWQS1OVI2TDAFAX9ZB119MDMB", "dateTime": 1515954446214}, {"current_trial": 246, "trialdata": {"rt": -1, "trial_type": "single-stim", "stimulus": "<p id=\"stim\">6</p>", "internal_node_id": "0.0-179.0-4.0", "time_elapsed": 1143052, "key_press": -1, "trial_index": 246}, "uniqueid": "MTK1530:351SEKWQS1OVI2TDAFAX9ZB119MDMB", "dateTime": 1515954447216}, {"current_trial": 247, "trialdata": {"rt": -1, "trial_type": "single-stim", "stimulus": "<p id=\"stim\">5</p>", "internal_node_id": "0.0-179.0-5.0", "time_elapsed": 1144054, "key_press": -1, "trial_index": 247}, "uniqueid": "MTK1530:351SEKWQS1OVI2TDAFAX9ZB119MDMB", "dateTime": 1515954448218}, {"current_trial": 248, "trialdata": {"rt": -1, "trial_type": "single-stim", "stimulus": "<p id=\"stim\">4</p>", "internal_node_id": "0.0-179.0-6.0", "time_elapsed": 1145056, "key_press": -1, "trial_index": 248}, "uniqueid": "MTK1530:351SEKWQS1OVI2TDAFAX9ZB119MDMB", "dateTime": 1515954449220}, {"current_trial": 249, "trialdata": {"rt": -1, "trial_type": "single-stim", "stimulus": "<p id=\"stim\">3</p>", "internal_node_id": "0.0-179.0-7.0", "time_elapsed": 1146058, "key_press": -1, "trial_index": 249}, "uniqueid": "MTK1530:351SEKWQS1OVI2TDAFAX9ZB119MDMB", "dateTime": 1515954450223}, {"current_trial": 250, "trialdata": {"rt": -1, "trial_type": "single-stim", "stimulus": "<p id=\"stim\">2</p>", "internal_node_id": "0.0-179.0-8.0", "time_elapsed": 1147060, "key_press": -1, "trial_index": 250}, "uniqueid": "MTK1530:351SEKWQS1OVI2TDAFAX9ZB119MDMB", "dateTime": 1515954451225}, {"current_trial": 251, "trialdata": {"rt": -1, "trial_type": "single-stim", "stimulus": "<p id=\"stim\">1</p>", "internal_node_id": "0.0-179.0-9.0", "time_elapsed": 1148063, "key_press": -1, "trial_index": 251}, "uniqueid": "MTK1530:351SEKWQS1OVI2TDAFAX9ZB119MDMB", "dateTime": 1515954452227}, {"current_trial": 252, "trialdata": {"rt": -1, "trial_type": "single-stim", "stimulus": "<p id=\"stim\">+</p>", "internal_node_id": "0.0-180.0-0.0", "time_elapsed": 1149565, "key_press": -1, "type": "FIXATION", "trial_index": 252}, "uniqueid": "MTK1530:351SEKWQS1OVI2TDAFAX9ZB119MDMB", "dateTime": 1515954453729}, {"current_trial": 253, "trialdata": {"rt": -1, "trial_type": "single-stim", "word": "yacht", "stimulus": "<p id=\"stim\">YACHT</p>", "conditions": [12, 1600, "v", 24000], "internal_node_id": "0.0-181.0", "trial": 7, "time_elapsed": 1151167, "serialpos": 0, "key_press": -1, "wordID": 1628, "type": "PRES_VIS", "trial_index": 253}, "uniqueid": "MTK1530:351SEKWQS1OVI2TDAFAX9ZB119MDMB", "dateTime": 151