{"condition": 0, "counterbalance": 2886, "assignmentId": "3TXWC2NHN0XMD7T1IW1HZCRH0RAS9W", "workerId": "MTK1091", "hitId": "34YWR3PJ28HAQATTM8J9GPBWWSBX0F", "currenttrial": 626, "bonus": 0, "data": [{"uniqueid": "MTK1091:3TXWC2NHN0XMD7T1IW1HZCRH0RAS9W", "current_trial": 0, "dateTime": 1513103131570, "trialdata": {"rt": 8561, "key_press": 32, "type": "INSTRUCTIONS", "trial_type": "text", "trial_index": 0, "time_elapsed": 8562, "internal_node_id": "0.0-0.0"}}, {"uniqueid": "MTK1091:3TXWC2NHN0XMD7T1IW1HZCRH0RAS9W", "current_trial": 1, "dateTime": 1513103153258, "trialdata": {"rt": 21687, "key_press": 32, "type": "INSTRUCTIONS", "trial_type": "text", "trial_index": 1, "time_elapsed": 30251, "internal_node_id": "0.0-1.0"}}, {"uniqueid": "MTK1091:3TXWC2NHN0XMD7T1IW1HZCRH0RAS9W", "current_trial": 2, "dateTime": 1513103163178, "trialdata": {"rt": [9916], "responses": ["ocean"], "type": "AUDIO_TEST", "trial_type": "audio-test", "trial_index": 2, "time_elapsed": 40171, "internal_node_id": "0.0-2.0"}}, {"uniqueid": "MTK1091:3TXWC2NHN0XMD7T1IW1HZCRH0RAS9W", "current_trial": 3, "dateTime": 1513103171858, "trialdata": {"rt": [8678], "responses": ["crystal"], "type": "AUDIO_TEST", "trial_type": "audio-test", "trial_index": 3, "time_elapsed": 48851, "internal_node_id": "0.0-3.0"}}, {"uniqueid": "MTK1091:3TXWC2NHN0XMD7T1IW1HZCRH0RAS9W", "current_trial": 4, "dateTime": 1513103179794, "trialdata": {"rt": [7934], "responses": ["spice"], "type": "AUDIO_TEST", "trial_type": "audio-test", "trial_index": 4, "time_elapsed": 56787, "internal_node_id": "0.0-4.0"}}, {"uniqueid": "MTK1091:3TXWC2NHN0XMD7T1IW1HZCRH0RAS9W", "current_trial": 5, "dateTime": 1513103203879, "trialdata": {"rt": 23333, "responses": "{\"Q0\":\"00:30\",\"Q1\":\"06:30\",\"Q2\":\"5\"}", "type": "SLEEP_SURVEY", "trial_type": "survey-text", "trial_index": 5, "time_elapsed": 80872, "internal_node_id": "0.0-5.0"}}, {"uniqueid": "MTK1091:3TXWC2NHN0XMD7T1IW1HZCRH0RAS9W", "current_trial": 6, "dateTime": 1513103229019, "trialdata": {"rt": 24139, "key_press": 32, "type": "INSTRUCTIONS", "trial_type": "text", "trial_index": 6, "time_elapsed": 106012, "internal_node_id": "0.0-6.0"}}, {"uniqueid": "MTK1091:3TXWC2NHN0XMD7T1IW1HZCRH0RAS9W", "current_trial": 7, "dateTime": 1513103253469, "trialdata": {"rt": 23947, "key_press": 32, "type": "INSTRUCTIONS", "trial_type": "text", "trial_index": 7, "time_elapsed": 130462, "internal_node_id": "0.0-7.0"}}, {"uniqueid": "MTK1091:3TXWC2NHN0XMD7T1IW1HZCRH0RAS9W", "current_trial": 8, "dateTime": 1513103258270, "trialdata": {"rt": 4301, "key_press": 32, "type": "INSTRUCTIONS", "trial_type": "text", "trial_index": 8, "time_elapsed": 135263, "internal_node_id": "0.0-8.0"}}, {"uniqueid": "MTK1091:3TXWC2NHN0XMD7T1IW1HZCRH0RAS9W", "current_trial": 9, "dateTime": 1513103277274, "trialdata": {"rt": [2862, 5166, 6957, 9022, 10662, 12478, 14094, 15534], "responses": ["14", "19", "16", "22", "11", "15", "10", "8"], "num1": [6, 3, 1, 5, 5, 3, 8, 2, 3], "num2": [2, 8, 7, 8, 1, 4, 1, 3, 9], "num3": [6, 8, 8, 9, 5, 8, 1, 3, 4], "type": "DISTRACTOR", "conditions": [18, 1200, "v", 18000], "trial": 0, "trial_type": "math-distractor", "trial_index": 9, "time_elapsed": 154267, "internal_node_id": "0.0-9.0"}}, {"uniqueid": "MTK1091:3TXWC2NHN0XMD7T1IW1HZCRH0RAS9W", "current_trial": 10, "dateTime": 1513103280276, "trialdata": {"rt": -1, "stimulus": "<p id=\"stim\">10</p>", "key_press": -1, "trial_type": "single-stim", "trial_index": 10, "time_elapsed": 157269, "internal_node_id": "0.0-10.0-0.0"}}, {"uniqueid": "MTK1091:3TXWC2NHN0XMD7T1IW1HZCRH0RAS9W", "current_trial": 11, "dateTime": 1513103281277, "trialdata": {"rt": -1, "stimulus": "<p id=\"stim\">9</p>", "key_press": -1, "trial_type": "single-stim", "trial_index": 11, "time_elapsed": 158270, "internal_node_id": "0.0-10.0-1.0"}}, {"uniqueid": "MTK1091:3TXWC2NHN0XMD7T1IW1HZCRH0RAS9W", "current_trial": 12, "dateTime": 1513103282278, "trialdata": {"rt": -1, "stimulus": "<p id=\"stim\">8</p>", "key_press": -1, "trial_type": "single-stim", "trial_index": 12, "time_elapsed": 159271, "internal_node_id": "0.0-10.0-2.0"}}, {"uniqueid": "MTK1091:3TXWC2NHN0XMD7T1IW1HZCRH0RAS9W", "current_trial": 13, "dateTime": 1513103283279, "trialdata": {"rt": -1, "stimulus": "<p id=\"stim\">7</p>", "key_press": -1, "trial_type": "single-stim", "trial_index": 13, "time_elapsed": 160272, "internal_node_id": "0.0-10.0-3.0"}}, {"uniqueid": "MTK1091:3TXWC2NHN0XMD7T1IW1HZCRH0RAS9W", "current_trial": 14, "dateTime": 1513103284279, "trialdata": {"rt": -1, "stimulus": "<p id=\"stim\">6</p>", "key_press": -1, "trial_type": "single-stim", "trial_index": 14, "time_elapsed": 161272, "internal_node_id": "0.0-10.0-4.0"}}, {"uniqueid": "MTK1091:3TXWC2NHN0XMD7T1IW1HZCRH0RAS9W", "current_trial": 15, "dateTime": 1513103285281, "trialdata": {"rt": -1, "stimulus": "<p id=\"stim\">5</p>", "key_press": -1, "trial_type": "single-stim", "trial_index": 15, "time_elapsed": 162274, "internal_node_id": "0.0-10.0-5.0"}}, {"uniqueid": "MTK1091:3TXWC2NHN0XMD7T1IW1HZCRH0RAS9W", "current_trial": 16, "dateTime": 1513103286283, "trialdata": {"rt": -1, "stimulus": "<p id=\"stim\">4</p>", "key_press": -1, "trial_type": "single-stim", "trial_index": 16, "time_elapsed": 163276, "internal_node_id": "0.0-10.0-6.0"}}, {"uniqueid": "MTK1091:3TXWC2NHN0XMD7T1IW1HZCRH0RAS9W", "current_trial": 17, "dateTime": 1513103287283, "trialdata": {"rt": -1, "stimulus": "<p id=\"stim\">3</p>", "key_press": -1, "trial_type": "single-stim", "trial_index": 17, "time_elapsed": 164276, "internal_node_id": "0.0-10.0-7.0"}}, {"uniqueid": "MTK1091:3TXWC2NHN0XMD7T1IW1HZCRH0RAS9W", "current_trial": 18, "dateTime": 1513103288284, "trialdata": {"rt": -1, "stimulus": "<p id=\"stim\">2</p>", "key_press": -1, "trial_type": "single-stim", "trial_index": 18, "time_elapsed": 165277, "internal_node_id": "0.0-10.0-8.0"}}, {"uniqueid": "MTK1091:3TXWC2NHN0XMD7T1IW1HZCRH0RAS9W", "current_trial": 19, "dateTime": 1513103289285, "trialdata": {"rt": -1, "stimulus": "<p id=\"stim\">1</p>", "key_press": -1, "trial_type": "single-stim", "trial_index": 19, "time_elapsed": 166278, "internal_node_id": "0.0-10.0-9.0"}}, {"uniqueid": "MTK1091:3TXWC2NHN0XMD7T1IW1HZCRH0RAS9W", "current_trial": 20, "dateTime": 1513103290786, "trialdata": {"rt": -1, "stimulus": "<p id=\"stim\">+</p>", "key_press": -1, "type": "FIXATION", "trial_type": "single-stim", "trial_index": 20, "time_elapsed": 167779, "internal_node_id": "0.0-11.0-0.0"}}, {"uniqueid": "MTK1091:3TXWC2NHN0XMD7T1IW1HZCRH0RAS9W", "current_trial": 21, "dateTime": 1513103291987, "trialdata": {"rt": -1, "stimulus": "<p id=\"stim\">BODY</p>", "key_press": -1, "type": "PRES_VIS", "word": "body", "wordID": 144, "conditions": [18, 1200, "v", 18000], "trial": 0, "serialpos": 0, "trial_type": "single-stim", "trial_index": 21, "time_elapsed": 168980, "internal_node_id": "0.0-12.0"}}, {"uniqueid": "MTK1091:3TXWC2NHN0XMD7T1IW1HZCRH0RAS9W", "current_trial": 22, "dateTime": 1513103294050, "trialdata": {"rt": -1, "stimulus": "<p id=\"stim\">JAPAN</p>", "key_press": -1, "type": "PRES_VIS", "word": "japan", "wordID": 748, "conditions": [18, 1200, "v", 18000], "trial": 0, "serialpos": 1, "trial_type": "single-stim", "trial_index": 22, "time_elapsed": 171043, "internal_node_id": "0.0-13.0"}}, {"uniqueid": "MTK1091:3TXWC2NHN0XMD7T1IW1HZCRH0RAS9W", "current_trial": 23, "dateTime": 1513103296182, "trialdata": {"rt": -1, "stimulus": "<p id=\"stim\">RAFT</p>", "key_press": -1, "type": "PRES_VIS", "word": "raft", "wordID": 1158, "conditions": [18, 1200, "v", 18000], "trial": 0, "serialpos": 2, "trial_type": "single-stim", "trial_index": 23, "time_elapsed": 173175, "internal_node_id": "0.0-14.0"}}, {"uniqueid": "MTK1091:3TXWC2NHN0XMD7T1IW1HZCRH0RAS9W", "current_trial": 24, "dateTime": 1513103298383, "trialdata": {"rt": -1, "stimulus": "<p id=\"stim\">CAMEL</p>", "key_press": -1, "type": "PRES_VIS", "word": "camel", "wordID": 222, "conditions": [18, 1200, "v", 18000], "trial": 0, "serialpos": 3, "trial_type": "single-stim", "trial_index": 24, "time_elapsed": 175376, "internal_node_id": "0.0-15.0"}}, {"uniqueid": "MTK1091:3TXWC2NHN0XMD7T1IW1HZCRH0RAS9W", "current_trial": 25, "dateTime": 1513103300783, "trialdata": {"rt": -1, "stimulus": "<p id=\"stim\">OX</p>", "key_press": -1, "type": "PRES_VIS", "word": "ox", "wordID": 993, "conditions": [18, 1200, "v", 18000], "trial": 0, "serialpos": 4, "trial_type": "single-stim", "trial_index": 25, "time_elapsed": 177776, "internal_node_id": "0.0-16.0"}}, {"uniqueid": "MTK1091:3TXWC2NHN0XMD7T1IW1HZCRH0RAS9W", "current_trial": 26, "dateTime": 1513103303170, "trialdata": {"rt": -1, "stimulus": "<p id=\"stim\">ROBBER</p>", "key_press": -1, "type": "PRES_VIS", "word": "robber", "wordID": 1196, "conditions": [18, 1200, "v", 18000], "trial": 0, "serialpos": 5, "trial_type": "single-stim", "trial_index": 26, "time_elapsed": 180163, "internal_node_id": "0.0-17.0"}}, {"uniqueid": "MTK1091:3TXWC2NHN0XMD7T1IW1HZCRH0RAS9W", "current_trial": 27, "dateTime": 1513103305231, "trialdata": {"rt": -1, "stimulus": "<p id=\"stim\">WAGON</p>", "key_press": -1, "type": "PRES_VIS", "word": "wagon", "wordID": 1577, "conditions": [18, 1200, "v", 18000], "trial": 0, "serialpos": 6, "trial_type": "single-stim", "trial_index": 27, "time_elapsed": 182224, "internal_node_id": "0.0-18.0"}}, {"uniqueid": "MTK1091:3TXWC2NHN0XMD7T1IW1HZCRH0RAS9W", "current_trial": 28, "dateTime": 1513103307323, "trialdata": {"rt": -1, "stimulus": "<p id=\"stim\">FRECKLE</p>", "key_press": -1, "type": "PRES_VIS", "word": "freckle", "wordID": 601, "conditions": [18, 1200, "v", 18000], "trial": 0, "serialpos": 7, "trial_type": "single-stim", "trial_index": 28, "time_elapsed": 184316, "internal_node_id": "0.0-19.0"}}, {"uniqueid": "MTK1091:3TXWC2NHN0XMD7T1IW1HZCRH0RAS9W", "current_trial": 29, "dateTime": 1513103309643, "trialdata": {"rt": -1, "stimulus": "<p id=\"stim\">PERMIT</p>", "key_press": -1, "type": "PRES_VIS", "word": "permit", "wordID": 1050, "conditions": [18, 1200, "v", 18000], "trial": 0, "serialpos": 8, "trial_type": "single-stim", "trial_index": 29, "time_elapsed": 186636, "internal_node_id": "0.0-20.0"}}, {"uniqueid": "MTK1091:3TXWC2NHN0XMD7T1IW1HZCRH0RAS9W", "current_trial": 30, "dateTime": 1513103311702, "trialdata": {"rt": -1, "stimulus": "<p id=\"stim\">SPOOL</p>", "key_press": -1, "type": "PRES_VIS", "word": "spool", "wordID": 1355, "conditions": [18, 1200, "v", 18000], "trial": 0, "serialpos": 9, "trial_type": "single-stim", "trial_index": 30, "time_elapsed": 188695, "internal_node_id": "0.0-21.0"}}, {"uniqueid": "MTK1091:3TXWC2NHN0XMD7T1IW1HZCRH0RAS9W", "current_trial": 31, "dateTime": 1513103313815, "trialdata": {"rt": -1, "stimulus": "<p id=\"stim\">SNAKE</p>", "key_press": -1, "type": "PRES_VIS", "word": "snake", "wordID": 1332, "conditions": [18, 1200, "v", 18000], "trial": 0, "serialpos": 10, "trial_type": "single-stim", "trial_index": 31, "time_elapsed": 190808, "internal_node_id": "0.0-22.0"}}, {"uniqueid": "MTK1091:3TXWC2NHN0XMD7T1IW1HZCRH0RAS9W", "current_trial": 32, "dateTime": 1513103315936, "trialdata": {"rt": -1, "stimulus": "<p id=\"stim\">SUNSET</p>", "key_press": -1, "type": "PRES_VIS", "word": "sunset", "wordID": 1407, "conditions": [18, 1200, "v", 18000], "trial": 0, "serialpos": 11, "trial_type": "single-stim", "trial_index": 32, "time_elapsed": 192929, "internal_node_id": "0.0-23.0"}}, {"uniqueid": "MTK1091:3TXWC2NHN0XMD7T1IW1HZCRH0RAS9W", "current_trial": 33, "dateTime": 1513103318029, "trialdata": {"rt": -1, "stimulus": "<p id=\"stim\">FLASHLIGHT</p>", "key_press": -1, "type": "PRES_VIS", "word": "flashlight", "wordID": 574, "conditions": [18, 1200, "v", 18000], "trial": 0, "serialpos": 12, "trial_type": "single-stim", "trial_index": 33, "time_elapsed": 195022, "internal_node_id": "0.0-24.0"}}, {"uniqueid": "MTK1091:3TXWC2NHN0XMD7T1IW1HZCRH0RAS9W", "current_trial": 34, "dateTime": 1513103320418, "trialdata": {"rt": -1, "stimulus": "<p id=\"stim\">ANTLER</p>", "key_press": -1, "type": "PRES_VIS", "word": "antler", "wordID": 28, "conditions": [18, 1200, "v", 18000], "trial": 0, "serialpos": 13, "trial_type": "single-stim", "trial_index": 34, "time_elapsed": 197411, "internal_node_id": "0.0-25.0"}}, {"uniqueid": "MTK1091:3TXWC2NHN0XMD7T1IW1HZCRH0RAS9W", "current_trial": 35, "dateTime": 1513103322657, "trialdata": {"rt": -1, "stimulus": "<p id=\"stim\">BRANCH</p>", "key_press": -1, "type": "PRES_VIS", "word": "branch", "wordID": 167, "conditions": [18, 1200, "v", 18000], "trial": 0, "serialpos": 14, "trial_type": "single-stim", "trial_index": 35, "time_elapsed": 199650, "internal_node_id": "0.0-26.0"}}, {"uniqueid": "MTK1091:3TXWC2NHN0XMD7T1IW1HZCRH0RAS9W", "current_trial": 36, "dateTime": 1513103324679, "trialdata": {"rt": -1, "stimulus": "<p id=\"stim\">OUTDOORS</p>", "key_press": -1, "type": "PRES_VIS", "word": "outdoors", "wordID": 986, "conditions": [18, 1200, "v", 18000], "trial": 0, "serialpos": 15, "trial_type": "single-stim", "trial_index": 36, "time_elapsed": 201672, "internal_node_id": "0.0-27.0"}}, {"uniqueid": "MTK1091:3TXWC2NHN0XMD7T1IW1HZCRH0RAS9W", "current_trial": 37, "dateTime": 1513103326878, "trialdata": {"rt": -1, "stimulus": "<p id=\"stim\">PORK</p>", "key_press": -1, "type": "PRES_VIS", "word": "pork", "wordID": 1107, "conditions": [18, 1200, "v", 18000], "trial": 0, "serialpos": 16, "trial_type": "single-stim", "trial_index": 37, "time_elapsed": 203871, "internal_node_id": "0.0-28.0"}}, {"uniqueid": "MTK1091:3TXWC2NHN0XMD7T1IW1HZCRH0RAS9W", "current_trial": 38, "dateTime": 1513103329155, "trialdata": {"rt": -1, "stimulus": "<p id=\"stim\">ANKLE</p>", "key_press": -1, "type": "PRES_VIS", "word": "ankle", "wordID": 23, "conditions": [18, 1200, "v", 18000], "trial": 0, "serialpos": 17, "trial_type": "single-stim", "trial_index": 38, "time_elapsed": 206148, "internal_node_id": "0.0-29.0"}}, {"uniqueid": "MTK1091:3TXWC2NHN0XMD7T1IW1HZCRH0RAS9W", "current_trial": 39, "dateTime": 1513103331641, "trialdata": {"rt": -1, "stimulus": "", "key_press": -1, "type": "PRE_RECALL_DELAY", "trial_type": "single-stim", "trial_index": 39, "time_elapsed": 208634, "internal_node_id": "0.0-30.0-0.0"}}, {"uniqueid": "MTK1091:3TXWC2NHN0XMD7T1IW1HZCRH0RAS9W", "current_trial": 40, "dateTime": 1513103332142, "trialdata": {"rt": -1000, "stimulus": "/static/audio/400Hz.wav", "key_press": -1, "type": "PRE_RECALL_ALERT", "trial_type": "single-audio", "trial_index": 40, "time_elapsed": 209135, "internal_node_id": "0.0-31.0"}}, {"uniqueid": "MTK1091:3TXWC2NHN0XMD7T1IW1HZCRH0RAS9W", "current_trial": 41, "dateTime": 1513103392146, "trialdata": {"rt": [4104, 5967, 7048, 7843, 8816, 12367, 16584, 17352], "recwords": ["ankle", "raft", "body", "ox", "cattle", "japan", "bottle", ""], "type": "FREE_RECALL", "conditions": [18, 1200, "v", 18000], "trial": 0, "trial_type": "free-recall", "trial_index": 41, "time_elapsed": 269138, "internal_node_id": "0.0-32.0-0.0"}}, {"uniqueid": "MTK1091:3TXWC2NHN0XMD7T1IW1HZCRH0RAS9W", "current_trial": 42, "dateTime": 1513103396153, "trialdata": {"rt": 2006, "key_press": 32, "type": "INSTRUCTIONS", "trial_type": "text", "trial_index": 42, "time_elapsed": 273146, "internal_node_id": "0.0-33.0"}}, {"uniqueid": "MTK1091:3TXWC2NHN0XMD7T1IW1HZCRH0RAS9W", "current_trial": 43, "dateTime": 1513103416157, "trialdata": {"rt": [2629, 4926, 7718, 9357, 11597, 13654, 15054], "responses": ["16", "13", "12", "16", "25", "14", "88"], "num1": [6, 2, 3, 7, 9, 3, 6, 5], "num2": [8, 6, 8, 7, 7, 7, 1, 7], "num3": [2, 9, 1, 2, 9, 4, 1, 2], "type": "DISTRACTOR", "conditions": [18, 1200, "a", 18000], "trial": 1, "trial_type": "math-distractor", "trial_index": 43, "time_elapsed": 293149, "internal_node_id": "0.0-34.0"}}, {"uniqueid": "MTK1091:3TXWC2NHN0XMD7T1IW1HZCRH0RAS9W", "current_trial": 44, "dateTime": 1513103419158, "trialdata": {"rt": -1, "stimulus": "<p id=\"stim\">10</p>", "key_press": -1, "trial_type": "single-stim", "trial_index": 44, "time_elapsed": 296151, "internal_node_id": "0.0-35.0-0.0"}}, {"uniqueid": "MTK1091:3TXWC2NHN0XMD7T1IW1HZCRH0RAS9W", "current_trial": 45, "dateTime": 1513103420159, "trialdata": {"rt": -1, "stimulus": "<p id=\"stim\">9</p>", "key_press": -1, "trial_type": "single-stim", "trial_index": 45, "time_elapsed": 297152, "internal_node_id": "0.0-35.0-1.0"}}, {"uniqueid": "MTK1091:3TXWC2NHN0XMD7T1IW1HZCRH0RAS9W", "current_trial": 46, "dateTime": 1513103421161, "trialdata": {"rt": -1, "stimulus": "<p id=\"stim\">8</p>", "key_press": -1, "trial_type": "single-stim", "trial_index": 46, "time_elapsed": 298154, "internal_node_id": "0.0-35.0-2.0"}}, {"uniqueid": "MTK1091:3TXWC2NHN0XMD7T1IW1HZCRH0RAS9W", "current_trial": 47, "dateTime": 1513103422162, "trialdata": {"rt": -1, "stimulus": "<p id=\"stim\">7</p>", "key_press": -1, "trial_type": "single-stim", "trial_index": 47, "time_elapsed": 299155, "internal_node_id": "0.0-35.0-3.0"}}, {"uniqueid": "MTK1091:3TXWC2NHN0XMD7T1IW1HZCRH0RAS9W", "current_trial": 48, "dateTime": 1513103423163, "trialdata": {"rt": -1, "stimulus": "<p id=\"stim\">6</p>", "key_press": -1, "trial_type": "single-stim", "trial_index": 48, "time_elapsed": 300156, "internal_node_id": "0.0-35.0-4.0"}}, {"uniqueid": "MTK1091:3TXWC2NHN0XMD7T1IW1HZCRH0RAS9W", "current_trial": 49, "dateTime": 1513103424165, "trialdata": {"rt": -1, "stimulus": "<p id=\"stim\">5</p>", "key_press": -1, "trial_type": "single-stim", "trial_index": 49, "time_elapsed": 301158, "internal_node_id": "0.0-35.0-5.0"}}, {"uniqueid": "MTK1091:3TXWC2NHN0XMD7T1IW1HZCRH0RAS9W", "current_trial": 50, "dateTime": 1513103425166, "trialdata": {"rt": -1, "stimulus": "<p id=\"stim\">4</p>", "key_press": -1, "trial_type": "single-stim", "trial_index": 50, "time_elapsed": 302159, "internal_node_id": "0.0-35.0-6.0"}}, {"uniqueid": "MTK1091:3TXWC2NHN0XMD7T1IW1HZCRH0RAS9W", "current_trial": 51, "dateTime": 1513103426167, "trialdata": {"rt": -1, "stimulus": "<p id=\"stim\">3</p>", "key_press": -1, "trial_type": "single-stim", "trial_index": 51, "time_elapsed": 303160, "internal_node_id": "0.0-35.0-7.0"}}, {"uniqueid": "MTK1091:3TXWC2NHN0XMD7T1IW1HZCRH0RAS9W", "current_trial": 52, "dateTime": 1513103427169, "trialdata": {"rt": -1, "stimulus": "<p id=\"stim\">2</p>", "key_press": -1, "trial_type": "single-stim", "trial_index": 52, "time_elapsed": 304162, "internal_node_id": "0.0-35.0-8.0"}}, {"uniqueid": "MTK1091:3TXWC2NHN0XMD7T1IW1HZCRH0RAS9W", "current_trial": 53, "dateTime": 1513103428170, "trialdata": {"rt": -1, "stimulus": "<p id=\"stim\">1</p>", "key_press": -1, "trial_type": "single-stim", "trial_index": 53, "time_elapsed": 305163, "internal_node_id": "0.0-35.0-9.0"}}, {"uniqueid": "MTK1091:3TXWC2NHN0XMD7T1IW1HZCRH0RAS9W", "current_trial": 54, "dateTime": 1513103429671, "trialdata": {"rt": -1, "stimulus": "<p id=\"stim\">+</p>", "key_press": -1, "type": "FIXATION", "trial_type": "single-stim", "trial_index": 54, "time_elapsed": 306664, "internal_node_id": "0.0-36.0-0.0"}}, {"uniqueid": "MTK1091:3TXWC2NHN0XMD7T1IW1HZCRH0RAS9W", "current_trial": 55, "dateTime": 1513103432022, "trialdata": {"rt": -1000, "stimulus": "/static/audio/wordpool/FRAME.wav", "key_press": -1, "type": "PRES_AUD", "word": "frame", "wordID": 599, "conditions": [18, 1200, "a", 18000], "trial": 1, "serialpos": 0, "trial_type": "single-audio", "trial_index": 55, "time_elapsed": 309015, "internal_node_id": "0.0-37.0"}}, {"uniqueid": "MTK1091:3TXWC2NHN0XMD7T1IW1HZCRH0RAS9W", "current_trial": 56, "dateTime": 1513103434042, "trialdata": {"rt": -1000, "stimulus": "/static/audio/wordpool/BABY.wav", "key_press": -1, "type": "PRES_AUD", "word": "baby", "wordID": 63, "conditions": [18, 1200, "a", 18000], "trial": 1, "serialpos": 1, "trial_type": "single-audio", "trial_index": 56, "time_elapsed": 311035, "internal_node_id": "0.0-38.0"}}, {"uniqueid": "MTK1091:3TXWC2NHN0XMD7T1IW1HZCRH0RAS9W", "current_trial": 57, "dateTime": 1513103436387, "trialdata": {"rt": -1000, "stimulus": "/static/audio/wordpool/SHERIFF.wav", "key_press": -1, "type": "PRES_AUD", "word": "sheriff", "wordID": 1283, "conditions": [18, 1200, "a", 18000], "trial": 1, "serialpos": 2, "trial_type": "single-audio", "trial_index": 57, "time_elapsed": 313380, "internal_node_id": "0.0-39.0"}}, {"uniqueid": "MTK1091:3TXWC2NHN0XMD7T1IW1HZCRH0RAS9W", "current_trial": 58, "dateTime": 1513103438674, "trialdata": {"rt": -1000, "stimulus": "/static/audio/wordpool/SURVEY.wav", "key_press": -1, "type": "PRES_AUD", "word": "survey", "wordID": 1413, "conditions": [18, 1200, "a", 18000], "trial": 1, "serialpos": 3, "trial_type": "single-audio", "trial_index": 58, "time_elapsed": 315667, "internal_node_id": "0.0-40.0"}}, {"uniqueid": "MTK1091:3TXWC2NHN0XMD7T1IW1HZCRH0RAS9W", "current_trial": 59, "dateTime": 1513103441057, "trialdata": {"rt": -1000, "stimulus": "/static/audio/wordpool/LION.wav", "key_press": -1, "type": "PRES_AUD", "word": "lion", "wordID": 826, "conditions": [18, 1200, "a", 18000], "trial": 1, "serialpos": 4, "trial_type": "single-audio", "trial_index": 59, "time_elapsed": 318050, "internal_node_id": "0.0-41.0"}}, {"uniqueid": "MTK1091:3TXWC2NHN0XMD7T1IW1HZCRH0RAS9W", "current_trial": 60, "dateTime": 1513103443312, "trialdata": {"rt": -1000, "stimulus": "/static/audio/wordpool/GRILL.wav", "key_press": -1, "type": "PRES_AUD", "word": "grill", "wordID": 660, "conditions": [18, 1200, "a", 18000], "trial": 1, "serialpos": 5, "trial_type": "single-audio", "trial_index": 60, "time_elapsed": 320305, "internal_node_id": "0.0-42.0"}}, {"uniqueid": "MTK1091:3TXWC2NHN0XMD7T1IW1HZCRH0RAS9W", "current_trial": 61, "dateTime": 1513103445507, "trialdata": {"rt": -1000, "stimulus": "/static/audio/wordpool/CATTLE.wav", "key_press": -1, "type": "PRES_AUD", "word": "cattle", "wordID": 260, "conditions": [18, 1200, "a", 18000], "trial": 1, "serialpos": 6, "trial_type": "single-audio", "trial_index": 61, "time_elapsed": 322500, "internal_node_id": "0.0-43.0"}}, {"uniqueid": "MTK1091:3TXWC2NHN0XMD7T1IW1HZCRH0RAS9W", "current_trial": 62, "dateTime": 1513103447579, "trialdata": {"rt": -1000, "stimulus": "/static/audio/wordpool/CYCLONE.wav", "key_press": -1, "type": "PRES_AUD", "word": "cyclone", "wordID": 430, "conditions": [18, 1200, "a", 18000], "trial": 1, "serialpos": 7, "trial_type": "single-audio", "trial_index": 62, "time_elapsed": 324572, "internal_node_id": "0.0-44.0"}}, {"uniqueid": "MTK1091:3TXWC2NHN0XMD7T1IW1HZCRH0RAS9W", "current_trial": 63, "dateTime": 1513103449710, "trialdata": {"rt": -1000, "stimulus": "/static/audio/wordpool/COUNTY.wav", "key_press": -1, "type": "PRES_AUD", "word": "county", "wordID": 388, "conditions": [18, 1200, "a", 18000], "trial": 1, "serialpos": 8, "trial_type": "single-audio", "trial_index": 63, "time_elapsed": 326703, "internal_node_id": "0.0-45.0"}}, {"uniqueid": "MTK1091:3TXWC2NHN0XMD7T1IW1HZCRH0RAS9W", "current_trial": 64, "dateTime": 1513103452075, "trialdata": {"rt": -1000, "stimulus": "/static/audio/wordpool/JOURNAL.wav", "key_press": -1, "type": "PRES_AUD", "word": "journal", "wordID": 759, "conditions": [18, 1200, "a", 18000], "trial": 1, "serialpos": 9, "trial_type": "single-audio", "trial_index": 64, "time_elapsed": 329068, "internal_node_id": "0.0-46.0"}}, {"uniqueid": "MTK1091:3TXWC2NHN0XMD7T1IW1HZCRH0RAS9W", "current_trial": 65, "dateTime": 1513103454128, "trialdata": {"rt": -1000, "stimulus": "/static/audio/wordpool/TURTLE.wav", "key_press": -1, "type": "PRES_AUD", "word": "turtle", "wordID": 1521, "conditions": [18, 1200, "a", 18000], "trial": 1, "serialpos": 10, "trial_type": "single-audio", "trial_index": 65, "time_elapsed": 331121, "internal_node_id": "0.0-47.0"}}, {"uniqueid": "MTK1091:3TXWC2NHN0XMD7T1IW1HZCRH0RAS9W", "current_trial": 66, "dateTime": 1513103456511, "trialdata": {"rt": -1000, "stimulus": "/static/audio/wordpool/CHAMPAGNE.wav", "key_press": -1, "type": "PRES_AUD", "word": "champagne", "wordID": 277, "conditions": [18, 1200, "a", 18000], "trial": 1, "serialpos": 11, "trial_type": "single-audio", "trial_index": 66, "time_elapsed": 333504, "internal_node_id": "0.0-48.0"}}, {"uniqueid": "MTK1091:3TXWC2NHN0XMD7T1IW1HZCRH0RAS9W", "current_trial": 67, "dateTime": 1513103458693, "trialdata": {"rt": -1000, "stimulus": "/static/audio/wordpool/BIKE.wav", "key_press": -1, "type": "PRES_AUD", "word": "bike", "wordID": 124, "conditions": [18, 1200, "a", 18000], "trial": 1, "serialpos": 12, "trial_type": "single-audio", "trial_index": 67, "time_elapsed": 335685, "internal_node_id": "0.0-49.0"}}, {"uniqueid": "MTK1091:3TXWC2NHN0XMD7T1IW1HZCRH0RAS9W", "current_trial": 68, "dateTime": 1513103460877, "trialdata": {"rt": -1000, "stimulus": "/static/audio/wordpool/CANAL.wav", "key_press": -1, "type": "PRES_AUD", "word": "canal", "wordID": 225, "conditions": [18, 1200, "a", 18000], "trial": 1, "serialpos": 13, "trial_type": "single-audio", "trial_index": 68, "time_elapsed": 337870, "internal_node_id": "0.0-50.0"}}, {"uniqueid": "MTK1091:3TXWC2NHN0XMD7T1IW1HZCRH0RAS9W", "current_trial": 69, "dateTime": 1513103462894, "trialdata": {"rt": -1000, "stimulus": "/static/audio/wordpool/EAGLE.wav", "key_press": -1, "type": "PRES_AUD", "word": "eagle", "wordID": 511, "conditions": [18, 1200, "a", 18000], "trial": 1, "serialpos": 14, "trial_type": "single-audio", "trial_index": 69, "time_elapsed": 339887, "internal_node_id": "0.0-51.0"}}, {"uniqueid": "MTK1091:3TXWC2NHN0XMD7T1IW1HZCRH0RAS9W", "current_trial": 70, "dateTime": 1513103465265, "trialdata": {"rt": -1000, "stimulus": "/static/audio/wordpool/ROBOT.wav", "key_press": -1, "type": "PRES_AUD", "word": "robot", "wordID": 1199, "conditions": [18, 1200, "a", 18000], "trial": 1, "serialpos": 15, "trial_type": "single-audio", "trial_index": 70, "time_elapsed": 342258, "internal_node_id": "0.0-52.0"}}, {"uniqueid": "MTK1091:3TXWC2NHN0XMD7T1IW1HZCRH0RAS9W", "current_trial": 71, "dateTime": 1513103467305, "trialdata": {"rt": -1000, "stimulus": "/static/audio/wordpool/SUMMIT.wav", "key_press": -1, "type": "PRES_AUD", "word": "summit", "wordID": 1404, "conditions": [18, 1200, "a", 18000], "trial": 1, "serialpos": 16, "trial_type": "single-audio", "trial_index": 71, "time_elapsed": 344298, "internal_node_id": "0.0-53.0"}}, {"uniqueid": "MTK1091:3TXWC2NHN0XMD7T1IW1HZCRH0RAS9W", "current_trial": 72, "dateTime": 1513103469430, "trialdata": {"rt": -1000, "stimulus": "/static/audio/wordpool/PEBBLE.wav", "key_press": -1, "type": "PRES_AUD", "word": "pebble", "wordID": 1034, "conditions": [18, 1200, "a", 18000], "trial": 1, "serialpos": 17, "trial_type": "single-audio", "trial_index": 72, "time_elapsed": 346423, "internal_node_id": "0.0-54.0"}}, {"uniqueid": "MTK1091:3TXWC2NHN0XMD7T1IW1HZCRH0RAS9W", "current_trial": 73, "dateTime": 1513103470668, "trialdata": {"rt": -1, "stimulus": "", "key_press": -1, "type": "PRE_RECALL_DELAY", "trial_type": "single-stim", "trial_index": 73, "time_elapsed": 347661, "internal_node_id": "0.0-55.0-0.0"}}, {"uniqueid": "MTK1091:3TXWC2NHN0XMD7T1IW1HZCRH0RAS9W", "current_trial": 74, "dateTime": 1513103471169, "trialdata": {"rt": -1000, "stimulus": "/static/audio/400Hz.wav", "key_press": -1, "type": "PRE_RECALL_ALERT", "trial_type": "single-audio", "trial_index": 74, "time_elapsed": 348162, "internal_node_id": "0.0-56.0"}}, {"uniqueid": "MTK1091:3TXWC2NHN0XMD7T1IW1HZCRH0RAS9W", "current_trial": 75, "dateTime": 1513103531173, "trialdata": {"rt": [6817, 8745, 9560, 12025, 13905, 14952, 21657], "recwords": ["hubble", "robot", "eagle", "baby", "sheriff", "lion", "champagne"], "type": "FREE_RECALL", "conditions": [18, 1200, "a", 18000], "trial": 1, "trial_type": "free-recall", "trial_index": 75, "time_elapsed": 408165, "internal_node_id": "0.0-57.0-0.0"}}, {"uniqueid": "MTK1091:3TXWC2NHN0XMD7T1IW1HZCRH0RAS9W", "current_trial": 76, "dateTime": 1513103801901, "trialdata": {"rt": 268725, "key_press": 32, "type": "INSTRUCTIONS", "trial_type": "text", "trial_index": 76, "time_elapsed": 678892, "internal_node_id": "0.0-58.0"}}, {"uniqueid": "MTK1091:3TXWC2NHN0XMD7T1IW1HZCRH0RAS9W", "current_trial": 77, "dateTime": 1513103814904, "trialdata": {"rt": [5110, 7598, 11206], "responses": ["17", "17", "13"], "num1": [5, 2, 4, 9], "num2": [3, 8, 5, 3], "num3": [9, 7, 4, 4], "type": "DISTRACTOR", "conditions": [12, 1600, "a", 12000], "trial": 2, "trial_type": "math-distractor", "trial_index": 77, "time_elapsed": 691897, "internal_node_id": "0.0-59.0"}}, {"uniqueid": "MTK1091:3TXWC2NHN0XMD7T1IW1HZCRH0RAS9W", "current_trial": 78, "dateTime": 1513103817906, "trialdata": {"rt": -1, "stimulus": "<p id=\"stim\">10</p>", "key_press": -1, "trial_type": "single-stim", "trial_index": 78, "time_elapsed": 694899, "internal_node_id": "0.0-60.0-0.0"}}, {"uniqueid": "MTK1091:3TXWC2NHN0XMD7T1IW1HZCRH0RAS9W", "current_trial": 79, "dateTime": 1513103818906, "trialdata": {"rt": -1, "stimulus": "<p id=\"stim\">9</p>", "key_press": -1, "trial_type": "single-stim", "trial_index": 79, "time_elapsed": 695899, "internal_node_id": "0.0-60.0-1.0"}}, {"uniqueid": "MTK1091:3TXWC2NHN0XMD7T1IW1HZCRH0RAS9W", "current_trial": 80, "dateTime": 1513103819908, "trialdata": {"rt": -1, "stimulus": "<p id=\"stim\">8</p>", "key_press": -1, "trial_type": "single-stim", "trial_index": 80, "time_elapsed": 696901, "internal_node_id": "0.0-60.0-2.0"}}, {"uniqueid": "MTK1091:3TXWC2NHN0XMD7T1IW1HZCRH0RAS9W", "current_trial": 81, "dateTime": 1513103820909, "trialdata": {"rt": -1, "stimulus": "<p id=\"stim\">7</p>", "key_press": -1, "trial_type": "single-stim", "trial_index": 81, "time_elapsed": 697902, "internal_node_id": "0.0-60.0-3.0"}}, {"uniqueid": "MTK1091:3TXWC2NHN0XMD7T1IW1HZCRH0RAS9W", "current_trial": 82, "dateTime": 1513103821910, "trialdata": {"rt": -1, "stimulus": "<p id=\"stim\">6</p>", "key_press": -1, "trial_type": "single-stim", "trial_index": 82, "time_elapsed": 698903, "internal_node_id": "0.0-60.0-4.0"}}, {"uniqueid": "MTK1091:3TXWC2NHN0XMD7T1IW1HZCRH0RAS9W", "current_trial": 83, "dateTime": 1513103822911, "trialdata": {"rt": -1, "stimulus": "<p id=\"stim\">5</p>", "key_press": -1, "trial_type": "single-stim", "trial_index": 83, "time_elapsed": 699904, "internal_node_id": "0.0-60.0-5.0"}}, {"uniqueid": "MTK1091:3TXWC2NHN0XMD7T1IW1HZCRH0RAS9W", "current_trial": 84, "dateTime": 1513103823912, "trialdata": {"rt": -1, "stimulus": "<p id=\"stim\">4</p>", "key_press": -1, "trial_type": "single-stim", "trial_index": 84, "time_elapsed": 700905, "internal_node_id": "0.0-60.0-6.0"}}, {"uniqueid": "MTK1091:3TXWC2NHN0XMD7T1IW1HZCRH0RAS9W", "current_trial": 85, "dateTime": 1513103824913, "trialdata": {"rt": -1, "stimulus": "<p id=\"stim\">3</p>", "key_press": -1, "trial_type": "single-stim", "trial_index": 85, "time_elapsed": 701906, "internal_node_id": "0.0-60.0-7.0"}}, {"uniqueid": "MTK1091:3TXWC2NHN0XMD7T1IW1HZCRH0RAS9W", "current_trial": 86, "dateTime": 1513103825915, "trialdata": {"rt": -1, "stimulus": "<p id=\"stim\">2</p>", "key_press": -1, "trial_type": "single-stim", "trial_index": 86, "time_elapsed": 702908, "internal_node_id": "0.0-60.0-8.0"}}, {"uniqueid": "MTK1091:3TXWC2NHN0XMD7T1IW1HZCRH0RAS9W", "current_trial": 87, "dateTime": 1513103826915, "trialdata": {"rt": -1, "stimulus": "<p id=\"stim\">1</p>", "key_press": -1, "trial_type": "single-stim", "trial_index": 87, "time_elapsed": 703908, "internal_node_id": "0.0-60.0-9.0"}}, {"uniqueid": "MTK1091:3TXWC2NHN0XMD7T1IW1HZCRH0RAS9W", "current_trial": 88, "dateTime": 1513103828416, "trialdata": {"rt": -1, "stimulus": "<p id=\"stim\">+</p>", "key_press": -1, "type": "FIXATION", "trial_type": "single-stim", "trial_index": 88, "time_elapsed": 705409, "internal_node_id": "0.0-61.0-0.0"}}, {"uniqueid": "MTK1091:3TXWC2NHN0XMD7T1IW1HZCRH0RAS9W", "current_trial": 89, "dateTime": 1513103830986, "trialdata": {"rt": -1000, "stimulus": "/static/audio/wordpool/CLAMP.wav", "key_press": -1, "type": "PRES_AUD", "word": "clamp", "wordID": 315, "conditions": [12, 1600, "a", 12000], "trial": 2, "serialpos": 0, "trial_type": "single-audio", "trial_index": 89, "time_elapsed": 707979, "internal_node_id": "0.0-62.0"}}, {"uniqueid": "MTK1091:3TXWC2NHN0XMD7T1IW1HZCRH0RAS9W", "current_trial": 90, "dateTime": 1513103833603, "trialdata": {"rt": -1000, "stimulus": "/static/audio/wordpool/OUTFIT.wav", "key_press": -1, "type": "PRES_AUD", "word": "outfit", "wordID": 987, "conditions": [12, 1600, "a", 12000], "trial": 2, "serialpos": 1, "trial_type": "single-audio", "trial_index": 90, "time_elapsed": 710596, "internal_node_id": "0.0-63.0"}}, {"uniqueid": "MTK1091:3TXWC2NHN0XMD7T1IW1HZCRH0RAS9W", "current_trial": 91, "dateTime": 1513103836033, "trialdata": {"rt": -1000, "stimulus": "/static/audio/wordpool/TABLE.wav", "key_press": -1, "type": "PRES_AUD", "word": "table", "wordID": 1425, "conditions": [12, 1600, "a", 12000], "trial": 2, "serialpos": 2, "trial_type": "single-audio", "trial_index": 91, "time_elapsed": 713026, "internal_node_id": "0.0-64.0"}}, {"uniqueid": "MTK1091:3TXWC2NHN0XMD7T1IW1HZCRH0RAS9W", "current_trial": 92, "dateTime": 1513103838651, "trialdata": {"rt": -1000, "stimulus": "/static/audio/wordpool/BASEMENT.wav", "key_press": -1, "type": "PRES_AUD", "word": "basement", "wordID": 93, "conditions": [12, 1600, "a", 12000], "trial": 2, "serialpos": 3, "trial_type": "single-audio", "trial_index": 92, "time_elapsed": 715644, "internal_node_id": "0.0-65.0"}}, {"uniqueid": "MTK1091:3TXWC2NHN0XMD7T1IW1HZCRH0RAS9W", "current_trial": 93, "dateTime": 1513103841281, "trialdata": {"rt": -1000, "stimulus": "/static/audio/wordpool/CRIB.wav", "key_press": -1, "type": "PRES_AUD", "word": "crib", "wordID": 406, "conditions": [12, 1600, "a", 12000], "trial": 2, "serialpos": 4, "trial_type": "single-audio", "trial_index": 93, "time_elapsed": 718274, "internal_node_id": "0.0-66.0"}}, {"uniqueid": "MTK1091:3TXWC2NHN0XMD7T1IW1HZCRH0RAS9W", "current_trial": 94, "dateTime": 1513103843998, "trialdata": {"rt": -1000, "stimulus": "/static/audio/wordpool/PASSAGE.wav", "key_press": -1, "type": "PRES_AUD", "word": "passage", "wordID": 1018, "conditions": [12, 1600, "a", 12000], "trial": 2, "serialpos": 5, "trial_type": "single-audio", "trial_index": 94, "time_elapsed": 720991, "internal_node_id": "0.0-67.0"}}, {"uniqueid": "MTK1091:3TXWC2NHN0XMD7T1IW1HZCRH0RAS9W", "current_trial": 95, "dateTime": 1513103846487, "trialdata": {"rt": -1000, "stimulus": "/static/audio/wordpool/SCARF.wav", "key_press": -1, "type": "PRES_AUD", "word": "scarf", "wordID": 1245, "conditions": [12, 1600, "a", 12000], "trial": 2, "serialpos": 6, "trial_type": "single-audio", "trial_index": 95, "time_elapsed": 723480, "internal_node_id": "0.0-68.0"}}, {"uniqueid": "MTK1091:3TXWC2NHN0XMD7T1IW1HZCRH0RAS9W", "current_trial": 96, "dateTime": 1513103848982, "trialdata": {"rt": -1000, "stimulus": "/static/audio/wordpool/ZIPPER.wav", "key_press": -1, "type": "PRES_AUD", "word": "zipper", "wordID": 1635, "conditions": [12, 1600, "a", 12000], "trial": 2, "serialpos": 7, "trial_type": "single-audio", "trial_index": 96, "time_elapsed": 725975, "internal_node_id": "0.0-69.0"}}, {"uniqueid": "MTK1091:3TXWC2NHN0XMD7T1IW1HZCRH0RAS9W", "current_trial": 97, "dateTime": 1513103851658, "trialdata": {"rt": -1000, "stimulus": "/static/audio/wordpool/CLOTHES.wav", "key_press": -1, "type": "PRES_AUD", "word": "clothes", "wordID": 326, "conditions": [12, 1600, "a", 12000], "trial": 2, "serialpos": 8, "trial_type": "single-audio", "trial_index": 97, "time_elapsed": 728651, "internal_node_id": "0.0-70.0"}}, {"uniqueid": "MTK1091:3TXWC2NHN0XMD7T1IW1HZCRH0RAS9W", "current_trial": 98, "dateTime": 1513103854067, "trialdata": {"rt": -1000, "stimulus": "/static/audio/wordpool/DENIM.wav", "key_press": -1, "type": "PRES_AUD", "word": "denim", "wordID": 445, "conditions": [12, 1600, "a", 12000], "trial": 2, "serialpos": 9, "trial_type": "single-audio", "trial_index": 98, "time_elapsed": 731060, "internal_node_id": "0.0-71.0"}}, {"uniqueid": "MTK1091:3TXWC2NHN0XMD7T1IW1HZCRH0RAS9W", "current_trial": 99, "dateTime": 1513103856663, "trialdata": {"rt": -1000, "stimulus": "/static/audio/wordpool/HEART.wav", "key_press": -1, "type": "PRES_AUD", "word": "heart", "wordID": 696, "conditions": [12, 1600, "a", 12000], "trial": 2, "serialpos": 10, "trial_type": "single-audio", "trial_index": 99, "time_elapsed": 733656, "internal_node_id": "0.0-72.0"}}, {"uniqueid": "MTK1091:3TXWC2NHN0XMD7T1IW1HZCRH0RAS9W", "current_trial": 100, "dateTime": 1513103859314, "trialdata": {"rt": -1000, "stimulus": "/static/audio/wordpool/SHIRT.wav", "key_press": -1, "type": "PRES_AUD", "word": "shirt", "wordID": 1286, "conditions": [12, 1600, "a", 12000], "trial": 2, "serialpos": 11, "trial_type": "single-audio", "trial_index": 100, "time_elapsed": 736307, "internal_node_id": "0.0-73.0"}}, {"uniqueid": "MTK1091:3TXWC2NHN0XMD7T1IW1HZCRH0RAS9W", "current_trial": 101, "dateTime": 1513103860537, "trialdata": {"rt": -1, "stimulus": "", "key_press": -1, "type": "PRE_RECALL_DELAY", "trial_type": "single-stim", "trial_index": 101, "time_elapsed": 737530, "internal_node_id": "0.0-74.0-0.0"}}, {"uniqueid": "MTK1091:3TXWC2NHN0XMD7T1IW1HZCRH0RAS9W", "current_trial": 102, "dateTime": 1513103861038, "trialdata": {"rt": -1000, "stimulus": "/static/audio/400Hz.wav", "key_press": -1, "type": "PRE_RECALL_ALERT", "trial_type": "single-audio", "trial_index": 102, "time_elapsed": 738031, "internal_node_id": "0.0-75.0"}}, {"uniqueid": "MTK1091:3TXWC2NHN0XMD7T1IW1HZCRH0RAS9W", "current_trial": 103, "dateTime": 1513103921040, "trialdata": {"rt": [6983, 10158, 11694, 14911, 18951], "recwords": ["crib", "zipper", "table", "outfit", "shirt"], "type": "FREE_RECALL", "conditions": [12, 1600, "a", 12000], "trial": 2, "trial_type": "free-recall", "trial_index": 103, "time_elapsed": 798032, "internal_node_id": "0.0-76.0-0.0"}}, {"uniqueid": "MTK1091:3TXWC2NHN0XMD7T1IW1HZCRH0RAS9W", "current_trial": 104, "dateTime": 1513103925070, "trialdata": {"rt": 2028, "key_press": 32, "type": "INSTRUCTIONS", "trial_type": "text", "trial_index": 104, "time_elapsed": 802063, "internal_node_id": "0.0-77.0"}}, {"uniqueid": "MTK1091:3TXWC2NHN0XMD7T1IW1HZCRH0RAS9W", "current_trial": 105, "dateTime": 1513103951072, "trialdata": {"rt": [2624, 4072, 5928, 7841, 9672, 11583, 13792, 15762, 17601, 19504, 21449, 23457], "responses": ["20", "5", "19", "17", "13", "17", "22", "18", "20", "16", "19", "14"], "num1": [5, 2, 5, 2, 2, 8, 7, 2, 9, 6, 6, 2, 9], "num2": [8, 2, 9, 6, 4, 8, 6, 9, 3, 8, 7, 9, 2], "num3": [7, 1, 5, 9, 7, 1, 9, 7, 8, 2, 6, 3, 9], "type": "DISTRACTOR", "conditions": [12, 800, "v", 24000], "trial": 3, "trial_type": "math-distractor", "trial_index": 105, "time_elapsed": 828065, "internal_node_id": "0.0-78.0"}}, {"uniqueid": "MTK1091:3TXWC2NHN0XMD7T1IW1HZCRH0RAS9W", "current_trial": 106, "dateTime": 1513103954074, "trialdata": {"rt": -1, "stimulus": "<p id=\"stim\">10</p>", "key_press": -1, "trial_type": "single-stim", "trial_index": 106, "time_elapsed": 831067, "internal_node_id": "0.0-79.0-0.0"}}, {"uniqueid": "MTK1091:3TXWC2NHN0XMD7T1IW1HZCRH0RAS9W", "current_trial": 107, "dateTime": 1513103955075, "trialdata": {"rt": -1, "stimulus": "<p id=\"stim\">9</p>", "key_press": -1, "trial_type": "single-stim", "trial_index": 107, "time_elapsed": 832068, "internal_node_id": "0.0-79.0-1.0"}}, {"uniqueid": "MTK1091:3TXWC2NHN0XMD7T1IW1HZCRH0RAS9W", "current_trial": 108, "dateTime": 1513103956076, "trialdata": {"rt": -1, "stimulus": "<p id=\"stim\">8</p>", "key_press": -1, "trial_type": "single-stim", "trial_index": 108, "time_elapsed": 833069, "internal_node_id": "0.0-79.0-2.0"}}, {"uniqueid": "MTK1091:3TXWC2NHN0XMD7T1IW1HZCRH0RAS9W", "current_trial": 109, "dateTime": 1513103957077, "trialdata": {"rt": -1, "stimulus": "<p id=\"stim\">7</p>", "key_press": -1, "trial_type": "single-stim", "trial_index": 109, "time_elapsed": 834070, "internal_node_id": "0.0-79.0-3.0"}}, {"uniqueid": "MTK1091:3TXWC2NHN0XMD7T1IW1HZCRH0RAS9W", "current_trial": 110, "dateTime": 1513103958080, "trialdata": {"rt": -1, "stimulus": "<p id=\"stim\">6</p>", "key_press": -1, "trial_type": "single-stim", "trial_index": 110, "time_elapsed": 835073, "internal_node_id": "0.0-79.0-4.0"}}, {"uniqueid": "MTK1091:3TXWC2NHN0XMD7T1IW1HZCRH0RAS9W", "current_trial": 111, "dateTime": 1513103959081, "trialdata": {"rt": -1, "stimulus": "<p id=\"stim\">5</p>", "key_press": -1, "trial_type": "single-stim", "trial_index": 111, "time_elapsed": 836074, "internal_node_id": "0.0-79.0-5.0"}}, {"uniqueid": "MTK1091:3TXWC2NHN0XMD7T1IW1HZCRH0RAS9W", "current_trial": 112, "dateTime": 1513103960083, "trialdata": {"rt": -1, "stimulus": "<p id=\"stim\">4</p>", "key_press": -1, "trial_type": "single-stim", "trial_index": 112, "time_elapsed": 837076, "internal_node_id": "0.0-79.0-6.0"}}, {"uniqueid": "MTK1091:3TXWC2NHN0XMD7T1IW1HZCRH0RAS9W", "current_trial": 113, "dateTime": 1513103961084, "trialdata": {"rt": -1, "stimulus": "<p id=\"stim\">3</p>", "key_press": -1, "trial_type": "single-stim", "trial_index": 113, "time_elapsed": 838077, "internal_node_id": "0.0-79.0-7.0"}}, {"uniqueid": "MTK1091:3TXWC2NHN0XMD7T1IW1HZCRH0RAS9W", "current_trial": 114, "dateTime": 1513103962085, "trialdata": {"rt": -1, "stimulus": "<p id=\"stim\">2</p>", "key_press": -1, "trial_type": "single-stim", "trial_index": 114, "time_elapsed": 839078, "internal_node_id": "0.0-79.0-8.0"}}, {"uniqueid": "MTK1091:3TXWC2NHN0XMD7T1IW1HZCRH0RAS9W", "current_trial": 115, "dateTime": 1513103963087, "trialdata": {"rt": -1, "stimulus": "<p id=\"stim\">1</p>", "key_press": -1, "trial_type": "single-stim", "trial_index": 115, "time_elapsed": 840080, "internal_node_id": "0.0-79.0-9.0"}}, {"uniqueid": "MTK1091:3TXWC2NHN0XMD7T1IW1HZCRH0RAS9W", "current_trial": 116, "dateTime": 1513103964588, "trialdata": {"rt": -1, "stimulus": "<p id=\"stim\">+</p>", "key_press": -1, "type": "FIXATION", "trial_type": "single-stim", "trial_index": 116, "time_elapsed": 841581, "internal_node_id": "0.0-80.0-0.0"}}, {"uniqueid": "MTK1091:3TXWC2NHN0XMD7T1IW1HZCRH0RAS9W", "current_trial": 117, "dateTime": 1513103965388, "trialdata": {"rt": -1, "stimulus": "<p id=\"stim\">CLIMBER</p>", "key_press": -1, "type": "PRES_VIS", "word": "climber", "wordID": 322, "conditions": [12, 800, "v", 24000], "trial": 3, "serialpos": 0, "trial_type": "single-stim", "trial_index": 117, "time_elapsed": 842381, "internal_node_id": "0.0-81.0"}}, {"uniqueid": "MTK1091:3TXWC2NHN0XMD7T1IW1HZCRH0RAS9W", "current_trial": 118, "dateTime": 1513103967041, "trialdata": {"rt": -1, "stimulus": "<p id=\"stim\">CONVICT</p>", "key_press": -1, "type": "PRES_VIS", "word": "convict", "wordID": 370, "conditions": [12, 800, "v", 24000], "trial": 3, "serialpos": 1, "trial_type": "single-stim", "trial_index": 118, "time_elapsed": 844034, "internal_node_id": "0.0-82.0"}}, {"uniqueid": "MTK1091:3TXWC2NHN0XMD7T1IW1HZCRH0RAS9W", "current_trial": 119, "dateTime": 1513103968821, "trialdata": {"rt": -1, "stimulus": "<p id=\"stim\">DRESSER</p>", "key_press": -1, "type": "PRES_VIS", "word": "dresser", "wordID": 495, "conditions": [12, 800, "v", 24000], "trial": 3, "serialpos": 2, "trial_type": "single-stim", "trial_index": 119, "time_elapsed": 845814, "internal_node_id": "0.0-83.0"}}, {"uniqueid": "MTK1091:3TXWC2NHN0XMD7T1IW1HZCRH0RAS9W", "current_trial": 120, "dateTime": 1513103970468, "trialdata": {"rt": -1, "stimulus": "<p id=\"stim\">LEG</p>", "key_press": -1, "type": "PRES_VIS", "word": "leg", "wordID": 808, "conditions": [12, 800, "v", 24000], "trial": 3, "serialpos": 3, "trial_type": "single-stim", "trial_index": 120, "time_elapsed": 847461, "internal_node_id": "0.0-84.0"}}, {"uniqueid": "MTK1091:3TXWC2NHN0XMD7T1IW1HZCRH0RAS9W", "current_trial": 121, "dateTime": 1513103972093, "trialdata": {"rt": -1, "stimulus": "<p id=\"stim\">SALMON</p>", "key_press": -1, "type": "PRES_VIS", "word": "salmon", "wordID": 1226, "conditions": [12, 800, "v", 24000], "trial": 3, "serialpos": 4, "trial_type": "single-stim", "trial_index": 121, "time_elapsed": 849086, "internal_node_id": "0.0-85.0"}}, {"uniqueid": "MTK1091:3TXWC2NHN0XMD7T1IW1HZCRH0RAS9W", "current_trial": 122, "dateTime": 1513103973713, "trialdata": {"rt": -1, "stimulus": "<p id=\"stim\">CURTAIN</p>", "key_press": -1, "type": "PRES_VIS", "word": "curtain", "wordID": 426, "conditions": [12, 800, "v", 24000], "trial": 3, "serialpos": 5, "trial_type": "single-stim", "trial_index": 122, "time_elapsed": 850706, "internal_node_id": "0.0-86.0"}}, {"uniqueid": "MTK1091:3TXWC2NHN0XMD7T1IW1HZCRH0RAS9W", "current_trial": 123, "dateTime": 1513103975340, "trialdata": {"rt": -1, "stimulus": "<p id=\"stim\">WRENCH</p>", "key_press": -1, "type": "PRES_VIS", "word": "wrench", "wordID": 1624, "conditions": [12, 800, "v", 24000], "trial": 3, "serialpos": 6, "trial_type": "single-stim", "trial_index": 123, "time_elapsed": 852333, "internal_node_id": "0.0-87.0"}}, {"uniqueid": "MTK1091:3TXWC2NHN0XMD7T1IW1HZCRH0RAS9W", "current_trial": 124, "dateTime": 1513103976953, "trialdata": {"rt": -1, "stimulus": "<p id=\"stim\">CUPBOARD</p>", "key_press": -1, "type": "PRES_VIS", "word": "cupboard", "wordID": 424, "conditions": [12, 800, "v", 24000], "trial": 3, "serialpos": 7, "trial_type": "single-stim", "trial_index": 124, "time_elapsed": 853946, "internal_node_id": "0.0-88.0"}}, {"uniqueid": "MTK1091:3TXWC2NHN0XMD7T1IW1HZCRH0RAS9W", "current_trial": 125, "dateTime": 1513103978768, "trialdata": {"rt": -1, "stimulus": "<p id=\"stim\">TWIG</p>", "key_press": -1, "type": "PRES_VIS", "word": "twig", "wordID": 1526, "conditions": [12, 800, "v", 24000], "trial": 3, "serialpos": 8, "trial_type": "single-stim", "trial_index": 125, "time_elapsed": 855761, "internal_node_id": "0.0-89.0"}}, {"uniqueid": "MTK1091:3TXWC2NHN0XMD7T1IW1HZCRH0RAS9W", "current_trial": 126, "dateTime": 1513103980556, "trialdata": {"rt": -1, "stimulus": "<p id=\"stim\">INMATE</p>", "key_press": -1, "type": "PRES_VIS", "word": "inmate", "wordID": 737, "conditions": [12, 800, "v", 24000], "trial": 3, "serialpos": 9, "trial_type": "single-stim", "trial_index": 126, "time_elapsed": 857549, "internal_node_id": "0.0-90.0"}}, {"uniqueid": "MTK1091:3TXWC2NHN0XMD7T1IW1HZCRH0RAS9W", "current_trial": 127, "dateTime": 1513103982523, "trialdata": {"rt": -1, "stimulus": "<p id=\"stim\">TRUCK</p>", "key_press": -1, "type": "PRES_VIS", "word": "truck", "wordID": 1511, "conditions": [12, 800, "v", 24000], "trial": 3, "serialpos": 10, "trial_type": "single-stim", "trial_index": 127, "time_elapsed": 859516, "internal_node_id": "0.0-91.0"}}, {"uniqueid": "MTK1091:3TXWC2NHN0XMD7T1IW1HZCRH0RAS9W", "current_trial": 128, "dateTime": 1513103984431, "trialdata": {"rt": -1, "stimulus": "<p id=\"stim\">DRIVER</p>", "key_press": -1, "type": "PRES_VIS", "word": "driver", "wordID": 498, "conditions": [12, 800, "v", 24000], "trial": 3, "serialpos": 11, "trial_type": "single-stim", "trial_index": 128, "time_elapsed": 861424, "internal_node_id": "0.0-92.0"}}, {"uniqueid": "MTK1091:3TXWC2NHN0XMD7T1IW1HZCRH0RAS9W", "current_trial": 129, "dateTime": 1513103986911, "trialdata": {"rt": -1, "stimulus": "", "key_press": -1, "type": "PRE_RECALL_DELAY", "trial_type": "single-stim", "trial_index": 129, "time_elapsed": 863904, "internal_node_id": "0.0-93.0-0.0"}}, {"uniqueid": "MTK1091:3TXWC2NHN0XMD7T1IW1HZCRH0RAS9W", "current_trial": 130, "dateTime": 1513103987412, "trialdata": {"rt": -1000, "stimulus": "/static/audio/400Hz.wav", "key_press": -1, "type": "PRE_RECALL_ALERT", "trial_type": "single-audio", "trial_index": 130, "time_elapsed": 864404, "internal_node_id": "0.0-94.0"}}, {"uniqueid": "MTK1091:3TXWC2NHN0XMD7T1IW1HZCRH0RAS9W", "current_trial": 131, "dateTime": 1513104047413, "trialdata": {"rt": [5127, 8797, 9526, 12366, 17438], "recwords": ["driver", "dresser", "leg", "truck", "inmate"], "type": "FREE_RECALL", "conditions": [12, 800, "v", 24000], "trial": 3, "trial_type": "free-recall", "trial_index": 131, "time_elapsed": 924405, "internal_node_id": "0.0-95.0-0.0"}}, {"uniqueid": "MTK1091:3TXWC2NHN0XMD7T1IW1HZCRH0RAS9W", "current_trial": 132, "dateTime": 1513104052075, "trialdata": {"rt": 2661, "key_press": 32, "type": "INSTRUCTIONS", "trial_type": "text", "trial_index": 132, "time_elapsed": 929068, "internal_node_id": "0.0-96.0"}}, {"uniqueid": "MTK1091:3TXWC2NHN0XMD7T1IW1HZCRH0RAS9W", "current_trial": 133, "dateTime": 1513104078078, "trialdata": {"rt": [1959, 4986, 7527, 9183, 11511, 13283, 15238, 18495, 20199, 21968, 23774], "responses": ["10", "10", "17", "15", "1", "5", "13", "11", "20", "9", "13"], "num1": [1, 3, 9, 4, 1, 1, 9, 1, 8, 6, 9, 4], "num2": [4, 4, 4, 2, 5, 3, 3, 3, 9, 2, 3, 1], "num3": [5, 3, 4, 9, 7, 1, 1, 7, 3, 1, 1, 8], "type": "DISTRACTOR", "conditions": [24, 800, "a", 24000], "trial": 4, "trial_type": "math-distractor", "trial_index": 133, "time_elapsed": 955071, "internal_node_id": "0.0-97.0"}}, {"uniqueid": "MTK1091:3TXWC2NHN0XMD7T1IW1HZCRH0RAS9W", "current_trial": 134, "dateTime": 1513104081080, "trialdata": {"rt": -1, "stimulus": "<p id=\"stim\">10</p>", "key_press": -1, "trial_type": "single-stim", "trial_index": 134, "time_elapsed": 958073, "internal_node_id": "0.0-98.0-0.0"}}, {"uniqueid": "MTK1091:3TXWC2NHN0XMD7T1IW1HZCRH0RAS9W", "current_trial": 135, "dateTime": 1513104082081, "trialdata": {"rt": -1, "stimulus": "<p id=\"stim\">9</p>", "key_press": -1, "trial_type": "single-stim", "trial_index": 135, "time_elapsed": 959074, "internal_node_id": "0.0-98.0-1.0"}}, {"uniqueid": "MTK1091:3TXWC2NHN0XMD7T1IW1HZCRH0RAS9W", "current_trial": 136, "dateTime": 1513104083081, "trialdata": {"rt": -1, "stimulus": "<p id=\"stim\">8</p>", "key_press": -1, "trial_type": "single-stim", "trial_index": 136, "time_elapsed": 960074, "internal_node_id": "0.0-98.0-2.0"}}, {"uniqueid": "MTK1091:3TXWC2NHN0XMD7T1IW1HZCRH0RAS9W", "current_trial": 137, "dateTime": 1513104084083, "trialdata": {"rt": -1, "stimulus": "<p id=\"stim\">7</p>", "key_press": -1, "trial_type": "single-stim", "trial_index": 137, "time_elapsed": 961076, "internal_node_id": "0.0-98.0-3.0"}}, {"uniqueid": "MTK1091:3TXWC2NHN0XMD7T1IW1HZCRH0RAS9W", "current_trial": 138, "dateTime": 1513104085085, "trialdata": {"rt": -1, "stimulus": "<p id=\"stim\">6</p>", "key_press": -1, "trial_type": "single-stim", "trial_index": 138, "time_elapsed": 962078, "internal_node_id": "0.0-98.0-4.0"}}, {"uniqueid": "MTK1091:3TXWC2NHN0XMD7T1IW1HZCRH0RAS9W", "current_trial": 139, "dateTime": 1513104086085, "trialdata": {"rt": -1, "stimulus": "<p id=\"stim\">5</p>", "key_press": -1, "trial_type": "single-stim", "trial_index": 139, "time_elapsed": 963078, "internal_node_id": "0.0-98.0-5.0"}}, {"uniqueid": "MTK1091:3TXWC2NHN0XMD7T1IW1HZCRH0RAS9W", "current_trial": 140, "dateTime": 1513104087086, "trialdata": {"rt": -1, "stimulus": "<p id=\"stim\">4</p>", "key_press": -1, "trial_type": "single-stim", "trial_index": 140, "time_elapsed": 964079, "internal_node_id": "0.0-98.0-6.0"}}, {"uniqueid": "MTK1091:3TXWC2NHN0XMD7T1IW1HZCRH0RAS9W", "current_trial": 141, "dateTime": 1513104088086, "trialdata": {"rt": -1, "stimulus": "<p id=\"stim\">3</p>", "key_press": -1, "trial_type": "single-stim", "trial_index": 141, "time_elapsed": 965079, "internal_node_id": "0.0-98.0-7.0"}}, {"uniqueid": "MTK1091:3TXWC2NHN0XMD7T1IW1HZCRH0RAS9W", "current_trial": 142, "dateTime": 1513104089088, "trialdata": {"rt": -1, "stimulus": "<p id=\"stim\">2</p>", "key_press": -1, "trial_type": "single-stim", "trial_index": 142, "time_elapsed": 966081, "internal_node_id": "0.0-98.0-8.0"}}, {"uniqueid": "MTK1091:3TXWC2NHN0XMD7T1IW1HZCRH0RAS9W", "current_trial": 143, "dateTime": 1513104090089, "trialdata": {"rt": -1, "stimulus": "<p id=\"stim\">1</p>", "key_press": -1, "trial_type": "single-stim", "trial_index": 143, "time_elapsed": 967082, "internal_node_id": "0.0-98.0-9.0"}}, {"uniqueid": "MTK1091:3TXWC2NHN0XMD7T1IW1HZCRH0RAS9W", "current_trial": 144, "dateTime": 1513104091590, "trialdata": {"rt": -1, "stimulus": "<p id=\"stim\">+</p>", "key_press": -1, "type": "FIXATION", "trial_type": "single-stim", "trial_index": 144, "time_elapsed": 968583, "internal_node_id": "0.0-99.0-0.0"}}, {"uniqueid": "MTK1091:3TXWC2NHN0XMD7T1IW1HZCRH0RAS9W", "current_trial": 145, "dateTime": 1513104093450, "trialdata": {"rt": -1000, "stimulus": "/static/audio/wordpool/HANDBAG.wav", "key_press": -1, "type": "PRES_AUD", "word": "handbag", "wordID": 683, "conditions": [24, 800, "a", 24000], "trial": 4, "serialpos": 0, "trial_type": "single-audio", "trial_index": 145, "time_elapsed": 970443, "internal_node_id": "0.0-100.0"}}, {"uniqueid": "MTK1091:3TXWC2NHN0XMD7T1IW1HZCRH0RAS9W", "current_trial": 146, "dateTime": 1513104095337, "trialdata": {"rt": -1000, "stimulus": "/static/audio/wordpool/NECKLACE.wav", "key_press": -1, "type": "PRES_AUD", "word": "necklace", "wordID": 939, "conditions": [24, 800, "a", 24000], "trial": 4, "serialpos": 1, "trial_type": "single-audio", "trial_index": 146, "time_elapsed": 972330, "internal_node_id": "0.0-101.0"}}, {"uniqueid": "MTK1091:3TXWC2NHN0XMD7T1IW1HZCRH0RAS9W", "current_trial": 147, "dateTime": 1513104097130, "trialdata": {"rt": -1000, "stimulus": "/static/audio/wordpool/REBEL.wav", "key_press": -1, "type": "PRES_AUD", "word": "rebel", "wordID": 1171, "conditions": [24, 800, "a", 24000], "trial": 4, "serialpos": 2, "trial_type": "single-audio", "trial_index": 147, "time_elapsed": 974123, "internal_node_id": "0.0-102.0"}}, {"uniqueid": "MTK1091:3TXWC2NHN0XMD7T1IW1HZCRH0RAS9W", "current_trial": 148, "dateTime": 1513104098901, "trialdata": {"rt": -1000, "stimulus": "/static/audio/wordpool/HOSTESS.wav", "key_press": -1, "type": "PRES_AUD", "word": "hostess", "wordID": 722, "conditions": [24, 800, "a", 24000], "trial": 4, "serialpos": 3, "trial_type": "single-audio", "trial_index": 148, "time_elapsed": 975894, "internal_node_id": "0.0-103.0"}}, {"uniqueid": "MTK1091:3TXWC2NHN0XMD7T1IW1HZCRH0RAS9W", "current_trial": 149, "dateTime": 1513104100512, "trialdata": {"rt": -1000, "stimulus": "/static/audio/wordpool/ZEBRA.wav", "key_press": -1, "type": "PRES_AUD", "word": "zebra", "wordID": 1634, "conditions": [24, 800, "a", 24000], "trial": 4, "serialpos": 4, "trial_type": "single-audio", "trial_index": 149, "time_elapsed": 977505, "internal_node_id": "0.0-104.0"}}, {"uniqueid": "MTK1091:3TXWC2NHN0XMD7T1IW1HZCRH0RAS9W", "current_trial": 150, "dateTime": 1513104102500, "trialdata": {"rt": -1000, "stimulus": "/static/audio/wordpool/HONEY.wav", "key_press": -1, "type": "PRES_AUD", "word": "honey", "wordID": 712, "conditions": [24, 800, "a", 24000], "trial": 4, "serialpos": 5, "trial_type": "single-audio", "trial_index": 150, "time_elapsed": 979493, "internal_node_id": "0.0-105.0"}}, {"uniqueid": "MTK1091:3TXWC2NHN0XMD7T1IW1HZCRH0RAS9W", "current_trial": 151, "dateTime": 1513104104474, "trialdata": {"rt": -1000, "stimulus": "/static/audio/wordpool/PASTA.wav", "key_press": -1, "type": "PRES_AUD", "word": "pasta", "wordID": 1020, "conditions": [24, 800, "a", 24000], "trial": 4, "serialpos": 6, "trial_type": "single-audio", "trial_index": 151, "time_elapsed": 981467, "internal_node_id": "0.0-106.0"}}, {"uniqueid": "MTK1091:3TXWC2NHN0XMD7T1IW1HZCRH0RAS9W", "current_trial": 152, "dateTime": 1513104106109, "trialdata": {"rt": -1000, "stimulus": "/static/audio/wordpool/BUG.wav", "key_press": -1, "type": "PRES_AUD", "word": "bug", "wordID": 186, "conditions": [24, 800, "a", 24000], "trial": 4, "serialpos": 7, "trial_type": "single-audio", "trial_index": 152, "time_elapsed": 983102, "internal_node_id": "0.0-107.0"}}, {"uniqueid": "MTK1091:3TXWC2NHN0XMD7T1IW1HZCRH0RAS9W", "current_trial": 153, "dateTime": 1513104107995, "trialdata": {"rt": -1000, "stimulus": "/static/audio/wordpool/MUFFIN.wav", "key_press": -1, "type": "PRES_AUD", "word": "muffin", "wordID": 928, "conditions": [24, 800, "a", 24000], "trial": 4, "serialpos": 8, "trial_type": "single-audio", "trial_index": 153, "time_elapsed": 984988, "internal_node_id": "0.0-108.0"}}, {"uniqueid": "MTK1091:3TXWC2NHN0XMD7T1IW1HZCRH0RAS9W", "current_trial": 154, "dateTime": 1513104109803, "trialdata": {"rt": -1000, "stimulus": "/static/audio/wordpool/TURKEY.wav", "key_press": -1, "type": "PRES_AUD", "word": "turkey", "wordID": 1519, "conditions": [24, 800, "a", 24000], "trial": 4, "serialpos": 9, "trial_type": "single-audio", "trial_index": 154, "time_elapsed": 986796, "internal_node_id": "0.0-109.0"}}, {"uniqueid": "MTK1091:3TXWC2NHN0XMD7T1IW1HZCRH0RAS9W", "current_trial": 155, "dateTime": 1513104111767, "trialdata": {"rt": -1000, "stimulus": "/static/audio/wordpool/SAUSAGE.wav", "key_press": -1, "type": "PRES_AUD", "word": "sausage", "wordID": 1237, "conditions": [24, 800, "a", 24000], "trial": 4, "serialpos": 10, "trial_type": "single-audio", "trial_index": 155, "time_elapsed": 988760, "internal_node_id": "0.0-110.0"}}, {"uniqueid": "MTK1091:3TXWC2NHN0XMD7T1IW1HZCRH0RAS9W", "current_trial": 156, "dateTime": 1513104113430, "trialdata": {"rt": -1000, "stimulus": "/static/audio/wordpool/HUSBAND.wav", "key_press": -1, "type": "PRES_AUD", "word": "husband", "wordID": 727, "conditions": [24, 800, "a", 24000], "trial": 4, "serialpos": 11, "trial_type": "single-audio", "trial_index": 156, "time_elapsed": 990423, "internal_node_id": "0.0-111.0"}}, {"uniqueid": "MTK1091:3TXWC2NHN0XMD7T1IW1HZCRH0RAS9W", "current_trial": 157, "dateTime": 1513104115120, "trialdata": {"rt": -1000, "stimulus": "/static/audio/wordpool/PLATE.wav", "key_press": -1, "type": "PRES_AUD", "word": "plate", "wordID": 1085, "conditions": [24, 800, "a", 24000], "trial": 4, "serialpos": 12, "trial_type": "single-audio", "trial_index": 157, "time_elapsed": 992113, "internal_node_id": "0.0-112.0"}}, {"uniqueid": "MTK1091:3TXWC2NHN0XMD7T1IW1HZCRH0RAS9W", "current_trial": 158, "dateTime": 1513104116931, "trialdata": {"rt": -1000, "stimulus": "/static/audio/wordpool/THREAD.wav", "key_press": -1, "type": "PRES_AUD", "word": "thread", "wordID": 1459, "conditions": [24, 800, "a", 24000], "trial": 4, "serialpos": 13, "trial_type": "single-audio", "trial_index": 158, "time_elapsed": 993924, "internal_node_id": "0.0-113.0"}}, {"uniqueid": "MTK1091:3TXWC2NHN0XMD7T1IW1HZCRH0RAS9W", "current_trial": 159, "dateTime": 1513104118586, "trialdata": {"rt": -1000, "stimulus": "/static/audio/wordpool/MESSAGE.wav", "key_press": -1, "type": "PRES_AUD", "word": "message", "wordID": 887, "conditions": [24, 800, "a", 24000], "trial": 4, "serialpos": 14, "trial_type": "single-audio", "trial_index": 159, "time_elapsed": 995579, "internal_node_id": "0.0-114.0"}}, {"uniqueid": "MTK1091:3TXWC2NHN0XMD7T1IW1HZCRH0RAS9W", "current_trial": 160, "dateTime": 1513104120547, "trialdata": {"rt": -1000, "stimulus": "/static/audio/wordpool/SUPPER.wav", "key_press": -1, "type": "PRES_AUD", "word": "supper", "wordID": 1410, "conditions": [24, 800, "a", 24000], "trial": 4, "serialpos": 15, "trial_type": "single-audio", "trial_index": 160, "time_elapsed": 997540, "internal_node_id": "0.0-115.0"}}, {"uniqueid": "MTK1091:3TXWC2NHN0XMD7T1IW1HZCRH0RAS9W", "current_trial": 161, "dateTime": 1513104122480, "trialdata": {"rt": -1000, "stimulus": "/static/audio/wordpool/EMPIRE.wav", "key_press": -1, "type": "PRES_AUD", "word": "empire", "wordID": 529, "conditions": [24, 800, "a", 24000], "trial": 4, "serialpos": 16, "trial_type": "single-audio", "trial_index": 161, "time_elapsed": 999473, "internal_node_id": "0.0-116.0"}}, {"uniqueid": "MTK1091:3TXWC2NHN0XMD7T1IW1HZCRH0RAS9W", "current_trial": 162, "dateTime": 1513104124331, "trialdata": {"rt": -1000, "stimulus": "/static/audio/wordpool/SOFTBALL.wav", "key_press": -1, "type": "PRES_AUD", "word": "softball", "wordID": 1342, "conditions": [24, 800, "a", 24000], "trial": 4, "serialpos": 17, "trial_type": "single-audio", "trial_index": 162, "time_elapsed": 1001324, "internal_node_id": "0.0-117.0"}}, {"uniqueid": "MTK1091:3TXWC2NHN0XMD7T1IW1HZCRH0RAS9W", "current_trial": 163, "dateTime": 1513104126235, "trialdata": {"rt": -1000, "stimulus": "/static/audio/wordpool/WRIST.wav", "key_press": -1, "type": "PRES_AUD", "word": "wrist", "wordID": 1625, "conditions": [24, 800, "a", 24000], "trial": 4, "serialpos": 18, "trial_type": "single-audio", "trial_index": 163, "time_elapsed": 1003228, "internal_node_id": "0.0-118.0"}}, {"uniqueid": "MTK1091:3TXWC2NHN0XMD7T1IW1HZCRH0RAS9W", "current_trial": 164, "dateTime": 1513104128219, "trialdata": {"rt": -1000, "stimulus": "/static/audio/wordpool/SHOULDER.wav", "key_press": -1, "type": "PRES_AUD", "word": "shoulder", "wordID": 1293, "conditions": [24, 800, "a", 24000], "trial": 4, "serialpos": 19, "trial_type": "single-audio", "trial_index": 164, "time_elapsed": 1005212, "internal_node_id": "0.0-119.0"}}, {"uniqueid": "MTK1091:3TXWC2NHN0XMD7T1IW1HZCRH0RAS9W", "current_trial": 165, "dateTime": 1513104130183, "trialdata": {"rt": -1000, "stimulus": "/static/audio/wordpool/FINGER.wav", "key_press": -1, "type": "PRES_AUD", "word": "finger", "wordID": 566, "conditions": [24, 800, "a", 24000], "trial": 4, "serialpos": 20, "trial_type": "single-audio", "trial_index": 165, "time_elapsed": 1007176, "internal_node_id": "0.0-120.0"}}, {"uniqueid": "MTK1091:3TXWC2NHN0XMD7T1IW1HZCRH0RAS9W", "current_trial": 166, "dateTime": 1513104131843, "trialdata": {"rt": -1000, "stimulus": "/static/audio/wordpool/COBRA.wav", "key_press": -1, "type": "PRES_AUD", "word": "cobra", "wordID": 335, "conditions": [24, 800, "a", 24000], "trial": 4, "serialpos": 21, "trial_type": "single-audio", "trial_index": 166, "time_elapsed": 1008836, "internal_node_id": "0.0-121.0"}}, {"uniqueid": "MTK1091:3TXWC2NHN0XMD7T1IW1HZCRH0RAS9W", "current_trial": 167, "dateTime": 1513104133724, "trialdata": {"rt": -1000, "stimulus": "/static/audio/wordpool/LUNCH.wav", "key_press": -1, "type": "PRES_AUD", "word": "lunch", "wordID": 848, "conditions": [24, 800, "a", 24000], "trial": 4, "serialpos": 22, "trial_type": "single-audio", "trial_index": 167, "time_elapsed": 1010717, "internal_node_id": "0.0-122.0"}}, {"uniqueid": "MTK1091:3TXWC2NHN0XMD7T1IW1HZCRH0RAS9W", "current_trial": 168, "dateTime": 1513104135411, "trialdata": {"rt": -1000, "stimulus": "/static/audio/wordpool/FRANCE.wav", "key_press": -1, "type": "PRES_AUD", "word": "france", "wordID": 600, "conditions": [24, 800, "a", 24000], "trial": 4, "serialpos": 23, "trial_type": "single-audio", "trial_index": 168, "time_elapsed": 1012404, "internal_node_id": "0.0-123.0"}}, {"uniqueid": "MTK1091:3TXWC2NHN0XMD7T1IW1HZCRH0RAS9W", "current_trial": 169, "dateTime": 1513104136634, "trialdata": {"rt": -1, "stimulus": "", "key_press": -1, "type": "PRE_RECALL_DELAY", "trial_type": "single-stim", "trial_index": 169, "time_elapsed": 1013627, "internal_node_id": "0.0-124.0-0.0"}}, {"uniqueid": "MTK1091:3TXWC2NHN0XMD7T1IW1HZCRH0RAS9W", "current_trial": 170, "dateTime": 1513104137136, "trialdata": {"rt": -1000, "stimulus": "/static/audio/400Hz.wav", "key_press": -1, "type": "PRE_RECALL_ALERT", "trial_type": "single-audio", "trial_index": 170, "time_elapsed": 1014129, "internal_node_id": "0.0-125.0"}}, {"uniqueid": "MTK1091:3TXWC2NHN0XMD7T1IW1HZCRH0RAS9W", "current_trial": 171, "dateTime": 1513104197140, "trialdata": {"rt": [3365, 5429, 6933, 8709, 10501, 13775], "recwords": ["finger", "shoulder", "wrist", "france", "lunch", "honey"], "type": "FREE_RECALL", "conditions": [24, 800, "a", 24000], "trial": 4, "trial_type": "free-recall", "trial_index": 171, "time_elapsed": 1074131, "internal_node_id": "0.0-126.0-0.0"}}, {"uniqueid": "MTK1091:3TXWC2NHN0XMD7T1IW1HZCRH0RAS9W", "current_trial": 172, "dateTime": 1513104211645, "trialdata": {"rt": 12505, "key_press": 32, "type": "INSTRUCTIONS", "trial_type": "text", "trial_index": 172, "time_elapsed": 1088638, "internal_node_id": "0.0-127.0"}}, {"uniqueid": "MTK1091:3TXWC2NHN0XMD7T1IW1HZCRH0RAS9W", "current_trial": 173, "dateTime": 1513104225647, "trialdata": {"rt": [3498, 5058, 7513, 9017, 10729], "responses": ["8", "9", "17", "11", "13"], "num1": [4, 1, 5, 1, 4, 2], "num2": [3, 7, 6, 9, 4, 7], "num3": [1, 1, 6, 1, 5, 9], "type": "DISTRACTOR", "conditions": [12, 800, "a", 12000], "trial": 5, "trial_type": "math-distractor", "trial_index": 173, "time_elapsed": 1102640, "internal_node_id": "0.0-128.0"}}, {"uniqueid": "MTK1091:3TXWC2NHN0XMD7T1IW1HZCRH0RAS9W", "current_trial": 174, "dateTime": 1513104228648, "trialdata": {"rt": -1, "stimulus": "<p id=\"stim\">10</p>", "key_press": -1, "trial_type": "single-stim", "trial_index": 174, "time_elapsed": 1105641, "internal_node_id": "0.0-129.0-0.0"}}, {"uniqueid": "MTK1091:3TXWC2NHN0XMD7T1IW1HZCRH0RAS9W", "current_trial": 175, "dateTime": 1513104229649, "trialdata": {"rt": -1, "stimulus": "<p id=\"stim\">9</p>", "key_press": -1, "trial_type": "single-stim", "trial_index": 175, "time_elapsed": 1106642, "internal_node_id": "0.0-129.0-1.0"}}, {"uniqueid": "MTK1091:3TXWC2NHN0XMD7T1IW1HZCRH0RAS9W", "current_trial": 176, "dateTime": 1513104230650, "trialdata": {"rt": -1, "stimulus": "<p id=\"stim\">8</p>", "key_press": -1, "trial_type": "single-stim", "trial_index": 176, "time_elapsed": 1107643, "internal_node_id": "0.0-129.0-2.0"}}, {"uniqueid": "MTK1091:3TXWC2NHN0XMD7T1IW1HZCRH0RAS9W", "current_trial": 177, "dateTime": 1513104231651, "trialdata": {"rt": -1, "stimulus": "<p id=\"stim\">7</p>", "key_press": -1, "trial_type": "single-stim", "trial_index": 177, "time_elapsed": 1108644, "internal_node_id": "0.0-129.0-3.0"}}, {"uniqueid": "MTK1091:3TXWC2NHN0XMD7T1IW1HZCRH0RAS9W", "current_trial": 178, "dateTime": 1513104232652, "trialdata": {"rt": -1, "stimulus": "<p id=\"stim\">6</p>", "key_press": -1, "trial_type": "single-stim", "trial_index": 178, "time_elapsed": 1109645, "internal_node_id": "0.0-129.0-4.0"}}, {"uniqueid": "MTK1091:3TXWC2NHN0XMD7T1IW1HZCRH0RAS9W", "current_trial": 179, "dateTime": 1513104233653, "trialdata": {"rt": -1, "stimulus": "<p id=\"stim\">5</p>", "key_press": -1, "trial_type": "single-stim", "trial_index": 179, "time_elapsed": 1110646, "internal_node_id": "0.0-129.0-5.0"}}, {"uniqueid": "MTK1091:3TXWC2NHN0XMD7T1IW1HZCRH0RAS9W", "current_trial": 180, "dateTime": 1513104234654, "trialdata": {"rt": -1, "stimulus": "<p id=\"stim\">4</p>", "key_press": -1, "trial_type": "single-stim", "trial_index": 180, "time_elapsed": 1111647, "internal_node_id": "0.0-129.0-6.0"}}, {"uniqueid": "MTK1091:3TXWC2NHN0XMD7T1IW1HZCRH0RAS9W", "current_trial": 181, "dateTime": 1513104235656, "trialdata": {"rt": -1, "stimulus": "<p id=\"stim\">3</p>", "key_press": -1, "trial_type": "single-stim", "trial_index": 181, "time_elapsed": 1112649, "internal_node_id": "0.0-129.0-7.0"}}, {"uniqueid": "MTK1091:3TXWC2NHN0XMD7T1IW1HZCRH0RAS9W", "current_trial": 182, "dateTime": 1513104236658, "trialdata": {"rt": -1, "stimulus": "<p id=\"stim\">2</p>", "key_press": -1, "trial_type": "single-stim", "trial_index": 182, "time_elapsed": 1113650, "internal_node_id": "0.0-129.0-8.0"}}, {"uniqueid": "MTK1091:3TXWC2NHN0XMD7T1IW1HZCRH0RAS9W", "current_trial": 183, "dateTime": 1513104237658, "trialdata": {"rt": -1, "stimulus": "<p id=\"stim\">1</p>", "key_press": -1, "trial_type": "single-stim", "trial_index": 183, "time_elapsed": 1114651, "internal_node_id": "0.0-129.0-9.0"}}, {"uniqueid": "MTK1091:3TXWC2NHN0XMD7T1IW1HZCRH0RAS9W", "current_trial": 184, "dateTime": 1513104239160, "trialdata": {"rt": -1, "stimulus": "<p id=\"stim\">+</p>", "key_press": -1, "type": "FIXATION", "trial_type": "single-stim", "trial_index": 184, "time_elapsed": 1116152, "internal_node_id": "0.0-130.0-0.0"}}, {"uniqueid": "MTK1091:3TXWC2NHN0XMD7T1IW1HZCRH0RAS9W", "current_trial": 185, "dateTime": 1513104241153, "trialdata": {"rt": -1000, "stimulus": "/static/audio/wordpool/DAISY.wav", "key_press": -1, "type": "PRES_AUD", "word": "daisy", "wordID": 434, "conditions": [12, 800, "a", 12000], "trial": 5, "serialpos": 0, "trial_type": "single-audio", "trial_index": 185, "time_elapsed": 1118146, "internal_node_id": "0.0-131.0"}}, {"uniqueid": "MTK1091:3TXWC2NHN0XMD7T1IW1HZCRH0RAS9W", "current_trial": 186, "dateTime": 1513104242826, "trialdata": {"rt": -1000, "stimulus": "/static/audio/wordpool/MILDEW.wav", "key_press": -1, "type": "PRES_AUD", "word": "mildew", "wordID": 892, "conditions": [12, 800, "a", 12000], "trial": 5, "serialpos": 1, "trial_type": "single-audio", "trial_index": 186, "time_elapsed": 1119819, "internal_node_id": "0.0-132.0"}}, {"uniqueid": "MTK1091:3TXWC2NHN0XMD7T1IW1HZCRH0RAS9W", "current_trial": 187, "dateTime": 1513104244797, "trialdata": {"rt": -1000, "stimulus": "/static/audio/wordpool/PICTURE.wav", "key_press": -1, "type": "PRES_AUD", "word": "picture", "wordID": 1060, "conditions": [12, 800, "a", 12000], "trial": 5, "serialpos": 2, "trial_type": "single-audio", "trial_index": 187, "time_elapsed": 1121790, "internal_node_id": "0.0-133.0"}}, {"uniqueid": "MTK1091:3TXWC2NHN0XMD7T1IW1HZCRH0RAS9W", "current_trial": 188, "dateTime": 1513104246585, "trialdata": {"rt": -1000, "stimulus": "/static/audio/wordpool/GARBAGE.wav", "key_press": -1, "type": "PRES_AUD", "word": "garbage", "wordID": 621, "conditions": [12, 800, "a", 12000], "trial": 5, "serialpos": 3, "trial_type": "single-audio", "trial_index": 188, "time_elapsed": 1123578, "internal_node_id": "0.0-134.0"}}, {"uniqueid": "MTK1091:3TXWC2NHN0XMD7T1IW1HZCRH0RAS9W", "current_trial": 189, "dateTime": 1513104248487, "trialdata": {"rt": -1000, "stimulus": "/static/audio/wordpool/VALLEY.wav", "key_press": -1, "type": "PRES_AUD", "word": "valley", "wordID": 1544, "conditions": [12, 800, "a", 12000], "trial": 5, "serialpos": 4, "trial_type": "single-audio", "trial_index": 189, "time_elapsed": 1125480, "internal_node_id": "0.0-135.0"}}, {"uniqueid": "MTK1091:3TXWC2NHN0XMD7T1IW1HZCRH0RAS9W", "current_trial": 190, "dateTime": 1513104250167, "trialdata": {"rt": -1000, "stimulus": "/static/audio/wordpool/LIPSTICK.wav", "key_press": -1, "type": "PRES_AUD", "word": "lipstick", "wordID": 828, "conditions": [12, 800, "a", 12000], "trial": 5, "serialpos": 5, "trial_type": "single-audio", "trial_index": 190, "time_elapsed": 1127160, "internal_node_id": "0.0-136.0"}}, {"uniqueid": "MTK1091:3TXWC2NHN0XMD7T1IW1HZCRH0RAS9W", "current_trial": 191, "dateTime": 1513104251902, "trialdata": {"rt": -1000, "stimulus": "/static/audio/wordpool/BEAKER.wav", "key_press": -1, "type": "PRES_AUD", "word": "beaker", "wordID": 103, "conditions": [12, 800, "a", 12000], "trial": 5, "serialpos": 6, "trial_type": "single-audio", "trial_index": 191, "time_elapsed": 1128895, "internal_node_id": "0.0-137.0"}}, {"uniqueid": "MTK1091:3TXWC2NHN0XMD7T1IW1HZCRH0RAS9W", "current_trial": 192, "dateTime": 1513104253680, "trialdata": {"rt": -1000, "stimulus": "/static/audio/wordpool/BARLEY.wav", "key_press": -1, "type": "PRES_AUD", "word": "barley", "wordID": 87, "conditions": [12, 800, "a", 12000], "trial": 5, "serialpos": 7, "trial_type": "single-audio", "trial_index": 192, "time_elapsed": 1130673, "internal_node_id": "0.0-138.0"}}, {"uniqueid": "MTK1091:3TXWC2NHN0XMD7T1IW1HZCRH0RAS9W", "current_trial": 193, "dateTime": 1513104255631, "trialdata": {"rt": -1000, "stimulus": "/static/audio/wordpool/GRAPE.wav", "key_press": -1, "type": "PRES_AUD", "word": "grape", "wordID": 653, "conditions": [12, 800, "a", 12000], "trial": 5, "serialpos": 8, "trial_type": "single-audio", "trial_index": 193, "time_elapsed": 1132624, "internal_node_id": "0.0-139.0"}}, {"uniqueid": "MTK1091:3TXWC2NHN0XMD7T1IW1HZCRH0RAS9W", "current_trial": 194, "dateTime": 1513104257499, "trialdata": {"rt": -1000, "stimulus": "/static/audio/wordpool/FLUTE.wav", "key_press": -1, "type": "PRES_AUD", "word": "flute", "wordID": 584, "conditions": [12, 800, "a", 12000], "trial": 5, "serialpos": 9, "trial_type": "single-audio", "trial_index": 194, "time_elapsed": 1134492, "internal_node_id": "0.0-140.0"}}, {"uniqueid": "MTK1091:3TXWC2NHN0XMD7T1IW1HZCRH0RAS9W", "current_trial": 195, "dateTime": 1513104259264, "trialdata": {"rt": -1000, "stimulus": "/static/audio/wordpool/SIBLING.wav", "key_press": -1, "type": "PRES_AUD", "word": "sibling", "wordID": 1300, "conditions": [12, 800, "a", 12000], "trial": 5, "serialpos": 10, "trial_type": "single-audio", "trial_index": 195, "time_elapsed": 1136257, "internal_node_id": "0.0-141.0"}}, {"uniqueid": "MTK1091:3TXWC2NHN0XMD7T1IW1HZCRH0RAS9W", "current_trial": 196, "dateTime": 1513104261011, "trialdata": {"rt": -1000, "stimulus": "/static/audio/wordpool/FUNGUS.wav", "key_press": -1, "type": "PRES_AUD", "word": "fungus", "wordID": 613, "conditions": [12, 800, "a", 12000], "trial": 5, "serialpos": 11, "trial_type": "single-audio", "trial_index": 196, "time_elapsed": 1138004, "internal_node_id": "0.0-142.0"}}, {"uniqueid": "MTK1091:3TXWC2NHN0XMD7T1IW1HZCRH0RAS9W", "current_trial": 197, "dateTime": 1513104262272, "trialdata": {"rt": -1, "stimulus": "", "key_press": -1, "type": "PRE_RECALL_DELAY", "trial_type": "single-stim", "trial_index": 197, "time_elapsed": 1139265, "internal_node_id": "0.0-143.0-0.0"}}, {"uniqueid": "MTK1091:3TXWC2NHN0XMD7T1IW1HZCRH0RAS9W", "current_trial": 198, "dateTime": 1513104262775, "trialdata": {"rt": -1000, "stimulus": "/static/audio/400Hz.wav", "key_press": -1, "type": "PRE_RECALL_ALERT", "trial_type": "single-audio", "trial_index": 198, "time_elapsed": 1139768, "internal_node_id": "0.0-144.0"}}, {"uniqueid": "MTK1091:3TXWC2NHN0XMD7T1IW1HZCRH0RAS9W", "current_trial": 199, "dateTime": 1513104322780, "trialdata": {"rt": [4832, 6096, 8417, 10584, 12664], "recwords": ["fungus", "sibling", "flute", "crepe", "mildew"], "type": "FREE_RECALL", "conditions": [12, 800, "a", 12000], "trial": 5, "trial_type": "free-recall", "trial_index": 199, "time_elapsed": 1199771, "internal_node_id": "0.0-145.0-0.0"}}, {"uniqueid": "MTK1091:3TXWC2NHN0XMD7T1IW1HZCRH0RAS9W", "current_trial": 200, "dateTime": 1513104328460, "trialdata": {"rt": 3679, "key_press": 32, "type": "INSTRUCTIONS", "trial_type": "text", "trial_index": 200, "time_elapsed": 1205453, "internal_node_id": "0.0-146.0"}}, {"uniqueid": "MTK1091:3TXWC2NHN0XMD7T1IW1HZCRH0RAS9W", "current_trial": 201, "dateTime": 1513104342463, "trialdata": {"rt": [3533, 6853, 9013, 10613], "responses": ["15", "13", "20", "13"], "num1": [2, 8, 8, 3, 9], "num2": [8, 1, 8, 3, 5], "num3": [5, 4, 4, 7, 5], "type": "DISTRACTOR", "conditions": [12, 1600, "v", 12000], "trial": 6, "trial_type": "math-distractor", "trial_index": 201, "time_elapsed": 1219455, "internal_node_id": "0.0-147.0"}}, {"uniqueid": "MTK1091:3TXWC2NHN0XMD7T1IW1HZCRH0RAS9W", "current_trial": 202, "dateTime": 1513104345464, "trialdata": {"rt": -1, "stimulus": "<p id=\"stim\">10</p>", "key_press": -1, "trial_type": "single-stim", "trial_index": 202, "time_elapsed": 1222457, "internal_node_id": "0.0-148.0-0.0"}}, {"uniqueid": "MTK1091:3TXWC2NHN0XMD7T1IW1HZCRH0RAS9W", "current_trial": 203, "dateTime": 1513104346466, "trialdata": {"rt": -1, "stimulus": "<p id=\"stim\">9</p>", "key_press": -1, "trial_type": "single-stim", "trial_index": 203, "time_elapsed": 1223458, "internal_node_id": "0.0-148.0-1.0"}}, {"uniqueid": "MTK1091:3TXWC2NHN0XMD7T1IW1HZCRH0RAS9W", "current_trial": 204, "dateTime": 1513104347466, "trialdata": {"rt": -1, "stimulus": "<p id=\"stim\">8</p>", "key_press": -1, "trial_type": "single-stim", "trial_index": 204, "time_elapsed": 1224459, "internal_node_id": "0.0-148.0-2.0"}}, {"uniqueid": "MTK1091:3TXWC2NHN0XMD7T1IW1HZCRH0RAS9W", "current_trial": 205, "dateTime": 1513104348467, "trialdata": {"rt": -1, "stimulus": "<p id=\"stim\">7</p>", "key_press": -1, "trial_type": "single-stim", "trial_index": 205, "time_elapsed": 1225460, "internal_node_id": "0.0-148.0-3.0"}}, {"uniqueid": "MTK1091:3TXWC2NHN0XMD7T1IW1HZCRH0RAS9W", "current_trial": 206, "dateTime": 1513104349469, "trialdata": {"rt": -1, "stimulus": "<p id=\"stim\">6</p>", "key_press": -1, "trial_type": "single-stim", "trial_index": 206, "time_elapsed": 1226462, "internal_node_id": "0.0-148.0-4.0"}}, {"uniqueid": "MTK1091:3TXWC2NHN0XMD7T1IW1HZCRH0RAS9W", "current_trial": 207, "dateTime": 1513104350470, "trialdata": {"rt": -1, "stimulus": "<p id=\"stim\">5</p>", "key_press": -1, "trial_type": "single-stim", "trial_index": 207, "time_elapsed": 1227463, "internal_node_id": "0.0-148.0-5.0"}}, {"uniqueid": "MTK1091:3TXWC2NHN0XMD7T1IW1HZCRH0RAS9W", "current_trial": 208, "dateTime": 1513104351471, "trialdata": {"rt": -1, "stimulus": "<p id=\"stim\">4</p>", "key_press": -1, "trial_type": "single-stim", "trial_index": 208, "time_elapsed": 1228464, "internal_node_id": "0.0-148.0-6.0"}}, {"uniqueid": "MTK1091:3TXWC2NHN0XMD7T1IW1HZCRH0RAS9W", "current_trial": 209, "dateTime": 1513104352473, "trialdata": {"rt": -1, "stimulus": "<p id=\"stim\">3</p>", "key_press": -1, "trial_type": "single-stim", "trial_index": 209, "time_elapsed": 1229466, "internal_node_id": "0.0-148.0-7.0"}}, {"uniqueid": "MTK1091:3TXWC2NHN0XMD7T1IW1HZCRH0RAS9W", "current_trial": 210, "dateTime": 1513104353474, "trialdata": {"rt": -1, "stimulus": "<p id=\"stim\">2</p>", "key_press": -1, "trial_type": "single-stim", "trial_index": 210, "time_elapsed": 1230467, "internal_node_id": "0.0-148.0-8.0"}}, {"uniqueid": "MTK1091:3TXWC2NHN0XMD7T1IW1HZCRH0RAS9W", "current_trial": 211, "dateTime": 1513104354475, "trialdata": {"rt": -1, "stimulus": "<p id=\"stim\">1</p>", "key_press": -1, "trial_type": "single-stim", "trial_index": 211, "time_elapsed": 1231468, "internal_node_id": "0.0-148.0-9.0"}}, {"uniqueid": "MTK1091:3TXWC2NHN0XMD7T1IW1HZCRH0RAS9W", "current_trial": 212, "dateTime": 1513104355977, "trialdata": {"rt": -1, "stimulus": "<p id=\"stim\">+</p>", "key_press": -1, "type": "FIXATION", "trial_type": "single-stim", "trial_index": 212, "time_elapsed": 1232970, "internal_node_id": "0.0-149.0-0.0"}}, {"uniqueid": "MTK1091:3TXWC2NHN0XMD7T1IW1HZCRH0RAS9W", "current_trial": 213, "dateTime": 1513104357578, "trialdata": {"rt": -1, "stimulus": "<p id=\"stim\">COSTUME</p>", "key_press": -1, "type": "PRES_VIS", "word": "costume", "wordID": 382, "conditions": [12, 1600, "v", 12000], "trial": 6, "serialpos": 0, "trial_type": "single-stim", "trial_index": 213, "time_elapsed": 1234571, "internal_node_id": "0.0-150.0"}}, {"uniqueid": "MTK1091:3TXWC2NHN0XMD7T1IW1HZCRH0RAS9W", "current_trial": 214, "dateTime": 1513104360032, "trialdata": {"rt": -1, "stimulus": "<p id=\"stim\">TUBA</p>", "key_press": -1, "type": "PRES_VIS", "word": "tuba", "wordID": 1514, "conditions": [12, 1600, "v", 12000], "trial": 6, "serialpos": 1, "trial_type": "single-stim", "trial_index": 214, "time_elapsed": 1237025, "internal_node_id": "0.0-151.0"}}, {"uniqueid": "MTK1091:3TXWC2NHN0XMD7T1IW1HZCRH0RAS9W", "current_trial": 215, "dateTime": 1513104362563, "trialdata": {"rt": -1, "stimulus": "<p id=\"stim\">COOK</p>", "key_press": -1, "type": "PRES_VIS", "word": "cook", "wordID": 371, "conditions": [12, 1600, "v", 12000], "trial": 6, "serialpos": 2, "trial_type": "single-stim", "trial_index": 215, "time_elapsed": 1239556, "internal_node_id": "0.0-152.0"}}, {"uniqueid": "MTK1091:3TXWC2NHN0XMD7T1IW1HZCRH0RAS9W", "current_trial": 216, "dateTime": 1513104365218, "trialdata": {"rt": -1, "stimulus": "<p id=\"stim\">GAVEL</p>", "key_press": -1, "type": "PRES_VIS", "word": "gavel", "wordID": 626, "conditions": [12, 1600, "v", 12000], "trial": 6, "serialpos": 3, "trial_type": "single-stim", "trial_index": 216, "time_elapsed": 1242211, "internal_node_id": "0.0-153.0"}}, {"uniqueid": "MTK1091:3TXWC2NHN0XMD7T1IW1HZCRH0RAS9W", "current_trial": 217, "dateTime": 1513104367638, "trialdata": {"rt": -1, "stimulus": "<p id=\"stim\">DANDRUFF</p>", "key_press": -1, "type": "PRES_VIS", "word": "dandruff", "wordID": 438, "conditions": [12, 1600, "v", 12000], "trial": 6, "serialpos": 4, "trial_type": "single-stim", "trial_index": 217, "time_elapsed": 1244631, "internal_node_id": "0.0-154.0"}}, {"uniqueid": "MTK1091:3TXWC2NHN0XMD7T1IW1HZCRH0RAS9W", "current_trial": 218, "dateTime": 1513104370355, "trialdata": {"rt": -1, "stimulus": "<p id=\"stim\">PIANO</p>", "key_press": -1, "type": "PRES_VIS", "word": "piano", "wordID": 1056, "conditions": [12, 1600, "v", 12000], "trial": 6, "serialpos": 5, "trial_type": "single-stim", "trial_index": 218, "time_elapsed": 1247348, "internal_node_id": "0.0-155.0"}}, {"uniqueid": "MTK1091:3TXWC2NHN0XMD7T1IW1HZCRH0RAS9W", "current_trial": 219, "dateTime": 1513104373133, "trialdata": {"rt": -1, "stimulus": "<p id=\"stim\">COD</p>", "key_press": -1, "type": "PRES_VIS", "word": "cod", "wordID": 339, "conditions": [12, 1600, "v", 12000], "trial": 6, "serialpos": 6, "trial_type": "single-stim", "trial_index": 219, "time_elapsed": 1250126, "internal_node_id": "0.0-156.0"}}, {"uniqueid": "MTK1091:3TXWC2NHN0XMD7T1IW1HZCRH0RAS9W", "current_trial": 220, "dateTime": 1513104375596, "trialdata": {"rt": -1, "stimulus": "<p id=\"stim\">SEAFOOD</p>", "key_press": -1, "type": "PRES_VIS", "word": "seafood", "wordID": 1259, "conditions": [12, 1600, "v", 12000], "trial": 6, "serialpos": 7, "trial_type": "single-stim", "trial_index": 220, "time_elapsed": 1252589, "internal_node_id": "0.0-157.0"}}, {"uniqueid": "MTK1091:3TXWC2NHN0XMD7T1IW1HZCRH0RAS9W", "current_trial": 221, "dateTime": 1513104378017, "trialdata": {"rt": -1, "stimulus": "<p id=\"stim\">TOASTER</p>", "key_press": -1, "type": "PRES_VIS", "word": "toaster", "wordID": 1471, "conditions": [12, 1600, "v", 12000], "trial": 6, "serialpos": 8, "trial_type": "single-stim", "trial_index": 221, "time_elapsed": 1255010, "internal_node_id": "0.0-158.0"}}, {"uniqueid": "MTK1091:3TXWC2NHN0XMD7T1IW1HZCRH0RAS9W", "current_trial": 222, "dateTime": 1513104380598, "trialdata": {"rt": -1, "stimulus": "<p id=\"stim\">MAILMAN</p>", "key_press": -1, "type": "PRES_VIS", "word": "mailman", "wordID": 857, "conditions": [12, 1600, "v", 12000], "trial": 6, "serialpos": 9, "trial_type": "single-stim", "trial_index": 222, "time_elapsed": 1257591, "internal_node_id": "0.0-159.0"}}, {"uniqueid": "MTK1091:3TXWC2NHN0XMD7T1IW1HZCRH0RAS9W", "current_trial": 223, "dateTime": 1513104383390, "trialdata": {"rt": -1, "stimulus": "<p id=\"stim\">BURGLAR</p>", "key_press": -1, "type": "PRES_VIS", "word": "burglar", "wordID": 199, "conditions": [12, 1600, "v", 12000], "trial": 6, "serialpos": 10, "trial_type": "single-stim", "trial_index": 223, "time_elapsed": 1260383, "internal_node_id": "0.0-160.0"}}, {"uniqueid": "MTK1091:3TXWC2NHN0XMD7T1IW1HZCRH0RAS9W", "current_trial": 224, "dateTime": 1513104386051, "trialdata": {"rt": -1, "stimulus": "<p id=\"stim\">KETCHUP</p>", "key_press": -1, "type": "PRES_VIS", "word": "ketchup", "wordID": 770, "conditions": [12, 1600, "v", 12000], "trial": 6, "serialpos": 11, "trial_type": "single-stim", "trial_index": 224, "time_elapsed": 1263044, "internal_node_id": "0.0-161.0"}}, {"uniqueid": "MTK1091:3TXWC2NHN0XMD7T1IW1HZCRH0RAS9W", "current_trial": 225, "dateTime": 1513104388331, "trialdata": {"rt": -1, "stimulus": "", "key_press": -1, "type": "PRE_RECALL_DELAY", "trial_type": "single-stim", "trial_index": 225, "time_elapsed": 1265324, "internal_node_id": "0.0-162.0-0.0"}}, {"uniqueid": "MTK1091:3TXWC2NHN0XMD7T1IW1HZCRH0RAS9W", "current_trial": 226, "dateTime": 1513104388832, "trialdata": {"rt": -1000, "stimulus": "/static/audio/400Hz.wav", "key_press": -1, "type": "PRE_RECALL_ALERT", "trial_type": "single-audio", "trial_index": 226, "time_elapsed": 1265825, "internal_node_id": "0.0-163.0"}}, {"uniqueid": "MTK1091:3TXWC2NHN0XMD7T1IW1HZCRH0RAS9W", "current_trial": 227, "dateTime": 1513104448838, "trialdata": {"rt": [5051, 6547, 9779, 11252], "recwords": ["ketchup", "burglar", "toaster", "tuba"], "type": "FREE_RECALL", "conditions": [12, 1600, "v", 12000], "trial": 6, "trial_type": "free-recall", "trial_index": 227, "time_elapsed": 1325828, "internal_node_id": "0.0-164.0-0.0"}}, {"uniqueid": "MTK1091:3TXWC2NHN0XMD7T1IW1HZCRH0RAS9W", "current_trial": 228, "dateTime": 1513104488657, "trialdata": {"rt": 37818, "key_press": 32, "type": "INSTRUCTIONS", "trial_type": "text", "trial_index": 228, "time_elapsed": 1365650, "internal_node_id": "0.0-165.0"}}, {"uniqueid": "MTK1091:3TXWC2NHN0XMD7T1IW1HZCRH0RAS9W", "current_trial": 229, "dateTime": 1513104502658, "trialdata": {"rt": [2542, 4582, 6502, 8517, 10236], "responses": ["19", "11", "15", "21", "9"], "num1": [8, 2, 2, 8, 2, 7], "num2": [3, 5, 4, 9, 5, 6], "num3": [8, 4, 9, 4, 2, 5], "type": "DISTRACTOR", "conditions": [24, 1600, "v", 12000], "trial": 7, "trial_type": "math-distractor", "trial_index": 229, "time_elapsed": 1379651, "internal_node_id": "0.0-166.0"}}, {"uniqueid": "MTK1091:3TXWC2NHN0XMD7T1IW1HZCRH0RAS9W", "current_trial": 230, "dateTime": 1513104505659, "trialdata": {"rt": -1, "stimulus": "<p id=\"stim\">10</p>", "key_press": -1, "trial_type": "single-stim", "trial_index": 230, "time_elapsed": 1382652, "internal_node_id": "0.0-167.0-0.0"}}, {"uniqueid": "MTK1091:3TXWC2NHN0XMD7T1IW1HZCRH0RAS9W", "current_trial": 231, "dateTime": 1513104506660, "trialdata": {"rt": -1, "stimulus": "<p id=\"stim\">9</p>", "key_press": -1, "trial_type": "single-stim", "trial_index": 231, "time_elapsed": 1383653, "internal_node_id": "0.0-167.0-1.0"}}, {"uniqueid": "MTK1091:3TXWC2NHN0XMD7T1IW1HZCRH0RAS9W", "current_trial": 232, "dateTime": 1513104507661, "trialdata": {"rt": -1, "stimulus": "<p id=\"stim\">8</p>", "key_press": -1, "trial_type": "single-stim", "trial_index": 232, "time_elapsed": 1384654, "internal_node_id": "0.0-167.0-2.0"}}, {"uniqueid": "MTK1091:3TXWC2NHN0XMD7T1IW1HZCRH0RAS9W", "current_trial": 233, "dateTime": 1513104508661, "trialdata": {"rt": -1, "stimulus": "<p id=\"stim\">7</p>", "key_press": -1, "trial_type": "single-stim", "trial_index": 233, "time_elapsed": 1385654, "internal_node_id": "0.0-167.0-3.0"}}, {"uniqueid": "MTK1091:3TXWC2NHN0XMD7T1IW1HZCRH0RAS9W", "current_trial": 234, "dateTime": 1513104509662, "trialdata": {"rt": -1, "stimulus": "<p id=\"stim\">6</p>", "key_press": -1, "trial_type": "single-stim", "trial_index": 234, "time_elapsed": 1386655, "internal_node_id": "0.0-167.0-4.0"}}, {"uniqueid": "MTK1091:3TXWC2NHN0XMD7T1IW1HZCRH0RAS9W", "current_trial": 235, "dateTime": 1513104510664, "trialdata": {"rt": -1, "stimulus": "<p id=\"stim\">5</p>", "key_press": -1, "trial_type": "single-stim", "trial_index": 235, "time_elapsed": 1387657, "internal_node_id": "0.0-167.0-5.0"}}, {"uniqueid": "MTK1091:3TXWC2NHN0XMD7T1IW1HZCRH0RAS9W", "current_trial": 236, "dateTime": 1513104511665, "trialdata": {"rt": -1, "stimulus": "<p id=\"stim\">4</p>", "key_press": -1, "trial_type": "single-stim", "trial_index": 236, "time_elapsed": 1388658, "internal_node_id": "0.0-167.0-6.0"}}, {"uniqueid": "MTK1091:3TXWC2NHN0XMD7T1IW1HZCRH0RAS9W", "current_trial": 237, "dateTime": 1513104512665, "trialdata": {"rt": -1, "stimulus": "<p id=\"stim\">3</p>", "key_press": -1, "trial_type": "single-stim", "trial_index": 237, "time_elapsed": 1389658, "internal_node_id": "0.0-167.0-7.0"}}, {"uniqueid": "MTK1091:3TXWC2NHN0XMD7T1IW1HZCRH0RAS9W", "current_trial": 238, "dateTime": 1513104513667, "trialdata": {"rt": -1, "stimulus": "<p id=\"stim\">2</p>", "key_press": -1, "trial_type": "single-stim", "trial_index": 238, "time_elapsed": 1390660, "internal_node_id": "0.0-167.0-8.0"}}, {"uniqueid": "MTK1091:3TXWC2NHN0XMD7T1IW1HZCRH0RAS9W", "current_trial": 239, "dateTime": 1513104514668, "trialdata": {"rt": -1, "stimulus": "<p id=\"stim\">1</p>", "key_press": -1, "trial_type": "single-stim", "trial_index": 239, "time_elapsed": 1391661, "internal_node_id": "0.0-167.0-9.0"}}, {"uniqueid": "MTK1091:3TXWC2NHN0XMD7T1IW1HZCRH0RAS9W", "current_trial": 240, "dateTime": 1513104516169, "trialdata": {"rt": -1, "stimulus": "<p id=\"stim\">+</p>", "key_press": -1, "type": "FIXATION", "trial_type": "single-stim", "trial_index": 240, "time_elapsed": 1393162, "internal_node_id": "0.0-168.0-0.0"}}, {"uniqueid": "MTK1091:3TXWC2NHN0XMD7T1IW1HZCRH0RAS9W", "current_trial": 241, "dateTime": 1513104517770, "trialdata": {"rt": -1, "stimulus": "<p id=\"stim\">ATOM</p>", "key_press": -1, "type": "PRES_VIS", "word": "atom", "wordID": 54, "conditions": [24, 1600, "v", 12000], "trial": 7, "serialpos": 0, "trial_type": "single-stim", "trial_index": 241, "time_elapsed": 1394763, "internal_node_id": "0.0-169.0"}}, {"uniqueid": "MTK1091:3TXWC2NHN0XMD7T1IW1HZCRH0RAS9W", "current_trial": 242, "dateTime": 1513104520423, "trialdata": {"rt": -1, "stimulus": "<p id=\"stim\">SALT</p>", "key_press": -1, "type": "PRES_VIS", "word": "salt", "wordID": 1228, "conditions": [24, 1600, "v", 12000], "trial": 7, "serialpos": 1, "trial_type": "single-stim", "trial_index": 242, "time_elapsed": 1397416, "internal_node_id": "0.0-170.0"}}, {"uniqueid": "MTK1091:3TXWC2NHN0XMD7T1IW1HZCRH0RAS9W", "current_trial": 243, "dateTime": 1513104522970, "trialdata": {"rt": -1, "stimulus": "<p id=\"stim\">SUITCASE</p>", "key_press": -1, "type": "PRES_VIS", "word": "suitcase", "wordID": 1402, "conditions": [24, 1600, "v", 12000], "trial": 7, "serialpos": 2, "trial_type": "single-stim", "trial_index": 243, "time_elapsed": 1399963, "internal_node_id": "0.0-171.0"}}, {"uniqueid": "MTK1091:3TXWC2NHN0XMD7T1IW1HZCRH0RAS9W", "current_trial": 244, "dateTime": 1513104525552, "trialdata": {"rt": -1, "stimulus": "<p id=\"stim\">GARLIC</p>", "key_press": -1, "type": "PRES_VIS", "word": "garlic", "wordID": 623, "conditions": [24, 1600, "v", 12000], "trial": 7, "serialpos": 3, "trial_type": "single-stim", "trial_index": 244, "time_elapsed": 1402545, "internal_node_id": "0.0-172.0"}}, {"uniqueid": "MTK1091:3TXWC2NHN0XMD7T1IW1HZCRH0RAS9W", "current_trial": 245, "dateTime": 1513104528134, "trialdata": {"rt": -1, "stimulus": "<p id=\"stim\">PANTHER</p>", "key_press": -1, "type": "PRES_VIS", "word": "panther", "wordID": 1008, "conditions": [24, 1600, "v", 12000], "trial": 7, "serialpos": 4, "trial_type": "single-stim", "trial_index": 245, "time_elapsed": 1405127, "internal_node_id": "0.0-173.0"}}, {"uniqueid": "MTK1091:3TXWC2NHN0XMD7T1IW1HZCRH0RAS9W", "current_trial": 246, "dateTime": 1513104530695, "trialdata": {"rt": -1, "stimulus": "<p id=\"stim\">POSSUM</p>", "key_press": -1, "type": "PRES_VIS", "word": "possum", "wordID": 1111, "conditions": [24, 1600, "v", 12000], "trial": 7, "serialpos": 5, "trial_type": "single-stim", "trial_index": 246, "time_elapsed": 1407687, "internal_node_id": "0.0-174.0"}}, {"uniqueid": "MTK1091:3TXWC2NHN0XMD7T1IW1HZCRH0RAS9W", "current_trial": 247, "dateTime": 1513104533433, "trialdata": {"rt": -1, "stimulus": "<p id=\"stim\">PARSLEY</p>", "key_press": -1, "type": "PRES_VIS", "word": "parsley", "wordID": 1015, "conditions": [24, 1600, "v", 12000], "trial": 7, "serialpos": 6, "trial_type": "single-stim", "trial_index": 247, "time_elapsed": 1410426, "internal_node_id": "0.0-175.0"}}, {"uniqueid": "MTK1091:3TXWC2NHN0XMD7T1IW1HZCRH0RAS9W", "current_trial": 248, "dateTime": 1513104535887, "trialdata": {"rt": -1, "stimulus": "<p id=\"stim\">LAVA</p>", "key_press": -1, "type": "PRES_VIS", "word": "lava", "wordID": 803, "conditions": [24, 1600, "v", 12000], "trial": 7, "serialpos": 7, "trial_type": "single-stim", "trial_index": 248, "time_elapsed": 1412880, "internal_node_id": "0.0-176.0"}}, {"uniqueid": "MTK1091:3TXWC2NHN0XMD7T1IW1HZCRH0RAS9W", "current_trial": 249, "dateTime": 1513104538394, "trialdata": {"rt": -1, "stimulus": "<p id=\"stim\">VIKING</p>", "key_press": -1, "type": "PRES_VIS", "word": "viking", "wordID": 1564, "conditions": [24, 1600, "v", 12000], "trial": 7, "serialpos": 8, "trial_type": "single-stim", "trial_index": 249, "time_elapsed": 1415387, "internal_node_id": "0.0-177.0"}}, {"uniqueid": "MTK1091:3TXWC2NHN0XMD7T1IW1HZCRH0RAS9W", "current_trial": 250, "dateTime": 1513104540955, "trialdata": {"rt": -1, "stimulus": "<p id=\"stim\">PASTRY</p>", "key_press": -1, "type": "PRES_VIS", "word": "pastry", "wordID": 1021, "conditions": [24, 1600, "v", 12000], "trial": 7, "serialpos": 9, "trial_type": "single-stim", "trial_index": 250, "time_elapsed": 1417948, "internal_node_id": "0.0-178.0"}}, {"uniqueid": "MTK1091:3TXWC2NHN0XMD7T1IW1HZCRH0RAS9W", "current_trial": 251, "dateTime": 1513104543638, "trialdata": {"rt": -1, "stimulus": "<p id=\"stim\">PLASTER</p>", "key_press": -1, "type": "PRES_VIS", "word": "plaster", "wordID": 1084, "conditions": [24, 1600, "v", 12000], "trial": 7, "serialpos": 10, "trial_type": "single-stim", "trial_index": 251, "time_elapsed": 1420631, "internal_node_id": "0.0-179.0"}}, {"uniqueid": "MTK1091:3TXWC2NHN0XMD7T1IW1HZCRH0RAS9W", "current_trial": 252, "dateTime": 1513104546247, "trialdata": {"rt": -1, "stimulus": "<p id=\"stim\">EGYPT</p>", "key_press": -1, "type": "PRES_VIS", "word": "egypt", "wordID": 518, "conditions": [24, 1600, "v", 12000], "trial": 7, "serialpos": 11, "trial_type": "single-stim", "trial_index": 252, "time_elapsed": 1423240, "internal_node_id": "0.0-180.0"}}, {"uniqueid": "MTK1091:3TXWC2NHN0XMD7T1IW1HZCRH0RAS9W", "current_trial": 253, "dateTime": 1513104548651, "trialdata": {"rt": -1, "stimulus": "<p id=\"stim\">PISTON</p>", "key_press": -1, "type": "PRES_VIS", "word": "piston", "wordID": 1075, "conditions": [24, 1600, "v", 12000], "trial": 7, "serialpos": 12, "trial_type": "single-stim", "trial_index": 253, "time_elapsed": 1425644, "internal_node_id": "0.0-181.0"}}, {"uniqueid": "MTK1091:3TXWC2NHN0XMD7T1IW1HZCRH0RAS9W", "current_trial": 254, "dateTime": 1513104551291, "trialdata": {"rt": -1, "stimulus": "<p id=\"stim\">TUTU</p>", "key_press": -1, "type": "PRES_VIS", "word": "tutu", "wordID": 1523, "conditions": [24, 1600, "v", 12000], "trial": 7, "serialpos": 13, "trial_type": "single-stim", "trial_index": 254, "time_elapsed": 1428284, "internal_node_id": "0.0-182.0"}}, {"uniqueid": "MTK1091:3TXWC2NHN0XMD7T1IW1HZCRH0RAS9W", "current_trial": 255, "dateTime": 1513104553733, "trialdata": {"rt": -1, "stimulus": "<p id=\"stim\">SPIDER</p>", "key_press": -1, "type": "PRES_VIS", "word": "spider", "wordID": 1350, "conditions": [24, 1600, "v", 12000], "trial": 7, "serialpos": 14, "trial_type": "single-stim", "trial_index": 255, "time_elapsed": 1430726, "internal_node_id": "0.0-183.0"}}, {"uniqueid": "MTK1091:3TXWC2NHN0XMD7T1IW1HZCRH0RAS9W", "current_trial": 256, "dateTime": 1513104556463, "trialdata": {"rt": -1, "stimulus": "<p id=\"stim\">SISTER</p>", "key_press": -1, "type": "PRES_VIS", "word": "sister", "wordID": 1311, "conditions": [24, 1600, "v", 12000], "trial": 7, "serialpos": 15, "trial_type": "single-stim", "trial_index": 256, "time_elapsed": 1433456, "internal_node_id": "0.0-184.0"}}, {"uniqueid": "MTK1091:3TXWC2NHN0XMD7T1IW1HZCRH0RAS9W", "current_trial": 257, "dateTime": 1513104558922, "trialdata": {"rt": -1, "stimulus": "<p id=\"stim\">CRUTCH</p>", "key_press": -1, "type": "PRES_VIS", "word": "crutch", "wordID": 416, "conditions": [24, 1600, "v", 12000], "trial": 7, "serialpos": 16, "trial_type": "single-stim", "trial_index": 257, "time_elapsed": 1435915, "internal_node_id": "0.0-185.0"}}, {"uniqueid": "MTK1091:3TXWC2NHN0XMD7T1IW1HZCRH0RAS9W", "current_trial": 258, "dateTime": 1513104561434, "trialdata": {"rt": -1, "stimulus": "<p id=\"stim\">LOVER</p>", "key_press": -1, "type": "PRES_VIS", "word": "lover", "wordID": 845, "conditions": [24, 1600, "v", 12000], "trial": 7, "serialpos": 17, "trial_type": "single-stim", "trial_index": 258, "time_elapsed": 1438427, "internal_node_id": "0.0-186.0"}}, {"uniqueid": "MTK1091:3TXWC2NHN0XMD7T1IW1HZCRH0RAS9W", "current_trial": 259, "dateTime": 1513104563886, "trialdata": {"rt": -1, "stimulus": "<p id=\"stim\">NIGHTGOWN</p>", "key_press": -1, "type": "PRES_VIS", "word": "nightgown", "wordID": 952, "conditions": [24, 1600, "v", 12000], "trial": 7, "serialpos": 18, "trial_type": "single-stim", "trial_index": 259, "time_elapsed": 1440879, "internal_node_id": "0.0-187.0"}}, {"uniqueid": "MTK1091:3TXWC2NHN0XMD7T1IW1HZCRH0RAS9W", "current_trial": 260, "dateTime": 1513104566567, "trialdata": {"rt": -1, "stimulus": "<p id=\"stim\">SCALLOP</p>", "key_press": -1, "type": "PRES_VIS", "word": "scallop", "wordID": 1241, "conditions": [24, 1600, "v", 12000], "trial": 7, "serialpos": 19, "trial_type": "single-stim", "trial_index": 260, "time_elapsed": 1443560, "internal_node_id": "0.0-188.0"}}, {"uniqueid": "MTK1091:3TXWC2NHN0XMD7T1IW1HZCRH0RAS9W", "current_trial": 261, "dateTime": 1513104569227, "trialdata": {"rt": -1, "stimulus": "<p id=\"stim\">CLAM</p>", "key_press": -1, "type": "PRES_VIS", "word": "clam", "wordID": 314, "conditions": [24, 1600, "v", 12000], "trial": 7, "serialpos": 20, "trial_type": "single-stim", "trial_index": 261, "time_elapsed": 1446220, "internal_node_id": "0.0-189.0"}}, {"uniqueid": "MTK1091:3TXWC2NHN0XMD7T1IW1HZCRH0RAS9W", "current_trial": 262, "dateTime": 1513104571869, "trialdata": {"rt": -1, "stimulus": "<p id=\"stim\">ARMY</p>", "key_press": -1, "type": "PRES_VIS", "word": "army", "wordID": 38, "conditions": [24, 1600, "v", 12000], "trial": 7, "serialpos": 21, "trial_type": "single-stim", "trial_index": 262, "time_elapsed": 1448862, "internal_node_id": "0.0-190.0"}}, {"uniqueid": "MTK1091:3TXWC2NHN0XMD7T1IW1HZCRH0RAS9W", "current_trial": 263, "dateTime": 1513104574305, "trialdata": {"rt": -1, "stimulus": "<p id=\"stim\">PRINCESS</p>", "key_press": -1, "type": "PRES_VIS", "word": "princess", "wordID": 1124, "conditions": [24, 1600, "v", 12000], "trial": 7, "serialpos": 22, "trial_type": "single-stim", "trial_index": 263, "time_elapsed": 1451298, "internal_node_id": "0.0-191.0"}}, {"uniqueid": "MTK1091:3TXWC2NHN0XMD7T1IW1HZCRH0RAS9W", "current_trial": 264, "dateTime": 1513104576964, "trialdata": {"rt": -1, "stimulus": "<p id=\"stim\">SPHINX</p>", "key_press": -1, "type": "PRES_VIS", "word": "sphinx", "wordID": 1348, "conditions": [24, 1600, "v", 12000], "trial": 7, "serialpos": 23, "trial_type": "single-stim", "trial_index": 264, "time_elapsed": 1453957, "internal_node_id": "0.0-192.0"}}, {"uniqueid": "MTK1091:3TXWC2NHN0XMD7T1IW1HZCRH0RAS9W", "current_trial": 265, "dateTime": 1513104579293, "trialdata": {"rt": -1, "stimulus": "", "key_press": -1, "type": "PRE_RECALL_DELAY", "trial_type": "single-stim", "trial_index": 265, "time_elapsed": 1456286, "internal_node_id": "0.0-193.0-0.0"}}, {"uniqueid": "MTK1091:3TXWC2NHN0XMD7T1IW1HZCRH0RAS9W", "current_trial": 266, "dateTime": 1513104579795, "trialdata": {"rt": -1000, "stimulus": "/static/audio/400Hz.wav", "key_press": -1, "type": "PRE_RECALL_ALERT", "trial_type": "single-audio", "trial_index": 266, "time_elapsed": 1456788, "internal_node_id": "0.0-194.0"}}, {"uniqueid": "MTK1091:3TXWC2NHN0XMD7T1IW1HZCRH0RAS9W", "current_trial": 267, "dateTime": 1513104639798, "trialdata": {"rt": [5983, 9103, 12115, 14191, 17463, 20559, 32153], "recwords": ["sphinx", "army", "salt", "atom", "lava", "spider", "viking"], "type": "FREE_RECALL", "conditions": [24, 1600, "v", 12000], "trial": 7, "trial_type": "free-recall", "trial_index": 267, "time_elapsed": 1516789, "internal_node_id": "0.0-195.0-0.0"}}, {"uniqueid": "MTK1091:3TXWC2NHN0XMD7T1IW1HZCRH0RAS9W", "current_trial": 268, "dateTime": 1513104644075, "trialdata": {"rt": 2276, "key_press": 32, "type": "INSTRUCTIONS", "trial_type": "text", "trial_index": 268, "time_elapsed": 1521068, "internal_node_id": "0.0-196.0"}}, {"uniqueid": "MTK1091:3TXWC2NHN0XMD7T1IW1HZCRH0RAS9W", "current_trial": 269, "dateTime": 1513104658077, "trialdata": {"rt": [2591, 4327, 6335, 7905, 9878, 11575], "responses": ["13", "18", "20", "9", "15", "19"], "num1": [4, 7, 8, 2, 8, 7, 3], "num2": [5, 3, 5, 4, 4, 3, 7], "num3": [4, 8, 7, 3, 3, 9, 1], "type": "DISTRACTOR", "conditions": [24, 800, "v", 12000], "trial": 8, "trial_type": "math-distractor", "trial_index": 269, "time_elapsed": 1535069, "internal_node_id": "0.0-197.0"}}, {"uniqueid": "MTK1091:3TXWC2NHN0XMD7T1IW1HZCRH0RAS9W", "current_trial": 270, "dateTime": 1513104661078, "trialdata": {"rt": -1, "stimulus": "<p id=\"stim\">10</p>", "key_press": -1, "trial_type": "single-stim", "trial_index": 270, "time_elapsed": 1538071, "internal_node_id": "0.0-198.0-0.0"}}, {"uniqueid": "MTK1091:3TXWC2NHN0XMD7T1IW1HZCRH0RAS9W", "current_trial": 271, "dateTime": 1513104662080, "trialdata": {"rt": -1, "stimulus": "<p id=\"stim\">9</p>", "key_press": -1, "trial_type": "single-stim", "trial_index": 271, "time_elapsed": 1539073, "internal_node_id": "0.0-198.0-1.0"}}, {"uniqueid": "MTK1091:3TXWC2NHN0XMD7T1IW1HZCRH0RAS9W", "current_trial": 272, "dateTime": 1513104663082, "trialdata": {"rt": -1, "stimulus": "<p id=\"stim\">8</p>", "key_press": -1, "trial_type": "single-stim", "trial_index": 272, "time_elapsed": 1540075, "internal_node_id": "0.0-198.0-2.0"}}, {"uniqueid": "MTK1091:3TXWC2NHN0XMD7T1IW1HZCRH0RAS9W", "current_trial": 273, "dateTime": 1513104664082, "trialdata": {"rt": -1, "stimulus": "<p id=\"stim\">7</p>", "key_press": -1, "trial_type": "single-stim", "trial_index": 273, "time_elapsed": 1541075, "internal_node_id": "0.0-198