{"assignmentId": "3WQQ9FUS6B1NIGTP2I989RM6EDC8BQ", "workerId": "MTK1399", "questiondata": {"origin": "United States", "strat-rehearsal": "44", "marital": "Single", "education": "Some college", "ethnicity": "Not Hispanic", "color_depth": 24, "distracted": "No", "wrote-notes": "No", "strat-other": "", "screen_width": 1366, "avail_screen_width": 1366, "avail_screen_height": 728, "strat-image": "55", "language": "English", "gender": "Male", "age": "25", "gender_other": "", "race": ["Black"], "strat-categorize": "66", "pixel_depth": 24, "strat-spatial": "1", "strat-story": "1", "race_other": "", "screen_height": 768}, "bonus": 0, "hitId": "36QZ6V1589KIAFJAQ5R66OIBYSRUS2", "counterbalance": 781, "useragent": "Mozilla/5.0 (Windows NT 10.0; Win64; x64) AppleWebKit/537.36 (KHTML, like Gecko) Chrome/52.0.2743.116 Safari/537.36 Edge/15.15063", "eventdata": [{"eventtype": "initialized", "interval": 0, "value": null, "timestamp": 1515872885860}, {"eventtype": "window_resize", "interval": 1, "value": [1366, 652], "timestamp": 1515872885861}, {"eventtype": "focus", "interval": 662, "value": "on", "timestamp": 1515872886523}, {"eventtype": "focus", "interval": 1693263, "value": "off", "timestamp": 1515874579786}, {"eventtype": "focus", "interval": 8321, "value": "on", "timestamp": 1515874588107}, {"eventtype": "focus", "interval": 512040, "value": "off", "timestamp": 1515875100147}, {"eventtype": "focus", "interval": 21917, "value": "on", "timestamp": 1515875122064}, {"eventtype": "focus", "interval": 5474, "value": "off", "timestamp": 1515875127538}, {"eventtype": "focus", "interval": 6635, "value": "on", "timestamp": 1515875134173}], "data": [{"current_trial": 0, "trialdata": {"rt": 3106, "trial_type": "text", "internal_node_id": "0.0-0.0", "time_elapsed": 3108, "key_press": 75, "type": "INSTRUCTIONS", "trial_index": 0}, "uniqueid": "MTK1399:3WQQ9FUS6B1NIGTP2I989RM6EDC8BQ", "dateTime": 1515872890403}, {"current_trial": 1, "trialdata": {"rt": 5774, "trial_type": "text", "internal_node_id": "0.0-1.0", "time_elapsed": 8887, "key_press": 175, "type": "INSTRUCTIONS", "trial_index": 1}, "uniqueid": "MTK1399:3WQQ9FUS6B1NIGTP2I989RM6EDC8BQ", "dateTime": 1515872896182}, {"current_trial": 2, "trialdata": {"rt": [11858], "trial_type": "audio-test", "responses": ["ocean"], "internal_node_id": "0.0-2.0", "time_elapsed": 20824, "type": "AUDIO_TEST", "trial_index": 2}, "uniqueid": "MTK1399:3WQQ9FUS6B1NIGTP2I989RM6EDC8BQ", "dateTime": 1515872908118}, {"current_trial": 3, "trialdata": {"rt": [8663], "trial_type": "audio-test", "responses": ["crystal"], "internal_node_id": "0.0-3.0", "time_elapsed": 29495, "type": "AUDIO_TEST", "trial_index": 3}, "uniqueid": "MTK1399:3WQQ9FUS6B1NIGTP2I989RM6EDC8BQ", "dateTime": 1515872916789}, {"current_trial": 4, "trialdata": {"rt": [5597], "trial_type": "audio-test", "responses": ["spice"], "internal_node_id": "0.0-4.0", "time_elapsed": 35099, "type": "AUDIO_TEST", "trial_index": 4}, "uniqueid": "MTK1399:3WQQ9FUS6B1NIGTP2I989RM6EDC8BQ", "dateTime": 1515872922393}, {"current_trial": 5, "trialdata": {"rt": 43192, "trial_type": "survey-text", "responses": "{\"Q0\":\"3 o'clock am\",\"Q1\":\"10 o'clock am\",\"Q2\":\"5\"}", "internal_node_id": "0.0-5.0", "time_elapsed": 79056, "type": "SLEEP_SURVEY", "trial_index": 5}, "uniqueid": "MTK1399:3WQQ9FUS6B1NIGTP2I989RM6EDC8BQ", "dateTime": 1515872966350}, {"current_trial": 6, "trialdata": {"rt": 67319, "trial_type": "text", "internal_node_id": "0.0-6.0", "time_elapsed": 147391, "key_press": 75, "type": "INSTRUCTIONS", "trial_index": 6}, "uniqueid": "MTK1399:3WQQ9FUS6B1NIGTP2I989RM6EDC8BQ", "dateTime": 1515873034685}, {"current_trial": 7, "trialdata": {"rt": 67149, "trial_type": "text", "internal_node_id": "0.0-7.0", "time_elapsed": 215058, "key_press": 13, "type": "INSTRUCTIONS", "trial_index": 7}, "uniqueid": "MTK1399:3WQQ9FUS6B1NIGTP2I989RM6EDC8BQ", "dateTime": 1515873102352}, {"current_trial": 8, "trialdata": {"rt": 4527, "trial_type": "text", "internal_node_id": "0.0-8.0", "time_elapsed": 220088, "key_press": 13, "type": "INSTRUCTIONS", "trial_index": 8}, "uniqueid": "MTK1399:3WQQ9FUS6B1NIGTP2I989RM6EDC8BQ", "dateTime": 1515873107382}, {"current_trial": 9, "trialdata": {"rt": [4076, 6620, 8700, 11443, 14520, 16911], "trial_type": "math-distractor", "key_times": [2758, 3181, 4076, 6477, 6620, 8364, 8476, 8700, 10611, 11074, 11443, 14121, 14310, 14520, 16088, 16254, 16911], "responses": ["13", "9", "13", "17", "11", "22"], "num2": [5, 4, 6, 1, 7, 8, 4], "num3": [5, 3, 6, 7, 2, 7, 6], "conditions": [18, 1200, "v", 18000], "internal_node_id": "0.0-9.0", "key_presses": [49, 51, 13, 57, 13, 49, 51, 13, 49, 55, 13, 49, 49, 13, 50, 50, 13], "trial": 0, "time_elapsed": 239111, "type": "DISTRACTOR", "trial_index": 9, "num1": [3, 2, 1, 9, 2, 7, 5]}, "uniqueid": "MTK1399:3WQQ9FUS6B1NIGTP2I989RM6EDC8BQ", "dateTime": 1515873126405}, {"current_trial": 10, "trialdata": {"rt": -1, "trial_type": "single-stim", "stimulus": "<p id=\"stim\">10</p>", "internal_node_id": "0.0-10.0-0.0", "time_elapsed": 242134, "key_press": -1, "trial_index": 10}, "uniqueid": "MTK1399:3WQQ9FUS6B1NIGTP2I989RM6EDC8BQ", "dateTime": 1515873129428}, {"current_trial": 11, "trialdata": {"rt": -1, "trial_type": "single-stim", "stimulus": "<p id=\"stim\">9</p>", "internal_node_id": "0.0-10.0-1.0", "time_elapsed": 243136, "key_press": -1, "trial_index": 11}, "uniqueid": "MTK1399:3WQQ9FUS6B1NIGTP2I989RM6EDC8BQ", "dateTime": 1515873130430}, {"current_trial": 12, "trialdata": {"rt": -1, "trial_type": "single-stim", "stimulus": "<p id=\"stim\">8</p>", "internal_node_id": "0.0-10.0-2.0", "time_elapsed": 244125, "key_press": -1, "trial_index": 12}, "uniqueid": "MTK1399:3WQQ9FUS6B1NIGTP2I989RM6EDC8BQ", "dateTime": 1515873131419}, {"current_trial": 13, "trialdata": {"rt": -1, "trial_type": "single-stim", "stimulus": "<p id=\"stim\">7</p>", "internal_node_id": "0.0-10.0-3.0", "time_elapsed": 245128, "key_press": -1, "trial_index": 13}, "uniqueid": "MTK1399:3WQQ9FUS6B1NIGTP2I989RM6EDC8BQ", "dateTime": 1515873132422}, {"current_trial": 14, "trialdata": {"rt": -1, "trial_type": "single-stim", "stimulus": "<p id=\"stim\">6</p>", "internal_node_id": "0.0-10.0-4.0", "time_elapsed": 246128, "key_press": -1, "trial_index": 14}, "uniqueid": "MTK1399:3WQQ9FUS6B1NIGTP2I989RM6EDC8BQ", "dateTime": 1515873133422}, {"current_trial": 15, "trialdata": {"rt": -1, "trial_type": "single-stim", "stimulus": "<p id=\"stim\">5</p>", "internal_node_id": "0.0-10.0-5.0", "time_elapsed": 247129, "key_press": -1, "trial_index": 15}, "uniqueid": "MTK1399:3WQQ9FUS6B1NIGTP2I989RM6EDC8BQ", "dateTime": 1515873134423}, {"current_trial": 16, "trialdata": {"rt": -1, "trial_type": "single-stim", "stimulus": "<p id=\"stim\">4</p>", "internal_node_id": "0.0-10.0-6.0", "time_elapsed": 248143, "key_press": -1, "trial_index": 16}, "uniqueid": "MTK1399:3WQQ9FUS6B1NIGTP2I989RM6EDC8BQ", "dateTime": 1515873135437}, {"current_trial": 17, "trialdata": {"rt": -1, "trial_type": "single-stim", "stimulus": "<p id=\"stim\">3</p>", "internal_node_id": "0.0-10.0-7.0", "time_elapsed": 249142, "key_press": -1, "trial_index": 17}, "uniqueid": "MTK1399:3WQQ9FUS6B1NIGTP2I989RM6EDC8BQ", "dateTime": 1515873136436}, {"current_trial": 18, "trialdata": {"rt": -1, "trial_type": "single-stim", "stimulus": "<p id=\"stim\">2</p>", "internal_node_id": "0.0-10.0-8.0", "time_elapsed": 250130, "key_press": -1, "trial_index": 18}, "uniqueid": "MTK1399:3WQQ9FUS6B1NIGTP2I989RM6EDC8BQ", "dateTime": 1515873137424}, {"current_trial": 19, "trialdata": {"rt": -1, "trial_type": "single-stim", "stimulus": "<p id=\"stim\">1</p>", "internal_node_id": "0.0-10.0-9.0", "time_elapsed": 251133, "key_press": -1, "trial_index": 19}, "uniqueid": "MTK1399:3WQQ9FUS6B1NIGTP2I989RM6EDC8BQ", "dateTime": 1515873138428}, {"current_trial": 20, "trialdata": {"rt": -1, "trial_type": "single-stim", "stimulus": "<p id=\"stim\">+</p>", "internal_node_id": "0.0-11.0-0.0", "time_elapsed": 252636, "key_press": -1, "type": "FIXATION", "trial_index": 20}, "uniqueid": "MTK1399:3WQQ9FUS6B1NIGTP2I989RM6EDC8BQ", "dateTime": 1515873139930}, {"current_trial": 21, "trialdata": {"rt": -1, "trial_type": "single-stim", "word": "sphinx", "stimulus": "<p id=\"stim\">SPHINX</p>", "conditions": [18, 1200, "v", 18000], "internal_node_id": "0.0-12.0", "trial": 0, "time_elapsed": 253847, "serialpos": 0, "key_press": -1, "wordID": 1348, "type": "PRES_VIS", "trial_index": 21}, "uniqueid": "MTK1399:3WQQ9FUS6B1NIGTP2I989RM6EDC8BQ", "dateTime": 1515873141141}, {"current_trial": 22, "trialdata": {"rt": -1, "trial_type": "single-stim", "word": "salad", "stimulus": "<p id=\"stim\">SALAD</p>", "conditions": [18, 1200, "v", 18000], "internal_node_id": "0.0-13.0", "trial": 0, "time_elapsed": 256153, "serialpos": 1, "key_press": -1, "wordID": 1223, "type": "PRES_VIS", "trial_index": 22}, "uniqueid": "MTK1399:3WQQ9FUS6B1NIGTP2I989RM6EDC8BQ", "dateTime": 1515873143447}, {"current_trial": 23, "trialdata": {"rt": -1, "trial_type": "single-stim", "word": "tile", "stimulus": "<p id=\"stim\">TILE</p>", "conditions": [18, 1200, "v", 18000], "internal_node_id": "0.0-14.0", "trial": 0, "time_elapsed": 258345, "serialpos": 2, "key_press": -1, "wordID": 1467, "type": "PRES_VIS", "trial_index": 23}, "uniqueid": "MTK1399:3WQQ9FUS6B1NIGTP2I989RM6EDC8BQ", "dateTime": 1515873145639}, {"current_trial": 24, "trialdata": {"rt": -1, "trial_type": "single-stim", "word": "luggage", "stimulus": "<p id=\"stim\">LUGGAGE</p>", "conditions": [18, 1200, "v", 18000], "internal_node_id": "0.0-15.0", "trial": 0, "time_elapsed": 260583, "serialpos": 3, "key_press": -1, "wordID": 846, "type": "PRES_VIS", "trial_index": 24}, "uniqueid": "MTK1399:3WQQ9FUS6B1NIGTP2I989RM6EDC8BQ", "dateTime": 1515873147877}, {"current_trial": 25, "trialdata": {"rt": -1, "trial_type": "single-stim", "word": "yarn", "stimulus": "<p id=\"stim\">YARN</p>", "conditions": [18, 1200, "v", 18000], "internal_node_id": "0.0-16.0", "trial": 0, "time_elapsed": 262976, "serialpos": 4, "key_press": -1, "wordID": 1630, "type": "PRES_VIS", "trial_index": 25}, "uniqueid": "MTK1399:3WQQ9FUS6B1NIGTP2I989RM6EDC8BQ", "dateTime": 1515873150270}, {"current_trial": 26, "trialdata": {"rt": -1, "trial_type": "single-stim", "word": "leader", "stimulus": "<p id=\"stim\">LEADER</p>", "conditions": [18, 1200, "v", 18000], "internal_node_id": "0.0-17.0", "trial": 0, "time_elapsed": 265009, "serialpos": 5, "key_press": -1, "wordID": 806, "type": "PRES_VIS", "trial_index": 26}, "uniqueid": "MTK1399:3WQQ9FUS6B1NIGTP2I989RM6EDC8BQ", "dateTime": 1515873152303}, {"current_trial": 27, "trialdata": {"rt": -1, "trial_type": "single-stim", "word": "outdoors", "stimulus": "<p id=\"stim\">OUTDOORS</p>", "conditions": [18, 1200, "v", 18000], "internal_node_id": "0.0-18.0", "trial": 0, "time_elapsed": 267082, "serialpos": 6, "key_press": -1, "wordID": 986, "type": "PRES_VIS", "trial_index": 27}, "uniqueid": "MTK1399:3WQQ9FUS6B1NIGTP2I989RM6EDC8BQ", "dateTime": 1515873154376}, {"current_trial": 28, "trialdata": {"rt": -1, "trial_type": "single-stim", "word": "pasta", "stimulus": "<p id=\"stim\">PASTA</p>", "conditions": [18, 1200, "v", 18000], "internal_node_id": "0.0-19.0", "trial": 0, "time_elapsed": 269215, "serialpos": 7, "key_press": -1, "wordID": 1020, "type": "PRES_VIS", "trial_index": 28}, "uniqueid": "MTK1399:3WQQ9FUS6B1NIGTP2I989RM6EDC8BQ", "dateTime": 1515873156509}, {"current_trial": 29, "trialdata": {"rt": -1, "trial_type": "single-stim", "word": "cobra", "stimulus": "<p id=\"stim\">COBRA</p>", "conditions": [18, 1200, "v", 18000], "internal_node_id": "0.0-20.0", "trial": 0, "time_elapsed": 271598, "serialpos": 8, "key_press": -1, "wordID": 335, "type": "PRES_VIS", "trial_index": 29}, "uniqueid": "MTK1399:3WQQ9FUS6B1NIGTP2I989RM6EDC8BQ", "dateTime": 1515873158892}, {"current_trial": 30, "trialdata": {"rt": -1, "trial_type": "single-stim", "word": "mask", "stimulus": "<p id=\"stim\">MASK</p>", "conditions": [18, 1200, "v", 18000], "internal_node_id": "0.0-21.0", "trial": 0, "time_elapsed": 273817, "serialpos": 9, "key_press": -1, "wordID": 875, "type": "PRES_VIS", "trial_index": 30}, "uniqueid": "MTK1399:3WQQ9FUS6B1NIGTP2I989RM6EDC8BQ", "dateTime": 1515873161111}, {"current_trial": 31, "trialdata": {"rt": -1, "trial_type": "single-stim", "word": "shelf", "stimulus": "<p id=\"stim\">SHELF</p>", "conditions": [18, 1200, "v", 18000], "internal_node_id": "0.0-22.0", "trial": 0, "time_elapsed": 276017, "serialpos": 10, "key_press": -1, "wordID": 1279, "type": "PRES_VIS", "trial_index": 31}, "uniqueid": "MTK1399:3WQQ9FUS6B1NIGTP2I989RM6EDC8BQ", "dateTime": 1515873163311}, {"current_trial": 32, "trialdata": {"rt": -1, "trial_type": "single-stim", "word": "airport", "stimulus": "<p id=\"stim\">AIRPORT</p>", "conditions": [18, 1200, "v", 18000], "internal_node_id": "0.0-23.0", "trial": 0, "time_elapsed": 278131, "serialpos": 11, "key_press": -1, "wordID": 12, "type": "PRES_VIS", "trial_index": 32}, "uniqueid": "MTK1399:3WQQ9FUS6B1NIGTP2I989RM6EDC8BQ", "dateTime": 1515873165425}, {"current_trial": 33, "trialdata": {"rt": -1, "trial_type": "single-stim", "word": "patrol", "stimulus": "<p id=\"stim\">PATROL</p>", "conditions": [18, 1200, "v", 18000], "internal_node_id": "0.0-24.0", "trial": 0, "time_elapsed": 280350, "serialpos": 12, "key_press": -1, "wordID": 1026, "type": "PRES_VIS", "trial_index": 33}, "uniqueid": "MTK1399:3WQQ9FUS6B1NIGTP2I989RM6EDC8BQ", "dateTime": 1515873167644}, {"current_trial": 34, "trialdata": {"rt": -1, "trial_type": "single-stim", "word": "human", "stimulus": "<p id=\"stim\">HUMAN</p>", "conditions": [18, 1200, "v", 18000], "internal_node_id": "0.0-25.0", "trial": 0, "time_elapsed": 282464, "serialpos": 13, "key_press": -1, "wordID": 725, "type": "PRES_VIS", "trial_index": 34}, "uniqueid": "MTK1399:3WQQ9FUS6B1NIGTP2I989RM6EDC8BQ", "dateTime": 1515873169759}, {"current_trial": 35, "trialdata": {"rt": -1, "trial_type": "single-stim", "word": "slope", "stimulus": "<p id=\"stim\">SLOPE</p>", "conditions": [18, 1200, "v", 18000], "internal_node_id": "0.0-26.0", "trial": 0, "time_elapsed": 284677, "serialpos": 14, "key_press": -1, "wordID": 1327, "type": "PRES_VIS", "trial_index": 35}, "uniqueid": "MTK1399:3WQQ9FUS6B1NIGTP2I989RM6EDC8BQ", "dateTime": 1515873171971}, {"current_trial": 36, "trialdata": {"rt": -1, "trial_type": "single-stim", "word": "lipstick", "stimulus": "<p id=\"stim\">LIPSTICK</p>", "conditions": [18, 1200, "v", 18000], "internal_node_id": "0.0-27.0", "trial": 0, "time_elapsed": 286757, "serialpos": 15, "key_press": -1, "wordID": 828, "type": "PRES_VIS", "trial_index": 36}, "uniqueid": "MTK1399:3WQQ9FUS6B1NIGTP2I989RM6EDC8BQ", "dateTime": 1515873174052}, {"current_trial": 37, "trialdata": {"rt": -1, "trial_type": "single-stim", "word": "daughter", "stimulus": "<p id=\"stim\">DAUGHTER</p>", "conditions": [18, 1200, "v", 18000], "internal_node_id": "0.0-28.0", "trial": 0, "time_elapsed": 288960, "serialpos": 16, "key_press": -1, "wordID": 441, "type": "PRES_VIS", "trial_index": 37}, "uniqueid": "MTK1399:3WQQ9FUS6B1NIGTP2I989RM6EDC8BQ", "dateTime": 1515873176254}, {"current_trial": 38, "trialdata": {"rt": -1, "trial_type": "single-stim", "word": "monster", "stimulus": "<p id=\"stim\">MONSTER</p>", "conditions": [18, 1200, "v", 18000], "internal_node_id": "0.0-29.0", "trial": 0, "time_elapsed": 291060, "serialpos": 17, "key_press": -1, "wordID": 911, "type": "PRES_VIS", "trial_index": 38}, "uniqueid": "MTK1399:3WQQ9FUS6B1NIGTP2I989RM6EDC8BQ", "dateTime": 1515873178354}, {"current_trial": 39, "trialdata": {"rt": -1, "trial_type": "single-stim", "stimulus": "", "internal_node_id": "0.0-30.0-0.0", "time_elapsed": 293431, "key_press": -1, "type": "PRE_RECALL_DELAY", "trial_index": 39}, "uniqueid": "MTK1399:3WQQ9FUS6B1NIGTP2I989RM6EDC8BQ", "dateTime": 1515873180726}, {"current_trial": 40, "trialdata": {"rt": -1000, "trial_type": "single-audio", "stimulus": "/static/audio/400Hz.wav", "internal_node_id": "0.0-31.0", "time_elapsed": 293990, "key_press": -1, "type": "PRE_RECALL_ALERT", "trial_index": 40}, "uniqueid": "MTK1399:3WQQ9FUS6B1NIGTP2I989RM6EDC8BQ", "dateTime": 1515873181284}, {"current_trial": 41, "trialdata": {"rt": [3410, 5491, 7935, 9931, 11134, 12330, 15774, 19942, 29259, 37851], "recwords": ["sphinx", "floor", "monster", "daughter", "salad", "tile", "ladder", "yarn", "luggage", "human"], "key_times": [1325, 1510, 2169, 2280, 2437, 2673, 3410, 4412, 4874, 5025, 5174, 5291, 5491, 6900, 7003, 7137, 7241, 7420, 7508, 7608, 7935, 8626, 8752, 8871, 9060, 9139, 9287, 9420, 9516, 9931, 10309, 10443, 10635, 10773, 10948, 11134, 11672, 11824, 12061, 12177, 12330, 14835, 15046, 15213, 15354, 15520, 15631, 15774, 19429, 19585, 19704, 19815, 19942, 27546, 27798, 28355, 28505, 28693, 28860, 28996, 29259, 37004, 37043, 37272, 37435, 37515, 37851], "trial_type": "free-recall", "conditions": [18, 1200, "v", 18000], "internal_node_id": "0.0-32.0-0.0", "key_presses": [83, 80, 72, 73, 78, 88, 32, 70, 76, 79, 79, 82, 32, 77, 79, 78, 83, 84, 69, 82, 32, 68, 65, 85, 71, 72, 84, 69, 82, 32, 83, 65, 76, 65, 68, 32, 84, 73, 76, 69, 32, 76, 65, 68, 68, 69, 82, 32, 89, 65, 82, 78, 32, 76, 85, 71, 71, 65, 71, 69, 32, 72, 85, 77, 65, 78, 32], "trial": 0, "time_elapsed": 354003, "type": "FREE_RECALL", "trial_index": 41}, "uniqueid": "MTK1399:3WQQ9FUS6B1NIGTP2I989RM6EDC8BQ", "dateTime": 1515873241304}, {"current_trial": 42, "trialdata": {"rt": 1982, "trial_type": "text", "internal_node_id": "0.0-33.0", "time_elapsed": 358008, "key_press": 32, "type": "INSTRUCTIONS", "trial_index": 42}, "uniqueid": "MTK1399:3WQQ9FUS6B1NIGTP2I989RM6EDC8BQ", "dateTime": 1515873245303}, {"current_trial": 43, "trialdata": {"rt": [4164, 8032, 11569, 14336, 17174], "trial_type": "math-distractor", "key_times": [3397, 3501, 4164, 7273, 7545, 8032, 9457, 9879, 10663, 11170, 11569, 13273, 13713, 14336, 16543, 16693, 17174], "responses": ["13", "15", "16", "17", "13"], "num2": [3, 6, 9, 7, 1, 6], "num3": [1, 2, 4, 5, 4, 6], "conditions": [18, 1200, "v", 18000], "internal_node_id": "0.0-34.0", "key_presses": [49, 51, 13, 49, 53, 13, 49, 53, 8, 54, 13, 49, 55, 13, 49, 51, 13], "trial": 1, "time_elapsed": 378045, "type": "DISTRACTOR", "trial_index": 43, "num1": [9, 7, 3, 5, 8, 8]}, "uniqueid": "MTK1399:3WQQ9FUS6B1NIGTP2I989RM6EDC8BQ", "dateTime": 1515873265339}, {"current_trial": 44, "trialdata": {"rt": -1, "trial_type": "single-stim", "stimulus": "<p id=\"stim\">10</p>", "internal_node_id": "0.0-35.0-0.0", "time_elapsed": 381064, "key_press": -1, "trial_index": 44}, "uniqueid": "MTK1399:3WQQ9FUS6B1NIGTP2I989RM6EDC8BQ", "dateTime": 1515873268358}, {"current_trial": 45, "trialdata": {"rt": -1, "trial_type": "single-stim", "stimulus": "<p id=\"stim\">9</p>", "internal_node_id": "0.0-35.0-1.0", "time_elapsed": 382066, "key_press": -1, "trial_index": 45}, "uniqueid": "MTK1399:3WQQ9FUS6B1NIGTP2I989RM6EDC8BQ", "dateTime": 1515873269360}, {"current_trial": 46, "trialdata": {"rt": -1, "trial_type": "single-stim", "stimulus": "<p id=\"stim\">8</p>", "internal_node_id": "0.0-35.0-2.0", "time_elapsed": 383078, "key_press": -1, "trial_index": 46}, "uniqueid": "MTK1399:3WQQ9FUS6B1NIGTP2I989RM6EDC8BQ", "dateTime": 1515873270373}, {"current_trial": 47, "trialdata": {"rt": -1, "trial_type": "single-stim", "stimulus": "<p id=\"stim\">7</p>", "internal_node_id": "0.0-35.0-3.0", "time_elapsed": 384064, "key_press": -1, "trial_index": 47}, "uniqueid": "MTK1399:3WQQ9FUS6B1NIGTP2I989RM6EDC8BQ", "dateTime": 1515873271358}, {"current_trial": 48, "trialdata": {"rt": -1, "trial_type": "single-stim", "stimulus": "<p id=\"stim\">6</p>", "internal_node_id": "0.0-35.0-4.0", "time_elapsed": 385070, "key_press": -1, "trial_index": 48}, "uniqueid": "MTK1399:3WQQ9FUS6B1NIGTP2I989RM6EDC8BQ", "dateTime": 1515873272364}, {"current_trial": 49, "trialdata": {"rt": -1, "trial_type": "single-stim", "stimulus": "<p id=\"stim\">5</p>", "internal_node_id": "0.0-35.0-5.0", "time_elapsed": 386070, "key_press": -1, "trial_index": 49}, "uniqueid": "MTK1399:3WQQ9FUS6B1NIGTP2I989RM6EDC8BQ", "dateTime": 1515873273364}, {"current_trial": 50, "trialdata": {"rt": -1, "trial_type": "single-stim", "stimulus": "<p id=\"stim\">4</p>", "internal_node_id": "0.0-35.0-6.0", "time_elapsed": 387073, "key_press": -1, "trial_index": 50}, "uniqueid": "MTK1399:3WQQ9FUS6B1NIGTP2I989RM6EDC8BQ", "dateTime": 1515873274367}, {"current_trial": 51, "trialdata": {"rt": -1, "trial_type": "single-stim", "stimulus": "<p id=\"stim\">3</p>", "internal_node_id": "0.0-35.0-7.0", "time_elapsed": 388066, "key_press": -1, "trial_index": 51}, "uniqueid": "MTK1399:3WQQ9FUS6B1NIGTP2I989RM6EDC8BQ", "dateTime": 1515873275360}, {"current_trial": 52, "trialdata": {"rt": -1, "trial_type": "single-stim", "stimulus": "<p id=\"stim\">2</p>", "internal_node_id": "0.0-35.0-8.0", "time_elapsed": 389066, "key_press": -1, "trial_index": 52}, "uniqueid": "MTK1399:3WQQ9FUS6B1NIGTP2I989RM6EDC8BQ", "dateTime": 1515873276360}, {"current_trial": 53, "trialdata": {"rt": -1, "trial_type": "single-stim", "stimulus": "<p id=\"stim\">1</p>", "internal_node_id": "0.0-35.0-9.0", "time_elapsed": 390078, "key_press": -1, "trial_index": 53}, "uniqueid": "MTK1399:3WQQ9FUS6B1NIGTP2I989RM6EDC8BQ", "dateTime": 1515873277372}, {"current_trial": 54, "trialdata": {"rt": -1, "trial_type": "single-stim", "stimulus": "<p id=\"stim\">+</p>", "internal_node_id": "0.0-36.0-0.0", "time_elapsed": 391596, "key_press": -1, "type": "FIXATION", "trial_index": 54}, "uniqueid": "MTK1399:3WQQ9FUS6B1NIGTP2I989RM6EDC8BQ", "dateTime": 1515873278890}, {"current_trial": 55, "trialdata": {"rt": -1, "trial_type": "single-stim", "word": "picture", "stimulus": "<p id=\"stim\">PICTURE</p>", "conditions": [18, 1200, "v", 18000], "internal_node_id": "0.0-37.0", "trial": 1, "time_elapsed": 392811, "serialpos": 0, "key_press": -1, "wordID": 1060, "type": "PRES_VIS", "trial_index": 55}, "uniqueid": "MTK1399:3WQQ9FUS6B1NIGTP2I989RM6EDC8BQ", "dateTime": 1515873280106}, {"current_trial": 56, "trialdata": {"rt": -1, "trial_type": "single-stim", "word": "farmer", "stimulus": "<p id=\"stim\">FARMER</p>", "conditions": [18, 1200, "v", 18000], "internal_node_id": "0.0-38.0", "trial": 1, "time_elapsed": 394985, "serialpos": 1, "key_press": -1, "wordID": 552, "type": "PRES_VIS", "trial_index": 56}, "uniqueid": "MTK1399:3WQQ9FUS6B1NIGTP2I989RM6EDC8BQ", "dateTime": 1515873282280}, {"current_trial": 57, "trialdata": {"rt": -1, "trial_type": "single-stim", "word": "hedge", "stimulus": "<p id=\"stim\">HEDGE</p>", "conditions": [18, 1200, "v", 18000], "internal_node_id": "0.0-39.0", "trial": 1, "time_elapsed": 397232, "serialpos": 2, "key_press": -1, "wordID": 698, "type": "PRES_VIS", "trial_index": 57}, "uniqueid": "MTK1399:3WQQ9FUS6B1NIGTP2I989RM6EDC8BQ", "dateTime": 1515873284527}, {"current_trial": 58, "trialdata": {"rt": -1, "trial_type": "single-stim", "word": "onion", "stimulus": "<p id=\"stim\">ONION</p>", "conditions": [18, 1200, "v", 18000], "internal_node_id": "0.0-40.0", "trial": 1, "time_elapsed": 399573, "serialpos": 3, "key_press": -1, "wordID": 976, "type": "PRES_VIS", "trial_index": 58}, "uniqueid": "MTK1399:3WQQ9FUS6B1NIGTP2I989RM6EDC8BQ", "dateTime": 1515873286867}, {"current_trial": 59, "trialdata": {"rt": -1, "trial_type": "single-stim", "word": "atlas", "stimulus": "<p id=\"stim\">ATLAS</p>", "conditions": [18, 1200, "v", 18000], "internal_node_id": "0.0-41.0", "trial": 1, "time_elapsed": 401829, "serialpos": 4, "key_press": -1, "wordID": 52, "type": "PRES_VIS", "trial_index": 59}, "uniqueid": "MTK1399:3WQQ9FUS6B1NIGTP2I989RM6EDC8BQ", "dateTime": 1515873289123}, {"current_trial": 60, "trialdata": {"rt": -1, "trial_type": "single-stim", "word": "dandruff", "stimulus": "<p id=\"stim\">DANDRUFF</p>", "conditions": [18, 1200, "v", 18000], "internal_node_id": "0.0-42.0", "trial": 1, "time_elapsed": 403966, "serialpos": 5, "key_press": -1, "wordID": 438, "type": "PRES_VIS", "trial_index": 60}, "uniqueid": "MTK1399:3WQQ9FUS6B1NIGTP2I989RM6EDC8BQ", "dateTime": 1515873291260}, {"current_trial": 61, "trialdata": {"rt": -1, "trial_type": "single-stim", "word": "baby", "stimulus": "<p id=\"stim\">BABY</p>", "conditions": [18, 1200, "v", 18000], "internal_node_id": "0.0-43.0", "trial": 1, "time_elapsed": 406015, "serialpos": 6, "key_press": -1, "wordID": 63, "type": "PRES_VIS", "trial_index": 61}, "uniqueid": "MTK1399:3WQQ9FUS6B1NIGTP2I989RM6EDC8BQ", "dateTime": 1515873293309}, {"current_trial": 62, "trialdata": {"rt": -1, "trial_type": "single-stim", "word": "beaver", "stimulus": "<p id=\"stim\">BEAVER</p>", "conditions": [18, 1200, "v", 18000], "internal_node_id": "0.0-44.0", "trial": 1, "time_elapsed": 408235, "serialpos": 7, "key_press": -1, "wordID": 108, "type": "PRES_VIS", "trial_index": 62}, "uniqueid": "MTK1399:3WQQ9FUS6B1NIGTP2I989RM6EDC8BQ", "dateTime": 1515873295529}, {"current_trial": 63, "trialdata": {"rt": -1, "trial_type": "single-stim", "word": "flesh", "stimulus": "<p id=\"stim\">FLESH</p>", "conditions": [18, 1200, "v", 18000], "internal_node_id": "0.0-45.0", "trial": 1, "time_elapsed": 410383, "serialpos": 8, "key_press": -1, "wordID": 578, "type": "PRES_VIS", "trial_index": 63}, "uniqueid": "MTK1399:3WQQ9FUS6B1NIGTP2I989RM6EDC8BQ", "dateTime": 1515873297677}, {"current_trial": 64, "trialdata": {"rt": -1, "trial_type": "single-stim", "word": "raft", "stimulus": "<p id=\"stim\">RAFT</p>", "conditions": [18, 1200, "v", 18000], "internal_node_id": "0.0-46.0", "trial": 1, "time_elapsed": 412499, "serialpos": 9, "key_press": -1, "wordID": 1158, "type": "PRES_VIS", "trial_index": 64}, "uniqueid": "MTK1399:3WQQ9FUS6B1NIGTP2I989RM6EDC8BQ", "dateTime": 1515873299794}, {"current_trial": 65, "trialdata": {"rt": -1, "trial_type": "single-stim", "word": "lava", "stimulus": "<p id=\"stim\">LAVA</p>", "conditions": [18, 1200, "v", 18000], "internal_node_id": "0.0-47.0", "trial": 1, "time_elapsed": 414826, "serialpos": 10, "key_press": -1, "wordID": 803, "type": "PRES_VIS", "trial_index": 65}, "uniqueid": "MTK1399:3WQQ9FUS6B1NIGTP2I989RM6EDC8BQ", "dateTime": 1515873302120}, {"current_trial": 66, "trialdata": {"rt": -1, "trial_type": "single-stim", "word": "hawk", "stimulus": "<p id=\"stim\">HAWK</p>", "conditions": [18, 1200, "v", 18000], "internal_node_id": "0.0-48.0", "trial": 1, "time_elapsed": 417045, "serialpos": 11, "key_press": -1, "wordID": 691, "type": "PRES_VIS", "trial_index": 66}, "uniqueid": "MTK1399:3WQQ9FUS6B1NIGTP2I989RM6EDC8BQ", "dateTime": 1515873304340}, {"current_trial": 67, "trialdata": {"rt": -1, "trial_type": "single-stim", "word": "bouquet", "stimulus": "<p id=\"stim\">BOUQUET</p>", "conditions": [18, 1200, "v", 18000], "internal_node_id": "0.0-49.0", "trial": 1, "time_elapsed": 419235, "serialpos": 12, "key_press": -1, "wordID": 156, "type": "PRES_VIS", "trial_index": 67}, "uniqueid": "MTK1399:3WQQ9FUS6B1NIGTP2I989RM6EDC8BQ", "dateTime": 1515873306530}, {"current_trial": 68, "trialdata": {"rt": -1, "trial_type": "single-stim", "word": "penguin", "stimulus": "<p id=\"stim\">PENGUIN</p>", "conditions": [18, 1200, "v", 18000], "internal_node_id": "0.0-50.0", "trial": 1, "time_elapsed": 421454, "serialpos": 13, "key_press": -1, "wordID": 1043, "type": "PRES_VIS", "trial_index": 68}, "uniqueid": "MTK1399:3WQQ9FUS6B1NIGTP2I989RM6EDC8BQ", "dateTime": 1515873308749}, {"current_trial": 69, "trialdata": {"rt": -1, "trial_type": "single-stim", "word": "lizard", "stimulus": "<p id=\"stim\">LIZARD</p>", "conditions": [18, 1200, "v", 18000], "internal_node_id": "0.0-51.0", "trial": 1, "time_elapsed": 423532, "serialpos": 14, "key_press": -1, "wordID": 833, "type": "PRES_VIS", "trial_index": 69}, "uniqueid": "MTK1399:3WQQ9FUS6B1NIGTP2I989RM6EDC8BQ", "dateTime": 1515873310826}, {"current_trial": 70, "trialdata": {"rt": -1, "trial_type": "single-stim", "word": "poet", "stimulus": "<p id=\"stim\">POET</p>", "conditions": [18, 1200, "v", 18000], "internal_node_id": "0.0-52.0", "trial": 1, "time_elapsed": 425752, "serialpos": 15, "key_press": -1, "wordID": 1094, "type": "PRES_VIS", "trial_index": 70}, "uniqueid": "MTK1399:3WQQ9FUS6B1NIGTP2I989RM6EDC8BQ", "dateTime": 1515873313046}, {"current_trial": 71, "trialdata": {"rt": -1, "trial_type": "single-stim", "word": "barley", "stimulus": "<p id=\"stim\">BARLEY</p>", "conditions": [18, 1200, "v", 18000], "internal_node_id": "0.0-53.0", "trial": 1, "time_elapsed": 427934, "serialpos": 16, "key_press": -1, "wordID": 87, "type": "PRES_VIS", "trial_index": 71}, "uniqueid": "MTK1399:3WQQ9FUS6B1NIGTP2I989RM6EDC8BQ", "dateTime": 1515873315228}, {"current_trial": 72, "trialdata": {"rt": -1, "trial_type": "single-stim", "word": "tourist", "stimulus": "<p id=\"stim\">TOURIST</p>", "conditions": [18, 1200, "v", 18000], "internal_node_id": "0.0-54.0", "trial": 1, "time_elapsed": 430179, "serialpos": 17, "key_press": -1, "wordID": 1487, "type": "PRES_VIS", "trial_index": 72}, "uniqueid": "MTK1399:3WQQ9FUS6B1NIGTP2I989RM6EDC8BQ", "dateTime": 1515873317473}, {"current_trial": 73, "trialdata": {"rt": -1, "trial_type": "single-stim", "stimulus": "", "internal_node_id": "0.0-55.0-0.0", "time_elapsed": 432646, "key_press": -1, "type": "PRE_RECALL_DELAY", "trial_index": 73}, "uniqueid": "MTK1399:3WQQ9FUS6B1NIGTP2I989RM6EDC8BQ", "dateTime": 1515873319940}, {"current_trial": 74, "trialdata": {"rt": -1000, "trial_type": "single-audio", "stimulus": "/static/audio/400Hz.wav", "internal_node_id": "0.0-56.0", "time_elapsed": 433148, "key_press": -1, "type": "PRE_RECALL_ALERT", "trial_index": 74}, "uniqueid": "MTK1399:3WQQ9FUS6B1NIGTP2I989RM6EDC8BQ", "dateTime": 1515873320442}, {"current_trial": 75, "trialdata": {"rt": [3404, 5252, 8456, 9610, 20198], "recwords": ["tourist", "barley", "banquet", "atlas", "floral"], "key_times": [1995, 2185, 2313, 2399, 2578, 2697, 2917, 3404, 4262, 4522, 4690, 4841, 4953, 5140, 5252, 6293, 6626, 6778, 7141, 7341, 7498, 7641, 8456, 8897, 9089, 9215, 9338, 9449, 9610, 19537, 19638, 19694, 19777, 19895, 20013, 20198], "trial_type": "free-recall", "conditions": [18, 1200, "v", 18000], "internal_node_id": "0.0-57.0-0.0", "key_presses": [84, 79, 85, 82, 73, 83, 84, 13, 66, 65, 82, 76, 69, 89, 13, 66, 65, 78, 81, 85, 69, 84, 13, 65, 84, 76, 65, 83, 13, 70, 76, 79, 82, 65, 76, 13], "trial": 1, "time_elapsed": 493181, "type": "FREE_RECALL", "trial_index": 75}, "uniqueid": "MTK1399:3WQQ9FUS6B1NIGTP2I989RM6EDC8BQ", "dateTime": 1515873380478}, {"current_trial": 76, "trialdata": {"rt": 6378, "trial_type": "text", "internal_node_id": "0.0-58.0", "time_elapsed": 501578, "key_press": 13, "type": "INSTRUCTIONS", "trial_index": 76}, "uniqueid": "MTK1399:3WQQ9FUS6B1NIGTP2I989RM6EDC8BQ", "dateTime": 1515873388872}, {"current_trial": 77, "trialdata": {"rt": [3333, 6507, 8714, 11049], "trial_type": "math-distractor", "key_times": [2223, 2756, 3333, 5685, 5851, 6507, 8035, 8483, 8714, 10730, 10903, 11049], "responses": ["11", "22", "17", "11"], "num2": [1, 8, 3, 4, 4], "num3": [3, 5, 5, 5, 1], "conditions": [12, 800, "v", 12000], "internal_node_id": "0.0-59.0", "key_presses": [49, 49, 13, 50, 50, 13, 49, 55, 13, 49, 49, 13], "trial": 2, "time_elapsed": 514588, "type": "DISTRACTOR", "trial_index": 77, "num1": [7, 9, 9, 2, 5]}, "uniqueid": "MTK1399:3WQQ9FUS6B1NIGTP2I989RM6EDC8BQ", "dateTime": 1515873401883}, {"current_trial": 78, "trialdata": {"rt": -1, "trial_type": "single-stim", "stimulus": "<p id=\"stim\">10</p>", "internal_node_id": "0.0-60.0-0.0", "time_elapsed": 517599, "key_press": -1, "trial_index": 78}, "uniqueid": "MTK1399:3WQQ9FUS6B1NIGTP2I989RM6EDC8BQ", "dateTime": 1515873404894}, {"current_trial": 79, "trialdata": {"rt": -1, "trial_type": "single-stim", "stimulus": "<p id=\"stim\">9</p>", "internal_node_id": "0.0-60.0-1.0", "time_elapsed": 518600, "key_press": -1, "trial_index": 79}, "uniqueid": "MTK1399:3WQQ9FUS6B1NIGTP2I989RM6EDC8BQ", "dateTime": 1515873405895}, {"current_trial": 80, "trialdata": {"rt": -1, "trial_type": "single-stim", "stimulus": "<p id=\"stim\">8</p>", "internal_node_id": "0.0-60.0-2.0", "time_elapsed": 519601, "key_press": -1, "trial_index": 80}, "uniqueid": "MTK1399:3WQQ9FUS6B1NIGTP2I989RM6EDC8BQ", "dateTime": 1515873406895}, {"current_trial": 81, "trialdata": {"rt": -1, "trial_type": "single-stim", "stimulus": "<p id=\"stim\">7</p>", "internal_node_id": "0.0-60.0-3.0", "time_elapsed": 520614, "key_press": -1, "trial_index": 81}, "uniqueid": "MTK1399:3WQQ9FUS6B1NIGTP2I989RM6EDC8BQ", "dateTime": 1515873407908}, {"current_trial": 82, "trialdata": {"rt": -1, "trial_type": "single-stim", "stimulus": "<p id=\"stim\">6</p>", "internal_node_id": "0.0-60.0-4.0", "time_elapsed": 521615, "key_press": -1, "trial_index": 82}, "uniqueid": "MTK1399:3WQQ9FUS6B1NIGTP2I989RM6EDC8BQ", "dateTime": 1515873408909}, {"current_trial": 83, "trialdata": {"rt": -1, "trial_type": "single-stim", "stimulus": "<p id=\"stim\">5</p>", "internal_node_id": "0.0-60.0-5.0", "time_elapsed": 522615, "key_press": -1, "trial_index": 83}, "uniqueid": "MTK1399:3WQQ9FUS6B1NIGTP2I989RM6EDC8BQ", "dateTime": 1515873409909}, {"current_trial": 84, "trialdata": {"rt": -1, "trial_type": "single-stim", "stimulus": "<p id=\"stim\">4</p>", "internal_node_id": "0.0-60.0-6.0", "time_elapsed": 523603, "key_press": -1, "trial_index": 84}, "uniqueid": "MTK1399:3WQQ9FUS6B1NIGTP2I989RM6EDC8BQ", "dateTime": 1515873410897}, {"current_trial": 85, "trialdata": {"rt": -1, "trial_type": "single-stim", "stimulus": "<p id=\"stim\">3</p>", "internal_node_id": "0.0-60.0-7.0", "time_elapsed": 524605, "key_press": -1, "trial_index": 85}, "uniqueid": "MTK1399:3WQQ9FUS6B1NIGTP2I989RM6EDC8BQ", "dateTime": 1515873411900}, {"current_trial": 86, "trialdata": {"rt": -1, "trial_type": "single-stim", "stimulus": "<p id=\"stim\">2</p>", "internal_node_id": "0.0-60.0-8.0", "time_elapsed": 525609, "key_press": -1, "trial_index": 86}, "uniqueid": "MTK1399:3WQQ9FUS6B1NIGTP2I989RM6EDC8BQ", "dateTime": 1515873412903}, {"current_trial": 87, "trialdata": {"rt": -1, "trial_type": "single-stim", "stimulus": "<p id=\"stim\">1</p>", "internal_node_id": "0.0-60.0-9.0", "time_elapsed": 526601, "key_press": -1, "trial_index": 87}, "uniqueid": "MTK1399:3WQQ9FUS6B1NIGTP2I989RM6EDC8BQ", "dateTime": 1515873413895}, {"current_trial": 88, "trialdata": {"rt": -1, "trial_type": "single-stim", "stimulus": "<p id=\"stim\">+</p>", "internal_node_id": "0.0-61.0-0.0", "time_elapsed": 528114, "key_press": -1, "type": "FIXATION", "trial_index": 88}, "uniqueid": "MTK1399:3WQQ9FUS6B1NIGTP2I989RM6EDC8BQ", "dateTime": 1515873415409}, {"current_trial": 89, "trialdata": {"rt": -1, "trial_type": "single-stim", "word": "wrist", "stimulus": "<p id=\"stim\">WRIST</p>", "conditions": [12, 800, "v", 12000], "internal_node_id": "0.0-62.0", "trial": 2, "time_elapsed": 528929, "serialpos": 0, "key_press": -1, "wordID": 1625, "type": "PRES_VIS", "trial_index": 89}, "uniqueid": "MTK1399:3WQQ9FUS6B1NIGTP2I989RM6EDC8BQ", "dateTime": 1515873416224}, {"current_trial": 90, "trialdata": {"rt": -1, "trial_type": "single-stim", "word": "boyfriend", "stimulus": "<p id=\"stim\">BOYFRIEND</p>", "conditions": [12, 800, "v", 12000], "internal_node_id": "0.0-63.0", "trial": 2, "time_elapsed": 530836, "serialpos": 1, "key_press": -1, "wordID": 161, "type": "PRES_VIS", "trial_index": 90}, "uniqueid": "MTK1399:3WQQ9FUS6B1NIGTP2I989RM6EDC8BQ", "dateTime": 1515873418130}, {"current_trial": 91, "trialdata": {"rt": -1, "trial_type": "single-stim", "word": "friend", "stimulus": "<p id=\"stim\">FRIEND</p>", "conditions": [12, 800, "v", 12000], "internal_node_id": "0.0-64.0", "trial": 2, "time_elapsed": 532729, "serialpos": 2, "key_press": -1, "wordID": 605, "type": "PRES_VIS", "trial_index": 91}, "uniqueid": "MTK1399:3WQQ9FUS6B1NIGTP2I989RM6EDC8BQ", "dateTime": 1515873420023}, {"current_trial": 92, "trialdata": {"rt": -1, "trial_type": "single-stim", "word": "coin", "stimulus": "<p id=\"stim\">COIN</p>", "conditions": [12, 800, "v", 12000], "internal_node_id": "0.0-65.0", "trial": 2, "time_elapsed": 534535, "serialpos": 3, "key_press": -1, "wordID": 342, "type": "PRES_VIS", "trial_index": 92}, "uniqueid": "MTK1399:3WQQ9FUS6B1NIGTP2I989RM6EDC8BQ", "dateTime": 1515873421829}, {"current_trial": 93, "trialdata": {"rt": -1, "trial_type": "single-stim", "word": "dolphin", "stimulus": "<p id=\"stim\">DOLPHIN</p>", "conditions": [12, 800, "v", 12000], "internal_node_id": "0.0-66.0", "trial": 2, "time_elapsed": 536411, "serialpos": 4, "key_press": -1, "wordID": 482, "type": "PRES_VIS", "trial_index": 93}, "uniqueid": "MTK1399:3WQQ9FUS6B1NIGTP2I989RM6EDC8BQ", "dateTime": 1515873423706}, {"current_trial": 94, "trialdata": {"rt": -1, "trial_type": "single-stim", "word": "record", "stimulus": "<p id=\"stim\">RECORD</p>", "conditions": [12, 800, "v", 12000], "internal_node_id": "0.0-67.0", "trial": 2, "time_elapsed": 538186, "serialpos": 5, "key_press": -1, "wordID": 1175, "type": "PRES_VIS", "trial_index": 94}, "uniqueid": "MTK1399:3WQQ9FUS6B1NIGTP2I989RM6EDC8BQ", "dateTime": 1515873425480}, {"current_trial": 95, "trialdata": {"rt": -1, "trial_type": "single-stim", "word": "candy", "stimulus": "<p id=\"stim\">CANDY</p>", "conditions": [12, 800, "v", 12000], "internal_node_id": "0.0-68.0", "trial": 2, "time_elapsed": 539996, "serialpos": 6, "key_press": -1, "wordID": 229, "type": "PRES_VIS", "trial_index": 95}, "uniqueid": "MTK1399:3WQQ9FUS6B1NIGTP2I989RM6EDC8BQ", "dateTime": 1515873427290}, {"current_trial": 96, "trialdata": {"rt": -1, "trial_type": "single-stim", "word": "gazelle", "stimulus": "<p id=\"stim\">GAZELLE</p>", "conditions": [12, 800, "v", 12000], "internal_node_id": "0.0-69.0", "trial": 2, "time_elapsed": 541814, "serialpos": 7, "key_press": -1, "wordID": 627, "type": "PRES_VIS", "trial_index": 96}, "uniqueid": "MTK1399:3WQQ9FUS6B1NIGTP2I989RM6EDC8BQ", "dateTime": 1515873429109}, {"current_trial": 97, "trialdata": {"rt": -1, "trial_type": "single-stim", "word": "brandy", "stimulus": "<p id=\"stim\">BRANDY</p>", "conditions": [12, 800, "v", 12000], "internal_node_id": "0.0-70.0", "trial": 2, "time_elapsed": 543815, "serialpos": 8, "key_press": -1, "wordID": 168, "type": "PRES_VIS", "trial_index": 97}, "uniqueid": "MTK1399:3WQQ9FUS6B1NIGTP2I989RM6EDC8BQ", "dateTime": 1515873431109}, {"current_trial": 98, "trialdata": {"rt": -1, "trial_type": "single-stim", "word": "soda", "stimulus": "<p id=\"stim\">SODA</p>", "conditions": [12, 800, "v", 12000], "internal_node_id": "0.0-71.0", "trial": 2, "time_elapsed": 545481, "serialpos": 9, "key_press": -1, "wordID": 1340, "type": "PRES_VIS", "trial_index": 98}, "uniqueid": "MTK1399:3WQQ9FUS6B1NIGTP2I989RM6EDC8BQ", "dateTime": 1515873432776}, {"current_trial": 99, "trialdata": {"rt": -1, "trial_type": "single-stim", "word": "twister", "stimulus": "<p id=\"stim\">TWISTER</p>", "conditions": [12, 800, "v", 12000], "internal_node_id": "0.0-72.0", "trial": 2, "time_elapsed": 547125, "serialpos": 10, "key_press": -1, "wordID": 1529, "type": "PRES_VIS", "trial_index": 99}, "uniqueid": "MTK1399:3WQQ9FUS6B1NIGTP2I989RM6EDC8BQ", "dateTime": 1515873434419}, {"current_trial": 100, "trialdata": {"rt": -1, "trial_type": "single-stim", "word": "scalpel", "stimulus": "<p id=\"stim\">SCALPEL</p>", "conditions": [12, 800, "v", 12000], "internal_node_id": "0.0-73.0", "trial": 2, "time_elapsed": 548960, "serialpos": 11, "key_press": -1, "wordID": 1242, "type": "PRES_VIS", "trial_index": 100}, "uniqueid": "MTK1399:3WQQ9FUS6B1NIGTP2I989RM6EDC8BQ", "dateTime": 1515873436254}, {"current_trial": 101, "trialdata": {"rt": -1, "trial_type": "single-stim", "stimulus": "", "internal_node_id": "0.0-74.0-0.0", "time_elapsed": 551234, "key_press": -1, "type": "PRE_RECALL_DELAY", "trial_index": 101}, "uniqueid": "MTK1399:3WQQ9FUS6B1NIGTP2I989RM6EDC8BQ", "dateTime": 1515873438529}, {"current_trial": 102, "trialdata": {"rt": -1000, "trial_type": "single-audio", "stimulus": "/static/audio/400Hz.wav", "internal_node_id": "0.0-75.0", "time_elapsed": 551748, "key_press": -1, "type": "PRE_RECALL_ALERT", "trial_index": 102}, "uniqueid": "MTK1399:3WQQ9FUS6B1NIGTP2I989RM6EDC8BQ", "dateTime": 1515873439042}, {"current_trial": 103, "trialdata": {"rt": [3178, 5425, 8031, 10265, 19937, 28324], "recwords": ["gazelle", "scapel", "brandy", "twister", "sandal", "soda"], "key_times": [1264, 1852, 2098, 2631, 2776, 2910, 3017, 3178, 3796, 3922, 4027, 4117, 4235, 4314, 5425, 6283, 6465, 6581, 6941, 7082, 7240, 8031, 8498, 9425, 9577, 9685, 9932, 10025, 10153, 10265, 17960, 18101, 18134, 18321, 19395, 19589, 19678, 19731, 19937, 27897, 28041, 28141, 28245, 28324], "trial_type": "free-recall", "conditions": [12, 800, "v", 12000], "internal_node_id": "0.0-76.0-0.0", "key_presses": [71, 65, 90, 69, 76, 76, 69, 13, 83, 67, 65, 80, 69, 76, 13, 66, 82, 65, 78, 68, 89, 13, 84, 87, 73, 83, 84, 69, 82, 13, 83, 65, 78, 65, 8, 68, 65, 76, 13, 83, 79, 68, 65, 13], "trial": 2, "time_elapsed": 611763, "type": "FREE_RECALL", "trial_index": 103}, "uniqueid": "MTK1399:3WQQ9FUS6B1NIGTP2I989RM6EDC8BQ", "dateTime": 1515873499061}, {"current_trial": 104, "trialdata": {"rt": 1859, "trial_type": "text", "internal_node_id": "0.0-77.0", "time_elapsed": 615627, "key_press": 13, "type": "INSTRUCTIONS", "trial_index": 104}, "uniqueid": "MTK1399:3WQQ9FUS6B1NIGTP2I989RM6EDC8BQ", "dateTime": 1515873502921}, {"current_trial": 105, "trialdata": {"rt": [2872, 4672, 7022, 8518, 9873, 11696, 13680, 15391, 17112, 19334, 21541, 23197], "trial_type": "math-distractor", "key_times": [1722, 2098, 2872, 4089, 4586, 4672, 6511, 6759, 7022, 8263, 8405, 8518, 9761, 9873, 11201, 11610, 11696, 13200, 13600, 13680, 15103, 15294, 15391, 16639, 17017, 17112, 18784, 19151, 19334, 21103, 21446, 21541, 22845, 23084, 23197], "responses": ["17", "10", "14", "22", "5", "19", "18", "13", "10", "25", "17", "15"], "num2": [6, 3, 7, 8, 1, 9, 8, 6, 3, 9, 9, 7, 7], "num3": [3, 1, 4, 7, 3, 3, 9, 2, 5, 7, 6, 6, 8], "conditions": [12, 1600, "v", 24000], "internal_node_id": "0.0-78.0", "key_presses": [49, 55, 13, 49, 48, 13, 49, 52, 13, 50, 50, 13, 53, 13, 49, 57, 13, 49, 56, 13, 49, 51, 13, 49, 48, 13, 50, 53, 13, 49, 55, 13, 49, 53, 13], "trial": 3, "time_elapsed": 641649, "type": "DISTRACTOR", "trial_index": 105, "num1": [8, 6, 3, 7, 1, 7, 1, 5, 2, 9, 2, 2, 3]}, "uniqueid": "MTK1399:3WQQ9FUS6B1NIGTP2I989RM6EDC8BQ", "dateTime": 1515873528943}, {"current_trial": 106, "trialdata": {"rt": -1, "trial_type": "single-stim", "stimulus": "<p id=\"stim\">10</p>", "internal_node_id": "0.0-79.0-0.0", "time_elapsed": 644669, "key_press": -1, "trial_index": 106}, "uniqueid": "MTK1399:3WQQ9FUS6B1NIGTP2I989RM6EDC8BQ", "dateTime": 1515873531963}, {"current_trial": 107, "trialdata": {"rt": -1, "trial_type": "single-stim", "stimulus": "<p id=\"stim\">9</p>", "internal_node_id": "0.0-79.0-1.0", "time_elapsed": 645667, "key_press": -1, "trial_index": 107}, "uniqueid": "MTK1399:3WQQ9FUS6B1NIGTP2I989RM6EDC8BQ", "dateTime": 1515873532961}, {"current_trial": 108, "trialdata": {"rt": -1, "trial_type": "single-stim", "stimulus": "<p id=\"stim\">8</p>", "internal_node_id": "0.0-79.0-2.0", "time_elapsed": 646680, "key_press": -1, "trial_index": 108}, "uniqueid": "MTK1399:3WQQ9FUS6B1NIGTP2I989RM6EDC8BQ", "dateTime": 1515873533975}, {"current_trial": 109, "trialdata": {"rt": -1, "trial_type": "single-stim", "stimulus": "<p id=\"stim\">7</p>", "internal_node_id": "0.0-79.0-3.0", "time_elapsed": 647668, "key_press": -1, "trial_index": 109}, "uniqueid": "MTK1399:3WQQ9FUS6B1NIGTP2I989RM6EDC8BQ", "dateTime": 1515873534962}, {"current_trial": 110, "trialdata": {"rt": -1, "trial_type": "single-stim", "stimulus": "<p id=\"stim\">6</p>", "internal_node_id": "0.0-79.0-4.0", "time_elapsed": 648659, "key_press": -1, "trial_index": 110}, "uniqueid": "MTK1399:3WQQ9FUS6B1NIGTP2I989RM6EDC8BQ", "dateTime": 1515873535953}, {"current_trial": 111, "trialdata": {"rt": -1, "trial_type": "single-stim", "stimulus": "<p id=\"stim\">5</p>", "internal_node_id": "0.0-79.0-5.0", "time_elapsed": 649660, "key_press": -1, "trial_index": 111}, "uniqueid": "MTK1399:3WQQ9FUS6B1NIGTP2I989RM6EDC8BQ", "dateTime": 1515873536954}, {"current_trial": 112, "trialdata": {"rt": -1, "trial_type": "single-stim", "stimulus": "<p id=\"stim\">4</p>", "internal_node_id": "0.0-79.0-6.0", "time_elapsed": 650664, "key_press": -1, "trial_index": 112}, "uniqueid": "MTK1399:3WQQ9FUS6B1NIGTP2I989RM6EDC8BQ", "dateTime": 1515873537959}, {"current_trial": 113, "trialdata": {"rt": -1, "trial_type": "single-stim", "stimulus": "<p id=\"stim\">3</p>", "internal_node_id": "0.0-79.0-7.0", "time_elapsed": 651668, "key_press": -1, "trial_index": 113}, "uniqueid": "MTK1399:3WQQ9FUS6B1NIGTP2I989RM6EDC8BQ", "dateTime": 1515873538962}, {"current_trial": 114, "trialdata": {"rt": -1, "trial_type": "single-stim", "stimulus": "<p id=\"stim\">2</p>", "internal_node_id": "0.0-79.0-8.0", "time_elapsed": 652669, "key_press": -1, "trial_index": 114}, "uniqueid": "MTK1399:3WQQ9FUS6B1NIGTP2I989RM6EDC8BQ", "dateTime": 1515873539963}, {"current_trial": 115, "trialdata": {"rt": -1, "trial_type": "single-stim", "stimulus": "<p id=\"stim\">1</p>", "internal_node_id": "0.0-79.0-9.0", "time_elapsed": 653669, "key_press": -1, "trial_index": 115}, "uniqueid": "MTK1399:3WQQ9FUS6B1NIGTP2I989RM6EDC8BQ", "dateTime": 1515873540964}, {"current_trial": 116, "trialdata": {"rt": -1, "trial_type": "single-stim", "stimulus": "<p id=\"stim\">+</p>", "internal_node_id": "0.0-80.0-0.0", "time_elapsed": 655200, "key_press": -1, "type": "FIXATION", "trial_index": 116}, "uniqueid": "MTK1399:3WQQ9FUS6B1NIGTP2I989RM6EDC8BQ", "dateTime": 1515873542494}, {"current_trial": 117, "trialdata": {"rt": -1, "trial_type": "single-stim", "word": "pudding", "stimulus": "<p id=\"stim\">PUDDING</p>", "conditions": [12, 1600, "v", 24000], "internal_node_id": "0.0-81.0", "trial": 3, "time_elapsed": 656817, "serialpos": 0, "key_press": -1, "wordID": 1138, "type": "PRES_VIS", "trial_index": 117}, "uniqueid": "MTK1399:3WQQ9FUS6B1NIGTP2I989RM6EDC8BQ", "dateTime": 1515873544111}, {"current_trial": 118, "trialdata": {"rt": -1, "trial_type": "single-stim", "word": "cook", "stimulus": "<p id=\"stim\">COOK</p>", "conditions": [12, 1600, "v", 24000], "internal_node_id": "0.0-82.0", "trial": 3, "time_elapsed": 659483, "serialpos": 1, "key_press": -1, "wordID": 371, "type": "PRES_VIS", "trial_index": 118}, "uniqueid": "MTK1399:3WQQ9FUS6B1NIGTP2I989RM6EDC8BQ", "dateTime": 1515873546777}, {"current_trial": 119, "trialdata": {"rt": -1, "trial_type": "single-stim", "word": "novel", "stimulus": "<p id=\"stim\">NOVEL</p>", "conditions": [12, 1600, "v", 24000], "internal_node_id": "0.0-83.0", "trial": 3, "time_elapsed": 662117, "serialpos": 2, "key_press": -1, "wordID": 959, "type": "PRES_VIS", "trial_index": 119}, "uniqueid": "MTK1399:3WQQ9FUS6B1NIGTP2I989RM6EDC8BQ", "dateTime": 1515873549411}, {"current_trial": 120, "trialdata": {"rt": -1, "trial_type": "single-stim", "word": "stone", "stimulus": "<p id=\"stim\">STONE</p>", "conditions": [12, 1600, "v", 24000], "internal_node_id": "0.0-84.0", "trial": 3, "time_elapsed": 664633, "serialpos": 3, "key_press": -1, "wordID": 1384, "type": "PRES_VIS", "trial_index": 120}, "uniqueid": "MTK1399:3WQQ9FUS6B1NIGTP2I989RM6EDC8BQ", "dateTime": 1515873551928}, {"current_trial": 121, "trialdata": {"rt": -1, "trial_type": "single-stim", "word": "dancer", "stimulus": "<p id=\"stim\">DANCER</p>", "conditions": [12, 1600, "v", 24000], "internal_node_id": "0.0-85.0", "trial": 3, "time_elapsed": 667416, "serialpos": 4, "key_press": -1, "wordID": 436, "type": "PRES_VIS", "trial_index": 121}, "uniqueid": "MTK1399:3WQQ9FUS6B1NIGTP2I989RM6EDC8BQ", "dateTime": 1515873554711}, {"current_trial": 122, "trialdata": {"rt": -1, "trial_type": "single-stim", "word": "lapel", "stimulus": "<p id=\"stim\">LAPEL</p>", "conditions": [12, 1600, "v", 24000], "internal_node_id": "0.0-86.0", "trial": 3, "time_elapsed": 669896, "serialpos": 5, "key_press": -1, "wordID": 799, "type": "PRES_VIS", "trial_index": 122}, "uniqueid": "MTK1399:3WQQ9FUS6B1NIGTP2I989RM6EDC8BQ", "dateTime": 1515873557190}, {"current_trial": 123, "trialdata": {"rt": -1, "trial_type": "single-stim", "word": "mattress", "stimulus": "<p id=\"stim\">MATTRESS</p>", "conditions": [12, 1600, "v", 24000], "internal_node_id": "0.0-87.0", "trial": 3, "time_elapsed": 672520, "serialpos": 6, "key_press": -1, "wordID": 878, "type": "PRES_VIS", "trial_index": 123}, "uniqueid": "MTK1399:3WQQ9FUS6B1NIGTP2I989RM6EDC8BQ", "dateTime": 1515873559815}, {"current_trial": 124, "trialdata": {"rt": -1, "trial_type": "single-stim", "word": "creature", "stimulus": "<p id=\"stim\">CREATURE</p>", "conditions": [12, 1600, "v", 24000], "internal_node_id": "0.0-88.0", "trial": 3, "time_elapsed": 675278, "serialpos": 7, "key_press": -1, "wordID": 402, "type": "PRES_VIS", "trial_index": 124}, "uniqueid": "MTK1399:3WQQ9FUS6B1NIGTP2I989RM6EDC8BQ", "dateTime": 1515873562572}, {"current_trial": 125, "trialdata": {"rt": -1, "trial_type": "single-stim", "word": "dragon", "stimulus": "<p id=\"stim\">DRAGON</p>", "conditions": [12, 1600, "v", 24000], "internal_node_id": "0.0-89.0", "trial": 3, "time_elapsed": 678056, "serialpos": 8, "key_press": -1, "wordID": 491, "type": "PRES_VIS", "trial_index": 125}, "uniqueid": "MTK1399:3WQQ9FUS6B1NIGTP2I989RM6EDC8BQ", "dateTime": 1515873565351}, {"current_trial": 126, "trialdata": {"rt": -1, "trial_type": "single-stim", "word": "couch", "stimulus": "<p id=\"stim\">COUCH</p>", "conditions": [12, 1600, "v", 24000], "internal_node_id": "0.0-90.0", "trial": 3, "time_elapsed": 680692, "serialpos": 9, "key_press": -1, "wordID": 385, "type": "PRES_VIS", "trial_index": 126}, "uniqueid": "MTK1399:3WQQ9FUS6B1NIGTP2I989RM6EDC8BQ", "dateTime": 1515873567987}, {"current_trial": 127, "trialdata": {"rt": -1, "trial_type": "single-stim", "word": "lumber", "stimulus": "<p id=\"stim\">LUMBER</p>", "conditions": [12, 1600, "v", 24000], "internal_node_id": "0.0-91.0", "trial": 3, "time_elapsed": 683465, "serialpos": 10, "key_press": -1, "wordID": 847, "type": "PRES_VIS", "trial_index": 127}, "uniqueid": "MTK1399:3WQQ9FUS6B1NIGTP2I989RM6EDC8BQ", "dateTime": 1515873570759}, {"current_trial": 128, "trialdata": {"rt": -1, "trial_type": "single-stim", "word": "kleenex", "stimulus": "<p id=\"stim\">KLEENEX</p>", "conditions": [12, 1600, "v", 24000], "internal_node_id": "0.0-92.0", "trial": 3, "time_elapsed": 686177, "serialpos": 11, "key_press": -1, "wordID": 781, "type": "PRES_VIS", "trial_index": 128}, "uniqueid": "MTK1399:3WQQ9FUS6B1NIGTP2I989RM6EDC8BQ", "dateTime": 1515873573471}, {"current_trial": 129, "trialdata": {"rt": -1, "trial_type": "single-stim", "stimulus": "", "internal_node_id": "0.0-93.0-0.0", "time_elapsed": 688617, "key_press": -1, "type": "PRE_RECALL_DELAY", "trial_index": 129}, "uniqueid": "MTK1399:3WQQ9FUS6B1NIGTP2I989RM6EDC8BQ", "dateTime": 1515873575911}, {"current_trial": 130, "trialdata": {"rt": -1000, "trial_type": "single-audio", "stimulus": "/static/audio/400Hz.wav", "internal_node_id": "0.0-94.0", "time_elapsed": 689134, "key_press": -1, "type": "PRE_RECALL_ALERT", "trial_index": 130}, "uniqueid": "MTK1399:3WQQ9FUS6B1NIGTP2I989RM6EDC8BQ", "dateTime": 1515873576428}, {"current_trial": 131, "trialdata": {"rt": [2794, 4548, 6475, 8881, 10832], "recwords": ["pudding", "mattress", "lumber", "kleenex", "scapel"], "key_times": [1105, 1988, 2136, 2280, 2398, 2476, 2609, 2794, 3308, 3416, 3647, 3789, 3986, 4041, 4253, 4402, 4548, 5360, 5621, 5811, 6016, 6205, 6317, 6475, 7383, 7431, 7706, 7847, 7998, 8099, 8767, 8881, 9938, 9994, 10325, 10477, 10570, 10649, 10832], "trial_type": "free-recall", "conditions": [12, 1600, "v", 24000], "internal_node_id": "0.0-95.0-0.0", "key_presses": [80, 85, 68, 68, 73, 78, 71, 13, 77, 65, 84, 84, 82, 69, 83, 83, 13, 76, 85, 77, 66, 69, 82, 13, 75, 76, 69, 69, 78, 69, 88, 13, 83, 67, 65, 80, 69, 76, 13], "trial": 3, "time_elapsed": 749154, "type": "FREE_RECALL", "trial_index": 131}, "uniqueid": "MTK1399:3WQQ9FUS6B1NIGTP2I989RM6EDC8BQ", "dateTime": 1515873636451}, {"current_trial": 132, "trialdata": {"rt": 1914, "trial_type": "text", "internal_node_id": "0.0-96.0", "time_elapsed": 753081, "key_press": 32, "type": "INSTRUCTIONS", "trial_index": 132}, "uniqueid": "MTK1399:3WQQ9FUS6B1NIGTP2I989RM6EDC8BQ", "dateTime": 1515873640376}, {"current_trial": 133, "trialdata": {"rt": [4010, 5746, 7689, 9345, 11192, 12395, 14155, 16248, 17929, 20088, 22160, 23910], "trial_type": "math-distractor", "key_times": [1470, 3914, 4010, 5466, 5577, 5746, 7489, 7585, 7689, 9139, 9345, 10976, 11118, 11192, 12290, 12395, 13691, 13833, 14155, 15506, 15980, 16097, 16248, 17826, 17929, 20002, 20009, 20088, 21697, 22056, 22160, 23599, 23830, 23910], "responses": ["14", "21", "12", "8", "11", "4", "11", "9", "9", "87", "16", "15"], "num2": [2, 8, 7, 3, 4, 1, 8, 2, 3, 1, 8, 9, 4], "num3": [7, 4, 4, 2, 3, 2, 2, 6, 5, 4, 2, 2, 3], "conditions": [12, 800, "v", 24000], "internal_node_id": "0.0-97.0", "key_presses": [49, 52, 13, 50, 49, 13, 49, 50, 13, 56, 13, 49, 49, 13, 52, 13, 49, 49, 13, 49, 8, 57, 13, 57, 13, 56, 55, 13, 49, 54, 13, 49, 53, 13], "trial": 4, "time_elapsed": 779103, "type": "DISTRACTOR", "trial_index": 133, "num1": [5, 9, 1, 3, 4, 1, 1, 1, 1, 3, 6, 4, 6]}, "uniqueid": "MTK1399:3WQQ9FUS6B1NIGTP2I989RM6EDC8BQ", "dateTime": 1515873666398}, {"current_trial": 134, "trialdata": {"rt": -1, "trial_type": "single-stim", "stimulus": "<p id=\"stim\">10</p>", "internal_node_id": "0.0-98.0-0.0", "time_elapsed": 782122, "key_press": -1, "trial_index": 134}, "uniqueid": "MTK1399:3WQQ9FUS6B1NIGTP2I989RM6EDC8BQ", "dateTime": 1515873669417}, {"current_trial": 135, "trialdata": {"rt": -1, "trial_type": "single-stim", "stimulus": "<p id=\"stim\">9</p>", "internal_node_id": "0.0-98.0-1.0", "time_elapsed": 783127, "key_press": -1, "trial_index": 135}, "uniqueid": "MTK1399:3WQQ9FUS6B1NIGTP2I989RM6EDC8BQ", "dateTime": 1515873670421}, {"current_trial": 136, "trialdata": {"rt": -1, "trial_type": "single-stim", "stimulus": "<p id=\"stim\">8</p>", "internal_node_id": "0.0-98.0-2.0", "time_elapsed": 784127, "key_press": -1, "trial_index": 136}, "uniqueid": "MTK1399:3WQQ9FUS6B1NIGTP2I989RM6EDC8BQ", "dateTime": 1515873671421}, {"current_trial": 137, "trialdata": {"rt": -1, "trial_type": "single-stim", "stimulus": "<p id=\"stim\">7</p>", "internal_node_id": "0.0-98.0-3.0", "time_elapsed": 785115, "key_press": -1, "trial_index": 137}, "uniqueid": "MTK1399:3WQQ9FUS6B1NIGTP2I989RM6EDC8BQ", "dateTime": 1515873672409}, {"current_trial": 138, "trialdata": {"rt": -1, "trial_type": "single-stim", "stimulus": "<p id=\"stim\">6</p>", "internal_node_id": "0.0-98.0-4.0", "time_elapsed": 786119, "key_press": -1, "trial_index": 138}, "uniqueid": "MTK1399:3WQQ9FUS6B1NIGTP2I989RM6EDC8BQ", "dateTime": 1515873673413}, {"current_trial": 139, "trialdata": {"rt": -1, "trial_type": "single-stim", "stimulus": "<p id=\"stim\">5</p>", "internal_node_id": "0.0-98.0-5.0", "time_elapsed": 787121, "key_press": -1, "trial_index": 139}, "uniqueid": "MTK1399:3WQQ9FUS6B1NIGTP2I989RM6EDC8BQ", "dateTime": 1515873674415}, {"current_trial": 140, "trialdata": {"rt": -1, "trial_type": "single-stim", "stimulus": "<p id=\"stim\">4</p>", "internal_node_id": "0.0-98.0-6.0", "time_elapsed": 788122, "key_press": -1, "trial_index": 140}, "uniqueid": "MTK1399:3WQQ9FUS6B1NIGTP2I989RM6EDC8BQ", "dateTime": 1515873675417}, {"current_trial": 141, "trialdata": {"rt": -1, "trial_type": "single-stim", "stimulus": "<p id=\"stim\">3</p>", "internal_node_id": "0.0-98.0-7.0", "time_elapsed": 789135, "key_press": -1, "trial_index": 141}, "uniqueid": "MTK1399:3WQQ9FUS6B1NIGTP2I989RM6EDC8BQ", "dateTime": 1515873676430}, {"current_trial": 142, "trialdata": {"rt": -1, "trial_type": "single-stim", "stimulus": "<p id=\"stim\">2</p>", "internal_node_id": "0.0-98.0-8.0", "time_elapsed": 790149, "key_press": -1, "trial_index": 142}, "uniqueid": "MTK1399:3WQQ9FUS6B1NIGTP2I989RM6EDC8BQ", "dateTime": 1515873677443}, {"current_trial": 143, "trialdata": {"rt": -1, "trial_type": "single-stim", "stimulus": "<p id=\"stim\">1</p>", "internal_node_id": "0.0-98.0-9.0", "time_elapsed": 791122, "key_press": -1, "trial_index": 143}, "uniqueid": "MTK1399:3WQQ9FUS6B1NIGTP2I989RM6EDC8BQ", "dateTime": 1515873678416}, {"current_trial": 144, "trialdata": {"rt": -1, "trial_type": "single-stim", "stimulus": "<p id=\"stim\">+</p>", "internal_node_id": "0.0-99.0-0.0", "time_elapsed": 792630, "key_press": -1, "type": "FIXATION", "trial_index": 144}, "uniqueid": "MTK1399:3WQQ9FUS6B1NIGTP2I989RM6EDC8BQ", "dateTime": 1515873679925}, {"current_trial": 145, "trialdata": {"rt": -1, "trial_type": "single-stim", "word": "dresser", "stimulus": "<p id=\"stim\">DRESSER</p>", "conditions": [12, 800, "v", 24000], "internal_node_id": "0.0-100.0", "trial": 4, "time_elapsed": 793444, "serialpos": 0, "key_press": -1, "wordID": 495, "type": "PRES_VIS", "trial_index": 145}, "uniqueid": "MTK1399:3WQQ9FUS6B1NIGTP2I989RM6EDC8BQ", "dateTime": 1515873680738}, {"current_trial": 146, "trialdata": {"rt": -1, "trial_type": "single-stim", "word": "toaster", "stimulus": "<p id=\"stim\">TOASTER</p>", "conditions": [12, 800, "v", 24000], "internal_node_id": "0.0-101.0", "trial": 4, "time_elapsed": 795182, "serialpos": 1, "key_press": -1, "wordID": 1471, "type": "PRES_VIS", "trial_index": 146}, "uniqueid": "MTK1399:3WQQ9FUS6B1NIGTP2I989RM6EDC8BQ", "dateTime": 1515873682477}, {"current_trial": 147, "trialdata": {"rt": -1, "trial_type": "single-stim", "word": "ointment", "stimulus": "<p id=\"stim\">OINTMENT</p>", "conditions": [12, 800, "v", 24000], "internal_node_id": "0.0-102.0", "trial": 4, "time_elapsed": 797192, "serialpos": 2, "key_press": -1, "wordID": 973, "type": "PRES_VIS", "trial_index": 147}, "uniqueid": "MTK1399:3WQQ9FUS6B1NIGTP2I989RM6EDC8BQ", "dateTime": 1515873684486}, {"current_trial": 148, "trialdata": {"rt": -1, "trial_type": "single-stim", "word": "clothes", "stimulus": "<p id=\"stim\">CLOTHES</p>", "conditions": [12, 800, "v", 24000], "internal_node_id": "0.0-103.0", "trial": 4, "time_elapsed": 799099, "serialpos": 3, "key_press": -1, "wordID": 326, "type": "PRES_VIS", "trial_index": 148}, "uniqueid": "MTK1399:3WQQ9FUS6B1NIGTP2I989RM6EDC8BQ", "dateTime": 1515873686394}, {"current_trial": 149, "trialdata": {"rt": -1, "trial_type": "single-stim", "word": "hornet", "stimulus": "<p id=\"stim\">HORNET</p>", "conditions": [12, 800, "v", 24000], "internal_node_id": "0.0-104.0", "trial": 4, "time_elapsed": 801096, "serialpos": 4, "key_press": -1, "wordID": 717, "type": "PRES_VIS", "trial_index": 149}, "uniqueid": "MTK1399:3WQQ9FUS6B1NIGTP2I989RM6EDC8BQ", "dateTime": 1515873688390}, {"current_trial": 150, "trialdata": {"rt": -1, "trial_type": "single-stim", "word": "scissors", "stimulus": "<p id=\"stim\">SCISSORS</p>", "conditions": [12, 800, "v", 24000], "internal_node_id": "0.0-105.0", "trial": 4, "time_elapsed": 803058, "serialpos": 5, "key_press": -1, "wordID": 1249, "type": "PRES_VIS", "trial_index": 150}, "uniqueid": "MTK1399:3WQQ9FUS6B1NIGTP2I989RM6EDC8BQ", "dateTime": 1515873690352}, {"current_trial": 151, "trialdata": {"rt": -1, "trial_type": "single-stim", "word": "tweezers", "stimulus": "<p id=\"stim\">TWEEZERS</p>", "conditions": [12, 800, "v", 24000], "internal_node_id": "0.0-106.0", "trial": 4, "time_elapsed": 804915, "serialpos": 6, "key_press": -1, "wordID": 1525, "type": "PRES_VIS", "trial_index": 151}, "uniqueid": "MTK1399:3WQQ9FUS6B1NIGTP2I989RM6EDC8BQ", "dateTime": 1515873692209}, {"current_trial": 152, "trialdata": {"rt": -1, "trial_type": "single-stim", "word": "missile", "stimulus": "<p id=\"stim\">MISSILE</p>", "conditions": [12, 800, "v", 24000], "internal_node_id": "0.0-107.0", "trial": 4, "time_elapsed": 806551, "serialpos": 7, "key_press": -1, "wordID": 899, "type": "PRES_VIS", "trial_index": 152}, "uniqueid": "MTK1399:3WQQ9FUS6B1NIGTP2I989RM6EDC8BQ", "dateTime": 1515873693845}, {"current_trial": 153, "trialdata": {"rt": -1, "trial_type": "single-stim", "word": "palace", "stimulus": "<p id=\"stim\">PALACE</p>", "conditions": [12, 800, "v", 24000], "internal_node_id": "0.0-108.0", "trial": 4, "time_elapsed": 808341, "serialpos": 8, "key_press": -1, "wordID": 1005, "type": "PRES_VIS", "trial_index": 153}, "uniqueid": "MTK1399:3WQQ9FUS6B1NIGTP2I989RM6EDC8BQ", "dateTime": 1515873695636}, {"current_trial": 154, "trialdata": {"rt": -1, "trial_type": "single-stim", "word": "victim", "stimulus": "<p id=\"stim\">VICTIM</p>", "conditions": [12, 800, "v", 24000], "internal_node_id": "0.0-109.0", "trial": 4, "time_elapsed": 810216, "serialpos": 9, "key_press": -1, "wordID": 1561, "type": "PRES_VIS", "trial_index": 154}, "uniqueid": "MTK1399:3WQQ9FUS6B1NIGTP2I989RM6EDC8BQ", "dateTime": 1515873697511}, {"current_trial": 155, "trialdata": {"rt": -1, "trial_type": "single-stim", "word": "scarf", "stimulus": "<p id=\"stim\">SCARF</p>", "conditions": [12, 800, "v", 24000], "internal_node_id": "0.0-110.0", "trial": 4, "time_elapsed": 811994, "serialpos": 10, "key_press": -1, "wordID": 1245, "type": "PRES_VIS", "trial_index": 155}, "uniqueid": "MTK1399:3WQQ9FUS6B1NIGTP2I989RM6EDC8BQ", "dateTime": 1515873699288}, {"current_trial": 156, "trialdata": {"rt": -1, "trial_type": "single-stim", "word": "nightgown", "stimulus": "<p id=\"stim\">NIGHTGOWN</p>", "conditions": [12, 800, "v", 24000], "internal_node_id": "0.0-111.0", "trial": 4, "time_elapsed": 813898, "serialpos": 11, "key_press": -1, "wordID": 952, "type": "PRES_VIS", "trial_index": 156}, "uniqueid": "MTK1399:3WQQ9FUS6B1NIGTP2I989RM6EDC8BQ", "dateTime": 1515873701192}, {"current_trial": 157, "trialdata": {"rt": -1, "trial_type": "single-stim", "stimulus": "", "internal_node_id": "0.0-112.0-0.0", "time_elapsed": 816152, "key_press": -1, "type": "PRE_RECALL_DELAY", "trial_index": 157}, "uniqueid": "MTK1399:3WQQ9FUS6B1NIGTP2I989RM6EDC8BQ", "dateTime": 1515873703447}, {"current_trial": 158, "trialdata": {"rt": -1000, "trial_type": "single-audio", "stimulus": "/static/audio/400Hz.wav", "internal_node_id": "0.0-113.0", "time_elapsed": 816654, "key_press": -1, "type": "PRE_RECALL_ALERT", "trial_index": 158}, "uniqueid": "MTK1399:3WQQ9FUS6B1NIGTP2I989RM6EDC8BQ", "dateTime": 1515873703948}, {"current_trial": 159, "trialdata": {"rt": [4678, 6238, 7441, 9223, 14330, 20231], "recwords": ["nightgown", "palace", "scarf", "scissor", "mentor", "hotel"], "key_times": [1147, 1362, 1489, 1581, 1746, 2422, 2566, 2893, 3035, 3191, 3445, 3580, 3967, 4678, 5156, 5270, 5407, 5521, 5730, 6070, 6238, 6737, 6840, 6964, 7107, 7329, 7441, 7588, 7762, 8560, 8692, 8850, 8928, 9087, 9223, 12527, 12660, 13066, 13159, 13813, 13978, 14330, 16340, 16538, 16670, 16861, 16938, 17247, 17623, 17852, 17984, 18927, 19070, 19236, 19394, 19567, 19714, 19771, 19959, 20231], "trial_type": "free-recall", "conditions": [12, 800, "v", 24000], "internal_node_id": "0.0-114.0-0.0", "key_presses": [78, 73, 71, 72, 84, 68, 79, 8, 8, 71, 79, 87, 78, 13, 80, 65, 76, 65, 67, 69, 13, 83, 67, 65, 82, 70, 13, 83, 67, 73, 83, 83, 79, 82, 13, 77, 69, 78, 84, 79, 82, 13, 72, 79, 83, 84, 73, 69, 8, 76, 69, 8, 8, 8, 8, 8, 84, 69, 76, 13], "trial": 4, "time_elapsed": 876665, "type": "FREE_RECALL", "trial_index": 159}, "uniqueid": "MTK1399:3WQQ9FUS6B1NIGTP2I989RM6EDC8BQ", "dateTime": 1515873763964}, {"current_trial": 160, "trialdata": {"rt": 3617, "trial_type": "text", "internal_node_id": "0.0-115.0", "time_elapsed": 882291, "key_press": 13, "type": "INSTRUCTIONS", "trial_index": 160}, "uniqueid": "MTK1399:3WQQ9FUS6B1NIGTP2I989RM6EDC8BQ", "dateTime": 1515873769585}, {"current_trial": 161, "trialdata": {"rt": [3778, 5913, 8712, 11726], "trial_type": "math-distractor", "key_times": [2140, 3665, 3778, 5426, 5794, 5913, 8040, 8111, 8712, 10791, 11175, 11726], "responses": ["14", "18", "21", "19"], "num2": [1, 7, 6, 7, 8], "num3": [8, 4, 8, 3, 9], "conditions": [12, 800, "v", 12000], "internal_node_id": "0.0-116.0", "key_presses": [49, 52, 13, 49, 56, 13, 50, 49, 13, 49, 57, 13], "trial": 5, "time_elapsed": 896312, "type": "DISTRACTOR", "trial_index": 161, "num1": [5, 7, 7, 9, 8]}, "uniqueid": "MTK1399:3WQQ9FUS6B1NIGTP2I989RM6EDC8BQ", "dateTime": 1515873783606}, {"current_trial": 162, "trialdata": {"rt": -1, "trial_type": "single-stim", "stimulus": "<p id=\"stim\">10</p>", "internal_node_id": "0.0-117.0-0.0", "time_elapsed": 899339, "key_press": -1, "trial_index": 162}, "uniqueid": "MTK1399:3WQQ9FUS6B1NIGTP2I989RM6EDC8BQ", "dateTime": 1515873786633}, {"current_trial": 163, "trialdata": {"rt": -1, "trial_type": "single-stim", "stimulus": "<p id=\"stim\">9</p>", "internal_node_id": "0.0-117.0-1.0", "time_elapsed": 900337, "key_press": -1, "trial_index": 163}, "uniqueid": "MTK1399:3WQQ9FUS6B1NIGTP2I989RM6EDC8BQ", "dateTime": 1515873787632}, {"current_trial": 164, "trialdata": {"rt": -1, "trial_type": "single-stim", "stimulus": "<p id=\"stim\">8</p>", "internal_node_id": "0.0-117.0-2.0", "time_elapsed": 901352, "key_press": -1, "trial_index": 164}, "uniqueid": "MTK1399:3WQQ9FUS6B1NIGTP2I989RM6EDC8BQ", "dateTime": 1515873788646}, {"current_trial": 165, "trialdata": {"rt": -1, "trial_type": "single-stim", "stimulus": "<p id=\"stim\">7</p>", "internal_node_id": "0.0-117.0-3.0", "time_elapsed": 902337, "key_press": -1, "trial_index": 165}, "uniqueid": "MTK1399:3WQQ9FUS6B1NIGTP2I989RM6EDC8BQ", "dateTime": 1515873789632}, {"current_trial": 166, "trialdata": {"rt": -1, "trial_type": "single-stim", "stimulus": "<p id=\"stim\">6</p>", "internal_node_id": "0.0-117.0-4.0", "time_elapsed": 903330, "key_press": -1, "trial_index": 166}, "uniqueid": "MTK1399:3WQQ9FUS6B1NIGTP2I989RM6EDC8BQ", "dateTime": 1515873790625}, {"current_trial": 167, "trialdata": {"rt": -1, "trial_type": "single-stim", "stimulus": "<p id=\"stim\">5</p>", "internal_node_id": "0.0-117.0-5.0", "time_elapsed": 904331, "key_press": -1, "trial_index": 167}, "uniqueid": "MTK1399:3WQQ9FUS6B1NIGTP2I989RM6EDC8BQ", "dateTime": 1515873791625}, {"current_trial": 168, "trialdata": {"rt": -1, "trial_type": "single-stim", "stimulus": "<p id=\"stim\">4</p>", "internal_node_id": "0.0-117.0-6.0", "time_elapsed": 905334, "key_press": -1, "trial_index": 168}, "uniqueid": "MTK1399:3WQQ9FUS6B1NIGTP2I989RM6EDC8BQ", "dateTime": 1515873792628}, {"current_trial": 169, "trialdata": {"rt": -1, "trial_type": "single-stim", "stimulus": "<p id=\"stim\">3</p>", "internal_node_id": "0.0-117.0-7.0", "time_elapsed": 906324, "key_press": -1, "trial_index": 169}, "uniqueid": "MTK1399:3WQQ9FUS6B1NIGTP2I989RM6EDC8BQ", "dateTime": 1515873793619}, {"current_trial": 170, "trialdata": {"rt": -1, "trial_type": "single-stim", "stimulus": "<p id=\"stim\">2</p>", "internal_node_id": "0.0-117.0-8.0", "time_elapsed": 907339, "key_press": -1, "trial_index": 170}, "uniqueid": "MTK1399:3WQQ9FUS6B1NIGTP2I989RM6EDC8BQ", "dateTime": 1515873794634}, {"current_trial": 171, "trialdata": {"rt": -1, "trial_type": "single-stim", "stimulus": "<p id=\"stim\">1</p>", "internal_node_id": "0.0-117.0-9.0", "time_elapsed": 908339, "key_press": -1, "trial_index": 171}, "uniqueid": "MTK1399:3WQQ9FUS6B1NIGTP2I989RM6EDC8BQ", "dateTime": 1515873795633}, {"current_trial": 172, "trialdata": {"rt": -1, "trial_type": "single-stim", "stimulus": "<p id=\"stim\">+</p>", "internal_node_id": "0.0-118.0-0.0", "time_elapsed": 909854, "key_press": -1, "type": "FIXATION", "trial_index": 172}, "uniqueid": "MTK1399:3WQQ9FUS6B1NIGTP2I989RM6EDC8BQ", "dateTime": 1515873797149}, {"current_trial": 173, "trialdata": {"rt": -1, "trial_type": "single-stim", "word": "oyster", "stimulus": "<p id=\"stim\">OYSTER</p>", "conditions": [12, 800, "v", 12000], "internal_node_id": "0.0-119.0", "trial": 5, "time_elapsed": 910667, "serialpos": 0, "key_press": -1, "wordID": 994, "type": "PRES_VIS", "trial_index": 173}, "uniqueid": "MTK1399:3WQQ9FUS6B1NIGTP2I989RM6EDC8BQ", "dateTime": 1515873797962}, {"current_trial": 174, "trialdata": {"rt": -1, "trial_type": "single-stim", "word": "antler", "stimulus": "<p id=\"stim\">ANTLER</p>", "conditions": [12, 800, "v", 12000], "internal_node_id": "0.0-120.0", "trial": 5, "time_elapsed": 912563, "serialpos": 1, "key_press": -1, "wordID": 28, "type": "PRES_VIS", "trial_index": 174}, "uniqueid": "MTK1399:3WQQ9FUS6B1NIGTP2I989RM6EDC8BQ", "dateTime": 1515873799857}, {"current_trial": 175, "trialdata": {"rt": -1, "trial_type": "single-stim", "word": "chapel", "stimulus": "<p id=\"stim\">CHAPEL</p>", "conditions": [12, 800, "v", 12000], "internal_node_id": "0.0-121.0", "trial": 5, "time_elapsed": 914194, "serialpos": 2, "key_press": -1, "wordID": 279, "type": "PRES_VIS", "trial_index": 175}, "uniqueid": "MTK1399:3WQQ9FUS6B1NIGTP2I989RM6EDC8BQ", "dateTime": 1515873801488}, {"current_trial": 176, "trialdata": {"rt": -1, "trial_type": "single-stim", "word": "church", "stimulus": "<p id=\"stim\">CHURCH</p>", "conditions": [12, 800, "v", 12000], "internal_node_id": "0.0-122.0", "trial": 5, "time_elapsed": 915999, "serialpos": 3, "key_press": -1, "wordID": 306, "type": "PRES_VIS", "trial_index": 176}, "uniqueid": "MTK1399:3WQQ9FUS6B1NIGTP2I989RM6EDC8BQ", "dateTime": 1515873803293}, {"current_trial": 177, "trialdata": {"rt": -1, "trial_type": "single-stim", "word": "lamp", "stimulus": "<p id=\"stim\">LAMP</p>", "conditions": [12, 800, "v", 12000], "internal_node_id": "0.0-123.0", "trial": 5, "time_elapsed": 917718, "serialpos": 4, "key_press": -1, "wordID": 797, "type": "PRES_VIS", "trial_index": 177}, "uniqueid": "MTK1399:3WQQ9FUS6B1NIGTP2I989RM6EDC8BQ", "dateTime": 1515873805013}, {"current_trial": 178, "trialdata": {"rt": -1, "trial_type": "single-stim", "word": "husband", "stimulus": "<p id=\"stim\">HUSBAND</p>", "conditions": [12, 800, "v", 12000], "internal_node_id": "0.0-124.0", "trial": 5, "time_elapsed": 919668, "serialpos": 5, "key_press": -1, "wordID": 727, "type": "PRES_VIS", "trial_index": 178}, "uniqueid": "MTK1399:3WQQ9FUS6B1NIGTP2I989RM6EDC8BQ", "dateTime": 1515873806963}, {"current_trial": 179, "trialdata": {"rt": -1, "trial_type": "single-stim", "word": "tutu", "stimulus": "<p id=\"stim\">TUTU</p>", "conditions": [12, 800, "v", 12000], "internal_node_id": "0.0-125.0", "trial": 5, "time_elapsed": 921487, "serialpos": 6, "key_press": -1, "wordID": 1523, "type": "PRES_VIS", "trial_index": 179}, "uniqueid": "MTK1399:3WQQ9FUS6B1NIGTP2I989RM6EDC8BQ", "dateTime": 1515873808781}, {"current_trial": 180, "trialdata": {"rt": -1, "trial_type": "single-stim", "word": "receipt", "stimulus": "<p id=\"stim\">RECEIPT</p>", "conditions": [12, 800, "v", 12000], "internal_node_id": "0.0-126.0", "trial": 5, "time_elapsed": 923226, "serialpos": 7, "key_press": -1, "wordID": 1172, "type": "PRES_VIS", "trial_index": 180}, "uniqueid": "MTK1399:3WQQ9FUS6B1NIGTP2I989RM6EDC8BQ", "dateTime": 1515873810520}, {"current_trial": 181, "trialdata": {"rt": -1, "trial_type": "single-stim", "word": "saddle", "stimulus": "<p id=\"stim\">SADDLE</p>", "conditions": [12, 800, "v", 12000], "internal_node_id": "0.0-127.0", "trial": 5, "time_elapsed": 924891, "serialpos": 8, "key_press": -1, "wordID": 1220, "type": "PRES_VIS", "trial_index": 181}, "uniqueid": "MTK1399:3WQQ9FUS6B1NIGTP2I989RM6EDC8BQ", "dateTime": 1515873812186}, {"current_trial": 182, "trialdata": {"rt": -1, "trial_type": "single-stim", "word": "thief", "stimulus": "<p id=\"stim\">THIEF</p>", "conditions": [12, 800, "v", 12000], "internal_node_id": "0.0-128.0", "trial": 5, "time_elapsed": 926615, "serialpos": 9, "key_press": -1, "wordID": 1455, "type": "PRES_VIS", "trial_index": 182}, "uniqueid": "MTK1399:3WQQ9FUS6B1NIGTP2I989RM6EDC8BQ", "dateTime": 1515873813909}, {"current_trial": 183, "trialdata": {"rt": -1, "trial_type": "single-stim", "word": "uncle", "stimulus": "<p id=\"stim\">UNCLE</p>", "conditions": [12, 800, "v", 12000], "internal_node_id": "0.0-129.0", "trial": 5, "time_elapsed": 928284, "serialpos": 10, "key_press": -1, "wordID": 1535, "type": "PRES_VIS", "trial_index": 183}, "uniqueid": "MTK1399:3WQQ9FUS6B1NIGTP2I989RM6EDC8BQ", "dateTime": 1515873815579}, {"current_trial": 184, "trialdata": {"rt": -1, "trial_type": "single-stim", "word": "scallop", "stimulus": "<p id=\"stim\">SCALLOP</p>", "conditions": [12, 800, "v", 12000], "internal_node_id": "0.0-130.0", "trial": 5, "time_elapsed": 930300, "serialpos": 11, "key_press": -1, "wordID": 1241, "type": "PRES_VIS", "trial_index": 184}, "uniqueid": "MTK1399:3WQQ9FUS6B1NIGTP2I989RM6EDC8BQ", "dateTime": 1515873817594}, {"current_trial": 185, "trialdata": {"rt": -1, "trial_type": "single-stim", "stimulus": "", "internal_node_id": "0.0-131.0-0.0", "time_elapsed": 932556, "key_press": -1, "type": "PRE_RECALL_DELAY", "trial_index": 185}, "uniqueid": "MTK1399:3WQQ9FUS6B1NIGTP2I989RM6EDC8BQ", "dateTime": 1515873819851}, {"current_trial": 186, "trialdata": {"rt": -1000, "trial_type": "single-audio", "stimulus": "/static/audio/400Hz.wav", "internal_node_id": "0.0-132.0", "time_elapsed": 933071, "key_press": -1, "type": "PRE_RECALL_ALERT", "trial_index": 186}, "uniqueid": "MTK1399:3WQQ9FUS6B1NIGTP2I989RM6EDC8BQ", "dateTime": 1515873820365}, {"current_trial": 187, "trialdata": {"rt": [1278, 3579, 7370, 9705], "recwords": ["thief", "uncle", "scallop", "oyster"], "key_times": [639, 774, 820, 992, 1166, 1278, 1785, 1887, 2052, 2435, 2680, 3191, 3331, 3579, 3909, 4075, 4201, 4305, 4456, 4637, 4709, 5664, 6406, 7370, 8501, 8898, 9070, 9309, 9418, 9560, 9705], "trial_type": "free-recall", "conditions": [12, 800, "v", 12000], "internal_node_id": "0.0-133.0-0.0", "key_presses": [84, 72, 73, 69, 70, 13, 85, 78, 67, 76, 89, 8, 69, 13, 83, 67, 65, 76, 76, 79, 80, 220, 8, 13, 79, 89, 83, 84, 69, 82, 13], "trial": 5, "time_elapsed": 993085, "type": "FREE_RECALL", "trial_index": 187}, "uniqueid": "MTK1399:3WQQ9FUS6B1NIGTP2I989RM6EDC8BQ", "dateTime": 1515873880385}, {"current_trial": 188, "trialdata": {"rt": 1779, "trial_type": "text", "internal_node_id": "0.0-134.0", "time_elapsed": 996875, "key_press": 13, "type": "INSTRUCTIONS", "trial_index": 188}, "uniqueid": "MTK1399:3WQQ9FUS6B1NIGTP2I989RM6EDC8BQ", "dateTime": 1515873884169}, {"current_trial": 189, "trialdata": {"rt": [1997, 4244, 6356, 7910, 9485, 11556], "trial_type": "math-distractor", "key_times": [1280, 1438, 1699, 1997, 3934, 4020, 4244, 5932, 6081, 6356, 7798, 7910, 9197, 9365, 9485, 11333, 11429, 11556], "responses": ["11", "21", "11", "6", "13", "23"], "num2": [6, 4, 3, 2, 8, 5, 7], "num3": [2, 9, 5, 3, 3, 9, 5], "conditions": [24, 1600, "v", 12000], "internal_node_id": "0.0-135.0", "key_presses": [49, 49, 16, 13, 50, 49, 13, 49, 49, 13, 54, 13, 49, 51, 13, 50, 51, 13], "trial": 6, "time_elapsed": 1010903, "type": "DISTRACTOR", "trial_index": 189, "num1": [3, 8, 3, 1, 2, 9, 6]}, "uniqueid": "MTK1399:3WQQ9FUS6B1NIGTP2I989RM6EDC8BQ", "dateTime": 1515873898197}, {"current_trial": 190, "trialdata": {"rt": -1, "trial_type": "single-stim", "stimulus": "<p id=\"stim\">10</p>", "internal_node_id": "0.0-136.0-0.0", "time_elapsed": 1013921, "key_press": -1, "trial_index": 190}, "uniqueid": "MTK1399:3WQQ9FUS6B1NIGTP2I989RM6EDC8BQ", "dateTime": 1515873901215}, {"current_trial": 191, "trialdata": {"rt": -1, "trial_type": "single-stim", "stimulus": "<p id=\"stim\">9</p>", "internal_node_id": "0.0-136.0-1.0", "time_elapsed": 1014925, "key_press": -1, "trial_index": 191}, "uniqueid": "MTK1399:3WQQ9FUS6B1NIGTP2I989RM6EDC8BQ", "dateTime": 1515873902219}, {"current_trial": 192, "trialdata": {"rt": -1, "trial_type": "single-stim", "stimulus": "<p id=\"stim\">8</p>", "internal_node_id": "0.0-136.0-2.0", "time_elapsed": 1015925, "key_press": -1, "trial_index": 192}, "uniqueid": "MTK1399:3WQQ9FUS6B1NIGTP2I989RM6EDC8BQ", "dateTime": 1515873903220}, {"current_trial": 193, "trialdata": {"rt": -1, "trial_type": "single-stim", "stimulus": "<p id=\"stim\">7</p>", "internal_node_id": "0.0-136.0-3.0", "time_elapsed": 1016926, "key_press": -1, "trial_index": 193}, "uniqueid": "MTK1399:3WQQ9FUS6B1NIGTP2I989RM6EDC8BQ", "dateTime": 1515873904220}, {"current_trial": 194, "trialdata": {"rt": -1, "trial_type": "single-stim", "stimulus": "<p id=\"stim\">6</p>", "internal_node_id": "0.0-136.0-4.0", "time_elapsed": 1017939, "key_press": -1, "trial_index": 194}, "uniqueid": "MTK1399:3WQQ9FUS6B1NIGTP2I989RM6EDC8BQ", "dateTime": 1515873905234}, {"current_trial": 195, "trialdata": {"rt": -1, "trial_type": "single-stim", "stimulus": "<p id=\"stim\">5</p>", "internal_node_id": "0.0-136.0-5.0", "time_elapsed": 1018939, "key_press": -1, "trial_index": 195}, "uniqueid": "MTK1399:3WQQ9FUS6B1NIGTP2I989RM6EDC8BQ", "dateTime": 1515873906233}, {"current_trial": 196, "trialdata": {"rt": -1, "trial_type": "single-stim", "stimulus": "<p id=\"stim\">4</p>", "internal_node_id": "0.0-136.0-6.0", "time_elapsed": 1019925, "key_press": -1, "trial_index": 196}, "uniqueid": "MTK1399:3WQQ9FUS6B1NIGTP2I989RM6EDC8BQ", "dateTime": 1515873907219}, {"current_trial": 197, "trialdata": {"rt": -1, "trial_type": "single-stim", "stimulus": "<p id=\"stim\">3</p>", "internal_node_id": "0.0-136.0-7.0", "time_elapsed": 1020915, "key_press": -1, "trial_index": 197}, "uniqueid": "MTK1399:3WQQ9FUS6B1NIGTP2I989RM6EDC8BQ", "dateTime": 1515873908210}, {"current_trial": 198, "trialdata": {"rt": -1, "trial_type": "single-stim", "stimulus": "<p id=\"stim\">2</p>", "internal_node_id": "0.0-136.0-8.0", "time_elapsed": 1021917, "key_press": -1, "trial_index": 198}, "uniqueid": "MTK1399:3WQQ9FUS6B1NIGTP2I989RM6EDC8BQ", "dateTime": 1515873909211}, {"current_trial": 199, "trialdata": {"rt": -1, "trial_type": "single-stim", "stimulus": "<p id=\"stim\">1</p>", "internal_node_id": "0.0-136.0-9.0", "time_elapsed": 1022925, "key_press": -1, "trial_index": 199}, "uniqueid": "MTK1399:3WQQ9FUS6B1NIGTP2I989RM6EDC8BQ", "dateTime": 1515873910219}, {"current_trial": 200, "trialdata": {"rt": -1, "trial_type": "single-stim", "stimulus": "<p id=\"stim\">+</p>", "internal_node_id": "0.0-137.0-0.0", "time_elapsed": 1024441, "key_press": -1, "type": "FIXATION", "trial_index": 200}, "uniqueid": "MTK1399:3WQQ9FUS6B1NIGTP2I989RM6EDC8BQ", "dateTime": 1515873911736}, {"current_trial": 201, "trialdata": {"rt": -1, "trial_type": "single-stim", "word": "plate", "stimulus": "<p id=\"stim\">PLATE</p>", "conditions": [24, 1600, "v", 12000], "internal_node_id": "0.0-138.0", "trial": 6, "time_elapsed": 1026050, "serialpos": 0, "key_press": -1, "wordID": 1085, "type": "PRES_VIS", "trial_index": 201}, "uniqueid": "MTK1399:3WQQ9FUS6B1NIGTP2I989RM6EDC8BQ", "dateTime": 1515873913344}, {"current_trial": 202, "trialdata": {"rt": -1, "trial_type": "single-stim", "word": "pastry", "stimulus": "<p id=\"stim\">PASTRY</p>", "conditions": [24, 1600, "v", 12000], "internal_node_id": "0.0-139.0", "trial": 6, "time_elapsed": 1028699, "serialpos": 1, "key_press": -1, "wordID": 1021, "type": "PRES_VIS", "trial_index": 202}, "uniqueid": "MTK1399:3WQQ9FUS6B1NIGTP2I989RM6EDC8BQ", "dateTime": 1515873915994}, {"current_trial": 203, "trialdata": {"rt": -1, "trial_type": "single-stim", "word": "pistol", "stimulus": "<p id=\"stim\">PISTOL</p>", "conditions": [24, 1600, "v", 12000], "internal_node_id": "0.0-140.0", "trial": 6, "time_elapsed": 1031267, "serialpos": 2, "key_press": -1, "wordID": 1074, "type": "PRES_VIS", "trial_index": 203}, "uniqueid": "MTK1399:3WQQ9FUS6B1NIGTP2I989RM6EDC8BQ", "dateTime": 1515873918562}, {"current_trial": 204, "trialdata": {"rt": -1, "trial_type": "single-stim", "word": "asia", "stimulus": "<p id=\"stim\">ASIA</p>", "conditions": [24, 1600, "v", 12000], "internal_node_id": "0.0-141.0", "trial": 6, "time_elapsed": 1033839, "serialpos": 3, "key_press": -1, "wordID": 45, "type": "PRES_VIS", "trial_index": 204}, "uniqueid": "MTK1399:3WQQ9FUS6B1NIGTP2I989RM6EDC8BQ", "dateTime": 1515873921134}, {"current_trial": 205, "trialdata": {"rt": 877, "trial_type": "single-stim", "word": "grape", "stimulus": "<p id=\"stim\">GRAPE</p>", "conditions": [24, 1600, "v", 12000], "internal_node_id": "0.0-142.0", "trial": 6, "time_elapsed": 1036292, "serialpos": 4, "key_press": 71, "wordID": 653, "type": "PRES_VIS", "trial_index": 205}, "uniqueid": "MTK1399:3WQQ9FUS6B1NIGTP2I989RM6EDC8BQ", "dateTime": 1515873923587}, {"current_trial": 206, "trialdata": {"rt": -1, "trial_type": "single-stim", "word": "blueprint", "stimulus": "<p id=\"stim\">BLUEPRINT</p>", "conditions": [24, 1600, "v", 12000], "internal_node_id": "0.0-143.0", "trial": 6, "time_elapsed": 1039058, "serialpos": 5, "key_press": -1, "wordID": 141, "type": "PRES_VIS", "trial_index": 206}, "uniqueid": "MTK1399:3WQQ9FUS6B1NIGTP2I989RM6EDC8BQ", "dateTime": 1515873926352}, {"current_trial": 207, "trialdata": {"rt": -1, "trial_type": "single-stim", "word": "summit", "stimulus": "<p id=\"stim\">SUMMIT</p>", "conditions": [24, 1600, "v", 12000], "internal_node_id": "0.0-144.0", "trial": 6, "time_elapsed": 1041659, "serialpos": 6, "key_press": -1, "wordID": 1404, "type": "PRES_VIS", "trial_index": 207}, "uniqueid": "MTK1399:3WQQ9FUS6B1NIGTP2I989RM6EDC8BQ", "dateTime": 1515873928953}, {"current_trial": 208, "trialdata": {"rt": -1, "trial_type": "single-stim", "word": "diner", "stimulus": "<p id=\"stim\">DINER</p>", "conditions": [24, 1600, "v", 12000], "internal_node_id": "0.0-145.0", "trial": 6, "time_elapsed": 1044116, "serialpos": 7, "key_press": -1, "wordID": 466, "type": "PRES_VIS", "trial_index": 208}, "uniqueid": "MTK1399:3WQQ9FUS6B1NIGTP2I989RM6EDC8BQ", "dateTime": 1515873931411}, {"current_trial": 209, "trialdata": {"rt": -1, "trial_type": "single-stim", "word": "cafe", "stimulus": "<p id=\"stim\">CAFE</p>", "conditions": [24, 1600, "v", 12000], "internal_node_id": "0.0-146.0", "trial": 6, "time_elapsed": 1046683, "serialpos": 8, "key_press": -1, "wordID": 215, "type": "PRES_VIS", "trial_index": 209}, "uniqueid": "MTK1399:3WQQ9FUS6B1NIGTP2I989RM6EDC8BQ", "dateTime": 1515873933977}, {"current_trial": 210, "trialdata": {"rt": -1, "trial_type": "single-stim", "word": "coffee", "stimulus": "<p id=\"stim\">COFFEE</p>", "conditions": [24, 1600, "v", 12000], "internal_node_id": "0.0-147.0", "trial": 6, "time_elapsed": 1049386, "serialpos": 9, "key_press": -1, "wordID": 340, "type": "PRES_VIS", "trial_index": 210}, "uniqueid": "MTK1399:3WQQ9FUS6B1NIGTP2I989RM6EDC8BQ", "dateTime": 1515873936680}, {"current_trial": 211, "trialdata": {"rt": -1, "trial_type": "single-stim", "word": "knife", "stimulus": "<p id=\"stim\">KNIFE</p>", "conditions": [24, 1600, "v", 12000], "internal_node_id": "0.0-148.0", "trial": 6, "time_elapsed": 1052002, "serialpos": 10, "key_press": -1, "wordID": 784, "type": "PRES_VIS", "trial_index": 211}, "uniqueid": "MTK1399:3WQQ9FUS6B1NIGTP2I989RM6EDC8BQ", "dateTime": 1515873939297}, {"current_trial": 212, "trialdata": {"rt": -1, "trial_type": "single-stim", "word": "hatchet", "stimulus": "<p id=\"stim\">HATCHET</p>", "conditions": [24, 1600, "v", 12000], "internal_node_id": "0.0-149.0", "trial": 6, "time_elapsed": 1054547, "serialpos": 11, "key_press": -1, "wordID": 690, "type": "PRES_VIS", "trial_index": 212}, "uniqueid": "MTK1399:3WQQ9FUS6B1NIGTP2I989RM6EDC8BQ", "dateTime": 1515873941841}, {"current_trial": 213, "trialdata": {"rt": -1, "trial_type": "single-stim", "word": "beef", "stimulus": "<p id=\"stim\">BEEF</p>", "conditions": [24, 1600, "v", 12000], "internal_node_id": "0.0-150.0", "trial": 6, "time_elapsed": 1057320, "serialpos": 12, "key_press": -1, "wordID": 112, "type": "PRES_VIS", "trial_index": 213}, "uniqueid": "MTK1399:3WQQ9FUS6B1NIGTP2I989RM6EDC8BQ", "dateTime": 1515873944614}, {"current_trial": 214, "trialdata": {"rt": 1603, "trial_type": "single-stim", "word": "nurse", "stimulus": "<p id=\"stim\">NURSE</p>", "conditions": [24, 1600, "v", 12000], "internal_node_id": "0.0-151.0", "trial": 6, "time_elapsed": 1060023, "serialpos": 13, "key_press": 83, "wordID": 962, "type": "PRES_VIS", "trial_index": 214}, "uniqueid": "MTK1399:3WQQ9FUS6B1NIGTP2I989RM6EDC8BQ", "dateTime": 1515873947318}, {"current_trial": 215, "trialdata": {"rt": -1, "trial_type": "single-stim", "word": "cabbage", "stimulus": "<p id=\"stim\">CABBAGE</p>", "conditions": [24, 1600, "v", 12000], "internal_node_id": "0.0-152.0", "trial": 6, "time_elapsed": 1062751, "serialpos": 14, "key_press": -1, "wordID": 209, "type": "PRES_VIS", "trial_index": 215}, "uniqueid": "MTK1399:3WQQ9FUS6B1NIGTP2I989RM6EDC8BQ", "dateTime": 1515873950045}, {"current_trial": 216, "trialdata": {"rt": -1, "trial_type": "single-stim", "word": "lightning", "stimulus": "<p id=\"stim\">LIGHTNING</p>", "conditions": [24, 1600, "v", 12000], "internal_node_id": "0.0-153.0", "trial": 6, "time_elapsed": 1065397, "serialpos": 15, "key_press": -1, "wordID": 819, "type": "PRES_VIS", "trial_index": 216}, "uniqueid": "MTK1399:3WQQ9FUS6B1NIGTP2I989RM6EDC8BQ", "dateTime": 1515873952691}, {"current_trial": 217, "trialdata": {"rt": 1098, "trial_type": "single-stim", "word": "item", "stimulus": "<p id=\"stim\">ITEM</p>", "conditions": [24, 1600, "v", 12000], "internal_node_id": "0.0-154.0", "trial": 6, "time_elapsed": 1068161, "serialpos": 16, "key_press": 69, "wordID": 745, "type": "PRES_VIS", "trial_index": 217}, "uniqueid": "MTK1399:3WQQ9FUS6B1NIGTP2I989RM6EDC8BQ", "dateTime": 1515873955455}, {"current_trial": 218, "trialdata": {"rt": -1, "trial_type": "single-stim", "word": "turnip", "stimulus": "<p id=\"stim\">TURNIP</p>", "conditions": [24, 1600, "v", 12000], "internal_node_id": "0.0-155.0", "trial": 6, "time_elapsed": 1070653, "serialpos": 17, "key_press": -1, "wordID": 1520, "type": "PRES_VIS", "trial_index": 218}, "uniqueid": "MTK1399:3WQQ9FUS6B1NIGTP2I989RM6EDC8BQ", "dateTime": 1515873957948}, {"current_trial": 219, "trialdata": {"rt": -1, "trial_type": "single-stim", "word": "jungle", "stimulus": "<p id=\"stim\">JUNGLE</p>", "conditions": [24, 1600, "v", 12000], "internal_node_id": "0.0-156.0", "trial": 6, "time_elapsed": 1073411, "serialpos": 18, "key_press": -1, "wordID": 763, "type": "PRES_VIS", "trial_index": 219}, "uniqueid": "MTK1399:3WQQ9FUS6B1NIGTP2I989RM6EDC8BQ", "dateTime": 1515873960706}, {"current_trial": 220, "trialdata": {"rt": -1, "trial_type": "single-stim", "word": "jelly", "stimulus": "<p id=\"stim\">JELLY</p>", "conditions": [24, 1600, "v", 12000], "internal_node_id": "0.0-157.0", "trial": 6, "time_elapsed": 1075885, "serialpos": 19, "key_press": -1, "wordID": 754, "type": "PRES_VIS", "trial_index": 220}, "uniqueid": "MTK1399:3WQQ9FUS6B1NIGTP2I989RM6EDC8BQ", "dateTime": 1515873963180}, {"current_trial": 221, "trialdata": {"rt": -1, "trial_type": "single-stim", "word": "jello", "stimulus": "<p id=\"stim\">JELLO</p>", "conditions": [24, 1600, "v", 12000], "internal_node_id": "0.0-158.0", "trial": 6, "time_elapsed": 1078398, "serialpos": 20, "key_press": -1, "wordID": 753, "type": "PRES_VIS", "trial_index": 221}, "uniqueid": "MTK1399:3WQQ9FUS6B1NIGTP2I989RM6EDC8BQ", "dateTime": 1515873965693}, {"current_trial": 222, "trialdata": {"rt": -1, "trial_type": "single-stim", "word": "spouse", "stimulus": "<p id=\"stim\">SPOUSE</p>", "conditions": [24, 1600, "v", 12000], "internal_node_id": "0.0-159.0", "trial": 6, "time_elapsed": 1081084, "serialpos": 21, "key_press": -1, "wordID": 1357, "type": "PRES_VIS", "trial_index": 222}, "uniqueid": "MTK1399:3WQQ9FUS6B1NIGTP2I989RM6EDC8BQ", "dateTime": 1515873968379}, {"current_trial": 223, "trialdata": {"rt": -1, "trial_type": "single-stim", "word": "motel", "stimulus": "<p id=\"stim\">MOTEL</p>", "conditions": [24, 1600, "v", 12000], "internal_node_id": "0.0-160.0", "trial": 6, "time_elapsed": 1083834, "serialpos": 22, "key_press": -1, "wordID": 918, "type": "PRES_VIS", "trial_index": 223}, "uniqueid": "MTK1399:3WQQ9FUS6B1NIGTP2I989RM6EDC8BQ", "dateTime": 1515873971128}, {"current_trial": 224, "trialdata": {"rt": -1, "trial_type": "single-stim", "word": "taxi", "stimulus": "<p id=\"stim\">TAXI</p>", "conditions": [24, 1600, "v", 12000], "internal_node_id": "0.0-161.0", "trial": 6, "time_elapsed": 1086567, "serialpos": 23, "key_press": -1, "wordID": 1437, "type": "PRES_VIS", "trial_index": 224}, "uniqueid": "MTK1399:3WQQ9FUS6B1NIGTP2I989RM6EDC8BQ", "dateTime": 1515873973862}, {"current_trial": 225, "trialdata": {"rt": -1, "trial_type": "single-stim", "stimulus": "", "internal_node_id": "0.0-162.0-0.0", "time_elapsed": 1089085, "key_press": -1, "type": "PRE_RECALL_DELAY", "trial_index": 225}, "uniqueid": "MTK1399:3WQQ9FUS6B1NIGTP2I989RM6EDC8BQ", "dateTime": 1515873976379}, {"current_trial": 226, "trialdata": {"rt": -1000, "trial_type": "single-audio", "stimulus": "/static/audio/400Hz.wav", "internal_node_id": "0.0-163.0", "time_elapsed": 1089595, "key_press": -1, "type": "PRE_RECALL_ALERT", "trial_index": 226}, "uniqueid": "MTK1399:3WQQ9FUS6B1NIGTP2I989RM6EDC8BQ", "dateTime": 1515873976889}, {"current_trial": 227, "trialdata": {"rt": [2176, 4374, 6128, 8695, 10855, 19132, 25395], "recwords": ["taxi", "turnip", "spuse", "spouse", "blueprint", "cabbage", "taxi"], "key_times": [1101, 1505, 1648, 1753, 2176, 2865, 3015, 3230, 3604, 3674, 3968, 4374, 5104, 5265, 5413, 5561, 5696, 6128, 7520, 7665, 7934, 8051, 8383, 8517, 8695, 9361, 9481, 9709, 9850, 10226, 10366, 10469, 10581, 10671, 10855, 18129, 18278, 18422, 18562, 18671, 18814, 18904, 19132, 24257, 24797, 24971, 25075, 25395], "trial_type": "free-recall", "conditions": [24, 1600, "v", 12000], "internal_node_id": "0.0-164.0-0.0", "key_presses": [84, 65, 88, 73, 13, 84, 85, 82, 78, 73, 80, 13, 83, 80, 85, 83, 69, 13, 83, 80, 79, 85, 83, 69, 13, 66, 76, 85, 69, 80, 82, 73, 78, 84, 13, 67, 65, 66, 66, 65, 71, 69, 13, 84, 65, 88, 73, 13], "trial": 6, "time_elapsed": 1149605, "type": "FREE_RECALL", "trial_index": 227}, "uniqueid": "MTK1399:3WQQ9FUS6B1NIGTP2I989RM6EDC8BQ", "dateTime": 1515874036907}, {"current_trial": 228, "trialdata": {"rt": 3457, "trial_type": "text", "internal_node_id": "0.0-165.0", "time_elapsed": 1155099, "key_press": 13, "type": "INSTRUCTIONS", "trial_index": 228}, "uniqueid": "MTK1399:3WQQ9FUS6B1NIGTP2I989RM6EDC8BQ", "dateTime": 1515874042394}, {"current_trial": 229, "trialdata": {"rt": [2082, 4800, 6752, 8689, 10456, 11913], "trial_type": "math-distractor", "key_times": [1930, 2082, 4641, 4704, 4800, 6464, 6672, 6752, 8594, 8689, 10265, 10376, 10456, 11697, 11864, 11913], "responses": ["7", "12", "15", "9", "22", "14"], "num2": [1, 1, 7, 3, 7, 5, 3], "num3": [2, 5, 3, 5, 6, 7, 9], "conditions": [24, 800, "v", 12000], "internal_node_id": "0.0-166.0", "key_presses": [55, 13, 49, 50, 13, 49, 53, 13, 57, 13, 50, 50, 13, 49, 52, 13], "trial": 7, "time_elapsed": 1169126, "type": "DISTRACTOR", "trial_index": 229, "num1": [4, 6, 5, 1, 9, 2, 9]}, "uniqueid": "MTK1399:3WQQ9FUS6B1NIGTP2I989RM6EDC8BQ", "dateTime": 1515874056421}, {"current_trial": 230, "trialdata": {"rt": -1, "trial_type": "single-stim", "stimulus": "<p id=\"stim\">10</p>", "internal_node_id": "0.0-167.0-0.0", "time_elapsed": 1172142, "key_press": -1, "trial_index": 230}, "uniqueid": "MTK1399:3WQQ9FUS6B1NIGTP2I989RM6EDC8BQ", "dateTime": 1515874059437}, {"current_trial": 231, "trialdata": {"rt": -1, "trial_type": "single-stim", "stimulus": "<p id=\"stim\">9</p>", "internal_node_id": "0.0-167.0-1.0", "time_elapsed": 1173135, "key_press": -1, "trial_index": 231}, "uniqueid": "MTK1399:3WQQ9FUS6B1NIGTP2I989RM6EDC8BQ", "dateTime": 1515874060429}, {"current_trial": 232, "trialdata": {"rt": -1, "trial_type": "single-stim", "stimulus": "<p id=\"stim\">8</p>", "internal_node_id": "0.0-167.0-2.0", "time_elapsed": 1174136, "key_press": -1, "trial_index": 232}, "uniqueid": "MTK1399:3WQQ9FUS6B1NIGTP2I989RM6EDC8BQ", "dateTime": 1515874061431}, {"current_trial": 233, "trialdata": {"rt": -1, "trial_type": "single-stim", "stimulus": "<p id=\"stim\">7</p>", "internal_node_id": "0.0-167.0-3.0", "time_elapsed": 1175142, "key_press": -1, "trial_index": 233}, "uniqueid": "MTK1399:3WQQ9FUS6B1NIGTP2I989RM6EDC8BQ", "dateTime": 1515874062436}, {"current_trial": 234, "trialdata": {"rt": -1, "trial_type": "single-stim", "stimulus": "<p id=\"stim\">6</p>", "internal_node_id": "0.0-167.0-4.0", "time_elapsed": 1176145, "key_press": -1, "trial_index": 234}, "uniqueid": "MTK1399:3WQQ9FUS6B1NIGTP2I989RM6EDC8BQ", "dateTime": 1515874063439}, {"current_trial": 235, "trialdata": {"rt": -1, "trial_type": "single-stim", "stimulus": "<p id=\"stim\">5</p>", "internal_node_id": "0.0-167.0-5.0", "time_elapsed": 1177144, "key_press": -1, "trial_index": 235}, "uniqueid": "MTK1399:3WQQ9FUS6B1NIGTP2I989RM6EDC8BQ", "dateTime": 1515874064439}, {"current_trial": 236, "trialdata": {"rt": -1, "trial_type": "single-stim", "stimulus": "<p id=\"stim\">4</p>", "internal_node_id": "0.0-167.0-6.0", "time_elapsed": 1178146, "key_press": -1, "trial_index": 236}, "uniqueid": "MTK1399:3WQQ9FUS6B1NIGTP2I989RM6EDC8BQ", "dateTime": 1515874065440}, {"current_trial": 237, "trialdata": {"rt": -1, "trial_type": "single-stim", "stimulus": "<p id=\"stim\">3</p>", "internal_node_id": "0.0-167.0-7.0", "time_elapsed": 1179159, "key_press": -1, "trial_index": 237}, "uniqueid": "MTK1399:3WQQ9FUS6B1NIGTP2I989RM6EDC8BQ", "dateTime": 1515874066453}, {"current_trial": 238, "trialdata": {"rt": -1, "trial_type": "single-stim", "stimulus": "<p id=\"stim\">2</p>", "internal_node_id": "0.0-167.0-8.0", "time_elapsed": 1180142, "key_press": -1, "trial_index": 238}, "uniqueid": "MTK1399:3WQQ9FUS6B1NIGTP2I989RM6EDC8BQ", "dateTime": 1515874067437}, {"current_trial": 239, "trialdata": {"rt": -1, "trial_type": "single-stim", "stimulus": "<p id=\"stim\">1</p>", "internal_node_id": "0.0-167.0-9.0", "time_elapsed": 1181144, "key_press": -1, "trial_index": 239}, "uniqueid": "MTK1399:3WQQ9FUS6B1NIGTP2I989RM6EDC8BQ", "dateTime": 1515874068439}, {"current_trial": 240, "trialdata": {"rt": -1, "trial_type": "single-stim", "stimulus": "<p id=\"stim\">+</p>", "internal_node_id": "0.0-168.0-0.0", "time_elapsed": 1182651, "key_press": -1, "type": "FIXATION", "trial_index": 240}, "uniqueid": "MTK1399:3WQQ9FUS6B1NIGTP2I989RM6EDC8BQ", "dateTime": 1515874069946}, {"current_trial": 241, "trialdata": {"rt": -1, "trial_type": "single-stim", "word": "pigeon", "stimulus": "<p id=\"stim\">PIGEON</p>", "conditions": [24, 800, "v", 12000], "internal_node_id": "0.0-169.0", "trial": 7, "time_elapsed": 1183466, "serialpos": 0, "key_press": -1, "wordID": 1064, "type": "PRES_VIS", "trial_index": 241}, "uniqueid": "MTK1399:3WQQ9FUS6B1NIGTP2I989RM6EDC8BQ", "dateTime": 1515874070761}, {"current_trial": 242, "trialdata": {"rt": -1, "trial_type": "single-stim", "word": "piston", "stimulus": "<p id=\"stim\">PISTON</p>", "conditions": [24, 800, "v", 12000], "internal_node_id": "0.0-170.0", "trial": 7, "time_elapsed": 1185339, "serialpos": 1, "key_press": -1, "wordID": 1075, "type": "PRES_VIS", "trial_index": 242}, "uniqueid": "MTK1399:3WQQ9FUS6B1NIGTP2I989RM6EDC8BQ", "dateTime": 1515874072633}, {"current_trial": 243, "trialdata": {"rt": -1, "trial_type": "single-stim", "word": "shrub", "stimulus": "<p id=\"stim\">SHRUB</p>", "conditions": [24, 800, "v", 12000], "internal_node_id": "0.0-171.0", "trial": 7, "time_elapsed": 1187231, "serialpos": 2, "key_press": -1, "wordID": 1298, "type": "PRES_VIS", "trial_index": 243}, "uniqueid": "MTK1399:3WQQ9FUS6B1NIGTP2I989RM6EDC8BQ", "dateTime": 1515874074525}, {"current_trial": 244, "trialdata": {"rt": -1, "trial_type": "single-stim", "word": "leg", "stimulus": "<p id=\"stim\">LEG</p>", "conditions": [24, 800, "v", 12000], "internal_node_id": "0.0-172.0", "trial": 7, "time_elapsed": 1188893, "serialpos": 3, "key_press": -1, "wordID": 808, "type": "PRES_VIS", "trial_index": 244}, "uniqueid": "MTK1399:3WQQ9FUS6B1NIGTP2I989RM6EDC8BQ", "dateTime": 1515874076187}, {"current_trial": 245, "trialdata": {"rt": -1, "trial_type": "single-stim", "word": "ankle", "stimulus": "<p id=\"stim\">ANKLE</p>", "conditions": [24, 800, "v", 12000], "internal_node_id": "0.0-173.0", "trial": 7, "time_elapsed": 1190689, "serialpos": 4, "key_press": -1, "wordID": 23, "type": "PRES_VIS", "trial_index": 245}, "uniqueid": "MTK1399:3WQQ9FUS6B1NIGTP2I989RM6EDC8BQ", "dateTime": 1515874077984}, {"current_trial": 246, "trialdata": {"rt": -1, "trial_type": "single-stim", "word": "flower", "stimulus": "<p id=\"stim\">FLOWER</p>", "conditions": [24, 800, "v", 12000], "internal_node_id": "0.0-174.0", "trial": 7, "time_elapsed": 1192436, "serialpos": 5, "key_press": -1, "wordID": 583, "type": "PRES_VIS", "trial_index": 246}, "uniqueid": "MTK1399:3WQQ9FUS6B1NIGTP2I989RM6EDC8BQ", "dateTime": 1515874079731}, {"current_trial": 247, "trialdata": {"rt": -1, "trial_type": "single-stim", "word": "pliers", "stimulus": "<p id=\"stim\">PLIERS</p>", "conditions": [24, 800, "v", 12000], "internal_node_id": "0.0-175.0", "trial": 7, "time_elapsed": 1194273, "serialpos": 6, "key_press": -1, "wordID": 1088, "type": "PRES_VIS", "trial_index": 247}, "uniqueid": "MTK1399:3WQQ9FUS6B1NIGTP2I989RM6EDC8BQ", "dateTime": 1515874081567}, {"current_trial": 248, "trialdata": {"rt": -1, "trial_type": "single-stim", "word": "witness", "stimulus": "<p id=\"stim\">WITNESS</p>", "conditions": [24, 800, "v", 12000], "internal_node_id": "0.0-176.0", "trial": 7, "time_elapsed": 1196183, "serialpos": 7, "key_press": -1, "wordID": 1617, "type": "PRES_VIS", "trial_index": 248}, "uniqueid": "MTK1399:3WQQ9FUS6B1NIGTP2I989RM6EDC8BQ", "dateTime": 1515874083478}, {"current_trial": 249, "trialdata": {"rt": -1, "trial_type": "single-stim", "word": "sibling", "stimulus": "<p id=\"stim\">SIBLING</p>", "conditions": [24, 800, "v", 12000], "internal_node_id": "0.0-177.0", "trial": 7, "time_elapsed": 1197925, "serialpos": 8, "key_press": -1, "wordID": 1300, "type": "PRES_VIS", "trial_index": 249}, "uniqueid": "MTK1399:3WQQ9FUS6B1NIGTP2I989RM6EDC8BQ", "dateTime": 1515874085219}, {"current_trial": 250, "trialdata": {"rt": -1, "trial_type": "single-stim", "word": "powder", "stimulus": "<p id=\"stim\">POWDER</p>", "conditions": [24, 800, "v", 12000], "internal_node_id": "0.0-178.0", "trial": 7, "time_elapsed": 1199707, "serialpos": 9, "key_press": -1, "wordID": 1116, "type": "PRES_VIS", "trial_index": 250}, "uniqueid": "MTK1399:3WQQ9FUS6B1NIGTP2I989RM6EDC8BQ", "dateTime": 1515874087002}, {"current_trial": 251, "trialdata": {"rt": -1, "trial_type": "single-stim", "word": "machine", "stimulus": "<p id=\"stim\">MACHINE</p>", "conditions": [24, 800, "v", 12000], "internal_node_id": "0.0-179.0", "trial": 7, "time_elapsed": 1201374, "serialpos": 10, "key_press": -1, "wordID": 851, "type": "PRES_VIS", "trial_index": 251}, "uniqueid": "MTK1399:3WQQ9FUS6B1NIGTP2I989RM6EDC8BQ", "dateTime": 1515874088668}, {"current_trial": 252, "trialdata": {"rt": -1, "trial_type": "single-stim", "word": "fungus", "stimulus": "<p id=\"stim\">FUNGUS</p>", "conditions": [24, 800, "v", 12000], "internal_node_id": "0.0-180.0", "trial": 7, "time_elapsed": 1203373, "serialpos": 11, "key_press": -1, "wordID": 613, "type": "PRES_VIS", "trial_index": 252}, "uniqueid": "MTK1399:3WQQ9FUS6B1NIGTP2I989RM6EDC8BQ", "dateTime": 1515874090668}, {"current_trial": 253, "trialdata": {"rt": -1, "trial_type": "single-stim", "word": "paddle", "stimulus": "<p id=\"stim\">PADDLE</p>", "conditions": [24, 800, "v", 12000], "internal_node_id": "0.0-181.0", "trial": 7, "time_elapsed": 1204991, "serialpos": 12, "key_press": -1, "wordID": 999, "type": "PRES_VIS", "trial_index": 253}, "uniqueid": "MTK1399:3WQQ9FUS6B1NIGTP2I989RM6EDC8BQ", "dateTime": 1515874092286}, {"current_trial": 254, "trialdata": {"rt": -1, "trial_type": "single-stim", "word": "fiddle", "stimulus": "<p id=\"stim\">FIDDLE</p>", "conditions": [24, 800, "v", 12000], "internal_node_id": "0.0-182.0", "trial": 7, "time_elapsed": 1206865, "serialpos": 13, "key_press": -1, "wordID": 560, "type": "PRES_VIS", "trial_index": 254}, "uniqueid": "MTK1399:3WQQ9FUS6B1NIGTP2I989RM6EDC8BQ", "dateTime": 1515874094160}, {"current_trial": 255, "trialdata": {"rt": -1, "trial_type": "single-stim", "word": "glass", "stimulus": "<p id=\"stim\">GLASS</p>", "conditions": [24, 800, "v", 12000], "internal_node_id": "0.0-183.0", "trial": 7, "time_elapsed": 1208672, "serialpos": 14, "key_press": -1, "wordID": 638, "type": "PRES_VIS", "trial_index": 255}, "uniqueid": "MTK1399:3WQQ9FUS6B1NIGTP2I989RM6EDC8BQ", "dateTime": 1515874095967}, {"current_trial": 256, "trialdata": {"rt": -1, "trial_type": "single-stim", "word": "barrel", "stimulus": "<p id=\"stim\">BARREL</p>", "conditions": [24, 800, "v", 12000], "internal_node_id": "0.0-184.0", "trial": 7, "time_elapsed": 1210409, "serialpos": 15, "key_press": -1, "wordID": 90, "type": "PRES_VIS", "trial_index": 256}, "uniqueid": "MTK1399:3WQQ9FUS6B1NIGTP2I989RM6EDC8BQ", "dateTime": 1515874097704}, {"current_trial": 257, "trialdata": {"rt": -1, "trial_type": "single-stim",