{"assignmentId": "3EF8EXOTT22BPZ7GRPDAS5IB9IIJ1I", "workerId": "MTK1784", "questiondata": {"origin": "United States", "strat-rehearsal": "23", "marital": "Married/Domestic Partnership", "education": "Some college", "ethnicity": "Not Hispanic", "color_depth": 24, "distracted": "No", "wrote-notes": "No", "strat-other": "", "screen_width": 1366, "avail_screen_width": 1366, "avail_screen_height": 728, "strat-image": "6", "language": "english", "gender": "Male", "age": "53", "gender_other": "", "race": ["White"], "strat-categorize": "28", "pixel_depth": 24, "strat-spatial": "14", "strat-story": "59", "race_other": "", "screen_height": 768}, "bonus": 0, "hitId": "3UZUVSO3P72YNO9JG8GFQXX2KP1ME7", "counterbalance": 543, "useragent": "Mozilla/5.0 (Windows NT 10.0; Win64; x64) AppleWebKit/537.36 (KHTML, like Gecko) Chrome/63.0.3239.132 Safari/537.36", "eventdata": [{"eventtype": "initialized", "interval": 0, "value": null, "timestamp": 1516299126047}, {"eventtype": "window_resize", "interval": 0, "value": [1366, 721], "timestamp": 1516299126047}, {"eventtype": "focus", "interval": 11186, "value": "off", "timestamp": 1516299137233}, {"eventtype": "focus", "interval": 14777, "value": "on", "timestamp": 1516299152010}, {"eventtype": "focus", "interval": 26344, "value": "off", "timestamp": 1516299178354}, {"eventtype": "focus", "interval": 16132, "value": "on", "timestamp": 1516299194486}, {"eventtype": "window_resize", "interval": 9566, "value": [1366, 677], "timestamp": 1516299204052}, {"eventtype": "window_resize", "interval": 1687, "value": [1366, 721], "timestamp": 1516299205739}, {"eventtype": "focus", "interval": 11088, "value": "off", "timestamp": 1516299216827}, {"eventtype": "focus", "interval": 872, "value": "on", "timestamp": 1516299217699}], "data": [{"current_trial": 0, "trialdata": {"rt": 2358, "trial_type": "text", "internal_node_id": "0.0-0.0", "time_elapsed": 2362, "key_press": 32, "type": "INSTRUCTIONS", "trial_index": 0}, "uniqueid": "MTK1784:3EF8EXOTT22BPZ7GRPDAS5IB9IIJ1I", "dateTime": 1516299128928}, {"current_trial": 1, "trialdata": {"rt": 24313, "trial_type": "text", "internal_node_id": "0.0-1.0", "time_elapsed": 26679, "key_press": 32, "type": "INSTRUCTIONS", "trial_index": 1}, "uniqueid": "MTK1784:3EF8EXOTT22BPZ7GRPDAS5IB9IIJ1I", "dateTime": 1516299153244}, {"current_trial": 2, "trialdata": {"rt": [66731], "trial_type": "audio-test", "responses": ["ocean"], "internal_node_id": "0.0-2.0", "time_elapsed": 93468, "type": "AUDIO_TEST", "trial_index": 2}, "uniqueid": "MTK1784:3EF8EXOTT22BPZ7GRPDAS5IB9IIJ1I", "dateTime": 1516299220033}, {"current_trial": 3, "trialdata": {"rt": [7193], "trial_type": "audio-test", "responses": ["crystal"], "internal_node_id": "0.0-3.0", "time_elapsed": 100669, "type": "AUDIO_TEST", "trial_index": 3}, "uniqueid": "MTK1784:3EF8EXOTT22BPZ7GRPDAS5IB9IIJ1I", "dateTime": 1516299227235}, {"current_trial": 4, "trialdata": {"rt": [8683], "trial_type": "audio-test", "responses": ["spice"], "internal_node_id": "0.0-4.0", "time_elapsed": 109360, "type": "AUDIO_TEST", "trial_index": 4}, "uniqueid": "MTK1784:3EF8EXOTT22BPZ7GRPDAS5IB9IIJ1I", "dateTime": 1516299235926}, {"current_trial": 5, "trialdata": {"rt": 16980, "trial_type": "survey-text", "responses": "{\"Q0\":\"2am\",\"Q1\":\"9am\",\"Q2\":\"3\"}", "internal_node_id": "0.0-5.0", "time_elapsed": 127097, "type": "SLEEP_SURVEY", "trial_index": 5}, "uniqueid": "MTK1784:3EF8EXOTT22BPZ7GRPDAS5IB9IIJ1I", "dateTime": 1516299253662}, {"current_trial": 6, "trialdata": {"rt": 33996, "trial_type": "text", "internal_node_id": "0.0-6.0", "time_elapsed": 162095, "key_press": 32, "type": "INSTRUCTIONS", "trial_index": 6}, "uniqueid": "MTK1784:3EF8EXOTT22BPZ7GRPDAS5IB9IIJ1I", "dateTime": 1516299288661}, {"current_trial": 7, "trialdata": {"rt": 16525, "trial_type": "text", "internal_node_id": "0.0-7.0", "time_elapsed": 179122, "key_press": 32, "type": "INSTRUCTIONS", "trial_index": 7}, "uniqueid": "MTK1784:3EF8EXOTT22BPZ7GRPDAS5IB9IIJ1I", "dateTime": 1516299305687}, {"current_trial": 8, "trialdata": {"rt": 6233, "trial_type": "text", "internal_node_id": "0.0-8.0", "time_elapsed": 185855, "key_press": 32, "type": "INSTRUCTIONS", "trial_index": 8}, "uniqueid": "MTK1784:3EF8EXOTT22BPZ7GRPDAS5IB9IIJ1I", "dateTime": 1516299312421}, {"current_trial": 9, "trialdata": {"rt": [7367, 12642, 17164], "trial_type": "math-distractor", "key_times": [5923, 6319, 7367, 11700, 11989, 12642, 15888, 16660, 17164], "responses": ["19", "15", "16"], "num2": [8, 4, 6, 5], "num3": [9, 2, 5, 3], "conditions": [18, 1200, "v", 18000], "internal_node_id": "0.0-9.0", "key_presses": [49, 57, 13, 49, 53, 13, 49, 54, 13], "trial": 0, "time_elapsed": 204866, "type": "DISTRACTOR", "trial_index": 9, "num1": [2, 9, 5, 6]}, "uniqueid": "MTK1784:3EF8EXOTT22BPZ7GRPDAS5IB9IIJ1I", "dateTime": 1516299331431}, {"current_trial": 10, "trialdata": {"rt": -1, "trial_type": "single-stim", "stimulus": "<p id=\"stim\">10</p>", "internal_node_id": "0.0-10.0-0.0", "time_elapsed": 207870, "key_press": -1, "trial_index": 10}, "uniqueid": "MTK1784:3EF8EXOTT22BPZ7GRPDAS5IB9IIJ1I", "dateTime": 1516299334435}, {"current_trial": 11, "trialdata": {"rt": -1, "trial_type": "single-stim", "stimulus": "<p id=\"stim\">9</p>", "internal_node_id": "0.0-10.0-1.0", "time_elapsed": 208873, "key_press": -1, "trial_index": 11}, "uniqueid": "MTK1784:3EF8EXOTT22BPZ7GRPDAS5IB9IIJ1I", "dateTime": 1516299335438}, {"current_trial": 12, "trialdata": {"rt": -1, "trial_type": "single-stim", "stimulus": "<p id=\"stim\">8</p>", "internal_node_id": "0.0-10.0-2.0", "time_elapsed": 209876, "key_press": -1, "trial_index": 12}, "uniqueid": "MTK1784:3EF8EXOTT22BPZ7GRPDAS5IB9IIJ1I", "dateTime": 1516299336441}, {"current_trial": 13, "trialdata": {"rt": -1, "trial_type": "single-stim", "stimulus": "<p id=\"stim\">7</p>", "internal_node_id": "0.0-10.0-3.0", "time_elapsed": 210880, "key_press": -1, "trial_index": 13}, "uniqueid": "MTK1784:3EF8EXOTT22BPZ7GRPDAS5IB9IIJ1I", "dateTime": 1516299337445}, {"current_trial": 14, "trialdata": {"rt": -1, "trial_type": "single-stim", "stimulus": "<p id=\"stim\">6</p>", "internal_node_id": "0.0-10.0-4.0", "time_elapsed": 211882, "key_press": -1, "trial_index": 14}, "uniqueid": "MTK1784:3EF8EXOTT22BPZ7GRPDAS5IB9IIJ1I", "dateTime": 1516299338447}, {"current_trial": 15, "trialdata": {"rt": -1, "trial_type": "single-stim", "stimulus": "<p id=\"stim\">5</p>", "internal_node_id": "0.0-10.0-5.0", "time_elapsed": 212885, "key_press": -1, "trial_index": 15}, "uniqueid": "MTK1784:3EF8EXOTT22BPZ7GRPDAS5IB9IIJ1I", "dateTime": 1516299339450}, {"current_trial": 16, "trialdata": {"rt": -1, "trial_type": "single-stim", "stimulus": "<p id=\"stim\">4</p>", "internal_node_id": "0.0-10.0-6.0", "time_elapsed": 213887, "key_press": -1, "trial_index": 16}, "uniqueid": "MTK1784:3EF8EXOTT22BPZ7GRPDAS5IB9IIJ1I", "dateTime": 1516299340452}, {"current_trial": 17, "trialdata": {"rt": -1, "trial_type": "single-stim", "stimulus": "<p id=\"stim\">3</p>", "internal_node_id": "0.0-10.0-7.0", "time_elapsed": 214889, "key_press": -1, "trial_index": 17}, "uniqueid": "MTK1784:3EF8EXOTT22BPZ7GRPDAS5IB9IIJ1I", "dateTime": 1516299341454}, {"current_trial": 18, "trialdata": {"rt": -1, "trial_type": "single-stim", "stimulus": "<p id=\"stim\">2</p>", "internal_node_id": "0.0-10.0-8.0", "time_elapsed": 215891, "key_press": -1, "trial_index": 18}, "uniqueid": "MTK1784:3EF8EXOTT22BPZ7GRPDAS5IB9IIJ1I", "dateTime": 1516299342457}, {"current_trial": 19, "trialdata": {"rt": -1, "trial_type": "single-stim", "stimulus": "<p id=\"stim\">1</p>", "internal_node_id": "0.0-10.0-9.0", "time_elapsed": 216893, "key_press": -1, "trial_index": 19}, "uniqueid": "MTK1784:3EF8EXOTT22BPZ7GRPDAS5IB9IIJ1I", "dateTime": 1516299343459}, {"current_trial": 20, "trialdata": {"rt": -1, "trial_type": "single-stim", "stimulus": "<p id=\"stim\">+</p>", "internal_node_id": "0.0-11.0-0.0", "time_elapsed": 218396, "key_press": -1, "type": "FIXATION", "trial_index": 20}, "uniqueid": "MTK1784:3EF8EXOTT22BPZ7GRPDAS5IB9IIJ1I", "dateTime": 1516299344961}, {"current_trial": 21, "trialdata": {"rt": -1, "trial_type": "single-stim", "word": "lover", "stimulus": "<p id=\"stim\">LOVER</p>", "conditions": [18, 1200, "v", 18000], "internal_node_id": "0.0-12.0", "trial": 0, "time_elapsed": 219598, "serialpos": 0, "key_press": -1, "wordID": 845, "type": "PRES_VIS", "trial_index": 21}, "uniqueid": "MTK1784:3EF8EXOTT22BPZ7GRPDAS5IB9IIJ1I", "dateTime": 1516299346163}, {"current_trial": 22, "trialdata": {"rt": -1, "trial_type": "single-stim", "word": "barrel", "stimulus": "<p id=\"stim\">BARREL</p>", "conditions": [18, 1200, "v", 18000], "internal_node_id": "0.0-13.0", "trial": 0, "time_elapsed": 221780, "serialpos": 1, "key_press": -1, "wordID": 90, "type": "PRES_VIS", "trial_index": 22}, "uniqueid": "MTK1784:3EF8EXOTT22BPZ7GRPDAS5IB9IIJ1I", "dateTime": 1516299348345}, {"current_trial": 23, "trialdata": {"rt": -1, "trial_type": "single-stim", "word": "brick", "stimulus": "<p id=\"stim\">BRICK</p>", "conditions": [18, 1200, "v", 18000], "internal_node_id": "0.0-14.0", "trial": 0, "time_elapsed": 223888, "serialpos": 2, "key_press": -1, "wordID": 171, "type": "PRES_VIS", "trial_index": 23}, "uniqueid": "MTK1784:3EF8EXOTT22BPZ7GRPDAS5IB9IIJ1I", "dateTime": 1516299350453}, {"current_trial": 24, "trialdata": {"rt": -1, "trial_type": "single-stim", "word": "trombone", "stimulus": "<p id=\"stim\">TROMBONE</p>", "conditions": [18, 1200, "v", 18000], "internal_node_id": "0.0-15.0", "trial": 0, "time_elapsed": 226067, "serialpos": 3, "key_press": -1, "wordID": 1507, "type": "PRES_VIS", "trial_index": 24}, "uniqueid": "MTK1784:3EF8EXOTT22BPZ7GRPDAS5IB9IIJ1I", "dateTime": 1516299352632}, {"current_trial": 25, "trialdata": {"rt": -1, "trial_type": "single-stim", "word": "stone", "stimulus": "<p id=\"stim\">STONE</p>", "conditions": [18, 1200, "v", 18000], "internal_node_id": "0.0-16.0", "trial": 0, "time_elapsed": 228346, "serialpos": 4, "key_press": -1, "wordID": 1384, "type": "PRES_VIS", "trial_index": 25}, "uniqueid": "MTK1784:3EF8EXOTT22BPZ7GRPDAS5IB9IIJ1I", "dateTime": 1516299354911}, {"current_trial": 26, "trialdata": {"rt": -1, "trial_type": "single-stim", "word": "termite", "stimulus": "<p id=\"stim\">TERMITE</p>", "conditions": [18, 1200, "v", 18000], "internal_node_id": "0.0-17.0", "trial": 0, "time_elapsed": 230709, "serialpos": 5, "key_press": -1, "wordID": 1450, "type": "PRES_VIS", "trial_index": 26}, "uniqueid": "MTK1784:3EF8EXOTT22BPZ7GRPDAS5IB9IIJ1I", "dateTime": 1516299357274}, {"current_trial": 27, "trialdata": {"rt": -1, "trial_type": "single-stim", "word": "summit", "stimulus": "<p id=\"stim\">SUMMIT</p>", "conditions": [18, 1200, "v", 18000], "internal_node_id": "0.0-18.0", "trial": 0, "time_elapsed": 232943, "serialpos": 6, "key_press": -1, "wordID": 1404, "type": "PRES_VIS", "trial_index": 27}, "uniqueid": "MTK1784:3EF8EXOTT22BPZ7GRPDAS5IB9IIJ1I", "dateTime": 1516299359508}, {"current_trial": 28, "trialdata": {"rt": -1, "trial_type": "single-stim", "word": "drawing", "stimulus": "<p id=\"stim\">DRAWING</p>", "conditions": [18, 1200, "v", 18000], "internal_node_id": "0.0-19.0", "trial": 0, "time_elapsed": 235181, "serialpos": 7, "key_press": -1, "wordID": 493, "type": "PRES_VIS", "trial_index": 28}, "uniqueid": "MTK1784:3EF8EXOTT22BPZ7GRPDAS5IB9IIJ1I", "dateTime": 1516299361746}, {"current_trial": 29, "trialdata": {"rt": -1, "trial_type": "single-stim", "word": "shortcake", "stimulus": "<p id=\"stim\">SHORTCAKE</p>", "conditions": [18, 1200, "v", 18000], "internal_node_id": "0.0-20.0", "trial": 0, "time_elapsed": 237497, "serialpos": 8, "key_press": -1, "wordID": 1291, "type": "PRES_VIS", "trial_index": 29}, "uniqueid": "MTK1784:3EF8EXOTT22BPZ7GRPDAS5IB9IIJ1I", "dateTime": 1516299364062}, {"current_trial": 30, "trialdata": {"rt": -1, "trial_type": "single-stim", "word": "paddle", "stimulus": "<p id=\"stim\">PADDLE</p>", "conditions": [18, 1200, "v", 18000], "internal_node_id": "0.0-21.0", "trial": 0, "time_elapsed": 239796, "serialpos": 9, "key_press": -1, "wordID": 999, "type": "PRES_VIS", "trial_index": 30}, "uniqueid": "MTK1784:3EF8EXOTT22BPZ7GRPDAS5IB9IIJ1I", "dateTime": 1516299366361}, {"current_trial": 31, "trialdata": {"rt": -1, "trial_type": "single-stim", "word": "lake", "stimulus": "<p id=\"stim\">LAKE</p>", "conditions": [18, 1200, "v", 18000], "internal_node_id": "0.0-22.0", "trial": 0, "time_elapsed": 242045, "serialpos": 10, "key_press": -1, "wordID": 795, "type": "PRES_VIS", "trial_index": 31}, "uniqueid": "MTK1784:3EF8EXOTT22BPZ7GRPDAS5IB9IIJ1I", "dateTime": 1516299368611}, {"current_trial": 32, "trialdata": {"rt": -1, "trial_type": "single-stim", "word": "pudding", "stimulus": "<p id=\"stim\">PUDDING</p>", "conditions": [18, 1200, "v", 18000], "internal_node_id": "0.0-23.0", "trial": 0, "time_elapsed": 244136, "serialpos": 11, "key_press": -1, "wordID": 1138, "type": "PRES_VIS", "trial_index": 32}, "uniqueid": "MTK1784:3EF8EXOTT22BPZ7GRPDAS5IB9IIJ1I", "dateTime": 1516299370701}, {"current_trial": 33, "trialdata": {"rt": -1, "trial_type": "single-stim", "word": "flute", "stimulus": "<p id=\"stim\">FLUTE</p>", "conditions": [18, 1200, "v", 18000], "internal_node_id": "0.0-24.0", "trial": 0, "time_elapsed": 246159, "serialpos": 12, "key_press": -1, "wordID": 584, "type": "PRES_VIS", "trial_index": 33}, "uniqueid": "MTK1784:3EF8EXOTT22BPZ7GRPDAS5IB9IIJ1I", "dateTime": 1516299372724}, {"current_trial": 34, "trialdata": {"rt": -1, "trial_type": "single-stim", "word": "chest", "stimulus": "<p id=\"stim\">CHEST</p>", "conditions": [18, 1200, "v", 18000], "internal_node_id": "0.0-25.0", "trial": 0, "time_elapsed": 248553, "serialpos": 13, "key_press": -1, "wordID": 294, "type": "PRES_VIS", "trial_index": 34}, "uniqueid": "MTK1784:3EF8EXOTT22BPZ7GRPDAS5IB9IIJ1I", "dateTime": 1516299375119}, {"current_trial": 35, "trialdata": {"rt": -1, "trial_type": "single-stim", "word": "snack", "stimulus": "<p id=\"stim\">SNACK</p>", "conditions": [18, 1200, "v", 18000], "internal_node_id": "0.0-26.0", "trial": 0, "time_elapsed": 250596, "serialpos": 14, "key_press": -1, "wordID": 1330, "type": "PRES_VIS", "trial_index": 35}, "uniqueid": "MTK1784:3EF8EXOTT22BPZ7GRPDAS5IB9IIJ1I", "dateTime": 1516299377161}, {"current_trial": 36, "trialdata": {"rt": -1, "trial_type": "single-stim", "word": "river", "stimulus": "<p id=\"stim\">RIVER</p>", "conditions": [18, 1200, "v", 18000], "internal_node_id": "0.0-27.0", "trial": 0, "time_elapsed": 252950, "serialpos": 15, "key_press": -1, "wordID": 1193, "type": "PRES_VIS", "trial_index": 36}, "uniqueid": "MTK1784:3EF8EXOTT22BPZ7GRPDAS5IB9IIJ1I", "dateTime": 1516299379516}, {"current_trial": 37, "trialdata": {"rt": -1, "trial_type": "single-stim", "word": "crown", "stimulus": "<p id=\"stim\">CROWN</p>", "conditions": [18, 1200, "v", 18000], "internal_node_id": "0.0-28.0", "trial": 0, "time_elapsed": 255222, "serialpos": 16, "key_press": -1, "wordID": 414, "type": "PRES_VIS", "trial_index": 37}, "uniqueid": "MTK1784:3EF8EXOTT22BPZ7GRPDAS5IB9IIJ1I", "dateTime": 1516299381788}, {"current_trial": 38, "trialdata": {"rt": -1, "trial_type": "single-stim", "word": "parrot", "stimulus": "<p id=\"stim\">PARROT</p>", "conditions": [18, 1200, "v", 18000], "internal_node_id": "0.0-29.0", "trial": 0, "time_elapsed": 257402, "serialpos": 17, "key_press": -1, "wordID": 1014, "type": "PRES_VIS", "trial_index": 38}, "uniqueid": "MTK1784:3EF8EXOTT22BPZ7GRPDAS5IB9IIJ1I", "dateTime": 1516299383967}, {"current_trial": 39, "trialdata": {"rt": -1, "trial_type": "single-stim", "stimulus": "", "internal_node_id": "0.0-30.0-0.0", "time_elapsed": 259739, "key_press": -1, "type": "PRE_RECALL_DELAY", "trial_index": 39}, "uniqueid": "MTK1784:3EF8EXOTT22BPZ7GRPDAS5IB9IIJ1I", "dateTime": 1516299386305}, {"current_trial": 40, "trialdata": {"rt": -1000, "trial_type": "single-audio", "stimulus": "/static/audio/400Hz.wav", "internal_node_id": "0.0-31.0", "time_elapsed": 260243, "key_press": -1, "type": "PRE_RECALL_ALERT", "trial_index": 40}, "uniqueid": "MTK1784:3EF8EXOTT22BPZ7GRPDAS5IB9IIJ1I", "dateTime": 1516299386808}, {"current_trial": 41, "trialdata": {"rt": [4627, 6372, 8353, 14699, 18617, 19965, 21839, 23905, 27858], "recwords": ["river", "crown", "parrot", "shortcake", "brick", "lover", "barrel", "brick", "trombone"], "key_times": [1571, 1815, 2740, 3761, 3880, 4061, 4232, 4627, 5171, 5410, 5646, 5792, 5991, 6372, 6697, 7006, 7256, 7404, 7754, 8015, 8353, 10697, 10879, 11108, 11252, 12545, 13685, 13863, 14018, 14198, 14699, 17409, 17627, 17878, 18095, 18254, 18617, 18920, 19111, 19299, 19503, 19671, 19965, 20502, 20628, 20864, 21019, 21309, 21451, 21839, 22491, 22689, 22904, 23296, 23472, 23905, 26017, 26248, 26411, 26641, 26966, 27079, 27292, 27573, 27858], "trial_type": "free-recall", "conditions": [18, 1200, "v", 18000], "internal_node_id": "0.0-32.0-0.0", "key_presses": [82, 73, 8, 73, 86, 69, 82, 13, 67, 82, 79, 87, 78, 13, 80, 65, 82, 82, 79, 84, 13, 83, 72, 79, 82, 84, 67, 65, 75, 69, 13, 66, 82, 73, 67, 75, 13, 76, 79, 86, 69, 82, 13, 66, 65, 82, 82, 69, 76, 13, 66, 82, 73, 67, 75, 13, 84, 82, 79, 77, 66, 79, 78, 69, 13], "trial": 0, "time_elapsed": 320249, "type": "FREE_RECALL", "trial_index": 41}, "uniqueid": "MTK1784:3EF8EXOTT22BPZ7GRPDAS5IB9IIJ1I", "dateTime": 1516299446818}, {"current_trial": 42, "trialdata": {"rt": 1560, "trial_type": "text", "internal_node_id": "0.0-33.0", "time_elapsed": 323815, "key_press": 32, "type": "INSTRUCTIONS", "trial_index": 42}, "uniqueid": "MTK1784:3EF8EXOTT22BPZ7GRPDAS5IB9IIJ1I", "dateTime": 1516299450380}, {"current_trial": 43, "trialdata": {"rt": [3027, 6483, 9158, 11966, 15451], "trial_type": "math-distractor", "key_times": [2125, 2296, 3027, 5877, 6062, 6483, 8587, 8740, 9158, 10884, 11397, 11966, 14733, 15104, 15451], "responses": ["10", "17", "18", "16", "16"], "num2": [4, 2, 9, 6, 8, 3], "num3": [2, 9, 2, 5, 3, 4], "conditions": [18, 1200, "v", 18000], "internal_node_id": "0.0-34.0", "key_presses": [49, 48, 13, 49, 55, 13, 49, 56, 13, 49, 54, 13, 49, 54, 13], "trial": 1, "time_elapsed": 343821, "type": "DISTRACTOR", "trial_index": 43, "num1": [4, 6, 7, 2, 5, 8]}, "uniqueid": "MTK1784:3EF8EXOTT22BPZ7GRPDAS5IB9IIJ1I", "dateTime": 1516299470386}, {"current_trial": 44, "trialdata": {"rt": -1, "trial_type": "single-stim", "stimulus": "<p id=\"stim\">10</p>", "internal_node_id": "0.0-35.0-0.0", "time_elapsed": 346825, "key_press": -1, "trial_index": 44}, "uniqueid": "MTK1784:3EF8EXOTT22BPZ7GRPDAS5IB9IIJ1I", "dateTime": 1516299473391}, {"current_trial": 45, "trialdata": {"rt": -1, "trial_type": "single-stim", "stimulus": "<p id=\"stim\">9</p>", "internal_node_id": "0.0-35.0-1.0", "time_elapsed": 347827, "key_press": -1, "trial_index": 45}, "uniqueid": "MTK1784:3EF8EXOTT22BPZ7GRPDAS5IB9IIJ1I", "dateTime": 1516299474392}, {"current_trial": 46, "trialdata": {"rt": -1, "trial_type": "single-stim", "stimulus": "<p id=\"stim\">8</p>", "internal_node_id": "0.0-35.0-2.0", "time_elapsed": 348830, "key_press": -1, "trial_index": 46}, "uniqueid": "MTK1784:3EF8EXOTT22BPZ7GRPDAS5IB9IIJ1I", "dateTime": 1516299475395}, {"current_trial": 47, "trialdata": {"rt": -1, "trial_type": "single-stim", "stimulus": "<p id=\"stim\">7</p>", "internal_node_id": "0.0-35.0-3.0", "time_elapsed": 349832, "key_press": -1, "trial_index": 47}, "uniqueid": "MTK1784:3EF8EXOTT22BPZ7GRPDAS5IB9IIJ1I", "dateTime": 1516299476397}, {"current_trial": 48, "trialdata": {"rt": -1, "trial_type": "single-stim", "stimulus": "<p id=\"stim\">6</p>", "internal_node_id": "0.0-35.0-4.0", "time_elapsed": 350834, "key_press": -1, "trial_index": 48}, "uniqueid": "MTK1784:3EF8EXOTT22BPZ7GRPDAS5IB9IIJ1I", "dateTime": 1516299477399}, {"current_trial": 49, "trialdata": {"rt": -1, "trial_type": "single-stim", "stimulus": "<p id=\"stim\">5</p>", "internal_node_id": "0.0-35.0-5.0", "time_elapsed": 351836, "key_press": -1, "trial_index": 49}, "uniqueid": "MTK1784:3EF8EXOTT22BPZ7GRPDAS5IB9IIJ1I", "dateTime": 1516299478401}, {"current_trial": 50, "trialdata": {"rt": -1, "trial_type": "single-stim", "stimulus": "<p id=\"stim\">4</p>", "internal_node_id": "0.0-35.0-6.0", "time_elapsed": 352838, "key_press": -1, "trial_index": 50}, "uniqueid": "MTK1784:3EF8EXOTT22BPZ7GRPDAS5IB9IIJ1I", "dateTime": 1516299479404}, {"current_trial": 51, "trialdata": {"rt": -1, "trial_type": "single-stim", "stimulus": "<p id=\"stim\">3</p>", "internal_node_id": "0.0-35.0-7.0", "time_elapsed": 353840, "key_press": -1, "trial_index": 51}, "uniqueid": "MTK1784:3EF8EXOTT22BPZ7GRPDAS5IB9IIJ1I", "dateTime": 1516299480405}, {"current_trial": 52, "trialdata": {"rt": -1, "trial_type": "single-stim", "stimulus": "<p id=\"stim\">2</p>", "internal_node_id": "0.0-35.0-8.0", "time_elapsed": 354841, "key_press": -1, "trial_index": 52}, "uniqueid": "MTK1784:3EF8EXOTT22BPZ7GRPDAS5IB9IIJ1I", "dateTime": 1516299481407}, {"current_trial": 53, "trialdata": {"rt": -1, "trial_type": "single-stim", "stimulus": "<p id=\"stim\">1</p>", "internal_node_id": "0.0-35.0-9.0", "time_elapsed": 355844, "key_press": -1, "trial_index": 53}, "uniqueid": "MTK1784:3EF8EXOTT22BPZ7GRPDAS5IB9IIJ1I", "dateTime": 1516299482409}, {"current_trial": 54, "trialdata": {"rt": -1, "trial_type": "single-stim", "stimulus": "<p id=\"stim\">+</p>", "internal_node_id": "0.0-36.0-0.0", "time_elapsed": 357346, "key_press": -1, "type": "FIXATION", "trial_index": 54}, "uniqueid": "MTK1784:3EF8EXOTT22BPZ7GRPDAS5IB9IIJ1I", "dateTime": 1516299483912}, {"current_trial": 55, "trialdata": {"rt": -1, "trial_type": "single-stim", "word": "sunset", "stimulus": "<p id=\"stim\">SUNSET</p>", "conditions": [18, 1200, "v", 18000], "internal_node_id": "0.0-37.0", "trial": 1, "time_elapsed": 358549, "serialpos": 0, "key_press": -1, "wordID": 1407, "type": "PRES_VIS", "trial_index": 55}, "uniqueid": "MTK1784:3EF8EXOTT22BPZ7GRPDAS5IB9IIJ1I", "dateTime": 1516299485114}, {"current_trial": 56, "trialdata": {"rt": -1, "trial_type": "single-stim", "word": "hawk", "stimulus": "<p id=\"stim\">HAWK</p>", "conditions": [18, 1200, "v", 18000], "internal_node_id": "0.0-38.0", "trial": 1, "time_elapsed": 360773, "serialpos": 1, "key_press": -1, "wordID": 691, "type": "PRES_VIS", "trial_index": 56}, "uniqueid": "MTK1784:3EF8EXOTT22BPZ7GRPDAS5IB9IIJ1I", "dateTime": 1516299487338}, {"current_trial": 57, "trialdata": {"rt": -1, "trial_type": "single-stim", "word": "church", "stimulus": "<p id=\"stim\">CHURCH</p>", "conditions": [18, 1200, "v", 18000], "internal_node_id": "0.0-39.0", "trial": 1, "time_elapsed": 363050, "serialpos": 2, "key_press": -1, "wordID": 306, "type": "PRES_VIS", "trial_index": 57}, "uniqueid": "MTK1784:3EF8EXOTT22BPZ7GRPDAS5IB9IIJ1I", "dateTime": 1516299489615}, {"current_trial": 58, "trialdata": {"rt": -1, "trial_type": "single-stim", "word": "apron", "stimulus": "<p id=\"stim\">APRON</p>", "conditions": [18, 1200, "v", 18000], "internal_node_id": "0.0-40.0", "trial": 1, "time_elapsed": 365390, "serialpos": 3, "key_press": -1, "wordID": 34, "type": "PRES_VIS", "trial_index": 58}, "uniqueid": "MTK1784:3EF8EXOTT22BPZ7GRPDAS5IB9IIJ1I", "dateTime": 1516299491956}, {"current_trial": 59, "trialdata": {"rt": -1, "trial_type": "single-stim", "word": "beast", "stimulus": "<p id=\"stim\">BEAST</p>", "conditions": [18, 1200, "v", 18000], "internal_node_id": "0.0-41.0", "trial": 1, "time_elapsed": 367561, "serialpos": 4, "key_press": -1, "wordID": 107, "type": "PRES_VIS", "trial_index": 59}, "uniqueid": "MTK1784:3EF8EXOTT22BPZ7GRPDAS5IB9IIJ1I", "dateTime": 1516299494126}, {"current_trial": 60, "trialdata": {"rt": -1, "trial_type": "single-stim", "word": "climber", "stimulus": "<p id=\"stim\">CLIMBER</p>", "conditions": [18, 1200, "v", 18000], "internal_node_id": "0.0-42.0", "trial": 1, "time_elapsed": 369791, "serialpos": 5, "key_press": -1, "wordID": 322, "type": "PRES_VIS", "trial_index": 60}, "uniqueid": "MTK1784:3EF8EXOTT22BPZ7GRPDAS5IB9IIJ1I", "dateTime": 1516299496356}, {"current_trial": 61, "trialdata": {"rt": -1, "trial_type": "single-stim", "word": "lapel", "stimulus": "<p id=\"stim\">LAPEL</p>", "conditions": [18, 1200, "v", 18000], "internal_node_id": "0.0-43.0", "trial": 1, "time_elapsed": 372182, "serialpos": 6, "key_press": -1, "wordID": 799, "type": "PRES_VIS", "trial_index": 61}, "uniqueid": "MTK1784:3EF8EXOTT22BPZ7GRPDAS5IB9IIJ1I", "dateTime": 1516299498748}, {"current_trial": 62, "trialdata": {"rt": -1, "trial_type": "single-stim", "word": "helmet", "stimulus": "<p id=\"stim\">HELMET</p>", "conditions": [18, 1200, "v", 18000], "internal_node_id": "0.0-44.0", "trial": 1, "time_elapsed": 374294, "serialpos": 7, "key_press": -1, "wordID": 701, "type": "PRES_VIS", "trial_index": 62}, "uniqueid": "MTK1784:3EF8EXOTT22BPZ7GRPDAS5IB9IIJ1I", "dateTime": 1516299500859}, {"current_trial": 63, "trialdata": {"rt": -1, "trial_type": "single-stim", "word": "hostess", "stimulus": "<p id=\"stim\">HOSTESS</p>", "conditions": [18, 1200, "v", 18000], "internal_node_id": "0.0-45.0", "trial": 1, "time_elapsed": 376389, "serialpos": 8, "key_press": -1, "wordID": 722, "type": "PRES_VIS", "trial_index": 63}, "uniqueid": "MTK1784:3EF8EXOTT22BPZ7GRPDAS5IB9IIJ1I", "dateTime": 1516299502954}, {"current_trial": 64, "trialdata": {"rt": -1, "trial_type": "single-stim", "word": "burglar", "stimulus": "<p id=\"stim\">BURGLAR</p>", "conditions": [18, 1200, "v", 18000], "internal_node_id": "0.0-46.0", "trial": 1, "time_elapsed": 378418, "serialpos": 9, "key_press": -1, "wordID": 199, "type": "PRES_VIS", "trial_index": 64}, "uniqueid": "MTK1784:3EF8EXOTT22BPZ7GRPDAS5IB9IIJ1I", "dateTime": 1516299504983}, {"current_trial": 65, "trialdata": {"rt": -1, "trial_type": "single-stim", "word": "county", "stimulus": "<p id=\"stim\">COUNTY</p>", "conditions": [18, 1200, "v", 18000], "internal_node_id": "0.0-47.0", "trial": 1, "time_elapsed": 380813, "serialpos": 10, "key_press": -1, "wordID": 388, "type": "PRES_VIS", "trial_index": 65}, "uniqueid": "MTK1784:3EF8EXOTT22BPZ7GRPDAS5IB9IIJ1I", "dateTime": 1516299507379}, {"current_trial": 66, "trialdata": {"rt": -1, "trial_type": "single-stim", "word": "subway", "stimulus": "<p id=\"stim\">SUBWAY</p>", "conditions": [18, 1200, "v", 18000], "internal_node_id": "0.0-48.0", "trial": 1, "time_elapsed": 383039, "serialpos": 11, "key_press": -1, "wordID": 1399, "type": "PRES_VIS", "trial_index": 66}, "uniqueid": "MTK1784:3EF8EXOTT22BPZ7GRPDAS5IB9IIJ1I", "dateTime": 1516299509604}, {"current_trial": 67, "trialdata": {"rt": -1, "trial_type": "single-stim", "word": "yarn", "stimulus": "<p id=\"stim\">YARN</p>", "conditions": [18, 1200, "v", 18000], "internal_node_id": "0.0-49.0", "trial": 1, "time_elapsed": 385199, "serialpos": 12, "key_press": -1, "wordID": 1630, "type": "PRES_VIS", "trial_index": 67}, "uniqueid": "MTK1784:3EF8EXOTT22BPZ7GRPDAS5IB9IIJ1I", "dateTime": 1516299511764}, {"current_trial": 68, "trialdata": {"rt": -1, "trial_type": "single-stim", "word": "forest", "stimulus": "<p id=\"stim\">FOREST</p>", "conditions": [18, 1200, "v", 18000], "internal_node_id": "0.0-50.0", "trial": 1, "time_elapsed": 387229, "serialpos": 13, "key_press": -1, "wordID": 592, "type": "PRES_VIS", "trial_index": 68}, "uniqueid": "MTK1784:3EF8EXOTT22BPZ7GRPDAS5IB9IIJ1I", "dateTime": 1516299513797}, {"current_trial": 69, "trialdata": {"rt": -1, "trial_type": "single-stim", "word": "cricket", "stimulus": "<p id=\"stim\">CRICKET</p>", "conditions": [18, 1200, "v", 18000], "internal_node_id": "0.0-51.0", "trial": 1, "time_elapsed": 389286, "serialpos": 14, "key_press": -1, "wordID": 407, "type": "PRES_VIS", "trial_index": 69}, "uniqueid": "MTK1784:3EF8EXOTT22BPZ7GRPDAS5IB9IIJ1I", "dateTime": 1516299515851}, {"current_trial": 70, "trialdata": {"rt": -1, "trial_type": "single-stim", "word": "dime", "stimulus": "<p id=\"stim\">DIME</p>", "conditions": [18, 1200, "v", 18000], "internal_node_id": "0.0-52.0", "trial": 1, "time_elapsed": 391521, "serialpos": 15, "key_press": -1, "wordID": 465, "type": "PRES_VIS", "trial_index": 70}, "uniqueid": "MTK1784:3EF8EXOTT22BPZ7GRPDAS5IB9IIJ1I", "dateTime": 1516299518086}, {"current_trial": 71, "trialdata": {"rt": -1, "trial_type": "single-stim", "word": "garden", "stimulus": "<p id=\"stim\">GARDEN</p>", "conditions": [18, 1200, "v", 18000], "internal_node_id": "0.0-53.0", "trial": 1, "time_elapsed": 393633, "serialpos": 16, "key_press": -1, "wordID": 622, "type": "PRES_VIS", "trial_index": 71}, "uniqueid": "MTK1784:3EF8EXOTT22BPZ7GRPDAS5IB9IIJ1I", "dateTime": 1516299520198}, {"current_trial": 72, "trialdata": {"rt": -1, "trial_type": "single-stim", "word": "waiter", "stimulus": "<p id=\"stim\">WAITER</p>", "conditions": [18, 1200, "v", 18000], "internal_node_id": "0.0-54.0", "trial": 1, "time_elapsed": 395783, "serialpos": 17, "key_press": -1, "wordID": 1579, "type": "PRES_VIS", "trial_index": 72}, "uniqueid": "MTK1784:3EF8EXOTT22BPZ7GRPDAS5IB9IIJ1I", "dateTime": 1516299522348}, {"current_trial": 73, "trialdata": {"rt": -1, "trial_type": "single-stim", "stimulus": "", "internal_node_id": "0.0-55.0-0.0", "time_elapsed": 398257, "key_press": -1, "type": "PRE_RECALL_DELAY", "trial_index": 73}, "uniqueid": "MTK1784:3EF8EXOTT22BPZ7GRPDAS5IB9IIJ1I", "dateTime": 1516299524823}, {"current_trial": 74, "trialdata": {"rt": -1000, "trial_type": "single-audio", "stimulus": "/static/audio/400Hz.wav", "internal_node_id": "0.0-56.0", "time_elapsed": 398760, "key_press": -1, "type": "PRE_RECALL_ALERT", "trial_index": 74}, "uniqueid": "MTK1784:3EF8EXOTT22BPZ7GRPDAS5IB9IIJ1I", "dateTime": 1516299525325}, {"current_trial": 75, "trialdata": {"rt": [3988, 6762, 9308, 12356, 15452, 16982, 20972, 23218, 25758, 35314, 53476], "recwords": ["garden", "waiter", "dime", "hostess", "climber", "lapel", "sunset", "hawk", "church", "mountain", "forest"], "key_times": [1307, 1498, 1683, 1954, 2109, 2325, 3988, 4406, 4624, 4783, 5092, 5572, 5759, 6762, 8201, 8404, 8644, 8843, 9308, 9943, 10161, 10284, 10529, 10727, 10969, 11414, 12356, 13546, 13695, 13907, 14380, 14719, 14884, 15005, 15452, 15833, 15992, 16205, 16370, 16561, 16982, 18530, 18666, 18890, 19045, 19466, 19736, 20102, 20357, 20972, 21473, 21648, 21845, 22507, 23218, 24338, 24455, 24652, 24834, 25127, 25252, 25758, 33273, 33544, 33796, 34023, 34239, 34469, 34576, 34815, 35314, 50350, 51479, 51683, 52013, 52451, 52640, 52828, 53042, 53476], "trial_type": "free-recall", "conditions": [18, 1200, "v", 18000], "internal_node_id": "0.0-57.0-0.0", "key_presses": [71, 65, 82, 68, 69, 78, 13, 87, 65, 73, 84, 69, 82, 13, 68, 73, 77, 69, 13, 72, 79, 83, 84, 69, 83, 83, 13, 67, 76, 73, 77, 66, 69, 82, 13, 76, 65, 80, 69, 76, 13, 83, 85, 78, 68, 8, 83, 69, 84, 13, 72, 65, 87, 75, 13, 67, 72, 85, 82, 67, 72, 13, 77, 79, 85, 78, 84, 65, 73, 78, 13, 70, 79, 82, 83, 8, 69, 83, 84, 13], "trial": 1, "time_elapsed": 458764, "type": "FREE_RECALL", "trial_index": 75}, "uniqueid": "MTK1784:3EF8EXOTT22BPZ7GRPDAS5IB9IIJ1I", "dateTime": 1516299585333}, {"current_trial": 76, "trialdata": {"rt": 2186, "trial_type": "text", "internal_node_id": "0.0-58.0", "time_elapsed": 462956, "key_press": 32, "type": "INSTRUCTIONS", "trial_index": 76}, "uniqueid": "MTK1784:3EF8EXOTT22BPZ7GRPDAS5IB9IIJ1I", "dateTime": 1516299589521}, {"current_trial": 77, "trialdata": {"rt": [2980, 5830, 8460, 12364, 15789, 17767, 21058, 23892], "trial_type": "math-distractor", "key_times": [2273, 2980, 5008, 5137, 5830, 7410, 7558, 8460, 11490, 11819, 12364, 14906, 15097, 15789, 17327, 17486, 17767, 20332, 20495, 21058, 22436, 22708, 23151, 23346, 23892], "responses": ["9", "18", "20", "16", "17", "12", "10", "13"], "num2": [3, 5, 2, 4, 8, 4, 3, 5, 3], "num3": [1, 7, 9, 3, 7, 1, 1, 3, 3], "conditions": [12, 800, "v", 24000], "internal_node_id": "0.0-59.0", "key_presses": [57, 13, 49, 56, 13, 50, 48, 13, 49, 54, 13, 49, 55, 13, 49, 50, 13, 49, 48, 13, 49, 52, 8, 51, 13], "trial": 2, "time_elapsed": 487961, "type": "DISTRACTOR", "trial_index": 77, "num1": [5, 6, 9, 9, 2, 7, 6, 5, 2]}, "uniqueid": "MTK1784:3EF8EXOTT22BPZ7GRPDAS5IB9IIJ1I", "dateTime": 1516299614526}, {"current_trial": 78, "trialdata": {"rt": -1, "trial_type": "single-stim", "stimulus": "<p id=\"stim\">10</p>", "internal_node_id": "0.0-60.0-0.0", "time_elapsed": 490965, "key_press": -1, "trial_index": 78}, "uniqueid": "MTK1784:3EF8EXOTT22BPZ7GRPDAS5IB9IIJ1I", "dateTime": 1516299617530}, {"current_trial": 79, "trialdata": {"rt": -1, "trial_type": "single-stim", "stimulus": "<p id=\"stim\">9</p>", "internal_node_id": "0.0-60.0-1.0", "time_elapsed": 491966, "key_press": -1, "trial_index": 79}, "uniqueid": "MTK1784:3EF8EXOTT22BPZ7GRPDAS5IB9IIJ1I", "dateTime": 1516299618531}, {"current_trial": 80, "trialdata": {"rt": -1, "trial_type": "single-stim", "stimulus": "<p id=\"stim\">8</p>", "internal_node_id": "0.0-60.0-2.0", "time_elapsed": 492969, "key_press": -1, "trial_index": 80}, "uniqueid": "MTK1784:3EF8EXOTT22BPZ7GRPDAS5IB9IIJ1I", "dateTime": 1516299619534}, {"current_trial": 81, "trialdata": {"rt": -1, "trial_type": "single-stim", "stimulus": "<p id=\"stim\">7</p>", "internal_node_id": "0.0-60.0-3.0", "time_elapsed": 493972, "key_press": -1, "trial_index": 81}, "uniqueid": "MTK1784:3EF8EXOTT22BPZ7GRPDAS5IB9IIJ1I", "dateTime": 1516299620538}, {"current_trial": 82, "trialdata": {"rt": -1, "trial_type": "single-stim", "stimulus": "<p id=\"stim\">6</p>", "internal_node_id": "0.0-60.0-4.0", "time_elapsed": 494974, "key_press": -1, "trial_index": 82}, "uniqueid": "MTK1784:3EF8EXOTT22BPZ7GRPDAS5IB9IIJ1I", "dateTime": 1516299621539}, {"current_trial": 83, "trialdata": {"rt": -1, "trial_type": "single-stim", "stimulus": "<p id=\"stim\">5</p>", "internal_node_id": "0.0-60.0-5.0", "time_elapsed": 495976, "key_press": -1, "trial_index": 83}, "uniqueid": "MTK1784:3EF8EXOTT22BPZ7GRPDAS5IB9IIJ1I", "dateTime": 1516299622541}, {"current_trial": 84, "trialdata": {"rt": -1, "trial_type": "single-stim", "stimulus": "<p id=\"stim\">4</p>", "internal_node_id": "0.0-60.0-6.0", "time_elapsed": 496979, "key_press": -1, "trial_index": 84}, "uniqueid": "MTK1784:3EF8EXOTT22BPZ7GRPDAS5IB9IIJ1I", "dateTime": 1516299623544}, {"current_trial": 85, "trialdata": {"rt": -1, "trial_type": "single-stim", "stimulus": "<p id=\"stim\">3</p>", "internal_node_id": "0.0-60.0-7.0", "time_elapsed": 497981, "key_press": -1, "trial_index": 85}, "uniqueid": "MTK1784:3EF8EXOTT22BPZ7GRPDAS5IB9IIJ1I", "dateTime": 1516299624546}, {"current_trial": 86, "trialdata": {"rt": -1, "trial_type": "single-stim", "stimulus": "<p id=\"stim\">2</p>", "internal_node_id": "0.0-60.0-8.0", "time_elapsed": 498982, "key_press": -1, "trial_index": 86}, "uniqueid": "MTK1784:3EF8EXOTT22BPZ7GRPDAS5IB9IIJ1I", "dateTime": 1516299625547}, {"current_trial": 87, "trialdata": {"rt": -1, "trial_type": "single-stim", "stimulus": "<p id=\"stim\">1</p>", "internal_node_id": "0.0-60.0-9.0", "time_elapsed": 499984, "key_press": -1, "trial_index": 87}, "uniqueid": "MTK1784:3EF8EXOTT22BPZ7GRPDAS5IB9IIJ1I", "dateTime": 1516299626549}, {"current_trial": 88, "trialdata": {"rt": -1, "trial_type": "single-stim", "stimulus": "<p id=\"stim\">+</p>", "internal_node_id": "0.0-61.0-0.0", "time_elapsed": 501487, "key_press": -1, "type": "FIXATION", "trial_index": 88}, "uniqueid": "MTK1784:3EF8EXOTT22BPZ7GRPDAS5IB9IIJ1I", "dateTime": 1516299628052}, {"current_trial": 89, "trialdata": {"rt": -1, "trial_type": "single-stim", "word": "grill", "stimulus": "<p id=\"stim\">GRILL</p>", "conditions": [12, 800, "v", 24000], "internal_node_id": "0.0-62.0", "trial": 2, "time_elapsed": 502289, "serialpos": 0, "key_press": -1, "wordID": 660, "type": "PRES_VIS", "trial_index": 89}, "uniqueid": "MTK1784:3EF8EXOTT22BPZ7GRPDAS5IB9IIJ1I", "dateTime": 1516299628854}, {"current_trial": 90, "trialdata": {"rt": -1, "trial_type": "single-stim", "word": "razor", "stimulus": "<p id=\"stim\">RAZOR</p>", "conditions": [12, 800, "v", 24000], "internal_node_id": "0.0-63.0", "trial": 2, "time_elapsed": 504087, "serialpos": 1, "key_press": -1, "wordID": 1170, "type": "PRES_VIS", "trial_index": 90}, "uniqueid": "MTK1784:3EF8EXOTT22BPZ7GRPDAS5IB9IIJ1I", "dateTime": 1516299630652}, {"current_trial": 91, "trialdata": {"rt": -1, "trial_type": "single-stim", "word": "basement", "stimulus": "<p id=\"stim\">BASEMENT</p>", "conditions": [12, 800, "v", 24000], "internal_node_id": "0.0-64.0", "trial": 2, "time_elapsed": 506008, "serialpos": 2, "key_press": -1, "wordID": 93, "type": "PRES_VIS", "trial_index": 91}, "uniqueid": "MTK1784:3EF8EXOTT22BPZ7GRPDAS5IB9IIJ1I", "dateTime": 1516299632574}, {"current_trial": 92, "trialdata": {"rt": -1, "trial_type": "single-stim", "word": "briefcase", "stimulus": "<p id=\"stim\">BRIEFCASE</p>", "conditions": [12, 800, "v", 24000], "internal_node_id": "0.0-65.0", "trial": 2, "time_elapsed": 507973, "serialpos": 3, "key_press": -1, "wordID": 174, "type": "PRES_VIS", "trial_index": 92}, "uniqueid": "MTK1784:3EF8EXOTT22BPZ7GRPDAS5IB9IIJ1I", "dateTime": 1516299634538}, {"current_trial": 93, "trialdata": {"rt": -1, "trial_type": "single-stim", "word": "wagon", "stimulus": "<p id=\"stim\">WAGON</p>", "conditions": [12, 800, "v", 24000], "internal_node_id": "0.0-66.0", "trial": 2, "time_elapsed": 509859, "serialpos": 4, "key_press": -1, "wordID": 1577, "type": "PRES_VIS", "trial_index": 93}, "uniqueid": "MTK1784:3EF8EXOTT22BPZ7GRPDAS5IB9IIJ1I", "dateTime": 1516299636424}, {"current_trial": 94, "trialdata": {"rt": -1, "trial_type": "single-stim", "word": "pluto", "stimulus": "<p id=\"stim\">PLUTO</p>", "conditions": [12, 800, "v", 24000], "internal_node_id": "0.0-67.0", "trial": 2, "time_elapsed": 511728, "serialpos": 5, "key_press": -1, "wordID": 1091, "type": "PRES_VIS", "trial_index": 94}, "uniqueid": "MTK1784:3EF8EXOTT22BPZ7GRPDAS5IB9IIJ1I", "dateTime": 1516299638293}, {"current_trial": 95, "trialdata": {"rt": -1, "trial_type": "single-stim", "word": "ulcer", "stimulus": "<p id=\"stim\">ULCER</p>", "conditions": [12, 800, "v", 24000], "internal_node_id": "0.0-68.0", "trial": 2, "time_elapsed": 513628, "serialpos": 6, "key_press": -1, "wordID": 1532, "type": "PRES_VIS", "trial_index": 95}, "uniqueid": "MTK1784:3EF8EXOTT22BPZ7GRPDAS5IB9IIJ1I", "dateTime": 1516299640194}, {"current_trial": 96, "trialdata": {"rt": -1, "trial_type": "single-stim", "word": "stove", "stimulus": "<p id=\"stim\">STOVE</p>", "conditions": [12, 800, "v", 24000], "internal_node_id": "0.0-69.0", "trial": 2, "time_elapsed": 515367, "serialpos": 7, "key_press": -1, "wordID": 1387, "type": "PRES_VIS", "trial_index": 96}, "uniqueid": "MTK1784:3EF8EXOTT22BPZ7GRPDAS5IB9IIJ1I", "dateTime": 1516299641933}, {"current_trial": 97, "trialdata": {"rt": -1, "trial_type": "single-stim", "word": "fox", "stimulus": "<p id=\"stim\">FOX</p>", "conditions": [12, 800, "v", 24000], "internal_node_id": "0.0-70.0", "trial": 2, "time_elapsed": 517025, "serialpos": 8, "key_press": -1, "wordID": 597, "type": "PRES_VIS", "trial_index": 97}, "uniqueid": "MTK1784:3EF8EXOTT22BPZ7GRPDAS5IB9IIJ1I", "dateTime": 1516299643591}, {"current_trial": 98, "trialdata": {"rt": -1, "trial_type": "single-stim", "word": "suitcase", "stimulus": "<p id=\"stim\">SUITCASE</p>", "conditions": [12, 800, "v", 24000], "internal_node_id": "0.0-71.0", "trial": 2, "time_elapsed": 518686, "serialpos": 9, "key_press": -1, "wordID": 1402, "type": "PRES_VIS", "trial_index": 98}, "uniqueid": "MTK1784:3EF8EXOTT22BPZ7GRPDAS5IB9IIJ1I", "dateTime": 1516299645252}, {"current_trial": 99, "trialdata": {"rt": -1, "trial_type": "single-stim", "word": "knapsack", "stimulus": "<p id=\"stim\">KNAPSACK</p>", "conditions": [12, 800, "v", 24000], "internal_node_id": "0.0-72.0", "trial": 2, "time_elapsed": 520665, "serialpos": 10, "key_press": -1, "wordID": 782, "type": "PRES_VIS", "trial_index": 99}, "uniqueid": "MTK1784:3EF8EXOTT22BPZ7GRPDAS5IB9IIJ1I", "dateTime": 1516299647231}, {"current_trial": 100, "trialdata": {"rt": -1, "trial_type": "single-stim", "word": "crevice", "stimulus": "<p id=\"stim\">CREVICE</p>", "conditions": [12, 800, "v", 24000], "internal_node_id": "0.0-73.0", "trial": 2, "time_elapsed": 522566, "serialpos": 11, "key_press": -1, "wordID": 404, "type": "PRES_VIS", "trial_index": 100}, "uniqueid": "MTK1784:3EF8EXOTT22BPZ7GRPDAS5IB9IIJ1I", "dateTime": 1516299649131}, {"current_trial": 101, "trialdata": {"rt": -1, "trial_type": "single-stim", "stimulus": "", "internal_node_id": "0.0-74.0-0.0", "time_elapsed": 524702, "key_press": -1, "type": "PRE_RECALL_DELAY", "trial_index": 101}, "uniqueid": "MTK1784:3EF8EXOTT22BPZ7GRPDAS5IB9IIJ1I", "dateTime": 1516299651267}, {"current_trial": 102, "trialdata": {"rt": -1000, "trial_type": "single-audio", "stimulus": "/static/audio/400Hz.wav", "internal_node_id": "0.0-75.0", "time_elapsed": 525204, "key_press": -1, "type": "PRE_RECALL_ALERT", "trial_index": 102}, "uniqueid": "MTK1784:3EF8EXOTT22BPZ7GRPDAS5IB9IIJ1I", "dateTime": 1516299651770}, {"current_trial": 103, "trialdata": {"rt": [6368, 8857, 12938, 18707, 21932, 29885, 41464], "recwords": ["crevise", "suitcase", "knapsack", "grill", "basement", "apron", "dupster"], "key_times": [848, 1238, 1472, 2013, 3707, 4384, 4611, 6368, 6682, 6941, 7128, 7354, 7740, 7937, 8071, 8300, 8857, 9982, 10202, 10373, 10744, 11348, 11578, 11831, 12077, 12938, 16915, 17096, 17364, 17639, 18099, 18707, 19302, 19500, 20007, 20216, 20511, 20615, 20846, 21038, 21932, 28340, 28578, 28869, 29042, 29334, 29885, 35205, 35441, 35632, 35839, 36191, 36378, 36547, 36715, 39253, 39490, 40348, 40558, 40808, 41001, 41136, 41464], "trial_type": "free-recall", "conditions": [12, 800, "v", 24000], "internal_node_id": "0.0-76.0-0.0", "key_presses": [67, 82, 69, 86, 73, 83, 69, 13, 83, 85, 73, 84, 67, 65, 83, 69, 13, 75, 78, 65, 80, 83, 65, 67, 75, 13, 71, 82, 73, 76, 76, 13, 66, 65, 83, 69, 77, 69, 78, 84, 13, 65, 80, 82, 79, 78, 13, 83, 85, 73, 84, 8, 8, 8, 8, 68, 85, 80, 83, 84, 69, 82, 13], "trial": 2, "time_elapsed": 585209, "type": "FREE_RECALL", "trial_index": 103}, "uniqueid": "MTK1784:3EF8EXOTT22BPZ7GRPDAS5IB9IIJ1I", "dateTime": 1516299711778}, {"current_trial": 104, "trialdata": {"rt": 1285, "trial_type": "text", "internal_node_id": "0.0-77.0", "time_elapsed": 588499, "key_press": 32, "type": "INSTRUCTIONS", "trial_index": 104}, "uniqueid": "MTK1784:3EF8EXOTT22BPZ7GRPDAS5IB9IIJ1I", "dateTime": 1516299715064}, {"current_trial": 105, "trialdata": {"rt": [3289, 5418, 11401, 15873, 18816, 20715, 23136], "trial_type": "math-distractor", "key_times": [2759, 2948, 3289, 4416, 4924, 5418, 10512, 10987, 11401, 15138, 15301, 15873, 17881, 18007, 18816, 20167, 20715, 22406, 22716, 23136], "responses": ["12", "13", "24", "19", "10", "9", "15"], "num2": [5, 5, 7, 6, 6, 3, 6, 6], "num3": [3, 3, 9, 5, 3, 1, 5, 5], "conditions": [24, 1600, "v", 24000], "internal_node_id": "0.0-78.0", "key_presses": [49, 50, 13, 49, 51, 13, 50, 52, 13, 49, 57, 13, 49, 48, 13, 57, 13, 49, 53, 13], "trial": 3, "time_elapsed": 614504, "type": "DISTRACTOR", "trial_index": 105, "num1": [4, 5, 8, 8, 1, 5, 4, 4]}, "uniqueid": "MTK1784:3EF8EXOTT22BPZ7GRPDAS5IB9IIJ1I", "dateTime": 1516299741069}, {"current_trial": 106, "trialdata": {"rt": -1, "trial_type": "single-stim", "stimulus": "<p id=\"stim\">10</p>", "internal_node_id": "0.0-79.0-0.0", "time_elapsed": 617507, "key_press": -1, "trial_index": 106}, "uniqueid": "MTK1784:3EF8EXOTT22BPZ7GRPDAS5IB9IIJ1I", "dateTime": 1516299744072}, {"current_trial": 107, "trialdata": {"rt": -1, "trial_type": "single-stim", "stimulus": "<p id=\"stim\">9</p>", "internal_node_id": "0.0-79.0-1.0", "time_elapsed": 618509, "key_press": -1, "trial_index": 107}, "uniqueid": "MTK1784:3EF8EXOTT22BPZ7GRPDAS5IB9IIJ1I", "dateTime": 1516299745074}, {"current_trial": 108, "trialdata": {"rt": -1, "trial_type": "single-stim", "stimulus": "<p id=\"stim\">8</p>", "internal_node_id": "0.0-79.0-2.0", "time_elapsed": 619511, "key_press": -1, "trial_index": 108}, "uniqueid": "MTK1784:3EF8EXOTT22BPZ7GRPDAS5IB9IIJ1I", "dateTime": 1516299746076}, {"current_trial": 109, "trialdata": {"rt": -1, "trial_type": "single-stim", "stimulus": "<p id=\"stim\">7</p>", "internal_node_id": "0.0-79.0-3.0", "time_elapsed": 620513, "key_press": -1, "trial_index": 109}, "uniqueid": "MTK1784:3EF8EXOTT22BPZ7GRPDAS5IB9IIJ1I", "dateTime": 1516299747078}, {"current_trial": 110, "trialdata": {"rt": -1, "trial_type": "single-stim", "stimulus": "<p id=\"stim\">6</p>", "internal_node_id": "0.0-79.0-4.0", "time_elapsed": 621516, "key_press": -1, "trial_index": 110}, "uniqueid": "MTK1784:3EF8EXOTT22BPZ7GRPDAS5IB9IIJ1I", "dateTime": 1516299748081}, {"current_trial": 111, "trialdata": {"rt": -1, "trial_type": "single-stim", "stimulus": "<p id=\"stim\">5</p>", "internal_node_id": "0.0-79.0-5.0", "time_elapsed": 622518, "key_press": -1, "trial_index": 111}, "uniqueid": "MTK1784:3EF8EXOTT22BPZ7GRPDAS5IB9IIJ1I", "dateTime": 1516299749083}, {"current_trial": 112, "trialdata": {"rt": -1, "trial_type": "single-stim", "stimulus": "<p id=\"stim\">4</p>", "internal_node_id": "0.0-79.0-6.0", "time_elapsed": 623520, "key_press": -1, "trial_index": 112}, "uniqueid": "MTK1784:3EF8EXOTT22BPZ7GRPDAS5IB9IIJ1I", "dateTime": 1516299750085}, {"current_trial": 113, "trialdata": {"rt": -1, "trial_type": "single-stim", "stimulus": "<p id=\"stim\">3</p>", "internal_node_id": "0.0-79.0-7.0", "time_elapsed": 624523, "key_press": -1, "trial_index": 113}, "uniqueid": "MTK1784:3EF8EXOTT22BPZ7GRPDAS5IB9IIJ1I", "dateTime": 1516299751088}, {"current_trial": 114, "trialdata": {"rt": -1, "trial_type": "single-stim", "stimulus": "<p id=\"stim\">2</p>", "internal_node_id": "0.0-79.0-8.0", "time_elapsed": 625525, "key_press": -1, "trial_index": 114}, "uniqueid": "MTK1784:3EF8EXOTT22BPZ7GRPDAS5IB9IIJ1I", "dateTime": 1516299752090}, {"current_trial": 115, "trialdata": {"rt": -1, "trial_type": "single-stim", "stimulus": "<p id=\"stim\">1</p>", "internal_node_id": "0.0-79.0-9.0", "time_elapsed": 626526, "key_press": -1, "trial_index": 115}, "uniqueid": "MTK1784:3EF8EXOTT22BPZ7GRPDAS5IB9IIJ1I", "dateTime": 1516299753091}, {"current_trial": 116, "trialdata": {"rt": -1, "trial_type": "single-stim", "stimulus": "<p id=\"stim\">+</p>", "internal_node_id": "0.0-80.0-0.0", "time_elapsed": 628029, "key_press": -1, "type": "FIXATION", "trial_index": 116}, "uniqueid": "MTK1784:3EF8EXOTT22BPZ7GRPDAS5IB9IIJ1I", "dateTime": 1516299754594}, {"current_trial": 117, "trialdata": {"rt": -1, "trial_type": "single-stim", "word": "missile", "stimulus": "<p id=\"stim\">MISSILE</p>", "conditions": [24, 1600, "v", 24000], "internal_node_id": "0.0-81.0", "trial": 3, "time_elapsed": 629631, "serialpos": 0, "key_press": -1, "wordID": 899, "type": "PRES_VIS", "trial_index": 117}, "uniqueid": "MTK1784:3EF8EXOTT22BPZ7GRPDAS5IB9IIJ1I", "dateTime": 1516299756196}, {"current_trial": 118, "trialdata": {"rt": -1, "trial_type": "single-stim", "word": "mattress", "stimulus": "<p id=\"stim\">MATTRESS</p>", "conditions": [24, 1600, "v", 24000], "internal_node_id": "0.0-82.0", "trial": 3, "time_elapsed": 632226, "serialpos": 1, "key_press": -1, "wordID": 878, "type": "PRES_VIS", "trial_index": 118}, "uniqueid": "MTK1784:3EF8EXOTT22BPZ7GRPDAS5IB9IIJ1I", "dateTime": 1516299758792}, {"current_trial": 119, "trialdata": {"rt": -1, "trial_type": "single-stim", "word": "couch", "stimulus": "<p id=\"stim\">COUCH</p>", "conditions": [24, 1600, "v", 24000], "internal_node_id": "0.0-83.0", "trial": 3, "time_elapsed": 634909, "serialpos": 2, "key_press": -1, "wordID": 385, "type": "PRES_VIS", "trial_index": 119}, "uniqueid": "MTK1784:3EF8EXOTT22BPZ7GRPDAS5IB9IIJ1I", "dateTime": 1516299761474}, {"current_trial": 120, "trialdata": {"rt": -1, "trial_type": "single-stim", "word": "denim", "stimulus": "<p id=\"stim\">DENIM</p>", "conditions": [24, 1600, "v", 24000], "internal_node_id": "0.0-84.0", "trial": 3, "time_elapsed": 637589, "serialpos": 3, "key_press": -1, "wordID": 445, "type": "PRES_VIS", "trial_index": 120}, "uniqueid": "MTK1784:3EF8EXOTT22BPZ7GRPDAS5IB9IIJ1I", "dateTime": 1516299764154}, {"current_trial": 121, "trialdata": {"rt": -1, "trial_type": "single-stim", "word": "mars", "stimulus": "<p id=\"stim\">MARS</p>", "conditions": [24, 1600, "v", 24000], "internal_node_id": "0.0-85.0", "trial": 3, "time_elapsed": 640097, "serialpos": 4, "key_press": -1, "wordID": 872, "type": "PRES_VIS", "trial_index": 121}, "uniqueid": "MTK1784:3EF8EXOTT22BPZ7GRPDAS5IB9IIJ1I", "dateTime": 1516299766663}, {"current_trial": 122, "trialdata": {"rt": -1, "trial_type": "single-stim", "word": "france", "stimulus": "<p id=\"stim\">FRANCE</p>", "conditions": [24, 1600, "v", 24000], "internal_node_id": "0.0-86.0", "trial": 3, "time_elapsed": 642738, "serialpos": 5, "key_press": -1, "wordID": 600, "type": "PRES_VIS", "trial_index": 122}, "uniqueid": "MTK1784:3EF8EXOTT22BPZ7GRPDAS5IB9IIJ1I", "dateTime": 1516299769303}, {"current_trial": 123, "trialdata": {"rt": -1, "trial_type": "single-stim", "word": "candy", "stimulus": "<p id=\"stim\">CANDY</p>", "conditions": [24, 1600, "v", 24000], "internal_node_id": "0.0-87.0", "trial": 3, "time_elapsed": 645520, "serialpos": 6, "key_press": -1, "wordID": 229, "type": "PRES_VIS", "trial_index": 123}, "uniqueid": "MTK1784:3EF8EXOTT22BPZ7GRPDAS5IB9IIJ1I", "dateTime": 1516299772085}, {"current_trial": 124, "trialdata": {"rt": -1, "trial_type": "single-stim", "word": "gangster", "stimulus": "<p id=\"stim\">GANGSTER</p>", "conditions": [24, 1600, "v", 24000], "internal_node_id": "0.0-88.0", "trial": 3, "time_elapsed": 648247, "serialpos": 7, "key_press": -1, "wordID": 619, "type": "PRES_VIS", "trial_index": 124}, "uniqueid": "MTK1784:3EF8EXOTT22BPZ7GRPDAS5IB9IIJ1I", "dateTime": 1516299774812}, {"current_trial": 125, "trialdata": {"rt": -1, "trial_type": "single-stim", "word": "curtain", "stimulus": "<p id=\"stim\">CURTAIN</p>", "conditions": [24, 1600, "v", 24000], "internal_node_id": "0.0-89.0", "trial": 3, "time_elapsed": 651047, "serialpos": 8, "key_press": -1, "wordID": 426, "type": "PRES_VIS", "trial_index": 125}, "uniqueid": "MTK1784:3EF8EXOTT22BPZ7GRPDAS5IB9IIJ1I", "dateTime": 1516299777612}, {"current_trial": 126, "trialdata": {"rt": -1, "trial_type": "single-stim", "word": "palace", "stimulus": "<p id=\"stim\">PALACE</p>", "conditions": [24, 1600, "v", 24000], "internal_node_id": "0.0-90.0", "trial": 3, "time_elapsed": 653599, "serialpos": 9, "key_press": -1, "wordID": 1005, "type": "PRES_VIS", "trial_index": 126}, "uniqueid": "MTK1784:3EF8EXOTT22BPZ7GRPDAS5IB9IIJ1I", "dateTime": 1516299780164}, {"current_trial": 127, "trialdata": {"rt": -1, "trial_type": "single-stim", "word": "sparrow", "stimulus": "<p id=\"stim\">SPARROW</p>", "conditions": [24, 1600, "v", 24000], "internal_node_id": "0.0-91.0", "trial": 3, "time_elapsed": 656336, "serialpos": 10, "key_press": -1, "wordID": 1346, "type": "PRES_VIS", "trial_index": 127}, "uniqueid": "MTK1784:3EF8EXOTT22BPZ7GRPDAS5IB9IIJ1I", "dateTime": 1516299782901}, {"current_trial": 128, "trialdata": {"rt": -1, "trial_type": "single-stim", "word": "rocket", "stimulus": "<p id=\"stim\">ROCKET</p>", "conditions": [24, 1600, "v", 24000], "internal_node_id": "0.0-92.0", "trial": 3, "time_elapsed": 658974, "serialpos": 11, "key_press": -1, "wordID": 1201, "type": "PRES_VIS", "trial_index": 128}, "uniqueid": "MTK1784:3EF8EXOTT22BPZ7GRPDAS5IB9IIJ1I", "dateTime": 1516299785540}, {"current_trial": 129, "trialdata": {"rt": -1, "trial_type": "single-stim", "word": "ankle", "stimulus": "<p id=\"stim\">ANKLE</p>", "conditions": [24, 1600, "v", 24000], "internal_node_id": "0.0-93.0", "trial": 3, "time_elapsed": 661694, "serialpos": 12, "key_press": -1, "wordID": 23, "type": "PRES_VIS", "trial_index": 129}, "uniqueid": "MTK1784:3EF8EXOTT22BPZ7GRPDAS5IB9IIJ1I", "dateTime": 1516299788259}, {"current_trial": 130, "trialdata": {"rt": -1, "trial_type": "single-stim", "word": "elbow", "stimulus": "<p id=\"stim\">ELBOW</p>", "conditions": [24, 1600, "v", 24000], "internal_node_id": "0.0-94.0", "trial": 3, "time_elapsed": 664109, "serialpos": 13, "key_press": -1, "wordID": 519, "type": "PRES_VIS", "trial_index": 130}, "uniqueid": "MTK1784:3EF8EXOTT22BPZ7GRPDAS5IB9IIJ1I", "dateTime": 1516299790674}, {"current_trial": 131, "trialdata": {"rt": -1, "trial_type": "single-stim", "word": "shelter", "stimulus": "<p id=\"stim\">SHELTER</p>", "conditions": [24, 1600, "v", 24000], "internal_node_id": "0.0-95.0", "trial": 3, "time_elapsed": 666619, "serialpos": 14, "key_press": -1, "wordID": 1281, "type": "PRES_VIS", "trial_index": 131}, "uniqueid": "MTK1784:3EF8EXOTT22BPZ7GRPDAS5IB9IIJ1I", "dateTime": 1516299793185}, {"current_trial": 132, "trialdata": {"rt": -1, "trial_type": "single-stim", "word": "friend", "stimulus": "<p id=\"stim\">FRIEND</p>", "conditions": [24, 1600, "v", 24000], "internal_node_id": "0.0-96.0", "trial": 3, "time_elapsed": 669043, "serialpos": 15, "key_press": -1, "wordID": 605, "type": "PRES_VIS", "trial_index": 132}, "uniqueid": "MTK1784:3EF8EXOTT22BPZ7GRPDAS5IB9IIJ1I", "dateTime": 1516299795608}, {"current_trial": 133, "trialdata": {"rt": -1, "trial_type": "single-stim", "word": "coffee", "stimulus": "<p id=\"stim\">COFFEE</p>", "conditions": [24, 1600, "v", 24000], "internal_node_id": "0.0-97.0", "trial": 3, "time_elapsed": 671510, "serialpos": 16, "key_press": -1, "wordID": 340, "type": "PRES_VIS", "trial_index": 133}, "uniqueid": "MTK1784:3EF8EXOTT22BPZ7GRPDAS5IB9IIJ1I", "dateTime": 1516299798075}, {"current_trial": 134, "trialdata": {"rt": -1, "trial_type": "single-stim", "word": "comet", "stimulus": "<p id=\"stim\">COMET</p>", "conditions": [24, 1600, "v", 24000], "internal_node_id": "0.0-98.0", "trial": 3, "time_elapsed": 674188, "serialpos": 17, "key_press": -1, "wordID": 352, "type": "PRES_VIS", "trial_index": 134}, "uniqueid": "MTK1784:3EF8EXOTT22BPZ7GRPDAS5IB9IIJ1I", "dateTime": 1516299800753}, {"current_trial": 135, "trialdata": {"rt": -1, "trial_type": "single-stim", "word": "pigment", "stimulus": "<p id=\"stim\">PIGMENT</p>", "conditions": [24, 1600, "v", 24000], "internal_node_id": "0.0-99.0", "trial": 3, "time_elapsed": 676828, "serialpos": 18, "key_press": -1, "wordID": 1065, "type": "PRES_VIS", "trial_index": 135}, "uniqueid": "MTK1784:3EF8EXOTT22BPZ7GRPDAS5IB9IIJ1I", "dateTime": 1516299803393}, {"current_trial": 136, "trialdata": {"rt": -1, "trial_type": "single-stim", "word": "cousin", "stimulus": "<p id=\"stim\">COUSIN</p>", "conditions": [24, 1600, "v", 24000], "internal_node_id": "0.0-100.0", "trial": 3, "time_elapsed": 679592, "serialpos": 19, "key_press": -1, "wordID": 391, "type": "PRES_VIS", "trial_index": 136}, "uniqueid": "MTK1784:3EF8EXOTT22BPZ7GRPDAS5IB9IIJ1I", "dateTime": 1516299806157}, {"current_trial": 137, "trialdata": {"rt": -1, "trial_type": "single-stim", "word": "dentist", "stimulus": "<p id=\"stim\">DENTIST</p>", "conditions": [24, 1600, "v", 24000], "internal_node_id": "0.0-101.0", "trial": 3, "time_elapsed": 682321, "serialpos": 20, "key_press": -1, "wordID": 446, "type": "PRES_VIS", "trial_index": 137}, "uniqueid": "MTK1784:3EF8EXOTT22BPZ7GRPDAS5IB9IIJ1I", "dateTime": 1516299808886}, {"current_trial": 138, "trialdata": {"rt": -1, "trial_type": "single-stim", "word": "soda", "stimulus": "<p id=\"stim\">SODA</p>", "conditions": [24, 1600, "v", 24000], "internal_node_id": "0.0-102.0", "trial": 3, "time_elapsed": 685027, "serialpos": 21, "key_press": -1, "wordID": 1340, "type": "PRES_VIS", "trial_index": 138}, "uniqueid": "MTK1784:3EF8EXOTT22BPZ7GRPDAS5IB9IIJ1I", "dateTime": 1516299811592}, {"current_trial": 139, "trialdata": {"rt": -1, "trial_type": "single-stim", "word": "venus", "stimulus": "<p id=\"stim\">VENUS</p>", "conditions": [24, 1600, "v", 24000], "internal_node_id": "0.0-103.0", "trial": 3, "time_elapsed": 687600, "serialpos": 22, "key_press": -1, "wordID": 1556, "type": "PRES_VIS", "trial_index": 139}, "uniqueid": "MTK1784:3EF8EXOTT22BPZ7GRPDAS5IB9IIJ1I", "dateTime": 1516299814165}, {"current_trial": 140, "trialdata": {"rt": -1, "trial_type": "single-stim", "word": "wife", "stimulus": "<p id=\"stim\">WIFE</p>", "conditions": [24, 1600, "v", 24000], "internal_node_id": "0.0-104.0", "trial": 3, "time_elapsed": 690318, "serialpos": 23, "key_press": -1, "wordID": 1608, "type": "PRES_VIS", "trial_index": 140}, "uniqueid": "MTK1784:3EF8EXOTT22BPZ7GRPDAS5IB9IIJ1I", "dateTime": 1516299816884}, {"current_trial": 141, "trialdata": {"rt": -1, "trial_type": "single-stim", "stimulus": "", "internal_node_id": "0.0-105.0-0.0", "time_elapsed": 692377, "key_press": -1, "type": "PRE_RECALL_DELAY", "trial_index": 141}, "uniqueid": "MTK1784:3EF8EXOTT22BPZ7GRPDAS5IB9IIJ1I", "dateTime": 1516299818942}, {"current_trial": 142, "trialdata": {"rt": -1000, "trial_type": "single-audio", "stimulus": "/static/audio/400Hz.wav", "internal_node_id": "0.0-106.0", "time_elapsed": 692879, "key_press": -1, "type": "PRE_RECALL_ALERT", "trial_index": 142}, "uniqueid": "MTK1784:3EF8EXOTT22BPZ7GRPDAS5IB9IIJ1I", "dateTime": 1516299819445}, {"current_trial": 143, "trialdata": {"rt": [2363, 5748, 8101, 10535, 12910, 15403, 16699, 23095, 27673, 37211, 42279], "recwords": ["wife", "mars", "pluto", "ganster", "friend", "dentist", "soda", "missile", "mattress", "wife", "coffee"], "key_times": [1216, 1518, 1800, 1967, 2363, 4407, 4546, 4768, 5358, 5748, 6122, 6331, 6612, 6997, 7513, 8101, 9105, 9314, 9449, 9723, 9984, 10116, 10276, 10535, 11370, 11477, 11678, 11738, 11988, 12162, 12910, 13900, 14029, 14244, 14337, 14613, 14796, 15011, 15403, 15633, 15872, 16167, 16338, 16699, 19732, 19873, 20733, 21023, 21737, 21932, 22129, 22303, 22472, 22694, 22869, 23095, 24075, 24459, 25070, 26407, 26641, 26848, 27140, 27299, 27673, 36536, 36676, 36873, 37007, 37211, 40989, 41121, 41342, 41505, 41735, 41900, 42279, 58940, 59149, 59472, 59677, 59901], "trial_type": "free-recall", "conditions": [24, 1600, "v", 24000], "internal_node_id": "0.0-107.0-0.0", "key_presses": [87, 73, 70, 69, 13, 77, 65, 82, 83, 13, 80, 76, 85, 84, 79, 13, 71, 65, 78, 83, 84, 69, 82, 13, 70, 82, 73, 69, 78, 68, 13, 68, 69, 78, 84, 73, 83, 84, 13, 83, 79, 68, 65, 13, 77, 65, 8, 8, 77, 73, 83, 83, 73, 76, 69, 13, 77, 65, 84, 84, 82, 69, 83, 83, 13, 87, 73, 70, 69, 13, 67, 79, 70, 70, 69, 69, 13, 86, 69, 78, 85, 83], "trial": 3, "time_elapsed": 752884, "type": "FREE_RECALL", "trial_index": 143}, "uniqueid": "MTK1784:3EF8EXOTT22BPZ7GRPDAS5IB9IIJ1I", "dateTime": 1516299879453}, {"current_trial": 144, "trialdata": {"rt": 1135, "trial_type": "text", "internal_node_id": "0.0-108.0", "time_elapsed": 756025, "key_press": 32, "type": "INSTRUCTIONS", "trial_index": 144}, "uniqueid": "MTK1784:3EF8EXOTT22BPZ7GRPDAS5IB9IIJ1I", "dateTime": 1516299882590}, {"current_trial": 145, "trialdata": {"rt": [2254, 4742, 7301, 9159, 11897], "trial_type": "math-distractor", "key_times": [1589, 1804, 2254, 4074, 4355, 4742, 6541, 6789, 7301, 8646, 8810, 9159, 11222, 11532, 11897], "responses": ["10", "14", "19", "11", "16"], "num2": [4, 1, 6, 4, 9, 3], "num3": [4, 5, 6, 1, 4, 5], "conditions": [12, 1600, "v", 12000], "internal_node_id": "0.0-109.0", "key_presses": [49, 48, 13, 49, 52, 13, 49, 57, 13, 49, 49, 13, 49, 54, 13], "trial": 4, "time_elapsed": 770029, "type": "DISTRACTOR", "trial_index": 145, "num1": [2, 8, 7, 6, 3, 8]}, "uniqueid": "MTK1784:3EF8EXOTT22BPZ7GRPDAS5IB9IIJ1I", "dateTime": 1516299896595}, {"current_trial": 146, "trialdata": {"rt": -1, "trial_type": "single-stim", "stimulus": "<p id=\"stim\">10</p>", "internal_node_id": "0.0-110.0-0.0", "time_elapsed": 773033, "key_press": -1, "trial_index": 146}, "uniqueid": "MTK1784:3EF8EXOTT22BPZ7GRPDAS5IB9IIJ1I", "dateTime": 1516299899598}, {"current_trial": 147, "trialdata": {"rt": -1, "trial_type": "single-stim", "stimulus": "<p id=\"stim\">9</p>", "internal_node_id": "0.0-110.0-1.0", "time_elapsed": 774036, "key_press": -1, "trial_index": 147}, "uniqueid": "MTK1784:3EF8EXOTT22BPZ7GRPDAS5IB9IIJ1I", "dateTime": 1516299900601}, {"current_trial": 148, "trialdata": {"rt": -1, "trial_type": "single-stim", "stimulus": "<p id=\"stim\">8</p>", "internal_node_id": "0.0-110.0-2.0", "time_elapsed": 775038, "key_press": -1, "trial_index": 148}, "uniqueid": "MTK1784:3EF8EXOTT22BPZ7GRPDAS5IB9IIJ1I", "dateTime": 1516299901603}, {"current_trial": 149, "trialdata": {"rt": -1, "trial_type": "single-stim", "stimulus": "<p id=\"stim\">7</p>", "internal_node_id": "0.0-110.0-3.0", "time_elapsed": 776040, "key_press": -1, "trial_index": 149}, "uniqueid": "MTK1784:3EF8EXOTT22BPZ7GRPDAS5IB9IIJ1I", "dateTime": 1516299902605}, {"current_trial": 150, "trialdata": {"rt": -1, "trial_type": "single-stim", "stimulus": "<p id=\"stim\">6</p>", "internal_node_id": "0.0-110.0-4.0", "time_elapsed": 777043, "key_press": -1, "trial_index": 150}, "uniqueid": "MTK1784:3EF8EXOTT22BPZ7GRPDAS5IB9IIJ1I", "dateTime": 1516299903609}, {"current_trial": 151, "trialdata": {"rt": -1, "trial_type": "single-stim", "stimulus": "<p id=\"stim\">5</p>", "internal_node_id": "0.0-110.0-5.0", "time_elapsed": 778045, "key_press": -1, "trial_index": 151}, "uniqueid": "MTK1784:3EF8EXOTT22BPZ7GRPDAS5IB9IIJ1I", "dateTime": 1516299904611}, {"current_trial": 152, "trialdata": {"rt": -1, "trial_type": "single-stim", "stimulus": "<p id=\"stim\">4</p>", "internal_node_id": "0.0-110.0-6.0", "time_elapsed": 779048, "key_press": -1, "trial_index": 152}, "uniqueid": "MTK1784:3EF8EXOTT22BPZ7GRPDAS5IB9IIJ1I", "dateTime": 1516299905613}, {"current_trial": 153, "trialdata": {"rt": -1, "trial_type": "single-stim", "stimulus": "<p id=\"stim\">3</p>", "internal_node_id": "0.0-110.0-7.0", "time_elapsed": 780050, "key_press": -1, "trial_index": 153}, "uniqueid": "MTK1784:3EF8EXOTT22BPZ7GRPDAS5IB9IIJ1I", "dateTime": 1516299906615}, {"current_trial": 154, "trialdata": {"rt": -1, "trial_type": "single-stim", "stimulus": "<p id=\"stim\">2</p>", "internal_node_id": "0.0-110.0-8.0", "time_elapsed": 781052, "key_press": -1, "trial_index": 154}, "uniqueid": "MTK1784:3EF8EXOTT22BPZ7GRPDAS5IB9IIJ1I", "dateTime": 1516299907617}, {"current_trial": 155, "trialdata": {"rt": -1, "trial_type": "single-stim", "stimulus": "<p id=\"stim\">1</p>", "internal_node_id": "0.0-110.0-9.0", "time_elapsed": 782053, "key_press": -1, "trial_index": 155}, "uniqueid": "MTK1784:3EF8EXOTT22BPZ7GRPDAS5IB9IIJ1I", "dateTime": 1516299908619}, {"current_trial": 156, "trialdata": {"rt": -1, "trial_type": "single-stim", "stimulus": "<p id=\"stim\">+</p>", "internal_node_id": "0.0-111.0-0.0", "time_elapsed": 783555, "key_press": -1, "type": "FIXATION", "trial_index": 156}, "uniqueid": "MTK1784:3EF8EXOTT22BPZ7GRPDAS5IB9IIJ1I", "dateTime": 1516299910120}, {"current_trial": 157, "trialdata": {"rt": -1, "trial_type": "single-stim", "word": "outfit", "stimulus": "<p id=\"stim\">OUTFIT</p>", "conditions": [12, 1600, "v", 12000], "internal_node_id": "0.0-112.0", "trial": 4, "time_elapsed": 785157, "serialpos": 0, "key_press": -1, "wordID": 987, "type": "PRES_VIS", "trial_index": 157}, "uniqueid": "MTK1784:3EF8EXOTT22BPZ7GRPDAS5IB9IIJ1I", "dateTime": 1516299911723}, {"current_trial": 158, "trialdata": {"rt": -1, "trial_type": "single-stim", "word": "rabbit", "stimulus": "<p id=\"stim\">RABBIT</p>", "conditions": [12, 1600, "v", 12000], "internal_node_id": "0.0-113.0", "trial": 4, "time_elapsed": 787608, "serialpos": 1, "key_press": -1, "wordID": 1151, "type": "PRES_VIS", "trial_index": 158}, "uniqueid": "MTK1784:3EF8EXOTT22BPZ7GRPDAS5IB9IIJ1I", "dateTime": 1516299914173}, {"current_trial": 159, "trialdata": {"rt": -1, "trial_type": "single-stim", "word": "perch", "stimulus": "<p id=\"stim\">PERCH</p>", "conditions": [12, 1600, "v", 12000], "internal_node_id": "0.0-114.0", "trial": 4, "time_elapsed": 790188, "serialpos": 2, "key_press": -1, "wordID": 1047, "type": "PRES_VIS", "trial_index": 159}, "uniqueid": "MTK1784:3EF8EXOTT22BPZ7GRPDAS5IB9IIJ1I", "dateTime": 1516299916754}, {"current_trial": 160, "trialdata": {"rt": -1, "trial_type": "single-stim", "word": "brandy", "stimulus": "<p id=\"stim\">BRANDY</p>", "conditions": [12, 1600, "v", 12000], "internal_node_id": "0.0-115.0", "trial": 4, "time_elapsed": 792721, "serialpos": 3, "key_press": -1, "wordID": 168, "type": "PRES_VIS", "trial_index": 160}, "uniqueid": "MTK1784:3EF8EXOTT22BPZ7GRPDAS5IB9IIJ1I", "dateTime": 1516299919286}, {"current_trial": 161, "trialdata": {"rt": -1, "trial_type": "single-stim", "word": "lunch", "stimulus": "<p id=\"stim\">LUNCH</p>", "conditions": [12, 1600, "v", 12000], "internal_node_id": "0.0-116.0", "trial": 4, "time_elapsed": 795298, "serialpos": 4, "key_press": -1, "wordID": 848, "type": "PRES_VIS", "trial_index": 161}, "uniqueid": "MTK1784:3EF8EXOTT22BPZ7GRPDAS5IB9IIJ1I", "dateTime": 1516299921864}, {"current_trial": 162, "trialdata": {"rt": -1, "trial_type": "single-stim", "word": "nurse", "stimulus": "<p id=\"stim\">NURSE</p>", "conditions": [12, 1600, "v", 12000], "internal_node_id": "0.0-117.0", "trial": 4, "time_elapsed": 797784, "serialpos": 5, "key_press": -1, "wordID": 962, "type": "PRES_VIS", "trial_index": 162}, "uniqueid": "MTK1784:3EF8EXOTT22BPZ7GRPDAS5IB9IIJ1I", "dateTime": 1516299924349}, {"current_trial": 163, "trialdata": {"rt": -1, "trial_type": "single-stim", "word": "raft", "stimulus": "<p id=\"stim\">RAFT</p>", "conditions": [12, 1600, "v", 12000], "internal_node_id": "0.0-118.0", "trial": 4, "time_elapsed": 800209, "serialpos": 6, "key_press": -1, "wordID": 1158, "type": "PRES_VIS", "trial_index": 163}, "uniqueid": "MTK1784:3EF8EXOTT22BPZ7GRPDAS5IB9IIJ1I", "dateTime": 1516299926774}, {"current_trial": 164, "trialdata": {"rt": -1, "trial_type": "single-stim", "word": "airport", "stimulus": "<p id=\"stim\">AIRPORT</p>", "conditions": [12, 1600, "v", 12000], "internal_node_id": "0.0-119.0", "trial": 4, "time_elapsed": 802705, "serialpos": 7, "key_press": -1, "wordID": 12, "type": "PRES_VIS", "trial_index": 164}, "uniqueid": "MTK1784:3EF8EXOTT22BPZ7GRPDAS5IB9IIJ1I", "dateTime": 1516299929270}, {"current_trial": 165, "trialdata": {"rt": -1, "trial_type": "single-stim", "word": "muffin", "stimulus": "<p id=\"stim\">MUFFIN</p>", "conditions": [12, 1600, "v", 12000], "internal_node_id": "0.0-120.0", "trial": 4, "time_elapsed": 805167, "serialpos": 8, "key_press": -1, "wordID": 928, "type": "PRES_VIS", "trial_index": 165}, "uniqueid": "MTK1784:3EF8EXOTT22BPZ7GRPDAS5IB9IIJ1I", "dateTime": 1516299931732}, {"current_trial": 166, "trialdata": {"rt": -1, "trial_type": "single-stim", "word": "supper", "stimulus": "<p id=\"stim\">SUPPER</p>", "conditions": [12, 1600, "v", 12000], "internal_node_id": "0.0-121.0", "trial": 4, "time_elapsed": 807727, "serialpos": 9, "key_press": -1, "wordID": 1410, "type": "PRES_VIS", "trial_index": 166}, "uniqueid": "MTK1784:3EF8EXOTT22BPZ7GRPDAS5IB9IIJ1I", "dateTime": 1516299934292}, {"current_trial": 167, "trialdata": {"rt": -1, "trial_type": "single-stim", "word": "quail", "stimulus": "<p id=\"stim\">QUAIL</p>", "conditions": [12, 1600, "v", 12000], "internal_node_id": "0.0-122.0", "trial": 4, "time_elapsed": 810272, "serialpos": 10, "key_press": -1, "wordID": 1146, "type": "PRES_VIS", "trial_index": 167}, "uniqueid": "MTK1784:3EF8EXOTT22BPZ7GRPDAS5IB9IIJ1I", "dateTime": 1516299936837}, {"current_trial": 168, "trialdata": {"rt": -1, "trial_type": "single-stim", "word": "turkey", "stimulus": "<p id=\"stim\">TURKEY</p>", "conditions": [12, 1600, "v", 12000], "internal_node_id": "0.0-123.0", "trial": 4, "time_elapsed": 813057, "serialpos": 11, "key_press": -1, "wordID": 1519, "type": "PRES_VIS", "trial_index": 168}, "uniqueid": "MTK1784:3EF8EXOTT22BPZ7GRPDAS5IB9IIJ1I", "dateTime": 1516299939622}, {"current_trial": 169, "trialdata": {"rt": -1, "trial_type": "single-stim", "stimulus": "", "internal_node_id": "0.0-124.0-0.0", "time_elapsed": 815318, "key_press": -1, "type": "PRE_RECALL_DELAY", "trial_index": 169}, "uniqueid": "MTK1784:3EF8EXOTT22BPZ7GRPDAS5IB9IIJ1I", "dateTime": 1516299941883}, {"current_trial": 170, "trialdata": {"rt": -1000, "trial_type": "single-audio", "stimulus": "/static/audio/400Hz.wav", "internal_node_id": "0.0-125.0", "time_elapsed": 815820, "key_press": -1, "type": "PRE_RECALL_ALERT", "trial_index": 170}, "uniqueid": "MTK1784:3EF8EXOTT22BPZ7GRPDAS5IB9IIJ1I", "dateTime": 1516299942385}, {"current_trial": 171, "trialdata": {"rt": [3854, 6161, 9067, 11704, 14290, 17208, 29427], "recwords": ["turkey", "rabbit", "quail", "supper", "lunch", "airport", "outfit"], "key_times": [1150, 1370, 1579, 1912, 2236, 3055, 3854, 4313, 4531, 5265, 5399, 5613, 5834, 6161, 7747, 8032, 8228, 8426, 8690, 9067, 9838, 10010, 11019, 11174, 11326, 11495, 11704, 12042, 12312, 12754, 13026, 13174, 14290, 15690, 15842, 16074, 16348, 16572, 16720, 16944, 17208, 25638, 25856, 26052, 26556, 26770, 26934, 27712, 28437, 29427], "trial_type": "free-recall", "conditions": [12, 1600, "v", 12000], "internal_node_id": "0.0-126.0-0.0", "key_presses": [84, 85, 82, 75, 69, 89, 13, 82, 65, 66, 66, 73, 84, 13, 81, 85, 65, 73, 76, 13, 83, 85, 80, 80, 69, 82, 13, 76, 85, 78, 67, 72, 13, 65, 73, 82, 80, 79, 82, 84, 13, 79, 85, 84, 70, 73, 82, 8, 84, 13], "trial": 4, "time_elapsed": 875824, "type": "FREE_RECALL", "trial_index": 171}, "uniqueid": "MTK1784:3EF8EXOTT22BPZ7GRPDAS5IB9IIJ1I", "dateTime": 1516300002393}, {"current_trial": 172, "trialdata": {"rt": 3151, "trial_type": "text", "internal_node_id": "0.0-127.0", "time_elapsed": 880981, "key_press": 32, "type": "INSTRUCTIONS", "trial_index": 172}, "uniqueid": "MTK1784:3EF8EXOTT22BPZ7GRPDAS5IB9IIJ1I", "dateTime": 1516300007546}, {"current_trial": 173, "trialdata": {"rt": [4078, 8375, 12104, 22488], "trial_type": "math-distractor", "key_times": [2694, 4078, 7580, 7988, 8375, 11335, 11671, 12104, 21406, 21984, 22148, 22271, 22488, 23783], "responses": ["8", "17", "16", "21"], "num2": [4, 8, 5, 9, 5], "num3": [1, 6, 8, 7, 5], "conditions": [12, 800, "v", 24000], "internal_node_id": "0.0-128.0", "key_presses": [104, 13, 49, 55, 13, 49, 54, 13, 49, 8, 50, 49, 13, 49], "trial": 5, "time_elapsed": 906987, "type": "DISTRACTOR", "trial_index": 173, "num1": [3, 3, 3, 5, 4]}, "uniqueid": "MTK1784:3EF8EXOTT22BPZ7GRPDAS5IB9IIJ1I", "dateTime": 1516300033552}, {"current_trial": 174, "trialdata": {"rt": -1, "trial_type": "single-stim", "stimulus": "<p id=\"stim\">10</p>", "internal_node_id": "0.0-129.0-0.0", "time_elapsed": 909989, "key_press": -1, "trial_index": 174}, "uniqueid": "MTK1784:3EF8EXOTT22BPZ7GRPDAS5IB9IIJ1I", "dateTime": 1516300036554}, {"current_trial": 175, "trialdata": {"rt": -1, "trial_type": "single-stim", "stimulus": "<p id=\"stim\">9</p>", "internal_node_id": "0.0-129.0-1.0", "time_elapsed": 910991, "key_press": -1, "trial_index": 175}, "uniqueid": "MTK1784:3EF8EXOTT22BPZ7GRPDAS5IB9IIJ1I", "dateTime": 1516300037556}, {"current_trial": 176, "trialdata": {"rt": -1, "trial_type": "single-stim", "stimulus": "<p id=\"stim\">8</p>", "internal_node_id": "0.0-129.0-2.0", "time_elapsed": 911993, "key_press": -1, "trial_index": 176}, "uniqueid": "MTK1784:3EF8EXOTT22BPZ7GRPDAS5IB9IIJ1I", "dateTime": 1516300038558}, {"current_trial": 177, "trialdata": {"rt": -1, "trial_type": "single-stim", "stimulus": "<p id=\"stim\">7</p>", "internal_node_id": "0.0-129.0-3.0", "time_elapsed": 912994, "key_press": -1, "trial_index": 177}, "uniqueid": "MTK1784:3EF8EXOTT22BPZ7GRPDAS5IB9IIJ1I", "dateTime": 1516300039559}, {"current_trial": 178, "trialdata": {"rt": -1, "trial_type": "single-stim", "stimulus": "<p id=\"stim\">6</p>", "internal_node_id": "0.0-129.0-4.0", "time_elapsed": 913996, "key_press": -1, "trial_index": 178}, "uniqueid": "MTK1784:3EF8EXOTT22BPZ7GRPDAS5IB9IIJ1I", "dateTime": 1516300040562}, {"current_trial": 179, "trialdata": {"rt": -1, "trial_type": "single-stim", "stimulus": "<p id=\"stim\">5</p>", "internal_node_id": "0.0-129.0-5.0", "time_elapsed": 914998, "key_press": -1, "trial_index": 179}, "uniqueid": "MTK1784:3EF8EXOTT22BPZ7GRPDAS5IB9IIJ1I", "dateTime": 1516300041563}, {"current_trial": 180, "trialdata": {"rt": -1, "trial_type": "single-stim", "stimulus": "<p id=\"stim\">4</p>", "internal_node_id": "0.0-129.0-6.0", "time_elapsed": 916000, "key_press": -1, "trial_index": 180}, "uniqueid": "MTK1784:3EF8EXOTT22BPZ7GRPDAS5IB9IIJ1I", "dateTime": 1516300042565}, {"current_trial": 181, "trialdata": {"rt": -1, "trial_type": "single-stim", "stimulus": "<p id=\"stim\">3</p>", "internal_node_id": "0.0-129.0-7.0", "time_elapsed": 917001, "key_press": -1, "trial_index": 181}, "uniqueid": "MTK1784:3EF8EXOTT22BPZ7GRPDAS5IB9IIJ1I", "dateTime": 1516300043566}, {"current_trial": 182, "trialdata": {"rt": -1, "trial_type": "single-stim", "stimulus": "<p id=\"stim\">2</p>", "internal_node_id": "0.0-129.0-8.0", "time_elapsed": 918003, "key_press": -1, "trial_index": 182}, "uniqueid": "MTK1784:3EF8EXOTT22BPZ7GRPDAS5IB9IIJ1I", "dateTime": 1516300044569}, {"current_trial": 183, "trialdata": {"rt": -1, "trial_type": "single-stim", "stimulus": "<p id=\"stim\">1</p>", "internal_node_id": "0.0-129.0-9.0", "time_elapsed": 919006, "key_press": -1, "trial_index": 183}, "uniqueid": "MTK1784:3EF8EXOTT22BPZ7GRPDAS5IB9IIJ1I", "dateTime": 1516300045571}, {"current_trial": 184, "trialdata": {"rt": -1, "trial_type": "single-stim", "stimulus": "<p id=\"stim\">+</p>", "internal_node_id": "0.0-130.0-0.0", "time_elapsed": 920508, "key_press": -1, "type": "FIXATION", "trial_index": 184}, "uniqueid": "MTK1784:3EF8EXOTT22BPZ7GRPDAS5IB9IIJ1I", "dateTime": 1516300047073}, {"current_trial": 185, "trialdata": {"rt": -1, "trial_type": "single-stim", "word": "boyfriend", "stimulus": "<p id=\"stim\">BOYFRIEND</p>", "conditions": [12, 800, "v", 24000], "internal_node_id": "0.0-131.0", "trial": 5, "time_elapsed": 921310, "serialpos": 0, "key_press": -1, "wordID": 161, "type": "PRES_VIS", "trial_index": 185}, "uniqueid": "MTK1784:3EF8EXOTT22BPZ7GRPDAS5IB9IIJ1I", "dateTime": 1516300047875}, {"current_trial": 186, "trialdata": {"rt": -1, "trial_type": "single-stim", "word": "braces", "stimulus": "<p id=\"stim\">BRACES</p>", "conditions": [12, 800, "v", 24000], "internal_node_id": "0.0-132.0", "trial": 5, "time_elapsed": 923192, "serialpos": 1, "key_press": -1, "wordID": 163, "type": "PRES_VIS", "trial_index": 186}, "uniqueid": "MTK1784:3EF8EXOTT22BPZ7GRPDAS5IB9IIJ1I", "dateTime": 1516300049758}, {"current_trial": 187, "trialdata": {"rt": -1, "trial_type": "single-stim", "word": "smog", "stimulus": "<p id=\"stim\">SMOG</p>", "conditions": [12, 800, "v", 24000], "internal_node_id": "0.0-133.0", "trial": 5, "time_elapsed": 924820, "serialpos": 2, "key_press": -1, "wordID": 1329, "type": "PRES_VIS", "trial_index": 187}, "uniqueid": "MTK1784:3EF8EXOTT22BPZ7GRPDAS5IB9IIJ1I", "dateTime": 1516300051386}, {"current_trial": 188, "trialdata": {"rt": -1, "trial_type": "single-stim", "word": "ozone", "stimulus": "<p id=\"stim\">OZONE</p>", "conditions": [12, 800, "v", 24000], "internal_node_id": "0.0-134.0", "trial": 5, "time_elapsed": 926733, "serialpos": 3, "key_press": -1, "wordID": 995, "type": "PRES_VIS", "trial_index": 188}, "uniqueid": "MTK1784:3EF8EXOTT22BPZ7GRPDAS5IB9IIJ1I", "dateTime": 1516300053298}, {"current_trial": 189, "trialdata": {"rt": -1, "trial_type": "single-stim", "word": "nightgown", "stimulus": "<p id=\"stim\">NIGHTGOWN</p>", "conditions": [12, 800, "v", 24000], "internal_node_id": "0.0-135.0", "trial": 5, "time_elapsed": 928588, "serialpos": 4, "key_press": -1, "wordID": 952, "type": "PRES_VIS", "trial_index": 189}, "uniqueid": "MTK1784:3EF8EXOTT22BPZ7GRPDAS5IB9IIJ1I", "dateTime": 1516300055153}, {"current_trial": 190, "trialdata": {"rt": -1, "trial_type": "single-stim", "word": "server", "stimulus": "<p id=\"stim\">SERVER</p>", "conditions": [12, 800, "v", 24000], "internal_node_id": "0.0-136.0", "trial": 5, "time_elapsed": 930277, "serialpos": 5, "key_press": -1, "wordID": 1271, "type": "PRES_VIS", "trial_index": 190}, "uniqueid": "MTK1784:3EF8EXOTT22BPZ7GRPDAS5IB9IIJ1I", "dateTime": 1516300056843}, {"current_trial": 191, "trialdata": {"rt": -1, "trial_type": "single-stim", "word": "robot", "stimulus": "<p id=\"stim\">ROBOT</p>", "conditions": [12, 800, "v", 24000], "internal_node_id": "0.0-137.0", "trial": 5, "time_elapsed": 932027, "serialpos": 6, "key_press": -1, "wordID": 1199, "type": "PRES_VIS", "trial_index": 191}, "uniqueid": "MTK1784:3EF8EXOTT22BPZ7GRPDAS5IB9IIJ1I", "dateTime": 1516300058592}, {"current_trial": 192, "trialdata": {"rt": -1, "trial_type": "single-stim", "word": "scalpel", "stimulus": "<p id=\"stim\">SCALPEL</p>", "conditions": [12, 800, "v", 24000], "internal_node_id": "0.0-138.0", "trial": 5, "time_elapsed": 933687, "serialpos": 7, "key_press": -1, "wordID": 1242, "type": "PRES_VIS", "trial_index": 192}, "uniqueid": "MTK1784:3EF8EXOTT22BPZ7GRPDAS5IB9IIJ1I", "dateTime": 1516300060252}, {"current_trial": 193, "trialdata": {"rt": -1, "trial_type": "single-stim", "word": "mustard", "stimulus": "<p id=\"stim\">MUSTARD</p>", "conditions": [12, 800, "v", 24000], "internal_node_id": "0.0-139.0", "trial": 5, "time_elapsed": 935488, "serialpos": 8, "key_press": -1, "wordID": 934, "type": "PRES_VIS", "trial_index": 193}, "uniqueid": "MTK1784:3EF8EXOTT22BPZ7GRPDAS5IB9IIJ1I", "dateTime": 1516300062054}, {"current_trial": 194, "trialdata": {"rt": -1, "trial_type": "single-stim", "word": "lava", "stimulus": "<p id=\"stim\">LAVA</p>", "conditions": [12, 800, "v", 24000], "internal_node_id": "0.0-140.0", "trial": 5, "time_elapsed": 937264, "serialpos": 9, "key_press": -1, "wordID": 803, "type": "PRES_VIS", "trial_index": 194}, "uniqueid": "MTK1784:3EF8EXOTT22BPZ7GRPDAS5IB9IIJ1I", "dateTime": 1516300063830}, {"current_trial": 195, "trialdata": {"rt": -1, "trial_type": "single-stim", "word": "girl", "stimulus": "<p id=\"stim\">GIRL</p>", "conditions": [12, 800, "v", 24000], "internal_node_id": "0.0-141.0", "trial": 5, "time_elapsed": 939082, "serialpos": 10, "key_press": -1, "wordID": 636, "type": "PRES_VIS", "trial_index": 195}, "uniqueid": "MTK1784:3EF8EXOTT22BPZ7GRPDAS5IB9IIJ1I", "dateTime": 1516300065647}, {"current_trial": 196, "trialdata": {"rt": -1, "trial_type": "single-stim", "word": "pimple", "stimulus": "<p id=\"stim\">PIMPLE</p>", "conditions": [12, 800, "v", 24000], "internal_node_id": "0.0-142.0", "trial": 5, "time_elapsed": 940775, "serialpos": 11, "key_press": -1, "wordID": 1070, "type": "PRES_VIS", "trial_index": 196}, "uniqueid": "MTK1784:3EF8EXOTT22BPZ7GRPDAS5IB9IIJ1I", "dateTime": 1516300067340}, {"current_trial": 197, "trialdata": {"rt": -1, "trial_type": "single-stim", "stimulus": "", "internal_node_id": "0.0-143.0-0.0", "time_elapsed": 943028, "key_press": -1, "type": "PRE_RECALL_DELAY", "trial_index": 197}, "uniqueid": "MTK1784:3EF8EXOTT22BPZ7GRPDAS5IB9IIJ1I", "dateTime": 1516300069593}, {"current_trial": 198, "trialdata": {"rt": -1000, "trial_type": "single-audio", "stimulus": "/static/audio/400Hz.wav", "internal_node_id": "0.0-144.0", "time_elapsed": 943530, "key_press": -1, "type": "PRE_RECALL_ALERT", "trial_index": 198}, "uniqueid": "MTK1784:3EF8EXOTT22BPZ7GRPDAS5IB9IIJ1I", "dateTime": 1516300070095}, {"current_trial": 199, "trialdata": {"rt": [3234, 6605, 8886, 10823, 15640], "recwords": ["pimple", "girl", "server", "robot", "boyfriend"], "key_times": [681, 988, 1244, 1980, 2249, 2499, 3234, 3856, 4047, 4302, 5018, 5221, 6252, 6605, 7271, 7513, 7671, 7991, 8213, 8393, 8886, 9326, 9583, 9962, 10238, 10558, 10823, 11767, 11912, 12182, 12611, 12757, 12919, 13218, 13792, 14545, 14730, 14919, 15640], "trial_type": "free-recall", "conditions": [12, 800, "v", 24000], "internal_node_id": "0.0-145.0-0.0", "key_presses": [80, 73, 77, 80, 76, 69, 13, 71, 73, 76, 8, 82, 76, 13, 83, 69, 82, 86, 69, 82, 13, 82, 79, 66, 79, 84, 13, 66, 79, 89, 70, 82, 73, 78, 8, 69, 78, 68, 13], "trial": 5, "time_elapsed": 1003535, "type": "FREE_RECALL", "trial_index": 199}, "uniqueid": "MTK1784:3EF8EXOTT22BPZ7GRPDAS5IB9IIJ1I", "dateTime": 1516300130105}, {"current_trial": 200, "trialdata": {"rt": 972, "trial_type": "text", "internal_node_id": "0.0-146.0", "time_elapsed": 1006514, "key_press": 32, "type": "INSTRUCTIONS", "trial_index": 200}, "uniqueid": "MTK1784:3EF8EXOTT22BPZ7GRPDAS5IB9IIJ1I", "dateTime": 1516300133079}, {"current_trial": 201, "trialdata": {"rt": [2664, 5225, 8742, 11073], "trial_type": "math-distractor", "key_times": [2189, 2333, 2664, 4470, 4858, 5225, 7950, 8268, 8742, 10559, 10741, 11073], "responses": ["20", "16", "16", "11"], "num2": [7, 6, 4, 1, 5], "num3": [4, 5, 9, 6, 4], "conditions": [12, 800, "v", 12000], "internal_node_id": "0.0-147.0", "key_presses": [50, 48, 13, 49, 54, 13, 49, 54, 13, 49, 49, 13], "trial": 6, "time_elapsed": 1020521, "type": "DISTRACTOR", "trial_index": 201, "num1": [9, 5, 3, 4, 5]}, "uniqueid": "MTK1784:3EF8EXOTT22BPZ7GRPDAS5IB9IIJ1I", "dateTime": 1516300147086}, {"current_trial": 202, "trialdata": {"rt": -1, "trial_type": "single-stim", "stimulus": "<p id=\"stim\">10</p>", "internal_node_id": "0.0-148.0-0.0", "time_elapsed": 1023525, "key_press": -1, "trial_index": 202}, "uniqueid": "MTK1784:3EF8EXOTT22BPZ7GRPDAS5IB9IIJ1I", "dateTime": 1516300150090}, {"current_trial": 203, "trialdata": {"rt": -1, "trial_type": "single-stim", "stimulus": "<p id=\"stim\">9</p>", "internal_node_id": "0.0-148.0-1.0", "time_elapsed": 1024528, "key_press": -1, "trial_index": 203}, "uniqueid": "MTK1784:3EF8EXOTT22BPZ7GRPDAS5IB9IIJ1I", "dateTime": 1516300151093}, {"current_trial": 204, "trialdata": {"rt": -1, "trial_type": "single-stim", "stimulus": "<p id=\"stim\">8</p>", "internal_node_id": "0.0-148.0-2.0", "time_elapsed": 1025529, "key_press": -1, "trial_index": 204}, "uniqueid": "MTK1784:3EF8EXOTT22BPZ7GRPDAS5IB9IIJ1I", "dateTime": 1516300152095}, {"current_trial": 205, "trialdata": {"rt": -1, "trial_type": "single-stim", "stimulus": "<p id=\"stim\">7</p>", "internal_node_id": "0.0-148.0-3.0", "time_elapsed": 1026532, "key_press": -1, "trial_index": 205}, "uniqueid": "MTK1784:3EF8EXOTT22BPZ7GRPDAS5IB9IIJ1I", "dateTime": 1516300153097}, {"current_trial": 206, "trialdata": {"rt": -1, "trial_type": "single-stim", "stimulus": "<p id=\"stim\">6</p>", "internal_node_id": "0.0-148.0-4.0", "time_elapsed": 1027534, "key_press": -1, "trial_index": 206}, "uniqueid": "MTK1784:3EF8EXOTT22BPZ7GRPDAS5IB9IIJ1I", "dateTime": 1516300154099}, {"current_trial": 207, "trialdata": {"rt": -1, "trial_type": "single-stim", "stimulus": "<p id=\"stim\">5</p>", "internal_node_id": "0.0-148.0-5.0", "time_elapsed": 1028537, "key_press": -1, "trial_index": 207}, "uniqueid": "MTK1784:3EF8EXOTT22BPZ7GRPDAS5IB9IIJ1I", "dateTime": 1516300155102}, {"current_trial": 208, "trialdata": {"rt": -1, "trial_type": "single-stim", "stimulus": "<p id=\"stim\">4</p>", "internal_node_id": "0.0-148.0-6.0", "time_elapsed": 1029541, "key_press": -1, "trial_index": 208}, "uniqueid": "MTK1784:3EF8EXOTT22BPZ7GRPDAS5IB9IIJ1I", "dateTime": 1516300156106}, {"current_trial": 209, "trialdata": {"rt": -1, "trial_type": "single-stim", "stimulus": "<p id=\"stim\">3</p>", "internal_node_id": "0.0-148.0-7.0", "time_elapsed": 1030544, "key_press": -1, "trial_index": 209}, "uniqueid": "MTK1784:3EF8EXOTT22BPZ7GRPDAS5IB9IIJ1I", "dateTime": 1516300157109}, {"current_trial": 210, "trialdata": {"rt": -1, "trial_type": "single-stim", "stimulus": "<p id=\"stim\">2</p>", "internal_node_id": "0.0-148.0-8.0", "time_elapsed": 1031546, "key_press": -1, "trial_index": 210}, "uniqueid": "MTK1784:3EF8EXOTT22BPZ7GRPDAS5IB9IIJ1I", "dateTime": 1516300158111}, {"current_trial": 211, "trialdata": {"rt": -1, "trial_type": "single-stim", "stimulus": "<p id=\"stim\">1</p>", "internal_node_id": "0.0-148.0-9.0", "time_elapsed": 1032549, "key_press": -1, "trial_index": 211}, "uniqueid": "MTK1784:3EF8EXOTT22BPZ7GRPDAS5IB9IIJ1I", "dateTime": 1516300159114}, {"current_trial": 212, "trialdata": {"rt": -1, "trial_type": "single-stim", "stimulus": "<p id=\"stim\">+</p>", "internal_node_id": "0.0-149.0-0.0", "time_elapsed": 1034051, "key_press": -1, "type": "FIXATION", "trial_index": 212}, "uniqueid": "MTK1784:3EF8EXOTT22BPZ7GRPDAS5IB9IIJ1I", "dateTime": 1516300160616}, {"current_trial": 213, "trialdata": {"rt": -1, "trial_type": "single-stim", "word": "motor", "stimulus": "<p id=\"stim\">MOTOR</p>", "conditions": [12, 800, "v", 12000], "internal_node_id": "0.0-150.0", "trial": 6, "time_elapsed": 1034853, "serialpos": 0, "key_press": -1, "wordID": 921, "type": "PRES_VIS", "trial_index": 213}, "uniqueid": "MTK1784:3EF8EXOTT22BPZ7GRPDAS5IB9IIJ1I", "dateTime": 1516300161418}, {"current_trial": 214, "trialdata": {"rt": -1, "trial_type": "single-stim", "word": "swamp", "stimulus": "<p id=\"stim\">SWAMP</p>", "conditions": [12, 800, "v", 12000], "internal_node_id": "0.0-151.0", "trial": 6, "time_elapsed": 1036764, "serialpos": 1, "key_press": -1, "wordID": 1415, "type": "PRES_VIS", "trial_index": 214}, "uniqueid": "MTK1784:3EF8EXOTT22BPZ7GRPDAS5IB9IIJ1I", "dateTime": 1516300163329}, {"current_trial": 215, "trialdata": {"rt": -1, "trial_type": "single-stim", "word": "guitar", "stimulus": "<p id=\"stim\">GUITAR</p>", "conditions": [12, 800, "v", 12000], "internal_node_id": "0.0-152.0", "trial": 6, "time_elapsed": 1038685, "serialpos": 2, "key_press": -1, "wordID": 669, "type": "PRES_VIS", "trial_index": 215}, "uniqueid": "MTK1784:3EF8EXOTT22BPZ7GRPDAS5IB9IIJ1I", "dateTime": 1516300165251}, {"current_trial": 216, "trialdata": {"rt": -1, "trial_type": "single-stim", "word": "virus", "stimulus": "<p id=\"stim\">VIRUS</p>", "conditions": [12, 800, "v", 12000], "internal_node_id": "0.0-153.0", "trial": 6, "time_elapsed": 1040370, "serialpos": 3, "key_press": -1, "wordID": 1571, "type": "PRES_VIS", "trial_index": 216}, "uniqueid": "MTK1784:3EF8EXOTT22BPZ7GRPDAS5IB9IIJ1I", "dateTime": 1516300166936}, {"current_trial": 217, "trialdata": {"rt": -1, "trial_type": "single-stim", "word": "scarecrow", "stimulus": "<p id=\"stim\">SCARECROW</p>", "conditions": [12, 800, "v", 12000], "internal_node_id": "0.0-154.0", "trial": 6, "time_elapsed": 1042064, "serialpos": 4, "key_press": -1, "wordID": 1244, "type": "PRES_VIS", "trial_index": 217}, "uniqueid": "MTK1784:3EF8EXOTT22BPZ7GRPDAS5IB9IIJ1I", "dateTime": 1516300168629}, {"current_trial": 218, "trialdata": {"rt": -1, "trial_type": "single-stim", "word": "postage", "stimulus": "<p id=\"stim\">POSTAGE</p>", "conditions": [12, 800, "v", 12000], "internal_node_id": "0.0-155.0", "trial": 6, "time_elapsed": 1044042, "serialpos": 5, "key_press": -1, "wordID": 1112, "type": "PRES_VIS", "trial_index": 218}, "uniqueid": "MTK1784:3EF8EXOTT22BPZ7GRPDAS5IB9IIJ1I", "dateTime": 1516300170608}, {"current_trial": 219, "trialdata": {"rt": -1, "trial_type": "single-stim", "word": "cookbook", "stimulus": "<p id=\"stim\">COOKBOOK</p>", "conditions": [12, 800, "v", 12000], "internal_node_id": "0.0-156.0", "trial": 6, "time_elapsed": 1045996, "serialpos": 6, "key_press": -1, "wordID": 372, "type": "PRES_VIS", "trial_index": 219}, "uniqueid": "MTK1784:3EF8EXOTT22BPZ7GRPDAS5IB9IIJ1I", "dateTime": 1516300172561}, {"current_trial": 220, "trialdata": {"rt": -1, "trial_type": "single-stim", "word": "piano", "stimulus": "<p id=\"stim\">PIANO</p>", "conditions": [12, 800, "v", 12000], "internal_node_id": "0.0-157.0", "trial": 6, "time_elapsed": 1047655, "serialpos": 7, "key_press": -1, "wordID": 1056, "type": "PRES_VIS", "trial_index": 220}, "uniqueid": "MTK1784:3EF8EXOTT22BPZ7GRPDAS5IB9IIJ1I", "dateTime": 1516300174221}, {"current_trial": 221, "trialdata": {"rt": -1, "trial_type": "single-stim", "word": "kitchen", "stimulus": "<p id=\"stim\">KITCHEN</p>", "conditions": [12, 800, "v", 12000], "internal_node_id": "0.0-158.0", "trial": 6, "time_elapsed": 1049519, "serialpos": 8, "key_press": -1, "wordID": 777, "type": "PRES_VIS", "trial_index": 221}, "uniqueid": "MTK1784:3EF8EXOTT22BPZ7GRPDAS5IB9IIJ1I", "dateTime": 1516300176084}, {"current_trial": 222, "trialdata": {"rt": -1, "trial_type": "single-stim", "word": "lodge", "stimulus": "<p id=\"stim\">LODGE</p>", "conditions": [12, 800, "v", 12000], "internal_node_id": "0.0-159.0", "trial": 6, "time_elapsed": 1051131, "serialpos": 9, "key_press": -1, "wordID": 838, "type": "PRES_VIS", "trial_index": 222}, "uniqueid": "MTK1784:3EF8EXOTT22BPZ7GRPDAS5IB9IIJ1I", "dateTime": 1516300177696}, {"current_trial": 223, "trialdata": {"rt": -1, "trial_type": "single-stim", "word": "fungus", "stimulus": "<p id=\"stim\">FUNGUS</p>", "conditions": [12, 800, "v", 12000], "internal_node_id": "0.0-160.0", "trial": 6, "time_elapsed": 1053077, "serialpos": 10, "key_press": -1, "wordID": 613, "type": "PRES_VIS", "trial_index": 223}, "uniqueid": "MTK1784:3EF8EXOTT22BPZ7GRPDAS5IB9IIJ1I", "dateTime": 1516300179642}, {"current_trial": 224, "trialdata": {"rt": -1, "trial_type": "single-stim", "word": "mildew", "stimulus": "<p id=\"stim\">MILDEW</p>", "conditions": [12, 800, "v", 12000], "internal_node_id": "0.0-161.0", "trial": 6, "time_elapsed": 1054908, "serialpos": 11, "key_press": -1, "wordID": 892, "type": "PRES_VIS", "trial_index": 224}, "uniqueid": "MTK1784:3EF8EXOTT22BPZ7GRPDAS5IB9IIJ1I", "dateTime": 1516300181473}, {"current_trial": 225, "trialdata": {"rt": -1, "trial_type": "single-stim", "stimulus": "", "internal_node_id": "0.0-162.0-0.0", "time_elapsed": 1057193, "key_press": -1, "type": "PRE_RECALL_DELAY", "trial_index": 225}, "uniqueid": "MTK1784:3EF8EXOTT22BPZ7GRPDAS5IB9IIJ1I", "dateTime": 1516300183758}, {"current_trial": 226, "trialdata": {"rt": -1000, "trial_type": "single-audio", "stimulus": "/static/audio/400Hz.wav", "internal_node_id": "0.0-163.0", "time_elapsed": 1057696, "key_press": -1, "type": "PRE_RECALL_ALERT", "trial_index": 226}, "uniqueid": "MTK1784:3EF8EXOTT22BPZ7GRPDAS5IB9IIJ1I", "dateTime": 1516300184261}, {"current_trial": 227, "trialdata": {"rt": [2620, 5025, 8219, 9970, 12433, 17836, 36249], "recwords": ["fungus", "mildew", "cookbook", "piano", "kitchen", "scarecrow", "lodge"], "key_times": [1010, 1328, 1561, 1732, 1941, 2321, 2620, 3216, 3474, 3677, 3966, 4283, 4479, 5025, 5544, 5767, 5907, 6130, 6820, 7174, 7321, 7559, 8219, 8586, 8825, 9205, 9368, 9574, 9970, 10350, 10515, 10850, 11123, 11271, 11508, 11674, 12433, 14399, 14707, 14985, 15249, 15406, 15908, 16105, 16716, 17016, 17282, 17509, 17836, 34932, 35207, 35623, 35761, 35950, 36249], "trial_type": "free-recall", "conditions": [12, 800, "v", 12000], "internal_node_id": "0.0-164.0-0.0", "key_presses": [70, 85, 78, 71, 85, 83, 13, 77, 73, 76, 68, 69, 87, 13, 67, 79, 79, 75, 66, 79, 79, 75, 13, 80, 73, 65, 78, 79, 13, 75, 73, 84, 67, 72, 69, 78, 13, 83, 67, 65, 82, 82, 8, 69, 67, 82, 79, 87, 13, 76, 79, 68, 71, 69, 13], "trial": 6, "time_elapsed": 1117701, "type": "FREE_RECALL", "trial_index": 227}, "uniqueid": "MTK1784:3EF8EXOTT22BPZ7GRPDAS5IB9IIJ1I", "dateTime": 1516300244271}, {"current_trial": 228, "trialdata": {"rt": 1381, "trial_type": "text", "internal_node_id": "0.0-165.0", "time_elapsed": 1121089, "key_press": 32, "type": "INSTRUCTIONS", "trial_index": 228}, "uniqueid": "MTK1784:3EF8EXOTT22BPZ7GRPDAS5IB9IIJ1I", "dateTime": 1516300247654}, {"current_trial": 229, "trialdata": {"rt": [3413, 6563, 11055, 15504, 18218, 21154], "trial_type": "math-distractor", "key_times": [2936, 3413, 5817, 6118, 6563, 10327, 10571, 11055, 14904, 15061, 15504, 17942, 18218, 20290, 20773, 21154], "responses": ["6", "13", "24", "17", "7", "20"], "num2": [3, 7, 7, 9, 3, 4, 9], "num3": [2, 1, 9, 4, 2, 7, 2], "conditions": [12, 1600, "v", 24000], "internal_node_id": "0.0-166.0", "key_presses": [54, 13, 49, 51, 13, 50, 52, 13, 49, 55, 13, 55, 13, 50, 48, 13], "trial": 7, "time_elapsed": 1147093, "type": "DISTRACTOR", "trial_index": 229, "num1": [1, 5, 8, 4, 2, 9, 6]}, "uniqueid": "MTK1784:3EF8EXOTT22BPZ7GRPDAS5IB9IIJ1I", "dateTime": 1516300273659}, {"current_trial": 230, "trialdata": {"rt": -1, "trial_type": "single-stim", "stimulus": "<p id=\"stim\">10</p>", "internal_node_id": "0.0-167.0-0.0", "time_elapsed": 1150096, "key_press": -1, "trial_index": 230}, "uniqueid": "MTK1784:3EF8EXOTT22BPZ7GRPDAS5IB9IIJ1I", "dateTime": 1516300276661}, {"current_trial": 231, "trialdata": {"rt": -1, "trial_type": "single-stim", "stimulus": "<p id=\"stim\">9</p>", "internal_node_id": "0.0-167.0-1.0", "time_elapsed": 1151100, "key_press": -1, "trial_index": 231}, "uniqueid": "MTK1784:3EF8EXOTT22BPZ7GRPDAS5IB9IIJ1I", "dateTime": 1516300277665}, {"current_trial": 232, "trialdata": {"rt": -1, "trial_type": "single-stim", "stimulus": "<p id=\"stim\">8</p>", "internal_node_id": "0.0-167.0-2.0", "time_elapsed": 1152102, "key_press": -1, "trial_index": 232}, "uniqueid": "MTK1784:3EF8EXOTT22BPZ7GRPDAS5IB9IIJ1I", "dateTime": 1516300278667}, {"current_trial": 233, "trialdata": {"rt": -1, "trial_type": "single-stim", "stimulus": "<p id=\"stim\">7</p>", "internal_node_id": "0.0-167.0-3.0", "time_elapsed": 1153104, "key_press": -1, "trial_index": 233}, "uniqueid": "MTK1784:3EF8EXOTT22BPZ7GRPDAS5IB9IIJ1I", "dateTime": 1516300279669}, {"current_trial": 234, "trialdata": {"rt": -1, "trial_type": "single-stim", "stimulus": "<p id=\"stim\">6</p>", "internal_node_id": "0.0-167.0-4.0", "time_elapsed": 1154106, "key_press": -1, "trial_index": 234}, "uniqueid": "MTK1784:3EF8EXOTT22BPZ7GRPDAS5IB9IIJ1I", "dateTime": 1516300280671}, {"current_trial": 235, "trialdata": {"rt": -1, "trial_type": "single-stim", "stimulus": "<p id=\"stim\">5</p>", "internal_node_id": "0.0-167.0-5.0", "time_elapsed": 1155107, "key_press": -1, "trial_index": 235}, "uniqueid": "MTK1784:3EF8EXOTT22BPZ7GRPDAS5IB9IIJ1I", "dateTime": 1516300281673}, {"current_trial": 236, "trialdata": {"rt": -1, "trial_type": "single-stim", "stimulus": "<p id=\"stim\">4</p>", "internal_node_id": "0.0-167.0-6.0", "time_elapsed": 1156110, "key_press": -1, "trial_index": 236}, "uniqueid": "MTK1784:3EF8EXOTT22BPZ7GRPDAS5IB9IIJ1I", "dateTime": 1516300282675}, {"current_trial": 237, "trialdata": {"rt": -1, "trial_type": "single-stim", "stimulus": "<p id=\"stim\">3</p>", "internal_node_id": "0.0-167.0-7.0", "time_elapsed": 1157112, "key_press": -1, "trial_index": 237}, "uniqueid": "MTK1784:3EF8EXOTT22BPZ7GRPDAS5IB9IIJ1I", "dateTime": 1516300283677}, {"current_trial": 238, "trialdata": {"rt": -1, "trial_type": "single-stim", "stimulus": "<p id=\"stim\">2</p>", "internal_node_id": "0.0-167.0-8.0", "time_elapsed": 1158115, "key_press": -1, "trial_index": 238}, "uniqueid": "MTK1784:3EF8EXOTT22BPZ7GRPDAS5IB9IIJ1I", "dateTime": 1516300284680}, {"current_trial": 239, "trialdata": {"rt": -1, "trial_type": "single-stim", "stimulus": "<p id=\"stim\">1</p>", "internal_node_id": "0.0-167.0-9.0", "time_elapsed": 1159117, "key_press": -1, "trial_index": 239}, "uniqueid": "MTK1784:3EF8EXOTT22BPZ7GRPDAS5IB9IIJ1I", "dateTime": 1516300285682}, {"current_trial": 240, "trialdata": {"rt": -1, "trial_type": "single-stim", "stimulus": "<p id=\"stim\">+</p>", "internal_node_id": "0.0-168.0-0.0", "time_elapsed": 1160621, "key_press": -1, "type": "FIXATION", "trial_index": 240}, "uniqueid": "MTK1784:3EF8EXOTT22BPZ7GRPDAS5IB9IIJ1I", "dateTime": 1516300287186}, {"current_trial": 241, "trialdata": {"rt": -1, "trial_type": "single-stim", "word": "infant", "stimulus": "<p id=\"stim\">INFANT</p>", "conditions": [12, 1600, "v", 24000], "internal_node_id": "0.0-169.0", "trial": 7, "time_elapsed": 1162222, "serialpos": 0, "key_press": -1, "wordID": 736, "type": "PRES_VIS", "trial_index": 241}, "uniqueid": "MTK1784:3EF8EXOTT22BPZ7GRPDAS5IB9IIJ1I", "dateTime": 1516300288787}, {"current_trial": 242, "trialdata": {"rt": -1, "trial_type": "single-stim", "word": "beaker", "stimulus": "<p id=\"stim\">BEAKER</p>", "conditions": [12, 1600, "v", 24000], "internal_node_id": "0.0-170.0", "trial": 7, "time_elapsed": 1164836, "serialpos": 1, "key_press": -1, "wordID": 103, "type": "PRES_VIS", "trial_index": 242}, "uniqueid": "MTK1784:3EF8EXOTT22BPZ7GRPDAS5IB9IIJ1I", "dateTime": 1516300291402}, {"current_trial": 243, "trialdata": {"rt": -1, "trial_type": "single-stim", "word": "plaza", "stimulus": "<p id=\"stim\">PLAZA</p>", "conditions": [12, 1600, "v", 24000], "internal_node_id": "0.0-171.0", "trial": 7, "time_elapsed": 1167506, "serialpos": 2, "key_press": -1, "wordID": 1087, "type": "PRES_VIS", "trial_index": 243}, "uniqueid": "MTK1784:3EF8EXOTT22BPZ7GRPDAS5IB9IIJ1I", "dateTime": 1516300294071}, {"current_trial": 244, "trialdata": {"rt": -1, "trial_type": "single-stim", "word": "gymnast", "stimulus": "<p id=\"stim\">GYMNAST</p>", "conditions": [12, 1600, "v", 24000], "internal_node_id": "0.0-172.0", "trial": 7, "time_elapsed": 1170006, "serialpos": 3, "key_press": -1, "wordID": 674, "type": "PRES_VIS", "trial_index": 244}, "uniqueid": "MTK1784:3EF8EXOTT22BPZ7GRPDAS5IB9IIJ1I", "dateTime": 1516300296571}, {"current_trial": 245, "trialdata": {"rt": -1, "trial_type": "single-stim", "word": "penguin", "stimulus": "<p id=\"stim\">PENGUIN</p>", "conditions": [12, 1600, "v", 24000], "internal_node_id": "0.0-173.0", "trial": 7, "time_elapsed": 1172593, "serialpos": 4, "key_press": -1, "wordID": 1043, "type": "PRES_VIS", "trial_index": 245}, "uniqueid": "MTK1784:3EF8EXOTT22BPZ7GRPDAS5IB9IIJ1I", "dateTime": 1516300299158}, {"current_trial": 246, "trialdata": {"rt": -1, "trial_type": "single-stim", "word": "bunny", "stimulus": "<p id=\"stim\">BUNNY</p>", "conditions": [12, 1600, "v", 24000], "internal_node_id": "0.0-174.0", "trial": 7, "time_elapsed": 1175272, "serialpos": 5, "key_press": -1, "wordID": 197, "type": "PRES_VIS", "trial_index": 246}, "uniqueid": "MTK1784:3EF8EXOTT22BPZ7GRPDAS5IB9IIJ1I", "dateTime": 1516300301837}, {"current_trial": 247, "trialdata": {"rt": -1, "trial_type": "single-stim", "word": "picnic", "stimulus": "<p id=\"stim\">PICNIC</p>", "conditions": [12, 1600, "v", 24000], "internal_node_id": "0.0-175.0", "trial": 7, "time_elapsed": 1178049, "serialpos": 6, "key_press": -1, "wordID": 1059, "type": "PRES_VIS", "trial_index": 247}, "uniqueid": "MTK1784:3EF8EXOTT22BPZ7GRPDAS5IB9IIJ1I", "dateTime": 1516300304614}, {"current_trial": 248, "trialdata": {"rt": -1, "trial_type": "single-stim", "word": "truck", "stimulus": "<p id=\"stim\">TRUCK</p>", "conditions": [12, 1600, "v", 24000], "internal_node_id": "0.0-176.0", "trial": 7, "time_elapsed": 1180796, "serialpos": 7, "key_press": -1, "wordID": 1511, "type": "PRES_VIS", "trial_index": 248}, "uniqueid": "MTK1784:3EF8EXOTT22BPZ7GRPDAS5IB9IIJ1I", "dateTime": 1516300307363}, {"current_trial": 249, "trialdata": {"rt": -1, "trial_type": "single-stim", "word": "garbage", "stimulus": "<p id=\"stim\">GARBAGE</p>", "conditions": [12, 1600, "v", 24000], "internal_node_id": "0.0-177.0", "trial": 7, "time_elapsed": 1183539, "serialpos": 8, "key_press": -1, "wordID": 621, "type": "PRES_VIS", "trial_index": 249}, "uniqueid": "MTK1784:3EF8EXOTT22BPZ7GRPDAS5IB9IIJ1I", "dateTime": 1516300310105}, {"current_trial": 250, "trialdata": {"rt": -1, "trial_type": "single-stim", "word": "police", "stimulus": "<p id=\"stim\">POLICE</p>", "conditions": [12, 1600, "v", 24000], "internal_node_id": "0.0-178.0", "trial": 7, "time_elapsed": 1186269, "serialpos": 9, "key_press": -1, "wordID": 1097, "type": "PRES_VIS", "trial_index": 250}, "uniqueid": "MTK1784:3EF8EXOTT22BPZ7GRPDAS5IB9IIJ1I", "dateTime": 1516300312834}, {"current_trial": 251, "trialdata": {"rt": -1, "trial_type": "single-stim", "word": "driver", "stimulus": "<p id=\"stim\">DRIVER</p>", "conditions": [12, 1600, "v", 24000], "internal_node_id": "0.0-179.0", "trial": 7, "time_elapsed": 1188829, "serialpos": 10, "key_press": -1, "wordID": 498, "type": "PRES_VIS", "trial_index": 251}, "uniqueid": "MTK1784:3EF8EXOTT22BPZ7GRPDAS5IB9IIJ1I", "dateTime": 1516300315395}, {"current_trial": 252, "trialdata": {"rt": -1, "trial_type": "single-stim", "word": "flask", "stimulus": "<p id=\"stim\">FLASK</p>", "conditions": [12, 1600, "v", 24000], "internal_node_id": "0.0-180.0", "trial": 7, "time_elapsed": 1191529, "serialpos": 11, "key_press": -1, "wordID": 575, "type": "PRES_VIS", "trial_index": 252}, "uniqueid": "MTK1784:3EF8EXOTT22BPZ7GRPDAS5IB9IIJ1I", "dateTime": 1516300318094}, {"current_trial": 253, "trialdata": {"rt": -1, "trial_type": "single-stim", "stimulus": "", "internal_node_id": "0.0-181.0-0.0", "time_elapsed": 1193931, "key_press": -1, "type": "PRE_RECALL_DELAY", "trial_index": 253}, "uniqueid": "MTK1784:3EF8EXOTT22BPZ7GRPDAS5IB9IIJ1I", "dateTime": 1516300320496}, {"current_trial": 254, "trialdata": {"rt": -1000, "trial_type": "single-audio", "stimulus": "/static/audio/400Hz.wav", "internal_node_id": "0.0-182.0", "time_elapsed": 1194433, "key_press": -1, "type": "PRE_RECALL_ALERT", "trial_index": 254}, "uniqueid": "MTK1784:3EF8EXOTT22BPZ7GRPDAS5IB9IIJ1I", "dateTime": 1516300320998}, {"current_trial": 255, "trialdata": {"rt": [2467, 4965, 6917, 9027, 13195, 15470, 17593, 22402], "recwords": 