{"condition": 0, "counterbalance": 875, "assignmentId": "3NL0RFNU0GUNSIAHWSWORIPRX7WK4S", "workerId": "MTK1126", "hitId": "3APP19WN71LUIZKIZNZM14LS65B6G7", "currenttrial": 626, "bonus": 0, "data": [{"uniqueid": "MTK1126:3NL0RFNU0GUNSIAHWSWORIPRX7WK4S", "current_trial": 0, "dateTime": 1513133488441, "trialdata": {"rt": 2366, "key_press": 32, "type": "INSTRUCTIONS", "trial_type": "text", "trial_index": 0, "time_elapsed": 2368, "internal_node_id": "0.0-0.0"}}, {"uniqueid": "MTK1126:3NL0RFNU0GUNSIAHWSWORIPRX7WK4S", "current_trial": 1, "dateTime": 1513133506126, "trialdata": {"rt": 17682, "key_press": 175, "type": "INSTRUCTIONS", "trial_type": "text", "trial_index": 1, "time_elapsed": 20053, "internal_node_id": "0.0-1.0"}}, {"uniqueid": "MTK1126:3NL0RFNU0GUNSIAHWSWORIPRX7WK4S", "current_trial": 2, "dateTime": 1513133514758, "trialdata": {"rt": [8617], "responses": ["ocean"], "type": "AUDIO_TEST", "trial_type": "audio-test", "trial_index": 2, "time_elapsed": 28686, "internal_node_id": "0.0-2.0"}}, {"uniqueid": "MTK1126:3NL0RFNU0GUNSIAHWSWORIPRX7WK4S", "current_trial": 3, "dateTime": 1513133520150, "trialdata": {"rt": [5388], "responses": ["crystal"], "type": "AUDIO_TEST", "trial_type": "audio-test", "trial_index": 3, "time_elapsed": 34078, "internal_node_id": "0.0-3.0"}}, {"uniqueid": "MTK1126:3NL0RFNU0GUNSIAHWSWORIPRX7WK4S", "current_trial": 4, "dateTime": 1513133529598, "trialdata": {"rt": [9445], "responses": ["spice"], "type": "AUDIO_TEST", "trial_type": "audio-test", "trial_index": 4, "time_elapsed": 43526, "internal_node_id": "0.0-4.0"}}, {"uniqueid": "MTK1126:3NL0RFNU0GUNSIAHWSWORIPRX7WK4S", "current_trial": 5, "dateTime": 1513133544896, "trialdata": {"rt": 14545, "responses": "{\"Q0\":\"11 pm\",\"Q1\":\"6 am\",\"Q2\":\"5\"}", "type": "SLEEP_SURVEY", "trial_type": "survey-text", "trial_index": 5, "time_elapsed": 58824, "internal_node_id": "0.0-5.0"}}, {"uniqueid": "MTK1126:3NL0RFNU0GUNSIAHWSWORIPRX7WK4S", "current_trial": 6, "dateTime": 1513133564197, "trialdata": {"rt": 18300, "key_press": 13, "type": "INSTRUCTIONS", "trial_type": "text", "trial_index": 6, "time_elapsed": 78125, "internal_node_id": "0.0-6.0"}}, {"uniqueid": "MTK1126:3NL0RFNU0GUNSIAHWSWORIPRX7WK4S", "current_trial": 7, "dateTime": 1513133589419, "trialdata": {"rt": 24722, "key_press": 13, "type": "INSTRUCTIONS", "trial_type": "text", "trial_index": 7, "time_elapsed": 103347, "internal_node_id": "0.0-7.0"}}, {"uniqueid": "MTK1126:3NL0RFNU0GUNSIAHWSWORIPRX7WK4S", "current_trial": 8, "dateTime": 1513133592114, "trialdata": {"rt": 2195, "key_press": 13, "type": "INSTRUCTIONS", "trial_type": "text", "trial_index": 8, "time_elapsed": 106042, "internal_node_id": "0.0-8.0"}}, {"uniqueid": "MTK1126:3NL0RFNU0GUNSIAHWSWORIPRX7WK4S", "current_trial": 9, "dateTime": 1513133611121, "trialdata": {"rt": [5506, 9202, 11306, 13290, 15914], "responses": ["12", "16", "10", "21", "17"], "num1": [1, 3, 2, 7, 9, 4], "num2": [5, 4, 2, 7, 1, 6], "num3": [6, 9, 6, 7, 7, 6], "type": "DISTRACTOR", "conditions": [18, 1200, "a", 18000], "trial": 0, "trial_type": "math-distractor", "trial_index": 9, "time_elapsed": 125049, "internal_node_id": "0.0-9.0"}}, {"uniqueid": "MTK1126:3NL0RFNU0GUNSIAHWSWORIPRX7WK4S", "current_trial": 10, "dateTime": 1513133614126, "trialdata": {"rt": -1, "stimulus": "<p id=\"stim\">10</p>", "key_press": -1, "trial_type": "single-stim", "trial_index": 10, "time_elapsed": 128054, "internal_node_id": "0.0-10.0-0.0"}}, {"uniqueid": "MTK1126:3NL0RFNU0GUNSIAHWSWORIPRX7WK4S", "current_trial": 11, "dateTime": 1513133615127, "trialdata": {"rt": -1, "stimulus": "<p id=\"stim\">9</p>", "key_press": -1, "trial_type": "single-stim", "trial_index": 11, "time_elapsed": 129055, "internal_node_id": "0.0-10.0-1.0"}}, {"uniqueid": "MTK1126:3NL0RFNU0GUNSIAHWSWORIPRX7WK4S", "current_trial": 12, "dateTime": 1513133616129, "trialdata": {"rt": -1, "stimulus": "<p id=\"stim\">8</p>", "key_press": -1, "trial_type": "single-stim", "trial_index": 12, "time_elapsed": 130057, "internal_node_id": "0.0-10.0-2.0"}}, {"uniqueid": "MTK1126:3NL0RFNU0GUNSIAHWSWORIPRX7WK4S", "current_trial": 13, "dateTime": 1513133617129, "trialdata": {"rt": -1, "stimulus": "<p id=\"stim\">7</p>", "key_press": -1, "trial_type": "single-stim", "trial_index": 13, "time_elapsed": 131057, "internal_node_id": "0.0-10.0-3.0"}}, {"uniqueid": "MTK1126:3NL0RFNU0GUNSIAHWSWORIPRX7WK4S", "current_trial": 14, "dateTime": 1513133618130, "trialdata": {"rt": -1, "stimulus": "<p id=\"stim\">6</p>", "key_press": -1, "trial_type": "single-stim", "trial_index": 14, "time_elapsed": 132058, "internal_node_id": "0.0-10.0-4.0"}}, {"uniqueid": "MTK1126:3NL0RFNU0GUNSIAHWSWORIPRX7WK4S", "current_trial": 15, "dateTime": 1513133619132, "trialdata": {"rt": -1, "stimulus": "<p id=\"stim\">5</p>", "key_press": -1, "trial_type": "single-stim", "trial_index": 15, "time_elapsed": 133060, "internal_node_id": "0.0-10.0-5.0"}}, {"uniqueid": "MTK1126:3NL0RFNU0GUNSIAHWSWORIPRX7WK4S", "current_trial": 16, "dateTime": 1513133620132, "trialdata": {"rt": -1, "stimulus": "<p id=\"stim\">4</p>", "key_press": -1, "trial_type": "single-stim", "trial_index": 16, "time_elapsed": 134060, "internal_node_id": "0.0-10.0-6.0"}}, {"uniqueid": "MTK1126:3NL0RFNU0GUNSIAHWSWORIPRX7WK4S", "current_trial": 17, "dateTime": 1513133621134, "trialdata": {"rt": -1, "stimulus": "<p id=\"stim\">3</p>", "key_press": -1, "trial_type": "single-stim", "trial_index": 17, "time_elapsed": 135061, "internal_node_id": "0.0-10.0-7.0"}}, {"uniqueid": "MTK1126:3NL0RFNU0GUNSIAHWSWORIPRX7WK4S", "current_trial": 18, "dateTime": 1513133622134, "trialdata": {"rt": -1, "stimulus": "<p id=\"stim\">2</p>", "key_press": -1, "trial_type": "single-stim", "trial_index": 18, "time_elapsed": 136062, "internal_node_id": "0.0-10.0-8.0"}}, {"uniqueid": "MTK1126:3NL0RFNU0GUNSIAHWSWORIPRX7WK4S", "current_trial": 19, "dateTime": 1513133623136, "trialdata": {"rt": -1, "stimulus": "<p id=\"stim\">1</p>", "key_press": -1, "trial_type": "single-stim", "trial_index": 19, "time_elapsed": 137063, "internal_node_id": "0.0-10.0-9.0"}}, {"uniqueid": "MTK1126:3NL0RFNU0GUNSIAHWSWORIPRX7WK4S", "current_trial": 20, "dateTime": 1513133624636, "trialdata": {"rt": -1, "stimulus": "<p id=\"stim\">+</p>", "key_press": -1, "type": "FIXATION", "trial_type": "single-stim", "trial_index": 20, "time_elapsed": 138564, "internal_node_id": "0.0-11.0-0.0"}}, {"uniqueid": "MTK1126:3NL0RFNU0GUNSIAHWSWORIPRX7WK4S", "current_trial": 21, "dateTime": 1513133626661, "trialdata": {"rt": -1000, "stimulus": "/static/audio/wordpool/HANDBAG.wav", "key_press": -1, "type": "PRES_AUD", "word": "handbag", "wordID": 683, "conditions": [18, 1200, "a", 18000], "trial": 0, "serialpos": 0, "trial_type": "single-audio", "trial_index": 21, "time_elapsed": 140589, "internal_node_id": "0.0-12.0"}}, {"uniqueid": "MTK1126:3NL0RFNU0GUNSIAHWSWORIPRX7WK4S", "current_trial": 22, "dateTime": 1513133628693, "trialdata": {"rt": -1000, "stimulus": "/static/audio/wordpool/DAUGHTER.wav", "key_press": -1, "type": "PRES_AUD", "word": "daughter", "wordID": 441, "conditions": [18, 1200, "a", 18000], "trial": 0, "serialpos": 1, "trial_type": "single-audio", "trial_index": 22, "time_elapsed": 142621, "internal_node_id": "0.0-13.0"}}, {"uniqueid": "MTK1126:3NL0RFNU0GUNSIAHWSWORIPRX7WK4S", "current_trial": 23, "dateTime": 1513133630834, "trialdata": {"rt": -1000, "stimulus": "/static/audio/wordpool/OUTDOORS.wav", "key_press": -1, "type": "PRES_AUD", "word": "outdoors", "wordID": 986, "conditions": [18, 1200, "a", 18000], "trial": 0, "serialpos": 2, "trial_type": "single-audio", "trial_index": 23, "time_elapsed": 144762, "internal_node_id": "0.0-14.0"}}, {"uniqueid": "MTK1126:3NL0RFNU0GUNSIAHWSWORIPRX7WK4S", "current_trial": 24, "dateTime": 1513133632851, "trialdata": {"rt": -1000, "stimulus": "/static/audio/wordpool/PENGUIN.wav", "key_press": -1, "type": "PRES_AUD", "word": "penguin", "wordID": 1043, "conditions": [18, 1200, "a", 18000], "trial": 0, "serialpos": 3, "trial_type": "single-audio", "trial_index": 24, "time_elapsed": 146779, "internal_node_id": "0.0-15.0"}}, {"uniqueid": "MTK1126:3NL0RFNU0GUNSIAHWSWORIPRX7WK4S", "current_trial": 25, "dateTime": 1513133634912, "trialdata": {"rt": -1000, "stimulus": "/static/audio/wordpool/SMOG.wav", "key_press": -1, "type": "PRES_AUD", "word": "smog", "wordID": 1329, "conditions": [18, 1200, "a", 18000], "trial": 0, "serialpos": 4, "trial_type": "single-audio", "trial_index": 25, "time_elapsed": 148840, "internal_node_id": "0.0-16.0"}}, {"uniqueid": "MTK1126:3NL0RFNU0GUNSIAHWSWORIPRX7WK4S", "current_trial": 26, "dateTime": 1513133637219, "trialdata": {"rt": -1000, "stimulus": "/static/audio/wordpool/CATCHER.wav", "key_press": -1, "type": "PRES_AUD", "word": "catcher", "wordID": 257, "conditions": [18, 1200, "a", 18000], "trial": 0, "serialpos": 5, "trial_type": "single-audio", "trial_index": 26, "time_elapsed": 151147, "internal_node_id": "0.0-17.0"}}, {"uniqueid": "MTK1126:3NL0RFNU0GUNSIAHWSWORIPRX7WK4S", "current_trial": 27, "dateTime": 1513133639271, "trialdata": {"rt": -1000, "stimulus": "/static/audio/wordpool/PASSAGE.wav", "key_press": -1, "type": "PRES_AUD", "word": "passage", "wordID": 1018, "conditions": [18, 1200, "a", 18000], "trial": 0, "serialpos": 6, "trial_type": "single-audio", "trial_index": 27, "time_elapsed": 153199, "internal_node_id": "0.0-18.0"}}, {"uniqueid": "MTK1126:3NL0RFNU0GUNSIAHWSWORIPRX7WK4S", "current_trial": 28, "dateTime": 1513133641461, "trialdata": {"rt": -1000, "stimulus": "/static/audio/wordpool/BODY.wav", "key_press": -1, "type": "PRES_AUD", "word": "body", "wordID": 144, "conditions": [18, 1200, "a", 18000], "trial": 0, "serialpos": 7, "trial_type": "single-audio", "trial_index": 28, "time_elapsed": 155389, "internal_node_id": "0.0-19.0"}}, {"uniqueid": "MTK1126:3NL0RFNU0GUNSIAHWSWORIPRX7WK4S", "current_trial": 29, "dateTime": 1513133643858, "trialdata": {"rt": -1000, "stimulus": "/static/audio/wordpool/CHEST.wav", "key_press": -1, "type": "PRES_AUD", "word": "chest", "wordID": 294, "conditions": [18, 1200, "a", 18000], "trial": 0, "serialpos": 8, "trial_type": "single-audio", "trial_index": 29, "time_elapsed": 157786, "internal_node_id": "0.0-20.0"}}, {"uniqueid": "MTK1126:3NL0RFNU0GUNSIAHWSWORIPRX7WK4S", "current_trial": 30, "dateTime": 1513133646110, "trialdata": {"rt": -1000, "stimulus": "/static/audio/wordpool/SCALLOP.wav", "key_press": -1, "type": "PRES_AUD", "word": "scallop", "wordID": 1241, "conditions": [18, 1200, "a", 18000], "trial": 0, "serialpos": 9, "trial_type": "single-audio", "trial_index": 30, "time_elapsed": 160038, "internal_node_id": "0.0-21.0"}}, {"uniqueid": "MTK1126:3NL0RFNU0GUNSIAHWSWORIPRX7WK4S", "current_trial": 31, "dateTime": 1513133648291, "trialdata": {"rt": -1000, "stimulus": "/static/audio/wordpool/NAPKIN.wav", "key_press": -1, "type": "PRES_AUD", "word": "napkin", "wordID": 936, "conditions": [18, 1200, "a", 18000], "trial": 0, "serialpos": 10, "trial_type": "single-audio", "trial_index": 31, "time_elapsed": 162219, "internal_node_id": "0.0-22.0"}}, {"uniqueid": "MTK1126:3NL0RFNU0GUNSIAHWSWORIPRX7WK4S", "current_trial": 32, "dateTime": 1513133650443, "trialdata": {"rt": -1000, "stimulus": "/static/audio/wordpool/DONKEY.wav", "key_press": -1, "type": "PRES_AUD", "word": "donkey", "wordID": 483, "conditions": [18, 1200, "a", 18000], "trial": 0, "serialpos": 11, "trial_type": "single-audio", "trial_index": 32, "time_elapsed": 164371, "internal_node_id": "0.0-23.0"}}, {"uniqueid": "MTK1126:3NL0RFNU0GUNSIAHWSWORIPRX7WK4S", "current_trial": 33, "dateTime": 1513133652527, "trialdata": {"rt": -1000, "stimulus": "/static/audio/wordpool/BACKBONE.wav", "key_press": -1, "type": "PRES_AUD", "word": "backbone", "wordID": 65, "conditions": [18, 1200, "a", 18000], "trial": 0, "serialpos": 12, "trial_type": "single-audio", "trial_index": 33, "time_elapsed": 166455, "internal_node_id": "0.0-24.0"}}, {"uniqueid": "MTK1126:3NL0RFNU0GUNSIAHWSWORIPRX7WK4S", "current_trial": 34, "dateTime": 1513133654535, "trialdata": {"rt": -1000, "stimulus": "/static/audio/wordpool/NEUTRON.wav", "key_press": -1, "type": "PRES_AUD", "word": "neutron", "wordID": 946, "conditions": [18, 1200, "a", 18000], "trial": 0, "serialpos": 13, "trial_type": "single-audio", "trial_index": 34, "time_elapsed": 168463, "internal_node_id": "0.0-25.0"}}, {"uniqueid": "MTK1126:3NL0RFNU0GUNSIAHWSWORIPRX7WK4S", "current_trial": 35, "dateTime": 1513133656589, "trialdata": {"rt": -1000, "stimulus": "/static/audio/wordpool/ORCHID.wav", "key_press": -1, "type": "PRES_AUD", "word": "orchid", "wordID": 981, "conditions": [18, 1200, "a", 18000], "trial": 0, "serialpos": 14, "trial_type": "single-audio", "trial_index": 35, "time_elapsed": 170517, "internal_node_id": "0.0-26.0"}}, {"uniqueid": "MTK1126:3NL0RFNU0GUNSIAHWSWORIPRX7WK4S", "current_trial": 36, "dateTime": 1513133658827, "trialdata": {"rt": -1000, "stimulus": "/static/audio/wordpool/XEROX.wav", "key_press": -1, "type": "PRES_AUD", "word": "xerox", "wordID": 1627, "conditions": [18, 1200, "a", 18000], "trial": 0, "serialpos": 15, "trial_type": "single-audio", "trial_index": 36, "time_elapsed": 172755, "internal_node_id": "0.0-27.0"}}, {"uniqueid": "MTK1126:3NL0RFNU0GUNSIAHWSWORIPRX7WK4S", "current_trial": 37, "dateTime": 1513133660918, "trialdata": {"rt": -1000, "stimulus": "/static/audio/wordpool/TURKEY.wav", "key_press": -1, "type": "PRES_AUD", "word": "turkey", "wordID": 1519, "conditions": [18, 1200, "a", 18000], "trial": 0, "serialpos": 16, "trial_type": "single-audio", "trial_index": 37, "time_elapsed": 174846, "internal_node_id": "0.0-28.0"}}, {"uniqueid": "MTK1126:3NL0RFNU0GUNSIAHWSWORIPRX7WK4S", "current_trial": 38, "dateTime": 1513133663262, "trialdata": {"rt": -1000, "stimulus": "/static/audio/wordpool/SHOULDER.wav", "key_press": -1, "type": "PRES_AUD", "word": "shoulder", "wordID": 1293, "conditions": [18, 1200, "a", 18000], "trial": 0, "serialpos": 17, "trial_type": "single-audio", "trial_index": 38, "time_elapsed": 177190, "internal_node_id": "0.0-29.0"}}, {"uniqueid": "MTK1126:3NL0RFNU0GUNSIAHWSWORIPRX7WK4S", "current_trial": 39, "dateTime": 1513133664498, "trialdata": {"rt": -1, "stimulus": "", "key_press": -1, "type": "PRE_RECALL_DELAY", "trial_type": "single-stim", "trial_index": 39, "time_elapsed": 178426, "internal_node_id": "0.0-30.0-0.0"}}, {"uniqueid": "MTK1126:3NL0RFNU0GUNSIAHWSWORIPRX7WK4S", "current_trial": 40, "dateTime": 1513133664999, "trialdata": {"rt": -1000, "stimulus": "/static/audio/400Hz.wav", "key_press": -1, "type": "PRE_RECALL_ALERT", "trial_type": "single-audio", "trial_index": 40, "time_elapsed": 178926, "internal_node_id": "0.0-31.0"}}, {"uniqueid": "MTK1126:3NL0RFNU0GUNSIAHWSWORIPRX7WK4S", "current_trial": 41, "dateTime": 1513133725007, "trialdata": {"rt": [3777, 6073, 8577, 11209, 13313, 16609, 22217, 25833, 34912, 44456], "recwords": ["turkey", "shoulder", "scalep", "daughter", "backpack", "whistle", "neighbor", "backbone", "napkine", "daughter"], "type": "FREE_RECALL", "conditions": [18, 1200, "a", 18000], "trial": 0, "trial_type": "free-recall", "trial_index": 41, "time_elapsed": 238930, "internal_node_id": "0.0-32.0-0.0"}}, {"uniqueid": "MTK1126:3NL0RFNU0GUNSIAHWSWORIPRX7WK4S", "current_trial": 42, "dateTime": 1513133728529, "trialdata": {"rt": 1522, "key_press": 13, "type": "INSTRUCTIONS", "trial_type": "text", "trial_index": 42, "time_elapsed": 242457, "internal_node_id": "0.0-33.0"}}, {"uniqueid": "MTK1126:3NL0RFNU0GUNSIAHWSWORIPRX7WK4S", "current_trial": 43, "dateTime": 1513133748532, "trialdata": {"rt": [4213, 5638, 9941, 11605, 16701], "responses": ["14", "12", "18", "14", "19"], "num1": [7, 4, 2, 8, 8, 9], "num2": [4, 4, 9, 2, 3, 4], "num3": [3, 4, 7, 4, 9, 6], "type": "DISTRACTOR", "conditions": [18, 1200, "v", 18000], "trial": 1, "trial_type": "math-distractor", "trial_index": 43, "time_elapsed": 262460, "internal_node_id": "0.0-34.0"}}, {"uniqueid": "MTK1126:3NL0RFNU0GUNSIAHWSWORIPRX7WK4S", "current_trial": 44, "dateTime": 1513133751532, "trialdata": {"rt": -1, "stimulus": "<p id=\"stim\">10</p>", "key_press": -1, "trial_type": "single-stim", "trial_index": 44, "time_elapsed": 265460, "internal_node_id": "0.0-35.0-0.0"}}, {"uniqueid": "MTK1126:3NL0RFNU0GUNSIAHWSWORIPRX7WK4S", "current_trial": 45, "dateTime": 1513133752534, "trialdata": {"rt": -1, "stimulus": "<p id=\"stim\">9</p>", "key_press": -1, "trial_type": "single-stim", "trial_index": 45, "time_elapsed": 266462, "internal_node_id": "0.0-35.0-1.0"}}, {"uniqueid": "MTK1126:3NL0RFNU0GUNSIAHWSWORIPRX7WK4S", "current_trial": 46, "dateTime": 1513133753536, "trialdata": {"rt": -1, "stimulus": "<p id=\"stim\">8</p>", "key_press": -1, "trial_type": "single-stim", "trial_index": 46, "time_elapsed": 267464, "internal_node_id": "0.0-35.0-2.0"}}, {"uniqueid": "MTK1126:3NL0RFNU0GUNSIAHWSWORIPRX7WK4S", "current_trial": 47, "dateTime": 1513133754537, "trialdata": {"rt": -1, "stimulus": "<p id=\"stim\">7</p>", "key_press": -1, "trial_type": "single-stim", "trial_index": 47, "time_elapsed": 268465, "internal_node_id": "0.0-35.0-3.0"}}, {"uniqueid": "MTK1126:3NL0RFNU0GUNSIAHWSWORIPRX7WK4S", "current_trial": 48, "dateTime": 1513133755538, "trialdata": {"rt": -1, "stimulus": "<p id=\"stim\">6</p>", "key_press": -1, "trial_type": "single-stim", "trial_index": 48, "time_elapsed": 269466, "internal_node_id": "0.0-35.0-4.0"}}, {"uniqueid": "MTK1126:3NL0RFNU0GUNSIAHWSWORIPRX7WK4S", "current_trial": 49, "dateTime": 1513133756540, "trialdata": {"rt": -1, "stimulus": "<p id=\"stim\">5</p>", "key_press": -1, "trial_type": "single-stim", "trial_index": 49, "time_elapsed": 270468, "internal_node_id": "0.0-35.0-5.0"}}, {"uniqueid": "MTK1126:3NL0RFNU0GUNSIAHWSWORIPRX7WK4S", "current_trial": 50, "dateTime": 1513133757541, "trialdata": {"rt": -1, "stimulus": "<p id=\"stim\">4</p>", "key_press": -1, "trial_type": "single-stim", "trial_index": 50, "time_elapsed": 271469, "internal_node_id": "0.0-35.0-6.0"}}, {"uniqueid": "MTK1126:3NL0RFNU0GUNSIAHWSWORIPRX7WK4S", "current_trial": 51, "dateTime": 1513133758542, "trialdata": {"rt": -1, "stimulus": "<p id=\"stim\">3</p>", "key_press": -1, "trial_type": "single-stim", "trial_index": 51, "time_elapsed": 272470, "internal_node_id": "0.0-35.0-7.0"}}, {"uniqueid": "MTK1126:3NL0RFNU0GUNSIAHWSWORIPRX7WK4S", "current_trial": 52, "dateTime": 1513133759544, "trialdata": {"rt": -1, "stimulus": "<p id=\"stim\">2</p>", "key_press": -1, "trial_type": "single-stim", "trial_index": 52, "time_elapsed": 273472, "internal_node_id": "0.0-35.0-8.0"}}, {"uniqueid": "MTK1126:3NL0RFNU0GUNSIAHWSWORIPRX7WK4S", "current_trial": 53, "dateTime": 1513133760547, "trialdata": {"rt": -1, "stimulus": "<p id=\"stim\">1</p>", "key_press": -1, "trial_type": "single-stim", "trial_index": 53, "time_elapsed": 274473, "internal_node_id": "0.0-35.0-9.0"}}, {"uniqueid": "MTK1126:3NL0RFNU0GUNSIAHWSWORIPRX7WK4S", "current_trial": 54, "dateTime": 1513133762048, "trialdata": {"rt": -1, "stimulus": "<p id=\"stim\">+</p>", "key_press": -1, "type": "FIXATION", "trial_type": "single-stim", "trial_index": 54, "time_elapsed": 275976, "internal_node_id": "0.0-36.0-0.0"}}, {"uniqueid": "MTK1126:3NL0RFNU0GUNSIAHWSWORIPRX7WK4S", "current_trial": 55, "dateTime": 1513133763249, "trialdata": {"rt": -1, "stimulus": "<p id=\"stim\">SPARROW</p>", "key_press": -1, "type": "PRES_VIS", "word": "sparrow", "wordID": 1346, "conditions": [18, 1200, "v", 18000], "trial": 1, "serialpos": 0, "trial_type": "single-stim", "trial_index": 55, "time_elapsed": 277177, "internal_node_id": "0.0-37.0"}}, {"uniqueid": "MTK1126:3NL0RFNU0GUNSIAHWSWORIPRX7WK4S", "current_trial": 56, "dateTime": 1513133765461, "trialdata": {"rt": -1, "stimulus": "<p id=\"stim\">DUST</p>", "key_press": -1, "type": "PRES_VIS", "word": "dust", "wordID": 507, "conditions": [18, 1200, "v", 18000], "trial": 1, "serialpos": 1, "trial_type": "single-stim", "trial_index": 56, "time_elapsed": 279389, "internal_node_id": "0.0-38.0"}}, {"uniqueid": "MTK1126:3NL0RFNU0GUNSIAHWSWORIPRX7WK4S", "current_trial": 57, "dateTime": 1513133767674, "trialdata": {"rt": -1, "stimulus": "<p id=\"stim\">GLOVE</p>", "key_press": -1, "type": "PRES_VIS", "word": "glove", "wordID": 641, "conditions": [18, 1200, "v", 18000], "trial": 1, "serialpos": 2, "trial_type": "single-stim", "trial_index": 57, "time_elapsed": 281602, "internal_node_id": "0.0-39.0"}}, {"uniqueid": "MTK1126:3NL0RFNU0GUNSIAHWSWORIPRX7WK4S", "current_trial": 58, "dateTime": 1513133769796, "trialdata": {"rt": -1, "stimulus": "<p id=\"stim\">LAGOON</p>", "key_press": -1, "type": "PRES_VIS", "word": "lagoon", "wordID": 794, "conditions": [18, 1200, "v", 18000], "trial": 1, "serialpos": 3, "trial_type": "single-stim", "trial_index": 58, "time_elapsed": 283723, "internal_node_id": "0.0-40.0"}}, {"uniqueid": "MTK1126:3NL0RFNU0GUNSIAHWSWORIPRX7WK4S", "current_trial": 59, "dateTime": 1513133772141, "trialdata": {"rt": -1, "stimulus": "<p id=\"stim\">PORTRAIT</p>", "key_press": -1, "type": "PRES_VIS", "word": "portrait", "wordID": 1110, "conditions": [18, 1200, "v", 18000], "trial": 1, "serialpos": 4, "trial_type": "single-stim", "trial_index": 59, "time_elapsed": 286069, "internal_node_id": "0.0-41.0"}}, {"uniqueid": "MTK1126:3NL0RFNU0GUNSIAHWSWORIPRX7WK4S", "current_trial": 60, "dateTime": 1513133774153, "trialdata": {"rt": -1, "stimulus": "<p id=\"stim\">ROBOT</p>", "key_press": -1, "type": "PRES_VIS", "word": "robot", "wordID": 1199, "conditions": [18, 1200, "v", 18000], "trial": 1, "serialpos": 5, "trial_type": "single-stim", "trial_index": 60, "time_elapsed": 288081, "internal_node_id": "0.0-42.0"}}, {"uniqueid": "MTK1126:3NL0RFNU0GUNSIAHWSWORIPRX7WK4S", "current_trial": 61, "dateTime": 1513133776402, "trialdata": {"rt": -1, "stimulus": "<p id=\"stim\">DRESSER</p>", "key_press": -1, "type": "PRES_VIS", "word": "dresser", "wordID": 495, "conditions": [18, 1200, "v", 18000], "trial": 1, "serialpos": 6, "trial_type": "single-stim", "trial_index": 61, "time_elapsed": 290330, "internal_node_id": "0.0-43.0"}}, {"uniqueid": "MTK1126:3NL0RFNU0GUNSIAHWSWORIPRX7WK4S", "current_trial": 62, "dateTime": 1513133778581, "trialdata": {"rt": -1, "stimulus": "<p id=\"stim\">AIRPLANE</p>", "key_press": -1, "type": "PRES_VIS", "word": "airplane", "wordID": 11, "conditions": [18, 1200, "v", 18000], "trial": 1, "serialpos": 7, "trial_type": "single-stim", "trial_index": 62, "time_elapsed": 292509, "internal_node_id": "0.0-44.0"}}, {"uniqueid": "MTK1126:3NL0RFNU0GUNSIAHWSWORIPRX7WK4S", "current_trial": 63, "dateTime": 1513133780671, "trialdata": {"rt": -1, "stimulus": "<p id=\"stim\">LAMP</p>", "key_press": -1, "type": "PRES_VIS", "word": "lamp", "wordID": 797, "conditions": [18, 1200, "v", 18000], "trial": 1, "serialpos": 8, "trial_type": "single-stim", "trial_index": 63, "time_elapsed": 294598, "internal_node_id": "0.0-45.0"}}, {"uniqueid": "MTK1126:3NL0RFNU0GUNSIAHWSWORIPRX7WK4S", "current_trial": 64, "dateTime": 1513133782867, "trialdata": {"rt": -1, "stimulus": "<p id=\"stim\">ITEM</p>", "key_press": -1, "type": "PRES_VIS", "word": "item", "wordID": 745, "conditions": [18, 1200, "v", 18000], "trial": 1, "serialpos": 9, "trial_type": "single-stim", "trial_index": 64, "time_elapsed": 296795, "internal_node_id": "0.0-46.0"}}, {"uniqueid": "MTK1126:3NL0RFNU0GUNSIAHWSWORIPRX7WK4S", "current_trial": 65, "dateTime": 1513133784955, "trialdata": {"rt": -1, "stimulus": "<p id=\"stim\">LOVER</p>", "key_press": -1, "type": "PRES_VIS", "word": "lover", "wordID": 845, "conditions": [18, 1200, "v", 18000], "trial": 1, "serialpos": 10, "trial_type": "single-stim", "trial_index": 65, "time_elapsed": 298882, "internal_node_id": "0.0-47.0"}}, {"uniqueid": "MTK1126:3NL0RFNU0GUNSIAHWSWORIPRX7WK4S", "current_trial": 66, "dateTime": 1513133787117, "trialdata": {"rt": -1, "stimulus": "<p id=\"stim\">GLOBE</p>", "key_press": -1, "type": "PRES_VIS", "word": "globe", "wordID": 640, "conditions": [18, 1200, "v", 18000], "trial": 1, "serialpos": 11, "trial_type": "single-stim", "trial_index": 66, "time_elapsed": 301045, "internal_node_id": "0.0-48.0"}}, {"uniqueid": "MTK1126:3NL0RFNU0GUNSIAHWSWORIPRX7WK4S", "current_trial": 67, "dateTime": 1513133789352, "trialdata": {"rt": -1, "stimulus": "<p id=\"stim\">RAFT</p>", "key_press": -1, "type": "PRES_VIS", "word": "raft", "wordID": 1158, "conditions": [18, 1200, "v", 18000], "trial": 1, "serialpos": 12, "trial_type": "single-stim", "trial_index": 67, "time_elapsed": 303280, "internal_node_id": "0.0-49.0"}}, {"uniqueid": "MTK1126:3NL0RFNU0GUNSIAHWSWORIPRX7WK4S", "current_trial": 68, "dateTime": 1513133791400, "trialdata": {"rt": -1, "stimulus": "<p id=\"stim\">OFFICE</p>", "key_press": -1, "type": "PRES_VIS", "word": "office", "wordID": 971, "conditions": [18, 1200, "v", 18000], "trial": 1, "serialpos": 13, "trial_type": "single-stim", "trial_index": 68, "time_elapsed": 305324, "internal_node_id": "0.0-50.0"}}, {"uniqueid": "MTK1126:3NL0RFNU0GUNSIAHWSWORIPRX7WK4S", "current_trial": 69, "dateTime": 1513133793685, "trialdata": {"rt": -1, "stimulus": "<p id=\"stim\">BADGE</p>", "key_press": -1, "type": "PRES_VIS", "word": "badge", "wordID": 67, "conditions": [18, 1200, "v", 18000], "trial": 1, "serialpos": 14, "trial_type": "single-stim", "trial_index": 69, "time_elapsed": 307613, "internal_node_id": "0.0-51.0"}}, {"uniqueid": "MTK1126:3NL0RFNU0GUNSIAHWSWORIPRX7WK4S", "current_trial": 70, "dateTime": 1513133795820, "trialdata": {"rt": -1, "stimulus": "<p id=\"stim\">INFANT</p>", "key_press": -1, "type": "PRES_VIS", "word": "infant", "wordID": 736, "conditions": [18, 1200, "v", 18000], "trial": 1, "serialpos": 15, "trial_type": "single-stim", "trial_index": 70, "time_elapsed": 309748, "internal_node_id": "0.0-52.0"}}, {"uniqueid": "MTK1126:3NL0RFNU0GUNSIAHWSWORIPRX7WK4S", "current_trial": 71, "dateTime": 1513133797992, "trialdata": {"rt": -1, "stimulus": "<p id=\"stim\">LIVER</p>", "key_press": -1, "type": "PRES_VIS", "word": "liver", "wordID": 832, "conditions": [18, 1200, "v", 18000], "trial": 1, "serialpos": 16, "trial_type": "single-stim", "trial_index": 71, "time_elapsed": 311918, "internal_node_id": "0.0-53.0"}}, {"uniqueid": "MTK1126:3NL0RFNU0GUNSIAHWSWORIPRX7WK4S", "current_trial": 72, "dateTime": 1513133800026, "trialdata": {"rt": -1, "stimulus": "<p id=\"stim\">NURSE</p>", "key_press": -1, "type": "PRES_VIS", "word": "nurse", "wordID": 962, "conditions": [18, 1200, "v", 18000], "trial": 1, "serialpos": 17, "trial_type": "single-stim", "trial_index": 72, "time_elapsed": 313954, "internal_node_id": "0.0-54.0"}}, {"uniqueid": "MTK1126:3NL0RFNU0GUNSIAHWSWORIPRX7WK4S", "current_trial": 73, "dateTime": 1513133802378, "trialdata": {"rt": -1, "stimulus": "", "key_press": -1, "type": "PRE_RECALL_DELAY", "trial_type": "single-stim", "trial_index": 73, "time_elapsed": 316306, "internal_node_id": "0.0-55.0-0.0"}}, {"uniqueid": "MTK1126:3NL0RFNU0GUNSIAHWSWORIPRX7WK4S", "current_trial": 74, "dateTime": 1513133802879, "trialdata": {"rt": -1000, "stimulus": "/static/audio/400Hz.wav", "key_press": -1, "type": "PRE_RECALL_ALERT", "trial_type": "single-audio", "trial_index": 74, "time_elapsed": 316807, "internal_node_id": "0.0-56.0"}}, {"uniqueid": "MTK1126:3NL0RFNU0GUNSIAHWSWORIPRX7WK4S", "current_trial": 75, "dateTime": 1513133862886, "trialdata": {"rt": [1767, 3038, 4326, 6070, 7342, 9134, 13686, 17382, 19270], "recwords": ["nurse", "dusk", "glove", "lagoon", "liver", "classroom", "dresser", "raft", "draft"], "type": "FREE_RECALL", "conditions": [18, 1200, "v", 18000], "trial": 1, "trial_type": "free-recall", "trial_index": 75, "time_elapsed": 376810, "internal_node_id": "0.0-57.0-0.0"}}, {"uniqueid": "MTK1126:3NL0RFNU0GUNSIAHWSWORIPRX7WK4S", "current_trial": 76, "dateTime": 1513133867226, "trialdata": {"rt": 2336, "key_press": 13, "type": "INSTRUCTIONS", "trial_type": "text", "trial_index": 76, "time_elapsed": 381150, "internal_node_id": "0.0-58.0"}}, {"uniqueid": "MTK1126:3NL0RFNU0GUNSIAHWSWORIPRX7WK4S", "current_trial": 77, "dateTime": 1513133892228, "trialdata": {"rt": [2123, 4218, 6146, 11082, 12634, 17546, 23562], "responses": ["7", "19", "11", "21", "9", "18", "21"], "num1": [1, 4, 4, 5, 1, 6, 7, 5], "num2": [4, 6, 4, 9, 1, 7, 9, 1], "num3": [2, 9, 3, 7, 7, 8, 5, 4], "type": "DISTRACTOR", "conditions": [12, 1600, "v", 24000], "trial": 2, "trial_type": "math-distractor", "trial_index": 77, "time_elapsed": 406156, "internal_node_id": "0.0-59.0"}}, {"uniqueid": "MTK1126:3NL0RFNU0GUNSIAHWSWORIPRX7WK4S", "current_trial": 78, "dateTime": 1513133895229, "trialdata": {"rt": -1, "stimulus": "<p id=\"stim\">10</p>", "key_press": -1, "trial_type": "single-stim", "trial_index": 78, "time_elapsed": 409157, "internal_node_id": "0.0-60.0-0.0"}}, {"uniqueid": "MTK1126:3NL0RFNU0GUNSIAHWSWORIPRX7WK4S", "current_trial": 79, "dateTime": 1513133896230, "trialdata": {"rt": -1, "stimulus": "<p id=\"stim\">9</p>", "key_press": -1, "trial_type": "single-stim", "trial_index": 79, "time_elapsed": 410158, "internal_node_id": "0.0-60.0-1.0"}}, {"uniqueid": "MTK1126:3NL0RFNU0GUNSIAHWSWORIPRX7WK4S", "current_trial": 80, "dateTime": 1513133897231, "trialdata": {"rt": -1, "stimulus": "<p id=\"stim\">8</p>", "key_press": -1, "trial_type": "single-stim", "trial_index": 80, "time_elapsed": 411159, "internal_node_id": "0.0-60.0-2.0"}}, {"uniqueid": "MTK1126:3NL0RFNU0GUNSIAHWSWORIPRX7WK4S", "current_trial": 81, "dateTime": 1513133898232, "trialdata": {"rt": -1, "stimulus": "<p id=\"stim\">7</p>", "key_press": -1, "trial_type": "single-stim", "trial_index": 81, "time_elapsed": 412160, "internal_node_id": "0.0-60.0-3.0"}}, {"uniqueid": "MTK1126:3NL0RFNU0GUNSIAHWSWORIPRX7WK4S", "current_trial": 82, "dateTime": 1513133899234, "trialdata": {"rt": -1, "stimulus": "<p id=\"stim\">6</p>", "key_press": -1, "trial_type": "single-stim", "trial_index": 82, "time_elapsed": 413162, "internal_node_id": "0.0-60.0-4.0"}}, {"uniqueid": "MTK1126:3NL0RFNU0GUNSIAHWSWORIPRX7WK4S", "current_trial": 83, "dateTime": 1513133900235, "trialdata": {"rt": -1, "stimulus": "<p id=\"stim\">5</p>", "key_press": -1, "trial_type": "single-stim", "trial_index": 83, "time_elapsed": 414163, "internal_node_id": "0.0-60.0-5.0"}}, {"uniqueid": "MTK1126:3NL0RFNU0GUNSIAHWSWORIPRX7WK4S", "current_trial": 84, "dateTime": 1513133901237, "trialdata": {"rt": -1, "stimulus": "<p id=\"stim\">4</p>", "key_press": -1, "trial_type": "single-stim", "trial_index": 84, "time_elapsed": 415165, "internal_node_id": "0.0-60.0-6.0"}}, {"uniqueid": "MTK1126:3NL0RFNU0GUNSIAHWSWORIPRX7WK4S", "current_trial": 85, "dateTime": 1513133902238, "trialdata": {"rt": -1, "stimulus": "<p id=\"stim\">3</p>", "key_press": -1, "trial_type": "single-stim", "trial_index": 85, "time_elapsed": 416166, "internal_node_id": "0.0-60.0-7.0"}}, {"uniqueid": "MTK1126:3NL0RFNU0GUNSIAHWSWORIPRX7WK4S", "current_trial": 86, "dateTime": 1513133903240, "trialdata": {"rt": -1, "stimulus": "<p id=\"stim\">2</p>", "key_press": -1, "trial_type": "single-stim", "trial_index": 86, "time_elapsed": 417167, "internal_node_id": "0.0-60.0-8.0"}}, {"uniqueid": "MTK1126:3NL0RFNU0GUNSIAHWSWORIPRX7WK4S", "current_trial": 87, "dateTime": 1513133904240, "trialdata": {"rt": -1, "stimulus": "<p id=\"stim\">1</p>", "key_press": -1, "trial_type": "single-stim", "trial_index": 87, "time_elapsed": 418168, "internal_node_id": "0.0-60.0-9.0"}}, {"uniqueid": "MTK1126:3NL0RFNU0GUNSIAHWSWORIPRX7WK4S", "current_trial": 88, "dateTime": 1513133905741, "trialdata": {"rt": -1, "stimulus": "<p id=\"stim\">+</p>", "key_press": -1, "type": "FIXATION", "trial_type": "single-stim", "trial_index": 88, "time_elapsed": 419669, "internal_node_id": "0.0-61.0-0.0"}}, {"uniqueid": "MTK1126:3NL0RFNU0GUNSIAHWSWORIPRX7WK4S", "current_trial": 89, "dateTime": 1513133907342, "trialdata": {"rt": -1, "stimulus": "<p id=\"stim\">COBRA</p>", "key_press": -1, "type": "PRES_VIS", "word": "cobra", "wordID": 335, "conditions": [12, 1600, "v", 24000], "trial": 2, "serialpos": 0, "trial_type": "single-stim", "trial_index": 89, "time_elapsed": 421270, "internal_node_id": "0.0-62.0"}}, {"uniqueid": "MTK1126:3NL0RFNU0GUNSIAHWSWORIPRX7WK4S", "current_trial": 90, "dateTime": 1513133909785, "trialdata": {"rt": -1, "stimulus": "<p id=\"stim\">PERCH</p>", "key_press": -1, "type": "PRES_VIS", "word": "perch", "wordID": 1047, "conditions": [12, 1600, "v", 24000], "trial": 2, "serialpos": 1, "trial_type": "single-stim", "trial_index": 90, "time_elapsed": 423713, "internal_node_id": "0.0-63.0"}}, {"uniqueid": "MTK1126:3NL0RFNU0GUNSIAHWSWORIPRX7WK4S", "current_trial": 91, "dateTime": 1513133912240, "trialdata": {"rt": -1, "stimulus": "<p id=\"stim\">VALVE</p>", "key_press": -1, "type": "PRES_VIS", "word": "valve", "wordID": 1545, "conditions": [12, 1600, "v", 24000], "trial": 2, "serialpos": 2, "trial_type": "single-stim", "trial_index": 91, "time_elapsed": 426168, "internal_node_id": "0.0-64.0"}}, {"uniqueid": "MTK1126:3NL0RFNU0GUNSIAHWSWORIPRX7WK4S", "current_trial": 92, "dateTime": 1513133914649, "trialdata": {"rt": -1, "stimulus": "<p id=\"stim\">SHRUB</p>", "key_press": -1, "type": "PRES_VIS", "word": "shrub", "wordID": 1298, "conditions": [12, 1600, "v", 24000], "trial": 2, "serialpos": 3, "trial_type": "single-stim", "trial_index": 92, "time_elapsed": 428577, "internal_node_id": "0.0-65.0"}}, {"uniqueid": "MTK1126:3NL0RFNU0GUNSIAHWSWORIPRX7WK4S", "current_trial": 93, "dateTime": 1513133917261, "trialdata": {"rt": -1, "stimulus": "<p id=\"stim\">SUSPECT</p>", "key_press": -1, "type": "PRES_VIS", "word": "suspect", "wordID": 1414, "conditions": [12, 1600, "v", 24000], "trial": 2, "serialpos": 4, "trial_type": "single-stim", "trial_index": 93, "time_elapsed": 431189, "internal_node_id": "0.0-66.0"}}, {"uniqueid": "MTK1126:3NL0RFNU0GUNSIAHWSWORIPRX7WK4S", "current_trial": 94, "dateTime": 1513133919977, "trialdata": {"rt": -1, "stimulus": "<p id=\"stim\">JELLO</p>", "key_press": -1, "type": "PRES_VIS", "word": "jello", "wordID": 753, "conditions": [12, 1600, "v", 24000], "trial": 2, "serialpos": 5, "trial_type": "single-stim", "trial_index": 94, "time_elapsed": 433905, "internal_node_id": "0.0-67.0"}}, {"uniqueid": "MTK1126:3NL0RFNU0GUNSIAHWSWORIPRX7WK4S", "current_trial": 95, "dateTime": 1513133922662, "trialdata": {"rt": -1, "stimulus": "<p id=\"stim\">SURVEY</p>", "key_press": -1, "type": "PRES_VIS", "word": "survey", "wordID": 1413, "conditions": [12, 1600, "v", 24000], "trial": 2, "serialpos": 6, "trial_type": "single-stim", "trial_index": 95, "time_elapsed": 436590, "internal_node_id": "0.0-68.0"}}, {"uniqueid": "MTK1126:3NL0RFNU0GUNSIAHWSWORIPRX7WK4S", "current_trial": 96, "dateTime": 1513133925209, "trialdata": {"rt": -1, "stimulus": "<p id=\"stim\">JOURNAL</p>", "key_press": -1, "type": "PRES_VIS", "word": "journal", "wordID": 759, "conditions": [12, 1600, "v", 24000], "trial": 2, "serialpos": 7, "trial_type": "single-stim", "trial_index": 96, "time_elapsed": 439137, "internal_node_id": "0.0-69.0"}}, {"uniqueid": "MTK1126:3NL0RFNU0GUNSIAHWSWORIPRX7WK4S", "current_trial": 97, "dateTime": 1513133927918, "trialdata": {"rt": -1, "stimulus": "<p id=\"stim\">PISTON</p>", "key_press": -1, "type": "PRES_VIS", "word": "piston", "wordID": 1075, "conditions": [12, 1600, "v", 24000], "trial": 2, "serialpos": 8, "trial_type": "single-stim", "trial_index": 97, "time_elapsed": 441846, "internal_node_id": "0.0-70.0"}}, {"uniqueid": "MTK1126:3NL0RFNU0GUNSIAHWSWORIPRX7WK4S", "current_trial": 98, "dateTime": 1513133930378, "trialdata": {"rt": -1, "stimulus": "<p id=\"stim\">RIFLE</p>", "key_press": -1, "type": "PRES_VIS", "word": "rifle", "wordID": 1191, "conditions": [12, 1600, "v", 24000], "trial": 2, "serialpos": 9, "trial_type": "single-stim", "trial_index": 98, "time_elapsed": 444306, "internal_node_id": "0.0-71.0"}}, {"uniqueid": "MTK1126:3NL0RFNU0GUNSIAHWSWORIPRX7WK4S", "current_trial": 99, "dateTime": 1513133933061, "trialdata": {"rt": -1, "stimulus": "<p id=\"stim\">CLOTHES</p>", "key_press": -1, "type": "PRES_VIS", "word": "clothes", "wordID": 326, "conditions": [12, 1600, "v", 24000], "trial": 2, "serialpos": 10, "trial_type": "single-stim", "trial_index": 99, "time_elapsed": 446989, "internal_node_id": "0.0-72.0"}}, {"uniqueid": "MTK1126:3NL0RFNU0GUNSIAHWSWORIPRX7WK4S", "current_trial": 100, "dateTime": 1513133935759, "trialdata": {"rt": -1, "stimulus": "<p id=\"stim\">WARDROBE</p>", "key_press": -1, "type": "PRES_VIS", "word": "wardrobe", "wordID": 1586, "conditions": [12, 1600, "v", 24000], "trial": 2, "serialpos": 11, "trial_type": "single-stim", "trial_index": 100, "time_elapsed": 449687, "internal_node_id": "0.0-73.0"}}, {"uniqueid": "MTK1126:3NL0RFNU0GUNSIAHWSWORIPRX7WK4S", "current_trial": 101, "dateTime": 1513133937859, "trialdata": {"rt": -1, "stimulus": "", "key_press": -1, "type": "PRE_RECALL_DELAY", "trial_type": "single-stim", "trial_index": 101, "time_elapsed": 451786, "internal_node_id": "0.0-74.0-0.0"}}, {"uniqueid": "MTK1126:3NL0RFNU0GUNSIAHWSWORIPRX7WK4S", "current_trial": 102, "dateTime": 1513133938360, "trialdata": {"rt": -1000, "stimulus": "/static/audio/400Hz.wav", "key_press": -1, "type": "PRE_RECALL_ALERT", "trial_type": "single-audio", "trial_index": 102, "time_elapsed": 452288, "internal_node_id": "0.0-75.0"}}, {"uniqueid": "MTK1126:3NL0RFNU0GUNSIAHWSWORIPRX7WK4S", "current_trial": 103, "dateTime": 1513133998368, "trialdata": {"rt": [2410, 3899, 5587, 7066, 8115], "recwords": ["clothes", "wardrobe", "perch", "camera", "shrub"], "type": "FREE_RECALL", "conditions": [12, 1600, "v", 24000], "trial": 2, "trial_type": "free-recall", "trial_index": 103, "time_elapsed": 512292, "internal_node_id": "0.0-76.0-0.0"}}, {"uniqueid": "MTK1126:3NL0RFNU0GUNSIAHWSWORIPRX7WK4S", "current_trial": 104, "dateTime": 1513134001516, "trialdata": {"rt": 1147, "key_press": 13, "type": "INSTRUCTIONS", "trial_type": "text", "trial_index": 104, "time_elapsed": 515444, "internal_node_id": "0.0-77.0"}}, {"uniqueid": "MTK1126:3NL0RFNU0GUNSIAHWSWORIPRX7WK4S", "current_trial": 105, "dateTime": 1513134015519, "trialdata": {"rt": [3765, 9109], "responses": ["13", "20"], "num1": [2, 9, 5], "num2": [6, 8, 3], "num3": [5, 3, 2], "type": "DISTRACTOR", "conditions": [24, 1600, "a", 12000], "trial": 3, "trial_type": "math-distractor", "trial_index": 105, "time_elapsed": 529447, "internal_node_id": "0.0-78.0"}}, {"uniqueid": "MTK1126:3NL0RFNU0GUNSIAHWSWORIPRX7WK4S", "current_trial": 106, "dateTime": 1513134018519, "trialdata": {"rt": -1, "stimulus": "<p id=\"stim\">10</p>", "key_press": -1, "trial_type": "single-stim", "trial_index": 106, "time_elapsed": 532447, "internal_node_id": "0.0-79.0-0.0"}}, {"uniqueid": "MTK1126:3NL0RFNU0GUNSIAHWSWORIPRX7WK4S", "current_trial": 107, "dateTime": 1513134019521, "trialdata": {"rt": -1, "stimulus": "<p id=\"stim\">9</p>", "key_press": -1, "trial_type": "single-stim", "trial_index": 107, "time_elapsed": 533448, "internal_node_id": "0.0-79.0-1.0"}}, {"uniqueid": "MTK1126:3NL0RFNU0GUNSIAHWSWORIPRX7WK4S", "current_trial": 108, "dateTime": 1513134020521, "trialdata": {"rt": -1, "stimulus": "<p id=\"stim\">8</p>", "key_press": -1, "trial_type": "single-stim", "trial_index": 108, "time_elapsed": 534449, "internal_node_id": "0.0-79.0-2.0"}}, {"uniqueid": "MTK1126:3NL0RFNU0GUNSIAHWSWORIPRX7WK4S", "current_trial": 109, "dateTime": 1513134021523, "trialdata": {"rt": -1, "stimulus": "<p id=\"stim\">7</p>", "key_press": -1, "trial_type": "single-stim", "trial_index": 109, "time_elapsed": 535450, "internal_node_id": "0.0-79.0-3.0"}}, {"uniqueid": "MTK1126:3NL0RFNU0GUNSIAHWSWORIPRX7WK4S", "current_trial": 110, "dateTime": 1513134022524, "trialdata": {"rt": -1, "stimulus": "<p id=\"stim\">6</p>", "key_press": -1, "trial_type": "single-stim", "trial_index": 110, "time_elapsed": 536452, "internal_node_id": "0.0-79.0-4.0"}}, {"uniqueid": "MTK1126:3NL0RFNU0GUNSIAHWSWORIPRX7WK4S", "current_trial": 111, "dateTime": 1513134023525, "trialdata": {"rt": -1, "stimulus": "<p id=\"stim\">5</p>", "key_press": -1, "trial_type": "single-stim", "trial_index": 111, "time_elapsed": 537452, "internal_node_id": "0.0-79.0-5.0"}}, {"uniqueid": "MTK1126:3NL0RFNU0GUNSIAHWSWORIPRX7WK4S", "current_trial": 112, "dateTime": 1513134024526, "trialdata": {"rt": -1, "stimulus": "<p id=\"stim\">4</p>", "key_press": -1, "trial_type": "single-stim", "trial_index": 112, "time_elapsed": 538453, "internal_node_id": "0.0-79.0-6.0"}}, {"uniqueid": "MTK1126:3NL0RFNU0GUNSIAHWSWORIPRX7WK4S", "current_trial": 113, "dateTime": 1513134025526, "trialdata": {"rt": -1, "stimulus": "<p id=\"stim\">3</p>", "key_press": -1, "trial_type": "single-stim", "trial_index": 113, "time_elapsed": 539454, "internal_node_id": "0.0-79.0-7.0"}}, {"uniqueid": "MTK1126:3NL0RFNU0GUNSIAHWSWORIPRX7WK4S", "current_trial": 114, "dateTime": 1513134026528, "trialdata": {"rt": -1, "stimulus": "<p id=\"stim\">2</p>", "key_press": -1, "trial_type": "single-stim", "trial_index": 114, "time_elapsed": 540456, "internal_node_id": "0.0-79.0-8.0"}}, {"uniqueid": "MTK1126:3NL0RFNU0GUNSIAHWSWORIPRX7WK4S", "current_trial": 115, "dateTime": 1513134027528, "trialdata": {"rt": -1, "stimulus": "<p id=\"stim\">1</p>", "key_press": -1, "trial_type": "single-stim", "trial_index": 115, "time_elapsed": 541456, "internal_node_id": "0.0-79.0-9.0"}}, {"uniqueid": "MTK1126:3NL0RFNU0GUNSIAHWSWORIPRX7WK4S", "current_trial": 116, "dateTime": 1513134029029, "trialdata": {"rt": -1, "stimulus": "<p id=\"stim\">+</p>", "key_press": -1, "type": "FIXATION", "trial_type": "single-stim", "trial_index": 116, "time_elapsed": 542957, "internal_node_id": "0.0-80.0-0.0"}}, {"uniqueid": "MTK1126:3NL0RFNU0GUNSIAHWSWORIPRX7WK4S", "current_trial": 117, "dateTime": 1513134031717, "trialdata": {"rt": -1000, "stimulus": "/static/audio/wordpool/HOUND.wav", "key_press": -1, "type": "PRES_AUD", "word": "hound", "wordID": 723, "conditions": [24, 1600, "a", 12000], "trial": 3, "serialpos": 0, "trial_type": "single-audio", "trial_index": 117, "time_elapsed": 545645, "internal_node_id": "0.0-81.0"}}, {"uniqueid": "MTK1126:3NL0RFNU0GUNSIAHWSWORIPRX7WK4S", "current_trial": 118, "dateTime": 1513134034159, "trialdata": {"rt": -1000, "stimulus": "/static/audio/wordpool/CUPBOARD.wav", "key_press": -1, "type": "PRES_AUD", "word": "cupboard", "wordID": 424, "conditions": [24, 1600, "a", 12000], "trial": 3, "serialpos": 1, "trial_type": "single-audio", "trial_index": 118, "time_elapsed": 548087, "internal_node_id": "0.0-82.0"}}, {"uniqueid": "MTK1126:3NL0RFNU0GUNSIAHWSWORIPRX7WK4S", "current_trial": 119, "dateTime": 1513134036817, "trialdata": {"rt": -1000, "stimulus": "/static/audio/wordpool/UNCLE.wav", "key_press": -1, "type": "PRES_AUD", "word": "uncle", "wordID": 1535, "conditions": [24, 1600, "a", 12000], "trial": 3, "serialpos": 2, "trial_type": "single-audio", "trial_index": 119, "time_elapsed": 550745, "internal_node_id": "0.0-83.0"}}, {"uniqueid": "MTK1126:3NL0RFNU0GUNSIAHWSWORIPRX7WK4S", "current_trial": 120, "dateTime": 1513134039225, "trialdata": {"rt": -1000, "stimulus": "/static/audio/wordpool/WAGON.wav", "key_press": -1, "type": "PRES_AUD", "word": "wagon", "wordID": 1577, "conditions": [24, 1600, "a", 12000], "trial": 3, "serialpos": 3, "trial_type": "single-audio", "trial_index": 120, "time_elapsed": 553153, "internal_node_id": "0.0-84.0"}}, {"uniqueid": "MTK1126:3NL0RFNU0GUNSIAHWSWORIPRX7WK4S", "current_trial": 121, "dateTime": 1513134041980, "trialdata": {"rt": -1000, "stimulus": "/static/audio/wordpool/BUGGY.wav", "key_press": -1, "type": "PRES_AUD", "word": "buggy", "wordID": 187, "conditions": [24, 1600, "a", 12000], "trial": 3, "serialpos": 4, "trial_type": "single-audio", "trial_index": 121, "time_elapsed": 555907, "internal_node_id": "0.0-85.0"}}, {"uniqueid": "MTK1126:3NL0RFNU0GUNSIAHWSWORIPRX7WK4S", "current_trial": 122, "dateTime": 1513134044558, "trialdata": {"rt": -1000, "stimulus": "/static/audio/wordpool/BRANCH.wav", "key_press": -1, "type": "PRES_AUD", "word": "branch", "wordID": 167, "conditions": [24, 1600, "a", 12000], "trial": 3, "serialpos": 5, "trial_type": "single-audio", "trial_index": 122, "time_elapsed": 558486, "internal_node_id": "0.0-86.0"}}, {"uniqueid": "MTK1126:3NL0RFNU0GUNSIAHWSWORIPRX7WK4S", "current_trial": 123, "dateTime": 1513134047265, "trialdata": {"rt": -1000, "stimulus": "/static/audio/wordpool/PIGEON.wav", "key_press": -1, "type": "PRES_AUD", "word": "pigeon", "wordID": 1064, "conditions": [24, 1600, "a", 12000], "trial": 3, "serialpos": 6, "trial_type": "single-audio", "trial_index": 123, "time_elapsed": 561192, "internal_node_id": "0.0-87.0"}}, {"uniqueid": "MTK1126:3NL0RFNU0GUNSIAHWSWORIPRX7WK4S", "current_trial": 124, "dateTime": 1513134049945, "trialdata": {"rt": -1000, "stimulus": "/static/audio/wordpool/EGYPT.wav", "key_press": -1, "type": "PRES_AUD", "word": "egypt", "wordID": 518, "conditions": [24, 1600, "a", 12000], "trial": 3, "serialpos": 7, "trial_type": "single-audio", "trial_index": 124, "time_elapsed": 563873, "internal_node_id": "0.0-88.0"}}, {"uniqueid": "MTK1126:3NL0RFNU0GUNSIAHWSWORIPRX7WK4S", "current_trial": 125, "dateTime": 1513134052448, "trialdata": {"rt": -1000, "stimulus": "/static/audio/wordpool/SUITCASE.wav", "key_press": -1, "type": "PRES_AUD", "word": "suitcase", "wordID": 1402, "conditions": [24, 1600, "a", 12000], "trial": 3, "serialpos": 8, "trial_type": "single-audio", "trial_index": 125, "time_elapsed": 566375, "internal_node_id": "0.0-89.0"}}, {"uniqueid": "MTK1126:3NL0RFNU0GUNSIAHWSWORIPRX7WK4S", "current_trial": 126, "dateTime": 1513134055182, "trialdata": {"rt": -1000, "stimulus": "/static/audio/wordpool/BRIEFCASE.wav", "key_press": -1, "type": "PRES_AUD", "word": "briefcase", "wordID": 174, "conditions": [24, 1600, "a", 12000], "trial": 3, "serialpos": 9, "trial_type": "single-audio", "trial_index": 126, "time_elapsed": 569109, "internal_node_id": "0.0-90.0"}}, {"uniqueid": "MTK1126:3NL0RFNU0GUNSIAHWSWORIPRX7WK4S", "current_trial": 127, "dateTime": 1513134057660, "trialdata": {"rt": -1000, "stimulus": "/static/audio/wordpool/KITCHEN.wav", "key_press": -1, "type": "PRES_AUD", "word": "kitchen", "wordID": 777, "conditions": [24, 1600, "a", 12000], "trial": 3, "serialpos": 10, "trial_type": "single-audio", "trial_index": 127, "time_elapsed": 571587, "internal_node_id": "0.0-91.0"}}, {"uniqueid": "MTK1126:3NL0RFNU0GUNSIAHWSWORIPRX7WK4S", "current_trial": 128, "dateTime": 1513134060303, "trialdata": {"rt": -1000, "stimulus": "/static/audio/wordpool/JAPAN.wav", "key_press": -1, "type": "PRES_AUD", "word": "japan", "wordID": 748, "conditions": [24, 1600, "a", 12000], "trial": 3, "serialpos": 11, "trial_type": "single-audio", "trial_index": 128, "time_elapsed": 574231, "internal_node_id": "0.0-92.0"}}, {"uniqueid": "MTK1126:3NL0RFNU0GUNSIAHWSWORIPRX7WK4S", "current_trial": 129, "dateTime": 1513134063078, "trialdata": {"rt": -1000, "stimulus": "/static/audio/wordpool/DIME.wav", "key_press": -1, "type": "PRES_AUD", "word": "dime", "wordID": 465, "conditions": [24, 1600, "a", 12000], "trial": 3, "serialpos": 12, "trial_type": "single-audio", "trial_index": 129, "time_elapsed": 577005, "internal_node_id": "0.0-93.0"}}, {"uniqueid": "MTK1126:3NL0RFNU0GUNSIAHWSWORIPRX7WK4S", "current_trial": 130, "dateTime": 1513134065623, "trialdata": {"rt": -1000, "stimulus": "/static/audio/wordpool/CHEMIST.wav", "key_press": -1, "type": "PRES_AUD", "word": "chemist", "wordID": 291, "conditions": [24, 1600, "a", 12000], "trial": 3, "serialpos": 13, "trial_type": "single-audio", "trial_index": 130, "time_elapsed": 579550, "internal_node_id": "0.0-94.0"}}, {"uniqueid": "MTK1126:3NL0RFNU0GUNSIAHWSWORIPRX7WK4S", "current_trial": 131, "dateTime": 1513134068286, "trialdata": {"rt": -1000, "stimulus": "/static/audio/wordpool/SHIRT.wav", "key_press": -1, "type": "PRES_AUD", "word": "shirt", "wordID": 1286, "conditions": [24, 1600, "a", 12000], "trial": 3, "serialpos": 14, "trial_type": "single-audio", "trial_index": 131, "time_elapsed": 582213, "internal_node_id": "0.0-95.0"}}, {"uniqueid": "MTK1126:3NL0RFNU0GUNSIAHWSWORIPRX7WK4S", "current_trial": 132, "dateTime": 1513134070741, "trialdata": {"rt": -1000, "stimulus": "/static/audio/wordpool/TOASTER.wav", "key_press": -1, "type": "PRES_AUD", "word": "toaster", "wordID": 1471, "conditions": [24, 1600, "a", 12000], "trial": 3, "serialpos": 15, "trial_type": "single-audio", "trial_index": 132, "time_elapsed": 584668, "internal_node_id": "0.0-96.0"}}, {"uniqueid": "MTK1126:3NL0RFNU0GUNSIAHWSWORIPRX7WK4S", "current_trial": 133, "dateTime": 1513134073479, "trialdata": {"rt": -1000, "stimulus": "/static/audio/wordpool/SCULPTURE.wav", "key_press": -1, "type": "PRES_AUD", "word": "sculpture", "wordID": 1257, "conditions": [24, 1600, "a", 12000], "trial": 3, "serialpos": 16, "trial_type": "single-audio", "trial_index": 133, "time_elapsed": 587407, "internal_node_id": "0.0-97.0"}}, {"uniqueid": "MTK1126:3NL0RFNU0GUNSIAHWSWORIPRX7WK4S", "current_trial": 134, "dateTime": 1513134076202, "trialdata": {"rt": -1000, "stimulus": "/static/audio/wordpool/STATUE.wav", "key_press": -1, "type": "PRES_AUD", "word": "statue", "wordID": 1373, "conditions": [24, 1600, "a", 12000], "trial": 3, "serialpos": 17, "trial_type": "single-audio", "trial_index": 134, "time_elapsed": 590130, "internal_node_id": "0.0-98.0"}}, {"uniqueid": "MTK1126:3NL0RFNU0GUNSIAHWSWORIPRX7WK4S", "current_trial": 135, "dateTime": 1513134078737, "trialdata": {"rt": -1000, "stimulus": "/static/audio/wordpool/KIDNEY.wav", "key_press": -1, "type": "PRES_AUD", "word": "kidney", "wordID": 775, "conditions": [24, 1600, "a", 12000], "trial": 3, "serialpos": 18, "trial_type": "single-audio", "trial_index": 135, "time_elapsed": 592664, "internal_node_id": "0.0-99.0"}}, {"uniqueid": "MTK1126:3NL0RFNU0GUNSIAHWSWORIPRX7WK4S", "current_trial": 136, "dateTime": 1513134081174, "trialdata": {"rt": -1000, "stimulus": "/static/audio/wordpool/LION.wav", "key_press": -1, "type": "PRES_AUD", "word": "lion", "wordID": 826, "conditions": [24, 1600, "a", 12000], "trial": 3, "serialpos": 19, "trial_type": "single-audio", "trial_index": 136, "time_elapsed": 595101, "internal_node_id": "0.0-100.0"}}, {"uniqueid": "MTK1126:3NL0RFNU0GUNSIAHWSWORIPRX7WK4S", "current_trial": 137, "dateTime": 1513134083870, "trialdata": {"rt": -1000, "stimulus": "/static/audio/wordpool/HEADBAND.wav", "key_press": -1, "type": "PRES_AUD", "word": "headband", "wordID": 695, "conditions": [24, 1600, "a", 12000], "trial": 3, "serialpos": 20, "trial_type": "single-audio", "trial_index": 137, "time_elapsed": 597798, "internal_node_id": "0.0-101.0"}}, {"uniqueid": "MTK1126:3NL0RFNU0GUNSIAHWSWORIPRX7WK4S", "current_trial": 138, "dateTime": 1513134086284, "trialdata": {"rt": -1000, "stimulus": "/static/audio/wordpool/CITRUS.wav", "key_press": -1, "type": "PRES_AUD", "word": "citrus", "wordID": 312, "conditions": [24, 1600, "a", 12000], "trial": 3, "serialpos": 21, "trial_type": "single-audio", "trial_index": 138, "time_elapsed": 600212, "internal_node_id": "0.0-102.0"}}, {"uniqueid": "MTK1126:3NL0RFNU0GUNSIAHWSWORIPRX7WK4S", "current_trial": 139, "dateTime": 1513134088695, "trialdata": {"rt": -1000, "stimulus": "/static/audio/wordpool/MONSTER.wav", "key_press": -1, "type": "PRES_AUD", "word": "monster", "wordID": 911, "conditions": [24, 1600, "a", 12000], "trial": 3, "serialpos": 22, "trial_type": "single-audio", "trial_index": 139, "time_elapsed": 602623, "internal_node_id": "0.0-103.0"}}, {"uniqueid": "MTK1126:3NL0RFNU0GUNSIAHWSWORIPRX7WK4S", "current_trial": 140, "dateTime": 1513134091319, "trialdata": {"rt": -1000, "stimulus": "/static/audio/wordpool/GANGSTER.wav", "key_press": -1, "type": "PRES_AUD", "word": "gangster", "wordID": 619, "conditions": [24, 1600, "a", 12000], "trial": 3, "serialpos": 23, "trial_type": "single-audio", "trial_index": 140, "time_elapsed": 605246, "internal_node_id": "0.0-104.0"}}, {"uniqueid": "MTK1126:3NL0RFNU0GUNSIAHWSWORIPRX7WK4S", "current_trial": 141, "dateTime": 1513134092612, "trialdata": {"rt": -1, "stimulus": "", "key_press": -1, "type": "PRE_RECALL_DELAY", "trial_type": "single-stim", "trial_index": 141, "time_elapsed": 606540, "internal_node_id": "0.0-105.0-0.0"}}, {"uniqueid": "MTK1126:3NL0RFNU0GUNSIAHWSWORIPRX7WK4S", "current_trial": 142, "dateTime": 1513134093113, "trialdata": {"rt": -1000, "stimulus": "/static/audio/400Hz.wav", "key_press": -1, "type": "PRE_RECALL_ALERT", "trial_type": "single-audio", "trial_index": 142, "time_elapsed": 607041, "internal_node_id": "0.0-106.0"}}, {"uniqueid": "MTK1126:3NL0RFNU0GUNSIAHWSWORIPRX7WK4S", "current_trial": 143, "dateTime": 1513134153121, "trialdata": {"rt": [1893, 3630, 4662, 5997, 10174, 13069, 14750, 26365, 27701], "recwords": ["ganster", "headband", "citrus", "japan", "monster", "raft", "maple", "kidney", "liver"], "type": "FREE_RECALL", "conditions": [24, 1600, "a", 12000], "trial": 3, "trial_type": "free-recall", "trial_index": 143, "time_elapsed": 667045, "internal_node_id": "0.0-107.0-0.0"}}, {"uniqueid": "MTK1126:3NL0RFNU0GUNSIAHWSWORIPRX7WK4S", "current_trial": 144, "dateTime": 1513134157233, "trialdata": {"rt": 2111, "key_press": 13, "type": "INSTRUCTIONS", "trial_type": "text", "trial_index": 144, "time_elapsed": 671161, "internal_node_id": "0.0-108.0"}}, {"uniqueid": "MTK1126:3NL0RFNU0GUNSIAHWSWORIPRX7WK4S", "current_trial": 145, "dateTime": 1513134171237, "trialdata": {"rt": [3501, 5861, 8997], "responses": ["14", "9", "16"], "num1": [7, 2, 6, 7], "num2": [5, 4, 6, 5], "num3": [2, 3, 4, 3], "type": "DISTRACTOR", "conditions": [12, 800, "v", 12000], "trial": 4, "trial_type": "math-distractor", "trial_index": 145, "time_elapsed": 685165, "internal_node_id": "0.0-109.0"}}, {"uniqueid": "MTK1126:3NL0RFNU0GUNSIAHWSWORIPRX7WK4S", "current_trial": 146, "dateTime": 1513134174240, "trialdata": {"rt": -1, "stimulus": "<p id=\"stim\">10</p>", "key_press": -1, "trial_type": "single-stim", "trial_index": 146, "time_elapsed": 688167, "internal_node_id": "0.0-110.0-0.0"}}, {"uniqueid": "MTK1126:3NL0RFNU0GUNSIAHWSWORIPRX7WK4S", "current_trial": 147, "dateTime": 1513134175241, "trialdata": {"rt": -1, "stimulus": "<p id=\"stim\">9</p>", "key_press": -1, "trial_type": "single-stim", "trial_index": 147, "time_elapsed": 689168, "internal_node_id": "0.0-110.0-1.0"}}, {"uniqueid": "MTK1126:3NL0RFNU0GUNSIAHWSWORIPRX7WK4S", "current_trial": 148, "dateTime": 1513134176243, "trialdata": {"rt": -1, "stimulus": "<p id=\"stim\">8</p>", "key_press": -1, "trial_type": "single-stim", "trial_index": 148, "time_elapsed": 690170, "internal_node_id": "0.0-110.0-2.0"}}, {"uniqueid": "MTK1126:3NL0RFNU0GUNSIAHWSWORIPRX7WK4S", "current_trial": 149, "dateTime": 1513134177245, "trialdata": {"rt": -1, "stimulus": "<p id=\"stim\">7</p>", "key_press": -1, "trial_type": "single-stim", "trial_index": 149, "time_elapsed": 691172, "internal_node_id": "0.0-110.0-3.0"}}, {"uniqueid": "MTK1126:3NL0RFNU0GUNSIAHWSWORIPRX7WK4S", "current_trial": 150, "dateTime": 1513134178246, "trialdata": {"rt": -1, "stimulus": "<p id=\"stim\">6</p>", "key_press": -1, "trial_type": "single-stim", "trial_index": 150, "time_elapsed": 692174, "internal_node_id": "0.0-110.0-4.0"}}, {"uniqueid": "MTK1126:3NL0RFNU0GUNSIAHWSWORIPRX7WK4S", "current_trial": 151, "dateTime": 1513134179248, "trialdata": {"rt": -1, "stimulus": "<p id=\"stim\">5</p>", "key_press": -1, "trial_type": "single-stim", "trial_index": 151, "time_elapsed": 693175, "internal_node_id": "0.0-110.0-5.0"}}, {"uniqueid": "MTK1126:3NL0RFNU0GUNSIAHWSWORIPRX7WK4S", "current_trial": 152, "dateTime": 1513134180248, "trialdata": {"rt": -1, "stimulus": "<p id=\"stim\">4</p>", "key_press": -1, "trial_type": "single-stim", "trial_index": 152, "time_elapsed": 694176, "internal_node_id": "0.0-110.0-6.0"}}, {"uniqueid": "MTK1126:3NL0RFNU0GUNSIAHWSWORIPRX7WK4S", "current_trial": 153, "dateTime": 1513134181249, "trialdata": {"rt": -1, "stimulus": "<p id=\"stim\">3</p>", "key_press": -1, "trial_type": "single-stim", "trial_index": 153, "time_elapsed": 695176, "internal_node_id": "0.0-110.0-7.0"}}, {"uniqueid": "MTK1126:3NL0RFNU0GUNSIAHWSWORIPRX7WK4S", "current_trial": 154, "dateTime": 1513134182250, "trialdata": {"rt": -1, "stimulus": "<p id=\"stim\">2</p>", "key_press": -1, "trial_type": "single-stim", "trial_index": 154, "time_elapsed": 696177, "internal_node_id": "0.0-110.0-8.0"}}, {"uniqueid": "MTK1126:3NL0RFNU0GUNSIAHWSWORIPRX7WK4S", "current_trial": 155, "dateTime": 1513134183251, "trialdata": {"rt": -1, "stimulus": "<p id=\"stim\">1</p>", "key_press": -1, "trial_type": "single-stim", "trial_index": 155, "time_elapsed": 697178, "internal_node_id": "0.0-110.0-9.0"}}, {"uniqueid": "MTK1126:3NL0RFNU0GUNSIAHWSWORIPRX7WK4S", "current_trial": 156, "dateTime": 1513134184752, "trialdata": {"rt": -1, "stimulus": "<p id=\"stim\">+</p>", "key_press": -1, "type": "FIXATION", "trial_type": "single-stim", "trial_index": 156, "time_elapsed": 698679, "internal_node_id": "0.0-111.0-0.0"}}, {"uniqueid": "MTK1126:3NL0RFNU0GUNSIAHWSWORIPRX7WK4S", "current_trial": 157, "dateTime": 1513134185553, "trialdata": {"rt": -1, "stimulus": "<p id=\"stim\">KNIFE</p>", "key_press": -1, "type": "PRES_VIS", "word": "knife", "wordID": 784, "conditions": [12, 800, "v", 12000], "trial": 4, "serialpos": 0, "trial_type": "single-stim", "trial_index": 157, "time_elapsed": 699480, "internal_node_id": "0.0-112.0"}}, {"uniqueid": "MTK1126:3NL0RFNU0GUNSIAHWSWORIPRX7WK4S", "current_trial": 158, "dateTime": 1513134187257, "trialdata": {"rt": -1, "stimulus": "<p id=\"stim\">CASKET</p>", "key_press": -1, "type": "PRES_VIS", "word": "casket", "wordID": 254, "conditions": [12, 800, "v", 12000], "trial": 4, "serialpos": 1, "trial_type": "single-stim", "trial_index": 158, "time_elapsed": 701185, "internal_node_id": "0.0-113.0"}}, {"uniqueid": "MTK1126:3NL0RFNU0GUNSIAHWSWORIPRX7WK4S", "current_trial": 159, "dateTime": 1513134189243, "trialdata": {"rt": -1, "stimulus": "<p id=\"stim\">REBEL</p>", "key_press": -1, "type": "PRES_VIS", "word": "rebel", "wordID": 1171, "conditions": [12, 800, "v", 12000], "trial": 4, "serialpos": 2, "trial_type": "single-stim", "trial_index": 159, "time_elapsed": 703171, "internal_node_id": "0.0-114.0"}}, {"uniqueid": "MTK1126:3NL0RFNU0GUNSIAHWSWORIPRX7WK4S", "current_trial": 160, "dateTime": 1513134191119, "trialdata": {"rt": -1, "stimulus": "<p id=\"stim\">MAMMAL</p>", "key_press": -1, "type": "PRES_VIS", "word": "mammal", "wordID": 860, "conditions": [12, 800, "v", 12000], "trial": 4, "serialpos": 3, "trial_type": "single-stim", "trial_index": 160, "time_elapsed": 705047, "internal_node_id": "0.0-115.0"}}, {"uniqueid": "MTK1126:3NL0RFNU0GUNSIAHWSWORIPRX7WK4S", "current_trial": 161, "dateTime": 1513134193039, "trialdata": {"rt": -1, "stimulus": "<p id=\"stim\">ICEBERG</p>", "key_press": -1, "type": "PRES_VIS", "word": "iceberg", "wordID": 730, "conditions": [12, 800, "v", 12000], "trial": 4, "serialpos": 4, "trial_type": "single-stim", "trial_index": 161, "time_elapsed": 706967, "internal_node_id": "0.0-116.0"}}, {"uniqueid": "MTK1126:3NL0RFNU0GUNSIAHWSWORIPRX7WK4S", "current_trial": 162, "dateTime": 1513134194874, "trialdata": {"rt": -1, "stimulus": "<p id=\"stim\">LACE</p>", "key_press": -1, "type": "PRES_VIS", "word": "lace", "wordID": 791, "conditions": [12, 800, "v", 12000], "trial": 4, "serialpos": 5, "trial_type": "single-stim", "trial_index": 162, "time_elapsed": 708802, "internal_node_id": "0.0-117.0"}}, {"uniqueid": "MTK1126:3NL0RFNU0GUNSIAHWSWORIPRX7WK4S", "current_trial": 163, "dateTime": 1513134196694, "trialdata": {"rt": -1, "stimulus": "<p id=\"stim\">QUARTER</p>", "key_press": -1, "type": "PRES_VIS", "word": "quarter", "wordID": 1147, "conditions": [12, 800, "v", 12000], "trial": 4, "serialpos": 6, "trial_type": "single-stim", "trial_index": 163, "time_elapsed": 710621, "internal_node_id": "0.0-118.0"}}, {"uniqueid": "MTK1126:3NL0RFNU0GUNSIAHWSWORIPRX7WK4S", "current_trial": 164, "dateTime": 1513134198319, "trialdata": {"rt": -1, "stimulus": "<p id=\"stim\">TOMBSTONE</p>", "key_press": -1, "type": "PRES_VIS", "word": "tombstone", "wordID": 1477, "conditions": [12, 800, "v", 12000], "trial": 4, "serialpos": 7, "trial_type": "single-stim", "trial_index": 164, "time_elapsed": 712247, "internal_node_id": "0.0-119.0"}}, {"uniqueid": "MTK1126:3NL0RFNU0GUNSIAHWSWORIPRX7WK4S", "current_trial": 165, "dateTime": 1513134200005, "trialdata": {"rt": -1, "stimulus": "<p id=\"stim\">ANKLE</p>", "key_press": -1, "type": "PRES_VIS", "word": "ankle", "wordID": 23, "conditions": [12, 800, "v", 12000], "trial": 4, "serialpos": 8, "trial_type": "single-stim", "trial_index": 165, "time_elapsed": 713932, "internal_node_id": "0.0-120.0"}}, {"uniqueid": "MTK1126:3NL0RFNU0GUNSIAHWSWORIPRX7WK4S", "current_trial": 166, "dateTime": 1513134201941, "trialdata": {"rt": -1, "stimulus": "<p id=\"stim\">MISSILE</p>", "key_press": -1, "type": "PRES_VIS", "word": "missile", "wordID": 899, "conditions": [12, 800, "v", 12000], "trial": 4, "serialpos": 9, "trial_type": "single-stim", "trial_index": 166, "time_elapsed": 715869, "internal_node_id": "0.0-121.0"}}, {"uniqueid": "MTK1126:3NL0RFNU0GUNSIAHWSWORIPRX7WK4S", "current_trial": 167, "dateTime": 1513134203831, "trialdata": {"rt": -1, "stimulus": "<p id=\"stim\">ROCKET</p>", "key_press": -1, "type": "PRES_VIS", "word": "rocket", "wordID": 1201, "conditions": [12, 800, "v", 12000], "trial": 4, "serialpos": 10, "trial_type": "single-stim", "trial_index": 167, "time_elapsed": 717759, "internal_node_id": "0.0-122.0"}}, {"uniqueid": "MTK1126:3NL0RFNU0GUNSIAHWSWORIPRX7WK4S", "current_trial": 168, "dateTime": 1513134205474, "trialdata": {"rt": -1, "stimulus": "<p id=\"stim\">WASP</p>", "key_press": -1, "type": "PRES_VIS", "word": "wasp", "wordID": 1592, "conditions": [12, 800, "v", 12000], "trial": 4, "serialpos": 11, "trial_type": "single-stim", "trial_index": 168, "time_elapsed": 719402, "internal_node_id": "0.0-123.0"}}, {"uniqueid": "MTK1126:3NL0RFNU0GUNSIAHWSWORIPRX7WK4S", "current_trial": 169, "dateTime": 1513134207731, "trialdata": {"rt": -1, "stimulus": "", "key_press": -1, "type": "PRE_RECALL_DELAY", "trial_type": "single-stim", "trial_index": 169, "time_elapsed": 721659, "internal_node_id": "0.0-124.0-0.0"}}, {"uniqueid": "MTK1126:3NL0RFNU0GUNSIAHWSWORIPRX7WK4S", "current_trial": 170, "dateTime": 1513134208233, "trialdata": {"rt": -1000, "stimulus": "/static/audio/400Hz.wav", "key_press": -1, "type": "PRE_RECALL_ALERT", "trial_type": "single-audio", "trial_index": 170, "time_elapsed": 722161, "internal_node_id": "0.0-125.0"}}, {"uniqueid": "MTK1126:3NL0RFNU0GUNSIAHWSWORIPRX7WK4S", "current_trial": 171, "dateTime": 1513134268243, "trialdata": {"rt": [1941, 3596, 5524, 7684], "recwords": ["missle", "rocket", "quarter", "room"], "type": "FREE_RECALL", "conditions": [12, 800, "v", 12000], "trial": 4, "trial_type": "free-recall", "trial_index": 171, "time_elapsed": 782165, "internal_node_id": "0.0-126.0-0.0"}}, {"uniqueid": "MTK1126:3NL0RFNU0GUNSIAHWSWORIPRX7WK4S", "current_trial": 172, "dateTime": 1513134271343, "trialdata": {"rt": 1098, "key_press": 13, "type": "INSTRUCTIONS", "trial_type": "text", "trial_index": 172, "time_elapsed": 785271, "internal_node_id": "0.0-127.0"}}, {"uniqueid": "MTK1126:3NL0RFNU0GUNSIAHWSWORIPRX7WK4S", "current_trial": 173, "dateTime": 1513134297347, "trialdata": {"rt": [4292, 6428, 10555, 12028, 14027, 16715, 19012, 22452], "responses": ["15", "10", "20", "8", "15", "17", "14", "17"], "num1": [7, 5, 7, 1, 5, 8, 9, 4, 7], "num2": [2, 3, 6, 6, 7, 7, 3, 5, 2], "num3": [6, 2, 7, 1, 3, 2, 2, 8, 3], "type": "DISTRACTOR", "conditions": [12, 800, "v", 24000], "trial": 5, "trial_type": "math-distractor", "trial_index": 173, "time_elapsed": 811275, "internal_node_id": "0.0-128.0"}}, {"uniqueid": "MTK1126:3NL0RFNU0GUNSIAHWSWORIPRX7WK4S", "current_trial": 174, "dateTime": 1513134300348, "trialdata": {"rt": -1, "stimulus": "<p id=\"stim\">10</p>", "key_press": -1, "trial_type": "single-stim", "trial_index": 174, "time_elapsed": 814276, "internal_node_id": "0.0-129.0-0.0"}}, {"uniqueid": "MTK1126:3NL0RFNU0GUNSIAHWSWORIPRX7WK4S", "current_trial": 175, "dateTime": 1513134301350, "trialdata": {"rt": -1, "stimulus": "<p id=\"stim\">9</p>", "key_press": -1, "trial_type": "single-stim", "trial_index": 175, "time_elapsed": 815277, "internal_node_id": "0.0-129.0-1.0"}}, {"uniqueid": "MTK1126:3NL0RFNU0GUNSIAHWSWORIPRX7WK4S", "current_trial": 176, "dateTime": 1513134302350, "trialdata": {"rt": -1, "stimulus": "<p id=\"stim\">8</p>", "key_press": -1, "trial_type": "single-stim", "trial_index": 176, "time_elapsed": 816278, "internal_node_id": "0.0-129.0-2.0"}}, {"uniqueid": "MTK1126:3NL0RFNU0GUNSIAHWSWORIPRX7WK4S", "current_trial": 177, "dateTime": 1513134303351, "trialdata": {"rt": -1, "stimulus": "<p id=\"stim\">7</p>", "key_press": -1, "trial_type": "single-stim", "trial_index": 177, "time_elapsed": 817278, "internal_node_id": "0.0-129.0-3.0"}}, {"uniqueid": "MTK1126:3NL0RFNU0GUNSIAHWSWORIPRX7WK4S", "current_trial": 178, "dateTime": 1513134304351, "trialdata": {"rt": -1, "stimulus": "<p id=\"stim\">6</p>", "key_press": -1, "trial_type": "single-stim", "trial_index": 178, "time_elapsed": 818279, "internal_node_id": "0.0-129.0-4.0"}}, {"uniqueid": "MTK1126:3NL0RFNU0GUNSIAHWSWORIPRX7WK4S", "current_trial": 179, "dateTime": 1513134305352, "trialdata": {"rt": -1, "stimulus": "<p id=\"stim\">5</p>", "key_press": -1, "trial_type": "single-stim", "trial_index": 179, "time_elapsed": 819279, "internal_node_id": "0.0-129.0-5.0"}}, {"uniqueid": "MTK1126:3NL0RFNU0GUNSIAHWSWORIPRX7WK4S", "current_trial": 180, "dateTime": 1513134306353, "trialdata": {"rt": -1, "stimulus": "<p id=\"stim\">4</p>", "key_press": -1, "trial_type": "single-stim", "trial_index": 180, "time_elapsed": 820280, "internal_node_id": "0.0-129.0-6.0"}}, {"uniqueid": "MTK1126:3NL0RFNU0GUNSIAHWSWORIPRX7WK4S", "current_trial": 181, "dateTime": 1513134307353, "trialdata": {"rt": -1, "stimulus": "<p id=\"stim\">3</p>", "key_press": -1, "trial_type": "single-stim", "trial_index": 181, "time_elapsed": 821281, "internal_node_id": "0.0-129.0-7.0"}}, {"uniqueid": "MTK1126:3NL0RFNU0GUNSIAHWSWORIPRX7WK4S", "current_trial": 182, "dateTime": 1513134308356, "trialdata": {"rt": -1, "stimulus": "<p id=\"stim\">2</p>", "key_press": -1, "trial_type": "single-stim", "trial_index": 182, "time_elapsed": 822283, "internal_node_id": "0.0-129.0-8.0"}}, {"uniqueid": "MTK1126:3NL0RFNU0GUNSIAHWSWORIPRX7WK4S", "current_trial": 183, "dateTime": 1513134309357, "trialdata": {"rt": -1, "stimulus": "<p id=\"stim\">1</p>", "key_press": -1, "trial_type": "single-stim", "trial_index": 183, "time_elapsed": 823285, "internal_node_id": "0.0-129.0-9.0"}}, {"uniqueid": "MTK1126:3NL0RFNU0GUNSIAHWSWORIPRX7WK4S", "current_trial": 184, "dateTime": 1513134310859, "trialdata": {"rt": -1, "stimulus": "<p id=\"stim\">+</p>", "key_press": -1, "type": "FIXATION", "trial_type": "single-stim", "trial_index": 184, "time_elapsed": 824787, "internal_node_id": "0.0-130.0-0.0"}}, {"uniqueid": "MTK1126:3NL0RFNU0GUNSIAHWSWORIPRX7WK4S", "current_trial": 185, "dateTime": 1513134311660, "trialdata": {"rt": -1, "stimulus": "<p id=\"stim\">TUTU</p>", "key_press": -1, "type": "PRES_VIS", "word": "tutu", "wordID": 1523, "conditions": [12, 800, "v", 24000], "trial": 5, "serialpos": 0, "trial_type": "single-stim", "trial_index": 185, "time_elapsed": 825587, "internal_node_id": "0.0-131.0"}}, {"uniqueid": "MTK1126:3NL0RFNU0GUNSIAHWSWORIPRX7WK4S", "current_trial": 186, "dateTime": 1513134313548, "trialdata": {"rt": -1, "stimulus": "<p id=\"stim\">BACON</p>", "key_press": -1, "type": "PRES_VIS", "word": "bacon", "wordID": 66, "conditions": [12, 800, "v", 24000], "trial": 5, "serialpos": 1, "trial_type": "single-stim", "trial_index": 186, "time_elapsed": 827475, "internal_node_id": "0.0-132.0"}}, {"uniqueid": "MTK1126:3NL0RFNU0GUNSIAHWSWORIPRX7WK4S", "current_trial": 187, "dateTime": 1513134315182, "trialdata": {"rt": -1, "stimulus": "<p id=\"stim\">PORK</p>", "key_press": -1, "type": "PRES_VIS", "word": "pork", "wordID": 1107, "conditions": [12, 800, "v", 24000], "trial": 5, "serialpos": 2, "trial_type": "single-stim", "trial_index": 187, "time_elapsed": 829110, "internal_node_id": "0.0-133.0"}}, {"uniqueid": "MTK1126:3NL0RFNU0GUNSIAHWSWORIPRX7WK4S", "current_trial": 188, "dateTime": 1513134317100, "trialdata": {"rt": -1, "stimulus": "<p id=\"stim\">CASHEW</p>", "key_press": -1, "type": "PRES_VIS", "word": "cashew", "wordID": 252, "conditions": [12, 800, "v", 24000], "trial": 5, "serialpos": 3, "trial_type": "single-stim", "trial_index": 188, "time_elapsed": 831028, "internal_node_id": "0.0-134.0"}}, {"uniqueid": "MTK1126:3NL0RFNU0GUNSIAHWSWORIPRX7WK4S", "current_trial": 189, "dateTime": 1513134318861, "trialdata": {"rt": -1, "stimulus": "<p id=\"stim\">SCOTCH</p>", "key_press": -1, "type": "PRES_VIS", "word": "scotch", "wordID": 1250, "conditions": [12, 800, "v", 24000], "trial": 5, "serialpos": 4, "trial_type": "single-stim", "trial_index": 189, "time_elapsed": 832789, "internal_node_id": "0.0-135.0"}}, {"uniqueid": "MTK1126:3NL0RFNU0GUNSIAHWSWORIPRX7WK4S", "current_trial": 190, "dateTime": 1513134320664, "trialdata": {"rt": -1, "stimulus": "<p id=\"stim\">FARMER</p>", "key_press": -1, "type": "PRES_VIS", "word": "farmer", "wordID": 552, "conditions": [12, 800, "v", 24000], "trial": 5, "serialpos": 5, "trial_type": "single-stim", "trial_index": 190, "time_elapsed": 834592, "internal_node_id": "0.0-136.0"}}, {"uniqueid": "MTK1126:3NL0RFNU0GUNSIAHWSWORIPRX7WK4S", "current_trial": 191, "dateTime": 1513134322599, "trialdata": {"rt": -1, "stimulus": "<p id=\"stim\">FLEET</p>", "key_press": -1, "type": "PRES_VIS", "word": "fleet", "wordID": 577, "conditions": [12, 800, "v", 24000], "trial": 5, "serialpos": 6, "trial_type": "single-stim", "trial_index": 191, "time_elapsed": 836527, "internal_node_id": "0.0-137.0"}}, {"uniqueid": "MTK1126:3NL0RFNU0GUNSIAHWSWORIPRX7WK4S", "current_trial": 192, "dateTime": 1513134324280, "trialdata": {"rt": -1, "stimulus": "<p id=\"stim\">BIKE</p>", "key_press": -1, "type": "PRES_VIS", "word": "bike", "wordID": 124, "conditions": [12, 800, "v", 24000], "trial": 5, "serialpos": 7, "trial_type": "single-stim", "trial_index": 192, "time_elapsed": 838208, "internal_node_id": "0.0-138.0"}}, {"uniqueid": "MTK1126:3NL0RFNU0GUNSIAHWSWORIPRX7WK4S", "current_trial": 193, "dateTime": 1513134325896, "trialdata": {"rt": -1, "stimulus": "<p id=\"stim\">NIGHTGOWN</p>", "key_press": -1, "type": "PRES_VIS", "word": "nightgown", "wordID": 952, "conditions": [12, 800, "v", 24000], "trial": 5, "serialpos": 8, "trial_type": "single-stim", "trial_index": 193, "time_elapsed": 839823, "internal_node_id": "0.0-139.0"}}, {"uniqueid": "MTK1126:3NL0RFNU0GUNSIAHWSWORIPRX7WK4S", "current_trial": 194, "dateTime": 1513134327697, "trialdata": {"rt": -1, "stimulus": "<p id=\"stim\">COTTAGE</p>", "key_press": -1, "type": "PRES_VIS", "word": "cottage", "wordID": 383, "conditions": [12, 800, "v", 24000], "trial": 5, "serialpos": 9, "trial_type": "single-stim", "trial_index": 194, "time_elapsed": 841625, "internal_node_id": "0.0-140.0"}}, {"uniqueid": "MTK1126:3NL0RFNU0GUNSIAHWSWORIPRX7WK4S", "current_trial": 195, "dateTime": 1513134329367, "trialdata": {"rt": -1, "stimulus": "<p id=\"stim\">BEAVER</p>", "key_press": -1, "type": "PRES_VIS", "word": "beaver", "wordID": 108, "conditions": [12, 800, "v", 24000], "trial": 5, "serialpos": 10, "trial_type": "single-stim", "trial_index": 195, "time_elapsed": 843295, "internal_node_id": "0.0-141.0"}}, {"uniqueid": "MTK1126:3NL0RFNU0GUNSIAHWSWORIPRX7WK4S", "current_trial": 196, "dateTime": 1513134331211, "trialdata": {"rt": -1, "stimulus": "<p id=\"stim\">FLASK</p>", "key_press": -1, "type": "PRES_VIS", "word": "flask", "wordID": 575, "conditions": [12, 800, "v", 24000], "trial": 5, "serialpos": 11, "trial_type": "single-stim", "trial_index": 196, "time_elapsed": 845139, "internal_node_id": "0.0-142.0"}}, {"uniqueid": "MTK1126:3NL0RFNU0GUNSIAHWSWORIPRX7WK4S", "current_trial": 197, "dateTime": 1513134333756, "trialdata": {"rt": -1, "stimulus": "", "key_press": -1, "type": "PRE_RECALL_DELAY", "trial_type": "single-stim", "trial_index": 197, "time_elapsed": 847684, "internal_node_id": "0.0-143.0-0.0"}}, {"uniqueid": "MTK1126:3NL0RFNU0GUNSIAHWSWORIPRX7WK4S", "current_trial": 198, "dateTime": 1513134334258, "trialdata": {"rt": -1000, "stimulus": "/static/audio/400Hz.wav", "key_press": -1, "type": "PRE_RECALL_ALERT", "trial_type": "single-audio", "trial_index": 198, "time_elapsed": 848186, "internal_node_id": "0.0-144.0"}}, {"uniqueid": "MTK1126:3NL0RFNU0GUNSIAHWSWORIPRX7WK4S", "current_trial": 199, "dateTime": 1513134394266, "trialdata": {"rt": [1281, 2841, 4481, 7057, 9681], "recwords": ["flask", "cottage", "tutu", "basket", "common"], "type": "FREE_RECALL", "conditions": [12, 800, "v", 24000], "trial": 5, "trial_type": "free-recall", "trial_index": 199, "time_elapsed": 908189, "internal_node_id": "0.0-145.0-0.0"}}, {"uniqueid": "MTK1126:3NL0RFNU0GUNSIAHWSWORIPRX7WK4S", "current_trial": 200, "dateTime": 1513134396804, "trialdata": {"rt": 538, "key_press": 13, "type": "INSTRUCTIONS", "trial_type": "text", "trial_index": 200, "time_elapsed": 910732, "internal_node_id": "0.0-146.0"}}, {"uniqueid": "MTK1126:3NL0RFNU0GUNSIAHWSWORIPRX7WK4S", "current_trial": 201, "dateTime": 1513134422807, "trialdata": {"rt": [4479, 7446, 9390, 16646, 19574], "responses": ["14", "14", "11", "210", "14"], "num1": [3, 7, 4, 5, 8, 5], "num2": [4, 5, 3, 7, 1, 6], "num3": [7, 2, 4, 8, 6, 8], "type": "DISTRACTOR", "conditions": [24, 1600, "v", 24000], "trial": 6, "trial_type": "math-distractor", "trial_index": 201, "time_elapsed": 936735, "internal_node_id": "0.0-147.0"}}, {"uniqueid": "MTK1126:3NL0RFNU0GUNSIAHWSWORIPRX7WK4S", "current_trial": 202, "dateTime": 1513134425807, "trialdata": {"rt": -1, "stimulus": "<p id=\"stim\">10</p>", "key_press": -1, "trial_type": "single-stim", "trial_index": 202, "time_elapsed": 939735, "internal_node_id": "0.0-148.0-0.0"}}, {"uniqueid": "MTK1126:3NL0RFNU0GUNSIAHWSWORIPRX7WK4S", "current_trial": 203, "dateTime": 1513134426808, "trialdata": {"rt": -1, "stimulus": "<p id=\"stim\">9</p>", "key_press": -1, "trial_type": "single-stim", "trial_index": 203, "time_elapsed": 940736, "internal_node_id": "0.0-148.0-1.0"}}, {"uniqueid": "MTK1126:3NL0RFNU0GUNSIAHWSWORIPRX7WK4S", "current_trial": 204, "dateTime": 1513134427810, "trialdata": {"rt": -1, "stimulus": "<p id=\"stim\">8</p>", "key_press": -1, "trial_type": "single-stim", "trial_index": 204, "time_elapsed": 941738, "internal_node_id": "0.0-148.0-2.0"}}, {"uniqueid": "MTK1126:3NL0RFNU0GUNSIAHWSWORIPRX7WK4S", "current_trial": 205, "dateTime": 1513134428811, "trialdata": {"rt": -1, "stimulus": "<p id=\"stim\">7</p>", "key_press": -1, "trial_type": "single-stim", "trial_index": 205, "time_elapsed": 942739, "internal_node_id": "0.0-148.0-3.0"}}, {"uniqueid": "MTK1126:3NL0RFNU0GUNSIAHWSWORIPRX7WK4S", "current_trial": 206, "dateTime": 1513134429812, "trialdata": {"rt": -1, "stimulus": "<p id=\"stim\">6</p>", "key_press": -1, "trial_type": "single-stim", "trial_index": 206, "time_elapsed": 943740, "internal_node_id": "0.0-148.0-4.0"}}, {"uniqueid": "MTK1126:3NL0RFNU0GUNSIAHWSWORIPRX7WK4S", "current_trial": 207, "dateTime": 1513134430813, "trialdata": {"rt": -1, "stimulus": "<p id=\"stim\">5</p>", "key_press": -1, "trial_type": "single-stim", "trial_index": 207, "time_elapsed": 944741, "internal_node_id": "0.0-148.0-5.0"}}, {"uniqueid": "MTK1126:3NL0RFNU0GUNSIAHWSWORIPRX7WK4S", "current_trial": 208, "dateTime": 1513134431813, "trialdata": {"rt": -1, "stimulus": "<p id=\"stim\">4</p>", "key_press": -1, "trial_type": "single-stim", "trial_index": 208, "time_elapsed": 945741, "internal_node_id": "0.0-148.0-6.0"}}, {"uniqueid": "MTK1126:3NL0RFNU0GUNSIAHWSWORIPRX7WK4S", "current_trial": 209, "dateTime": 1513134432814, "trialdata": {"rt": -1, "stimulus": "<p id=\"stim\">3</p>", "key_press": -1, "trial_type": "single-stim", "trial_index": 209, "time_elapsed": 946742, "internal_node_id": "0.0-148.0-7.0"}}, {"uniqueid": "MTK1126:3NL0RFNU0GUNSIAHWSWORIPRX7WK4S", "current_trial": 210, "dateTime": 1513134433817, "trialdata": {"rt": -1, "stimulus": "<p id=\"stim\">2</p>", "key_press": -1, "trial_type": "single-stim", "trial_index": 210, "time_elapsed": 947745, "internal_node_id": "0.0-148.0-8.0"}}, {"uniqueid": "MTK1126:3NL0RFNU0GUNSIAHWSWORIPRX7WK4S", "current_trial": 211, "dateTime": 1513134434817, "trialdata": {"rt": -1, "stimulus": "<p id=\"stim\">1</p>", "key_press": -1, "trial_type": "single-stim", "trial_index": 211, "time_elapsed": 948745, "internal_node_id": "0.0-148.0-9.0"}}, {"uniqueid": "MTK1126:3NL0RFNU0GUNSIAHWSWORIPRX7WK4S", "current_trial": 212, "dateTime": 1513134436319, "trialdata": {"rt": -1, "stimulus": "<p id=\"stim\">+</p>", "key_press": -1, "type": "FIXATION", "trial_type": "single-stim", "trial_index": 212, "time_elapsed": 950247, "internal_node_id": "0.0-149.0-0.0"}}, {"uniqueid": "MTK1126:3NL0RFNU0GUNSIAHWSWORIPRX7WK4S", "current_trial": 213, "dateTime": 1513134437921, "trialdata": {"rt": -1, "stimulus": "<p id=\"stim\">WHISTLE</p>", "key_press": -1, "type": "PRES_VIS", "word": "whistle", "wordID": 1605, "conditions": [24, 1600, "v", 24000], "trial": 6, "serialpos": 0, "trial_type": "single-stim", "trial_index": 213, "time_elapsed": 951848, "internal_node_id": "0.0-150.0"}}, {"uniqueid": "MTK1126:3NL0RFNU0GUNSIAHWSWORIPRX7WK4S", "current_trial": 214, "dateTime": 1513134440720, "trialdata": {"rt": -1, "stimulus": "<p id=\"stim\">CANYON</p>", "key_press": -1, "type": "PRES_VIS", "word": "canyon", "wordID": 234, "conditions": [24, 1600, "v", 24000], "trial": 6, "serialpos": 1, "trial_type": "single-stim", "trial_index": 214, "time_elapsed": 954647, "internal_node_id": "0.0-151.0"}}, {"uniqueid": "MTK1126:3NL0RFNU0GUNSIAHWSWORIPRX7WK4S", "current_trial": 215, "dateTime": 1513134443434, "trialdata": {"rt": -1, "stimulus": "<p id=\"stim\">VALLEY</p>", "key_press": -1, "type": "PRES_VIS", "word": "valley", "wordID": 1544, "conditions": [24, 1600, "v", 24000], "trial": 6, "serialpos": 2, "trial_type": "single-stim", "trial_index": 215, "time_elapsed": 957362, "internal_node_id": "0.0-152.0"}}, {"uniqueid": "MTK1126:3NL0RFNU0GUNSIAHWSWORIPRX7WK4S", "current_trial": 216, "dateTime": 1513134445991, "trialdata": {"rt": -1, "stimulus": "<p id=\"stim\">PEANUT</p>", "key_press": -1, "type": "PRES_VIS", "word": "peanut", "wordID": 1031, "conditions": [24, 1600, "v", 24000], "trial": 6, "serialpos": 3, "trial_type": "single-stim", "trial_index": 216, "time_elapsed": 959919, "internal_node_id": "0.0-153.0"}}, {"uniqueid": "MTK1126:3NL0RFNU0GUNSIAHWSWORIPRX7WK4S", "current_trial": 217, "dateTime": 1513134448551, "trialdata": {"rt": -1, "stimulus": "<p id=\"stim\">COUNTY</p>", "key_press": -1, "type": "PRES_VIS", "word": "county", "wordID": 388, "conditions": [24, 1600, "v", 24000], "trial": 6, "serialpos": 4, "trial_type": "single-stim", "trial_index": 217, "time_elapsed": 962479, "internal_node_id": "0.0-154.0"}}, {"uniqueid": "MTK1126:3NL0RFNU0GUNSIAHWSWORIPRX7WK4S", "current_trial": 218, "dateTime": 1513134451051, "trialdata": {"rt": -1, "stimulus": "<p id=\"stim\">MUSTARD</p>", "key_press": -1, "type": "PRES_VIS", "word": "mustard", "wordID": 934, "conditions": [24, 1600, "v", 24000], "trial": 6, "serialpos": 5, "trial_type": "single-stim", "trial_index": 218, "time_elapsed": 964979, "internal_node_id": "0.0-155.0"}}, {"uniqueid": "MTK1126:3NL0RFNU0GUNSIAHWSWORIPRX7WK4S", "current_trial": 219, "dateTime": 1513134453769, "trialdata": {"rt": -1, "stimulus": "<p id=\"stim\">CUSTARD</p>", "key_press": -1, "type": "PRES_VIS", "word": "custard", "wordID": 428, "conditions": [24, 1600, "v", 24000], "trial": 6, "serialpos": 6, "trial_type": "single-stim", "trial_index": 219, "time_elapsed": 967697, "internal_node_id": "0.0-156.0"}}, {"uniqueid": "MTK1126:3NL0RFNU0GUNSIAHWSWORIPRX7WK4S", "current_trial": 220, "dateTime": 1513134456514, "trialdata": {"rt": -1, "stimulus": "<p id=\"stim\">MARS</p>", "key_press": -1, "type": "PRES_VIS", "word": "mars", "wordID": 872, "conditions": [24, 1600, "v", 24000], "trial": 6, "serialpos": 7, "trial_type": "single-stim", "trial_index": 220, "time_elapsed": 970442, "internal_node_id": "0.0-157.0"}}, {"uniqueid": "MTK1126:3NL0RFNU0GUNSIAHWSWORIPRX7WK4S", "current_trial": 221, "dateTime": 1513134459257, "trialdata": {"rt": -1, "stimulus": "<p id=\"stim\">WOMAN</p>", "key_press": -1, "type": "PRES_VIS", "word": "woman", "wordID": 1619, "conditions": [24, 1600, "v", 24000], "trial": 6, "serialpos": 8, "trial_type": "single-stim", "trial_index": 221, "time_elapsed": 973185, "internal_node_id": "0.0-158.0"}}, {"uniqueid": "MTK1126:3NL0RFNU0GUNSIAHWSWORIPRX7WK4S", "current_trial": 222, "dateTime": 1513134461717, "trialdata": {"rt": -1, "stimulus": "<p id=\"stim\">GARLIC</p>", "key_press": -1, "type": "PRES_VIS", "word": "garlic", "wordID": 623, "conditions": [24, 1600, "v", 24000], "trial": 6, "serialpos": 9, "trial_type": "single-stim", "trial_index": 222, "time_elapsed": 975644, "internal_node_id": "0.0-159.0"}}, {"uniqueid": "MTK1126:3NL0RFNU0GUNSIAHWSWORIPRX7WK4S", "current_trial": 223, "dateTime": 1513134464409, "trialdata": {"rt": -1, "stimulus": "<p id=\"stim\">SHERIFF</p>", "key_press": -1, "type": "PRES_VIS", "word": "sheriff", "wordID": 1283, "conditions": [24, 1600, "v", 24000], "trial": 6, "serialpos": 10, "trial_type": "single-stim", "trial_index": 223, "time_elapsed": 978337, "internal_node_id": "0.0-160.0"}}, {"uniqueid": "MTK1126:3NL0RFNU0GUNSIAHWSWORIPRX7WK4S", "current_trial": 224, "dateTime": 1513134466984, "trialdata": {"rt": -1, "stimulus": "<p id=\"stim\">SEAGULL</p>", "key_press": -1, "type": "PRES_VIS", "word": "seagull", "wordID": 1260, "conditions": [24, 1600, "v", 24000], "trial": 6, "serialpos": 11, "trial_type": "single-stim", "trial_index": 224, "time_elapsed": 980912, "internal_node_id": "0.0-161.0"}}, {"uniqueid": "MTK1126:3NL0RFNU0GUNSIAHWSWORIPRX7WK4S", "current_trial": 225, "dateTime": 1513134469613, "trialdata": {"rt": -1, "stimulus": "<p id=\"stim\">PECAN</p>", "key_press": -1, "type": "PRES_VIS", "word": "pecan", "wordID": 1035, "conditions": [24, 1600, "v", 24000], "trial": 6, "serialpos": 12, "trial_type": "single-stim", "trial_index": 225, "time_elapsed": 983541, "internal_node_id": "0.0-162.0"}}, {"uniqueid": "MTK1126:3NL0RFNU0GUNSIAHWSWORIPRX7WK4S", "current_trial": 226, "dateTime": 1513134472157, "trialdata": {"rt": -1, "stimulus": "<p id=\"stim\">ASIA</p>", "key_press": -1, "type": "PRES_VIS", "word": "asia", "wordID": 45, "conditions": [24, 1600, "v", 24000], "trial": 6, "serialpos": 13, "trial_type": "single-stim", "trial_index": 226, "time_elapsed": 986085, "internal_node_id": "0.0-163.0"}}, {"uniqueid": "MTK1126:3NL0RFNU0GUNSIAHWSWORIPRX7WK4S", "current_trial": 227, "dateTime": 1513134474890, "trialdata": {"rt": -1, "stimulus": "<p id=\"stim\">PARSLEY</p>", "key_press": -1, "type": "PRES_VIS", "word": "parsley", "wordID": 1015, "conditions": [24, 1600, "v", 24000], "trial": 6, "serialpos": 14, "trial_type": "single-stim", "trial_index": 227, "time_elapsed": 988818, "internal_node_id": "0.0-164.0"}}, {"uniqueid": "MTK1126:3NL0RFNU0GUNSIAHWSWORIPRX7WK4S", "current_trial": 228, "dateTime": 1513134477617, "trialdata": {"rt": -1, "stimulus": "<p id=\"stim\">SLOPE</p>", "key_press": -1, "type": "PRES_VIS", "word": "slope", "wordID": 1327, "conditions": [24, 1600, "v", 24000], "trial": 6, "serialpos": 15, "trial_type": "single-stim", "trial_index": 228, "time_elapsed": 991545, "internal_node_id": "0.0-165.0"}}, {"uniqueid": "MTK1126:3NL0RFNU0GUNSIAHWSWORIPRX7WK4S", "current_trial": 229, "dateTime": 1513134480220, "trialdata": {"rt": -1, "stimulus": "<p id=\"stim\">RIVER</p>", "key_press": -1, "type": "PRES_VIS", "word": "river", "wordID": 1193, "conditions": [24, 1600, "v", 24000], "trial": 6, "serialpos": 16, "trial_type": "single-stim", "trial_index": 229, "time_elapsed": 994148, "internal_node_id": "0.0-166.0"}}, {"uniqueid": "MTK1126:3NL0RFNU0GUNSIAHWSWORIPRX7WK4S", "current_trial": 230, "dateTime": 1513134482828, "trialdata": {"rt": -1, "stimulus": "<p id=\"stim\">MARSH</p>", "key_press": -1, "type": "PRES_VIS", "word": "marsh", "wordID": 873, "conditions": [24, 1600, "v", 24000], "trial": 6, "serialpos": 17, "trial_type": "single-stim", "trial_index": 230, "time_elapsed": 996756, "internal_node_id": "0.0-167.0"}}, {"uniqueid": "MTK1126:3NL0RFNU0GUNSIAHWSWORIPRX7WK4S", "current_trial": 231, "dateTime": 1513134485356, "trialdata": {"rt": -1, "stimulus": "<p id=\"stim\">EUROPE</p>", "key_press": -1, "type": "PRES_VIS", "word": "europe", "wordID": 540, "conditions": [24, 1600, "v", 24000], "trial": 6, "serialpos": 18, "trial_type": "single-stim", "trial_index": 231, "time_elapsed": 999284, "internal_node_id": "0.0-168.0"}}, {"uniqueid": "MTK1126:3NL0RFNU0GUNSIAHWSWORIPRX7WK4S", "current_trial": 232, "dateTime": 1513134487919, "trialdata": {"rt": -1, "stimulus": "<p id=\"stim\">BUCKET</p>", "key_press": -1, "type": "PRES_VIS", "word": "bucket", "wordID": 183, "conditions": [24, 1600, "v", 24000], "trial": 6, "serialpos": 19, "trial_type": "single-stim", "trial_index": 232, "time_elapsed": 1001847, "internal_node_id": "0.0-169.0"}}, {"uniqueid": "MTK1126:3NL0RFNU0GUNSIAHWSWORIPRX7WK4S", "current_trial": 233, "dateTime": 1513134490479, "trialdata": {"rt": -1, "stimulus": "<p id=\"stim\">SIDEWALK</p>", "key_press": -1, "type": "PRES_VIS", "word": "sidewalk", "wordID": 1302, "conditions": [24, 1600, "v", 24000], "trial": 6, "serialpos": 20, "trial_type": "single-stim", "trial_index": 233, "time_elapsed": 1004407, "internal_node_id": "0.0-170.0"}}, {"uniqueid": "MTK1126:3NL0RFNU0GUNSIAHWSWORIPRX7WK4S", "current_trial": 234, "dateTime": 1513134493217, "trialdata": {"rt": -1, "stimulus": "<p id=\"stim\">POPCORN</p>", "key_press": -1, "type": "PRES_VIS", "word": "popcorn", "wordID": 1103, "conditions": [24, 1600, "v", 24000], "trial": 6, "serialpos": 21, "trial_type": "single-stim", "trial_index": 234, "time_elapsed": 1007145, "internal_node_id": "0.0-171.0"}}, {"uniqueid": "MTK1126:3NL0RFNU0GUNSIAHWSWORIPRX7WK4S", "current_trial": 235, "dateTime": 1513134495807, "trialdata": {"rt": -1, "stimulus": "<p id=\"stim\">CREVICE</p>", "key_press": -1, "type": "PRES_VIS", "word": "crevice", "wordID": 404, "conditions": [24, 1600, "v", 24000], "trial": 6, "serialpos": 22, "trial_type": "single-stim", "trial_index": 235, "time_elapsed": 1009735, "internal_node_id": "0.0-172.0"}}, {"uniqueid": "MTK1126:3NL0RFNU0GUNSIAHWSWORIPRX7WK4S", "current_trial": 236, "dateTime": 1513134498266, "trialdata": {"rt": -1, "stimulus": "<p id=\"stim\">MARKER</p>", "key_press": -1, "type": "PRES_VIS", "word": "marker", "wordID": 869, "conditions": [24, 1600, "v", 24000], "trial": 6, "serialpos": 23, "trial_type": "single-stim", "trial_index": 236, "time_elapsed": 1012194, "internal_node_id": "0.0-173.0"}}, {"uniqueid": "MTK1126:3NL0RFNU0GUNSIAHWSWORIPRX7WK4S", "current_trial": 237, "dateTime": 1513134500714, "trialdata": {"rt": -1, "stimulus": "", "key_press": -1, "type": "PRE_RECALL_DELAY", "trial_type": "single-stim", "trial_index": 237, "time_elapsed": 1014642, "internal_node_id": "0.0-174.0-0.0"}}, {"uniqueid": "MTK1126:3NL0RFNU0GUNSIAHWSWORIPRX7WK4S", "current_trial": 238, "dateTime": 1513134501216, "trialdata": {"rt": -1000, "stimulus": "/static/audio/400Hz.wav", "key_press": -1, "type": "PRE_RECALL_ALERT", "trial_type": "single-audio", "trial_index": 238, "time_elapsed": 1015144, "internal_node_id": "0.0-175.0"}}, {"uniqueid": "MTK1126:3NL0RFNU0GUNSIAHWSWORIPRX7WK4S", "current_trial": 239, "dateTime": 1513134561225, "trialdata": {"rt": [2680, 4496, 5896, 7432, 10056, 15576, 17432], "recwords": ["marker", "crevice", "asia", "europe", "marker", "custom", "whistle"], "type": "FREE_RECALL", "conditions": [24, 1600, "v", 24000], "trial": 6, "trial_type": "free-recall", "trial_index": 239, "time_elapsed": 1075147, "internal_node_id": "0.0-176.0-0.0"}}, {"uniqueid": "MTK1126:3NL0RFNU0GUNSIAHWSWORIPRX7WK4S", "current_trial": 240, "dateTime": 1513134564585, "trialdata": {"rt": 1359, "key_press": 13, "type": "INSTRUCTIONS", "trial_type": "text", "trial_index": 240, "time_elapsed": 1078513, "internal_node_id": "0.0-177.0"}}, {"uniqueid": "MTK1126:3NL0RFNU0GUNSIAHWSWORIPRX7WK4S", "current_trial": 241, "dateTime": 1513134590587, "trialdata": {"rt": [2070, 4318, 6838, 9686, 10982, 15926, 18990, 22334], "responses": ["16", "9", "14", "13", "8", "22", "19", "24"], "num1": [7, 3, 4, 2, 6, 8, 7, 9, 2], "num2": [7, 5, 8, 4, 1, 9, 5, 9, 4], "num3": [2, 1, 2, 7, 1, 6, 7, 8, 3], "type": "DISTRACTOR", "conditions": [12, 1600, "a", 24000], "trial": 7, "trial_type": "math-distractor", "trial_index": 241, "time_elapsed": 1104515, "internal_node_id": "0.0-178.0"}}, {"uniqueid": "MTK1126:3NL0RFNU0GUNSIAHWSWORIPRX7WK4S", "current_trial": 242, "dateTime": 1513134593587, "trialdata": {"rt": -1, "stimulus": "<p id=\"stim\">10</p>", "key_press": -1, "trial_type": "single-stim", "trial_index": 242, "time_elapsed": 1107515, "internal_node_id": "0.0-179.0-0.0"}}, {"uniqueid": "MTK1126:3NL0RFNU0GUNSIAHWSWORIPRX7WK4S", "current_trial": 243, "dateTime": 1513134594588, "trialdata": {"rt": -1, "stimulus": "<p id=\"stim\">9</p>", "key_press": -1, "trial_type": "single-stim", "trial_index": 243, "time_elapsed": 1108516, "internal_node_id": "0.0-179.0-1.0"}}, {"uniqueid": "MTK1126:3NL0RFNU0GUNSIAHWSWORIPRX7WK4S", "current_trial": 244, "dateTime": 1513134595589, "trialdata": {"rt": -1, "stimulus": "<p id=\"stim\">8</p>", "key_press": -1, "trial_type": "single-stim", "trial_index": 244, "time_elapsed": 1109517, "internal_node_id": "0.0-179.0-2.0"}}, {"uniqueid": "MTK1126:3NL0RFNU0GUNSIAHWSWORIPRX7WK4S", "current_trial": 245, "dateTime": 1513134596590, "trialdata": {"rt": -1, "stimulus": "<p id=\"stim\">7</p>", "key_press": -1, "trial_type": "single-stim", "trial_index": 245, "time_elapsed": 1110518, "internal_node_id": "0.0-179.0-3.0"}}, {"uniqueid": "MTK1126:3NL0RFNU0GUNSIAHWSWORIPRX7WK4S", "current_trial": 246, "dateTime": 1513134597591, "trialdata": {"rt": -1, "stimulus": "<p id=\"stim\">6</p>", "key_press": -1, "trial_type": "single-stim", "trial_index": 246, "time_elapsed": 1111519, "internal_node_id": "0.0-179.0-4.0"}}, {"uniqueid": "MTK1126:3NL0RFNU0GUNSIAHWSWORIPRX7WK4S", "current_trial": 247, "dateTime": 1513134598592, "trialdata": {"rt": -1, "stimulus": "<p id=\"stim\">5</p>", "key_press": -1, "trial_type": "single-stim", "trial_index": 247, "time_elapsed": 1112520, "internal_node_id": "0.0-179.0-5.0"}}, {"uniqueid": "MTK1126:3NL0RFNU0GUNSIAHWSWORIPRX7WK4S", "current_trial": 248, "dateTime": 1513134599595, "trialdata": {"rt": -1, "stimulus": "<p id=\"stim\">4</p>", "key_press": -1, "trial_type": "single-stim", "trial_index": 248, "time_elapsed": 1113523, "internal_node_id": "0.0-179.0-6.0"}}, {"uniqueid": "MTK1126:3NL0RFNU0GUNSIAHWSWORIPRX7WK4S", "current_trial": 249, "dateTime": 1513134600595, "trialdata": {"rt": -1, "stimulus": "<p id=\"stim\">3</p>", "key_press": -1, "trial_type": "single-stim", "trial_index": 249, "time_elapsed": 1114523, "internal_node_id": "0.0-179.0-7.0"}}, {"uniqueid": "MTK1126:3NL0RFNU0GUNSIAHWSWORIPRX7WK4S", "current_trial": 250, "dateTime": 1513134601596, "trialdata": {"rt": -1, "stimulus": "<p id=\"stim\">2</p>", "key_press": -1, "trial_type": "single-stim", "trial_index": 250, "time_elapsed": 1115524, "internal_node_id": "0.0-179.0-8.0"}}, {"uniqueid": "MTK1126:3NL0RFNU0GUNSIAHWSWORIPRX7WK4S", "current_trial": 251, "dateTime": 1513134602597, "trialdata": {"rt": -1, "stimulus": "<p id=\"stim\">1</p>", "key_press": -1, "trial_type": "single-stim", "trial_index": 251, "time_elapsed": 1116525, "internal_node_id": "0.0-179.0-9.0"}}, {"uniqueid": "MTK1126:3NL0RFNU0GUNSIAHWSWORIPRX7WK4S", "current_trial": 252, "dateTime": 1513134604098, "trialdata": {"rt": -1, "stimulus": "<p id=\"stim\">+</p>", "key_press": -1, "type": "FIXATION", "trial_type": "single-stim", "trial_index": 252, "time_elapsed": 1118026, "internal_node_id": "0.0-180.0-0.0"}}, {"uniqueid": "MTK1126:3NL0RFNU0GUNSIAHWSWORIPRX7WK4S", "current_trial": 253, "dateTime": 1513134606527, "trialdata": {"rt": -1000, "stimulus": "/static/audio/wordpool/TURNIP.wav", "key_press": -1, "type": "PRES_AUD", "word": "turnip", "wordID": 1520, "conditions": [12, 1600, "a", 24000], "trial": 7, "serialpos": 0, "trial_type": "single-audio", "trial_index": 253, "time_elapsed": 1120455, "internal_node_id": "0.0-181.0"}}, {"uniqueid": "MTK1126:3NL0RFNU0GUNSIAHWSWORIPRX7WK4S", "current_trial": 254, "dateTime": 1513134608952, "trialdata": {"rt": -1000, "stimulus": "/static/audio/wordpool/CABBAGE.wav", "key_press": -1, "type": "PRES_AUD", "word": "cabbage", "wordID": 209, "conditions": [12, 1600, "a", 24000], "trial": 7, "serialpos": 1, "trial_type": "single-audio", "trial_index": 254, "time_elapsed": 1122880, "internal_node_id": "0.0-182.0"}}, {"uniqueid": "MTK1126:3NL0RFNU0GUNSIAHWSWORIPRX7WK4S", "current_trial": 255, "dateTime": 1513134611526, "trialdata": {"rt": -1000, "stimulus": "/static/audio/wordpool/CIGAR.wav", "key_press": -1, "type": "PRES_AUD", "word": "cigar", "wordID": 307, "conditions": [12, 1600, "a", 24000], "trial": 7, "serialpos": 2, "trial_type": "single-audio", "trial_index": 255, "time_elapsed": 1125454, "internal_node_id": "0.0-183.0"}}, {"uniqueid": "MTK1126:3NL0RFNU0GUNSIAHWSWORIPRX7WK4S", "current_trial": 256, "dateTime": 1513134614301, "trialdata": {"rt": -1000, "stimulus": "/static/audio/wordpool/SKILLET.wav", "key_press": -1, "type": "PRES_AUD", "word": "skillet", "wordID": 1316, "conditions": [12, 1600, "a", 24000], "trial": 7, "serialpos": 3, "trial_type": "single-audio", "trial_index": 256, "time_elapsed": 1128228, "internal_node_id": "0.0-184.0"}}, {"uniqueid": "MTK1126:3NL0RFNU0GUNSIAHWSWORIPRX7WK4S", "current_trial": 257, "dateTime": 1513134616752, "trialdata": {"rt": -1000, "stimulus": "/static/audio/wordpool/WRENCH.wav", "key_press": -1, "type": "PRES_AUD", "word": "wrench", "wordID": 1624, "conditions": [12, 1600, "a", 24000], "trial": 7, "serialpos": 4, "trial_type": "single-audio", "trial_index": 257, "time_elapsed": 1130680, "internal_node_id": "0.0-185.0"}}, {"uniqueid": "MTK1126:3NL0RFNU0GUNSIAHWSWORIPRX7WK4S", "current_trial": 258, "dateTime": 1513134619240, "trialdata": {"rt": -1000, "stimulus": "/static/audio/wordpool/PANTHER.wav", "key_press": -1, "type": "PRES_AUD", "word": "panther", "wordID": 1008, "conditions": [12, 1600, "a", 24000], "trial": 7, "serialpos": 5, "trial_type": "single-audio", "trial_index": 258, "time_elapsed": 1133168, "internal_node_id": "0.0-186.0"}}, {"uniqueid": "MTK1126:3NL0RFNU0GUNSIAHWSWORIPRX7WK4S", "current_trial": 259, "dateTime": 1513134621686, "trialdata": {"rt": -1000, "stimulus": "/static/audio/wordpool/CROSS.wav", "key_press": -1, "type": "PRES_AUD", "word": "cross", "wordID": 412, "conditions": [12, 1600, "a", 24000], "trial": 7, "serialpos": 6, "trial_type": "single-audio", "trial_index": 259, "time_elapsed": 1135614, "internal_node_id": "0.0-187.0"}}, {"uniqueid": "MTK1126:3NL0RFNU0GUNSIAHWSWORIPRX7WK4S", "current_trial": 260, "dateTime": 1513134624452, "trialdata": {"rt": -1000, "stimulus": "/static/audio/wordpool/CHAUFFEUR.wav", "key_press": -1, "type": "PRES_AUD", "word": "chauffeur", "wordID": 282, "conditions": [12, 1600, "a", 24000], "trial": 7, "serialpos": 7, "trial_type": "single-audio", "trial_index": 260, "time_elapsed": 1138379, "internal_node_id": "0.0-188.0"}}, {"uniqueid": "MTK1126:3NL0RFNU0GUNSIAHWSWORIPRX7WK4S", "current_trial": 261, "dateTime": 1513134627149, "trialdata": {"rt": -1000, "stimulus": "/static/audio/wordpool/HARP.wav", "key_press": -1, "type": "PRES_AUD", "word": "harp", "wordID": 688, "conditions": [12, 1600, "a", 24000], "trial": 7, "serialpos": 8, "trial_type": "single-audio", "trial_index": 261, "time_elapsed": 1141076, "internal_node_id": "0.0-189.0"}}, {"uniqueid": "MTK1126:3NL0RFNU0GUNSIAHWSWORIPRX7WK4S", "current_trial": 262, "dateTime": 1513134629757, "trialdata": {"rt": -1000, "stimulus": "/static/audio/wordpool/BEAKER.wav", "key_press": -1, "type": "PRES_AUD", "word": "beaker", "wordID": 103, "conditions": [12, 1600, "a", 24000], "trial": 7, "serialpos": 9, "trial_type": "single-audio", "trial_index": 262, "time_elapsed": 1143685, "internal_node_id": "0.0-190.0"}}, {"uniqueid": "MTK1126:3NL0RFNU0GUNSIAHWSWORIPRX7WK4S", "current_trial": 263, "dateTime": 1513134632243, "trialdata": {"rt": -1000, "stimulus": "/static/audio/wordpool/OINTMENT.wav", "key_press": -1, "type": "PRES_AUD", "word": "ointment", "wordID": 973, "conditions": [12, 1600, "a", 24000], "trial": 7, "serialpos": 10, "trial_type": "single-audio", "trial_index": 263, "time_elapsed": 1146171, "internal_node_id": "0.0-191.0"}}, {"uniqueid": "MTK1126:3NL0RFNU0GUNSIAHWSWORIPRX7WK4S", "current_trial": 264, "dateTime": 1513134634967, "trialdata": {"rt": -1000, "stimulus": "/static/audio/wordpool/BLENDER.wav", "key_press": -1, "type": "PRES_AUD", "word": "blender", "wordID": 135, "conditions": [12, 1600, "a", 24000], "trial": 7, "serialpos": 11, "trial_type": "single-audio", "trial_index": 264, "time_elapsed": 1148894, "internal_node_id": "0.0-192.0"}}, {"uniqueid": "MTK1126:3NL0RFNU0GUNSIAHWSWORIPRX7WK4S", "current_trial": 265, "dateTime": 1513134636328, "trialdata": {"rt": -1, "stimulus": "", "key_press": -1, "type": "PRE_RECALL_DELAY", "trial_type": "single-stim", "trial_index": 265, "time_elapsed": 1150256, "internal_node_id": "0.0-193.0-0.0"}}, {"uniqueid": "MTK1126:3NL0RFNU0GUNSIAHWSWORIPRX7WK4S", "current_trial": 266, "dateTime": 1513134636829, "trialdata": {"rt": -1000, "stimulus": "/static/audio/400Hz.wav", "key_press": -1, "type": "PRE_RECALL_ALERT", "trial_type": "single-audio", "trial_index": 266, "time_elapsed": 1150757, "internal_node_id": "0.0-194.0"}}, {"uniqueid": "MTK1126:3NL0RFNU0GUNSIAHWSWORIPRX7WK4S", "current_trial": 267, "dateTime": 1513134696839, "trialdata": {"rt": [2064, 4504, 5496, 7008, 8360], "recwords": ["blender", "ointment", "park", "schofer", "beaker"], "type": "FREE_RECALL", "conditions": [12, 1600, "a", 24000], "trial": 7, "trial_type": "free-recall", "trial_index": 267, "time_elapsed": 1210760, "internal_node_id": "0.0-195.0-0.0"}}, {"uniqueid": "MTK1126:3NL0RFNU0GUNSIAHWSWORIPRX7WK4S", "current_trial": 268, "dateTime": 1513134700358, "trialdata": {"rt": 1519, "key_press": 13, "type": "INSTRUCTIONS", "trial_type": "text", "trial_index": 268, "time_elapsed": 1214286, "internal_node_id": "0.0-196.0"}}, {"uniqueid": "MTK1126:3NL0RFNU0GUNSIAHWSWORIPRX7WK4S", "current_trial": 269, "dateTime": 1513134726362, "trialdata": {"rt": [2525, 4461, 7101, 9214, 14109, 15901, 18325, 21365, 22933], "responses": ["11", "13", "12", "10", "16", "15", "15", "14", "13"], "num1": [3, 3, 5, 4, 4, 3, 7, 1, 6, 8], "num2": [2, 8, 6, 1, 8, 6, 5, 7, 1, 1], "num3": [6, 2, 1, 5, 5, 6, 3, 6, 6, 1], "type": "DISTRACTOR", "conditions": [12, 800, "a", 24000], "trial": 8, "trial_type": "math-distractor", "trial_index": 269, "time_elapsed": 1240290, "internal_node_id": "0.0-197.0"}}, {"uniqueid": "MTK1126:3NL0RFNU0GUNSIAHWSWORIPRX7WK4S", "current_trial": 270, "dateTime": 1513134729364, "trialdata": {"rt": -1, "stimulus": "<p id=\"stim\">10</p>", "key_press": -1, "trial_type": "single-stim", "trial_index": 270, "time_elapsed": 1243291, "internal_node_id": "0.0-198.0-0.0"}}, {"uniqueid": "MTK1126:3NL0RFNU0GUNSIAHWSWORIPRX7WK4S", "current_trial": 271, "dateTime": 1513134730365, "trialdata": {"rt": -1, "stimulus": "<p id=\"stim\">9</p>", "key_press": -1, "trial_type": "single-stim", "trial_index": 271, "time_elapsed": 1244292, "internal_node_id": "0.0-198.0-1.0"}}, {"uniqueid": "MTK1126:3NL0RFNU0GUNSIAHWSWORIPRX7WK4S", "current_trial": 272, "dateTime": 1513134731365, "trialdata": {"rt": -1, "stimulus": "<p id=\"stim\">8</p>", "key_press": -1, "trial_type": "single-stim", "trial_index": 272, "time_elapsed": 1245293, "internal_node_id": "0.0-198.0-2.0"}}, {"uniqueid": "MTK1126:3NL0RFNU0GUNSIAHWSWORIPRX7WK4S", "current_trial": 273, "dateTime": 1513134732367, "trialdata": {"rt": -1, "stimulus": "<p id=\"stim\">7</p>", "key_press": -1, "trial_type": "single-stim", "trial_index": 273, "time_elapsed": 1246295, "internal_node_id": "0.0-198.0-3.0"}}, {"uniqueid": "MTK1126:3NL0RFNU0GUNSIAHWSWORIPRX7WK4S", "current_trial": 274, "dateTime": 1513134733368, "trialdata": {"rt": -1, "stimulus": "<p id=\"stim\">6</p>", 