{"condition": 0, "counterbalance": 2541, "assignmentId": "39DD6S19JQI09F6WLZBBNJPVE6RZEP", "workerId": "MTK1137", "hitId": "3EFNPKWBMSVYACMF2JCL99MSQY603H", "currenttrial": 626, "bonus": 0, "data": [{"uniqueid": "MTK1137:39DD6S19JQI09F6WLZBBNJPVE6RZEP", "current_trial": 0, "dateTime": 1513194667267, "trialdata": {"rt": 4524, "key_press": 32, "type": "INSTRUCTIONS", "trial_type": "text", "trial_index": 0, "time_elapsed": 4528, "internal_node_id": "0.0-0.0"}}, {"uniqueid": "MTK1137:39DD6S19JQI09F6WLZBBNJPVE6RZEP", "current_trial": 1, "dateTime": 1513194687586, "trialdata": {"rt": 20318, "key_press": 32, "type": "INSTRUCTIONS", "trial_type": "text", "trial_index": 1, "time_elapsed": 24848, "internal_node_id": "0.0-1.0"}}, {"uniqueid": "MTK1137:39DD6S19JQI09F6WLZBBNJPVE6RZEP", "current_trial": 2, "dateTime": 1513194698032, "trialdata": {"rt": [10415], "responses": ["ocean"], "type": "AUDIO_TEST", "trial_type": "audio-test", "trial_index": 2, "time_elapsed": 35294, "internal_node_id": "0.0-2.0"}}, {"uniqueid": "MTK1137:39DD6S19JQI09F6WLZBBNJPVE6RZEP", "current_trial": 3, "dateTime": 1513194704152, "trialdata": {"rt": [6115], "responses": ["crystal"], "type": "AUDIO_TEST", "trial_type": "audio-test", "trial_index": 3, "time_elapsed": 41414, "internal_node_id": "0.0-3.0"}}, {"uniqueid": "MTK1137:39DD6S19JQI09F6WLZBBNJPVE6RZEP", "current_trial": 4, "dateTime": 1513194710584, "trialdata": {"rt": [6425], "responses": ["spice"], "type": "AUDIO_TEST", "trial_type": "audio-test", "trial_index": 4, "time_elapsed": 47846, "internal_node_id": "0.0-4.0"}}, {"uniqueid": "MTK1137:39DD6S19JQI09F6WLZBBNJPVE6RZEP", "current_trial": 5, "dateTime": 1513194761855, "trialdata": {"rt": 50517, "responses": "{\"Q0\":\"9:40 PM\",\"Q1\":\"4:00 AM\",\"Q2\":\"4\"}", "type": "SLEEP_SURVEY", "trial_type": "survey-text", "trial_index": 5, "time_elapsed": 99117, "internal_node_id": "0.0-5.0"}}, {"uniqueid": "MTK1137:39DD6S19JQI09F6WLZBBNJPVE6RZEP", "current_trial": 6, "dateTime": 1513194818002, "trialdata": {"rt": 55145, "key_press": 32, "type": "INSTRUCTIONS", "trial_type": "text", "trial_index": 6, "time_elapsed": 155264, "internal_node_id": "0.0-6.0"}}, {"uniqueid": "MTK1137:39DD6S19JQI09F6WLZBBNJPVE6RZEP", "current_trial": 7, "dateTime": 1513194840139, "trialdata": {"rt": 21635, "key_press": 39, "type": "INSTRUCTIONS", "trial_type": "text", "trial_index": 7, "time_elapsed": 177401, "internal_node_id": "0.0-7.0"}}, {"uniqueid": "MTK1137:39DD6S19JQI09F6WLZBBNJPVE6RZEP", "current_trial": 8, "dateTime": 1513194852109, "trialdata": {"rt": 11468, "key_press": 39, "type": "INSTRUCTIONS", "trial_type": "text", "trial_index": 8, "time_elapsed": 189371, "internal_node_id": "0.0-8.0"}}, {"uniqueid": "MTK1137:39DD6S19JQI09F6WLZBBNJPVE6RZEP", "current_trial": 9, "dateTime": 1513194871113, "trialdata": {"rt": [2698, 4690, 6674, 9205, 11762, 13483, 15578, 17746], "responses": ["13", "11", "21", "20", "16", "12", "21", "14"], "num1": [2, 8, 7, 9, 2, 2, 6, 4, 8], "num2": [8, 1, 9, 3, 5, 6, 6, 9, 7], "num3": [3, 2, 5, 8, 9, 4, 9, 1, 1], "type": "DISTRACTOR", "conditions": [18, 1200, "a", 18000], "trial": 0, "trial_type": "math-distractor", "trial_index": 9, "time_elapsed": 208375, "internal_node_id": "0.0-9.0"}}, {"uniqueid": "MTK1137:39DD6S19JQI09F6WLZBBNJPVE6RZEP", "current_trial": 10, "dateTime": 1513194874115, "trialdata": {"rt": -1, "stimulus": "<p id=\"stim\">10</p>", "key_press": -1, "trial_type": "single-stim", "trial_index": 10, "time_elapsed": 211377, "internal_node_id": "0.0-10.0-0.0"}}, {"uniqueid": "MTK1137:39DD6S19JQI09F6WLZBBNJPVE6RZEP", "current_trial": 11, "dateTime": 1513194875117, "trialdata": {"rt": -1, "stimulus": "<p id=\"stim\">9</p>", "key_press": -1, "trial_type": "single-stim", "trial_index": 11, "time_elapsed": 212378, "internal_node_id": "0.0-10.0-1.0"}}, {"uniqueid": "MTK1137:39DD6S19JQI09F6WLZBBNJPVE6RZEP", "current_trial": 12, "dateTime": 1513194876117, "trialdata": {"rt": -1, "stimulus": "<p id=\"stim\">8</p>", "key_press": -1, "trial_type": "single-stim", "trial_index": 12, "time_elapsed": 213379, "internal_node_id": "0.0-10.0-2.0"}}, {"uniqueid": "MTK1137:39DD6S19JQI09F6WLZBBNJPVE6RZEP", "current_trial": 13, "dateTime": 1513194877118, "trialdata": {"rt": -1, "stimulus": "<p id=\"stim\">7</p>", "key_press": -1, "trial_type": "single-stim", "trial_index": 13, "time_elapsed": 214380, "internal_node_id": "0.0-10.0-3.0"}}, {"uniqueid": "MTK1137:39DD6S19JQI09F6WLZBBNJPVE6RZEP", "current_trial": 14, "dateTime": 1513194878120, "trialdata": {"rt": -1, "stimulus": "<p id=\"stim\">6</p>", "key_press": -1, "trial_type": "single-stim", "trial_index": 14, "time_elapsed": 215382, "internal_node_id": "0.0-10.0-4.0"}}, {"uniqueid": "MTK1137:39DD6S19JQI09F6WLZBBNJPVE6RZEP", "current_trial": 15, "dateTime": 1513194879121, "trialdata": {"rt": -1, "stimulus": "<p id=\"stim\">5</p>", "key_press": -1, "trial_type": "single-stim", "trial_index": 15, "time_elapsed": 216383, "internal_node_id": "0.0-10.0-5.0"}}, {"uniqueid": "MTK1137:39DD6S19JQI09F6WLZBBNJPVE6RZEP", "current_trial": 16, "dateTime": 1513194880122, "trialdata": {"rt": -1, "stimulus": "<p id=\"stim\">4</p>", "key_press": -1, "trial_type": "single-stim", "trial_index": 16, "time_elapsed": 217384, "internal_node_id": "0.0-10.0-6.0"}}, {"uniqueid": "MTK1137:39DD6S19JQI09F6WLZBBNJPVE6RZEP", "current_trial": 17, "dateTime": 1513194881123, "trialdata": {"rt": -1, "stimulus": "<p id=\"stim\">3</p>", "key_press": -1, "trial_type": "single-stim", "trial_index": 17, "time_elapsed": 218385, "internal_node_id": "0.0-10.0-7.0"}}, {"uniqueid": "MTK1137:39DD6S19JQI09F6WLZBBNJPVE6RZEP", "current_trial": 18, "dateTime": 1513194882124, "trialdata": {"rt": -1, "stimulus": "<p id=\"stim\">2</p>", "key_press": -1, "trial_type": "single-stim", "trial_index": 18, "time_elapsed": 219386, "internal_node_id": "0.0-10.0-8.0"}}, {"uniqueid": "MTK1137:39DD6S19JQI09F6WLZBBNJPVE6RZEP", "current_trial": 19, "dateTime": 1513194883126, "trialdata": {"rt": -1, "stimulus": "<p id=\"stim\">1</p>", "key_press": -1, "trial_type": "single-stim", "trial_index": 19, "time_elapsed": 220388, "internal_node_id": "0.0-10.0-9.0"}}, {"uniqueid": "MTK1137:39DD6S19JQI09F6WLZBBNJPVE6RZEP", "current_trial": 20, "dateTime": 1513194884627, "trialdata": {"rt": -1, "stimulus": "<p id=\"stim\">+</p>", "key_press": -1, "type": "FIXATION", "trial_type": "single-stim", "trial_index": 20, "time_elapsed": 221889, "internal_node_id": "0.0-11.0-0.0"}}, {"uniqueid": "MTK1137:39DD6S19JQI09F6WLZBBNJPVE6RZEP", "current_trial": 21, "dateTime": 1513194886988, "trialdata": {"rt": -1000, "stimulus": "/static/audio/wordpool/DRAWING.wav", "key_press": -1, "type": "PRES_AUD", "word": "drawing", "wordID": 493, "conditions": [18, 1200, "a", 18000], "trial": 0, "serialpos": 0, "trial_type": "single-audio", "trial_index": 21, "time_elapsed": 224250, "internal_node_id": "0.0-12.0"}}, {"uniqueid": "MTK1137:39DD6S19JQI09F6WLZBBNJPVE6RZEP", "current_trial": 22, "dateTime": 1513194889102, "trialdata": {"rt": -1000, "stimulus": "/static/audio/wordpool/SNACK.wav", "key_press": -1, "type": "PRES_AUD", "word": "snack", "wordID": 1330, "conditions": [18, 1200, "a", 18000], "trial": 0, "serialpos": 1, "trial_type": "single-audio", "trial_index": 22, "time_elapsed": 226364, "internal_node_id": "0.0-13.0"}}, {"uniqueid": "MTK1137:39DD6S19JQI09F6WLZBBNJPVE6RZEP", "current_trial": 23, "dateTime": 1513194891197, "trialdata": {"rt": -1000, "stimulus": "/static/audio/wordpool/CELLAR.wav", "key_press": -1, "type": "PRES_AUD", "word": "cellar", "wordID": 266, "conditions": [18, 1200, "a", 18000], "trial": 0, "serialpos": 2, "trial_type": "single-audio", "trial_index": 23, "time_elapsed": 228459, "internal_node_id": "0.0-14.0"}}, {"uniqueid": "MTK1137:39DD6S19JQI09F6WLZBBNJPVE6RZEP", "current_trial": 24, "dateTime": 1513194893460, "trialdata": {"rt": -1000, "stimulus": "/static/audio/wordpool/PADDLE.wav", "key_press": -1, "type": "PRES_AUD", "word": "paddle", "wordID": 999, "conditions": [18, 1200, "a", 18000], "trial": 0, "serialpos": 3, "trial_type": "single-audio", "trial_index": 24, "time_elapsed": 230721, "internal_node_id": "0.0-15.0"}}, {"uniqueid": "MTK1137:39DD6S19JQI09F6WLZBBNJPVE6RZEP", "current_trial": 25, "dateTime": 1513194895517, "trialdata": {"rt": -1000, "stimulus": "/static/audio/wordpool/KNAPSACK.wav", "key_press": -1, "type": "PRES_AUD", "word": "knapsack", "wordID": 782, "conditions": [18, 1200, "a", 18000], "trial": 0, "serialpos": 4, "trial_type": "single-audio", "trial_index": 25, "time_elapsed": 232779, "internal_node_id": "0.0-16.0"}}, {"uniqueid": "MTK1137:39DD6S19JQI09F6WLZBBNJPVE6RZEP", "current_trial": 26, "dateTime": 1513194897603, "trialdata": {"rt": -1000, "stimulus": "/static/audio/wordpool/SALAD.wav", "key_press": -1, "type": "PRES_AUD", "word": "salad", "wordID": 1223, "conditions": [18, 1200, "a", 18000], "trial": 0, "serialpos": 5, "trial_type": "single-audio", "trial_index": 26, "time_elapsed": 234865, "internal_node_id": "0.0-17.0"}}, {"uniqueid": "MTK1137:39DD6S19JQI09F6WLZBBNJPVE6RZEP", "current_trial": 27, "dateTime": 1513194899786, "trialdata": {"rt": -1000, "stimulus": "/static/audio/wordpool/BACKBONE.wav", "key_press": -1, "type": "PRES_AUD", "word": "backbone", "wordID": 65, "conditions": [18, 1200, "a", 18000], "trial": 0, "serialpos": 6, "trial_type": "single-audio", "trial_index": 27, "time_elapsed": 237047, "internal_node_id": "0.0-18.0"}}, {"uniqueid": "MTK1137:39DD6S19JQI09F6WLZBBNJPVE6RZEP", "current_trial": 28, "dateTime": 1513194901858, "trialdata": {"rt": -1000, "stimulus": "/static/audio/wordpool/TUTU.wav", "key_press": -1, "type": "PRES_AUD", "word": "tutu", "wordID": 1523, "conditions": [18, 1200, "a", 18000], "trial": 0, "serialpos": 7, "trial_type": "single-audio", "trial_index": 28, "time_elapsed": 239120, "internal_node_id": "0.0-19.0"}}, {"uniqueid": "MTK1137:39DD6S19JQI09F6WLZBBNJPVE6RZEP", "current_trial": 29, "dateTime": 1513194904254, "trialdata": {"rt": -1000, "stimulus": "/static/audio/wordpool/REPORT.wav", "key_press": -1, "type": "PRES_AUD", "word": "report", "wordID": 1183, "conditions": [18, 1200, "a", 18000], "trial": 0, "serialpos": 8, "trial_type": "single-audio", "trial_index": 29, "time_elapsed": 241516, "internal_node_id": "0.0-20.0"}}, {"uniqueid": "MTK1137:39DD6S19JQI09F6WLZBBNJPVE6RZEP", "current_trial": 30, "dateTime": 1513194906641, "trialdata": {"rt": -1000, "stimulus": "/static/audio/wordpool/CLAM.wav", "key_press": -1, "type": "PRES_AUD", "word": "clam", "wordID": 314, "conditions": [18, 1200, "a", 18000], "trial": 0, "serialpos": 9, "trial_type": "single-audio", "trial_index": 30, "time_elapsed": 243903, "internal_node_id": "0.0-21.0"}}, {"uniqueid": "MTK1137:39DD6S19JQI09F6WLZBBNJPVE6RZEP", "current_trial": 31, "dateTime": 1513194908889, "trialdata": {"rt": -1000, "stimulus": "/static/audio/wordpool/WITNESS.wav", "key_press": -1, "type": "PRES_AUD", "word": "witness", "wordID": 1617, "conditions": [18, 1200, "a", 18000], "trial": 0, "serialpos": 10, "trial_type": "single-audio", "trial_index": 31, "time_elapsed": 246151, "internal_node_id": "0.0-22.0"}}, {"uniqueid": "MTK1137:39DD6S19JQI09F6WLZBBNJPVE6RZEP", "current_trial": 32, "dateTime": 1513194911037, "trialdata": {"rt": -1000, "stimulus": "/static/audio/wordpool/MARSH.wav", "key_press": -1, "type": "PRES_AUD", "word": "marsh", "wordID": 873, "conditions": [18, 1200, "a", 18000], "trial": 0, "serialpos": 11, "trial_type": "single-audio", "trial_index": 32, "time_elapsed": 248299, "internal_node_id": "0.0-23.0"}}, {"uniqueid": "MTK1137:39DD6S19JQI09F6WLZBBNJPVE6RZEP", "current_trial": 33, "dateTime": 1513194913293, "trialdata": {"rt": -1000, "stimulus": "/static/audio/wordpool/GAVEL.wav", "key_press": -1, "type": "PRES_AUD", "word": "gavel", "wordID": 626, "conditions": [18, 1200, "a", 18000], "trial": 0, "serialpos": 12, "trial_type": "single-audio", "trial_index": 33, "time_elapsed": 250555, "internal_node_id": "0.0-24.0"}}, {"uniqueid": "MTK1137:39DD6S19JQI09F6WLZBBNJPVE6RZEP", "current_trial": 34, "dateTime": 1513194915345, "trialdata": {"rt": -1000, "stimulus": "/static/audio/wordpool/SIDEWALK.wav", "key_press": -1, "type": "PRES_AUD", "word": "sidewalk", "wordID": 1302, "conditions": [18, 1200, "a", 18000], "trial": 0, "serialpos": 13, "trial_type": "single-audio", "trial_index": 34, "time_elapsed": 252607, "internal_node_id": "0.0-25.0"}}, {"uniqueid": "MTK1137:39DD6S19JQI09F6WLZBBNJPVE6RZEP", "current_trial": 35, "dateTime": 1513194917556, "trialdata": {"rt": -1000, "stimulus": "/static/audio/wordpool/PILOT.wav", "key_press": -1, "type": "PRES_AUD", "word": "pilot", "wordID": 1069, "conditions": [18, 1200, "a", 18000], "trial": 0, "serialpos": 14, "trial_type": "single-audio", "trial_index": 35, "time_elapsed": 254818, "internal_node_id": "0.0-26.0"}}, {"uniqueid": "MTK1137:39DD6S19JQI09F6WLZBBNJPVE6RZEP", "current_trial": 36, "dateTime": 1513194919646, "trialdata": {"rt": -1000, "stimulus": "/static/audio/wordpool/CHEMIST.wav", "key_press": -1, "type": "PRES_AUD", "word": "chemist", "wordID": 291, "conditions": [18, 1200, "a", 18000], "trial": 0, "serialpos": 15, "trial_type": "single-audio", "trial_index": 36, "time_elapsed": 256908, "internal_node_id": "0.0-27.0"}}, {"uniqueid": "MTK1137:39DD6S19JQI09F6WLZBBNJPVE6RZEP", "current_trial": 37, "dateTime": 1513194921913, "trialdata": {"rt": -1000, "stimulus": "/static/audio/wordpool/SUNSET.wav", "key_press": -1, "type": "PRES_AUD", "word": "sunset", "wordID": 1407, "conditions": [18, 1200, "a", 18000], "trial": 0, "serialpos": 16, "trial_type": "single-audio", "trial_index": 37, "time_elapsed": 259175, "internal_node_id": "0.0-28.0"}}, {"uniqueid": "MTK1137:39DD6S19JQI09F6WLZBBNJPVE6RZEP", "current_trial": 38, "dateTime": 1513194924259, "trialdata": {"rt": -1000, "stimulus": "/static/audio/wordpool/PACKAGE.wav", "key_press": -1, "type": "PRES_AUD", "word": "package", "wordID": 996, "conditions": [18, 1200, "a", 18000], "trial": 0, "serialpos": 17, "trial_type": "single-audio", "trial_index": 38, "time_elapsed": 261521, "internal_node_id": "0.0-29.0"}}, {"uniqueid": "MTK1137:39DD6S19JQI09F6WLZBBNJPVE6RZEP", "current_trial": 39, "dateTime": 1513194925572, "trialdata": {"rt": -1, "stimulus": "", "key_press": -1, "type": "PRE_RECALL_DELAY", "trial_type": "single-stim", "trial_index": 39, "time_elapsed": 262834, "internal_node_id": "0.0-30.0-0.0"}}, {"uniqueid": "MTK1137:39DD6S19JQI09F6WLZBBNJPVE6RZEP", "current_trial": 40, "dateTime": 1513194926073, "trialdata": {"rt": -1000, "stimulus": "/static/audio/400Hz.wav", "key_press": -1, "type": "PRE_RECALL_ALERT", "trial_type": "single-audio", "trial_index": 40, "time_elapsed": 263335, "internal_node_id": "0.0-31.0"}}, {"uniqueid": "MTK1137:39DD6S19JQI09F6WLZBBNJPVE6RZEP", "current_trial": 41, "dateTime": 1513194986076, "trialdata": {"rt": [2492, 3885, 5469, 7349, 8925, 10717, 27888, 43303, 50404], "recwords": ["sunset", "package", "drawing", "tutu", "cellar", "knapsack", "package", "drawing", "salad"], "type": "FREE_RECALL", "conditions": [18, 1200, "a", 18000], "trial": 0, "trial_type": "free-recall", "trial_index": 41, "time_elapsed": 323336, "internal_node_id": "0.0-32.0-0.0"}}, {"uniqueid": "MTK1137:39DD6S19JQI09F6WLZBBNJPVE6RZEP", "current_trial": 42, "dateTime": 1513194989725, "trialdata": {"rt": 1648, "key_press": 39, "type": "INSTRUCTIONS", "trial_type": "text", "trial_index": 42, "time_elapsed": 326987, "internal_node_id": "0.0-33.0"}}, {"uniqueid": "MTK1137:39DD6S19JQI09F6WLZBBNJPVE6RZEP", "current_trial": 43, "dateTime": 1513195009728, "trialdata": {"rt": [2910, 5102, 7398, 9135, 11022, 14214, 16854], "responses": ["17", "21", "13", "17", "15", "24", "17"], "num1": [9, 9, 3, 1, 1, 7, 2, 2], "num2": [3, 5, 2, 8, 5, 8, 6, 4], "num3": [5, 6, 8, 8, 9, 9, 9, 1], "type": "DISTRACTOR", "conditions": [18, 1200, "v", 18000], "trial": 1, "trial_type": "math-distractor", "trial_index": 43, "time_elapsed": 346990, "internal_node_id": "0.0-34.0"}}, {"uniqueid": "MTK1137:39DD6S19JQI09F6WLZBBNJPVE6RZEP", "current_trial": 44, "dateTime": 1513195012729, "trialdata": {"rt": -1, "stimulus": "<p id=\"stim\">10</p>", "key_press": -1, "trial_type": "single-stim", "trial_index": 44, "time_elapsed": 349991, "internal_node_id": "0.0-35.0-0.0"}}, {"uniqueid": "MTK1137:39DD6S19JQI09F6WLZBBNJPVE6RZEP", "current_trial": 45, "dateTime": 1513195013730, "trialdata": {"rt": -1, "stimulus": "<p id=\"stim\">9</p>", "key_press": -1, "trial_type": "single-stim", "trial_index": 45, "time_elapsed": 350992, "internal_node_id": "0.0-35.0-1.0"}}, {"uniqueid": "MTK1137:39DD6S19JQI09F6WLZBBNJPVE6RZEP", "current_trial": 46, "dateTime": 1513195014732, "trialdata": {"rt": -1, "stimulus": "<p id=\"stim\">8</p>", "key_press": -1, "trial_type": "single-stim", "trial_index": 46, "time_elapsed": 351994, "internal_node_id": "0.0-35.0-2.0"}}, {"uniqueid": "MTK1137:39DD6S19JQI09F6WLZBBNJPVE6RZEP", "current_trial": 47, "dateTime": 1513195015733, "trialdata": {"rt": -1, "stimulus": "<p id=\"stim\">7</p>", "key_press": -1, "trial_type": "single-stim", "trial_index": 47, "time_elapsed": 352994, "internal_node_id": "0.0-35.0-3.0"}}, {"uniqueid": "MTK1137:39DD6S19JQI09F6WLZBBNJPVE6RZEP", "current_trial": 48, "dateTime": 1513195016734, "trialdata": {"rt": -1, "stimulus": "<p id=\"stim\">6</p>", "key_press": -1, "trial_type": "single-stim", "trial_index": 48, "time_elapsed": 353996, "internal_node_id": "0.0-35.0-4.0"}}, {"uniqueid": "MTK1137:39DD6S19JQI09F6WLZBBNJPVE6RZEP", "current_trial": 49, "dateTime": 1513195017736, "trialdata": {"rt": -1, "stimulus": "<p id=\"stim\">5</p>", "key_press": -1, "trial_type": "single-stim", "trial_index": 49, "time_elapsed": 354998, "internal_node_id": "0.0-35.0-5.0"}}, {"uniqueid": "MTK1137:39DD6S19JQI09F6WLZBBNJPVE6RZEP", "current_trial": 50, "dateTime": 1513195018738, "trialdata": {"rt": -1, "stimulus": "<p id=\"stim\">4</p>", "key_press": -1, "trial_type": "single-stim", "trial_index": 50, "time_elapsed": 356000, "internal_node_id": "0.0-35.0-6.0"}}, {"uniqueid": "MTK1137:39DD6S19JQI09F6WLZBBNJPVE6RZEP", "current_trial": 51, "dateTime": 1513195019739, "trialdata": {"rt": -1, "stimulus": "<p id=\"stim\">3</p>", "key_press": -1, "trial_type": "single-stim", "trial_index": 51, "time_elapsed": 357001, "internal_node_id": "0.0-35.0-7.0"}}, {"uniqueid": "MTK1137:39DD6S19JQI09F6WLZBBNJPVE6RZEP", "current_trial": 52, "dateTime": 1513195020741, "trialdata": {"rt": -1, "stimulus": "<p id=\"stim\">2</p>", "key_press": -1, "trial_type": "single-stim", "trial_index": 52, "time_elapsed": 358003, "internal_node_id": "0.0-35.0-8.0"}}, {"uniqueid": "MTK1137:39DD6S19JQI09F6WLZBBNJPVE6RZEP", "current_trial": 53, "dateTime": 1513195021741, "trialdata": {"rt": -1, "stimulus": "<p id=\"stim\">1</p>", "key_press": -1, "trial_type": "single-stim", "trial_index": 53, "time_elapsed": 359003, "internal_node_id": "0.0-35.0-9.0"}}, {"uniqueid": "MTK1137:39DD6S19JQI09F6WLZBBNJPVE6RZEP", "current_trial": 54, "dateTime": 1513195023243, "trialdata": {"rt": -1, "stimulus": "<p id=\"stim\">+</p>", "key_press": -1, "type": "FIXATION", "trial_type": "single-stim", "trial_index": 54, "time_elapsed": 360505, "internal_node_id": "0.0-36.0-0.0"}}, {"uniqueid": "MTK1137:39DD6S19JQI09F6WLZBBNJPVE6RZEP", "current_trial": 55, "dateTime": 1513195024444, "trialdata": {"rt": -1, "stimulus": "<p id=\"stim\">HELMET</p>", "key_press": -1, "type": "PRES_VIS", "word": "helmet", "wordID": 701, "conditions": [18, 1200, "v", 18000], "trial": 1, "serialpos": 0, "trial_type": "single-stim", "trial_index": 55, "time_elapsed": 361706, "internal_node_id": "0.0-37.0"}}, {"uniqueid": "MTK1137:39DD6S19JQI09F6WLZBBNJPVE6RZEP", "current_trial": 56, "dateTime": 1513195026789, "trialdata": {"rt": -1, "stimulus": "<p id=\"stim\">COMPASS</p>", "key_press": -1, "type": "PRES_VIS", "word": "compass", "wordID": 357, "conditions": [18, 1200, "v", 18000], "trial": 1, "serialpos": 1, "trial_type": "single-stim", "trial_index": 56, "time_elapsed": 364051, "internal_node_id": "0.0-38.0"}}, {"uniqueid": "MTK1137:39DD6S19JQI09F6WLZBBNJPVE6RZEP", "current_trial": 57, "dateTime": 1513195029057, "trialdata": {"rt": -1, "stimulus": "<p id=\"stim\">COSTUME</p>", "key_press": -1, "type": "PRES_VIS", "word": "costume", "wordID": 382, "conditions": [18, 1200, "v", 18000], "trial": 1, "serialpos": 2, "trial_type": "single-stim", "trial_index": 57, "time_elapsed": 366319, "internal_node_id": "0.0-39.0"}}, {"uniqueid": "MTK1137:39DD6S19JQI09F6WLZBBNJPVE6RZEP", "current_trial": 58, "dateTime": 1513195031139, "trialdata": {"rt": -1, "stimulus": "<p id=\"stim\">BRICK</p>", "key_press": -1, "type": "PRES_VIS", "word": "brick", "wordID": 171, "conditions": [18, 1200, "v", 18000], "trial": 1, "serialpos": 3, "trial_type": "single-stim", "trial_index": 58, "time_elapsed": 368401, "internal_node_id": "0.0-40.0"}}, {"uniqueid": "MTK1137:39DD6S19JQI09F6WLZBBNJPVE6RZEP", "current_trial": 59, "dateTime": 1513195033246, "trialdata": {"rt": -1, "stimulus": "<p id=\"stim\">MUMMY</p>", "key_press": -1, "type": "PRES_VIS", "word": "mummy", "wordID": 931, "conditions": [18, 1200, "v", 18000], "trial": 1, "serialpos": 4, "trial_type": "single-stim", "trial_index": 59, "time_elapsed": 370507, "internal_node_id": "0.0-41.0"}}, {"uniqueid": "MTK1137:39DD6S19JQI09F6WLZBBNJPVE6RZEP", "current_trial": 60, "dateTime": 1513195035491, "trialdata": {"rt": -1, "stimulus": "<p id=\"stim\">SEAFOOD</p>", "key_press": -1, "type": "PRES_VIS", "word": "seafood", "wordID": 1259, "conditions": [18, 1200, "v", 18000], "trial": 1, "serialpos": 5, "trial_type": "single-stim", "trial_index": 60, "time_elapsed": 372753, "internal_node_id": "0.0-42.0"}}, {"uniqueid": "MTK1137:39DD6S19JQI09F6WLZBBNJPVE6RZEP", "current_trial": 61, "dateTime": 1513195037884, "trialdata": {"rt": -1, "stimulus": "<p id=\"stim\">BASEMENT</p>", "key_press": -1, "type": "PRES_VIS", "word": "basement", "wordID": 93, "conditions": [18, 1200, "v", 18000], "trial": 1, "serialpos": 6, "trial_type": "single-stim", "trial_index": 61, "time_elapsed": 375145, "internal_node_id": "0.0-43.0"}}, {"uniqueid": "MTK1137:39DD6S19JQI09F6WLZBBNJPVE6RZEP", "current_trial": 62, "dateTime": 1513195040165, "trialdata": {"rt": -1, "stimulus": "<p id=\"stim\">MUSTARD</p>", "key_press": -1, "type": "PRES_VIS", "word": "mustard", "wordID": 934, "conditions": [18, 1200, "v", 18000], "trial": 1, "serialpos": 7, "trial_type": "single-stim", "trial_index": 62, "time_elapsed": 377427, "internal_node_id": "0.0-44.0"}}, {"uniqueid": "MTK1137:39DD6S19JQI09F6WLZBBNJPVE6RZEP", "current_trial": 63, "dateTime": 1513195042425, "trialdata": {"rt": -1, "stimulus": "<p id=\"stim\">FLEET</p>", "key_press": -1, "type": "PRES_VIS", "word": "fleet", "wordID": 577, "conditions": [18, 1200, "v", 18000], "trial": 1, "serialpos": 8, "trial_type": "single-stim", "trial_index": 63, "time_elapsed": 379687, "internal_node_id": "0.0-45.0"}}, {"uniqueid": "MTK1137:39DD6S19JQI09F6WLZBBNJPVE6RZEP", "current_trial": 64, "dateTime": 1513195044557, "trialdata": {"rt": -1, "stimulus": "<p id=\"stim\">DORM</p>", "key_press": -1, "type": "PRES_VIS", "word": "dorm", "wordID": 487, "conditions": [18, 1200, "v", 18000], "trial": 1, "serialpos": 9, "trial_type": "single-stim", "trial_index": 64, "time_elapsed": 381819, "internal_node_id": "0.0-46.0"}}, {"uniqueid": "MTK1137:39DD6S19JQI09F6WLZBBNJPVE6RZEP", "current_trial": 65, "dateTime": 1513195046809, "trialdata": {"rt": -1, "stimulus": "<p id=\"stim\">PATROL</p>", "key_press": -1, "type": "PRES_VIS", "word": "patrol", "wordID": 1026, "conditions": [18, 1200, "v", 18000], "trial": 1, "serialpos": 10, "trial_type": "single-stim", "trial_index": 65, "time_elapsed": 384071, "internal_node_id": "0.0-47.0"}}, {"uniqueid": "MTK1137:39DD6S19JQI09F6WLZBBNJPVE6RZEP", "current_trial": 66, "dateTime": 1513195048838, "trialdata": {"rt": -1, "stimulus": "<p id=\"stim\">SWITCH</p>", "key_press": -1, "type": "PRES_VIS", "word": "switch", "wordID": 1421, "conditions": [18, 1200, "v", 18000], "trial": 1, "serialpos": 11, "trial_type": "single-stim", "trial_index": 66, "time_elapsed": 386100, "internal_node_id": "0.0-48.0"}}, {"uniqueid": "MTK1137:39DD6S19JQI09F6WLZBBNJPVE6RZEP", "current_trial": 67, "dateTime": 1513195051226, "trialdata": {"rt": -1, "stimulus": "<p id=\"stim\">PLIERS</p>", "key_press": -1, "type": "PRES_VIS", "word": "pliers", "wordID": 1088, "conditions": [18, 1200, "v", 18000], "trial": 1, "serialpos": 12, "trial_type": "single-stim", "trial_index": 67, "time_elapsed": 388488, "internal_node_id": "0.0-49.0"}}, {"uniqueid": "MTK1137:39DD6S19JQI09F6WLZBBNJPVE6RZEP", "current_trial": 68, "dateTime": 1513195053386, "trialdata": {"rt": -1, "stimulus": "<p id=\"stim\">YARN</p>", "key_press": -1, "type": "PRES_VIS", "word": "yarn", "wordID": 1630, "conditions": [18, 1200, "v", 18000], "trial": 1, "serialpos": 13, "trial_type": "single-stim", "trial_index": 68, "time_elapsed": 390646, "internal_node_id": "0.0-50.0"}}, {"uniqueid": "MTK1137:39DD6S19JQI09F6WLZBBNJPVE6RZEP", "current_trial": 69, "dateTime": 1513195055481, "trialdata": {"rt": -1, "stimulus": "<p id=\"stim\">TUBA</p>", "key_press": -1, "type": "PRES_VIS", "word": "tuba", "wordID": 1514, "conditions": [18, 1200, "v", 18000], "trial": 1, "serialpos": 14, "trial_type": "single-stim", "trial_index": 69, "time_elapsed": 392743, "internal_node_id": "0.0-51.0"}}, {"uniqueid": "MTK1137:39DD6S19JQI09F6WLZBBNJPVE6RZEP", "current_trial": 70, "dateTime": 1513195057689, "trialdata": {"rt": -1, "stimulus": "<p id=\"stim\">MISSILE</p>", "key_press": -1, "type": "PRES_VIS", "word": "missile", "wordID": 899, "conditions": [18, 1200, "v", 18000], "trial": 1, "serialpos": 15, "trial_type": "single-stim", "trial_index": 70, "time_elapsed": 394951, "internal_node_id": "0.0-52.0"}}, {"uniqueid": "MTK1137:39DD6S19JQI09F6WLZBBNJPVE6RZEP", "current_trial": 71, "dateTime": 1513195059733, "trialdata": {"rt": -1, "stimulus": "<p id=\"stim\">HOOK</p>", "key_press": -1, "type": "PRES_VIS", "word": "hook", "wordID": 714, "conditions": [18, 1200, "v", 18000], "trial": 1, "serialpos": 16, "trial_type": "single-stim", "trial_index": 71, "time_elapsed": 396995, "internal_node_id": "0.0-53.0"}}, {"uniqueid": "MTK1137:39DD6S19JQI09F6WLZBBNJPVE6RZEP", "current_trial": 72, "dateTime": 1513195061927, "trialdata": {"rt": -1, "stimulus": "<p id=\"stim\">NOTEBOOK</p>", "key_press": -1, "type": "PRES_VIS", "word": "notebook", "wordID": 958, "conditions": [18, 1200, "v", 18000], "trial": 1, "serialpos": 17, "trial_type": "single-stim", "trial_index": 72, "time_elapsed": 399189, "internal_node_id": "0.0-54.0"}}, {"uniqueid": "MTK1137:39DD6S19JQI09F6WLZBBNJPVE6RZEP", "current_trial": 73, "dateTime": 1513195064251, "trialdata": {"rt": -1, "stimulus": "", "key_press": -1, "type": "PRE_RECALL_DELAY", "trial_type": "single-stim", "trial_index": 73, "time_elapsed": 401513, "internal_node_id": "0.0-55.0-0.0"}}, {"uniqueid": "MTK1137:39DD6S19JQI09F6WLZBBNJPVE6RZEP", "current_trial": 74, "dateTime": 1513195064752, "trialdata": {"rt": -1000, "stimulus": "/static/audio/400Hz.wav", "key_press": -1, "type": "PRE_RECALL_ALERT", "trial_type": "single-audio", "trial_index": 74, "time_elapsed": 402014, "internal_node_id": "0.0-56.0"}}, {"uniqueid": "MTK1137:39DD6S19JQI09F6WLZBBNJPVE6RZEP", "current_trial": 75, "dateTime": 1513195124756, "trialdata": {"rt": [2966, 4229, 4941, 6389, 8597, 12453, 25121, 30680, 54614], "recwords": ["notebook", "tuba", "hook", "missile", "compass", "mustard", "notebook", "basement", "yarn"], "type": "FREE_RECALL", "conditions": [18, 1200, "v", 18000], "trial": 1, "trial_type": "free-recall", "trial_index": 75, "time_elapsed": 462015, "internal_node_id": "0.0-57.0-0.0"}}, {"uniqueid": "MTK1137:39DD6S19JQI09F6WLZBBNJPVE6RZEP", "current_trial": 76, "dateTime": 1513195129858, "trialdata": {"rt": 3097, "key_press": 39, "type": "INSTRUCTIONS", "trial_type": "text", "trial_index": 76, "time_elapsed": 467115, "internal_node_id": "0.0-58.0"}}, {"uniqueid": "MTK1137:39DD6S19JQI09F6WLZBBNJPVE6RZEP", "current_trial": 77, "dateTime": 1513195142861, "trialdata": {"rt": [3283, 4859, 6291, 7962, 9994, 11666], "responses": ["10", "8", "7", "17", "18", "14"], "num1": [2, 3, 4, 6, 6, 6, 2], "num2": [1, 3, 2, 6, 5, 3, 3], "num3": [7, 2, 1, 5, 7, 5, 1], "type": "DISTRACTOR", "conditions": [12, 1600, "a", 12000], "trial": 2, "trial_type": "math-distractor", "trial_index": 77, "time_elapsed": 480122, "internal_node_id": "0.0-59.0"}}, {"uniqueid": "MTK1137:39DD6S19JQI09F6WLZBBNJPVE6RZEP", "current_trial": 78, "dateTime": 1513195145862, "trialdata": {"rt": -1, "stimulus": "<p id=\"stim\">10</p>", "key_press": -1, "trial_type": "single-stim", "trial_index": 78, "time_elapsed": 483124, "internal_node_id": "0.0-60.0-0.0"}}, {"uniqueid": "MTK1137:39DD6S19JQI09F6WLZBBNJPVE6RZEP", "current_trial": 79, "dateTime": 1513195146863, "trialdata": {"rt": -1, "stimulus": "<p id=\"stim\">9</p>", "key_press": -1, "trial_type": "single-stim", "trial_index": 79, "time_elapsed": 484125, "internal_node_id": "0.0-60.0-1.0"}}, {"uniqueid": "MTK1137:39DD6S19JQI09F6WLZBBNJPVE6RZEP", "current_trial": 80, "dateTime": 1513195147865, "trialdata": {"rt": -1, "stimulus": "<p id=\"stim\">8</p>", "key_press": -1, "trial_type": "single-stim", "trial_index": 80, "time_elapsed": 485126, "internal_node_id": "0.0-60.0-2.0"}}, {"uniqueid": "MTK1137:39DD6S19JQI09F6WLZBBNJPVE6RZEP", "current_trial": 81, "dateTime": 1513195148866, "trialdata": {"rt": -1, "stimulus": "<p id=\"stim\">7</p>", "key_press": -1, "trial_type": "single-stim", "trial_index": 81, "time_elapsed": 486127, "internal_node_id": "0.0-60.0-3.0"}}, {"uniqueid": "MTK1137:39DD6S19JQI09F6WLZBBNJPVE6RZEP", "current_trial": 82, "dateTime": 1513195149867, "trialdata": {"rt": -1, "stimulus": "<p id=\"stim\">6</p>", "key_press": -1, "trial_type": "single-stim", "trial_index": 82, "time_elapsed": 487129, "internal_node_id": "0.0-60.0-4.0"}}, {"uniqueid": "MTK1137:39DD6S19JQI09F6WLZBBNJPVE6RZEP", "current_trial": 83, "dateTime": 1513195150868, "trialdata": {"rt": -1, "stimulus": "<p id=\"stim\">5</p>", "key_press": -1, "trial_type": "single-stim", "trial_index": 83, "time_elapsed": 488130, "internal_node_id": "0.0-60.0-5.0"}}, {"uniqueid": "MTK1137:39DD6S19JQI09F6WLZBBNJPVE6RZEP", "current_trial": 84, "dateTime": 1513195151870, "trialdata": {"rt": -1, "stimulus": "<p id=\"stim\">4</p>", "key_press": -1, "trial_type": "single-stim", "trial_index": 84, "time_elapsed": 489132, "internal_node_id": "0.0-60.0-6.0"}}, {"uniqueid": "MTK1137:39DD6S19JQI09F6WLZBBNJPVE6RZEP", "current_trial": 85, "dateTime": 1513195152871, "trialdata": {"rt": -1, "stimulus": "<p id=\"stim\">3</p>", "key_press": -1, "trial_type": "single-stim", "trial_index": 85, "time_elapsed": 490133, "internal_node_id": "0.0-60.0-7.0"}}, {"uniqueid": "MTK1137:39DD6S19JQI09F6WLZBBNJPVE6RZEP", "current_trial": 86, "dateTime": 1513195153872, "trialdata": {"rt": -1, "stimulus": "<p id=\"stim\">2</p>", "key_press": -1, "trial_type": "single-stim", "trial_index": 86, "time_elapsed": 491134, "internal_node_id": "0.0-60.0-8.0"}}, {"uniqueid": "MTK1137:39DD6S19JQI09F6WLZBBNJPVE6RZEP", "current_trial": 87, "dateTime": 1513195154874, "trialdata": {"rt": -1, "stimulus": "<p id=\"stim\">1</p>", "key_press": -1, "trial_type": "single-stim", "trial_index": 87, "time_elapsed": 492136, "internal_node_id": "0.0-60.0-9.0"}}, {"uniqueid": "MTK1137:39DD6S19JQI09F6WLZBBNJPVE6RZEP", "current_trial": 88, "dateTime": 1513195156374, "trialdata": {"rt": -1, "stimulus": "<p id=\"stim\">+</p>", "key_press": -1, "type": "FIXATION", "trial_type": "single-stim", "trial_index": 88, "time_elapsed": 493636, "internal_node_id": "0.0-61.0-0.0"}}, {"uniqueid": "MTK1137:39DD6S19JQI09F6WLZBBNJPVE6RZEP", "current_trial": 89, "dateTime": 1513195159103, "trialdata": {"rt": -1000, "stimulus": "/static/audio/wordpool/DRIVER.wav", "key_press": -1, "type": "PRES_AUD", "word": "driver", "wordID": 498, "conditions": [12, 1600, "a", 12000], "trial": 2, "serialpos": 0, "trial_type": "single-audio", "trial_index": 89, "time_elapsed": 496365, "internal_node_id": "0.0-62.0"}}, {"uniqueid": "MTK1137:39DD6S19JQI09F6WLZBBNJPVE6RZEP", "current_trial": 90, "dateTime": 1513195161685, "trialdata": {"rt": -1000, "stimulus": "/static/audio/wordpool/BEEF.wav", "key_press": -1, "type": "PRES_AUD", "word": "beef", "wordID": 112, "conditions": [12, 1600, "a", 12000], "trial": 2, "serialpos": 1, "trial_type": "single-audio", "trial_index": 90, "time_elapsed": 498947, "internal_node_id": "0.0-63.0"}}, {"uniqueid": "MTK1137:39DD6S19JQI09F6WLZBBNJPVE6RZEP", "current_trial": 91, "dateTime": 1513195164135, "trialdata": {"rt": -1000, "stimulus": "/static/audio/wordpool/BEAST.wav", "key_press": -1, "type": "PRES_AUD", "word": "beast", "wordID": 107, "conditions": [12, 1600, "a", 12000], "trial": 2, "serialpos": 2, "trial_type": "single-audio", "trial_index": 91, "time_elapsed": 501397, "internal_node_id": "0.0-64.0"}}, {"uniqueid": "MTK1137:39DD6S19JQI09F6WLZBBNJPVE6RZEP", "current_trial": 92, "dateTime": 1513195166721, "trialdata": {"rt": -1000, "stimulus": "/static/audio/wordpool/BRACES.wav", "key_press": -1, "type": "PRES_AUD", "word": "braces", "wordID": 163, "conditions": [12, 1600, "a", 12000], "trial": 2, "serialpos": 3, "trial_type": "single-audio", "trial_index": 92, "time_elapsed": 503982, "internal_node_id": "0.0-65.0"}}, {"uniqueid": "MTK1137:39DD6S19JQI09F6WLZBBNJPVE6RZEP", "current_trial": 93, "dateTime": 1513195169233, "trialdata": {"rt": -1000, "stimulus": "/static/audio/wordpool/GOBLIN.wav", "key_press": -1, "type": "PRES_AUD", "word": "goblin", "wordID": 644, "conditions": [12, 1600, "a", 12000], "trial": 2, "serialpos": 4, "trial_type": "single-audio", "trial_index": 93, "time_elapsed": 506495, "internal_node_id": "0.0-66.0"}}, {"uniqueid": "MTK1137:39DD6S19JQI09F6WLZBBNJPVE6RZEP", "current_trial": 94, "dateTime": 1513195171889, "trialdata": {"rt": -1000, "stimulus": "/static/audio/wordpool/ACTRESS.wav", "key_press": -1, "type": "PRES_AUD", "word": "actress", "wordID": 5, "conditions": [12, 1600, "a", 12000], "trial": 2, "serialpos": 5, "trial_type": "single-audio", "trial_index": 94, "time_elapsed": 509151, "internal_node_id": "0.0-67.0"}}, {"uniqueid": "MTK1137:39DD6S19JQI09F6WLZBBNJPVE6RZEP", "current_trial": 95, "dateTime": 1513195174424, "trialdata": {"rt": -1000, "stimulus": "/static/audio/wordpool/CABBAGE.wav", "key_press": -1, "type": "PRES_AUD", "word": "cabbage", "wordID": 209, "conditions": [12, 1600, "a", 12000], "trial": 2, "serialpos": 6, "trial_type": "single-audio", "trial_index": 95, "time_elapsed": 511686, "internal_node_id": "0.0-68.0"}}, {"uniqueid": "MTK1137:39DD6S19JQI09F6WLZBBNJPVE6RZEP", "current_trial": 96, "dateTime": 1513195177221, "trialdata": {"rt": -1000, "stimulus": "/static/audio/wordpool/ONION.wav", "key_press": -1, "type": "PRES_AUD", "word": "onion", "wordID": 976, "conditions": [12, 1600, "a", 12000], "trial": 2, "serialpos": 7, "trial_type": "single-audio", "trial_index": 96, "time_elapsed": 514483, "internal_node_id": "0.0-69.0"}}, {"uniqueid": "MTK1137:39DD6S19JQI09F6WLZBBNJPVE6RZEP", "current_trial": 97, "dateTime": 1513195179760, "trialdata": {"rt": -1000, "stimulus": "/static/audio/wordpool/HANDBAG.wav", "key_press": -1, "type": "PRES_AUD", "word": "handbag", "wordID": 683, "conditions": [12, 1600, "a", 12000], "trial": 2, "serialpos": 8, "trial_type": "single-audio", "trial_index": 97, "time_elapsed": 517022, "internal_node_id": "0.0-70.0"}}, {"uniqueid": "MTK1137:39DD6S19JQI09F6WLZBBNJPVE6RZEP", "current_trial": 98, "dateTime": 1513195182236, "trialdata": {"rt": -1000, "stimulus": "/static/audio/wordpool/HARP.wav", "key_press": -1, "type": "PRES_AUD", "word": "harp", "wordID": 688, "conditions": [12, 1600, "a", 12000], "trial": 2, "serialpos": 9, "trial_type": "single-audio", "trial_index": 98, "time_elapsed": 519497, "internal_node_id": "0.0-71.0"}}, {"uniqueid": "MTK1137:39DD6S19JQI09F6WLZBBNJPVE6RZEP", "current_trial": 99, "dateTime": 1513195184780, "trialdata": {"rt": -1000, "stimulus": "/static/audio/wordpool/WHISTLE.wav", "key_press": -1, "type": "PRES_AUD", "word": "whistle", "wordID": 1605, "conditions": [12, 1600, "a", 12000], "trial": 2, "serialpos": 10, "trial_type": "single-audio", "trial_index": 99, "time_elapsed": 522041, "internal_node_id": "0.0-72.0"}}, {"uniqueid": "MTK1137:39DD6S19JQI09F6WLZBBNJPVE6RZEP", "current_trial": 100, "dateTime": 1513195187373, "trialdata": {"rt": -1000, "stimulus": "/static/audio/wordpool/DRAGON.wav", "key_press": -1, "type": "PRES_AUD", "word": "dragon", "wordID": 491, "conditions": [12, 1600, "a", 12000], "trial": 2, "serialpos": 11, "trial_type": "single-audio", "trial_index": 100, "time_elapsed": 524635, "internal_node_id": "0.0-73.0"}}, {"uniqueid": "MTK1137:39DD6S19JQI09F6WLZBBNJPVE6RZEP", "current_trial": 101, "dateTime": 1513195188614, "trialdata": {"rt": -1, "stimulus": "", "key_press": -1, "type": "PRE_RECALL_DELAY", "trial_type": "single-stim", "trial_index": 101, "time_elapsed": 525875, "internal_node_id": "0.0-74.0-0.0"}}, {"uniqueid": "MTK1137:39DD6S19JQI09F6WLZBBNJPVE6RZEP", "current_trial": 102, "dateTime": 1513195189116, "trialdata": {"rt": -1000, "stimulus": "/static/audio/400Hz.wav", "key_press": -1, "type": "PRE_RECALL_ALERT", "trial_type": "single-audio", "trial_index": 102, "time_elapsed": 526377, "internal_node_id": "0.0-75.0"}}, {"uniqueid": "MTK1137:39DD6S19JQI09F6WLZBBNJPVE6RZEP", "current_trial": 103, "dateTime": 1513195249118, "trialdata": {"rt": [2309, 5318, 6781, 8005, 8853, 12628], "recwords": ["dragon", "whistle", "harp", "beast", "beef", "cabin"], "type": "FREE_RECALL", "conditions": [12, 1600, "a", 12000], "trial": 2, "trial_type": "free-recall", "trial_index": 103, "time_elapsed": 586378, "internal_node_id": "0.0-76.0-0.0"}}, {"uniqueid": "MTK1137:39DD6S19JQI09F6WLZBBNJPVE6RZEP", "current_trial": 104, "dateTime": 1513195252746, "trialdata": {"rt": 1626, "key_press": 39, "type": "INSTRUCTIONS", "trial_type": "text", "trial_index": 104, "time_elapsed": 590008, "internal_node_id": "0.0-77.0"}}, {"uniqueid": "MTK1137:39DD6S19JQI09F6WLZBBNJPVE6RZEP", "current_trial": 105, "dateTime": 1513195266750, "trialdata": {"rt": [1782, 3310, 6373, 8068, 9669, 11965], "responses": ["11", "10", "17", "16", "15", "8"], "num1": [4, 2, 4, 3, 3, 1, 5], "num2": [4, 7, 8, 5, 9, 3, 8], "num3": [3, 1, 5, 8, 3, 4, 6], "type": "DISTRACTOR", "conditions": [12, 800, "a", 12000], "trial": 3, "trial_type": "math-distractor", "trial_index": 105, "time_elapsed": 604011, "internal_node_id": "0.0-78.0"}}, {"uniqueid": "MTK1137:39DD6S19JQI09F6WLZBBNJPVE6RZEP", "current_trial": 106, "dateTime": 1513195269751, "trialdata": {"rt": -1, "stimulus": "<p id=\"stim\">10</p>", "key_press": -1, "trial_type": "single-stim", "trial_index": 106, "time_elapsed": 607013, "internal_node_id": "0.0-79.0-0.0"}}, {"uniqueid": "MTK1137:39DD6S19JQI09F6WLZBBNJPVE6RZEP", "current_trial": 107, "dateTime": 1513195270752, "trialdata": {"rt": -1, "stimulus": "<p id=\"stim\">9</p>", "key_press": -1, "trial_type": "single-stim", "trial_index": 107, "time_elapsed": 608014, "internal_node_id": "0.0-79.0-1.0"}}, {"uniqueid": "MTK1137:39DD6S19JQI09F6WLZBBNJPVE6RZEP", "current_trial": 108, "dateTime": 1513195271753, "trialdata": {"rt": -1, "stimulus": "<p id=\"stim\">8</p>", "key_press": -1, "trial_type": "single-stim", "trial_index": 108, "time_elapsed": 609015, "internal_node_id": "0.0-79.0-2.0"}}, {"uniqueid": "MTK1137:39DD6S19JQI09F6WLZBBNJPVE6RZEP", "current_trial": 109, "dateTime": 1513195272754, "trialdata": {"rt": -1, "stimulus": "<p id=\"stim\">7</p>", "key_press": -1, "trial_type": "single-stim", "trial_index": 109, "time_elapsed": 610016, "internal_node_id": "0.0-79.0-3.0"}}, {"uniqueid": "MTK1137:39DD6S19JQI09F6WLZBBNJPVE6RZEP", "current_trial": 110, "dateTime": 1513195273755, "trialdata": {"rt": -1, "stimulus": "<p id=\"stim\">6</p>", "key_press": -1, "trial_type": "single-stim", "trial_index": 110, "time_elapsed": 611017, "internal_node_id": "0.0-79.0-4.0"}}, {"uniqueid": "MTK1137:39DD6S19JQI09F6WLZBBNJPVE6RZEP", "current_trial": 111, "dateTime": 1513195274757, "trialdata": {"rt": -1, "stimulus": "<p id=\"stim\">5</p>", "key_press": -1, "trial_type": "single-stim", "trial_index": 111, "time_elapsed": 612019, "internal_node_id": "0.0-79.0-5.0"}}, {"uniqueid": "MTK1137:39DD6S19JQI09F6WLZBBNJPVE6RZEP", "current_trial": 112, "dateTime": 1513195275758, "trialdata": {"rt": -1, "stimulus": "<p id=\"stim\">4</p>", "key_press": -1, "trial_type": "single-stim", "trial_index": 112, "time_elapsed": 613020, "internal_node_id": "0.0-79.0-6.0"}}, {"uniqueid": "MTK1137:39DD6S19JQI09F6WLZBBNJPVE6RZEP", "current_trial": 113, "dateTime": 1513195276760, "trialdata": {"rt": -1, "stimulus": "<p id=\"stim\">3</p>", "key_press": -1, "trial_type": "single-stim", "trial_index": 113, "time_elapsed": 614021, "internal_node_id": "0.0-79.0-7.0"}}, {"uniqueid": "MTK1137:39DD6S19JQI09F6WLZBBNJPVE6RZEP", "current_trial": 114, "dateTime": 1513195277761, "trialdata": {"rt": -1, "stimulus": "<p id=\"stim\">2</p>", "key_press": -1, "trial_type": "single-stim", "trial_index": 114, "time_elapsed": 615023, "internal_node_id": "0.0-79.0-8.0"}}, {"uniqueid": "MTK1137:39DD6S19JQI09F6WLZBBNJPVE6RZEP", "current_trial": 115, "dateTime": 1513195278762, "trialdata": {"rt": -1, "stimulus": "<p id=\"stim\">1</p>", "key_press": -1, "trial_type": "single-stim", "trial_index": 115, "time_elapsed": 616024, "internal_node_id": "0.0-79.0-9.0"}}, {"uniqueid": "MTK1137:39DD6S19JQI09F6WLZBBNJPVE6RZEP", "current_trial": 116, "dateTime": 1513195280263, "trialdata": {"rt": -1, "stimulus": "<p id=\"stim\">+</p>", "key_press": -1, "type": "FIXATION", "trial_type": "single-stim", "trial_index": 116, "time_elapsed": 617525, "internal_node_id": "0.0-80.0-0.0"}}, {"uniqueid": "MTK1137:39DD6S19JQI09F6WLZBBNJPVE6RZEP", "current_trial": 117, "dateTime": 1513195281932, "trialdata": {"rt": -1000, "stimulus": "/static/audio/wordpool/FLASHLIGHT.wav", "key_press": -1, "type": "PRES_AUD", "word": "flashlight", "wordID": 574, "conditions": [12, 800, "a", 12000], "trial": 3, "serialpos": 0, "trial_type": "single-audio", "trial_index": 117, "time_elapsed": 619194, "internal_node_id": "0.0-81.0"}}, {"uniqueid": "MTK1137:39DD6S19JQI09F6WLZBBNJPVE6RZEP", "current_trial": 118, "dateTime": 1513195283911, "trialdata": {"rt": -1000, "stimulus": "/static/audio/wordpool/TOURIST.wav", "key_press": -1, "type": "PRES_AUD", "word": "tourist", "wordID": 1487, "conditions": [12, 800, "a", 12000], "trial": 3, "serialpos": 1, "trial_type": "single-audio", "trial_index": 118, "time_elapsed": 621173, "internal_node_id": "0.0-82.0"}}, {"uniqueid": "MTK1137:39DD6S19JQI09F6WLZBBNJPVE6RZEP", "current_trial": 119, "dateTime": 1513195285799, "trialdata": {"rt": -1000, "stimulus": "/static/audio/wordpool/SHELF.wav", "key_press": -1, "type": "PRES_AUD", "word": "shelf", "wordID": 1279, "conditions": [12, 800, "a", 12000], "trial": 3, "serialpos": 2, "trial_type": "single-audio", "trial_index": 119, "time_elapsed": 623060, "internal_node_id": "0.0-83.0"}}, {"uniqueid": "MTK1137:39DD6S19JQI09F6WLZBBNJPVE6RZEP", "current_trial": 120, "dateTime": 1513195287403, "trialdata": {"rt": -1000, "stimulus": "/static/audio/wordpool/SKILLET.wav", "key_press": -1, "type": "PRES_AUD", "word": "skillet", "wordID": 1316, "conditions": [12, 800, "a", 12000], "trial": 3, "serialpos": 3, "trial_type": "single-audio", "trial_index": 120, "time_elapsed": 624665, "internal_node_id": "0.0-84.0"}}, {"uniqueid": "MTK1137:39DD6S19JQI09F6WLZBBNJPVE6RZEP", "current_trial": 121, "dateTime": 1513195289355, "trialdata": {"rt": -1000, "stimulus": "/static/audio/wordpool/PUPPY.wav", "key_press": -1, "type": "PRES_AUD", "word": "puppy", "wordID": 1143, "conditions": [12, 800, "a", 12000], "trial": 3, "serialpos": 4, "trial_type": "single-audio", "trial_index": 121, "time_elapsed": 626617, "internal_node_id": "0.0-85.0"}}, {"uniqueid": "MTK1137:39DD6S19JQI09F6WLZBBNJPVE6RZEP", "current_trial": 122, "dateTime": 1513195291329, "trialdata": {"rt": -1000, "stimulus": "/static/audio/wordpool/BABY.wav", "key_press": -1, "type": "PRES_AUD", "word": "baby", "wordID": 63, "conditions": [12, 800, "a", 12000], "trial": 3, "serialpos": 5, "trial_type": "single-audio", "trial_index": 122, "time_elapsed": 628591, "internal_node_id": "0.0-86.0"}}, {"uniqueid": "MTK1137:39DD6S19JQI09F6WLZBBNJPVE6RZEP", "current_trial": 123, "dateTime": 1513195293286, "trialdata": {"rt": -1000, "stimulus": "/static/audio/wordpool/STOVE.wav", "key_press": -1, "type": "PRES_AUD", "word": "stove", "wordID": 1387, "conditions": [12, 800, "a", 12000], "trial": 3, "serialpos": 6, "trial_type": "single-audio", "trial_index": 123, "time_elapsed": 630548, "internal_node_id": "0.0-87.0"}}, {"uniqueid": "MTK1137:39DD6S19JQI09F6WLZBBNJPVE6RZEP", "current_trial": 124, "dateTime": 1513195295020, "trialdata": {"rt": -1000, "stimulus": "/static/audio/wordpool/CANDY.wav", "key_press": -1, "type": "PRES_AUD", "word": "candy", "wordID": 229, "conditions": [12, 800, "a", 12000], "trial": 3, "serialpos": 7, "trial_type": "single-audio", "trial_index": 124, "time_elapsed": 632282, "internal_node_id": "0.0-88.0"}}, {"uniqueid": "MTK1137:39DD6S19JQI09F6WLZBBNJPVE6RZEP", "current_trial": 125, "dateTime": 1513195296654, "trialdata": {"rt": -1000, "stimulus": "/static/audio/wordpool/DONKEY.wav", "key_press": -1, "type": "PRES_AUD", "word": "donkey", "wordID": 483, "conditions": [12, 800, "a", 12000], "trial": 3, "serialpos": 8, "trial_type": "single-audio", "trial_index": 125, "time_elapsed": 633916, "internal_node_id": "0.0-89.0"}}, {"uniqueid": "MTK1137:39DD6S19JQI09F6WLZBBNJPVE6RZEP", "current_trial": 126, "dateTime": 1513195298449, "trialdata": {"rt": -1000, "stimulus": "/static/audio/wordpool/MARINE.wav", "key_press": -1, "type": "PRES_AUD", "word": "marine", "wordID": 868, "conditions": [12, 800, "a", 12000], "trial": 3, "serialpos": 9, "trial_type": "single-audio", "trial_index": 126, "time_elapsed": 635711, "internal_node_id": "0.0-90.0"}}, {"uniqueid": "MTK1137:39DD6S19JQI09F6WLZBBNJPVE6RZEP", "current_trial": 127, "dateTime": 1513195300280, "trialdata": {"rt": -1000, "stimulus": "/static/audio/wordpool/COOK.wav", "key_press": -1, "type": "PRES_AUD", "word": "cook", "wordID": 371, "conditions": [12, 800, "a", 12000], "trial": 3, "serialpos": 10, "trial_type": "single-audio", "trial_index": 127, "time_elapsed": 637542, "internal_node_id": "0.0-91.0"}}, {"uniqueid": "MTK1137:39DD6S19JQI09F6WLZBBNJPVE6RZEP", "current_trial": 128, "dateTime": 1513195302250, "trialdata": {"rt": -1000, "stimulus": "/static/audio/wordpool/CAMEL.wav", "key_press": -1, "type": "PRES_AUD", "word": "camel", "wordID": 222, "conditions": [12, 800, "a", 12000], "trial": 3, "serialpos": 11, "trial_type": "single-audio", "trial_index": 128, "time_elapsed": 639512, "internal_node_id": "0.0-92.0"}}, {"uniqueid": "MTK1137:39DD6S19JQI09F6WLZBBNJPVE6RZEP", "current_trial": 129, "dateTime": 1513195303636, "trialdata": {"rt": -1, "stimulus": "", "key_press": -1, "type": "PRE_RECALL_DELAY", "trial_type": "single-stim", "trial_index": 129, "time_elapsed": 640898, "internal_node_id": "0.0-93.0-0.0"}}, {"uniqueid": "MTK1137:39DD6S19JQI09F6WLZBBNJPVE6RZEP", "current_trial": 130, "dateTime": 1513195304138, "trialdata": {"rt": -1000, "stimulus": "/static/audio/400Hz.wav", "key_press": -1, "type": "PRE_RECALL_ALERT", "trial_type": "single-audio", "trial_index": 130, "time_elapsed": 641400, "internal_node_id": "0.0-94.0"}}, {"uniqueid": "MTK1137:39DD6S19JQI09F6WLZBBNJPVE6RZEP", "current_trial": 131, "dateTime": 1513195364140, "trialdata": {"rt": [2053, 4101, 5397, 6518, 15385, 16633, 23919], "recwords": ["marine", "donkey", "cook", "camel", "baby", "puppy", "flashlight"], "type": "FREE_RECALL", "conditions": [12, 800, "a", 12000], "trial": 3, "trial_type": "free-recall", "trial_index": 131, "time_elapsed": 701400, "internal_node_id": "0.0-95.0-0.0"}}, {"uniqueid": "MTK1137:39DD6S19JQI09F6WLZBBNJPVE6RZEP", "current_trial": 132, "dateTime": 1513195366986, "trialdata": {"rt": 844, "key_press": 39, "type": "INSTRUCTIONS", "trial_type": "text", "trial_index": 132, "time_elapsed": 704248, "internal_node_id": "0.0-96.0"}}, {"uniqueid": "MTK1137:39DD6S19JQI09F6WLZBBNJPVE6RZEP", "current_trial": 133, "dateTime": 1513195392988, "trialdata": {"rt": [2922, 4339, 5931, 7835, 9202, 10978, 13810, 15690, 18930, 20275, 22201, 23834], "responses": ["19", "11", "11", "16", "13", "16", "24", "17", "18", "10", "18", "14"], "num1": [6, 2, 7, 6, 4, 6, 8, 6, 5, 1, 9, 5, 4], "num2": [8, 6, 1, 8, 8, 1, 7, 6, 4, 7, 7, 7, 8], "num3": [5, 3, 3, 2, 1, 9, 9, 5, 9, 2, 2, 2, 3], "type": "DISTRACTOR", "conditions": [12, 800, "a", 24000], "trial": 4, "trial_type": "math-distractor", "trial_index": 133, "time_elapsed": 730250, "internal_node_id": "0.0-97.0"}}, {"uniqueid": "MTK1137:39DD6S19JQI09F6WLZBBNJPVE6RZEP", "current_trial": 134, "dateTime": 1513195395989, "trialdata": {"rt": -1, "stimulus": "<p id=\"stim\">10</p>", "key_press": -1, "trial_type": "single-stim", "trial_index": 134, "time_elapsed": 733251, "internal_node_id": "0.0-98.0-0.0"}}, {"uniqueid": "MTK1137:39DD6S19JQI09F6WLZBBNJPVE6RZEP", "current_trial": 135, "dateTime": 1513195396990, "trialdata": {"rt": -1, "stimulus": "<p id=\"stim\">9</p>", "key_press": -1, "trial_type": "single-stim", "trial_index": 135, "time_elapsed": 734252, "internal_node_id": "0.0-98.0-1.0"}}, {"uniqueid": "MTK1137:39DD6S19JQI09F6WLZBBNJPVE6RZEP", "current_trial": 136, "dateTime": 1513195397990, "trialdata": {"rt": -1, "stimulus": "<p id=\"stim\">8</p>", "key_press": -1, "trial_type": "single-stim", "trial_index": 136, "time_elapsed": 735252, "internal_node_id": "0.0-98.0-2.0"}}, {"uniqueid": "MTK1137:39DD6S19JQI09F6WLZBBNJPVE6RZEP", "current_trial": 137, "dateTime": 1513195398991, "trialdata": {"rt": -1, "stimulus": "<p id=\"stim\">7</p>", "key_press": -1, "trial_type": "single-stim", "trial_index": 137, "time_elapsed": 736253, "internal_node_id": "0.0-98.0-3.0"}}, {"uniqueid": "MTK1137:39DD6S19JQI09F6WLZBBNJPVE6RZEP", "current_trial": 138, "dateTime": 1513195399992, "trialdata": {"rt": -1, "stimulus": "<p id=\"stim\">6</p>", "key_press": -1, "trial_type": "single-stim", "trial_index": 138, "time_elapsed": 737254, "internal_node_id": "0.0-98.0-4.0"}}, {"uniqueid": "MTK1137:39DD6S19JQI09F6WLZBBNJPVE6RZEP", "current_trial": 139, "dateTime": 1513195400993, "trialdata": {"rt": -1, "stimulus": "<p id=\"stim\">5</p>", "key_press": -1, "trial_type": "single-stim", "trial_index": 139, "time_elapsed": 738255, "internal_node_id": "0.0-98.0-5.0"}}, {"uniqueid": "MTK1137:39DD6S19JQI09F6WLZBBNJPVE6RZEP", "current_trial": 140, "dateTime": 1513195401995, "trialdata": {"rt": -1, "stimulus": "<p id=\"stim\">4</p>", "key_press": -1, "trial_type": "single-stim", "trial_index": 140, "time_elapsed": 739257, "internal_node_id": "0.0-98.0-6.0"}}, {"uniqueid": "MTK1137:39DD6S19JQI09F6WLZBBNJPVE6RZEP", "current_trial": 141, "dateTime": 1513195402996, "trialdata": {"rt": -1, "stimulus": "<p id=\"stim\">3</p>", "key_press": -1, "trial_type": "single-stim", "trial_index": 141, "time_elapsed": 740257, "internal_node_id": "0.0-98.0-7.0"}}, {"uniqueid": "MTK1137:39DD6S19JQI09F6WLZBBNJPVE6RZEP", "current_trial": 142, "dateTime": 1513195403997, "trialdata": {"rt": -1, "stimulus": "<p id=\"stim\">2</p>", "key_press": -1, "trial_type": "single-stim", "trial_index": 142, "time_elapsed": 741259, "internal_node_id": "0.0-98.0-8.0"}}, {"uniqueid": "MTK1137:39DD6S19JQI09F6WLZBBNJPVE6RZEP", "current_trial": 143, "dateTime": 1513195404998, "trialdata": {"rt": -1, "stimulus": "<p id=\"stim\">1</p>", "key_press": -1, "trial_type": "single-stim", "trial_index": 143, "time_elapsed": 742260, "internal_node_id": "0.0-98.0-9.0"}}, {"uniqueid": "MTK1137:39DD6S19JQI09F6WLZBBNJPVE6RZEP", "current_trial": 144, "dateTime": 1513195406500, "trialdata": {"rt": -1, "stimulus": "<p id=\"stim\">+</p>", "key_press": -1, "type": "FIXATION", "trial_type": "single-stim", "trial_index": 144, "time_elapsed": 743762, "internal_node_id": "0.0-99.0-0.0"}}, {"uniqueid": "MTK1137:39DD6S19JQI09F6WLZBBNJPVE6RZEP", "current_trial": 145, "dateTime": 1513195408213, "trialdata": {"rt": -1000, "stimulus": "/static/audio/wordpool/STUDENT.wav", "key_press": -1, "type": "PRES_AUD", "word": "student", "wordID": 1394, "conditions": [12, 800, "a", 24000], "trial": 4, "serialpos": 0, "trial_type": "single-audio", "trial_index": 145, "time_elapsed": 745475, "internal_node_id": "0.0-100.0"}}, {"uniqueid": "MTK1137:39DD6S19JQI09F6WLZBBNJPVE6RZEP", "current_trial": 146, "dateTime": 1513195409839, "trialdata": {"rt": -1000, "stimulus": "/static/audio/wordpool/SUITCASE.wav", "key_press": -1, "type": "PRES_AUD", "word": "suitcase", "wordID": 1402, "conditions": [12, 800, "a", 24000], "trial": 4, "serialpos": 1, "trial_type": "single-audio", "trial_index": 146, "time_elapsed": 747101, "internal_node_id": "0.0-101.0"}}, {"uniqueid": "MTK1137:39DD6S19JQI09F6WLZBBNJPVE6RZEP", "current_trial": 147, "dateTime": 1513195411483, "trialdata": {"rt": -1000, "stimulus": "/static/audio/wordpool/ANTLER.wav", "key_press": -1, "type": "PRES_AUD", "word": "antler", "wordID": 28, "conditions": [12, 800, "a", 24000], "trial": 4, "serialpos": 2, "trial_type": "single-audio", "trial_index": 147, "time_elapsed": 748745, "internal_node_id": "0.0-102.0"}}, {"uniqueid": "MTK1137:39DD6S19JQI09F6WLZBBNJPVE6RZEP", "current_trial": 148, "dateTime": 1513195413166, "trialdata": {"rt": -1000, "stimulus": "/static/audio/wordpool/FLOWER.wav", "key_press": -1, "type": "PRES_AUD", "word": "flower", "wordID": 583, "conditions": [12, 800, "a", 24000], "trial": 4, "serialpos": 3, "trial_type": "single-audio", "trial_index": 148, "time_elapsed": 750428, "internal_node_id": "0.0-103.0"}}, {"uniqueid": "MTK1137:39DD6S19JQI09F6WLZBBNJPVE6RZEP", "current_trial": 149, "dateTime": 1513195415002, "trialdata": {"rt": -1000, "stimulus": "/static/audio/wordpool/LUNCH.wav", "key_press": -1, "type": "PRES_AUD", "word": "lunch", "wordID": 848, "conditions": [12, 800, "a", 24000], "trial": 4, "serialpos": 4, "trial_type": "single-audio", "trial_index": 149, "time_elapsed": 752264, "internal_node_id": "0.0-104.0"}}, {"uniqueid": "MTK1137:39DD6S19JQI09F6WLZBBNJPVE6RZEP", "current_trial": 150, "dateTime": 1513195416636, "trialdata": {"rt": -1000, "stimulus": "/static/audio/wordpool/LUGGAGE.wav", "key_press": -1, "type": "PRES_AUD", "word": "luggage", "wordID": 846, "conditions": [12, 800, "a", 24000], "trial": 4, "serialpos": 5, "trial_type": "single-audio", "trial_index": 150, "time_elapsed": 753898, "internal_node_id": "0.0-105.0"}}, {"uniqueid": "MTK1137:39DD6S19JQI09F6WLZBBNJPVE6RZEP", "current_trial": 151, "dateTime": 1513195418361, "trialdata": {"rt": -1000, "stimulus": "/static/audio/wordpool/CHURCH.wav", "key_press": -1, "type": "PRES_AUD", "word": "church", "wordID": 306, "conditions": [12, 800, "a", 24000], "trial": 4, "serialpos": 6, "trial_type": "single-audio", "trial_index": 151, "time_elapsed": 755623, "internal_node_id": "0.0-106.0"}}, {"uniqueid": "MTK1137:39DD6S19JQI09F6WLZBBNJPVE6RZEP", "current_trial": 152, "dateTime": 1513195420010, "trialdata": {"rt": -1000, "stimulus": "/static/audio/wordpool/BRANCH.wav", "key_press": -1, "type": "PRES_AUD", "word": "branch", "wordID": 167, "conditions": [12, 800, "a", 24000], "trial": 4, "serialpos": 7, "trial_type": "single-audio", "trial_index": 152, "time_elapsed": 757272, "internal_node_id": "0.0-107.0"}}, {"uniqueid": "MTK1137:39DD6S19JQI09F6WLZBBNJPVE6RZEP", "current_trial": 153, "dateTime": 1513195421976, "trialdata": {"rt": -1000, "stimulus": "/static/audio/wordpool/PIMPLE.wav", "key_press": -1, "type": "PRES_AUD", "word": "pimple", "wordID": 1070, "conditions": [12, 800, "a", 24000], "trial": 4, "serialpos": 8, "trial_type": "single-audio", "trial_index": 153, "time_elapsed": 759237, "internal_node_id": "0.0-108.0"}}, {"uniqueid": "MTK1137:39DD6S19JQI09F6WLZBBNJPVE6RZEP", "current_trial": 154, "dateTime": 1513195423798, "trialdata": {"rt": -1000, "stimulus": "/static/audio/wordpool/TYPIST.wav", "key_press": -1, "type": "PRES_AUD", "word": "typist", "wordID": 1531, "conditions": [12, 800, "a", 24000], "trial": 4, "serialpos": 9, "trial_type": "single-audio", "trial_index": 154, "time_elapsed": 761060, "internal_node_id": "0.0-109.0"}}, {"uniqueid": "MTK1137:39DD6S19JQI09F6WLZBBNJPVE6RZEP", "current_trial": 155, "dateTime": 1513195425560, "trialdata": {"rt": -1000, "stimulus": "/static/audio/wordpool/MATTRESS.wav", "key_press": -1, "type": "PRES_AUD", "word": "mattress", "wordID": 878, "conditions": [12, 800, "a", 24000], "trial": 4, "serialpos": 10, "trial_type": "single-audio", "trial_index": 155, "time_elapsed": 762821, "internal_node_id": "0.0-110.0"}}, {"uniqueid": "MTK1137:39DD6S19JQI09F6WLZBBNJPVE6RZEP", "current_trial": 156, "dateTime": 1513195427208, "trialdata": {"rt": -1000, "stimulus": "/static/audio/wordpool/COUCH.wav", "key_press": -1, "type": "PRES_AUD", "word": "couch", "wordID": 385, "conditions": [12, 800, "a", 24000], "trial": 4, "serialpos": 11, "trial_type": "single-audio", "trial_index": 156, "time_elapsed": 764470, "internal_node_id": "0.0-111.0"}}, {"uniqueid": "MTK1137:39DD6S19JQI09F6WLZBBNJPVE6RZEP", "current_trial": 157, "dateTime": 1513195428480, "trialdata": {"rt": -1, "stimulus": "", "key_press": -1, "type": "PRE_RECALL_DELAY", "trial_type": "single-stim", "trial_index": 157, "time_elapsed": 765742, "internal_node_id": "0.0-112.0-0.0"}}, {"uniqueid": "MTK1137:39DD6S19JQI09F6WLZBBNJPVE6RZEP", "current_trial": 158, "dateTime": 1513195428982, "trialdata": {"rt": -1000, "stimulus": "/static/audio/400Hz.wav", "key_press": -1, "type": "PRE_RECALL_ALERT", "trial_type": "single-audio", "trial_index": 158, "time_elapsed": 766244, "internal_node_id": "0.0-113.0"}}, {"uniqueid": "MTK1137:39DD6S19JQI09F6WLZBBNJPVE6RZEP", "current_trial": 159, "dateTime": 1513195488984, "trialdata": {"rt": [3600, 5120, 6232, 8384, 21785, 37510, 54506], "recwords": ["typist", "mattress", "couch", "luggage", "student", "cabbage", "bench"], "type": "FREE_RECALL", "conditions": [12, 800, "a", 24000], "trial": 4, "trial_type": "free-recall", "trial_index": 159, "time_elapsed": 826244, "internal_node_id": "0.0-114.0-0.0"}}, {"uniqueid": "MTK1137:39DD6S19JQI09F6WLZBBNJPVE6RZEP", "current_trial": 160, "dateTime": 1513195493118, "trialdata": {"rt": 2132, "key_press": 39, "type": "INSTRUCTIONS", "trial_type": "text", "trial_index": 160, "time_elapsed": 830380, "internal_node_id": "0.0-115.0"}}, {"uniqueid": "MTK1137:39DD6S19JQI09F6WLZBBNJPVE6RZEP", "current_trial": 161, "dateTime": 1513195519119, "trialdata": {"rt": [2041, 3818, 5850, 7322, 9938, 12273, 14002, 17353, 20177, 22697], "responses": ["10", "14", "19", "13", "16", "16", "13", "24", "15", "17"], "num1": [1, 3, 7, 6, 7, 7, 2, 8, 6, 6, 8], "num2": [7, 7, 4, 3, 5, 4, 7, 7, 1, 8, 1], "num3": [2, 4, 8, 4, 4, 5, 4, 9, 8, 3, 4], "type": "DISTRACTOR", "conditions": [24, 1600, "a", 24000], "trial": 5, "trial_type": "math-distractor", "trial_index": 161, "time_elapsed": 856381, "internal_node_id": "0.0-116.0"}}, {"uniqueid": "MTK1137:39DD6S19JQI09F6WLZBBNJPVE6RZEP", "current_trial": 162, "dateTime": 1513195522121, "trialdata": {"rt": -1, "stimulus": "<p id=\"stim\">10</p>", "key_press": -1, "trial_type": "single-stim", "trial_index": 162, "time_elapsed": 859383, "internal_node_id": "0.0-117.0-0.0"}}, {"uniqueid": "MTK1137:39DD6S19JQI09F6WLZBBNJPVE6RZEP", "current_trial": 163, "dateTime": 1513195523123, "trialdata": {"rt": -1, "stimulus": "<p id=\"stim\">9</p>", "key_press": -1, "trial_type": "single-stim", "trial_index": 163, "time_elapsed": 860385, "internal_node_id": "0.0-117.0-1.0"}}, {"uniqueid": "MTK1137:39DD6S19JQI09F6WLZBBNJPVE6RZEP", "current_trial": 164, "dateTime": 1513195524124, "trialdata": {"rt": -1, "stimulus": "<p id=\"stim\">8</p>", "key_press": -1, "trial_type": "single-stim", "trial_index": 164, "time_elapsed": 861386, "internal_node_id": "0.0-117.0-2.0"}}, {"uniqueid": "MTK1137:39DD6S19JQI09F6WLZBBNJPVE6RZEP", "current_trial": 165, "dateTime": 1513195525126, "trialdata": {"rt": -1, "stimulus": "<p id=\"stim\">7</p>", "key_press": -1, "trial_type": "single-stim", "trial_index": 165, "time_elapsed": 862388, "internal_node_id": "0.0-117.0-3.0"}}, {"uniqueid": "MTK1137:39DD6S19JQI09F6WLZBBNJPVE6RZEP", "current_trial": 166, "dateTime": 1513195526127, "trialdata": {"rt": -1, "stimulus": "<p id=\"stim\">6</p>", "key_press": -1, "trial_type": "single-stim", "trial_index": 166, "time_elapsed": 863389, "internal_node_id": "0.0-117.0-4.0"}}, {"uniqueid": "MTK1137:39DD6S19JQI09F6WLZBBNJPVE6RZEP", "current_trial": 167, "dateTime": 1513195527128, "trialdata": {"rt": -1, "stimulus": "<p id=\"stim\">5</p>", "key_press": -1, "trial_type": "single-stim", "trial_index": 167, "time_elapsed": 864390, "internal_node_id": "0.0-117.0-5.0"}}, {"uniqueid": "MTK1137:39DD6S19JQI09F6WLZBBNJPVE6RZEP", "current_trial": 168, "dateTime": 1513195528130, "trialdata": {"rt": -1, "stimulus": "<p id=\"stim\">4</p>", "key_press": -1, "trial_type": "single-stim", "trial_index": 168, "time_elapsed": 865392, "internal_node_id": "0.0-117.0-6.0"}}, {"uniqueid": "MTK1137:39DD6S19JQI09F6WLZBBNJPVE6RZEP", "current_trial": 169, "dateTime": 1513195529131, "trialdata": {"rt": -1, "stimulus": "<p id=\"stim\">3</p>", "key_press": -1, "trial_type": "single-stim", "trial_index": 169, "time_elapsed": 866393, "internal_node_id": "0.0-117.0-7.0"}}, {"uniqueid": "MTK1137:39DD6S19JQI09F6WLZBBNJPVE6RZEP", "current_trial": 170, "dateTime": 1513195530133, "trialdata": {"rt": -1, "stimulus": "<p id=\"stim\">2</p>", "key_press": -1, "trial_type": "single-stim", "trial_index": 170, "time_elapsed": 867394, "internal_node_id": "0.0-117.0-8.0"}}, {"uniqueid": "MTK1137:39DD6S19JQI09F6WLZBBNJPVE6RZEP", "current_trial": 171, "dateTime": 1513195531134, "trialdata": {"rt": -1, "stimulus": "<p id=\"stim\">1</p>", "key_press": -1, "trial_type": "single-stim", "trial_index": 171, "time_elapsed": 868396, "internal_node_id": "0.0-117.0-9.0"}}, {"uniqueid": "MTK1137:39DD6S19JQI09F6WLZBBNJPVE6RZEP", "current_trial": 172, "dateTime": 1513195532635, "trialdata": {"rt": -1, "stimulus": "<p id=\"stim\">+</p>", "key_press": -1, "type": "FIXATION", "trial_type": "single-stim", "trial_index": 172, "time_elapsed": 869896, "internal_node_id": "0.0-118.0-0.0"}}, {"uniqueid": "MTK1137:39DD6S19JQI09F6WLZBBNJPVE6RZEP", "current_trial": 173, "dateTime": 1513195535275, "trialdata": {"rt": -1000, "stimulus": "/static/audio/wordpool/SHOULDER.wav", "key_press": -1, "type": "PRES_AUD", "word": "shoulder", "wordID": 1293, "conditions": [24, 1600, "a", 24000], "trial": 5, "serialpos": 0, "trial_type": "single-audio", "trial_index": 173, "time_elapsed": 872537, "internal_node_id": "0.0-119.0"}}, {"uniqueid": "MTK1137:39DD6S19JQI09F6WLZBBNJPVE6RZEP", "current_trial": 174, "dateTime": 1513195537700, "trialdata": {"rt": -1000, "stimulus": "/static/audio/wordpool/CRATER.wav", "key_press": -1, "type": "PRES_AUD", "word": "crater", "wordID": 399, "conditions": [24, 1600, "a", 24000], "trial": 5, "serialpos": 1, "trial_type": "single-audio", "trial_index": 174, "time_elapsed": 874962, "internal_node_id": "0.0-120.0"}}, {"uniqueid": "MTK1137:39DD6S19JQI09F6WLZBBNJPVE6RZEP", "current_trial": 175, "dateTime": 1513195540329, "trialdata": {"rt": -1000, "stimulus": "/static/audio/wordpool/CLOTHES.wav", "key_press": -1, "type": "PRES_AUD", "word": "clothes", "wordID": 326, "conditions": [24, 1600, "a", 24000], "trial": 5, "serialpos": 2, "trial_type": "single-audio", "trial_index": 175, "time_elapsed": 877591, "internal_node_id": "0.0-121.0"}}, {"uniqueid": "MTK1137:39DD6S19JQI09F6WLZBBNJPVE6RZEP", "current_trial": 176, "dateTime": 1513195543001, "trialdata": {"rt": -1000, "stimulus": "/static/audio/wordpool/BELLY.wav", "key_press": -1, "type": "PRES_AUD", "word": "belly", "wordID": 118, "conditions": [24, 1600, "a", 24000], "trial": 5, "serialpos": 3, "trial_type": "single-audio", "trial_index": 176, "time_elapsed": 880263, "internal_node_id": "0.0-122.0"}}, {"uniqueid": "MTK1137:39DD6S19JQI09F6WLZBBNJPVE6RZEP", "current_trial": 177, "dateTime": 1513195545650, "trialdata": {"rt": -1000, "stimulus": "/static/audio/wordpool/PORTRAIT.wav", "key_press": -1, "type": "PRES_AUD", "word": "portrait", "wordID": 1110, "conditions": [24, 1600, "a", 24000], "trial": 5, "serialpos": 4, "trial_type": "single-audio", "trial_index": 177, "time_elapsed": 882911, "internal_node_id": "0.0-123.0"}}, {"uniqueid": "MTK1137:39DD6S19JQI09F6WLZBBNJPVE6RZEP", "current_trial": 178, "dateTime": 1513195548081, "trialdata": {"rt": -1000, "stimulus": "/static/audio/wordpool/SPOON.wav", "key_press": -1, "type": "PRES_AUD", "word": "spoon", "wordID": 1356, "conditions": [24, 1600, "a", 24000], "trial": 5, "serialpos": 5, "trial_type": "single-audio", "trial_index": 178, "time_elapsed": 885343, "internal_node_id": "0.0-124.0"}}, {"uniqueid": "MTK1137:39DD6S19JQI09F6WLZBBNJPVE6RZEP", "current_trial": 179, "dateTime": 1513195550512, "trialdata": {"rt": -1000, "stimulus": "/static/audio/wordpool/BLOUSE.wav", "key_press": -1, "type": "PRES_AUD", "word": "blouse", "wordID": 138, "conditions": [24, 1600, "a", 24000], "trial": 5, "serialpos": 6, "trial_type": "single-audio", "trial_index": 179, "time_elapsed": 887774, "internal_node_id": "0.0-125.0"}}, {"uniqueid": "MTK1137:39DD6S19JQI09F6WLZBBNJPVE6RZEP", "current_trial": 180, "dateTime": 1513195552994, "trialdata": {"rt": -1000, "stimulus": "/static/audio/wordpool/TROMBONE.wav", "key_press": -1, "type": "PRES_AUD", "word": "trombone", "wordID": 1507, "conditions": [24, 1600, "a", 24000], "trial": 5, "serialpos": 7, "trial_type": "single-audio", "trial_index": 180, "time_elapsed": 890256, "internal_node_id": "0.0-126.0"}}, {"uniqueid": "MTK1137:39DD6S19JQI09F6WLZBBNJPVE6RZEP", "current_trial": 181, "dateTime": 1513195555511, "trialdata": {"rt": -1000, "stimulus": "/static/audio/wordpool/NIGHTGOWN.wav", "key_press": -1, "type": "PRES_AUD", "word": "nightgown", "wordID": 952, "conditions": [24, 1600, "a", 24000], "trial": 5, "serialpos": 8, "trial_type": "single-audio", "trial_index": 181, "time_elapsed": 892773, "internal_node_id": "0.0-127.0"}}, {"uniqueid": "MTK1137:39DD6S19JQI09F6WLZBBNJPVE6RZEP", "current_trial": 182, "dateTime": 1513195558122, "trialdata": {"rt": -1000, "stimulus": "/static/audio/wordpool/SHRUB.wav", "key_press": -1, "type": "PRES_AUD", "word": "shrub", "wordID": 1298, "conditions": [24, 1600, "a", 24000], "trial": 5, "serialpos": 9, "trial_type": "single-audio", "trial_index": 182, "time_elapsed": 895384, "internal_node_id": "0.0-128.0"}}, {"uniqueid": "MTK1137:39DD6S19JQI09F6WLZBBNJPVE6RZEP", "current_trial": 183, "dateTime": 1513195560638, "trialdata": {"rt": -1000, "stimulus": "/static/audio/wordpool/GARDEN.wav", "key_press": -1, "type": "PRES_AUD", "word": "garden", "wordID": 622, "conditions": [24, 1600, "a", 24000], "trial": 5, "serialpos": 10, "trial_type": "single-audio", "trial_index": 183, "time_elapsed": 897900, "internal_node_id": "0.0-129.0"}}, {"uniqueid": "MTK1137:39DD6S19JQI09F6WLZBBNJPVE6RZEP", "current_trial": 184, "dateTime": 1513195563045, "trialdata": {"rt": -1000, "stimulus": "/static/audio/wordpool/STAMP.wav", "key_press": -1, "type": "PRES_AUD", "word": "stamp", "wordID": 1369, "conditions": [24, 1600, "a", 24000], "trial": 5, "serialpos": 11, "trial_type": "single-audio", "trial_index": 184, "time_elapsed": 900307, "internal_node_id": "0.0-130.0"}}, {"uniqueid": "MTK1137:39DD6S19JQI09F6WLZBBNJPVE6RZEP", "current_trial": 185, "dateTime": 1513195565714, "trialdata": {"rt": -1000, "stimulus": "/static/audio/wordpool/LIPSTICK.wav", "key_press": -1, "type": "PRES_AUD", "word": "lipstick", "wordID": 828, "conditions": [24, 1600, "a", 24000], "trial": 5, "serialpos": 12, "trial_type": "single-audio", "trial_index": 185, "time_elapsed": 902976, "internal_node_id": "0.0-131.0"}}, {"uniqueid": "MTK1137:39DD6S19JQI09F6WLZBBNJPVE6RZEP", "current_trial": 186, "dateTime": 1513195568314, "trialdata": {"rt": -1000, "stimulus": "/static/audio/wordpool/OX.wav", "key_press": -1, "type": "PRES_AUD", "word": "ox", "wordID": 993, "conditions": [24, 1600, "a", 24000], "trial": 5, "serialpos": 13, "trial_type": "single-audio", "trial_index": 186, "time_elapsed": 905575, "internal_node_id": "0.0-132.0"}}, {"uniqueid": "MTK1137:39DD6S19JQI09F6WLZBBNJPVE6RZEP", "current_trial": 187, "dateTime": 1513195570807, "trialdata": {"rt": -1000, "stimulus": "/static/audio/wordpool/BROTHER.wav", "key_press": -1, "type": "PRES_AUD", "word": "brother", "wordID": 178, "conditions": [24, 1600, "a", 24000], "trial": 5, "serialpos": 14, "trial_type": "single-audio", "trial_index": 187, "time_elapsed": 908069, "internal_node_id": "0.0-133.0"}}, {"uniqueid": "MTK1137:39DD6S19JQI09F6WLZBBNJPVE6RZEP", "current_trial": 188, "dateTime": 1513195573361, "trialdata": {"rt": -1000, "stimulus": "/static/audio/wordpool/BUGGY.wav", "key_press": -1, "type": "PRES_AUD", "word": "buggy", "wordID": 187, "conditions": [24, 1600, "a", 24000], "trial": 5, "serialpos": 15, "trial_type": "single-audio", "trial_index": 188, "time_elapsed": 910622, "internal_node_id": "0.0-134.0"}}, {"uniqueid": "MTK1137:39DD6S19JQI09F6WLZBBNJPVE6RZEP", "current_trial": 189, "dateTime": 1513195575828, "trialdata": {"rt": -1000, "stimulus": "/static/audio/wordpool/CARROT.wav", "key_press": -1, "type": "PRES_AUD", "word": "carrot", "wordID": 248, "conditions": [24, 1600, "a", 24000], "trial": 5, "serialpos": 16, "trial_type": "single-audio", "trial_index": 189, "time_elapsed": 913089, "internal_node_id": "0.0-135.0"}}, {"uniqueid": "MTK1137:39DD6S19JQI09F6WLZBBNJPVE6RZEP", "current_trial": 190, "dateTime": 1513195578302, "trialdata": {"rt": -1000, "stimulus": "/static/audio/wordpool/LIZARD.wav", "key_press": -1, "type": "PRES_AUD", "word": "lizard", "wordID": 833, "conditions": [24, 1600, "a", 24000], "trial": 5, "serialpos": 17, "trial_type": "single-audio", "trial_index": 190, "time_elapsed": 915564, "internal_node_id": "0.0-136.0"}}, {"uniqueid": "MTK1137:39DD6S19JQI09F6WLZBBNJPVE6RZEP", "current_trial": 191, "dateTime": 1513195580916, "trialdata": {"rt": -1000, "stimulus": "/static/audio/wordpool/HUSBAND.wav", "key_press": -1, "type": "PRES_AUD", "word": "husband", "wordID": 727, "conditions": [24, 1600, "a", 24000], "trial": 5, "serialpos": 18, "trial_type": "single-audio", "trial_index": 191, "time_elapsed": 918178, "internal_node_id": "0.0-137.0"}}, {"uniqueid": "MTK1137:39DD6S19JQI09F6WLZBBNJPVE6RZEP", "current_trial": 192, "dateTime": 1513195583598, "trialdata": {"rt": -1000, "stimulus": "/static/audio/wordpool/EGYPT.wav", "key_press": -1, "type": "PRES_AUD", "word": "egypt", "wordID": 518, "conditions": [24, 1600, "a", 24000], "trial": 5, "serialpos": 19, "trial_type": "single-audio", "trial_index": 192, "time_elapsed": 920860, "internal_node_id": "0.0-138.0"}}, {"uniqueid": "MTK1137:39DD6S19JQI09F6WLZBBNJPVE6RZEP", "current_trial": 193, "dateTime": 1513195586202, "trialdata": {"rt": -1000, "stimulus": "/static/audio/wordpool/FUNGUS.wav", "key_press": -1, "type": "PRES_AUD", "word": "fungus", "wordID": 613, "conditions": [24, 1600, "a", 24000], "trial": 5, "serialpos": 20, "trial_type": "single-audio", "trial_index": 193, "time_elapsed": 923464, "internal_node_id": "0.0-139.0"}}, {"uniqueid": "MTK1137:39DD6S19JQI09F6WLZBBNJPVE6RZEP", "current_trial": 194, "dateTime": 1513195588839, "trialdata": {"rt": -1000, "stimulus": "/static/audio/wordpool/PICNIC.wav", "key_press": -1, "type": "PRES_AUD", "word": "picnic", "wordID": 1059, "conditions": [24, 1600, "a", 24000], "trial": 5, "serialpos": 21, "trial_type": "single-audio", "trial_index": 194, "time_elapsed": 926101, "internal_node_id": "0.0-140.0"}}, {"uniqueid": "MTK1137:39DD6S19JQI09F6WLZBBNJPVE6RZEP", "current_trial": 195, "dateTime": 1513195591489, "trialdata": {"rt": -1000, "stimulus": "/static/audio/wordpool/SUPPER.wav", "key_press": -1, "type": "PRES_AUD", "word": "supper", "wordID": 1410, "conditions": [24, 1600, "a", 24000], "trial": 5, "serialpos": 22, "trial_type": "single-audio", "trial_index": 195, "time_elapsed": 928751, "internal_node_id": "0.0-141.0"}}, {"uniqueid": "MTK1137:39DD6S19JQI09F6WLZBBNJPVE6RZEP", "current_trial": 196, "dateTime": 1513195594005, "trialdata": {"rt": -1000, "stimulus": "/static/audio/wordpool/INMATE.wav", "key_press": -1, "type": "PRES_AUD", "word": "inmate", "wordID": 737, "conditions": [24, 1600, "a", 24000], "trial": 5, "serialpos": 23, "trial_type": "single-audio", "trial_index": 196, "time_elapsed": 931267, "internal_node_id": "0.0-142.0"}}, {"uniqueid": "MTK1137:39DD6S19JQI09F6WLZBBNJPVE6RZEP", "current_trial": 197, "dateTime": 1513195595248, "trialdata": {"rt": -1, "stimulus": "", "key_press": -1, "type": "PRE_RECALL_DELAY", "trial_type": "single-stim", "trial_index": 197, "time_elapsed": 932509, "internal_node_id": "0.0-143.0-0.0"}}, {"uniqueid": "MTK1137:39DD6S19JQI09F6WLZBBNJPVE6RZEP", "current_trial": 198, "dateTime": 1513195595749, "trialdata": {"rt": -1000, "stimulus": "/static/audio/400Hz.wav", "key_press": -1, "type": "PRE_RECALL_ALERT", "trial_type": "single-audio", "trial_index": 198, "time_elapsed": 933010, "internal_node_id": "0.0-144.0"}}, {"uniqueid": "MTK1137:39DD6S19JQI09F6WLZBBNJPVE6RZEP", "current_trial": 199, "dateTime": 1513195655753, "trialdata": {"rt": [3177, 4256, 6000, 6976, 8280, 17936, 45725, 49918, 51013], "recwords": ["inmate", "supper", "brother", "ox", "buggy", "crater", "flower", "garden", "shrub"], "type": "FREE_RECALL", "conditions": [24, 1600, "a", 24000], "trial": 5, "trial_type": "free-recall", "trial_index": 199, "time_elapsed": 993012, "internal_node_id": "0.0-145.0-0.0"}}, {"uniqueid": "MTK1137:39DD6S19JQI09F6WLZBBNJPVE6RZEP", "current_trial": 200, "dateTime": 1513195658876, "trialdata": {"rt": 1122, "key_press": 39, "type": "INSTRUCTIONS", "trial_type": "text", "trial_index": 200, "time_elapsed": 996138, "internal_node_id": "0.0-146.0"}}, {"uniqueid": "MTK1137:39DD6S19JQI09F6WLZBBNJPVE6RZEP", "current_trial": 201, "dateTime": 1513195672879, "trialdata": {"rt": [1926, 4246, 5806, 8269, 10102, 11470], "responses": ["9", "17", "11", "16", "21", "11"], "num1": [2, 8, 4, 4, 5, 1, 7], "num2": [4, 5, 5, 5, 9, 1, 1], "num3": [3, 4, 2, 7, 7, 9, 3], "type": "DISTRACTOR", "conditions": [12, 800, "v", 12000], "trial": 6, "trial_type": "math-distractor", "trial_index": 201, "time_elapsed": 1010140, "internal_node_id": "0.0-147.0"}}, {"uniqueid": "MTK1137:39DD6S19JQI09F6WLZBBNJPVE6RZEP", "current_trial": 202, "dateTime": 1513195675880, "trialdata": {"rt": -1, "stimulus": "<p id=\"stim\">10</p>", "key_press": -1, "trial_type": "single-stim", "trial_index": 202, "time_elapsed": 1013142, "internal_node_id": "0.0-148.0-0.0"}}, {"uniqueid": "MTK1137:39DD6S19JQI09F6WLZBBNJPVE6RZEP", "current_trial": 203, "dateTime": 1513195676881, "trialdata": {"rt": -1, "stimulus": "<p id=\"stim\">9</p>", "key_press": -1, "trial_type": "single-stim", "trial_index": 203, "time_elapsed": 1014143, "internal_node_id": "0.0-148.0-1.0"}}, {"uniqueid": "MTK1137:39DD6S19JQI09F6WLZBBNJPVE6RZEP", "current_trial": 204, "dateTime": 1513195677882, "trialdata": {"rt": -1, "stimulus": "<p id=\"stim\">8</p>", "key_press": -1, "trial_type": "single-stim", "trial_index": 204, "time_elapsed": 1015144, "internal_node_id": "0.0-148.0-2.0"}}, {"uniqueid": "MTK1137:39DD6S19JQI09F6WLZBBNJPVE6RZEP", "current_trial": 205, "dateTime": 1513195678883, "trialdata": {"rt": -1, "stimulus": "<p id=\"stim\">7</p>", "key_press": -1, "trial_type": "single-stim", "trial_index": 205, "time_elapsed": 1016145, "internal_node_id": "0.0-148.0-3.0"}}, {"uniqueid": "MTK1137:39DD6S19JQI09F6WLZBBNJPVE6RZEP", "current_trial": 206, "dateTime": 1513195679884, "trialdata": {"rt": -1, "stimulus": "<p id=\"stim\">6</p>", "key_press": -1, "trial_type": "single-stim", "trial_index": 206, "time_elapsed": 1017146, "internal_node_id": "0.0-148.0-4.0"}}, {"uniqueid": "MTK1137:39DD6S19JQI09F6WLZBBNJPVE6RZEP", "current_trial": 207, "dateTime": 1513195680886, "trialdata": {"rt": -1, "stimulus": "<p id=\"stim\">5</p>", "key_press": -1, "trial_type": "single-stim", "trial_index": 207, "time_elapsed": 1018148, "internal_node_id": "0.0-148.0-5.0"}}, {"uniqueid": "MTK1137:39DD6S19JQI09F6WLZBBNJPVE6RZEP", "current_trial": 208, "dateTime": 1513195681887, "trialdata": {"rt": -1, "stimulus": "<p id=\"stim\">4</p>", "key_press": -1, "trial_type": "single-stim", "trial_index": 208, "time_elapsed": 1019149, "internal_node_id": "0.0-148.0-6.0"}}, {"uniqueid": "MTK1137:39DD6S19JQI09F6WLZBBNJPVE6RZEP", "current_trial": 209, "dateTime": 1513195682889, "trialdata": {"rt": -1, "stimulus": "<p id=\"stim\">3</p>", "key_press": -1, "trial_type": "single-stim", "trial_index": 209, "time_elapsed": 1020151, "internal_node_id": "0.0-148.0-7.0"}}, {"uniqueid": "MTK1137:39DD6S19JQI09F6WLZBBNJPVE6RZEP", "current_trial": 210, "dateTime": 1513195683890, "trialdata": {"rt": -1, "stimulus": "<p id=\"stim\">2</p>", "key_press": -1, "trial_type": "single-stim", "trial_index": 210, "time_elapsed": 1021152, "internal_node_id": "0.0-148.0-8.0"}}, {"uniqueid": "MTK1137:39DD6S19JQI09F6WLZBBNJPVE6RZEP", "current_trial": 211, "dateTime": 1513195684891, "trialdata": {"rt": -1, "stimulus": "<p id=\"stim\">1</p>", "key_press": -1, "trial_type": "single-stim", "trial_index": 211, "time_elapsed": 1022153, "internal_node_id": "0.0-148.0-9.0"}}, {"uniqueid": "MTK1137:39DD6S19JQI09F6WLZBBNJPVE6RZEP", "current_trial": 212, "dateTime": 1513195686392, "trialdata": {"rt": -1, "stimulus": "<p id=\"stim\">+</p>", "key_press": -1, "type": "FIXATION", "trial_type": "single-stim", "trial_index": 212, "time_elapsed": 1023654, "internal_node_id": "0.0-149.0-0.0"}}, {"uniqueid": "MTK1137:39DD6S19JQI09F6WLZBBNJPVE6RZEP", "current_trial": 213, "dateTime": 1513195687194, "trialdata": {"rt": -1, "stimulus": "<p id=\"stim\">COFFEE</p>", "key_press": -1, "type": "PRES_VIS", "word": "coffee", "wordID": 340, "conditions": [12, 800, "v", 12000], "trial": 6, "serialpos": 0, "trial_type": "single-stim", "trial_index": 213, "time_elapsed": 1024455, "internal_node_id": "0.0-150.0"}}, {"uniqueid": "MTK1137:39DD6S19JQI09F6WLZBBNJPVE6RZEP", "current_trial": 214, "dateTime": 1513195688818, "trialdata": {"rt": -1, "stimulus": "<p id=\"stim\">CARRIAGE</p>", "key_press": -1, "type": "PRES_VIS", "word": "carriage", "wordID": 247, "conditions": [12, 800, "v", 12000], "trial": 6, "serialpos": 1, "trial_type": "single-stim", "trial_index": 214, "time_elapsed": 1026079, "internal_node_id": "0.0-151.0"}}, {"uniqueid": "MTK1137:39DD6S19JQI09F6WLZBBNJPVE6RZEP", "current_trial": 215, "dateTime": 1513195690731, "trialdata": {"rt": -1, "stimulus": "<p id=\"stim\">CHEST</p>", "key_press": -1, "type": "PRES_VIS", "word": "chest", "wordID": 294, "conditions": [12, 800, "v", 12000], "trial": 6, "serialpos": 2, "trial_type": "single-stim", "trial_index": 215, "time_elapsed": 1027993, "internal_node_id": "0.0-152.0"}}, {"uniqueid": "MTK1137:39DD6S19JQI09F6WLZBBNJPVE6RZEP", "current_trial": 216, "dateTime": 1513195692622, "trialdata": {"rt": -1, "stimulus": "<p id=\"stim\">LIVER</p>", "key_press": -1, "type": "PRES_VIS", "word": "liver", "wordID": 832, "conditions": [12, 800, "v", 12000], "trial": 6, "serialpos": 3, "trial_type": "single-stim", "trial_index": 216, "time_elapsed": 1029884, "internal_node_id": "0.0-153.0"}}, {"uniqueid": "MTK1137:39DD6S19JQI09F6WLZBBNJPVE6RZEP", "current_trial": 217, "dateTime": 1513195694620, "trialdata": {"rt": -1, "stimulus": "<p id=\"stim\">HOSTESS</p>", "key_press": -1, "type": "PRES_VIS", "word": "hostess", "wordID": 722, "conditions": [12, 800, "v", 12000], "trial": 6, "serialpos": 4, "trial_type": "single-stim", "trial_index": 217, "time_elapsed": 1031881, "internal_node_id": "0.0-154.0"}}, {"uniqueid": "MTK1137:39DD6S19JQI09F6WLZBBNJPVE6RZEP", "current_trial": 218, "dateTime": 1513195696465, "trialdata": {"rt": -1, "stimulus": "<p id=\"stim\">GRAVEL</p>", "key_press": -1, "type": "PRES_VIS", "word": "gravel", "wordID": 658, "conditions": [12, 800, "v", 12000], "trial": 6, "serialpos": 5, "trial_type": "single-stim", "trial_index": 218, "time_elapsed": 1033727, "internal_node_id": "0.0-155.0"}}, {"uniqueid": "MTK1137:39DD6S19JQI09F6WLZBBNJPVE6RZEP", "current_trial": 219, "dateTime": 1513195698125, "trialdata": {"rt": -1, "stimulus": "<p id=\"stim\">FOREST</p>", "key_press": -1, "type": "PRES_VIS", "word": "forest", "wordID": 592, "conditions": [12, 800, "v", 12000], "trial": 6, "serialpos": 6, "trial_type": "single-stim", "trial_index": 219, "time_elapsed": 1035386, "internal_node_id": "0.0-156.0"}}, {"uniqueid": "MTK1137:39DD6S19JQI09F6WLZBBNJPVE6RZEP", "current_trial": 220, "dateTime": 1513195699923, "trialdata": {"rt": -1, "stimulus": "<p id=\"stim\">PERFUME</p>", "key_press": -1, "type": "PRES_VIS", "word": "perfume", "wordID": 1048, "conditions": [12, 800, "v", 12000], "trial": 6, "serialpos": 7, "trial_type": "single-stim", "trial_index": 220, "time_elapsed": 1037184, "internal_node_id": "0.0-157.0"}}, {"uniqueid": "MTK1137:39DD6S19JQI09F6WLZBBNJPVE6RZEP", "current_trial": 221, "dateTime": 1513195701686, "trialdata": {"rt": -1, "stimulus": "<p id=\"stim\">WOMAN</p>", "key_press": -1, "type": "PRES_VIS", "word": "woman", "wordID": 1619, "conditions": [12, 800, "v", 12000], "trial": 6, "serialpos": 8, "trial_type": "single-stim", "trial_index": 221, "time_elapsed": 1038948, "internal_node_id": "0.0-158.0"}}, {"uniqueid": "MTK1137:39DD6S19JQI09F6WLZBBNJPVE6RZEP", "current_trial": 222, "dateTime": 1513195703474, "trialdata": {"rt": -1, "stimulus": "<p id=\"stim\">BARREL</p>", "key_press": -1, "type": "PRES_VIS", "word": "barrel", "wordID": 90, "conditions": [12, 800, "v", 12000], "trial": 6, "serialpos": 9, "trial_type": "single-stim", "trial_index": 222, "time_elapsed": 1040736, "internal_node_id": "0.0-159.0"}}, {"uniqueid": "MTK1137:39DD6S19JQI09F6WLZBBNJPVE6RZEP", "current_trial": 223, "dateTime": 1513195705321, "trialdata": {"rt": -1, "stimulus": "<p id=\"stim\">GALLON</p>", "key_press": -1, "type": "PRES_VIS", "word": "gallon", "wordID": 617, "conditions": [12, 800, "v", 12000], "trial": 6, "serialpos": 10, "trial_type": "single-stim", "trial_index": 223, "time_elapsed": 1042583, "internal_node_id": "0.0-160.0"}}, {"uniqueid": "MTK1137:39DD6S19JQI09F6WLZBBNJPVE6RZEP", "current_trial": 224, "dateTime": 1513195707310, "trialdata": {"rt": -1, "stimulus": "<p id=\"stim\">STOMACH</p>", "key_press": -1, "type": "PRES_VIS", "word": "stomach", "wordID": 1383, "conditions": [12, 800, "v", 12000], "trial": 6, "serialpos": 11, "trial_type": "single-stim", "trial_index": 224, "time_elapsed": 1044572, "internal_node_id": "0.0-161.0"}}, {"uniqueid": "MTK1137:39DD6S19JQI09F6WLZBBNJPVE6RZEP", "current_trial": 225, "dateTime": 1513195709711, "trialdata": {"rt": -1, "stimulus": "", "key_press": -1, "type": "PRE_RECALL_DELAY", "trial_type": "single-stim", "trial_index": 225, "time_elapsed": 1046973, "internal_node_id": "0.0-162.0-0.0"}}, {"uniqueid": "MTK1137:39DD6S19JQI09F6WLZBBNJPVE6RZEP", "current_trial": 226, "dateTime": 1513195710212, "trialdata": {"rt": -1000, "stimulus": "/static/audio/400Hz.wav", "key_press": -1, "type": "PRE_RECALL_ALERT", "trial_type": "single-audio", "trial_index": 226, "time_elapsed": 1047474, "internal_node_id": "0.0-163.0"}}, {"uniqueid": "MTK1137:39DD6S19JQI09F6WLZBBNJPVE6RZEP", "current_trial": 227, "dateTime": 1513195770215, "trialdata": {"rt": [3663, 6335, 8815, 10199, 47756], "recwords": ["stomach", "coffee", "gravel", "carriage", "chair"], "type": "FREE_RECALL", "conditions": [12, 800, "v", 12000], "trial": 6, "trial_type": "free-recall", "trial_index": 227, "time_elapsed": 1107475, "internal_node_id": "0.0-164.0-0.0"}}, {"uniqueid": "MTK1137:39DD6S19JQI09F6WLZBBNJPVE6RZEP", "current_trial": 228, "dateTime": 1513195775227, "trialdata": {"rt": 3010, "key_press": 39, "type": "INSTRUCTIONS", "trial_type": "text", "trial_index": 228, "time_elapsed": 1112488, "internal_node_id": "0.0-165.0"}}, {"uniqueid": "MTK1137:39DD6S19JQI09F6WLZBBNJPVE6RZEP", "current_trial": 229, "dateTime": 1513195789230, "trialdata": {"rt": [2186, 6098, 8066, 9817, 11345], "responses": ["13", "26", "15", "13", "21"], "num1": [5, 9, 3, 5, 7, 6], "num2": [5, 7, 3, 1, 7, 3], "num3": [4, 8, 9, 7, 7, 6], "type": "DISTRACTOR", "conditions": [12, 1600, "v", 12000], "trial": 7, "trial_type": "math-distractor", "trial_index": 229, "time_elapsed": 1126491, "internal_node_id": "0.0-166.0"}}, {"uniqueid": "MTK1137:39DD6S19JQI09F6WLZBBNJPVE6RZEP", "current_trial": 230, "dateTime": 1513195792231, "trialdata": {"rt": -1, "stimulus": "<p id=\"stim\">10</p>", "key_press": -1, "trial_type": "single-stim", "trial_index": 230, "time_elapsed": 1129492, "internal_node_id": "0.0-167.0-0.0"}}, {"uniqueid": "MTK1137:39DD6S19JQI09F6WLZBBNJPVE6RZEP", "current_trial": 231, "dateTime": 1513195793232, "trialdata": {"rt": -1, "stimulus": "<p id=\"stim\">9</p>", "key_press": -1, "trial_type": "single-stim", "trial_index": 231, "time_elapsed": 1130493, "internal_node_id": "0.0-167.0-1.0"}}, {"uniqueid": "MTK1137:39DD6S19JQI09F6WLZBBNJPVE6RZEP", "current_trial": 232, "dateTime": 1513195794233, "trialdata": {"rt": -1, "stimulus": "<p id=\"stim\">8</p>", "key_press": -1, "trial_type": "single-stim", "trial_index": 232, "time_elapsed": 1131495, "internal_node_id": "0.0-167.0-2.0"}}, {"uniqueid": "MTK1137:39DD6S19JQI09F6WLZBBNJPVE6RZEP", "current_trial": 233, "dateTime": 1513195795234, "trialdata": {"rt": -1, "stimulus": "<p id=\"stim\">7</p>", "key_press": -1, "trial_type": "single-stim", "trial_index": 233, "time_elapsed": 1132496, "internal_node_id": "0.0-167.0-3.0"}}, {"uniqueid": "MTK1137:39DD6S19JQI09F6WLZBBNJPVE6RZEP", "current_trial": 234, "dateTime": 1513195796236, "trialdata": {"rt": -1, "stimulus": "<p id=\"stim\">6</p>", "key_press": -1, "trial_type": "single-stim", "trial_index": 234, "time_elapsed": 1133497, "internal_node_id": "0.0-167.0-4.0"}}, {"uniqueid": "MTK1137:39DD6S19JQI09F6WLZBBNJPVE6RZEP", "current_trial": 235, "dateTime": 1513195797237, "trialdata": {"rt": -1, "stimulus": "<p id=\"stim\">5</p>", "key_press": -1, "trial_type": "single-stim", "trial_index": 235, "time_elapsed": 1134499, "internal_node_id": "0.0-167.0-5.0"}}, {"uniqueid": "MTK1137:39DD6S19JQI09F6WLZBBNJPVE6RZEP", "current_trial": 236, "dateTime": 1513195798238, "trialdata": {"rt": -1, "stimulus": "<p id=\"stim\">4</p>", "key_press": -1, "trial_type": "single-stim", "trial_index": 236, "time_elapsed": 1135500, "internal_node_id": "0.0-167.0-6.0"}}, {"uniqueid": "MTK1137:39DD6S19JQI09F6WLZBBNJPVE6RZEP", "current_trial": 237, "dateTime": 1513195799239, "trialdata": {"rt": -1, "stimulus": "<p id=\"stim\">3</p>", "key_press": -1, "trial_type": "single-stim", "trial_index": 237, "time_elapsed": 1136501, "internal_node_id": "0.0-167.0-7.0"}}, {"uniqueid": "MTK1137:39DD6S19JQI09F6WLZBBNJPVE6RZEP", "current_trial": 238, "dateTime": 1513195800241, "trialdata": {"rt": -1, "stimulus": "<p id=\"stim\">2</p>", "key_press": -1, "trial_type": "single-stim", "trial_index": 238, "time_elapsed": 1137503, "internal_node_id": "0.0-167.0-8.0"}}, {"uniqueid": "MTK1137:39DD6S19JQI09F6WLZBBNJPVE6RZEP", "current_trial": 239, "dateTime": 1513195801242, "trialdata": {"rt": -1, "stimulus": "<p id=\"stim\">1</p>", "key_press": -1, "trial_type": "single-stim", "trial_index": 239, "time_elapsed": 1138504, "internal_node_id": "0.0-167.0-9.0"}}, {"uniqueid": "MTK1137:39DD6S19JQI09F6WLZBBNJPVE6RZEP", "current_trial": 240, "dateTime": 1513195802744, "trialdata": {"rt": -1, "stimulus": "<p id=\"stim\">+</p>", "key_press": -1, "type": "FIXATION", "trial_type": "single-stim", "trial_index": 240, "time_elapsed": 1140006, "internal_node_id": "0.0-168.0-0.0"}}, {"uniqueid": "MTK1137:39DD6S19JQI09F6WLZBBNJPVE6RZEP", "current_trial": 241, "dateTime": 1513195804345, "trialdata": {"rt": -1, "stimulus": "<p id=\"stim\">ULCER</p>", "key_press": -1, "type": "PRES_VIS", "word": "ulcer", "wordID": 1532, "conditions": [12, 1600, "v", 12000], "trial": 7, "serialpos": 0, "trial_type": "single-stim", "trial_index": 241, "time_elapsed": 1141607, "internal_node_id": "0.0-169.0"}}, {"uniqueid": "MTK1137:39DD6S19JQI09F6WLZBBNJPVE6RZEP", "current_trial": 242, "dateTime": 1513195807142, "trialdata": {"rt": -1, "stimulus": "<p id=\"stim\">MISTER</p>", "key_press": -1, "type": "PRES_VIS", "word": "mister", "wordID": 900, "conditions": [12, 1600, "v", 12000], "trial": 7, "serialpos": 1, "trial_type": "single-stim", "trial_index": 242, "time_elapsed": 1144403, "internal_node_id": "0.0-170.0"}}, {"uniqueid": "MTK1137:39DD6S19JQI09F6WLZBBNJPVE6RZEP", "current_trial": 243, "dateTime": 1513195809551, "trialdata": {"rt": -1, "stimulus": "<p id=\"stim\">TRACTOR</p>", "key_press": -1, "type": "PRES_VIS", "word": "tractor", "wordID": 1492, "conditions": [12, 1600, "v", 12000], "trial": 7, "serialpos": 2, "trial_type": "single-stim", "trial_index": 243, "time_elapsed": 1146811, "internal_node_id": "0.0-171.0"}}, {"uniqueid": "MTK1137:39DD6S19JQI09F6WLZBBNJPVE6RZEP", "current_trial": 244, "dateTime": 1513195812335, "trialdata": {"rt": -1, "stimulus": "<p id=\"stim\">AGENT</p>", "key_press": -1, "type": "PRES_VIS", "word": "agent", "wordID": 9, "conditions": [12, 1600, "v", 12000], "trial": 7, "serialpos": 3, "trial_type": "single-stim", "trial_index": 244, "time_elapsed": 1149597, "internal_node_id": "0.0-172.0"}}, {"uniqueid": "MTK1137:39DD6S19JQI09F6WLZBBNJPVE6RZEP", "current_trial": 245, "dateTime": 1513195815059, "trialdata": {"rt": -1, "stimulus": "<p id=\"stim\">GRAPE</p>", "key_press": -1, "type": "PRES_VIS", "word": "grape", "wordID": 653, "conditions": [12, 1600, "v", 12000], "trial": 7, "serialpos": 4, "trial_type": "single-stim", "trial_index": 245, "time_elapsed": 1152321, "internal_node_id": "0.0-173.0"}}, {"uniqueid": "MTK1137:39DD6S19JQI09F6WLZBBNJPVE6RZEP", "current_trial": 246, "dateTime": 1513195817568, "trialdata": {"rt": -1, "stimulus": "<p id=\"stim\">APPLE</p>", "key_press": -1, "type": "PRES_VIS", "word": "apple", "wordID": 32, "conditions": [12, 1600, "v", 12000], "trial": 7, "serialpos": 5, "trial_type": "single-stim", "trial_index": 246, "time_elapsed": 1154830, "internal_node_id": "0.0-174.0"}}, {"uniqueid": "MTK1137:39DD6S19JQI09F6WLZBBNJPVE6RZEP", "current_trial": 247, "dateTime": 1513195820203, "trialdata": {"rt": -1, "stimulus": "<p id=\"stim\">BIKE</p>", "key_press": -1, "type": "PRES_VIS", "word": "bike", "wordID": 124, "conditions": [12, 1600, "v", 12000], "trial": 7, "serialpos": 6, "trial_type": "single-stim", "trial_index": 247, "time_elapsed": 1157465, "internal_node_id": "0.0-175.0"}}, {"uniqueid": "MTK1137:39DD6S19JQI09F6WLZBBNJPVE6RZEP", "current_trial": 248, "dateTime": 1513195822711, "trialdata": {"rt": -1, "stimulus": "<p id=\"stim\">PASSAGE</p>", "key_press": -1, "type": "PRES_VIS", "word": "passage", "wordID": 1018, "conditions": [12, 1600, "v", 12000], "trial": 7, "serialpos": 7, "trial_type": "single-stim", "trial_index": 248, "time_elapsed": 1159973, "internal_node_id": "0.0-176.0"}}, {"uniqueid": "MTK1137:39DD6S19JQI09F6WLZBBNJPVE6RZEP", "current_trial": 249, "dateTime": 1513195825345, "trialdata": {"rt": -1, "stimulus": "<p id=\"stim\">MARROW</p>", "key_press": -1, "type": "PRES_VIS", "word": "marrow", "wordID": 871, "conditions": [12, 1600, "v", 12000], "trial": 7, "serialpos": 8, "trial_type": "single-stim", "trial_index": 249, "time_elapsed": 1162607, "internal_node_id": "0.0-177.0"}}, {"uniqueid": "MTK1137:39DD6S19JQI09F6WLZBBNJPVE6RZEP", "current_trial": 250, "dateTime": 1513195827894, "trialdata": {"rt": -1, "stimulus": "<p id=\"stim\">TART</p>", "key_press": -1, "type": "PRES_VIS", "word": "tart", "wordID": 1435, "conditions": [12, 1600, "v", 12000], "trial": 7, "serialpos": 9, "trial_type": "single-stim", "trial_index": 250, "time_elapsed": 1165156, "internal_node_id": "0.0-178.0"}}, {"uniqueid": "MTK1137:39DD6S19JQI09F6WLZBBNJPVE6RZEP", "current_trial": 251, "dateTime": 1513195830629, "trialdata": {"rt": -1, "stimulus": "<p id=\"stim\">WAGON</p>", "key_press": -1, "type": "PRES_VIS", "word": "wagon", "wordID": 1577, "conditions": [12, 1600, "v", 12000], "trial": 7, "serialpos": 10, "trial_type": "single-stim", "trial_index": 251, "time_elapsed": 1167890, "internal_node_id": "0.0-179.0"}}, {"uniqueid": "MTK1137:39DD6S19JQI09F6WLZBBNJPVE6RZEP", "current_trial": 252, "dateTime": 1513195833043, "trialdata": {"rt": -1, "stimulus": "<p id=\"stim\">GHETTO</p>", "key_press": -1, "type": "PRES_VIS", "word": "ghetto", "wordID": 632, "conditions": [12, 1600, "v", 12000], "trial": 7, "serialpos": 11, "trial_type": "single-stim", "trial_index": 252, "time_elapsed": 1170304, "internal_node_id": "0.0-180.0"}}, {"uniqueid": "MTK1137:39DD6S19JQI09F6WLZBBNJPVE6RZEP", "current_trial": 253, "dateTime": 1513195835261, "trialdata": {"rt": -1, "stimulus": "", "key_press": -1, "type": "PRE_RECALL_DELAY", "trial_type": "single-stim", "trial_index": 253, "time_elapsed": 1172523, "internal_node_id": "0.0-181.0-0.0"}}, {"uniqueid": "MTK1137:39DD6S19JQI09F6WLZBBNJPVE6RZEP", "current_trial": 254, "dateTime": 1513195835762, "trialdata": {"rt": -1000, "stimulus": "/static/audio/400Hz.wav", "key_press": -1, "type": "PRE_RECALL_ALERT", "trial_type": "single-audio", "trial_index": 254, "time_elapsed": 1173024, "internal_node_id": "0.0-182.0"}}, {"uniqueid": "MTK1137:39DD6S19JQI09F6WLZBBNJPVE6RZEP", "current_trial": 255, "dateTime": 1513195895766, "trialdata": {"rt": [1850, 3058, 4234, 5322, 6274, 14273], "recwords": ["ghettow", "marrow", "tart", "apple", "grape", "bike"], "type": "FREE_RECALL", "conditions": [12, 1600, "v", 12000], "trial": 7, "trial_type": "free-recall", "trial_index": 255, "time_elapsed": 1233025, "internal_node_id": "0.0-183.0-0.0"}}, {"uniqueid": "MTK1137:39DD6S19JQI09F6WLZBBNJPVE6RZEP", "current_trial": 256, "dateTime": 1513195900840, "trialdata": {"rt": 3072, "key_press": 39, "type": "INSTRUCTIONS", "trial_type": "text", "trial_index": 256, "time_elapsed": 1238102, "internal_node_id": "0.0-184.0"}}, {"uniqueid": "MTK1137:39DD6S19JQI09F6WLZBBNJPVE6RZEP", "current_trial": 257, "dateTime": 1513195914843, "trialdata": {"rt": [2367, 4414, 5990, 7807, 9718, 11678], "responses": ["9", "14", "12", "13", "16", "14"], "num1": [1, 9, 9, 8, 5, 2, 3], "num2": [7, 2, 2, 3, 6, 7, 2], "num3": [1, 3, 1, 2, 5, 5, 8], "type": "DISTRACTOR", "conditions": [24, 1600, "v", 12000], "trial": 8, "trial_type": "math-distractor", "trial_index": 257, "time_elapsed": 1252105, "internal_node_id": "0.0-185.0"}}, {"uniqueid": "MTK1137:39DD6S19JQI09F6WLZBBNJPVE6RZEP", "current_trial": 258, "dateTime": 1513195917845, "trialdata": {"rt": -1, "stimulus": "<p id=\"stim\">10</p>", "key_press": -1, "trial_type": "single-stim", "trial_index": 258, "time_elapsed": 1255107, "internal_node_id": "0.0-186.0-0.0"}}, {"uniqueid": "MTK1137:39DD6S19JQI09F6WLZBBNJPVE6RZEP", "current_trial": 259, "dateTime": 1513195918847, "trialdata": {"rt": -1, "stimulus": "<p id=\"stim\">9</p>", "key_press": -1, "trial_type": "single-stim", "trial_index": 259, "time_elapsed": 1256109, "internal_node_id": "0.0-186.0-1.0"}}, {"uniqueid": "MTK1137:39DD6S19JQI09F6WLZBBNJPVE6RZEP", "current_trial": 260, "dateTime": 1513195919849, "trialdata": {"rt": -1, "stimulus": "<p id=\"stim\">8</p>", "key_press": -1, "trial_type": "single-stim", "trial_index": 260, "time_elapsed": 1257111, "internal_node_id": "0.0-186.0-2.0"}}, {"uniqueid": "MTK1137:39DD6S19JQI09F6WLZBBNJPVE6RZEP", "current_trial": 261, "dateTime": 1513195920850, "trialdata": {"rt": -1, "stimulus": "<p id=\"stim\">7</p>", "key_press": -1, "trial_type": "single-stim", "trial_index": 261, "time_elapsed": 1258112, "internal_node_id": "0.0-186.0-3.0"}}, {"uniqueid": "MTK1137:39DD6S19JQI09F6WLZBBNJPVE6RZEP", "current_trial": 262, "dateTime": 1513195921851, "trialdata": {"rt": -1, "stimulus": "<p id=\"stim\">6</p>", "key_press": -1, "trial_type": "single-stim", "trial_index": 262, "time_elapsed": 1259113, "internal_node_id": "0.0-186.0-4.0"}}, {"uniqueid": "MTK1137:39DD6S19JQI09F6WLZBBNJPVE6RZEP", "current_trial": 263, "dateTime": 1513195922853, "trialdata": {"rt": -1, "stimulus": "<p id=\"stim\">5</p>", "key_press": -1, "trial_type": "single-stim", "trial_index": 263, "time_elapsed": 1260114, "internal_node_id": "0.0-186.0-5.0"}}, {"uniqueid": "MTK1137:39DD6S19JQI09F6WLZBBNJPVE6RZEP", "current_trial": 264, "dateTime": 1513195923854, "trialdata": {"rt": -1, "stimulus": "<p id=\"stim\">4</p>", "key_press": -1, "trial_type": "single-stim", "trial_index": 264, "time_elapsed": 1261116, "internal_node_id": "0.0-186.0-6.0"}}, {"uniqueid": "MTK1137:39DD6S19JQI09F6WLZBBNJPVE6RZEP", "current_trial": 265, "dateTime": 1513195924855, "trialdata": {"rt": -1, "stimulus": "<p id=\"stim\">3</p>", "key_press": -1, "trial_type": "single-stim", "trial_index": 265, "time_elapsed": 1262117, "internal_node_id": "0.0-186.0-7.0"}}, {"uniqueid": "MTK1137:39DD6S19JQI09F6WLZBBNJPVE6RZEP", "current_trial": 266, "dateTime": 1513195925857, "trialdata": {"rt": -1, "stimulus": "<p id=\"stim\">2</p>", "key_press": -1, "trial_type": "single-stim", "trial_index": 266, "time_elapsed": 1263118, "internal_node_id": "0.0-186.0-8.0"}}, {"uniqueid": "MTK1137:39DD6S19JQI09F6WLZBBNJPVE6RZEP", "current_trial": 267, "dateTime": 1513195926858, "trialdata": {"rt": -1, "stimulus": "<p id=\"stim\">1</p>", "key_press": -1, "trial_type": "single-stim", "trial_index": 267, "time_elapsed": 1264120, "internal_node_id": "0.0-186.0-9.0"}}, {"uniqueid": "MTK1137:39DD6S19JQI09F6WLZBBNJPVE6RZEP", "current_trial": 268, "dateTime": 1513195928359, "trialdata": {"rt": -1, "stimulus": "<p id=\"stim\">+</p>", "key_press": -1, "type": "FIXATION", "trial_type": "single-stim", "trial_index": 268, "time_elapsed": 1265621, "internal_node_id": "0.0-187.0-0.0"}}, {"uniqueid": "MTK1137:39DD6S19JQI09F6WLZBBNJPVE6RZEP", "current_trial": 269, "dateTime": 1513195929961, "trialdata": {"rt": -1, "stimulus": "<p id=\"stim\">COLLEGE</p>", "key_press": -1, "type": "PRES_VIS", "word": "college", "wordID": 345, "conditions": [24, 1600, "v", 12000], "trial": 8, "serialpos": 0, "trial_type": "single-stim", "trial_index": 269, "time_elapsed": 1267222, "internal_node_id": "0.0-188.0"}}, {"uniqueid": "MTK1137:39DD6S19JQI09F6WLZBBNJPVE6RZEP", "current_trial": 270, "dateTime": 1513195932510, "trialdata": {"rt": -1, "stimulus": "<p id=\"stim\">DONOR</p>", "key_press": -1, "type": "PRES_VIS", "word": "donor", "wordID": 484, "conditions": [24, 1600, "v", 12000], "trial": 8, "serialpos": 1, "trial_type": "single-stim", "trial_index": 270, "time_elapsed": 1269772, "internal_node_id": "0.0-189.0"}}, {"uniqueid": "MTK1137:39DD6S19JQI09F6WLZBBNJPVE6RZEP", "current_trial": 271, "dateTime": 1513195935211, "trialdata": {"rt": -1, "stimulus": "<p id=\"stim\">PASTA</p>", "key_press": -1, "type": "PRES_VIS", "word": "pasta", "wordID": 1020, "conditions": [24, 1600, "v", 12000], "trial": 8, "serialpos": 2, "trial_type": "single-stim", "trial_index": 271, "time_elapsed": 1272473, "internal_node_id": "0.0-190.0"}}, {"uniqueid": "MTK1137:39DD6S19JQI09F6WLZBBNJPVE6RZEP", "current_trial": 272, "dateTime": 1513195937771, "trialdata": {"rt": -1, "stimulus": "<p id=\"stim\">BRIEFCASE</p>", "key_press": -1, "type": "PRES_VIS", "word": "briefcase", "wordID": 174, "conditions": [24, 1600, "v", 12000], "trial": 8, "serialpos": 3, "trial_type": "single-stim", "trial_index": 272, "time_elapsed": 1275033, "internal_node_id": "0.0-191.0"}}, {"uniqueid": "MTK1137:39DD6S19JQI09F6WLZBBNJPVE6RZEP", "current_trial": 273, "dateTime": 1513195940427, "trialdata": {"rt": -1, "stimulus": "<p id=\"stim\">POCKET</p>", "key_press": -1, "type": "PRES_VIS", "word": "pocket", "wordID": 1092, "conditions": [24, 1600, "v", 12000], "trial": 8, "serialpos": 4, "trial_type": "single-stim", "trial_index": 273, "time_elapsed": 1277688, "internal_node_id": "0.0-192.0"}}, {"uniqueid": "MTK1137:39DD6S19JQI09F6WLZBBNJPVE6RZEP", "current_trial": 274, "dateTime": 1513195942906, "trialdata": {"rt": -1, "stimulus": "<p id=\"stim\">OMELET</p>", "key_press": -1, "type": "PRES_VIS", "word": "omelet", "wordID": 975, "conditions": [24, 1600, "v", 12000], "trial": 8, "serialpos": 5, "trial_type": "single-stim", "trial_index": 274, "time_elapsed": 