{"assignmentId": "37TD41K0AIGOB504UGB812SP88ACSO", "workerId": "MTK1314", "questiondata": {"origin": "Korea, Republic of", "strat-rehearsal": "74", "marital": "Married/Domestic Partnership", "education": "Some college", "ethnicity": "Not Hispanic", "color_depth": 24, "distracted": "No", "wrote-notes": "No", "strat-other": "n/a", "screen_width": 1440, "avail_screen_width": 1440, "avail_screen_height": 811, "strat-image": "38", "language": "English", "gender": "Female", "age": "36", "gender_other": "", "race": ["Asian"], "strat-categorize": "86", "pixel_depth": 24, "strat-spatial": "0", "strat-story": "0", "race_other": "", "screen_height": 900}, "bonus": 0, "hitId": "3OPLMF3EU5UIBC4B9VIJG7CMYX5LNS", "counterbalance": 2083, "useragent": "Mozilla/5.0 (Macintosh; Intel Mac OS X 10_13_2) AppleWebKit/537.36 (KHTML, like Gecko) Chrome/63.0.3239.132 Safari/537.36", "eventdata": [{"eventtype": "initialized", "interval": 0, "value": null, "timestamp": 1515713508277}, {"eventtype": "window_resize", "interval": 0, "value": [1440, 760], "timestamp": 1515713508277}, {"eventtype": "focus", "interval": 12384, "value": "off", "timestamp": 1515713520661}, {"eventtype": "focus", "interval": 7070, "value": "on", "timestamp": 1515713527731}, {"eventtype": "focus", "interval": 94526, "value": "off", "timestamp": 1515713622257}, {"eventtype": "focus", "interval": 3047, "value": "on", "timestamp": 1515713625304}, {"eventtype": "focus", "interval": 1273, "value": "off", "timestamp": 1515713626577}, {"eventtype": "focus", "interval": 8938, "value": "on", "timestamp": 1515713635515}], "data": [{"current_trial": 0, "trialdata": {"rt": 2384, "trial_type": "text", "internal_node_id": "0.0-0.0", "time_elapsed": 2387, "key_press": 32, "type": "INSTRUCTIONS", "trial_index": 0}, "uniqueid": "MTK1314:37TD41K0AIGOB504UGB812SP88ACSO", "dateTime": 1515713546910}, {"current_trial": 1, "trialdata": {"rt": 18392, "trial_type": "text", "internal_node_id": "0.0-1.0", "time_elapsed": 20783, "key_press": 32, "type": "INSTRUCTIONS", "trial_index": 1}, "uniqueid": "MTK1314:37TD41K0AIGOB504UGB812SP88ACSO", "dateTime": 1515713565304}, {"current_trial": 2, "trialdata": {"rt": [9461], "trial_type": "audio-test", "responses": ["ocean"], "internal_node_id": "0.0-2.0", "time_elapsed": 30256, "type": "AUDIO_TEST", "trial_index": 2}, "uniqueid": "MTK1314:37TD41K0AIGOB504UGB812SP88ACSO", "dateTime": 1515713574777}, {"current_trial": 3, "trialdata": {"rt": [9238], "trial_type": "audio-test", "responses": ["crystal"], "internal_node_id": "0.0-3.0", "time_elapsed": 39500, "type": "AUDIO_TEST", "trial_index": 3}, "uniqueid": "MTK1314:37TD41K0AIGOB504UGB812SP88ACSO", "dateTime": 1515713584021}, {"current_trial": 4, "trialdata": {"rt": [5578], "trial_type": "audio-test", "responses": ["spice"], "internal_node_id": "0.0-4.0", "time_elapsed": 45083, "type": "AUDIO_TEST", "trial_index": 4}, "uniqueid": "MTK1314:37TD41K0AIGOB504UGB812SP88ACSO", "dateTime": 1515713589604}, {"current_trial": 5, "trialdata": {"rt": 17406, "trial_type": "survey-text", "responses": "{\"Q0\":\"9:30pm\",\"Q1\":\"6am\",\"Q2\":\"4\"}", "internal_node_id": "0.0-5.0", "time_elapsed": 63243, "type": "SLEEP_SURVEY", "trial_index": 5}, "uniqueid": "MTK1314:37TD41K0AIGOB504UGB812SP88ACSO", "dateTime": 1515713607764}, {"current_trial": 6, "trialdata": {"rt": 59680, "trial_type": "text", "internal_node_id": "0.0-6.0", "time_elapsed": 123926, "key_press": 32, "type": "INSTRUCTIONS", "trial_index": 6}, "uniqueid": "MTK1314:37TD41K0AIGOB504UGB812SP88ACSO", "dateTime": 1515713668447}, {"current_trial": 7, "trialdata": {"rt": 17491, "trial_type": "text", "internal_node_id": "0.0-7.0", "time_elapsed": 141919, "key_press": 32, "type": "INSTRUCTIONS", "trial_index": 7}, "uniqueid": "MTK1314:37TD41K0AIGOB504UGB812SP88ACSO", "dateTime": 1515713686440}, {"current_trial": 8, "trialdata": {"rt": 17833, "trial_type": "text", "internal_node_id": "0.0-8.0", "time_elapsed": 160255, "key_press": 32, "type": "INSTRUCTIONS", "trial_index": 8}, "uniqueid": "MTK1314:37TD41K0AIGOB504UGB812SP88ACSO", "dateTime": 1515713704776}, {"current_trial": 9, "trialdata": {"rt": [3488, 5312, 7560, 9998, 12400, 15630], "trial_type": "math-distractor", "key_times": [2626, 2669, 3488, 4733, 4892, 5312, 7208, 7319, 7560, 9736, 9830, 9998, 12028, 12088, 12400, 15297, 15476, 15630], "responses": ["19", "11", "17", "21", "16", "11"], "num2": [3, 1, 4, 9, 6, 3, 6], "num3": [9, 5, 6, 3, 8, 5, 8], "conditions": [18, 1200, "a", 18000], "internal_node_id": "0.0-9.0", "key_presses": [49, 57, 13, 49, 49, 13, 49, 55, 13, 50, 49, 13, 49, 54, 13, 49, 49, 13], "trial": 0, "time_elapsed": 179272, "type": "DISTRACTOR", "trial_index": 9, "num1": [7, 5, 7, 9, 2, 3, 3]}, "uniqueid": "MTK1314:37TD41K0AIGOB504UGB812SP88ACSO", "dateTime": 1515713723793}, {"current_trial": 10, "trialdata": {"rt": -1, "trial_type": "single-stim", "stimulus": "<p id=\"stim\">10</p>", "internal_node_id": "0.0-10.0-0.0", "time_elapsed": 182279, "key_press": -1, "trial_index": 10}, "uniqueid": "MTK1314:37TD41K0AIGOB504UGB812SP88ACSO", "dateTime": 1515713726800}, {"current_trial": 11, "trialdata": {"rt": -1, "trial_type": "single-stim", "stimulus": "<p id=\"stim\">9</p>", "internal_node_id": "0.0-10.0-1.0", "time_elapsed": 183284, "key_press": -1, "trial_index": 11}, "uniqueid": "MTK1314:37TD41K0AIGOB504UGB812SP88ACSO", "dateTime": 1515713727805}, {"current_trial": 12, "trialdata": {"rt": -1, "trial_type": "single-stim", "stimulus": "<p id=\"stim\">8</p>", "internal_node_id": "0.0-10.0-2.0", "time_elapsed": 184287, "key_press": -1, "trial_index": 12}, "uniqueid": "MTK1314:37TD41K0AIGOB504UGB812SP88ACSO", "dateTime": 1515713728808}, {"current_trial": 13, "trialdata": {"rt": -1, "trial_type": "single-stim", "stimulus": "<p id=\"stim\">7</p>", "internal_node_id": "0.0-10.0-3.0", "time_elapsed": 185291, "key_press": -1, "trial_index": 13}, "uniqueid": "MTK1314:37TD41K0AIGOB504UGB812SP88ACSO", "dateTime": 1515713729812}, {"current_trial": 14, "trialdata": {"rt": -1, "trial_type": "single-stim", "stimulus": "<p id=\"stim\">6</p>", "internal_node_id": "0.0-10.0-4.0", "time_elapsed": 186295, "key_press": -1, "trial_index": 14}, "uniqueid": "MTK1314:37TD41K0AIGOB504UGB812SP88ACSO", "dateTime": 1515713730816}, {"current_trial": 15, "trialdata": {"rt": -1, "trial_type": "single-stim", "stimulus": "<p id=\"stim\">5</p>", "internal_node_id": "0.0-10.0-5.0", "time_elapsed": 187299, "key_press": -1, "trial_index": 15}, "uniqueid": "MTK1314:37TD41K0AIGOB504UGB812SP88ACSO", "dateTime": 1515713731820}, {"current_trial": 16, "trialdata": {"rt": -1, "trial_type": "single-stim", "stimulus": "<p id=\"stim\">4</p>", "internal_node_id": "0.0-10.0-6.0", "time_elapsed": 188304, "key_press": -1, "trial_index": 16}, "uniqueid": "MTK1314:37TD41K0AIGOB504UGB812SP88ACSO", "dateTime": 1515713732825}, {"current_trial": 17, "trialdata": {"rt": -1, "trial_type": "single-stim", "stimulus": "<p id=\"stim\">3</p>", "internal_node_id": "0.0-10.0-7.0", "time_elapsed": 189308, "key_press": -1, "trial_index": 17}, "uniqueid": "MTK1314:37TD41K0AIGOB504UGB812SP88ACSO", "dateTime": 1515713733829}, {"current_trial": 18, "trialdata": {"rt": -1, "trial_type": "single-stim", "stimulus": "<p id=\"stim\">2</p>", "internal_node_id": "0.0-10.0-8.0", "time_elapsed": 190312, "key_press": -1, "trial_index": 18}, "uniqueid": "MTK1314:37TD41K0AIGOB504UGB812SP88ACSO", "dateTime": 1515713734833}, {"current_trial": 19, "trialdata": {"rt": -1, "trial_type": "single-stim", "stimulus": "<p id=\"stim\">1</p>", "internal_node_id": "0.0-10.0-9.0", "time_elapsed": 191316, "key_press": -1, "trial_index": 19}, "uniqueid": "MTK1314:37TD41K0AIGOB504UGB812SP88ACSO", "dateTime": 1515713735837}, {"current_trial": 20, "trialdata": {"rt": -1, "trial_type": "single-stim", "stimulus": "<p id=\"stim\">+</p>", "internal_node_id": "0.0-11.0-0.0", "time_elapsed": 192819, "key_press": -1, "type": "FIXATION", "trial_index": 20}, "uniqueid": "MTK1314:37TD41K0AIGOB504UGB812SP88ACSO", "dateTime": 1515713737340}, {"current_trial": 21, "trialdata": {"rt": -1000, "trial_type": "single-audio", "word": "bug", "stimulus": "/static/audio/wordpool/BUG.wav", "conditions": [18, 1200, "a", 18000], "internal_node_id": "0.0-12.0", "trial": 0, "time_elapsed": 194985, "serialpos": 0, "key_press": -1, "wordID": 186, "type": "PRES_AUD", "trial_index": 21}, "uniqueid": "MTK1314:37TD41K0AIGOB504UGB812SP88ACSO", "dateTime": 1515713739506}, {"current_trial": 22, "trialdata": {"rt": -1000, "trial_type": "single-audio", "word": "marine", "stimulus": "/static/audio/wordpool/MARINE.wav", "conditions": [18, 1200, "a", 18000], "internal_node_id": "0.0-13.0", "trial": 0, "time_elapsed": 197295, "serialpos": 1, "key_press": -1, "wordID": 868, "type": "PRES_AUD", "trial_index": 22}, "uniqueid": "MTK1314:37TD41K0AIGOB504UGB812SP88ACSO", "dateTime": 1515713741816}, {"current_trial": 23, "trialdata": {"rt": -1000, "trial_type": "single-audio", "word": "cabbage", "stimulus": "/static/audio/wordpool/CABBAGE.wav", "conditions": [18, 1200, "a", 18000], "internal_node_id": "0.0-14.0", "trial": 0, "time_elapsed": 199333, "serialpos": 2, "key_press": -1, "wordID": 209, "type": "PRES_AUD", "trial_index": 23}, "uniqueid": "MTK1314:37TD41K0AIGOB504UGB812SP88ACSO", "dateTime": 1515713743854}, {"current_trial": 24, "trialdata": {"rt": -1000, "trial_type": "single-audio", "word": "cyclone", "stimulus": "/static/audio/wordpool/CYCLONE.wav", "conditions": [18, 1200, "a", 18000], "internal_node_id": "0.0-15.0", "trial": 0, "time_elapsed": 201370, "serialpos": 3, "key_press": -1, "wordID": 430, "type": "PRES_AUD", "trial_index": 24}, "uniqueid": "MTK1314:37TD41K0AIGOB504UGB812SP88ACSO", "dateTime": 1515713745891}, {"current_trial": 25, "trialdata": {"rt": -1000, "trial_type": "single-audio", "word": "ozone", "stimulus": "/static/audio/wordpool/OZONE.wav", "conditions": [18, 1200, "a", 18000], "internal_node_id": "0.0-16.0", "trial": 0, "time_elapsed": 203588, "serialpos": 4, "key_press": -1, "wordID": 995, "type": "PRES_AUD", "trial_index": 25}, "uniqueid": "MTK1314:37TD41K0AIGOB504UGB812SP88ACSO", "dateTime": 1515713748109}, {"current_trial": 26, "trialdata": {"rt": -1000, "trial_type": "single-audio", "word": "whiskers", "stimulus": "/static/audio/wordpool/WHISKERS.wav", "conditions": [18, 1200, "a", 18000], "internal_node_id": "0.0-17.0", "trial": 0, "time_elapsed": 205983, "serialpos": 5, "key_press": -1, "wordID": 1604, "type": "PRES_AUD", "trial_index": 26}, "uniqueid": "MTK1314:37TD41K0AIGOB504UGB812SP88ACSO", "dateTime": 1515713750504}, {"current_trial": 27, "trialdata": {"rt": -1000, "trial_type": "single-audio", "word": "dashboard", "stimulus": "/static/audio/wordpool/DASHBOARD.wav", "conditions": [18, 1200, "a", 18000], "internal_node_id": "0.0-18.0", "trial": 0, "time_elapsed": 208093, "serialpos": 6, "key_press": -1, "wordID": 440, "type": "PRES_AUD", "trial_index": 27}, "uniqueid": "MTK1314:37TD41K0AIGOB504UGB812SP88ACSO", "dateTime": 1515713752614}, {"current_trial": 28, "trialdata": {"rt": -1000, "trial_type": "single-audio", "word": "flower", "stimulus": "/static/audio/wordpool/FLOWER.wav", "conditions": [18, 1200, "a", 18000], "internal_node_id": "0.0-19.0", "trial": 0, "time_elapsed": 210223, "serialpos": 7, "key_press": -1, "wordID": 583, "type": "PRES_AUD", "trial_index": 28}, "uniqueid": "MTK1314:37TD41K0AIGOB504UGB812SP88ACSO", "dateTime": 1515713754744}, {"current_trial": 29, "trialdata": {"rt": -1000, "trial_type": "single-audio", "word": "stream", "stimulus": "/static/audio/wordpool/STREAM.wav", "conditions": [18, 1200, "a", 18000], "internal_node_id": "0.0-20.0", "trial": 0, "time_elapsed": 212454, "serialpos": 8, "key_press": -1, "wordID": 1391, "type": "PRES_AUD", "trial_index": 29}, "uniqueid": "MTK1314:37TD41K0AIGOB504UGB812SP88ACSO", "dateTime": 1515713756975}, {"current_trial": 30, "trialdata": {"rt": -1000, "trial_type": "single-audio", "word": "keeper", "stimulus": "/static/audio/wordpool/KEEPER.wav", "conditions": [18, 1200, "a", 18000], "internal_node_id": "0.0-21.0", "trial": 0, "time_elapsed": 214745, "serialpos": 9, "key_press": -1, "wordID": 768, "type": "PRES_AUD", "trial_index": 30}, "uniqueid": "MTK1314:37TD41K0AIGOB504UGB812SP88ACSO", "dateTime": 1515713759266}, {"current_trial": 31, "trialdata": {"rt": -1000, "trial_type": "single-audio", "word": "lipstick", "stimulus": "/static/audio/wordpool/LIPSTICK.wav", "conditions": [18, 1200, "a", 18000], "internal_node_id": "0.0-22.0", "trial": 0, "time_elapsed": 216876, "serialpos": 10, "key_press": -1, "wordID": 828, "type": "PRES_AUD", "trial_index": 31}, "uniqueid": "MTK1314:37TD41K0AIGOB504UGB812SP88ACSO", "dateTime": 1515713761397}, {"current_trial": 32, "trialdata": {"rt": -1000, "trial_type": "single-audio", "word": "mister", "stimulus": "/static/audio/wordpool/MISTER.wav", "conditions": [18, 1200, "a", 18000], "internal_node_id": "0.0-23.0", "trial": 0, "time_elapsed": 219078, "serialpos": 11, "key_press": -1, "wordID": 900, "type": "PRES_AUD", "trial_index": 32}, "uniqueid": "MTK1314:37TD41K0AIGOB504UGB812SP88ACSO", "dateTime": 1515713763599}, {"current_trial": 33, "trialdata": {"rt": -1000, "trial_type": "single-audio", "word": "woman", "stimulus": "/static/audio/wordpool/WOMAN.wav", "conditions": [18, 1200, "a", 18000], "internal_node_id": "0.0-24.0", "trial": 0, "time_elapsed": 221427, "serialpos": 12, "key_press": -1, "wordID": 1619, "type": "PRES_AUD", "trial_index": 33}, "uniqueid": "MTK1314:37TD41K0AIGOB504UGB812SP88ACSO", "dateTime": 1515713765949}, {"current_trial": 34, "trialdata": {"rt": -1000, "trial_type": "single-audio", "word": "lake", "stimulus": "/static/audio/wordpool/LAKE.wav", "conditions": [18, 1200, "a", 18000], "internal_node_id": "0.0-25.0", "trial": 0, "time_elapsed": 223569, "serialpos": 13, "key_press": -1, "wordID": 795, "type": "PRES_AUD", "trial_index": 34}, "uniqueid": "MTK1314:37TD41K0AIGOB504UGB812SP88ACSO", "dateTime": 1515713768090}, {"current_trial": 35, "trialdata": {"rt": -1000, "trial_type": "single-audio", "word": "antler", "stimulus": "/static/audio/wordpool/ANTLER.wav", "conditions": [18, 1200, "a", 18000], "internal_node_id": "0.0-26.0", "trial": 0, "time_elapsed": 225774, "serialpos": 14, "key_press": -1, "wordID": 28, "type": "PRES_AUD", "trial_index": 35}, "uniqueid": "MTK1314:37TD41K0AIGOB504UGB812SP88ACSO", "dateTime": 1515713770295}, {"current_trial": 36, "trialdata": {"rt": -1000, "trial_type": "single-audio", "word": "puppy", "stimulus": "/static/audio/wordpool/PUPPY.wav", "conditions": [18, 1200, "a", 18000], "internal_node_id": "0.0-27.0", "trial": 0, "time_elapsed": 227822, "serialpos": 15, "key_press": -1, "wordID": 1143, "type": "PRES_AUD", "trial_index": 36}, "uniqueid": "MTK1314:37TD41K0AIGOB504UGB812SP88ACSO", "dateTime": 1515713772343}, {"current_trial": 37, "trialdata": {"rt": -1000, "trial_type": "single-audio", "word": "perch", "stimulus": "/static/audio/wordpool/PERCH.wav", "conditions": [18, 1200, "a", 18000], "internal_node_id": "0.0-28.0", "trial": 0, "time_elapsed": 229858, "serialpos": 16, "key_press": -1, "wordID": 1047, "type": "PRES_AUD", "trial_index": 37}, "uniqueid": "MTK1314:37TD41K0AIGOB504UGB812SP88ACSO", "dateTime": 1515713774380}, {"current_trial": 38, "trialdata": {"rt": -1000, "trial_type": "single-audio", "word": "spider", "stimulus": "/static/audio/wordpool/SPIDER.wav", "conditions": [18, 1200, "a", 18000], "internal_node_id": "0.0-29.0", "trial": 0, "time_elapsed": 232207, "serialpos": 17, "key_press": -1, "wordID": 1350, "type": "PRES_AUD", "trial_index": 38}, "uniqueid": "MTK1314:37TD41K0AIGOB504UGB812SP88ACSO", "dateTime": 1515713776728}, {"current_trial": 39, "trialdata": {"rt": -1, "trial_type": "single-stim", "stimulus": "", "internal_node_id": "0.0-30.0-0.0", "time_elapsed": 233509, "key_press": -1, "type": "PRE_RECALL_DELAY", "trial_index": 39}, "uniqueid": "MTK1314:37TD41K0AIGOB504UGB812SP88ACSO", "dateTime": 1515713778030}, {"current_trial": 40, "trialdata": {"rt": -1000, "trial_type": "single-audio", "stimulus": "/static/audio/400Hz.wav", "internal_node_id": "0.0-31.0", "time_elapsed": 234011, "key_press": -1, "type": "PRE_RECALL_ALERT", "trial_index": 40}, "uniqueid": "MTK1314:37TD41K0AIGOB504UGB812SP88ACSO", "dateTime": 1515713778533}, {"current_trial": 41, "trialdata": {"rt": [1952, 2992, 3902, 7777, 10679, 12827, 21425, 29691, 39450, 53012, 58126], "recwords": ["spider", "lake", "perch", "cabbage", "flower", "mister", "keeper", "whisper", "woman", "spider", "ozone"], "key_times": [1369, 1471, 1519, 1615, 1771, 1840, 1952, 2541, 2660, 2769, 2849, 2992, 3257, 3369, 3434, 3661, 3741, 3902, 6752, 6836, 7102, 7268, 7427, 7622, 7673, 7777, 9971, 10027, 10231, 10304, 10363, 10446, 10679, 12115, 12218, 12337, 12523, 12695, 12743, 12827, 20510, 20739, 20911, 21030, 21118, 21219, 21425, 28964, 29001, 29110, 29190, 29287, 29443, 29543, 29691, 38935, 39002, 39078, 39186, 39282, 39450, 52350, 52462, 52563, 52666, 52812, 52904, 53012, 57014, 57169, 57305, 57433, 57655, 58126], "trial_type": "free-recall", "conditions": [18, 1200, "a", 18000], "internal_node_id": "0.0-32.0-0.0", "key_presses": [83, 80, 73, 68, 69, 82, 13, 76, 65, 75, 69, 13, 80, 69, 82, 67, 72, 13, 67, 65, 66, 66, 65, 71, 69, 13, 70, 76, 79, 87, 69, 82, 13, 77, 73, 83, 84, 69, 82, 13, 75, 69, 69, 80, 69, 82, 13, 87, 72, 73, 83, 80, 69, 82, 13, 87, 79, 77, 65, 78, 13, 83, 80, 73, 68, 69, 82, 13, 79, 90, 79, 78, 69, 13], "trial": 0, "time_elapsed": 294017, "type": "FREE_RECALL", "trial_index": 41}, "uniqueid": "MTK1314:37TD41K0AIGOB504UGB812SP88ACSO", "dateTime": 1515713838541}, {"current_trial": 42, "trialdata": {"rt": 1604, "trial_type": "text", "internal_node_id": "0.0-33.0", "time_elapsed": 297629, "key_press": 32, "type": "INSTRUCTIONS", "trial_index": 42}, "uniqueid": "MTK1314:37TD41K0AIGOB504UGB812SP88ACSO", "dateTime": 1515713842150}, {"current_trial": 43, "trialdata": {"rt": [2579, 5715, 7762, 10206, 12072, 16246], "trial_type": "math-distractor", "key_times": [2115, 2305, 2579, 5435, 5555, 5715, 7437, 7513, 7762, 9790, 9909, 10206, 11697, 11781, 12072, 15340, 16045, 16246], "responses": ["16", "12", "17", "10", "17", "20"], "num2": [6, 3, 5, 3, 8, 5, 7], "num3": [4, 4, 6, 4, 8, 9, 4], "conditions": [18, 1200, "a", 18000], "internal_node_id": "0.0-34.0", "key_presses": [49, 54, 13, 49, 50, 13, 49, 55, 13, 49, 48, 13, 49, 55, 13, 50, 48, 13], "trial": 1, "time_elapsed": 317640, "type": "DISTRACTOR", "trial_index": 43, "num1": [6, 5, 6, 3, 1, 6, 2]}, "uniqueid": "MTK1314:37TD41K0AIGOB504UGB812SP88ACSO", "dateTime": 1515713862161}, {"current_trial": 44, "trialdata": {"rt": -1, "trial_type": "single-stim", "stimulus": "<p id=\"stim\">10</p>", "internal_node_id": "0.0-35.0-0.0", "time_elapsed": 320645, "key_press": -1, "trial_index": 44}, "uniqueid": "MTK1314:37TD41K0AIGOB504UGB812SP88ACSO", "dateTime": 1515713865167}, {"current_trial": 45, "trialdata": {"rt": -1, "trial_type": "single-stim", "stimulus": "<p id=\"stim\">9</p>", "internal_node_id": "0.0-35.0-1.0", "time_elapsed": 321650, "key_press": -1, "trial_index": 45}, "uniqueid": "MTK1314:37TD41K0AIGOB504UGB812SP88ACSO", "dateTime": 1515713866171}, {"current_trial": 46, "trialdata": {"rt": -1, "trial_type": "single-stim", "stimulus": "<p id=\"stim\">8</p>", "internal_node_id": "0.0-35.0-2.0", "time_elapsed": 322654, "key_press": -1, "trial_index": 46}, "uniqueid": "MTK1314:37TD41K0AIGOB504UGB812SP88ACSO", "dateTime": 1515713867175}, {"current_trial": 47, "trialdata": {"rt": -1, "trial_type": "single-stim", "stimulus": "<p id=\"stim\">7</p>", "internal_node_id": "0.0-35.0-3.0", "time_elapsed": 323658, "key_press": -1, "trial_index": 47}, "uniqueid": "MTK1314:37TD41K0AIGOB504UGB812SP88ACSO", "dateTime": 1515713868180}, {"current_trial": 48, "trialdata": {"rt": -1, "trial_type": "single-stim", "stimulus": "<p id=\"stim\">6</p>", "internal_node_id": "0.0-35.0-4.0", "time_elapsed": 324662, "key_press": -1, "trial_index": 48}, "uniqueid": "MTK1314:37TD41K0AIGOB504UGB812SP88ACSO", "dateTime": 1515713869184}, {"current_trial": 49, "trialdata": {"rt": -1, "trial_type": "single-stim", "stimulus": "<p id=\"stim\">5</p>", "internal_node_id": "0.0-35.0-5.0", "time_elapsed": 325667, "key_press": -1, "trial_index": 49}, "uniqueid": "MTK1314:37TD41K0AIGOB504UGB812SP88ACSO", "dateTime": 1515713870190}, {"current_trial": 50, "trialdata": {"rt": -1, "trial_type": "single-stim", "stimulus": "<p id=\"stim\">4</p>", "internal_node_id": "0.0-35.0-6.0", "time_elapsed": 326671, "key_press": -1, "trial_index": 50}, "uniqueid": "MTK1314:37TD41K0AIGOB504UGB812SP88ACSO", "dateTime": 1515713871192}, {"current_trial": 51, "trialdata": {"rt": -1, "trial_type": "single-stim", "stimulus": "<p id=\"stim\">3</p>", "internal_node_id": "0.0-35.0-7.0", "time_elapsed": 327675, "key_press": -1, "trial_index": 51}, "uniqueid": "MTK1314:37TD41K0AIGOB504UGB812SP88ACSO", "dateTime": 1515713872196}, {"current_trial": 52, "trialdata": {"rt": -1, "trial_type": "single-stim", "stimulus": "<p id=\"stim\">2</p>", "internal_node_id": "0.0-35.0-8.0", "time_elapsed": 328679, "key_press": -1, "trial_index": 52}, "uniqueid": "MTK1314:37TD41K0AIGOB504UGB812SP88ACSO", "dateTime": 1515713873200}, {"current_trial": 53, "trialdata": {"rt": -1, "trial_type": "single-stim", "stimulus": "<p id=\"stim\">1</p>", "internal_node_id": "0.0-35.0-9.0", "time_elapsed": 329683, "key_press": -1, "trial_index": 53}, "uniqueid": "MTK1314:37TD41K0AIGOB504UGB812SP88ACSO", "dateTime": 1515713874204}, {"current_trial": 54, "trialdata": {"rt": -1, "trial_type": "single-stim", "stimulus": "<p id=\"stim\">+</p>", "internal_node_id": "0.0-36.0-0.0", "time_elapsed": 331186, "key_press": -1, "type": "FIXATION", "trial_index": 54}, "uniqueid": "MTK1314:37TD41K0AIGOB504UGB812SP88ACSO", "dateTime": 1515713875708}, {"current_trial": 55, "trialdata": {"rt": -1000, "trial_type": "single-audio", "word": "trench", "stimulus": "/static/audio/wordpool/TRENCH.wav", "conditions": [18, 1200, "a", 18000], "internal_node_id": "0.0-37.0", "trial": 1, "time_elapsed": 333281, "serialpos": 0, "key_press": -1, "wordID": 1502, "type": "PRES_AUD", "trial_index": 55}, "uniqueid": "MTK1314:37TD41K0AIGOB504UGB812SP88ACSO", "dateTime": 1515713877802}, {"current_trial": 56, "trialdata": {"rt": -1000, "trial_type": "single-audio", "word": "ketchup", "stimulus": "/static/audio/wordpool/KETCHUP.wav", "conditions": [18, 1200, "a", 18000], "internal_node_id": "0.0-38.0", "trial": 1, "time_elapsed": 335431, "serialpos": 1, "key_press": -1, "wordID": 770, "type": "PRES_AUD", "trial_index": 56}, "uniqueid": "MTK1314:37TD41K0AIGOB504UGB812SP88ACSO", "dateTime": 1515713879952}, {"current_trial": 57, "trialdata": {"rt": -1000, "trial_type": "single-audio", "word": "scissors", "stimulus": "/static/audio/wordpool/SCISSORS.wav", "conditions": [18, 1200, "a", 18000], "internal_node_id": "0.0-39.0", "trial": 1, "time_elapsed": 337433, "serialpos": 2, "key_press": -1, "wordID": 1249, "type": "PRES_AUD", "trial_index": 57}, "uniqueid": "MTK1314:37TD41K0AIGOB504UGB812SP88ACSO", "dateTime": 1515713881954}, {"current_trial": 58, "trialdata": {"rt": -1000, "trial_type": "single-audio", "word": "sketch", "stimulus": "/static/audio/wordpool/SKETCH.wav", "conditions": [18, 1200, "a", 18000], "internal_node_id": "0.0-40.0", "trial": 1, "time_elapsed": 339488, "serialpos": 3, "key_press": -1, "wordID": 1314, "type": "PRES_AUD", "trial_index": 58}, "uniqueid": "MTK1314:37TD41K0AIGOB504UGB812SP88ACSO", "dateTime": 1515713884009}, {"current_trial": 59, "trialdata": {"rt": -1000, "trial_type": "single-audio", "word": "omelet", "stimulus": "/static/audio/wordpool/OMELET.wav", "conditions": [18, 1200, "a", 18000], "internal_node_id": "0.0-41.0", "trial": 1, "time_elapsed": 341642, "serialpos": 4, "key_press": -1, "wordID": 975, "type": "PRES_AUD", "trial_index": 59}, "uniqueid": "MTK1314:37TD41K0AIGOB504UGB812SP88ACSO", "dateTime": 1515713886163}, {"current_trial": 60, "trialdata": {"rt": -1000, "trial_type": "single-audio", "word": "carrot", "stimulus": "/static/audio/wordpool/CARROT.wav", "conditions": [18, 1200, "a", 18000], "internal_node_id": "0.0-42.0", "trial": 1, "time_elapsed": 343815, "serialpos": 5, "key_press": -1, "wordID": 248, "type": "PRES_AUD", "trial_index": 60}, "uniqueid": "MTK1314:37TD41K0AIGOB504UGB812SP88ACSO", "dateTime": 1515713888336}, {"current_trial": 61, "trialdata": {"rt": -1000, "trial_type": "single-audio", "word": "pebble", "stimulus": "/static/audio/wordpool/PEBBLE.wav", "conditions": [18, 1200, "a", 18000], "internal_node_id": "0.0-43.0", "trial": 1, "time_elapsed": 346054, "serialpos": 6, "key_press": -1, "wordID": 1034, "type": "PRES_AUD", "trial_index": 61}, "uniqueid": "MTK1314:37TD41K0AIGOB504UGB812SP88ACSO", "dateTime": 1515713890575}, {"current_trial": 62, "trialdata": {"rt": -1000, "trial_type": "single-audio", "word": "ankle", "stimulus": "/static/audio/wordpool/ANKLE.wav", "conditions": [18, 1200, "a", 18000], "internal_node_id": "0.0-44.0", "trial": 1, "time_elapsed": 348237, "serialpos": 7, "key_press": -1, "wordID": 23, "type": "PRES_AUD", "trial_index": 62}, "uniqueid": "MTK1314:37TD41K0AIGOB504UGB812SP88ACSO", "dateTime": 1515713892758}, {"current_trial": 63, "trialdata": {"rt": -1000, "trial_type": "single-audio", "word": "captive", "stimulus": "/static/audio/wordpool/CAPTIVE.wav", "conditions": [18, 1200, "a", 18000], "internal_node_id": "0.0-45.0", "trial": 1, "time_elapsed": 350640, "serialpos": 8, "key_press": -1, "wordID": 239, "type": "PRES_AUD", "trial_index": 63}, "uniqueid": "MTK1314:37TD41K0AIGOB504UGB812SP88ACSO", "dateTime": 1515713895161}, {"current_trial": 64, "trialdata": {"rt": -1000, "trial_type": "single-audio", "word": "ghetto", "stimulus": "/static/audio/wordpool/GHETTO.wav", "conditions": [18, 1200, "a", 18000], "internal_node_id": "0.0-46.0", "trial": 1, "time_elapsed": 352985, "serialpos": 9, "key_press": -1, "wordID": 632, "type": "PRES_AUD", "trial_index": 64}, "uniqueid": "MTK1314:37TD41K0AIGOB504UGB812SP88ACSO", "dateTime": 1515713897506}, {"current_trial": 65, "trialdata": {"rt": -1000, "trial_type": "single-audio", "word": "binder", "stimulus": "/static/audio/wordpool/BINDER.wav", "conditions": [18, 1200, "a", 18000], "internal_node_id": "0.0-47.0", "trial": 1, "time_elapsed": 355186, "serialpos": 10, "key_press": -1, "wordID": 126, "type": "PRES_AUD", "trial_index": 65}, "uniqueid": "MTK1314:37TD41K0AIGOB504UGB812SP88ACSO", "dateTime": 1515713899707}, {"current_trial": 66, "trialdata": {"rt": -1000, "trial_type": "single-audio", "word": "dragon", "stimulus": "/static/audio/wordpool/DRAGON.wav", "conditions": [18, 1200, "a", 18000], "internal_node_id": "0.0-48.0", "trial": 1, "time_elapsed": 357548, "serialpos": 11, "key_press": -1, "wordID": 491, "type": "PRES_AUD", "trial_index": 66}, "uniqueid": "MTK1314:37TD41K0AIGOB504UGB812SP88ACSO", "dateTime": 1515713902069}, {"current_trial": 67, "trialdata": {"rt": -1000, "trial_type": "single-audio", "word": "smog", "stimulus": "/static/audio/wordpool/SMOG.wav", "conditions": [18, 1200, "a", 18000], "internal_node_id": "0.0-49.0", "trial": 1, "time_elapsed": 359725, "serialpos": 12, "key_press": -1, "wordID": 1329, "type": "PRES_AUD", "trial_index": 67}, "uniqueid": "MTK1314:37TD41K0AIGOB504UGB812SP88ACSO", "dateTime": 1515713904246}, {"current_trial": 68, "trialdata": {"rt": -1000, "trial_type": "single-audio", "word": "crayon", "stimulus": "/static/audio/wordpool/CRAYON.wav", "conditions": [18, 1200, "a", 18000], "internal_node_id": "0.0-50.0", "trial": 1, "time_elapsed": 362059, "serialpos": 13, "key_press": -1, "wordID": 400, "type": "PRES_AUD", "trial_index": 68}, "uniqueid": "MTK1314:37TD41K0AIGOB504UGB812SP88ACSO", "dateTime": 1515713906581}, {"current_trial": 69, "trialdata": {"rt": -1000, "trial_type": "single-audio", "word": "chapel", "stimulus": "/static/audio/wordpool/CHAPEL.wav", "conditions": [18, 1200, "a", 18000], "internal_node_id": "0.0-51.0", "trial": 1, "time_elapsed": 364090, "serialpos": 14, "key_press": -1, "wordID": 279, "type": "PRES_AUD", "trial_index": 69}, "uniqueid": "MTK1314:37TD41K0AIGOB504UGB812SP88ACSO", "dateTime": 1515713908612}, {"current_trial": 70, "trialdata": {"rt": -1000, "trial_type": "single-audio", "word": "belly", "stimulus": "/static/audio/wordpool/BELLY.wav", "conditions": [18, 1200, "a", 18000], "internal_node_id": "0.0-52.0", "trial": 1, "time_elapsed": 366413, "serialpos": 15, "key_press": -1, "wordID": 118, "type": "PRES_AUD", "trial_index": 70}, "uniqueid": "MTK1314:37TD41K0AIGOB504UGB812SP88ACSO", "dateTime": 1515713910934}, {"current_trial": 71, "trialdata": {"rt": -1000, "trial_type": "single-audio", "word": "rattle", "stimulus": "/static/audio/wordpool/RATTLE.wav", "conditions": [18, 1200, "a", 18000], "internal_node_id": "0.0-53.0", "trial": 1, "time_elapsed": 368566, "serialpos": 16, "key_press": -1, "wordID": 1169, "type": "PRES_AUD", "trial_index": 71}, "uniqueid": "MTK1314:37TD41K0AIGOB504UGB812SP88ACSO", "dateTime": 1515713913087}, {"current_trial": 72, "trialdata": {"rt": -1000, "trial_type": "single-audio", "word": "tractor", "stimulus": "/static/audio/wordpool/TRACTOR.wav", "conditions": [18, 1200, "a", 18000], "internal_node_id": "0.0-54.0", "trial": 1, "time_elapsed": 370732, "serialpos": 17, "key_press": -1, "wordID": 1492, "type": "PRES_AUD", "trial_index": 72}, "uniqueid": "MTK1314:37TD41K0AIGOB504UGB812SP88ACSO", "dateTime": 1515713915253}, {"current_trial": 73, "trialdata": {"rt": -1, "trial_type": "single-stim", "stimulus": "", "internal_node_id": "0.0-55.0-0.0", "time_elapsed": 372077, "key_press": -1, "type": "PRE_RECALL_DELAY", "trial_index": 73}, "uniqueid": "MTK1314:37TD41K0AIGOB504UGB812SP88ACSO", "dateTime": 1515713916598}, {"current_trial": 74, "trialdata": {"rt": -1000, "trial_type": "single-audio", "stimulus": "/static/audio/400Hz.wav", "internal_node_id": "0.0-56.0", "time_elapsed": 372578, "key_press": -1, "type": "PRE_RECALL_ALERT", "trial_index": 74}, "uniqueid": "MTK1314:37TD41K0AIGOB504UGB812SP88ACSO", "dateTime": 1515713917099}, {"current_trial": 75, "trialdata": {"rt": [2316, 3292, 4237, 16220, 17374, 27601, 35744], "recwords": ["tractor", "rattle", "belly", "omlette", "carrot", "tractor", "ghetto"], "key_times": [1399, 1513, 1690, 1751, 1998, 2116, 2208, 2316, 2521, 2722, 2863, 2990, 3083, 3203, 3292, 3487, 3608, 3712, 3873, 4009, 4237, 15131, 15213, 15361, 15529, 15758, 15889, 16043, 16220, 16610, 16731, 16916, 17075, 17151, 17255, 17374, 26791, 26849, 27056, 27107, 27325, 27389, 27513, 27601, 34961, 35048, 35168, 35359, 35473, 35557, 35744], "trial_type": "free-recall", "conditions": [18, 1200, "a", 18000], "internal_node_id": "0.0-57.0-0.0", "key_presses": [84, 82, 65, 67, 84, 79, 82, 13, 82, 65, 84, 84, 76, 69, 13, 66, 69, 76, 76, 89, 13, 79, 77, 76, 69, 84, 84, 69, 13, 67, 65, 82, 82, 79, 84, 13, 84, 82, 65, 67, 84, 79, 82, 13, 71, 72, 69, 84, 84, 79, 13], "trial": 1, "time_elapsed": 432582, "type": "FREE_RECALL", "trial_index": 75}, "uniqueid": "MTK1314:37TD41K0AIGOB504UGB812SP88ACSO", "dateTime": 1515713977105}, {"current_trial": 76, "trialdata": {"rt": 7056, "trial_type": "text", "internal_node_id": "0.0-58.0", "time_elapsed": 441647, "key_press": 32, "type": "INSTRUCTIONS", "trial_index": 76}, "uniqueid": "MTK1314:37TD41K0AIGOB504UGB812SP88ACSO", "dateTime": 1515713986168}, {"current_trial": 77, "trialdata": {"rt": [2743, 4371, 6271, 7982, 9495, 11246], "trial_type": "math-distractor", "key_times": [2293, 2447, 2743, 4022, 4137, 4371, 5688, 5979, 6271, 7645, 7765, 7982, 9216, 9331, 9495, 10962, 11038, 11246], "responses": ["15", "10", "16", "18", "12", "18"], "num2": [9, 3, 8, 4, 1, 4, 8], "num3": [5, 1, 2, 8, 9, 7, 3], "conditions": [12, 800, "a", 12000], "internal_node_id": "0.0-59.0", "key_presses": [49, 53, 13, 49, 48, 13, 49, 54, 13, 49, 56, 13, 49, 50, 13, 49, 56, 13], "trial": 2, "time_elapsed": 454655, "type": "DISTRACTOR", "trial_index": 77, "num1": [1, 6, 6, 6, 2, 7, 1]}, "uniqueid": "MTK1314:37TD41K0AIGOB504UGB812SP88ACSO", "dateTime": 1515713999176}, {"current_trial": 78, "trialdata": {"rt": -1, "trial_type": "single-stim", "stimulus": "<p id=\"stim\">10</p>", "internal_node_id": "0.0-60.0-0.0", "time_elapsed": 457661, "key_press": -1, "trial_index": 78}, "uniqueid": "MTK1314:37TD41K0AIGOB504UGB812SP88ACSO", "dateTime": 1515714002183}, {"current_trial": 79, "trialdata": {"rt": -1, "trial_type": "single-stim", "stimulus": "<p id=\"stim\">9</p>", "internal_node_id": "0.0-60.0-1.0", "time_elapsed": 458666, "key_press": -1, "trial_index": 79}, "uniqueid": "MTK1314:37TD41K0AIGOB504UGB812SP88ACSO", "dateTime": 1515714003187}, {"current_trial": 80, "trialdata": {"rt": -1, "trial_type": "single-stim", "stimulus": "<p id=\"stim\">8</p>", "internal_node_id": "0.0-60.0-2.0", "time_elapsed": 459670, "key_press": -1, "trial_index": 80}, "uniqueid": "MTK1314:37TD41K0AIGOB504UGB812SP88ACSO", "dateTime": 1515714004191}, {"current_trial": 81, "trialdata": {"rt": -1, "trial_type": "single-stim", "stimulus": "<p id=\"stim\">7</p>", "internal_node_id": "0.0-60.0-3.0", "time_elapsed": 460674, "key_press": -1, "trial_index": 81}, "uniqueid": "MTK1314:37TD41K0AIGOB504UGB812SP88ACSO", "dateTime": 1515714005195}, {"current_trial": 82, "trialdata": {"rt": -1, "trial_type": "single-stim", "stimulus": "<p id=\"stim\">6</p>", "internal_node_id": "0.0-60.0-4.0", "time_elapsed": 461678, "key_press": -1, "trial_index": 82}, "uniqueid": "MTK1314:37TD41K0AIGOB504UGB812SP88ACSO", "dateTime": 1515714006199}, {"current_trial": 83, "trialdata": {"rt": -1, "trial_type": "single-stim", "stimulus": "<p id=\"stim\">5</p>", "internal_node_id": "0.0-60.0-5.0", "time_elapsed": 462681, "key_press": -1, "trial_index": 83}, "uniqueid": "MTK1314:37TD41K0AIGOB504UGB812SP88ACSO", "dateTime": 1515714007202}, {"current_trial": 84, "trialdata": {"rt": -1, "trial_type": "single-stim", "stimulus": "<p id=\"stim\">4</p>", "internal_node_id": "0.0-60.0-6.0", "time_elapsed": 463687, "key_press": -1, "trial_index": 84}, "uniqueid": "MTK1314:37TD41K0AIGOB504UGB812SP88ACSO", "dateTime": 1515714008208}, {"current_trial": 85, "trialdata": {"rt": -1, "trial_type": "single-stim", "stimulus": "<p id=\"stim\">3</p>", "internal_node_id": "0.0-60.0-7.0", "time_elapsed": 464690, "key_press": -1, "trial_index": 85}, "uniqueid": "MTK1314:37TD41K0AIGOB504UGB812SP88ACSO", "dateTime": 1515714009211}, {"current_trial": 86, "trialdata": {"rt": -1, "trial_type": "single-stim", "stimulus": "<p id=\"stim\">2</p>", "internal_node_id": "0.0-60.0-8.0", "time_elapsed": 465694, "key_press": -1, "trial_index": 86}, "uniqueid": "MTK1314:37TD41K0AIGOB504UGB812SP88ACSO", "dateTime": 1515714010215}, {"current_trial": 87, "trialdata": {"rt": -1, "trial_type": "single-stim", "stimulus": "<p id=\"stim\">1</p>", "internal_node_id": "0.0-60.0-9.0", "time_elapsed": 466699, "key_press": -1, "trial_index": 87}, "uniqueid": "MTK1314:37TD41K0AIGOB504UGB812SP88ACSO", "dateTime": 1515714011220}, {"current_trial": 88, "trialdata": {"rt": -1, "trial_type": "single-stim", "stimulus": "<p id=\"stim\">+</p>", "internal_node_id": "0.0-61.0-0.0", "time_elapsed": 468205, "key_press": -1, "type": "FIXATION", "trial_index": 88}, "uniqueid": "MTK1314:37TD41K0AIGOB504UGB812SP88ACSO", "dateTime": 1515714012726}, {"current_trial": 89, "trialdata": {"rt": -1000, "trial_type": "single-audio", "word": "actor", "stimulus": "/static/audio/wordpool/ACTOR.wav", "conditions": [12, 800, "a", 12000], "internal_node_id": "0.0-62.0", "trial": 2, "time_elapsed": 469973, "serialpos": 0, "key_press": -1, "wordID": 4, "type": "PRES_AUD", "trial_index": 89}, "uniqueid": "MTK1314:37TD41K0AIGOB504UGB812SP88ACSO", "dateTime": 1515714014494}, {"current_trial": 90, "trialdata": {"rt": -1000, "trial_type": "single-audio", "word": "actress", "stimulus": "/static/audio/wordpool/ACTRESS.wav", "conditions": [12, 800, "a", 12000], "internal_node_id": "0.0-63.0", "trial": 2, "time_elapsed": 471813, "serialpos": 1, "key_press": -1, "wordID": 5, "type": "PRES_AUD", "trial_index": 90}, "uniqueid": "MTK1314:37TD41K0AIGOB504UGB812SP88ACSO", "dateTime": 1515714016334}, {"current_trial": 91, "trialdata": {"rt": -1000, "trial_type": "single-audio", "word": "shrub", "stimulus": "/static/audio/wordpool/SHRUB.wav", "conditions": [12, 800, "a", 12000], "internal_node_id": "0.0-64.0", "trial": 2, "time_elapsed": 473460, "serialpos": 2, "key_press": -1, "wordID": 1298, "type": "PRES_AUD", "trial_index": 91}, "uniqueid": "MTK1314:37TD41K0AIGOB504UGB812SP88ACSO", "dateTime": 1515714017981}, {"current_trial": 92, "trialdata": {"rt": -1000, "trial_type": "single-audio", "word": "salad", "stimulus": "/static/audio/wordpool/SALAD.wav", "conditions": [12, 800, "a", 12000], "internal_node_id": "0.0-65.0", "trial": 2, "time_elapsed": 475132, "serialpos": 3, "key_press": -1, "wordID": 1223, "type": "PRES_AUD", "trial_index": 92}, "uniqueid": "MTK1314:37TD41K0AIGOB504UGB812SP88ACSO", "dateTime": 1515714019653}, {"current_trial": 93, "trialdata": {"rt": -1000, "trial_type": "single-audio", "word": "pizza", "stimulus": "/static/audio/wordpool/PIZZA.wav", "conditions": [12, 800, "a", 12000], "internal_node_id": "0.0-66.0", "trial": 2, "time_elapsed": 476991, "serialpos": 4, "key_press": -1, "wordID": 1078, "type": "PRES_AUD", "trial_index": 93}, "uniqueid": "MTK1314:37TD41K0AIGOB504UGB812SP88ACSO", "dateTime": 1515714021512}, {"current_trial": 94, "trialdata": {"rt": -1000, "trial_type": "single-audio", "word": "onion", "stimulus": "/static/audio/wordpool/ONION.wav", "conditions": [12, 800, "a", 12000], "internal_node_id": "0.0-67.0", "trial": 2, "time_elapsed": 478674, "serialpos": 5, "key_press": -1, "wordID": 976, "type": "PRES_AUD", "trial_index": 94}, "uniqueid": "MTK1314:37TD41K0AIGOB504UGB812SP88ACSO", "dateTime": 1515714023195}, {"current_trial": 95, "trialdata": {"rt": -1000, "trial_type": "single-audio", "word": "pork", "stimulus": "/static/audio/wordpool/PORK.wav", "conditions": [12, 800, "a", 12000], "internal_node_id": "0.0-68.0", "trial": 2, "time_elapsed": 480625, "serialpos": 6, "key_press": -1, "wordID": 1107, "type": "PRES_AUD", "trial_index": 95}, "uniqueid": "MTK1314:37TD41K0AIGOB504UGB812SP88ACSO", "dateTime": 1515714025146}, {"current_trial": 96, "trialdata": {"rt": -1000, "trial_type": "single-audio", "word": "picture", "stimulus": "/static/audio/wordpool/PICTURE.wav", "conditions": [12, 800, "a", 12000], "internal_node_id": "0.0-69.0", "trial": 2, "time_elapsed": 482297, "serialpos": 7, "key_press": -1, "wordID": 1060, "type": "PRES_AUD", "trial_index": 96}, "uniqueid": "MTK1314:37TD41K0AIGOB504UGB812SP88ACSO", "dateTime": 1515714026818}, {"current_trial": 97, "trialdata": {"rt": -1000, "trial_type": "single-audio", "word": "hatchet", "stimulus": "/static/audio/wordpool/HATCHET.wav", "conditions": [12, 800, "a", 12000], "internal_node_id": "0.0-70.0", "trial": 2, "time_elapsed": 483951, "serialpos": 8, "key_press": -1, "wordID": 690, "type": "PRES_AUD", "trial_index": 97}, "uniqueid": "MTK1314:37TD41K0AIGOB504UGB812SP88ACSO", "dateTime": 1515714028472}, {"current_trial": 98, "trialdata": {"rt": -1000, "trial_type": "single-audio", "word": "radish", "stimulus": "/static/audio/wordpool/RADISH.wav", "conditions": [12, 800, "a", 12000], "internal_node_id": "0.0-71.0", "trial": 2, "time_elapsed": 485878, "serialpos": 9, "key_press": -1, "wordID": 1157, "type": "PRES_AUD", "trial_index": 98}, "uniqueid": "MTK1314:37TD41K0AIGOB504UGB812SP88ACSO", "dateTime": 1515714030400}, {"current_trial": 99, "trialdata": {"rt": -1000, "trial_type": "single-audio", "word": "beaker", "stimulus": "/static/audio/wordpool/BEAKER.wav", "conditions": [12, 800, "a", 12000], "internal_node_id": "0.0-72.0", "trial": 2, "time_elapsed": 487707, "serialpos": 10, "key_press": -1, "wordID": 103, "type": "PRES_AUD", "trial_index": 99}, "uniqueid": "MTK1314:37TD41K0AIGOB504UGB812SP88ACSO", "dateTime": 1515714032228}, {"current_trial": 100, "trialdata": {"rt": -1000, "trial_type": "single-audio", "word": "relish", "stimulus": "/static/audio/wordpool/RELISH.wav", "conditions": [12, 800, "a", 12000], "internal_node_id": "0.0-73.0", "trial": 2, "time_elapsed": 489688, "serialpos": 11, "key_press": -1, "wordID": 1182, "type": "PRES_AUD", "trial_index": 100}, "uniqueid": "MTK1314:37TD41K0AIGOB504UGB812SP88ACSO", "dateTime": 1515714034210}, {"current_trial": 101, "trialdata": {"rt": -1, "trial_type": "single-stim", "stimulus": "", "internal_node_id": "0.0-74.0-0.0", "time_elapsed": 490923, "key_press": -1, "type": "PRE_RECALL_DELAY", "trial_index": 101}, "uniqueid": "MTK1314:37TD41K0AIGOB504UGB812SP88ACSO", "dateTime": 1515714035445}, {"current_trial": 102, "trialdata": {"rt": -1000, "trial_type": "single-audio", "stimulus": "/static/audio/400Hz.wav", "internal_node_id": "0.0-75.0", "time_elapsed": 491425, "key_press": -1, "type": "PRE_RECALL_ALERT", "trial_index": 102}, "uniqueid": "MTK1314:37TD41K0AIGOB504UGB812SP88ACSO", "dateTime": 1515714035946}, {"current_trial": 103, "trialdata": {"rt": [2044, 5081, 16342, 18220, 27939, 29122], "recwords": ["relish", "beeker", "ketchup", "salad", "actor", "actress"], "key_times": [1067, 1141, 1229, 1331, 1394, 1454, 2044, 4298, 4454, 4623, 4727, 4843, 4934, 5081, 15182, 15277, 15409, 15652, 15736, 15823, 16027, 16342, 17538, 17660, 17759, 17875, 17987, 18220, 27327, 27417, 27654, 27717, 27839, 27939, 28094, 28149, 28380, 28481, 28569, 28852, 29006, 29122], "trial_type": "free-recall", "conditions": [12, 800, "a", 12000], "internal_node_id": "0.0-76.0-0.0", "key_presses": [82, 69, 76, 73, 83, 72, 13, 66, 69, 69, 75, 69, 82, 13, 75, 69, 84, 67, 72, 85, 80, 13, 83, 65, 76, 65, 68, 13, 65, 67, 84, 79, 82, 13, 65, 67, 84, 82, 69, 83, 83, 13], "trial": 2, "time_elapsed": 551433, "type": "FREE_RECALL", "trial_index": 103}, "uniqueid": "MTK1314:37TD41K0AIGOB504UGB812SP88ACSO", "dateTime": 1515714095956}, {"current_trial": 104, "trialdata": {"rt": 1315, "trial_type": "text", "internal_node_id": "0.0-77.0", "time_elapsed": 554754, "key_press": 32, "type": "INSTRUCTIONS", "trial_index": 104}, "uniqueid": "MTK1314:37TD41K0AIGOB504UGB812SP88ACSO", "dateTime": 1515714099275}, {"current_trial": 105, "trialdata": {"rt": [3249, 7482, 8958, 10658], "trial_type": "math-distractor", "key_times": [2895, 2958, 3249, 7227, 7302, 7482, 8697, 8802, 8958, 10629, 10658], "responses": ["18", "12", "10", "7"], "num2": [5, 5, 2, 1, 1], "num3": [7, 4, 1, 1, 6], "conditions": [12, 800, "a", 12000], "internal_node_id": "0.0-78.0", "key_presses": [49, 56, 13, 49, 50, 13, 49, 48, 13, 55, 13], "trial": 3, "time_elapsed": 568758, "type": "DISTRACTOR", "trial_index": 105, "num1": [6, 3, 7, 5, 8]}, "uniqueid": "MTK1314:37TD41K0AIGOB504UGB812SP88ACSO", "dateTime": 1515714113279}, {"current_trial": 106, "trialdata": {"rt": -1, "trial_type": "single-stim", "stimulus": "<p id=\"stim\">10</p>", "internal_node_id": "0.0-79.0-0.0", "time_elapsed": 571765, "key_press": -1, "trial_index": 106}, "uniqueid": "MTK1314:37TD41K0AIGOB504UGB812SP88ACSO", "dateTime": 1515714116286}, {"current_trial": 107, "trialdata": {"rt": -1, "trial_type": "single-stim", "stimulus": "<p id=\"stim\">9</p>", "internal_node_id": "0.0-79.0-1.0", "time_elapsed": 572768, "key_press": -1, "trial_index": 107}, "uniqueid": "MTK1314:37TD41K0AIGOB504UGB812SP88ACSO", "dateTime": 1515714117290}, {"current_trial": 108, "trialdata": {"rt": -1, "trial_type": "single-stim", "stimulus": "<p id=\"stim\">8</p>", "internal_node_id": "0.0-79.0-2.0", "time_elapsed": 573772, "key_press": -1, "trial_index": 108}, "uniqueid": "MTK1314:37TD41K0AIGOB504UGB812SP88ACSO", "dateTime": 1515714118293}, {"current_trial": 109, "trialdata": {"rt": -1, "trial_type": "single-stim", "stimulus": "<p id=\"stim\">7</p>", "internal_node_id": "0.0-79.0-3.0", "time_elapsed": 574777, "key_press": -1, "trial_index": 109}, "uniqueid": "MTK1314:37TD41K0AIGOB504UGB812SP88ACSO", "dateTime": 1515714119298}, {"current_trial": 110, "trialdata": {"rt": -1, "trial_type": "single-stim", "stimulus": "<p id=\"stim\">6</p>", "internal_node_id": "0.0-79.0-4.0", "time_elapsed": 575781, "key_press": -1, "trial_index": 110}, "uniqueid": "MTK1314:37TD41K0AIGOB504UGB812SP88ACSO", "dateTime": 1515714120302}, {"current_trial": 111, "trialdata": {"rt": -1, "trial_type": "single-stim", "stimulus": "<p id=\"stim\">5</p>", "internal_node_id": "0.0-79.0-5.0", "time_elapsed": 576784, "key_press": -1, "trial_index": 111}, "uniqueid": "MTK1314:37TD41K0AIGOB504UGB812SP88ACSO", "dateTime": 1515714121306}, {"current_trial": 112, "trialdata": {"rt": -1, "trial_type": "single-stim", "stimulus": "<p id=\"stim\">4</p>", "internal_node_id": "0.0-79.0-6.0", "time_elapsed": 577789, "key_press": -1, "trial_index": 112}, "uniqueid": "MTK1314:37TD41K0AIGOB504UGB812SP88ACSO", "dateTime": 1515714122310}, {"current_trial": 113, "trialdata": {"rt": -1, "trial_type": "single-stim", "stimulus": "<p id=\"stim\">3</p>", "internal_node_id": "0.0-79.0-7.0", "time_elapsed": 578793, "key_press": -1, "trial_index": 113}, "uniqueid": "MTK1314:37TD41K0AIGOB504UGB812SP88ACSO", "dateTime": 1515714123314}, {"current_trial": 114, "trialdata": {"rt": -1, "trial_type": "single-stim", "stimulus": "<p id=\"stim\">2</p>", "internal_node_id": "0.0-79.0-8.0", "time_elapsed": 579797, "key_press": -1, "trial_index": 114}, "uniqueid": "MTK1314:37TD41K0AIGOB504UGB812SP88ACSO", "dateTime": 1515714124318}, {"current_trial": 115, "trialdata": {"rt": -1, "trial_type": "single-stim", "stimulus": "<p id=\"stim\">1</p>", "internal_node_id": "0.0-79.0-9.0", "time_elapsed": 580801, "key_press": -1, "trial_index": 115}, "uniqueid": "MTK1314:37TD41K0AIGOB504UGB812SP88ACSO", "dateTime": 1515714125322}, {"current_trial": 116, "trialdata": {"rt": -1, "trial_type": "single-stim", "stimulus": "<p id=\"stim\">+</p>", "internal_node_id": "0.0-80.0-0.0", "time_elapsed": 582305, "key_press": -1, "type": "FIXATION", "trial_index": 116}, "uniqueid": "MTK1314:37TD41K0AIGOB504UGB812SP88ACSO", "dateTime": 1515714126826}, {"current_trial": 117, "trialdata": {"rt": -1000, "trial_type": "single-audio", "word": "denim", "stimulus": "/static/audio/wordpool/DENIM.wav", "conditions": [12, 800, "a", 12000], "internal_node_id": "0.0-81.0", "trial": 3, "time_elapsed": 584197, "serialpos": 0, "key_press": -1, "wordID": 445, "type": "PRES_AUD", "trial_index": 117}, "uniqueid": "MTK1314:37TD41K0AIGOB504UGB812SP88ACSO", "dateTime": 1515714128718}, {"current_trial": 118, "trialdata": {"rt": -1000, "trial_type": "single-audio", "word": "wasp", "stimulus": "/static/audio/wordpool/WASP.wav", "conditions": [12, 800, "a", 12000], "internal_node_id": "0.0-82.0", "trial": 3, "time_elapsed": 585887, "serialpos": 1, "key_press": -1, "wordID": 1592, "type": "PRES_AUD", "trial_index": 118}, "uniqueid": "MTK1314:37TD41K0AIGOB504UGB812SP88ACSO", "dateTime": 1515714130408}, {"current_trial": 119, "trialdata": {"rt": -1000, "trial_type": "single-audio", "word": "valley", "stimulus": "/static/audio/wordpool/VALLEY.wav", "conditions": [12, 800, "a", 12000], "internal_node_id": "0.0-83.0", "trial": 3, "time_elapsed": 587855, "serialpos": 2, "key_press": -1, "wordID": 1544, "type": "PRES_AUD", "trial_index": 119}, "uniqueid": "MTK1314:37TD41K0AIGOB504UGB812SP88ACSO", "dateTime": 1515714132376}, {"current_trial": 120, "trialdata": {"rt": -1000, "trial_type": "single-audio", "word": "neutron", "stimulus": "/static/audio/wordpool/NEUTRON.wav", "conditions": [12, 800, "a", 12000], "internal_node_id": "0.0-84.0", "trial": 3, "time_elapsed": 589504, "serialpos": 3, "key_press": -1, "wordID": 946, "type": "PRES_AUD", "trial_index": 120}, "uniqueid": "MTK1314:37TD41K0AIGOB504UGB812SP88ACSO", "dateTime": 1515714134027}, {"current_trial": 121, "trialdata": {"rt": -1000, "trial_type": "single-audio", "word": "carriage", "stimulus": "/static/audio/wordpool/CARRIAGE.wav", "conditions": [12, 800, "a", 12000], "internal_node_id": "0.0-85.0", "trial": 3, "time_elapsed": 591349, "serialpos": 4, "key_press": -1, "wordID": 247, "type": "PRES_AUD", "trial_index": 121}, "uniqueid": "MTK1314:37TD41K0AIGOB504UGB812SP88ACSO", "dateTime": 1515714135870}, {"current_trial": 122, "trialdata": {"rt": -1000, "trial_type": "single-audio", "word": "hornet", "stimulus": "/static/audio/wordpool/HORNET.wav", "conditions": [12, 800, "a", 12000], "internal_node_id": "0.0-86.0", "trial": 3, "time_elapsed": 593004, "serialpos": 5, "key_press": -1, "wordID": 717, "type": "PRES_AUD", "trial_index": 122}, "uniqueid": "MTK1314:37TD41K0AIGOB504UGB812SP88ACSO", "dateTime": 1515714137525}, {"current_trial": 123, "trialdata": {"rt": -1000, "trial_type": "single-audio", "word": "peach", "stimulus": "/static/audio/wordpool/PEACH.wav", "conditions": [12, 800, "a", 12000], "internal_node_id": "0.0-87.0", "trial": 3, "time_elapsed": 594606, "serialpos": 6, "key_press": -1, "wordID": 1030, "type": "PRES_AUD", "trial_index": 123}, "uniqueid": "MTK1314:37TD41K0AIGOB504UGB812SP88ACSO", "dateTime": 1515714139127}, {"current_trial": 124, "trialdata": {"rt": -1000, "trial_type": "single-audio", "word": "pastry", "stimulus": "/static/audio/wordpool/PASTRY.wav", "conditions": [12, 800, "a", 12000], "internal_node_id": "0.0-88.0", "trial": 3, "time_elapsed": 596545, "serialpos": 7, "key_press": -1, "wordID": 1021, "type": "PRES_AUD", "trial_index": 124}, "uniqueid": "MTK1314:37TD41K0AIGOB504UGB812SP88ACSO", "dateTime": 1515714141066}, {"current_trial": 125, "trialdata": {"rt": -1000, "trial_type": "single-audio", "word": "outlaw", "stimulus": "/static/audio/wordpool/OUTLAW.wav", "conditions": [12, 800, "a", 12000], "internal_node_id": "0.0-89.0", "trial": 3, "time_elapsed": 598420, "serialpos": 8, "key_press": -1, "wordID": 988, "type": "PRES_AUD", "trial_index": 125}, "uniqueid": "MTK1314:37TD41K0AIGOB504UGB812SP88ACSO", "dateTime": 1515714142941}, {"current_trial": 126, "trialdata": {"rt": -1000, "trial_type": "single-audio", "word": "lodge", "stimulus": "/static/audio/wordpool/LODGE.wav", "conditions": [12, 800, "a", 12000], "internal_node_id": "0.0-90.0", "trial": 3, "time_elapsed": 600239, "serialpos": 9, "key_press": -1, "wordID": 838, "type": "PRES_AUD", "trial_index": 126}, "uniqueid": "MTK1314:37TD41K0AIGOB504UGB812SP88ACSO", "dateTime": 1515714144760}, {"current_trial": 127, "trialdata": {"rt": -1000, "trial_type": "single-audio", "word": "truck", "stimulus": "/static/audio/wordpool/TRUCK.wav", "conditions": [12, 800, "a", 12000], "internal_node_id": "0.0-91.0", "trial": 3, "time_elapsed": 602153, "serialpos": 10, "key_press": -1, "wordID": 1511, "type": "PRES_AUD", "trial_index": 127}, "uniqueid": "MTK1314:37TD41K0AIGOB504UGB812SP88ACSO", "dateTime": 1515714146674}, {"current_trial": 128, "trialdata": {"rt": -1000, "trial_type": "single-audio", "word": "driver", "stimulus": "/static/audio/wordpool/DRIVER.wav", "conditions": [12, 800, "a", 12000], "internal_node_id": "0.0-92.0", "trial": 3, "time_elapsed": 603772, "serialpos": 11, "key_press": -1, "wordID": 498, "type": "PRES_AUD", "trial_index": 128}, "uniqueid": "MTK1314:37TD41K0AIGOB504UGB812SP88ACSO", "dateTime": 1515714148293}, {"current_trial": 129, "trialdata": {"rt": -1, "trial_type": "single-stim", "stimulus": "", "internal_node_id": "0.0-93.0-0.0", "time_elapsed": 605079, "key_press": -1, "type": "PRE_RECALL_DELAY", "trial_index": 129}, "uniqueid": "MTK1314:37TD41K0AIGOB504UGB812SP88ACSO", "dateTime": 1515714149600}, {"current_trial": 130, "trialdata": {"rt": -1000, "trial_type": "single-audio", "stimulus": "/static/audio/400Hz.wav", "internal_node_id": "0.0-94.0", "time_elapsed": 605580, "key_press": -1, "type": "PRE_RECALL_ALERT", "trial_index": 130}, "uniqueid": "MTK1314:37TD41K0AIGOB504UGB812SP88ACSO", "dateTime": 1515714150101}, {"current_trial": 131, "trialdata": {"rt": [1372, 2277, 3240, 3951, 5728, 20013, 21059], "recwords": ["outlaw", "lodge", "driver", "peach", "pastry", "wasp", "hornet"], "key_times": [598, 656, 752, 870, 950, 1139, 1372, 1651, 1830, 1910, 2084, 2161, 2277, 2406, 2579, 2663, 2808, 3028, 3113, 3240, 3441, 3537, 3675, 3724, 3795, 3951, 4124, 4227, 4291, 4549, 4622, 5548, 5728, 19481, 19696, 19741, 19833, 20013, 20293, 20354, 20445, 20592, 20714, 20897, 21059], "trial_type": "free-recall", "conditions": [12, 800, "a", 12000], "internal_node_id": "0.0-95.0-0.0", "key_presses": [79, 85, 84, 76, 65, 87, 13, 76, 79, 68, 71, 69, 13, 68, 82, 73, 86, 69, 82, 13, 80, 69, 65, 67, 72, 13, 80, 65, 83, 84, 82, 89, 13, 87, 65, 83, 80, 13, 72, 79, 82, 78, 69, 84, 13], "trial": 3, "time_elapsed": 665588, "type": "FREE_RECALL", "trial_index": 131}, "uniqueid": "MTK1314:37TD41K0AIGOB504UGB812SP88ACSO", "dateTime": 1515714210112}, {"current_trial": 132, "trialdata": {"rt": 912, "trial_type": "text", "internal_node_id": "0.0-96.0", "time_elapsed": 668507, "key_press": 32, "type": "INSTRUCTIONS", "trial_index": 132}, "uniqueid": "MTK1314:37TD41K0AIGOB504UGB812SP88ACSO", "dateTime": 1515714213028}, {"current_trial": 133, "trialdata": {"rt": [1991, 3625, 5290, 6567, 10582, 12775, 14173, 18626, 20726, 21987, 23959], "trial_type": "math-distractor", "key_times": [1703, 1787, 1991, 3176, 3512, 3625, 5097, 5290, 6486, 6567, 8340, 8490, 10291, 10447, 10582, 12347, 12675, 12775, 13799, 13915, 14173, 18341, 18509, 18626, 20229, 20353, 20726, 21671, 21807, 21987, 23560, 23843, 23959], "responses": ["19", "15", "8", "4", "22", "16", "10", "23", "19", "13", "14"], "num2": [2, 8, 3, 1, 8, 5, 8, 7, 7, 3, 4, 8], "num3": [8, 5, 4, 1, 8, 8, 1, 9, 3, 5, 9, 1], "conditions": [12, 1600, "a", 24000], "internal_node_id": "0.0-97.0", "key_presses": [49, 57, 13, 49, 53, 13, 56, 13, 52, 13, 50, 52, 8, 50, 13, 49, 54, 13, 49, 48, 13, 50, 51, 13, 49, 57, 13, 49, 51, 13, 49, 52, 13], "trial": 4, "time_elapsed": 694516, "type": "DISTRACTOR", "trial_index": 133, "num1": [9, 2, 1, 2, 6, 3, 1, 7, 9, 5, 1, 6]}, "uniqueid": "MTK1314:37TD41K0AIGOB504UGB812SP88ACSO", "dateTime": 1515714239037}, {"current_trial": 134, "trialdata": {"rt": -1, "trial_type": "single-stim", "stimulus": "<p id=\"stim\">10</p>", "internal_node_id": "0.0-98.0-0.0", "time_elapsed": 697522, "key_press": -1, "trial_index": 134}, "uniqueid": "MTK1314:37TD41K0AIGOB504UGB812SP88ACSO", "dateTime": 1515714242043}, {"current_trial": 135, "trialdata": {"rt": -1, "trial_type": "single-stim", "stimulus": "<p id=\"stim\">9</p>", "internal_node_id": "0.0-98.0-1.0", "time_elapsed": 698526, "key_press": -1, "trial_index": 135}, "uniqueid": "MTK1314:37TD41K0AIGOB504UGB812SP88ACSO", "dateTime": 1515714243047}, {"current_trial": 136, "trialdata": {"rt": -1, "trial_type": "single-stim", "stimulus": "<p id=\"stim\">8</p>", "internal_node_id": "0.0-98.0-2.0", "time_elapsed": 699530, "key_press": -1, "trial_index": 136}, "uniqueid": "MTK1314:37TD41K0AIGOB504UGB812SP88ACSO", "dateTime": 1515714244051}, {"current_trial": 137, "trialdata": {"rt": -1, "trial_type": "single-stim", "stimulus": "<p id=\"stim\">7</p>", "internal_node_id": "0.0-98.0-3.0", "time_elapsed": 700534, "key_press": -1, "trial_index": 137}, "uniqueid": "MTK1314:37TD41K0AIGOB504UGB812SP88ACSO", "dateTime": 1515714245055}, {"current_trial": 138, "trialdata": {"rt": -1, "trial_type": "single-stim", "stimulus": "<p id=\"stim\">6</p>", "internal_node_id": "0.0-98.0-4.0", "time_elapsed": 701539, "key_press": -1, "trial_index": 138}, "uniqueid": "MTK1314:37TD41K0AIGOB504UGB812SP88ACSO", "dateTime": 1515714246060}, {"current_trial": 139, "trialdata": {"rt": -1, "trial_type": "single-stim", "stimulus": "<p id=\"stim\">5</p>", "internal_node_id": "0.0-98.0-5.0", "time_elapsed": 702543, "key_press": -1, "trial_index": 139}, "uniqueid": "MTK1314:37TD41K0AIGOB504UGB812SP88ACSO", "dateTime": 1515714247064}, {"current_trial": 140, "trialdata": {"rt": -1, "trial_type": "single-stim", "stimulus": "<p id=\"stim\">4</p>", "internal_node_id": "0.0-98.0-6.0", "time_elapsed": 703547, "key_press": -1, "trial_index": 140}, "uniqueid": "MTK1314:37TD41K0AIGOB504UGB812SP88ACSO", "dateTime": 1515714248068}, {"current_trial": 141, "trialdata": {"rt": -1, "trial_type": "single-stim", "stimulus": "<p id=\"stim\">3</p>", "internal_node_id": "0.0-98.0-7.0", "time_elapsed": 704551, "key_press": -1, "trial_index": 141}, "uniqueid": "MTK1314:37TD41K0AIGOB504UGB812SP88ACSO", "dateTime": 1515714249072}, {"current_trial": 142, "trialdata": {"rt": -1, "trial_type": "single-stim", "stimulus": "<p id=\"stim\">2</p>", "internal_node_id": "0.0-98.0-8.0", "time_elapsed": 705555, "key_press": -1, "trial_index": 142}, "uniqueid": "MTK1314:37TD41K0AIGOB504UGB812SP88ACSO", "dateTime": 1515714250076}, {"current_trial": 143, "trialdata": {"rt": -1, "trial_type": "single-stim", "stimulus": "<p id=\"stim\">1</p>", "internal_node_id": "0.0-98.0-9.0", "time_elapsed": 706560, "key_press": -1, "trial_index": 143}, "uniqueid": "MTK1314:37TD41K0AIGOB504UGB812SP88ACSO", "dateTime": 1515714251081}, {"current_trial": 144, "trialdata": {"rt": -1, "trial_type": "single-stim", "stimulus": "<p id=\"stim\">+</p>", "internal_node_id": "0.0-99.0-0.0", "time_elapsed": 708062, "key_press": -1, "type": "FIXATION", "trial_index": 144}, "uniqueid": "MTK1314:37TD41K0AIGOB504UGB812SP88ACSO", "dateTime": 1515714252583}, {"current_trial": 145, "trialdata": {"rt": -1000, "trial_type": "single-audio", "word": "custard", "stimulus": "/static/audio/wordpool/CUSTARD.wav", "conditions": [12, 1600, "a", 24000], "internal_node_id": "0.0-100.0", "trial": 4, "time_elapsed": 710592, "serialpos": 0, "key_press": -1, "wordID": 428, "type": "PRES_AUD", "trial_index": 145}, "uniqueid": "MTK1314:37TD41K0AIGOB504UGB812SP88ACSO", "dateTime": 1515714255113}, {"current_trial": 146, "trialdata": {"rt": -1000, "trial_type": "single-audio", "word": "bison", "stimulus": "/static/audio/wordpool/BISON.wav", "conditions": [12, 1600, "a", 24000], "internal_node_id": "0.0-101.0", "trial": 4, "time_elapsed": 713111, "serialpos": 1, "key_press": -1, "wordID": 130, "type": "PRES_AUD", "trial_index": 146}, "uniqueid": "MTK1314:37TD41K0AIGOB504UGB812SP88ACSO", "dateTime": 1515714257632}, {"current_trial": 147, "trialdata": {"rt": -1000, "trial_type": "single-audio", "word": "lamp", "stimulus": "/static/audio/wordpool/LAMP.wav", "conditions": [12, 1600, "a", 24000], "internal_node_id": "0.0-102.0", "trial": 4, "time_elapsed": 715596, "serialpos": 2, "key_press": -1, "wordID": 797, "type": "PRES_AUD", "trial_index": 147}, "uniqueid": "MTK1314:37TD41K0AIGOB504UGB812SP88ACSO", "dateTime": 1515714260117}, {"current_trial": 148, "trialdata": {"rt": -1000, "trial_type": "single-audio", "word": "rabbit", "stimulus": "/static/audio/wordpool/RABBIT.wav", "conditions": [12, 1600, "a", 24000], "internal_node_id": "0.0-103.0", "trial": 4, "time_elapsed": 718017, "serialpos": 3, "key_press": -1, "wordID": 1151, "type": "PRES_AUD", "trial_index": 148}, "uniqueid": "MTK1314:37TD41K0AIGOB504UGB812SP88ACSO", "dateTime": 1515714262538}, {"current_trial": 149, "trialdata": {"rt": -1000, "trial_type": "single-audio", "word": "cupboard", "stimulus": "/static/audio/wordpool/CUPBOARD.wav", "conditions": [12, 1600, "a", 24000], "internal_node_id": "0.0-104.0", "trial": 4, "time_elapsed": 720757, "serialpos": 4, "key_press": -1, "wordID": 424, "type": "PRES_AUD", "trial_index": 149}, "uniqueid": "MTK1314:37TD41K0AIGOB504UGB812SP88ACSO", "dateTime": 1515714265278}, {"current_trial": 150, "trialdata": {"rt": -1000, "trial_type": "single-audio", "word": "dresser", "stimulus": "/static/audio/wordpool/DRESSER.wav", "conditions": [12, 1600, "a", 24000], "internal_node_id": "0.0-105.0", "trial": 4, "time_elapsed": 723369, "serialpos": 5, "key_press": -1, "wordID": 495, "type": "PRES_AUD", "trial_index": 150}, "uniqueid": "MTK1314:37TD41K0AIGOB504UGB812SP88ACSO", "dateTime": 1515714267890}, {"current_trial": 151, "trialdata": {"rt": -1000, "trial_type": "single-audio", "word": "blade", "stimulus": "/static/audio/wordpool/BLADE.wav", "conditions": [12, 1600, "a", 24000], "internal_node_id": "0.0-106.0", "trial": 4, "time_elapsed": 726080, "serialpos": 6, "key_press": -1, "wordID": 133, "type": "PRES_AUD", "trial_index": 151}, "uniqueid": "MTK1314:37TD41K0AIGOB504UGB812SP88ACSO", "dateTime": 1515714270601}, {"current_trial": 152, "trialdata": {"rt": -1000, "trial_type": "single-audio", "word": "camel", "stimulus": "/static/audio/wordpool/CAMEL.wav", "conditions": [12, 1600, "a", 24000], "internal_node_id": "0.0-107.0", "trial": 4, "time_elapsed": 728564, "serialpos": 7, "key_press": -1, "wordID": 222, "type": "PRES_AUD", "trial_index": 152}, "uniqueid": "MTK1314:37TD41K0AIGOB504UGB812SP88ACSO", "dateTime": 1515714273086}, {"current_trial": 153, "trialdata": {"rt": -1000, "trial_type": "single-audio", "word": "possum", "stimulus": "/static/audio/wordpool/POSSUM.wav", "conditions": [12, 1600, "a", 24000], "internal_node_id": "0.0-108.0", "trial": 4, "time_elapsed": 731333, "serialpos": 8, "key_press": -1, "wordID": 1111, "type": "PRES_AUD", "trial_index": 153}, "uniqueid": "MTK1314:37TD41K0AIGOB504UGB812SP88ACSO", "dateTime": 1515714275854}, {"current_trial": 154, "trialdata": {"rt": -1000, "trial_type": "single-audio", "word": "muffin", "stimulus": "/static/audio/wordpool/MUFFIN.wav", "conditions": [12, 1600, "a", 24000], "internal_node_id": "0.0-109.0", "trial": 4, "time_elapsed": 734027, "serialpos": 9, "key_press": -1, "wordID": 928, "type": "PRES_AUD", "trial_index": 154}, "uniqueid": "MTK1314:37TD41K0AIGOB504UGB812SP88ACSO", "dateTime": 1515714278548}, {"current_trial": 155, "trialdata": {"rt": -1000, "trial_type": "single-audio", "word": "plaster", "stimulus": "/static/audio/wordpool/PLASTER.wav", "conditions": [12, 1600, "a", 24000], "internal_node_id": "0.0-110.0", "trial": 4, "time_elapsed": 736825, "serialpos": 10, "key_press": -1, "wordID": 1084, "type": "PRES_AUD", "trial_index": 155}, "uniqueid": "MTK1314:37TD41K0AIGOB504UGB812SP88ACSO", "dateTime": 1515714281346}, {"current_trial": 156, "trialdata": {"rt": -1000, "trial_type": "single-audio", "word": "glass", "stimulus": "/static/audio/wordpool/GLASS.wav", "conditions": [12, 1600, "a", 24000], "internal_node_id": "0.0-111.0", "trial": 4, "time_elapsed": 739606, "serialpos": 11, "key_press": -1, "wordID": 638, "type": "PRES_AUD", "trial_index": 156}, "uniqueid": "MTK1314:37TD41K0AIGOB504UGB812SP88ACSO", "dateTime": 1515714284127}, {"current_trial": 157, "trialdata": {"rt": -1, "trial_type": "single-stim", "stimulus": "", "internal_node_id": "0.0-112.0-0.0", "time_elapsed": 740843, "key_press": -1, "type": "PRE_RECALL_DELAY", "trial_index": 157}, "uniqueid": "MTK1314:37TD41K0AIGOB504UGB812SP88ACSO", "dateTime": 1515714285364}, {"current_trial": 158, "trialdata": {"rt": -1000, "trial_type": "single-audio", "stimulus": "/static/audio/400Hz.wav", "internal_node_id": "0.0-113.0", "time_elapsed": 741344, "key_press": -1, "type": "PRE_RECALL_ALERT", "trial_index": 158}, "uniqueid": "MTK1314:37TD41K0AIGOB504UGB812SP88ACSO", "dateTime": 1515714285865}, {"current_trial": 159, "trialdata": {"rt": [1523, 2438, 3297, 7729, 56866], "recwords": ["muffin", "plaster", "glass", "custard", "blade"], "key_times": [673, 925, 1088, 1225, 1305, 1370, 1523, 1723, 1807, 1910, 1939, 2140, 2310, 2373, 2438, 2608, 2709, 2883, 2918, 3132, 3297, 6772, 6888, 6969, 7173, 7351, 7469, 7641, 7729, 56188, 56240, 56313, 56425, 56481, 56866], "trial_type": "free-recall", "conditions": [12, 1600, "a", 24000], "internal_node_id": "0.0-114.0-0.0", "key_presses": [77, 85, 70, 70, 73, 78, 13, 80, 76, 65, 83, 84, 69, 82, 13, 71, 76, 65, 83, 83, 13, 67, 85, 83, 84, 65, 82, 68, 13, 66, 76, 65, 68, 69, 13], "trial": 4, "time_elapsed": 801352, "type": "FREE_RECALL", "trial_index": 159}, "uniqueid": "MTK1314:37TD41K0AIGOB504UGB812SP88ACSO", "dateTime": 1515714345876}, {"current_trial": 160, "trialdata": {"rt": 1660, "trial_type": "text", "internal_node_id": "0.0-115.0", "time_elapsed": 805020, "key_press": 32, "type": "INSTRUCTIONS", "trial_index": 160}, "uniqueid": "MTK1314:37TD41K0AIGOB504UGB812SP88ACSO", "dateTime": 1515714349541}, {"current_trial": 161, "trialdata": {"rt": [4148, 6099, 9047, 11448, 13656, 17324, 18843, 20178, 23957], "trial_type": "math-distractor", "key_times": [3866, 3906, 4148, 5784, 5905, 6099, 8681, 8761, 9047, 11095, 11360, 11448, 13240, 13312, 13656, 16915, 17065, 17324, 18297, 18494, 18843, 19895, 19971, 20178, 23619, 23863, 23957], "responses": ["20", "18", "15", "14", "20", "16", "15", "10", "24"], "num2": [7, 9, 3, 3, 6, 6, 5, 1, 6, 7], "num3": [8, 8, 8, 9, 5, 4, 5, 8, 9, 3], "conditions": [24, 800, "a", 24000], "internal_node_id": "0.0-116.0", "key_presses": [50, 48, 13, 49, 56, 13, 49, 53, 13, 49, 52, 13, 50, 48, 13, 49, 54, 13, 49, 53, 13, 49, 48, 13, 50, 52, 13], "trial": 5, "time_elapsed": 831029, "type": "DISTRACTOR", "trial_index": 161, "num1": [5, 1, 4, 2, 9, 6, 5, 1, 9, 8]}, "uniqueid": "MTK1314:37TD41K0AIGOB504UGB812SP88ACSO", "dateTime": 1515714375550}, {"current_trial": 162, "trialdata": {"rt": -1, "trial_type": "single-stim", "stimulus": "<p id=\"stim\">10</p>", "internal_node_id": "0.0-117.0-0.0", "time_elapsed": 834035, "key_press": -1, "trial_index": 162}, "uniqueid": "MTK1314:37TD41K0AIGOB504UGB812SP88ACSO", "dateTime": 1515714378556}, {"current_trial": 163, "trialdata": {"rt": -1, "trial_type": "single-stim", "stimulus": "<p id=\"stim\">9</p>", "internal_node_id": "0.0-117.0-1.0", "time_elapsed": 835039, "key_press": -1, "trial_index": 163}, "uniqueid": "MTK1314:37TD41K0AIGOB504UGB812SP88ACSO", "dateTime": 1515714379560}, {"current_trial": 164, "trialdata": {"rt": -1, "trial_type": "single-stim", "stimulus": "<p id=\"stim\">8</p>", "internal_node_id": "0.0-117.0-2.0", "time_elapsed": 836043, "key_press": -1, "trial_index": 164}, "uniqueid": "MTK1314:37TD41K0AIGOB504UGB812SP88ACSO", "dateTime": 1515714380564}, {"current_trial": 165, "trialdata": {"rt": -1, "trial_type": "single-stim", "stimulus": "<p id=\"stim\">7</p>", "internal_node_id": "0.0-117.0-3.0", "time_elapsed": 837047, "key_press": -1, "trial_index": 165}, "uniqueid": "MTK1314:37TD41K0AIGOB504UGB812SP88ACSO", "dateTime": 1515714381568}, {"current_trial": 166, "trialdata": {"rt": -1, "trial_type": "single-stim", "stimulus": "<p id=\"stim\">6</p>", "internal_node_id": "0.0-117.0-4.0", "time_elapsed": 838051, "key_press": -1, "trial_index": 166}, "uniqueid": "MTK1314:37TD41K0AIGOB504UGB812SP88ACSO", "dateTime": 1515714382572}, {"current_trial": 167, "trialdata": {"rt": -1, "trial_type": "single-stim", "stimulus": "<p id=\"stim\">5</p>", "internal_node_id": "0.0-117.0-5.0", "time_elapsed": 839055, "key_press": -1, "trial_index": 167}, "uniqueid": "MTK1314:37TD41K0AIGOB504UGB812SP88ACSO", "dateTime": 1515714383576}, {"current_trial": 168, "trialdata": {"rt": -1, "trial_type": "single-stim", "stimulus": "<p id=\"stim\">4</p>", "internal_node_id": "0.0-117.0-6.0", "time_elapsed": 840059, "key_press": -1, "trial_index": 168}, "uniqueid": "MTK1314:37TD41K0AIGOB504UGB812SP88ACSO", "dateTime": 1515714384580}, {"current_trial": 169, "trialdata": {"rt": -1, "trial_type": "single-stim", "stimulus": "<p id=\"stim\">3</p>", "internal_node_id": "0.0-117.0-7.0", "time_elapsed": 841064, "key_press": -1, "trial_index": 169}, "uniqueid": "MTK1314:37TD41K0AIGOB504UGB812SP88ACSO", "dateTime": 1515714385585}, {"current_trial": 170, "trialdata": {"rt": -1, "trial_type": "single-stim", "stimulus": "<p id=\"stim\">2</p>", "internal_node_id": "0.0-117.0-8.0", "time_elapsed": 842068, "key_press": -1, "trial_index": 170}, "uniqueid": "MTK1314:37TD41K0AIGOB504UGB812SP88ACSO", "dateTime": 1515714386589}, {"current_trial": 171, "trialdata": {"rt": -1, "trial_type": "single-stim", "stimulus": "<p id=\"stim\">1</p>", "internal_node_id": "0.0-117.0-9.0", "time_elapsed": 843072, "key_press": -1, "trial_index": 171}, "uniqueid": "MTK1314:37TD41K0AIGOB504UGB812SP88ACSO", "dateTime": 1515714387593}, {"current_trial": 172, "trialdata": {"rt": -1, "trial_type": "single-stim", "stimulus": "<p id=\"stim\">+</p>", "internal_node_id": "0.0-118.0-0.0", "time_elapsed": 844575, "key_press": -1, "type": "FIXATION", "trial_index": 172}, "uniqueid": "MTK1314:37TD41K0AIGOB504UGB812SP88ACSO", "dateTime": 1515714389096}, {"current_trial": 173, "trialdata": {"rt": -1000, "trial_type": "single-audio", "word": "finger", "stimulus": "/static/audio/wordpool/FINGER.wav", "conditions": [24, 800, "a", 24000], "internal_node_id": "0.0-119.0", "trial": 5, "time_elapsed": 846559, "serialpos": 0, "key_press": -1, "wordID": 566, "type": "PRES_AUD", "trial_index": 173}, "uniqueid": "MTK1314:37TD41K0AIGOB504UGB812SP88ACSO", "dateTime": 1515714391080}, {"current_trial": 174, "trialdata": {"rt": -1000, "trial_type": "single-audio", "word": "worker", "stimulus": "/static/audio/wordpool/WORKER.wav", "conditions": [24, 800, "a", 24000], "internal_node_id": "0.0-120.0", "trial": 5, "time_elapsed": 848353, "serialpos": 1, "key_press": -1, "wordID": 1620, "type": "PRES_AUD", "trial_index": 174}, "uniqueid": "MTK1314:37TD41K0AIGOB504UGB812SP88ACSO", "dateTime": 1515714392874}, {"current_trial": 175, "trialdata": {"rt": -1000, "trial_type": "single-audio", "word": "lover", "stimulus": "/static/audio/wordpool/LOVER.wav", "conditions": [24, 800, "a", 24000], "internal_node_id": "0.0-121.0", "trial": 5, "time_elapsed": 850338, "serialpos": 2, "key_press": -1, "wordID": 845, "type": "PRES_AUD", "trial_index": 175}, "uniqueid": "MTK1314:37TD41K0AIGOB504UGB812SP88ACSO", "dateTime": 1515714394860}, {"current_trial": 176, "trialdata": {"rt": -1000, "trial_type": "single-audio", "word": "sword", "stimulus": "/static/audio/wordpool/SWORD.wav", "conditions": [24, 800, "a", 24000], "internal_node_id": "0.0-122.0", "trial": 5, "time_elapsed": 852155, "serialpos": 3, "key_press": -1, "wordID": 1422, "type": "PRES_AUD", "trial_index": 176}, "uniqueid": "MTK1314:37TD41K0AIGOB504UGB812SP88ACSO", "dateTime": 1515714396677}, {"current_trial": 177, "trialdata": {"rt": -1000, "trial_type": "single-audio", "word": "proton", "stimulus": "/static/audio/wordpool/PROTON.wav", "conditions": [24, 800, "a", 24000], "internal_node_id": "0.0-123.0", "trial": 5, "time_elapsed": 853880, "serialpos": 4, "key_press": -1, "wordID": 1131, "type": "PRES_AUD", "trial_index": 177}, "uniqueid": "MTK1314:37TD41K0AIGOB504UGB812SP88ACSO", "dateTime": 1515714398401}, {"current_trial": 178, "trialdata": {"rt": -1000, "trial_type": "single-audio", "word": "shirt", "stimulus": "/static/audio/wordpool/SHIRT.wav", "conditions": [24, 800, "a", 24000], "internal_node_id": "0.0-124.0", "trial": 5, "time_elapsed": 855615, "serialpos": 5, "key_press": -1, "wordID": 1286, "type": "PRES_AUD", "trial_index": 178}, "uniqueid": "MTK1314:37TD41K0AIGOB504UGB812SP88ACSO", "dateTime": 1515714400136}, {"current_trial": 179, "trialdata": {"rt": -1000, "trial_type": "single-audio", "word": "blouse", "stimulus": "/static/audio/wordpool/BLOUSE.wav", "conditions": [24, 800, "a", 24000], "internal_node_id": "0.0-125.0", "trial": 5, "time_elapsed": 857589, "serialpos": 6, "key_press": -1, "wordID": 138, "type": "PRES_AUD", "trial_index": 179}, "uniqueid": "MTK1314:37TD41K0AIGOB504UGB812SP88ACSO", "dateTime": 1515714402110}, {"current_trial": 180, "trialdata": {"rt": -1000, "trial_type": "single-audio", "word": "blender", "stimulus": "/static/audio/wordpool/BLENDER.wav", "conditions": [24, 800, "a", 24000], "internal_node_id": "0.0-126.0", "trial": 5, "time_elapsed": 859356, "serialpos": 7, "key_press": -1, "wordID": 135, "type": "PRES_AUD", "trial_index": 180}, "uniqueid": "MTK1314:37TD41K0AIGOB504UGB812SP88ACSO", "dateTime": 1515714403877}, {"current_trial": 181, "trialdata": {"rt": -1000, "trial_type": "single-audio", "word": "sunset", "stimulus": "/static/audio/wordpool/SUNSET.wav", "conditions": [24, 800, "a", 24000], "internal_node_id": "0.0-127.0", "trial": 5, "time_elapsed": 861316, "serialpos": 8, "key_press": -1, "wordID": 1407, "type": "PRES_AUD", "trial_index": 181}, "uniqueid": "MTK1314:37TD41K0AIGOB504UGB812SP88ACSO", "dateTime": 1515714405837}, {"current_trial": 182, "trialdata": {"rt": -1000, "trial_type": "single-audio", "word": "comet", "stimulus": "/static/audio/wordpool/COMET.wav", "conditions": [24, 800, "a", 24000], "internal_node_id": "0.0-128.0", "trial": 5, "time_elapsed": 862975, "serialpos": 9, "key_press": -1, "wordID": 352, "type": "PRES_AUD", "trial_index": 182}, "uniqueid": "MTK1314:37TD41K0AIGOB504UGB812SP88ACSO", "dateTime": 1515714407496}, {"current_trial": 183, "trialdata": {"rt": -1000, "trial_type": "single-audio", "word": "iceberg", "stimulus": "/static/audio/wordpool/ICEBERG.wav", "conditions": [24, 800, "a", 24000], "internal_node_id": "0.0-129.0", "trial": 5, "time_elapsed": 864972, "serialpos": 10, "key_press": -1, "wordID": 730, "type": "PRES_AUD", "trial_index": 183}, "uniqueid": "MTK1314:37TD41K0AIGOB504UGB812SP88ACSO", "dateTime": 1515714409494}, {"current_trial": 184, "trialdata": {"rt": -1000, "trial_type": "single-audio", "word": "wrist", "stimulus": "/static/audio/wordpool/WRIST.wav", "conditions": [24, 800, "a", 24000], "internal_node_id": "0.0-130.0", "trial": 5, "time_elapsed": 866671, "serialpos": 11, "key_press": -1, "wordID": 1625, "type": "PRES_AUD", "trial_index": 184}, "uniqueid": "MTK1314:37TD41K0AIGOB504UGB812SP88ACSO", "dateTime": 1515714411192}, {"current_trial": 185, "trialdata": {"rt": -1000, "trial_type": "single-audio", "word": "empire", "stimulus": "/static/audio/wordpool/EMPIRE.wav", "conditions": [24, 800, "a", 24000], "internal_node_id": "0.0-131.0", "trial": 5, "time_elapsed": 868416, "serialpos": 12, "key_press": -1, "wordID": 529, "type": "PRES_AUD", "trial_index": 185}, "uniqueid": "MTK1314:37TD41K0AIGOB504UGB812SP88ACSO", "dateTime": 1515714412937}, {"current_trial": 186, "trialdata": {"rt": -1000, "trial_type": "single-audio", "word": "office", "stimulus": "/static/audio/wordpool/OFFICE.wav", "conditions": [24, 800, "a", 24000], "internal_node_id": "0.0-132.0", "trial": 5, "time_elapsed": 870064, "serialpos": 13, "key_press": -1, "wordID": 971, "type": "PRES_AUD", "trial_index": 186}, "uniqueid": "MTK1314:37TD41K0AIGOB504UGB812SP88ACSO", "dateTime": 1515714414585}, {"current_trial": 187, "trialdata": {"rt": -1000, "trial_type": "single-audio", "word": "seagull", "stimulus": "/static/audio/wordpool/SEAGULL.wav", "conditions": [24, 800, "a", 24000], "internal_node_id": "0.0-133.0", "trial": 5, "time_elapsed": 871672, "serialpos": 14, "key_press": -1, "wordID": 1260, "type": "PRES_AUD", "trial_index": 187}, "uniqueid": "MTK1314:37TD41K0AIGOB504UGB812SP88ACSO", "dateTime": 1515714416193}, {"current_trial": 188, "trialdata": {"rt": -1000, "trial_type": "single-audio", "word": "powder", "stimulus": "/static/audio/wordpool/POWDER.wav", "conditions": [24, 800, "a", 24000], "internal_node_id": "0.0-134.0", "trial": 5, "time_elapsed": 873408, "serialpos": 15, "key_press": -1, "wordID": 1116, "type": "PRES_AUD", "trial_index": 188}, "uniqueid": "MTK1314:37TD41K0AIGOB504UGB812SP88ACSO", "dateTime": 1515714417929}, {"current_trial": 189, "trialdata": {"rt": -1000, "trial_type": "single-audio", "word": "pistol", "stimulus": "/static/audio/wordpool/PISTOL.wav", "conditions": [24, 800, "a", 24000], "internal_node_id": "0.0-135.0", "trial": 5, "time_elapsed": 875280, "serialpos": 16, "key_press": -1, "wordID": 1074, "type": "PRES_AUD", "trial_index": 189}, "uniqueid": "MTK1314:37TD41K0AIGOB504UGB812SP88ACSO", "dateTime": 1515714419801}, {"current_trial": 190, "trialdata": {"rt": -1000, "trial_type": "single-audio", "word": "knife", "stimulus": "/static/audio/wordpool/KNIFE.wav", "conditions": [24, 800, "a", 24000], "internal_node_id": "0.0-136.0", "trial": 5, "time_elapsed": 876955, "serialpos": 17, "key_press": -1, "wordID": 784, "type": "PRES_AUD", "trial_index": 190}, "uniqueid": "MTK1314:37TD41K0AIGOB504UGB812SP88ACSO", "dateTime": 1515714421476}, {"current_trial": 191, "trialdata": {"rt": -1000, "trial_type": "single-audio", "word": "peanut", "stimulus": "/static/audio/wordpool/PEANUT.wav", "conditions": [24, 800, "a", 24000], "internal_node_id": "0.0-137.0", "trial": 5, "time_elapsed": 878830, "serialpos": 18, "key_press": -1, "wordID": 1031, "type": "PRES_AUD", "trial_index": 191}, "uniqueid": "MTK1314:37TD41K0AIGOB504UGB812SP88ACSO", "dateTime": 1515714423351}, {"current_trial": 192, "trialdata": {"rt": -1000, "trial_type": "single-audio", "word": "drawing", "stimulus": "/static/audio/wordpool/DRAWING.wav", "conditions": [24, 800, "a", 24000], "internal_node_id": "0.0-138.0", "trial": 5, "time_elapsed": 880815, "serialpos": 19, "key_press": -1, "wordID": 493, "type": "PRES_AUD", "trial_index": 192}, "uniqueid": "MTK1314:37TD41K0AIGOB504UGB812SP88ACSO", "dateTime": 1515714425337}, {"current_trial": 193, "trialdata": {"rt": -1000, "trial_type": "single-audio", "word": "sandwich", "stimulus": "/static/audio/wordpool/SANDWICH.wav", "conditions": [24, 800, "a", 24000], "internal_node_id": "0.0-139.0", "trial": 5, "time_elapsed": 882586, "serialpos": 20, "key_press": -1, "wordID": 1231, "type": "PRES_AUD", "trial_index": 193}, "uniqueid": "MTK1314:37TD41K0AIGOB504UGB812SP88ACSO", "dateTime": 1515714427107}, {"current_trial": 194, "trialdata": {"rt": -1000, "trial_type": "single-audio", "word": "shovel", "stimulus": "/static/audio/wordpool/SHOVEL.wav", "conditions": [24, 800, "a", 24000], "internal_node_id": "0.0-140.0", "trial": 5, "time_elapsed": 884484, "serialpos": 21, "key_press": -1, "wordID": 1294, "type": "PRES_AUD", "trial_index": 194}, "uniqueid": "MTK1314:37TD41K0AIGOB504UGB812SP88ACSO", "dateTime": 1515714429005}, {"current_trial": 195, "trialdata": {"rt": -1000, "trial_type": "single-audio", "word": "crutch", "stimulus": "/static/audio/wordpool/CRUTCH.wav", "conditions": [24, 800, "a", 24000], "internal_node_id": "0.0-141.0", "trial": 5, "time_elapsed": 886214, "serialpos": 22, "key_press": -1, "wordID": 416, "type": "PRES_AUD", "trial_index": 195}, "uniqueid": "MTK1314:37TD41K0AIGOB504UGB812SP88ACSO", "dateTime": 1515714430735}, {"current_trial": 196, "trialdata": {"rt": -1000, "trial_type": "single-audio", "word": "diner", "stimulus": "/static/audio/wordpool/DINER.wav", "conditions": [24, 800, "a", 24000], "internal_node_id": "0.0-142.0", "trial": 5, "time_elapsed": 888108, "serialpos": 23, "key_press": -1, "wordID": 466, "type": "PRES_AUD", "trial_index": 196}, "uniqueid": "MTK1314:37TD41K0AIGOB504UGB812SP88ACSO", "dateTime": 1515714432629}, {"current_trial": 197, "trialdata": {"rt": -1, "trial_type": "single-stim", "stimulus": "", "internal_node_id": "0.0-143.0-0.0", "time_elapsed": 889445, "key_press": -1, "type": "PRE_RECALL_DELAY", "trial_index": 197}, "uniqueid": "MTK1314:37TD41K0AIGOB504UGB812SP88ACSO", "dateTime": 1515714433966}, {"current_trial": 198, "trialdata": {"rt": -1000, "trial_type": "single-audio", "stimulus": "/static/audio/400Hz.wav", "internal_node_id": "0.0-144.0", "time_elapsed": 889947, "key_press": -1, "type": "PRE_RECALL_ALERT", "trial_index": 198}, "uniqueid": "MTK1314:37TD41K0AIGOB504UGB812SP88ACSO", "dateTime": 1515714434468}, {"current_trial": 199, "trialdata": {"rt": [1237, 3118, 4013, 5462, 6679, 13066, 34055, 37896], "recwords": ["diner", "drawing", "office", "peanut", "shovel", "empire", "finger", "worker"], "key_times": [738, 824, 908, 1027, 1092, 1237, 1526, 1729, 1950, 2596, 2708, 2804, 2888, 3118, 3367, 3435, 3575, 3708, 3865, 3941, 4013, 4750, 4842, 4997, 5138, 5198, 5368, 5462, 5937, 6012, 6096, 6197, 6359, 6439, 6679, 12552, 12623, 12715, 12795, 12879, 12954, 13066, 33513, 33603, 33686, 33730, 33907, 33967, 34055, 37372, 37440, 37553, 37625, 37760, 37821, 37896], "trial_type": "free-recall", "conditions": [24, 800, "a", 24000], "internal_node_id": "0.0-145.0-0.0", "key_presses": [68, 73, 78, 69, 82, 13, 68, 82, 65, 87, 73, 78, 71, 13, 79, 70, 70, 73, 67, 69, 13, 80, 69, 65, 78, 85, 84, 13, 83, 72, 79, 86, 69, 76, 13, 69, 77, 80, 73, 82, 69, 13, 70, 73, 78, 71, 69, 82, 13, 87, 79, 82, 75, 69, 82, 13], "trial": 5, "time_elapsed": 949951, "type": "FREE_RECALL", "trial_index": 199}, "uniqueid": "MTK1314:37TD41K0AIGOB504UGB812SP88ACSO", "dateTime": 1515714494478}, {"current_trial": 200, "trialdata": {"rt": 949, "trial_type": "text", "internal_node_id": "0.0-146.0", "time_elapsed": 952909, "key_press": 32, "type": "INSTRUCTIONS", "trial_index": 200}, "uniqueid": "MTK1314:37TD41K0AIGOB504UGB812SP88ACSO", "dateTime": 1515714497430}, {"current_trial": 201, "trialdata": {"rt": [2057, 4846, 8091, 10676], "trial_type": "math-distractor", "key_times": [1586, 1651, 2057, 4682, 4746, 4846, 7593, 7826, 8091, 10407, 10483, 10676], "responses": ["10", "13", "18", "12"], "num2": [2, 7, 9, 1, 9], "num3": [6, 1, 6, 6, 7], "conditions": [24, 800, "a", 12000], "internal_node_id": "0.0-147.0", "key_presses": [49, 48, 13, 49, 51, 13, 49, 56, 13, 49, 50, 13], "trial": 6, "time_elapsed": 966917, "type": "DISTRACTOR", "trial_index": 201, "num1": [2, 5, 3, 5, 2]}, "uniqueid": "MTK1314:37TD41K0AIGOB504UGB812SP88ACSO", "dateTime": 1515714511438}, {"current_trial": 202, "trialdata": {"rt": -1, "trial_type": "single-stim", "stimulus": "<p id=\"stim\">10</p>", "internal_node_id": "0.0-148.0-0.0", "time_elapsed": 969923, "key_press": -1, "trial_index": 202}, "uniqueid": "MTK1314:37TD41K0AIGOB504UGB812SP88ACSO", "dateTime": 1515714514444}, {"current_trial": 203, "trialdata": {"rt": -1, "trial_type": "single-stim", "stimulus": "<p id=\"stim\">9</p>", "internal_node_id": "0.0-148.0-1.0", "time_elapsed": 970927, "key_press": -1, "trial_index": 203}, "uniqueid": "MTK1314:37TD41K0AIGOB504UGB812SP88ACSO", "dateTime": 1515714515448}, {"current_trial": 204, "trialdata": {"rt": -1, "trial_type": "single-stim", "stimulus": "<p id=\"stim\">8</p>", "internal_node_id": "0.0-148.0-2.0", "time_elapsed": 971931, "key_press": -1, "trial_index": 204}, "uniqueid": "MTK1314:37TD41K0AIGOB504UGB812SP88ACSO", "dateTime": 1515714516452}, {"current_trial": 205, "trialdata": {"rt": -1, "trial_type": "single-stim", "stimulus": "<p id=\"stim\">7</p>", "internal_node_id": "0.0-148.0-3.0", "time_elapsed": 972933, "key_press": -1, "trial_index": 205}, "uniqueid": "MTK1314:37TD41K0AIGOB504UGB812SP88ACSO", "dateTime": 1515714517454}, {"current_trial": 206, "trialdata": {"rt": -1, "trial_type": "single-stim", "stimulus": "<p id=\"stim\">6</p>", "internal_node_id": "0.0-148.0-4.0", "time_elapsed": 973938, "key_press": -1, "trial_index": 206}, "uniqueid": "MTK1314:37TD41K0AIGOB504UGB812SP88ACSO", "dateTime": 1515714518459}, {"current_trial": 207, "trialdata": {"rt": -1, "trial_type": "single-stim", "stimulus": "<p id=\"stim\">5</p>", "internal_node_id": "0.0-148.0-5.0", "time_elapsed": 974943, "key_press": -1, "trial_index": 207}, "uniqueid": "MTK1314:37TD41K0AIGOB504UGB812SP88ACSO", "dateTime": 1515714519464}, {"current_trial": 208, "trialdata": {"rt": -1, "trial_type": "single-stim", "stimulus": "<p id=\"stim\">4</p>", "internal_node_id": "0.0-148.0-6.0", "time_elapsed": 975948, "key_press": -1, "trial_index": 208}, "uniqueid": "MTK1314:37TD41K0AIGOB504UGB812SP88ACSO", "dateTime": 1515714520469}, {"current_trial": 209, "trialdata": {"rt": -1, "trial_type": "single-stim", "stimulus": "<p id=\"stim\">3</p>", "internal_node_id": "0.0-148.0-7.0", "time_elapsed": 976951, "key_press": -1, "trial_index": 209}, "uniqueid": "MTK1314:37TD41K0AIGOB504UGB812SP88ACSO", "dateTime": 1515714521473}, {"current_trial": 210, "trialdata": {"rt": -1, "trial_type": "single-stim", "stimulus": "<p id=\"stim\">2</p>", "internal_node_id": "0.0-148.0-8.0", "time_elapsed": 977956, "key_press": -1, "trial_index": 210}, "uniqueid": "MTK1314:37TD41K0AIGOB504UGB812SP88ACSO", "dateTime": 1515714522477}, {"current_trial": 211, "trialdata": {"rt": -1, "trial_type": "single-stim", "stimulus": "<p id=\"stim\">1</p>", "internal_node_id": "0.0-148.0-9.0", "time_elapsed": 978960, "key_press": -1, "trial_index": 211}, "uniqueid": "MTK1314:37TD41K0AIGOB504UGB812SP88ACSO", "dateTime": 1515714523481}, {"current_trial": 212, "trialdata": {"rt": -1, "trial_type": "single-stim", "stimulus": "<p id=\"stim\">+</p>", "internal_node_id": "0.0-149.0-0.0", "time_elapsed": 980463, "key_press": -1, "type": "FIXATION", "trial_index": 212}, "uniqueid": "MTK1314:37TD41K0AIGOB504UGB812SP88ACSO", "dateTime": 1515714524984}, {"current_trial": 213, "trialdata": {"rt": -1000, "trial_type": "single-audio", "word": "husband", "stimulus": "/static/audio/wordpool/HUSBAND.wav", "conditions": [24, 800, "a", 12000], "internal_node_id": "0.0-150.0", "trial": 6, "time_elapsed": 982350, "serialpos": 0, "key_press": -1, "wordID": 727, "type": "PRES_AUD", "trial_index": 213}, "uniqueid": "MTK1314:37TD41K0AIGOB504UGB812SP88ACSO", "dateTime": 1515714526871}, {"current_trial": 214, "trialdata": {"rt": -1000, "trial_type": "single-audio", "word": "bubble", "stimulus": "/static/audio/wordpool/BUBBLE.wav", "conditions": [24, 800, "a", 12000], "internal_node_id": "0.0-151.0", "trial": 6, "time_elapsed": 984149, "serialpos": 1, "key_press": -1, "wordID": 182, "type": "PRES_AUD", "trial_index": 214}, "uniqueid": "MTK1314:37TD41K0AIGOB504UGB812SP88ACSO", "dateTime": 1515714528671}, {"current_trial": 215, "trialdata": {"rt": -1000, "trial_type": "single-audio", "word": "picnic", "stimulus": "/static/audio/wordpool/PICNIC.wav", "conditions": [24, 800, "a", 12000], "internal_node_id": "0.0-152.0", "trial": 6, "time_elapsed": 985879, "serialpos": 2, "key_press": -1, "wordID": 1059, "type": "PRES_AUD", "trial_index": 215}, "uniqueid": "MTK1314:37TD41K0AIGOB504UGB812SP88ACSO", "dateTime": 1515714530401}, {"current_trial": 216, "trialdata": {"rt": -1000, "trial_type": "single-audio", "word": "supper", "stimulus": "/static/audio/wordpool/SUPPER.wav", "conditions": [24, 800, "a", 12000], "internal_node_id": "0.0-153.0", "trial": 6, "time_elapsed": 987847, "serialpos": 3, "key_press": -1, "wordID": 1410, "type": "PRES_AUD", "trial_index": 216}, "uniqueid": "MTK1314:37TD41K0AIGOB504UGB812SP88ACSO", "dateTime": 1515714532371}, {"current_trial": 217, "trialdata": {"rt": -1000, "trial_type": "single-audio", "word": "marker", "stimulus": "/static/audio/wordpool/MARKER.wav", "conditions": [24, 800, "a", 12000], "internal_node_id": "0.0-154.0", "trial": 6, "time_elapsed": 989740, "serialpos": 4, "key_press": -1, "wordID": 869, "type": "PRES_AUD", "trial_index": 217}, "uniqueid": "MTK1314:37TD41K0AIGOB504UGB812SP88ACSO", "dateTime": 1515714534261}, {"current_trial": 218, "trialdata": {"rt": -1000, "trial_type": "single-audio", "word": "uncle", "stimulus": "/static/audio/wordpool/UNCLE.wav", "conditions": [24, 800, "a", 12000], "internal_node_id": "0.0-155.0", "trial": 6, "time_elapsed": 991621, "serialpos": 5, "key_press": -1, "wordID": 1535, "type": "PRES_AUD", "trial_index": 218}, "uniqueid": "MTK1314:37TD41K0AIGOB504UGB812SP88ACSO", "dateTime": 1515714536142}, {"current_trial": 219, "trialdata": {"rt": -1000, "trial_type": "single-audio", "word": "cigar", "stimulus": "/static/audio/wordpool/CIGAR.wav", "conditions": [24, 800, "a", 12000], "internal_node_id": "0.0-156.0", "trial": 6, "time_elapsed": 993430, "serialpos": 6, "key_press": -1, "wordID": 307, "type": "PRES_AUD", "trial_index": 219}, "uniqueid": "MTK1314:37TD41K0AIGOB504UGB812SP88ACSO", "dateTime": 1515714537951}, {"current_trial": 220, "trialdata": {"rt": -1000, "trial_type": "single-audio", "word": "pecan", "stimulus": "/static/audio/wordpool/PECAN.wav", "conditions": [24, 800, "a", 12000], "internal_node_id": "0.0-157.0", "trial": 6, "time_elapsed": 995283, "serialpos": 7, "key_press": -1, "wordID": 1035, "type": "PRES_AUD", "trial_index": 220}, "uniqueid": "MTK1314:37TD41K0AIGOB504UGB812SP88ACSO", "dateTime": 1515714539804}, {"current_trial": 221, "trialdata": {"rt": -1000, "trial_type": "single-audio", "word": "mailbox", "stimulus": "/static/audio/wordpool/MAILBOX.wav", "conditions": [24, 800, "a", 12000], "internal_node_id": "0.0-158.0", "trial": 6, "time_elapsed": 996898, "serialpos": 8, "key_press": -1, "wordID": 856, "type": "PRES_AUD", "trial_index": 221}, "uniqueid": "MTK1314:37TD41K0AIGOB504UGB812SP88ACSO", "dateTime": 1515714541419}, {"current_trial": 222, "trialdata": {"rt": -1000, "trial_type": "single-audio", "word": "notebook", "stimulus": "/static/audio/wordpool/NOTEBOOK.wav", "conditions": [24, 800, "a", 12000], "internal_node_id": "0.0-159.0", "trial": 6, "time_elapsed": 998825, "serialpos": 9, "key_press": -1, "wordID": 958, "type": "PRES_AUD", "trial_index": 222}, "uniqueid": "MTK1314:37TD41K0AIGOB504UGB812SP88ACSO", "dateTime": 1515714543346}, {"current_trial": 223, "trialdata": {"rt": -1000, "trial_type": "single-audio", "word": "market", "stimulus": "/static/audio/wordpool/MARKET.wav", "conditions": [24, 800, "a", 12000], "internal_node_id": "0.0-160.0", "trial": 6, "time_elapsed": 1000677, "serialpos": 10, "key_press": -1, "wordID": 870, "type": "PRES_AUD", "trial_index": 223}, "uniqueid": "MTK1314:37TD41K0AIGOB504UGB812SP88ACSO", "dateTime": 1515714545198}, {"current_trial": 224, "trialdata": {"rt": -1000, "trial_type": "single-audio", "word": "panther", "stimulus": "/static/audio/wordpool/PANTHER.wav", "conditions": [24, 800, "a", 12000], "internal_node_id": "0.0-161.0", "trial": 6, "time_elapsed": 1002587, "serialpos": 11, "key_press": -1, "wordID": 1008, "type": "PRES_AUD", "trial_index": 224}, "uniqueid": "MTK1314:37TD41K0AIGOB504UGB812SP88ACSO", "dateTime": 1515714547108}, {"current_trial": 225, "trialdata": {"rt": -1000, "trial_type": "single-audio", "word": "basement", "stimulus": "/static/audio/wordpool/BASEMENT.wav", "conditions": [24, 800, "a", 12000], "internal_node_id": "0.0-162.0", "trial": 6, "time_elapsed": 1004415, "serialpos": 12, "key_press": -1, "wordID": 93, "type": "PRES_AUD", "trial_index": 225}, "uniqueid": "MTK1314:37TD41K0AIGOB504UGB812SP88ACSO", "dateTime": 1515714548936}, {"current_trial": 226, "trialdata": {"rt": -1000, "trial_type": "single-audio", "word": "banker", "stimulus": "/static/audio/wordpool/BANKER.wav", "conditions": [24, 800, "a", 12000], "internal_node_id": "0.0-163.0", "trial": 6, "time_elapsed": 1006279, "serialpos": 13, "key_press": -1, "wordID": 83, "type": "PRES_AUD", "trial_index": 226}, "uniqueid": "MTK1314:37TD41K0AIGOB504UGB812SP88ACSO", "dateTime": 1515714550800}, {"current_trial": 227, "trialdata": {"rt": -1000, "trial_type": "single-audio", "word": "fruit", "stimulus": "/static/audio/wordpool/FRUIT.wav", "conditions": [24, 800, "a", 12000], "internal_node_id": "0.0-164.0", "trial": 6, "time_elapsed": 1007951, "serialpos": 14, "key_press": -1, "wordID": 609, "type": "PRES_AUD", "trial_index": 227}, "uniqueid": "MTK1314:37TD41K0AIGOB504UGB812SP88ACSO", "dateTime": 1515714552472}, {"current_trial": 228, "trialdata": {"rt": -1000, "trial_type": "single-audio", "word": "apple", "stimulus": "/static/audio/wordpool/APPLE.wav", "conditions": [24, 800, "a", 12000], "internal_node_id": "0.0-165.0", "trial": 6, "time_elapsed": 1009855, "serialpos": 15, "key_press": -1, "wordID": 32, "type": "PRES_AUD", "trial_index": 228}, "uniqueid": "MTK1314:37TD41K0AIGOB504UGB812SP88ACSO", "dateTime": 1515714554376}, {"current_trial": 229, "trialdata": {"rt": -1000, "trial_type": "single-audio", "word": "apron", "stimulus": "/static/audio/wordpool/APRON.wav", "conditions": [24, 800, "a", 12000], "internal_node_id": "0.0-166.0", "trial": 6, "time_elapsed": 1011834, "serialpos": 16, "key_press": -1, "wordID": 34, "type": "PRES_AUD", "trial_index": 229}, "uniqueid": "MTK1314:37TD41K0AIGOB504UGB812SP88ACSO", "dateTime": 1515714556355}, {"current_trial": 230, "trialdata": {"rt": -1000, "trial_type": "single-audio", "word": "catcher", "stimulus": "/static/audio/wordpool/CATCHER.wav", "conditions": [24, 800, "a", 12000], "internal_node_id": "0.0-167.0", "trial": 6, "time_elapsed": 1013512, "serialpos": 17, "key_press": -1, "wordID": 257, "type": "PRES_AUD", "trial_index": 230}, "uniqueid": "MTK1314:37TD41K0AIGOB504UGB812SP88ACSO", "dateTime": 1515714558033}, {"current_trial": 231, "trialdata": {"rt": -1000, "trial_type": "single-audio", "word": "tweezers", "stimulus": "/static/audio/wordpool/TWEEZERS.wav", "conditions": [24, 800, "a", 12000], "internal_node_id": "0.0-168.0", "trial": 6, "time_elapsed": 1015387, "serialpos": 18, "key_press": -1, "wordID": 1525, "type": "PRES_AUD", "trial_index": 231}, "uniqueid": "MTK1314:37TD41K0AIGOB504UGB812SP88ACSO", "dateTime": 1515714559908}, {"current_trial": 232, "trialdata": {"rt": -1000, "trial_type": "single-audio", "word": "server", "stimulus": "/static/audio/wordpool/SERVER.wav", "conditions": [24, 800, "a", 12000], "internal_node_id": "0.0-169.0", "trial": 6, "time_elapsed": 1017378, "serialpos": 19, "key_press": -1, "wordID": 1271, "type": "PRES_AUD", "trial_index": 232}, "uniqueid": "MTK1314:37TD41K0AIGOB504UGB812SP88ACSO", "dateTime": 1515714561899}, {"current_trial": 233, "trialdata": {"rt": -1000, "trial_type": "single-audio", "word": "asia", "stimulus": "/static/audio/wordpool/ASIA.wav", "conditions": [24, 800, "a", 12000], "internal_node_id": "0.0-170.0", "trial": 6, "time_elapsed": 1019311, "serialpos": 20, "key_press": -1, "wordID": 45, "type": "PRES_AUD", "trial_index": 233}, "uniqueid": "MTK1314:37TD41K0AIGOB504UGB812SP88ACSO", "dateTime": 1515714563832}, {"current_trial": 234, "trialdata": {"rt": -1000, "trial_type": "single-audio", "word": "pliers", "stimulus": "/static/audio/wordpool/PLIERS.wav", "conditions": [24, 800, "a", 12000], "internal_node_id": "0.0-171.0", "trial": 6, "time_elapsed": 1021099, "serialpos": 21, "key_press": -1, "wordID": 1088, "type": "PRES_AUD", "trial_index": 234}, "uniqueid": "MTK1314:37TD41K0AIGOB504UGB812SP88ACSO", "dateTime": 1515714565620}, {"current_trial": 235, "trialdata": {"rt": -1000, "trial_type": "single-audio", "word": "banjo", "stimulus": "/static/audio/wordpool/BANJO.wav", "conditions": [24, 800, "a", 12000], "internal_node_id": "0.0-172.0", "trial": 6, "time_elapsed": 1022972, "serialpos": 22, "key_press": -1, "wordID": 81, "type": "PRES_AUD", "trial_index": 235}, "uniqueid": "MTK1314:37TD41K0AIGOB504UGB812SP88ACSO", "dateTime": 1515714567493}, {"current_trial": 236, "trialdata": {"rt": -1000, "trial_type": "single-audio", "word": "thief", "stimulus": "/static/audio/wordpool/THIEF.wav", "conditions": [24, 800, "a", 12000], "internal_node_id": "0.0-173.0", "trial": 6, "time_elapsed": 1024667, "serialpos": 23, "key_press": -1, "wordID": 1455, "type": "PRES_AUD", "trial_index": 236}, "uniqueid": "MTK1314:37TD41K0AIGOB504UGB812SP88ACSO", "dateTime": 1515714569188}, {"current_trial": 237, "trialdata": {"rt": -1, "trial_type": "single-stim", "stimulus": "", "internal_node_id": "0.0-174.0-0.0", "time_elapsed": 1025970, "key_press": -1, "type": "PRE_RECALL_DELAY", "trial_index": 237}, "uniqueid": "MTK1314:37TD41K0AIGOB504UGB812SP88ACSO", "dateTime": 1515714570491}, {"current_trial": 238, "trialdata": {"rt": -1000, "trial_type": "single-audio", "stimulus": "/static/audio/400Hz.wav", "internal_node_id": "0.0-175.0", "time_elapsed": 1026471, "key_press": -1, "type": "PRE_RECALL_ALERT", "trial_index": 238}, "uniqueid": "MTK1314:37TD41K0AIGOB504UGB812SP88ACSO", "dateTime": 1515714570992}, {"current_trial": 239, "trialdata": {"rt": [1043, 2852, 5185, 5969, 6848, 26590, 27426], "recwords": ["asia", "pliers", "banjo", "thief", "pecan", "husband", "uncle"], "key_times": [622, 695, 787, 908, 1043, 1379, 1769, 2057, 2322, 2402, 2511, 2579, 2749, 2852, 3090, 3165, 3490, 3590, 4252, 4403, 4607, 4872, 4952, 5185, 5388, 5467, 5536, 5628, 5711, 5969, 6183, 6282, 6418, 6572, 6649, 6848, 24859, 24921, 25038, 25146, 25257, 25361, 26376, 26590, 26901, 26977, 27073, 27190, 27307, 27426], "trial_type": "free-recall", "conditions": [24, 800, "a", 12000], "internal_node_id": "0.0-176.0-0.0", "key_presses": [65, 83, 73, 65, 13, 80, 73, 8, 76, 73, 69, 82, 83, 13, 66, 65, 74, 79, 8, 8, 78, 74, 79, 13, 84, 72, 73, 69, 70, 13, 80, 69, 67, 65, 78, 13, 72, 85, 83, 66, 65, 78, 68, 13, 85, 78, 67, 76, 69, 13], "trial": 6, "time_elapsed": 1086479, "type": "FREE_RECALL", "trial_index": 239}, "uniqueid": "MTK1314:37TD41K0AIGOB504UGB812SP88ACSO", "dateTime": 1515714631004}, {"current_trial": 240, "trialdata": {"rt": 2240, "trial_type": "text", "internal_node_id": "0.0-177.0", "time_elapsed": 1090727, "key_press": 32, "type": "INSTRUCTIONS", "trial_index": 240}, "uniqueid": "MTK1314:37TD41K0AIGOB504UGB812SP88ACSO", "dateTime": 1515714635248}, {"current_trial": 241, "trialdata": {"rt": [2617, 4172, 6821, 8439, 11143], "trial_type": "math-distractor", "key_times": [2284, 2520, 2617, 3948, 4080, 4172, 6562, 6666, 6821, 8086, 8203, 8439, 10886, 10949, 11143], "responses": ["15", "13", "12", "18", "20"], "num2": [4, 1, 4, 5, 6, 4], "num3": [9, 6, 5, 5, 4, 6], "conditions": [24, 800, "a", 12000], "internal_node_id": "0.0-178.0", "key_presses": [49, 53, 13, 49, 51, 13, 49, 50, 13, 49, 56, 13, 50, 48, 13], "trial": 7, "time_elapsed": 1104733, "type": "DISTRACTOR", "trial_index": 241, "num1": [2, 6, 3, 8, 8, 7]}, "uniqueid": "MTK1314:37TD41K0AIGOB504UGB812SP88ACSO", "dateTime": 1515714649254}, {"current_trial": 242, "trialdata": {"rt": -1, "trial_type": "single-stim", "stimulus": "<p id=\"stim\">10</p>", "internal_node_id": "0.0-179.0-0.0", "time_elapsed": 1107739, "key_press": -1, "trial_index": 242}, "uniqueid": "MTK1314:37TD41K0AIGOB504UGB812SP88ACSO", "dateTime": 1515714652261}, {"current_trial": 243, "trialdata": {"rt": -1, "trial_type": "single-stim", "stimulus": "<p id=\"stim\">9</p>", "internal_node_id": "0.0-179.0-1.0", "time_elapsed": 1108744, "key_press": -1, "trial_index": 243}, "uniqueid": "MTK1314:37TD41K0AIGOB504UGB812SP88ACSO", "dateTime": 1515714653265}, {"current_trial": 244, "trialdata": {"rt": -1, "trial_type": "single-stim", "stimulus": "<p id=\"stim\">8</p>", "internal_node_id": "0.0-179.0-2.0", "time_elapsed": 1109747, "key_press": -1, "trial_index": 244}, "uniqueid": "MTK1314:37TD41K0AIGOB504UGB812SP88ACSO", "dateTime": 1515714654268}, {"current_trial": 245, "trialdata": {"rt": -1, "trial_type": "single-stim", "stimulus": "<p id=\"stim\">7</p>", "internal_node_id": "0.0-179.0-3.0", "time_elapsed": 1110752, "key_press": -1, "trial_index": 245}, "uniqueid": "MTK1314:37TD41K0AIGOB504UGB812SP88ACSO", "dateTime": 1515714655273}, {"current_trial": 246, "trialdata": {"rt": -1, "trial_type": "single-stim", "stimulus": "<p id=\"stim\">6</p>", "internal_node_id": "0.0-179.0-4.0", "time_elapsed": 1111756, "key_press": -1, "trial_index": 246}, "uniqueid": "MTK1314:37TD41K0AIGOB504UGB812SP88ACSO", "dateTime": 1515714656277}, {"current_trial": 247, "trialdata": {"rt": -1, "trial_type": "single-stim", "stimulus": "<p id=\"stim\">5</p>", "internal_node_id": "0.0-179.0-5.0", "time_elapsed": 1112760, "key_press": -1, "trial_index": 247}, "uniqueid": "MTK1314:37TD41K0AIGOB504UGB812SP88ACSO", "dateTime": 1515714657281}, {"current_trial": 248, "trialdata": {"rt": -1, "trial_type": "single-stim", "stimulus": "<p id=\"stim\">4</p>", "internal_node_id": "0.0-179.0-6.0", "time_elapsed": 1113764, "key_press": -1, "trial_index": 248}, "uniqueid": "MTK1314:37TD41K0AIGOB504UGB812SP88ACSO", "dateTime": 1515714658285}, {"current_trial": 249, "trialdata": {"rt": -1, "trial_type": "single-stim", "stimulus": "<p id=\"stim\">3</p>", "internal_node_id": "0.0-179.0-7.0", "time_elapsed": 1114768, "key_press": -1, "trial_index": 249}, "uniqueid": "MTK1314:37TD41K0AIGOB504UGB812SP88ACSO", "dateTime": 1515714659289}, {"current_trial": 250, "trialdata": {"rt": -1, "trial_type": "single-stim", "stimulus": "<p id=\"stim\">2</p>", "internal_node_id": "0.0-179.0-8.0", "time_elapsed": 1115772, "key_press": -1, "trial_index": 250}, "uniqueid": "MTK1314:37TD41K0AIGOB504UGB812SP88ACSO", "dateTime": 1515714660294}, {"current_trial": 251, "trialdata": {"rt": -1, "trial_type": "single-stim", "stimulus": "<p id=\"stim\">1</p>", "internal_node_id": "0.0-179.0-9.0", "time_elapsed": 1116777, "key_press": -1, "trial_index": 251}, "uniqueid": "MTK1314:37TD41K0AIGOB504UGB812SP88ACSO", "dateTime": 1515714661298}, {"current_trial": 252, "trialdata": {"rt": -1, "trial_type": "single-stim", "stimulus": "<p id=\"stim\">+</p>", "internal_node_id": "0.0-180.0-0.0", "time_elapsed": 1118280, "key_press": -1, "type": "FIXATION", "trial_index": 252}, "uniqueid": "MTK1314:37TD41K0AIGOB504UGB812SP88ACSO", "dateTime": 1515714662801}, {"current_trial": 253, "trialdata": {"rt": -1000, "trial_type": "single-audio", "word": "fungus", "stimulus": "/static/audio/wordpool/FUNGUS.wav", "cond