{"condition": 0, "counterbalance": 1572, "assignmentId": "33F859I567KGBRUI5M3EM4F5FDYBH0", "workerId": "MTK1003", "hitId": "3IH9TRB0FB6D74PGJ5N8RK7RD6Z1I6", "currenttrial": 626, "bonus": 0, "data": [{"uniqueid": "MTK1003:33F859I567KGBRUI5M3EM4F5FDYBH0", "current_trial": 0, "dateTime": 1512963783753, "trialdata": {"rt": 38743, "key_press": 32, "type": "INSTRUCTIONS", "trial_type": "text", "trial_index": 0, "time_elapsed": 38750, "internal_node_id": "0.0-0.0"}}, {"uniqueid": "MTK1003:33F859I567KGBRUI5M3EM4F5FDYBH0", "current_trial": 1, "dateTime": 1512963797549, "trialdata": {"rt": 13791, "key_press": 32, "type": "INSTRUCTIONS", "trial_type": "text", "trial_index": 1, "time_elapsed": 52547, "internal_node_id": "0.0-1.0"}}, {"uniqueid": "MTK1003:33F859I567KGBRUI5M3EM4F5FDYBH0", "current_trial": 2, "dateTime": 1512963811678, "trialdata": {"rt": [14101], "responses": ["ocean"], "type": "AUDIO_TEST", "trial_type": "audio-test", "trial_index": 2, "time_elapsed": 66677, "internal_node_id": "0.0-2.0"}}, {"uniqueid": "MTK1003:33F859I567KGBRUI5M3EM4F5FDYBH0", "current_trial": 3, "dateTime": 1512963818542, "trialdata": {"rt": [6851], "responses": ["crystal"], "type": "AUDIO_TEST", "trial_type": "audio-test", "trial_index": 3, "time_elapsed": 73541, "internal_node_id": "0.0-3.0"}}, {"uniqueid": "MTK1003:33F859I567KGBRUI5M3EM4F5FDYBH0", "current_trial": 4, "dateTime": 1512963827013, "trialdata": {"rt": [8458], "responses": ["spice"], "type": "AUDIO_TEST", "trial_type": "audio-test", "trial_index": 4, "time_elapsed": 82012, "internal_node_id": "0.0-4.0"}}, {"uniqueid": "MTK1003:33F859I567KGBRUI5M3EM4F5FDYBH0", "current_trial": 5, "dateTime": 1512963857131, "trialdata": {"rt": 29356, "responses": "{\"Q0\":\"12AM\",\"Q1\":\"8AM\",\"Q2\":\"3\"}", "type": "SLEEP_SURVEY", "trial_type": "survey-text", "trial_index": 5, "time_elapsed": 112127, "internal_node_id": "0.0-5.0"}}, {"uniqueid": "MTK1003:33F859I567KGBRUI5M3EM4F5FDYBH0", "current_trial": 6, "dateTime": 1512963888196, "trialdata": {"rt": 30060, "key_press": 32, "type": "INSTRUCTIONS", "trial_type": "text", "trial_index": 6, "time_elapsed": 143195, "internal_node_id": "0.0-6.0"}}, {"uniqueid": "MTK1003:33F859I567KGBRUI5M3EM4F5FDYBH0", "current_trial": 7, "dateTime": 1512963899947, "trialdata": {"rt": 11249, "key_press": 13, "type": "INSTRUCTIONS", "trial_type": "text", "trial_index": 7, "time_elapsed": 154946, "internal_node_id": "0.0-7.0"}}, {"uniqueid": "MTK1003:33F859I567KGBRUI5M3EM4F5FDYBH0", "current_trial": 8, "dateTime": 1512963904153, "trialdata": {"rt": 3704, "key_press": 13, "type": "INSTRUCTIONS", "trial_type": "text", "trial_index": 8, "time_elapsed": 159152, "internal_node_id": "0.0-8.0"}}, {"uniqueid": "MTK1003:33F859I567KGBRUI5M3EM4F5FDYBH0", "current_trial": 9, "dateTime": 1512963923167, "trialdata": {"rt": [3551, 8302, 10463, 13431, 16104, 17984], "responses": ["4", "11", "17", "21", "18", "11"], "num1": [1, 5, 8, 8, 9, 8, 2], "num2": [2, 1, 4, 3, 4, 2, 5], "num3": [1, 5, 5, 9, 5, 1, 9], "type": "DISTRACTOR", "conditions": [18, 1200, "v", 18000], "trial": 0, "trial_type": "math-distractor", "trial_index": 9, "time_elapsed": 178165, "internal_node_id": "0.0-9.0"}}, {"uniqueid": "MTK1003:33F859I567KGBRUI5M3EM4F5FDYBH0", "current_trial": 10, "dateTime": 1512963926172, "trialdata": {"rt": -1, "stimulus": "<p id=\"stim\">10</p>", "key_press": -1, "trial_type": "single-stim", "trial_index": 10, "time_elapsed": 181171, "internal_node_id": "0.0-10.0-0.0"}}, {"uniqueid": "MTK1003:33F859I567KGBRUI5M3EM4F5FDYBH0", "current_trial": 11, "dateTime": 1512963927174, "trialdata": {"rt": -1, "stimulus": "<p id=\"stim\">9</p>", "key_press": -1, "trial_type": "single-stim", "trial_index": 11, "time_elapsed": 182173, "internal_node_id": "0.0-10.0-1.0"}}, {"uniqueid": "MTK1003:33F859I567KGBRUI5M3EM4F5FDYBH0", "current_trial": 12, "dateTime": 1512963928177, "trialdata": {"rt": -1, "stimulus": "<p id=\"stim\">8</p>", "key_press": -1, "trial_type": "single-stim", "trial_index": 12, "time_elapsed": 183176, "internal_node_id": "0.0-10.0-2.0"}}, {"uniqueid": "MTK1003:33F859I567KGBRUI5M3EM4F5FDYBH0", "current_trial": 13, "dateTime": 1512963929180, "trialdata": {"rt": -1, "stimulus": "<p id=\"stim\">7</p>", "key_press": -1, "trial_type": "single-stim", "trial_index": 13, "time_elapsed": 184179, "internal_node_id": "0.0-10.0-3.0"}}, {"uniqueid": "MTK1003:33F859I567KGBRUI5M3EM4F5FDYBH0", "current_trial": 14, "dateTime": 1512963930182, "trialdata": {"rt": -1, "stimulus": "<p id=\"stim\">6</p>", "key_press": -1, "trial_type": "single-stim", "trial_index": 14, "time_elapsed": 185181, "internal_node_id": "0.0-10.0-4.0"}}, {"uniqueid": "MTK1003:33F859I567KGBRUI5M3EM4F5FDYBH0", "current_trial": 15, "dateTime": 1512963931185, "trialdata": {"rt": -1, "stimulus": "<p id=\"stim\">5</p>", "key_press": -1, "trial_type": "single-stim", "trial_index": 15, "time_elapsed": 186184, "internal_node_id": "0.0-10.0-5.0"}}, {"uniqueid": "MTK1003:33F859I567KGBRUI5M3EM4F5FDYBH0", "current_trial": 16, "dateTime": 1512963932187, "trialdata": {"rt": -1, "stimulus": "<p id=\"stim\">4</p>", "key_press": -1, "trial_type": "single-stim", "trial_index": 16, "time_elapsed": 187186, "internal_node_id": "0.0-10.0-6.0"}}, {"uniqueid": "MTK1003:33F859I567KGBRUI5M3EM4F5FDYBH0", "current_trial": 17, "dateTime": 1512963933190, "trialdata": {"rt": -1, "stimulus": "<p id=\"stim\">3</p>", "key_press": -1, "trial_type": "single-stim", "trial_index": 17, "time_elapsed": 188189, "internal_node_id": "0.0-10.0-7.0"}}, {"uniqueid": "MTK1003:33F859I567KGBRUI5M3EM4F5FDYBH0", "current_trial": 18, "dateTime": 1512963934193, "trialdata": {"rt": -1, "stimulus": "<p id=\"stim\">2</p>", "key_press": -1, "trial_type": "single-stim", "trial_index": 18, "time_elapsed": 189191, "internal_node_id": "0.0-10.0-8.0"}}, {"uniqueid": "MTK1003:33F859I567KGBRUI5M3EM4F5FDYBH0", "current_trial": 19, "dateTime": 1512963935195, "trialdata": {"rt": -1, "stimulus": "<p id=\"stim\">1</p>", "key_press": -1, "trial_type": "single-stim", "trial_index": 19, "time_elapsed": 190194, "internal_node_id": "0.0-10.0-9.0"}}, {"uniqueid": "MTK1003:33F859I567KGBRUI5M3EM4F5FDYBH0", "current_trial": 20, "dateTime": 1512963936698, "trialdata": {"rt": -1, "stimulus": "<p id=\"stim\">+</p>", "key_press": -1, "type": "FIXATION", "trial_type": "single-stim", "trial_index": 20, "time_elapsed": 191696, "internal_node_id": "0.0-11.0-0.0"}}, {"uniqueid": "MTK1003:33F859I567KGBRUI5M3EM4F5FDYBH0", "current_trial": 21, "dateTime": 1512963937900, "trialdata": {"rt": -1, "stimulus": "<p id=\"stim\">CONCERT</p>", "key_press": -1, "type": "PRES_VIS", "word": "concert", "wordID": 359, "conditions": [18, 1200, "v", 18000], "trial": 0, "serialpos": 0, "trial_type": "single-stim", "trial_index": 21, "time_elapsed": 192899, "internal_node_id": "0.0-12.0"}}, {"uniqueid": "MTK1003:33F859I567KGBRUI5M3EM4F5FDYBH0", "current_trial": 22, "dateTime": 1512963940084, "trialdata": {"rt": -1, "stimulus": "<p id=\"stim\">RUST</p>", "key_press": -1, "type": "PRES_VIS", "word": "rust", "wordID": 1218, "conditions": [18, 1200, "v", 18000], "trial": 0, "serialpos": 1, "trial_type": "single-stim", "trial_index": 22, "time_elapsed": 195082, "internal_node_id": "0.0-13.0"}}, {"uniqueid": "MTK1003:33F859I567KGBRUI5M3EM4F5FDYBH0", "current_trial": 23, "dateTime": 1512963942178, "trialdata": {"rt": -1, "stimulus": "<p id=\"stim\">COOKBOOK</p>", "key_press": -1, "type": "PRES_VIS", "word": "cookbook", "wordID": 372, "conditions": [18, 1200, "v", 18000], "trial": 0, "serialpos": 2, "trial_type": "single-stim", "trial_index": 23, "time_elapsed": 197176, "internal_node_id": "0.0-14.0"}}, {"uniqueid": "MTK1003:33F859I567KGBRUI5M3EM4F5FDYBH0", "current_trial": 24, "dateTime": 1512963944552, "trialdata": {"rt": -1, "stimulus": "<p id=\"stim\">HOOD</p>", "key_press": -1, "type": "PRES_VIS", "word": "hood", "wordID": 713, "conditions": [18, 1200, "v", 18000], "trial": 0, "serialpos": 3, "trial_type": "single-stim", "trial_index": 24, "time_elapsed": 199550, "internal_node_id": "0.0-15.0"}}, {"uniqueid": "MTK1003:33F859I567KGBRUI5M3EM4F5FDYBH0", "current_trial": 25, "dateTime": 1512963946936, "trialdata": {"rt": -1, "stimulus": "<p id=\"stim\">MAILBOX</p>", "key_press": -1, "type": "PRES_VIS", "word": "mailbox", "wordID": 856, "conditions": [18, 1200, "v", 18000], "trial": 0, "serialpos": 4, "trial_type": "single-stim", "trial_index": 25, "time_elapsed": 201935, "internal_node_id": "0.0-16.0"}}, {"uniqueid": "MTK1003:33F859I567KGBRUI5M3EM4F5FDYBH0", "current_trial": 26, "dateTime": 1512963949221, "trialdata": {"rt": -1, "stimulus": "<p id=\"stim\">TUBA</p>", "key_press": -1, "type": "PRES_VIS", "word": "tuba", "wordID": 1514, "conditions": [18, 1200, "v", 18000], "trial": 0, "serialpos": 5, "trial_type": "single-stim", "trial_index": 26, "time_elapsed": 204220, "internal_node_id": "0.0-17.0"}}, {"uniqueid": "MTK1003:33F859I567KGBRUI5M3EM4F5FDYBH0", "current_trial": 27, "dateTime": 1512963951312, "trialdata": {"rt": -1, "stimulus": "<p id=\"stim\">LAVA</p>", "key_press": -1, "type": "PRES_VIS", "word": "lava", "wordID": 803, "conditions": [18, 1200, "v", 18000], "trial": 0, "serialpos": 6, "trial_type": "single-stim", "trial_index": 27, "time_elapsed": 206311, "internal_node_id": "0.0-18.0"}}, {"uniqueid": "MTK1003:33F859I567KGBRUI5M3EM4F5FDYBH0", "current_trial": 28, "dateTime": 1512963953394, "trialdata": {"rt": -1, "stimulus": "<p id=\"stim\">LASER</p>", "key_press": -1, "type": "PRES_VIS", "word": "laser", "wordID": 800, "conditions": [18, 1200, "v", 18000], "trial": 0, "serialpos": 7, "trial_type": "single-stim", "trial_index": 28, "time_elapsed": 208393, "internal_node_id": "0.0-19.0"}}, {"uniqueid": "MTK1003:33F859I567KGBRUI5M3EM4F5FDYBH0", "current_trial": 29, "dateTime": 1512963955445, "trialdata": {"rt": -1, "stimulus": "<p id=\"stim\">NIGHTGOWN</p>", "key_press": -1, "type": "PRES_VIS", "word": "nightgown", "wordID": 952, "conditions": [18, 1200, "v", 18000], "trial": 0, "serialpos": 8, "trial_type": "single-stim", "trial_index": 29, "time_elapsed": 210444, "internal_node_id": "0.0-20.0"}}, {"uniqueid": "MTK1003:33F859I567KGBRUI5M3EM4F5FDYBH0", "current_trial": 30, "dateTime": 1512963957624, "trialdata": {"rt": -1, "stimulus": "<p id=\"stim\">BLOCKADE</p>", "key_press": -1, "type": "PRES_VIS", "word": "blockade", "wordID": 136, "conditions": [18, 1200, "v", 18000], "trial": 0, "serialpos": 9, "trial_type": "single-stim", "trial_index": 30, "time_elapsed": 212622, "internal_node_id": "0.0-21.0"}}, {"uniqueid": "MTK1003:33F859I567KGBRUI5M3EM4F5FDYBH0", "current_trial": 31, "dateTime": 1512963959824, "trialdata": {"rt": -1, "stimulus": "<p id=\"stim\">DRAGON</p>", "key_press": -1, "type": "PRES_VIS", "word": "dragon", "wordID": 491, "conditions": [18, 1200, "v", 18000], "trial": 0, "serialpos": 10, "trial_type": "single-stim", "trial_index": 31, "time_elapsed": 214823, "internal_node_id": "0.0-22.0"}}, {"uniqueid": "MTK1003:33F859I567KGBRUI5M3EM4F5FDYBH0", "current_trial": 32, "dateTime": 1512963962165, "trialdata": {"rt": -1, "stimulus": "<p id=\"stim\">CROWN</p>", "key_press": -1, "type": "PRES_VIS", "word": "crown", "wordID": 414, "conditions": [18, 1200, "v", 18000], "trial": 0, "serialpos": 11, "trial_type": "single-stim", "trial_index": 32, "time_elapsed": 217164, "internal_node_id": "0.0-23.0"}}, {"uniqueid": "MTK1003:33F859I567KGBRUI5M3EM4F5FDYBH0", "current_trial": 33, "dateTime": 1512963964251, "trialdata": {"rt": -1, "stimulus": "<p id=\"stim\">FLOWER</p>", "key_press": -1, "type": "PRES_VIS", "word": "flower", "wordID": 583, "conditions": [18, 1200, "v", 18000], "trial": 0, "serialpos": 12, "trial_type": "single-stim", "trial_index": 33, "time_elapsed": 219249, "internal_node_id": "0.0-24.0"}}, {"uniqueid": "MTK1003:33F859I567KGBRUI5M3EM4F5FDYBH0", "current_trial": 34, "dateTime": 1512963966357, "trialdata": {"rt": -1, "stimulus": "<p id=\"stim\">REBEL</p>", "key_press": -1, "type": "PRES_VIS", "word": "rebel", "wordID": 1171, "conditions": [18, 1200, "v", 18000], "trial": 0, "serialpos": 13, "trial_type": "single-stim", "trial_index": 34, "time_elapsed": 221355, "internal_node_id": "0.0-25.0"}}, {"uniqueid": "MTK1003:33F859I567KGBRUI5M3EM4F5FDYBH0", "current_trial": 35, "dateTime": 1512963968393, "trialdata": {"rt": -1, "stimulus": "<p id=\"stim\">APPLE</p>", "key_press": -1, "type": "PRES_VIS", "word": "apple", "wordID": 32, "conditions": [18, 1200, "v", 18000], "trial": 0, "serialpos": 14, "trial_type": "single-stim", "trial_index": 35, "time_elapsed": 223391, "internal_node_id": "0.0-26.0"}}, {"uniqueid": "MTK1003:33F859I567KGBRUI5M3EM4F5FDYBH0", "current_trial": 36, "dateTime": 1512963970497, "trialdata": {"rt": -1, "stimulus": "<p id=\"stim\">SWORD</p>", "key_press": -1, "type": "PRES_VIS", "word": "sword", "wordID": 1422, "conditions": [18, 1200, "v", 18000], "trial": 0, "serialpos": 15, "trial_type": "single-stim", "trial_index": 36, "time_elapsed": 225496, "internal_node_id": "0.0-27.0"}}, {"uniqueid": "MTK1003:33F859I567KGBRUI5M3EM4F5FDYBH0", "current_trial": 37, "dateTime": 1512963972850, "trialdata": {"rt": -1, "stimulus": "<p id=\"stim\">VIKING</p>", "key_press": -1, "type": "PRES_VIS", "word": "viking", "wordID": 1564, "conditions": [18, 1200, "v", 18000], "trial": 0, "serialpos": 16, "trial_type": "single-stim", "trial_index": 37, "time_elapsed": 227849, "internal_node_id": "0.0-28.0"}}, {"uniqueid": "MTK1003:33F859I567KGBRUI5M3EM4F5FDYBH0", "current_trial": 38, "dateTime": 1512963975106, "trialdata": {"rt": -1, "stimulus": "<p id=\"stim\">JUDGE</p>", "key_press": -1, "type": "PRES_VIS", "word": "judge", "wordID": 760, "conditions": [18, 1200, "v", 18000], "trial": 0, "serialpos": 17, "trial_type": "single-stim", "trial_index": 38, "time_elapsed": 230104, "internal_node_id": "0.0-29.0"}}, {"uniqueid": "MTK1003:33F859I567KGBRUI5M3EM4F5FDYBH0", "current_trial": 39, "dateTime": 1512963977348, "trialdata": {"rt": -1, "stimulus": "", "key_press": -1, "type": "PRE_RECALL_DELAY", "trial_type": "single-stim", "trial_index": 39, "time_elapsed": 232347, "internal_node_id": "0.0-30.0-0.0"}}, {"uniqueid": "MTK1003:33F859I567KGBRUI5M3EM4F5FDYBH0", "current_trial": 40, "dateTime": 1512963977855, "trialdata": {"rt": -1000, "stimulus": "/static/audio/400Hz.wav", "key_press": -1, "type": "PRE_RECALL_ALERT", "trial_type": "single-audio", "trial_index": 40, "time_elapsed": 232854, "internal_node_id": "0.0-31.0"}}, {"uniqueid": "MTK1003:33F859I567KGBRUI5M3EM4F5FDYBH0", "current_trial": 41, "dateTime": 1512964037869, "trialdata": {"rt": [4991, 7606, 11222, 16830, 20199, 21302, 22254, 23326, 23919, 24558, 25111, 25806, 26334, 26838, 30046, 35303, 37103, 38711, 43055, 44486], "recwords": ["rust", "cookbook", "spice", "judge", "10", "9", "8", "7", "6", "5", "4", "3", "2", "1", "*", "cookbook", "rust", "spice", "judge", ""], "type": "FREE_RECALL", "conditions": [18, 1200, "v", 18000], "trial": 0, "trial_type": "free-recall", "trial_index": 41, "time_elapsed": 292862, "internal_node_id": "0.0-32.0-0.0"}}, {"uniqueid": "MTK1003:33F859I567KGBRUI5M3EM4F5FDYBH0", "current_trial": 42, "dateTime": 1512964042257, "trialdata": {"rt": 2385, "key_press": 13, "type": "INSTRUCTIONS", "trial_type": "text", "trial_index": 42, "time_elapsed": 297256, "internal_node_id": "0.0-33.0"}}, {"uniqueid": "MTK1003:33F859I567KGBRUI5M3EM4F5FDYBH0", "current_trial": 43, "dateTime": 1512964062263, "trialdata": {"rt": [3515, 5587, 7691, 10275, 12251, 14027, 15811, 17467], "responses": ["16", "23", "13", "7", "23", "9", "11", "12"], "num1": [6, 5, 4, 2, 8, 2, 3, 8, 2], "num2": [9, 9, 1, 3, 8, 6, 7, 1, 9], "num3": [1, 9, 8, 2, 7, 1, 1, 3, 6], "type": "DISTRACTOR", "conditions": [18, 1200, "a", 18000], "trial": 1, "trial_type": "math-distractor", "trial_index": 43, "time_elapsed": 317262, "internal_node_id": "0.0-34.0"}}, {"uniqueid": "MTK1003:33F859I567KGBRUI5M3EM4F5FDYBH0", "current_trial": 44, "dateTime": 1512964065267, "trialdata": {"rt": -1, "stimulus": "<p id=\"stim\">10</p>", "key_press": -1, "trial_type": "single-stim", "trial_index": 44, "time_elapsed": 320265, "internal_node_id": "0.0-35.0-0.0"}}, {"uniqueid": "MTK1003:33F859I567KGBRUI5M3EM4F5FDYBH0", "current_trial": 45, "dateTime": 1512964066269, "trialdata": {"rt": -1, "stimulus": "<p id=\"stim\">9</p>", "key_press": -1, "trial_type": "single-stim", "trial_index": 45, "time_elapsed": 321267, "internal_node_id": "0.0-35.0-1.0"}}, {"uniqueid": "MTK1003:33F859I567KGBRUI5M3EM4F5FDYBH0", "current_trial": 46, "dateTime": 1512964067271, "trialdata": {"rt": -1, "stimulus": "<p id=\"stim\">8</p>", "key_press": -1, "trial_type": "single-stim", "trial_index": 46, "time_elapsed": 322269, "internal_node_id": "0.0-35.0-2.0"}}, {"uniqueid": "MTK1003:33F859I567KGBRUI5M3EM4F5FDYBH0", "current_trial": 47, "dateTime": 1512964068273, "trialdata": {"rt": -1, "stimulus": "<p id=\"stim\">7</p>", "key_press": -1, "trial_type": "single-stim", "trial_index": 47, "time_elapsed": 323272, "internal_node_id": "0.0-35.0-3.0"}}, {"uniqueid": "MTK1003:33F859I567KGBRUI5M3EM4F5FDYBH0", "current_trial": 48, "dateTime": 1512964069277, "trialdata": {"rt": -1, "stimulus": "<p id=\"stim\">6</p>", "key_press": -1, "trial_type": "single-stim", "trial_index": 48, "time_elapsed": 324275, "internal_node_id": "0.0-35.0-4.0"}}, {"uniqueid": "MTK1003:33F859I567KGBRUI5M3EM4F5FDYBH0", "current_trial": 49, "dateTime": 1512964070279, "trialdata": {"rt": -1, "stimulus": "<p id=\"stim\">5</p>", "key_press": -1, "trial_type": "single-stim", "trial_index": 49, "time_elapsed": 325277, "internal_node_id": "0.0-35.0-5.0"}}, {"uniqueid": "MTK1003:33F859I567KGBRUI5M3EM4F5FDYBH0", "current_trial": 50, "dateTime": 1512964071281, "trialdata": {"rt": -1, "stimulus": "<p id=\"stim\">4</p>", "key_press": -1, "trial_type": "single-stim", "trial_index": 50, "time_elapsed": 326279, "internal_node_id": "0.0-35.0-6.0"}}, {"uniqueid": "MTK1003:33F859I567KGBRUI5M3EM4F5FDYBH0", "current_trial": 51, "dateTime": 1512964072283, "trialdata": {"rt": -1, "stimulus": "<p id=\"stim\">3</p>", "key_press": -1, "trial_type": "single-stim", "trial_index": 51, "time_elapsed": 327281, "internal_node_id": "0.0-35.0-7.0"}}, {"uniqueid": "MTK1003:33F859I567KGBRUI5M3EM4F5FDYBH0", "current_trial": 52, "dateTime": 1512964073285, "trialdata": {"rt": -1, "stimulus": "<p id=\"stim\">2</p>", "key_press": -1, "trial_type": "single-stim", "trial_index": 52, "time_elapsed": 328284, "internal_node_id": "0.0-35.0-8.0"}}, {"uniqueid": "MTK1003:33F859I567KGBRUI5M3EM4F5FDYBH0", "current_trial": 53, "dateTime": 1512964074287, "trialdata": {"rt": -1, "stimulus": "<p id=\"stim\">1</p>", "key_press": -1, "trial_type": "single-stim", "trial_index": 53, "time_elapsed": 329285, "internal_node_id": "0.0-35.0-9.0"}}, {"uniqueid": "MTK1003:33F859I567KGBRUI5M3EM4F5FDYBH0", "current_trial": 54, "dateTime": 1512964075790, "trialdata": {"rt": -1, "stimulus": "<p id=\"stim\">+</p>", "key_press": -1, "type": "FIXATION", "trial_type": "single-stim", "trial_index": 54, "time_elapsed": 330789, "internal_node_id": "0.0-36.0-0.0"}}, {"uniqueid": "MTK1003:33F859I567KGBRUI5M3EM4F5FDYBH0", "current_trial": 55, "dateTime": 1512964078147, "trialdata": {"rt": -1000, "stimulus": "/static/audio/wordpool/KNAPSACK.wav", "key_press": -1, "type": "PRES_AUD", "word": "knapsack", "wordID": 782, "conditions": [18, 1200, "a", 18000], "trial": 1, "serialpos": 0, "trial_type": "single-audio", "trial_index": 55, "time_elapsed": 333146, "internal_node_id": "0.0-37.0"}}, {"uniqueid": "MTK1003:33F859I567KGBRUI5M3EM4F5FDYBH0", "current_trial": 56, "dateTime": 1512964080378, "trialdata": {"rt": 398.66666666659967, "stimulus": "/static/audio/wordpool/COMPASS.wav", "key_press": 175, "type": "PRES_AUD", "word": "compass", "wordID": 357, "conditions": [18, 1200, "a", 18000], "trial": 1, "serialpos": 1, "trial_type": "single-audio", "trial_index": 56, "time_elapsed": 335377, "internal_node_id": "0.0-38.0"}}, {"uniqueid": "MTK1003:33F859I567KGBRUI5M3EM4F5FDYBH0", "current_trial": 57, "dateTime": 1512964082737, "trialdata": {"rt": 539.9999999999636, "stimulus": "/static/audio/wordpool/DANCER.wav", "key_press": 175, "type": "PRES_AUD", "word": "dancer", "wordID": 436, "conditions": [18, 1200, "a", 18000], "trial": 1, "serialpos": 2, "trial_type": "single-audio", "trial_index": 57, "time_elapsed": 337736, "internal_node_id": "0.0-39.0"}}, {"uniqueid": "MTK1003:33F859I567KGBRUI5M3EM4F5FDYBH0", "current_trial": 58, "dateTime": 1512964085026, "trialdata": {"rt": -1000, "stimulus": "/static/audio/wordpool/GRAVE.wav", "key_press": -1, "type": "PRES_AUD", "word": "grave", "wordID": 657, "conditions": [18, 1200, "a", 18000], "trial": 1, "serialpos": 3, "trial_type": "single-audio", "trial_index": 58, "time_elapsed": 340025, "internal_node_id": "0.0-40.0"}}, {"uniqueid": "MTK1003:33F859I567KGBRUI5M3EM4F5FDYBH0", "current_trial": 59, "dateTime": 1512964087391, "trialdata": {"rt": -1000, "stimulus": "/static/audio/wordpool/PLAID.wav", "key_press": -1, "type": "PRES_AUD", "word": "plaid", "wordID": 1079, "conditions": [18, 1200, "a", 18000], "trial": 1, "serialpos": 4, "trial_type": "single-audio", "trial_index": 59, "time_elapsed": 342390, "internal_node_id": "0.0-41.0"}}, {"uniqueid": "MTK1003:33F859I567KGBRUI5M3EM4F5FDYBH0", "current_trial": 60, "dateTime": 1512964089676, "trialdata": {"rt": -1000, "stimulus": "/static/audio/wordpool/JELLO.wav", "key_press": -1, "type": "PRES_AUD", "word": "jello", "wordID": 753, "conditions": [18, 1200, "a", 18000], "trial": 1, "serialpos": 5, "trial_type": "single-audio", "trial_index": 60, "time_elapsed": 344675, "internal_node_id": "0.0-42.0"}}, {"uniqueid": "MTK1003:33F859I567KGBRUI5M3EM4F5FDYBH0", "current_trial": 61, "dateTime": 1512964091855, "trialdata": {"rt": -1000, "stimulus": "/static/audio/wordpool/CLAM.wav", "key_press": -1, "type": "PRES_AUD", "word": "clam", "wordID": 314, "conditions": [18, 1200, "a", 18000], "trial": 1, "serialpos": 6, "trial_type": "single-audio", "trial_index": 61, "time_elapsed": 346854, "internal_node_id": "0.0-43.0"}}, {"uniqueid": "MTK1003:33F859I567KGBRUI5M3EM4F5FDYBH0", "current_trial": 62, "dateTime": 1512964093959, "trialdata": {"rt": -1000, "stimulus": "/static/audio/wordpool/MILDEW.wav", "key_press": -1, "type": "PRES_AUD", "word": "mildew", "wordID": 892, "conditions": [18, 1200, "a", 18000], "trial": 1, "serialpos": 7, "trial_type": "single-audio", "trial_index": 62, "time_elapsed": 348958, "internal_node_id": "0.0-44.0"}}, {"uniqueid": "MTK1003:33F859I567KGBRUI5M3EM4F5FDYBH0", "current_trial": 63, "dateTime": 1512964096057, "trialdata": {"rt": -1000, "stimulus": "/static/audio/wordpool/SKILLET.wav", "key_press": -1, "type": "PRES_AUD", "word": "skillet", "wordID": 1316, "conditions": [18, 1200, "a", 18000], "trial": 1, "serialpos": 8, "trial_type": "single-audio", "trial_index": 63, "time_elapsed": 351056, "internal_node_id": "0.0-45.0"}}, {"uniqueid": "MTK1003:33F859I567KGBRUI5M3EM4F5FDYBH0", "current_trial": 64, "dateTime": 1512964098190, "trialdata": {"rt": -1000, "stimulus": "/static/audio/wordpool/DONOR.wav", "key_press": -1, "type": "PRES_AUD", "word": "donor", "wordID": 484, "conditions": [18, 1200, "a", 18000], "trial": 1, "serialpos": 9, "trial_type": "single-audio", "trial_index": 64, "time_elapsed": 353189, "internal_node_id": "0.0-46.0"}}, {"uniqueid": "MTK1003:33F859I567KGBRUI5M3EM4F5FDYBH0", "current_trial": 65, "dateTime": 1512964100398, "trialdata": {"rt": -1000, "stimulus": "/static/audio/wordpool/MAILMAN.wav", "key_press": -1, "type": "PRES_AUD", "word": "mailman", "wordID": 857, "conditions": [18, 1200, "a", 18000], "trial": 1, "serialpos": 10, "trial_type": "single-audio", "trial_index": 65, "time_elapsed": 355397, "internal_node_id": "0.0-47.0"}}, {"uniqueid": "MTK1003:33F859I567KGBRUI5M3EM4F5FDYBH0", "current_trial": 66, "dateTime": 1512964102502, "trialdata": {"rt": -1000, "stimulus": "/static/audio/wordpool/CLOCK.wav", "key_press": -1, "type": "PRES_AUD", "word": "clock", "wordID": 324, "conditions": [18, 1200, "a", 18000], "trial": 1, "serialpos": 11, "trial_type": "single-audio", "trial_index": 66, "time_elapsed": 357501, "internal_node_id": "0.0-48.0"}}, {"uniqueid": "MTK1003:33F859I567KGBRUI5M3EM4F5FDYBH0", "current_trial": 67, "dateTime": 1512964104646, "trialdata": {"rt": -1000, "stimulus": "/static/audio/wordpool/OUTDOORS.wav", "key_press": -1, "type": "PRES_AUD", "word": "outdoors", "wordID": 986, "conditions": [18, 1200, "a", 18000], "trial": 1, "serialpos": 12, "trial_type": "single-audio", "trial_index": 67, "time_elapsed": 359645, "internal_node_id": "0.0-49.0"}}, {"uniqueid": "MTK1003:33F859I567KGBRUI5M3EM4F5FDYBH0", "current_trial": 68, "dateTime": 1512964107048, "trialdata": {"rt": -1000, "stimulus": "/static/audio/wordpool/ICING.wav", "key_press": -1, "type": "PRES_AUD", "word": "icing", "wordID": 731, "conditions": [18, 1200, "a", 18000], "trial": 1, "serialpos": 13, "trial_type": "single-audio", "trial_index": 68, "time_elapsed": 362039, "internal_node_id": "0.0-50.0"}}, {"uniqueid": "MTK1003:33F859I567KGBRUI5M3EM4F5FDYBH0", "current_trial": 69, "dateTime": 1512964109108, "trialdata": {"rt": -1000, "stimulus": "/static/audio/wordpool/HEART.wav", "key_press": -1, "type": "PRES_AUD", "word": "heart", "wordID": 696, "conditions": [18, 1200, "a", 18000], "trial": 1, "serialpos": 14, "trial_type": "single-audio", "trial_index": 69, "time_elapsed": 364107, "internal_node_id": "0.0-51.0"}}, {"uniqueid": "MTK1003:33F859I567KGBRUI5M3EM4F5FDYBH0", "current_trial": 70, "dateTime": 1512964111308, "trialdata": {"rt": -1000, "stimulus": "/static/audio/wordpool/DENTIST.wav", "key_press": -1, "type": "PRES_AUD", "word": "dentist", "wordID": 446, "conditions": [18, 1200, "a", 18000], "trial": 1, "serialpos": 15, "trial_type": "single-audio", "trial_index": 70, "time_elapsed": 366307, "internal_node_id": "0.0-52.0"}}, {"uniqueid": "MTK1003:33F859I567KGBRUI5M3EM4F5FDYBH0", "current_trial": 71, "dateTime": 1512964113380, "trialdata": {"rt": -1000, "stimulus": "/static/audio/wordpool/PRIMATE.wav", "key_press": -1, "type": "PRES_AUD", "word": "primate", "wordID": 1122, "conditions": [18, 1200, "a", 18000], "trial": 1, "serialpos": 16, "trial_type": "single-audio", "trial_index": 71, "time_elapsed": 368379, "internal_node_id": "0.0-53.0"}}, {"uniqueid": "MTK1003:33F859I567KGBRUI5M3EM4F5FDYBH0", "current_trial": 72, "dateTime": 1512964115555, "trialdata": {"rt": -1000, "stimulus": "/static/audio/wordpool/BELLY.wav", "key_press": -1, "type": "PRES_AUD", "word": "belly", "wordID": 118, "conditions": [18, 1200, "a", 18000], "trial": 1, "serialpos": 17, "trial_type": "single-audio", "trial_index": 72, "time_elapsed": 370554, "internal_node_id": "0.0-54.0"}}, {"uniqueid": "MTK1003:33F859I567KGBRUI5M3EM4F5FDYBH0", "current_trial": 73, "dateTime": 1512964116924, "trialdata": {"rt": -1, "stimulus": "", "key_press": -1, "type": "PRE_RECALL_DELAY", "trial_type": "single-stim", "trial_index": 73, "time_elapsed": 371922, "internal_node_id": "0.0-55.0-0.0"}}, {"uniqueid": "MTK1003:33F859I567KGBRUI5M3EM4F5FDYBH0", "current_trial": 74, "dateTime": 1512964117426, "trialdata": {"rt": -1000, "stimulus": "/static/audio/400Hz.wav", "key_press": -1, "type": "PRE_RECALL_ALERT", "trial_type": "single-audio", "trial_index": 74, "time_elapsed": 372425, "internal_node_id": "0.0-56.0"}}, {"uniqueid": "MTK1003:33F859I567KGBRUI5M3EM4F5FDYBH0", "current_trial": 75, "dateTime": 1512964177438, "trialdata": {"rt": [3747, 5123, 8187, 10539, 12523, 14771, 19339], "recwords": ["belly", "primate", "dancer", "clock", "cloth", "jello", "primate"], "type": "FREE_RECALL", "conditions": [18, 1200, "a", 18000], "trial": 1, "trial_type": "free-recall", "trial_index": 75, "time_elapsed": 432432, "internal_node_id": "0.0-57.0-0.0"}}, {"uniqueid": "MTK1003:33F859I567KGBRUI5M3EM4F5FDYBH0", "current_trial": 76, "dateTime": 1512964183380, "trialdata": {"rt": 3929, "key_press": 13, "type": "INSTRUCTIONS", "trial_type": "text", "trial_index": 76, "time_elapsed": 438369, "internal_node_id": "0.0-58.0"}}, {"uniqueid": "MTK1003:33F859I567KGBRUI5M3EM4F5FDYBH0", "current_trial": 77, "dateTime": 1512964196387, "trialdata": {"rt": [3432, 5305, 8168, 11385], "responses": ["17", "16", "16", "15"], "num1": [6, 7, 6, 7, 8], "num2": [9, 1, 9, 1, 9], "num3": [2, 8, 1, 7, 9], "type": "DISTRACTOR", "conditions": [24, 800, "v", 12000], "trial": 2, "trial_type": "math-distractor", "trial_index": 77, "time_elapsed": 451386, "internal_node_id": "0.0-59.0"}}, {"uniqueid": "MTK1003:33F859I567KGBRUI5M3EM4F5FDYBH0", "current_trial": 78, "dateTime": 1512964199390, "trialdata": {"rt": -1, "stimulus": "<p id=\"stim\">10</p>", "key_press": -1, "trial_type": "single-stim", "trial_index": 78, "time_elapsed": 454388, "internal_node_id": "0.0-60.0-0.0"}}, {"uniqueid": "MTK1003:33F859I567KGBRUI5M3EM4F5FDYBH0", "current_trial": 79, "dateTime": 1512964200392, "trialdata": {"rt": -1, "stimulus": "<p id=\"stim\">9</p>", "key_press": -1, "trial_type": "single-stim", "trial_index": 79, "time_elapsed": 455390, "internal_node_id": "0.0-60.0-1.0"}}, {"uniqueid": "MTK1003:33F859I567KGBRUI5M3EM4F5FDYBH0", "current_trial": 80, "dateTime": 1512964201394, "trialdata": {"rt": -1, "stimulus": "<p id=\"stim\">8</p>", "key_press": -1, "trial_type": "single-stim", "trial_index": 80, "time_elapsed": 456392, "internal_node_id": "0.0-60.0-2.0"}}, {"uniqueid": "MTK1003:33F859I567KGBRUI5M3EM4F5FDYBH0", "current_trial": 81, "dateTime": 1512964202396, "trialdata": {"rt": -1, "stimulus": "<p id=\"stim\">7</p>", "key_press": -1, "trial_type": "single-stim", "trial_index": 81, "time_elapsed": 457394, "internal_node_id": "0.0-60.0-3.0"}}, {"uniqueid": "MTK1003:33F859I567KGBRUI5M3EM4F5FDYBH0", "current_trial": 82, "dateTime": 1512964203398, "trialdata": {"rt": -1, "stimulus": "<p id=\"stim\">6</p>", "key_press": -1, "trial_type": "single-stim", "trial_index": 82, "time_elapsed": 458397, "internal_node_id": "0.0-60.0-4.0"}}, {"uniqueid": "MTK1003:33F859I567KGBRUI5M3EM4F5FDYBH0", "current_trial": 83, "dateTime": 1512964204401, "trialdata": {"rt": -1, "stimulus": "<p id=\"stim\">5</p>", "key_press": -1, "trial_type": "single-stim", "trial_index": 83, "time_elapsed": 459399, "internal_node_id": "0.0-60.0-5.0"}}, {"uniqueid": "MTK1003:33F859I567KGBRUI5M3EM4F5FDYBH0", "current_trial": 84, "dateTime": 1512964205403, "trialdata": {"rt": -1, "stimulus": "<p id=\"stim\">4</p>", "key_press": -1, "trial_type": "single-stim", "trial_index": 84, "time_elapsed": 460401, "internal_node_id": "0.0-60.0-6.0"}}, {"uniqueid": "MTK1003:33F859I567KGBRUI5M3EM4F5FDYBH0", "current_trial": 85, "dateTime": 1512964206404, "trialdata": {"rt": -1, "stimulus": "<p id=\"stim\">3</p>", "key_press": -1, "trial_type": "single-stim", "trial_index": 85, "time_elapsed": 461402, "internal_node_id": "0.0-60.0-7.0"}}, {"uniqueid": "MTK1003:33F859I567KGBRUI5M3EM4F5FDYBH0", "current_trial": 86, "dateTime": 1512964207406, "trialdata": {"rt": -1, "stimulus": "<p id=\"stim\">2</p>", "key_press": -1, "trial_type": "single-stim", "trial_index": 86, "time_elapsed": 462405, "internal_node_id": "0.0-60.0-8.0"}}, {"uniqueid": "MTK1003:33F859I567KGBRUI5M3EM4F5FDYBH0", "current_trial": 87, "dateTime": 1512964208410, "trialdata": {"rt": -1, "stimulus": "<p id=\"stim\">1</p>", "key_press": -1, "trial_type": "single-stim", "trial_index": 87, "time_elapsed": 463408, "internal_node_id": "0.0-60.0-9.0"}}, {"uniqueid": "MTK1003:33F859I567KGBRUI5M3EM4F5FDYBH0", "current_trial": 88, "dateTime": 1512964209915, "trialdata": {"rt": -1, "stimulus": "<p id=\"stim\">+</p>", "key_press": -1, "type": "FIXATION", "trial_type": "single-stim", "trial_index": 88, "time_elapsed": 464914, "internal_node_id": "0.0-61.0-0.0"}}, {"uniqueid": "MTK1003:33F859I567KGBRUI5M3EM4F5FDYBH0", "current_trial": 89, "dateTime": 1512964210717, "trialdata": {"rt": -1, "stimulus": "<p id=\"stim\">MONEY</p>", "key_press": -1, "type": "PRES_VIS", "word": "money", "wordID": 907, "conditions": [24, 800, "v", 12000], "trial": 2, "serialpos": 0, "trial_type": "single-stim", "trial_index": 89, "time_elapsed": 465715, "internal_node_id": "0.0-62.0"}}, {"uniqueid": "MTK1003:33F859I567KGBRUI5M3EM4F5FDYBH0", "current_trial": 90, "dateTime": 1512964212686, "trialdata": {"rt": -1, "stimulus": "<p id=\"stim\">KLEENEX</p>", "key_press": -1, "type": "PRES_VIS", "word": "kleenex", "wordID": 781, "conditions": [24, 800, "v", 12000], "trial": 2, "serialpos": 1, "trial_type": "single-stim", "trial_index": 90, "time_elapsed": 467685, "internal_node_id": "0.0-63.0"}}, {"uniqueid": "MTK1003:33F859I567KGBRUI5M3EM4F5FDYBH0", "current_trial": 91, "dateTime": 1512964214520, "trialdata": {"rt": -1, "stimulus": "<p id=\"stim\">HONEY</p>", "key_press": -1, "type": "PRES_VIS", "word": "honey", "wordID": 712, "conditions": [24, 800, "v", 12000], "trial": 2, "serialpos": 2, "trial_type": "single-stim", "trial_index": 91, "time_elapsed": 469518, "internal_node_id": "0.0-64.0"}}, {"uniqueid": "MTK1003:33F859I567KGBRUI5M3EM4F5FDYBH0", "current_trial": 92, "dateTime": 1512964216418, "trialdata": {"rt": -1, "stimulus": "<p id=\"stim\">PERFUME</p>", "key_press": -1, "type": "PRES_VIS", "word": "perfume", "wordID": 1048, "conditions": [24, 800, "v", 12000], "trial": 2, "serialpos": 3, "trial_type": "single-stim", "trial_index": 92, "time_elapsed": 471417, "internal_node_id": "0.0-65.0"}}, {"uniqueid": "MTK1003:33F859I567KGBRUI5M3EM4F5FDYBH0", "current_trial": 93, "dateTime": 1512964218241, "trialdata": {"rt": -1, "stimulus": "<p id=\"stim\">BANQUET</p>", "key_press": -1, "type": "PRES_VIS", "word": "banquet", "wordID": 85, "conditions": [24, 800, "v", 12000], "trial": 2, "serialpos": 4, "trial_type": "single-stim", "trial_index": 93, "time_elapsed": 473240, "internal_node_id": "0.0-66.0"}}, {"uniqueid": "MTK1003:33F859I567KGBRUI5M3EM4F5FDYBH0", "current_trial": 94, "dateTime": 1512964220105, "trialdata": {"rt": -1, "stimulus": "<p id=\"stim\">HUMAN</p>", "key_press": -1, "type": "PRES_VIS", "word": "human", "wordID": 725, "conditions": [24, 800, "v", 12000], "trial": 2, "serialpos": 5, "trial_type": "single-stim", "trial_index": 94, "time_elapsed": 475103, "internal_node_id": "0.0-67.0"}}, {"uniqueid": "MTK1003:33F859I567KGBRUI5M3EM4F5FDYBH0", "current_trial": 95, "dateTime": 1512964221857, "trialdata": {"rt": -1, "stimulus": "<p id=\"stim\">PLATE</p>", "key_press": -1, "type": "PRES_VIS", "word": "plate", "wordID": 1085, "conditions": [24, 800, "v", 12000], "trial": 2, "serialpos": 6, "trial_type": "single-stim", "trial_index": 95, "time_elapsed": 476855, "internal_node_id": "0.0-68.0"}}, {"uniqueid": "MTK1003:33F859I567KGBRUI5M3EM4F5FDYBH0", "current_trial": 96, "dateTime": 1512964223643, "trialdata": {"rt": -1, "stimulus": "<p id=\"stim\">MILK</p>", "key_press": -1, "type": "PRES_VIS", "word": "milk", "wordID": 894, "conditions": [24, 800, "v", 12000], "trial": 2, "serialpos": 7, "trial_type": "single-stim", "trial_index": 96, "time_elapsed": 478642, "internal_node_id": "0.0-69.0"}}, {"uniqueid": "MTK1003:33F859I567KGBRUI5M3EM4F5FDYBH0", "current_trial": 97, "dateTime": 1512964225324, "trialdata": {"rt": -1, "stimulus": "<p id=\"stim\">STUDENT</p>", "key_press": -1, "type": "PRES_VIS", "word": "student", "wordID": 1394, "conditions": [24, 800, "v", 12000], "trial": 2, "serialpos": 8, "trial_type": "single-stim", "trial_index": 97, "time_elapsed": 480322, "internal_node_id": "0.0-70.0"}}, {"uniqueid": "MTK1003:33F859I567KGBRUI5M3EM4F5FDYBH0", "current_trial": 98, "dateTime": 1512964227195, "trialdata": {"rt": -1, "stimulus": "<p id=\"stim\">PREACHER</p>", "key_press": -1, "type": "PRES_VIS", "word": "preacher", "wordID": 1118, "conditions": [24, 800, "v", 12000], "trial": 2, "serialpos": 9, "trial_type": "single-stim", "trial_index": 98, "time_elapsed": 482193, "internal_node_id": "0.0-71.0"}}, {"uniqueid": "MTK1003:33F859I567KGBRUI5M3EM4F5FDYBH0", "current_trial": 99, "dateTime": 1512964229019, "trialdata": {"rt": -1, "stimulus": "<p id=\"stim\">WOMAN</p>", "key_press": -1, "type": "PRES_VIS", "word": "woman", "wordID": 1619, "conditions": [24, 800, "v", 12000], "trial": 2, "serialpos": 10, "trial_type": "single-stim", "trial_index": 99, "time_elapsed": 484018, "internal_node_id": "0.0-72.0"}}, {"uniqueid": "MTK1003:33F859I567KGBRUI5M3EM4F5FDYBH0", "current_trial": 100, "dateTime": 1512964230881, "trialdata": {"rt": -1, "stimulus": "<p id=\"stim\">GIRL</p>", "key_press": -1, "type": "PRES_VIS", "word": "girl", "wordID": 636, "conditions": [24, 800, "v", 12000], "trial": 2, "serialpos": 11, "trial_type": "single-stim", "trial_index": 100, "time_elapsed": 485879, "internal_node_id": "0.0-73.0"}}, {"uniqueid": "MTK1003:33F859I567KGBRUI5M3EM4F5FDYBH0", "current_trial": 101, "dateTime": 1512964232829, "trialdata": {"rt": -1, "stimulus": "<p id=\"stim\">SUSPECT</p>", "key_press": -1, "type": "PRES_VIS", "word": "suspect", "wordID": 1414, "conditions": [24, 800, "v", 12000], "trial": 2, "serialpos": 12, "trial_type": "single-stim", "trial_index": 101, "time_elapsed": 487828, "internal_node_id": "0.0-74.0"}}, {"uniqueid": "MTK1003:33F859I567KGBRUI5M3EM4F5FDYBH0", "current_trial": 102, "dateTime": 1512964234814, "trialdata": {"rt": -1, "stimulus": "<p id=\"stim\">PARROT</p>", "key_press": -1, "type": "PRES_VIS", "word": "parrot", "wordID": 1014, "conditions": [24, 800, "v", 12000], "trial": 2, "serialpos": 13, "trial_type": "single-stim", "trial_index": 102, "time_elapsed": 489813, "internal_node_id": "0.0-75.0"}}, {"uniqueid": "MTK1003:33F859I567KGBRUI5M3EM4F5FDYBH0", "current_trial": 103, "dateTime": 1512964236669, "trialdata": {"rt": -1, "stimulus": "<p id=\"stim\">PRINCESS</p>", "key_press": -1, "type": "PRES_VIS", "word": "princess", "wordID": 1124, "conditions": [24, 800, "v", 12000], "trial": 2, "serialpos": 14, "trial_type": "single-stim", "trial_index": 103, "time_elapsed": 491668, "internal_node_id": "0.0-76.0"}}, {"uniqueid": "MTK1003:33F859I567KGBRUI5M3EM4F5FDYBH0", "current_trial": 104, "dateTime": 1512964238419, "trialdata": {"rt": -1, "stimulus": "<p id=\"stim\">QUEEN</p>", "key_press": -1, "type": "PRES_VIS", "word": "queen", "wordID": 1148, "conditions": [24, 800, "v", 12000], "trial": 2, "serialpos": 15, "trial_type": "single-stim", "trial_index": 104, "time_elapsed": 493417, "internal_node_id": "0.0-77.0"}}, {"uniqueid": "MTK1003:33F859I567KGBRUI5M3EM4F5FDYBH0", "current_trial": 105, "dateTime": 1512964240097, "trialdata": {"rt": -1, "stimulus": "<p id=\"stim\">SHARK</p>", "key_press": -1, "type": "PRES_VIS", "word": "shark", "wordID": 1274, "conditions": [24, 800, "v", 12000], "trial": 2, "serialpos": 16, "trial_type": "single-stim", "trial_index": 105, "time_elapsed": 495096, "internal_node_id": "0.0-78.0"}}, {"uniqueid": "MTK1003:33F859I567KGBRUI5M3EM4F5FDYBH0", "current_trial": 106, "dateTime": 1512964242024, "trialdata": {"rt": -1, "stimulus": "<p id=\"stim\">PIGEON</p>", "key_press": -1, "type": "PRES_VIS", "word": "pigeon", "wordID": 1064, "conditions": [24, 800, "v", 12000], "trial": 2, "serialpos": 17, "trial_type": "single-stim", "trial_index": 106, "time_elapsed": 497022, "internal_node_id": "0.0-79.0"}}, {"uniqueid": "MTK1003:33F859I567KGBRUI5M3EM4F5FDYBH0", "current_trial": 107, "dateTime": 1512964243829, "trialdata": {"rt": -1, "stimulus": "<p id=\"stim\">CABIN</p>", "key_press": -1, "type": "PRES_VIS", "word": "cabin", "wordID": 210, "conditions": [24, 800, "v", 12000], "trial": 2, "serialpos": 18, "trial_type": "single-stim", "trial_index": 107, "time_elapsed": 498828, "internal_node_id": "0.0-80.0"}}, {"uniqueid": "MTK1003:33F859I567KGBRUI5M3EM4F5FDYBH0", "current_trial": 108, "dateTime": 1512964245514, "trialdata": {"rt": -1, "stimulus": "<p id=\"stim\">HERO</p>", "key_press": -1, "type": "PRES_VIS", "word": "hero", "wordID": 705, "conditions": [24, 800, "v", 12000], "trial": 2, "serialpos": 19, "trial_type": "single-stim", "trial_index": 108, "time_elapsed": 500512, "internal_node_id": "0.0-81.0"}}, {"uniqueid": "MTK1003:33F859I567KGBRUI5M3EM4F5FDYBH0", "current_trial": 109, "dateTime": 1512964247230, "trialdata": {"rt": -1, "stimulus": "<p id=\"stim\">ROBBER</p>", "key_press": -1, "type": "PRES_VIS", "word": "robber", "wordID": 1196, "conditions": [24, 800, "v", 12000], "trial": 2, "serialpos": 20, "trial_type": "single-stim", "trial_index": 109, "time_elapsed": 502229, "internal_node_id": "0.0-82.0"}}, {"uniqueid": "MTK1003:33F859I567KGBRUI5M3EM4F5FDYBH0", "current_trial": 110, "dateTime": 1512964249215, "trialdata": {"rt": -1, "stimulus": "<p id=\"stim\">LEG</p>", "key_press": -1, "type": "PRES_VIS", "word": "leg", "wordID": 808, "conditions": [24, 800, "v", 12000], "trial": 2, "serialpos": 21, "trial_type": "single-stim", "trial_index": 110, "time_elapsed": 504214, "internal_node_id": "0.0-83.0"}}, {"uniqueid": "MTK1003:33F859I567KGBRUI5M3EM4F5FDYBH0", "current_trial": 111, "dateTime": 1512964250977, "trialdata": {"rt": -1, "stimulus": "<p id=\"stim\">WASP</p>", "key_press": -1, "type": "PRES_VIS", "word": "wasp", "wordID": 1592, "conditions": [24, 800, "v", 12000], "trial": 2, "serialpos": 22, "trial_type": "single-stim", "trial_index": 111, "time_elapsed": 505975, "internal_node_id": "0.0-84.0"}}, {"uniqueid": "MTK1003:33F859I567KGBRUI5M3EM4F5FDYBH0", "current_trial": 112, "dateTime": 1512964252750, "trialdata": {"rt": -1, "stimulus": "<p id=\"stim\">MARROW</p>", "key_press": -1, "type": "PRES_VIS", "word": "marrow", "wordID": 871, "conditions": [24, 800, "v", 12000], "trial": 2, "serialpos": 23, "trial_type": "single-stim", "trial_index": 112, "time_elapsed": 507744, "internal_node_id": "0.0-85.0"}}, {"uniqueid": "MTK1003:33F859I567KGBRUI5M3EM4F5FDYBH0", "current_trial": 113, "dateTime": 1512964254920, "trialdata": {"rt": -1, "stimulus": "", "key_press": -1, "type": "PRE_RECALL_DELAY", "trial_type": "single-stim", "trial_index": 113, "time_elapsed": 509918, "internal_node_id": "0.0-86.0-0.0"}}, {"uniqueid": "MTK1003:33F859I567KGBRUI5M3EM4F5FDYBH0", "current_trial": 114, "dateTime": 1512964255423, "trialdata": {"rt": -1000, "stimulus": "/static/audio/400Hz.wav", "key_press": -1, "type": "PRE_RECALL_ALERT", "trial_type": "single-audio", "trial_index": 114, "time_elapsed": 510422, "internal_node_id": "0.0-87.0"}}, {"uniqueid": "MTK1003:33F859I567KGBRUI5M3EM4F5FDYBH0", "current_trial": 115, "dateTime": 1512964315434, "trialdata": {"rt": [5862, 8895, 10951, 14695, 16318, 20686, 23510, 25830, 27877, 29422, 32901, 35277, 38333, 41781, 48493, 51309, 53877, 56812, 58846], "recwords": ["money", "kleenex", "perfume", "banquet", "plate", "milk", "student", "preacher", "woman", "girl", "suspect", "parrot", "princess", "queen", "shark", "pigeon", "cabin", "hero", "robber"], "type": "FREE_RECALL", "conditions": [24, 800, "v", 12000], "trial": 2, "trial_type": "free-recall", "trial_index": 115, "time_elapsed": 570427, "internal_node_id": "0.0-88.0-0.0"}}, {"uniqueid": "MTK1003:33F859I567KGBRUI5M3EM4F5FDYBH0", "current_trial": 116, "dateTime": 1512964329449, "trialdata": {"rt": 12013, "key_press": 13, "type": "INSTRUCTIONS", "trial_type": "text", "trial_index": 116, "time_elapsed": 584448, "internal_node_id": "0.0-89.0"}}, {"uniqueid": "MTK1003:33F859I567KGBRUI5M3EM4F5FDYBH0", "current_trial": 117, "dateTime": 1512964343459, "trialdata": {"rt": [3137, 4811, 6243, 7938, 10019], "responses": ["20", "22", "6", "21", "8"], "num1": [8, 9, 2, 8, 3, 2], "num2": [4, 9, 2, 7, 2, 8], "num3": [6, 4, 2, 4, 3, 7], "type": "DISTRACTOR", "conditions": [24, 1600, "v", 12000], "trial": 3, "trial_type": "math-distractor", "trial_index": 117, "time_elapsed": 598458, "internal_node_id": "0.0-90.0"}}, {"uniqueid": "MTK1003:33F859I567KGBRUI5M3EM4F5FDYBH0", "current_trial": 118, "dateTime": 1512964346463, "trialdata": {"rt": -1, "stimulus": "<p id=\"stim\">10</p>", "key_press": -1, "trial_type": "single-stim", "trial_index": 118, "time_elapsed": 601462, "internal_node_id": "0.0-91.0-0.0"}}, {"uniqueid": "MTK1003:33F859I567KGBRUI5M3EM4F5FDYBH0", "current_trial": 119, "dateTime": 1512964347467, "trialdata": {"rt": -1, "stimulus": "<p id=\"stim\">9</p>", "key_press": -1, "trial_type": "single-stim", "trial_index": 119, "time_elapsed": 602466, "internal_node_id": "0.0-91.0-1.0"}}, {"uniqueid": "MTK1003:33F859I567KGBRUI5M3EM4F5FDYBH0", "current_trial": 120, "dateTime": 1512964348470, "trialdata": {"rt": -1, "stimulus": "<p id=\"stim\">8</p>", "key_press": -1, "trial_type": "single-stim", "trial_index": 120, "time_elapsed": 603469, "internal_node_id": "0.0-91.0-2.0"}}, {"uniqueid": "MTK1003:33F859I567KGBRUI5M3EM4F5FDYBH0", "current_trial": 121, "dateTime": 1512964349472, "trialdata": {"rt": -1, "stimulus": "<p id=\"stim\">7</p>", "key_press": -1, "trial_type": "single-stim", "trial_index": 121, "time_elapsed": 604470, "internal_node_id": "0.0-91.0-3.0"}}, {"uniqueid": "MTK1003:33F859I567KGBRUI5M3EM4F5FDYBH0", "current_trial": 122, "dateTime": 1512964350474, "trialdata": {"rt": -1, "stimulus": "<p id=\"stim\">6</p>", "key_press": -1, "trial_type": "single-stim", "trial_index": 122, "time_elapsed": 605472, "internal_node_id": "0.0-91.0-4.0"}}, {"uniqueid": "MTK1003:33F859I567KGBRUI5M3EM4F5FDYBH0", "current_trial": 123, "dateTime": 1512964351476, "trialdata": {"rt": -1, "stimulus": "<p id=\"stim\">5</p>", "key_press": -1, "trial_type": "single-stim", "trial_index": 123, "time_elapsed": 606474, "internal_node_id": "0.0-91.0-5.0"}}, {"uniqueid": "MTK1003:33F859I567KGBRUI5M3EM4F5FDYBH0", "current_trial": 124, "dateTime": 1512964352478, "trialdata": {"rt": -1, "stimulus": "<p id=\"stim\">4</p>", "key_press": -1, "trial_type": "single-stim", "trial_index": 124, "time_elapsed": 607477, "internal_node_id": "0.0-91.0-6.0"}}, {"uniqueid": "MTK1003:33F859I567KGBRUI5M3EM4F5FDYBH0", "current_trial": 125, "dateTime": 1512964353480, "trialdata": {"rt": -1, "stimulus": "<p id=\"stim\">3</p>", "key_press": -1, "trial_type": "single-stim", "trial_index": 125, "time_elapsed": 608478, "internal_node_id": "0.0-91.0-7.0"}}, {"uniqueid": "MTK1003:33F859I567KGBRUI5M3EM4F5FDYBH0", "current_trial": 126, "dateTime": 1512964354482, "trialdata": {"rt": 553, "stimulus": "<p id=\"stim\">2</p>", "key_press": 190, "trial_type": "single-stim", "trial_index": 126, "time_elapsed": 609480, "internal_node_id": "0.0-91.0-8.0"}}, {"uniqueid": "MTK1003:33F859I567KGBRUI5M3EM4F5FDYBH0", "current_trial": 127, "dateTime": 1512964355485, "trialdata": {"rt": -1, "stimulus": "<p id=\"stim\">1</p>", "key_press": -1, "trial_type": "single-stim", "trial_index": 127, "time_elapsed": 610484, "internal_node_id": "0.0-91.0-9.0"}}, {"uniqueid": "MTK1003:33F859I567KGBRUI5M3EM4F5FDYBH0", "current_trial": 128, "dateTime": 1512964356988, "trialdata": {"rt": -1, "stimulus": "<p id=\"stim\">+</p>", "key_press": -1, "type": "FIXATION", "trial_type": "single-stim", "trial_index": 128, "time_elapsed": 611987, "internal_node_id": "0.0-92.0-0.0"}}, {"uniqueid": "MTK1003:33F859I567KGBRUI5M3EM4F5FDYBH0", "current_trial": 129, "dateTime": 1512964358591, "trialdata": {"rt": -1, "stimulus": "<p id=\"stim\">PERCH</p>", "key_press": -1, "type": "PRES_VIS", "word": "perch", "wordID": 1047, "conditions": [24, 1600, "v", 12000], "trial": 3, "serialpos": 0, "trial_type": "single-stim", "trial_index": 129, "time_elapsed": 613589, "internal_node_id": "0.0-93.0"}}, {"uniqueid": "MTK1003:33F859I567KGBRUI5M3EM4F5FDYBH0", "current_trial": 130, "dateTime": 1512964361224, "trialdata": {"rt": -1, "stimulus": "<p id=\"stim\">CHAUFFEUR</p>", "key_press": -1, "type": "PRES_VIS", "word": "chauffeur", "wordID": 282, "conditions": [24, 1600, "v", 12000], "trial": 3, "serialpos": 1, "trial_type": "single-stim", "trial_index": 130, "time_elapsed": 616222, "internal_node_id": "0.0-94.0"}}, {"uniqueid": "MTK1003:33F859I567KGBRUI5M3EM4F5FDYBH0", "current_trial": 131, "dateTime": 1512964363899, "trialdata": {"rt": -1, "stimulus": "<p id=\"stim\">ARMY</p>", "key_press": -1, "type": "PRES_VIS", "word": "army", "wordID": 38, "conditions": [24, 1600, "v", 12000], "trial": 3, "serialpos": 2, "trial_type": "single-stim", "trial_index": 131, "time_elapsed": 618898, "internal_node_id": "0.0-95.0"}}, {"uniqueid": "MTK1003:33F859I567KGBRUI5M3EM4F5FDYBH0", "current_trial": 132, "dateTime": 1512964366684, "trialdata": {"rt": -1, "stimulus": "<p id=\"stim\">PEANUT</p>", "key_press": -1, "type": "PRES_VIS", "word": "peanut", "wordID": 1031, "conditions": [24, 1600, "v", 12000], "trial": 3, "serialpos": 3, "trial_type": "single-stim", "trial_index": 132, "time_elapsed": 621683, "internal_node_id": "0.0-96.0"}}, {"uniqueid": "MTK1003:33F859I567KGBRUI5M3EM4F5FDYBH0", "current_trial": 133, "dateTime": 1512964369389, "trialdata": {"rt": -1, "stimulus": "<p id=\"stim\">OYSTER</p>", "key_press": -1, "type": "PRES_VIS", "word": "oyster", "wordID": 994, "conditions": [24, 1600, "v", 12000], "trial": 3, "serialpos": 4, "trial_type": "single-stim", "trial_index": 133, "time_elapsed": 624388, "internal_node_id": "0.0-97.0"}}, {"uniqueid": "MTK1003:33F859I567KGBRUI5M3EM4F5FDYBH0", "current_trial": 134, "dateTime": 1512964372039, "trialdata": {"rt": -1, "stimulus": "<p id=\"stim\">ULCER</p>", "key_press": -1, "type": "PRES_VIS", "word": "ulcer", "wordID": 1532, "conditions": [24, 1600, "v", 12000], "trial": 3, "serialpos": 5, "trial_type": "single-stim", "trial_index": 134, "time_elapsed": 627037, "internal_node_id": "0.0-98.0"}}, {"uniqueid": "MTK1003:33F859I567KGBRUI5M3EM4F5FDYBH0", "current_trial": 135, "dateTime": 1512964374783, "trialdata": {"rt": -1, "stimulus": "<p id=\"stim\">PECAN</p>", "key_press": -1, "type": "PRES_VIS", "word": "pecan", "wordID": 1035, "conditions": [24, 1600, "v", 12000], "trial": 3, "serialpos": 6, "trial_type": "single-stim", "trial_index": 135, "time_elapsed": 629781, "internal_node_id": "0.0-99.0"}}, {"uniqueid": "MTK1003:33F859I567KGBRUI5M3EM4F5FDYBH0", "current_trial": 136, "dateTime": 1512964377200, "trialdata": {"rt": -1, "stimulus": "<p id=\"stim\">SPOOL</p>", "key_press": -1, "type": "PRES_VIS", "word": "spool", "wordID": 1355, "conditions": [24, 1600, "v", 12000], "trial": 3, "serialpos": 7, "trial_type": "single-stim", "trial_index": 136, "time_elapsed": 632198, "internal_node_id": "0.0-100.0"}}, {"uniqueid": "MTK1003:33F859I567KGBRUI5M3EM4F5FDYBH0", "current_trial": 137, "dateTime": 1512964379663, "trialdata": {"rt": -1, "stimulus": "<p id=\"stim\">SEAL</p>", "key_press": -1, "type": "PRES_VIS", "word": "seal", "wordID": 1261, "conditions": [24, 1600, "v", 12000], "trial": 3, "serialpos": 8, "trial_type": "single-stim", "trial_index": 137, "time_elapsed": 634661, "internal_node_id": "0.0-101.0"}}, {"uniqueid": "MTK1003:33F859I567KGBRUI5M3EM4F5FDYBH0", "current_trial": 138, "dateTime": 1512964382204, "trialdata": {"rt": -1, "stimulus": "<p id=\"stim\">PATROL</p>", "key_press": -1, "type": "PRES_VIS", "word": "patrol", "wordID": 1026, "conditions": [24, 1600, "v", 12000], "trial": 3, "serialpos": 9, "trial_type": "single-stim", "trial_index": 138, "time_elapsed": 637202, "internal_node_id": "0.0-102.0"}}, {"uniqueid": "MTK1003:33F859I567KGBRUI5M3EM4F5FDYBH0", "current_trial": 139, "dateTime": 1512964384692, "trialdata": {"rt": -1, "stimulus": "<p id=\"stim\">POLICE</p>", "key_press": -1, "type": "PRES_VIS", "word": "police", "wordID": 1097, "conditions": [24, 1600, "v", 12000], "trial": 3, "serialpos": 10, "trial_type": "single-stim", "trial_index": 139, "time_elapsed": 639691, "internal_node_id": "0.0-103.0"}}, {"uniqueid": "MTK1003:33F859I567KGBRUI5M3EM4F5FDYBH0", "current_trial": 140, "dateTime": 1512964387494, "trialdata": {"rt": -1, "stimulus": "<p id=\"stim\">DOLPHIN</p>", "key_press": -1, "type": "PRES_VIS", "word": "dolphin", "wordID": 482, "conditions": [24, 1600, "v", 12000], "trial": 3, "serialpos": 11, "trial_type": "single-stim", "trial_index": 140, "time_elapsed": 642492, "internal_node_id": "0.0-104.0"}}, {"uniqueid": "MTK1003:33F859I567KGBRUI5M3EM4F5FDYBH0", "current_trial": 141, "dateTime": 1512964389967, "trialdata": {"rt": -1, "stimulus": "<p id=\"stim\">DORM</p>", "key_press": -1, "type": "PRES_VIS", "word": "dorm", "wordID": 487, "conditions": [24, 1600, "v", 12000], "trial": 3, "serialpos": 12, "trial_type": "single-stim", "trial_index": 141, "time_elapsed": 644965, "internal_node_id": "0.0-105.0"}}, {"uniqueid": "MTK1003:33F859I567KGBRUI5M3EM4F5FDYBH0", "current_trial": 142, "dateTime": 1512964392648, "trialdata": {"rt": -1, "stimulus": "<p id=\"stim\">SIBLING</p>", "key_press": -1, "type": "PRES_VIS", "word": "sibling", "wordID": 1300, "conditions": [24, 1600, "v", 12000], "trial": 3, "serialpos": 13, "trial_type": "single-stim", "trial_index": 142, "time_elapsed": 647647, "internal_node_id": "0.0-106.0"}}, {"uniqueid": "MTK1003:33F859I567KGBRUI5M3EM4F5FDYBH0", "current_trial": 143, "dateTime": 1512964395297, "trialdata": {"rt": -1, "stimulus": "<p id=\"stim\">COCOON</p>", "key_press": -1, "type": "PRES_VIS", "word": "cocoon", "wordID": 338, "conditions": [24, 1600, "v", 12000], "trial": 3, "serialpos": 14, "trial_type": "single-stim", "trial_index": 143, "time_elapsed": 650296, "internal_node_id": "0.0-107.0"}}, {"uniqueid": "MTK1003:33F859I567KGBRUI5M3EM4F5FDYBH0", "current_trial": 144, "dateTime": 1512964397748, "trialdata": {"rt": -1, "stimulus": "<p id=\"stim\">WORLD</p>", "key_press": -1, "type": "PRES_VIS", "word": "world", "wordID": 1621, "conditions": [24, 1600, "v", 12000], "trial": 3, "serialpos": 15, "trial_type": "single-stim", "trial_index": 144, "time_elapsed": 652746, "internal_node_id": "0.0-108.0"}}, {"uniqueid": "MTK1003:33F859I567KGBRUI5M3EM4F5FDYBH0", "current_trial": 145, "dateTime": 1512964400164, "trialdata": {"rt": -1, "stimulus": "<p id=\"stim\">FILM</p>", "key_press": -1, "type": "PRES_VIS", "word": "film", "wordID": 564, "conditions": [24, 1600, "v", 12000], "trial": 3, "serialpos": 16, "trial_type": "single-stim", "trial_index": 145, "time_elapsed": 655163, "internal_node_id": "0.0-109.0"}}, {"uniqueid": "MTK1003:33F859I567KGBRUI5M3EM4F5FDYBH0", "current_trial": 146, "dateTime": 1512964402697, "trialdata": {"rt": -1, "stimulus": "<p id=\"stim\">SMOG</p>", "key_press": -1, "type": "PRES_VIS", "word": "smog", "wordID": 1329, "conditions": [24, 1600, "v", 12000], "trial": 3, "serialpos": 17, "trial_type": "single-stim", "trial_index": 146, "time_elapsed": 657696, "internal_node_id": "0.0-110.0"}}, {"uniqueid": "MTK1003:33F859I567KGBRUI5M3EM4F5FDYBH0", "current_trial": 147, "dateTime": 1512964405226, "trialdata": {"rt": -1, "stimulus": "<p id=\"stim\">OZONE</p>", "key_press": -1, "type": "PRES_VIS", "word": "ozone", "wordID": 995, "conditions": [24, 1600, "v", 12000], "trial": 3, "serialpos": 18, "trial_type": "single-stim", "trial_index": 147, "time_elapsed": 660224, "internal_node_id": "0.0-111.0"}}, {"uniqueid": "MTK1003:33F859I567KGBRUI5M3EM4F5FDYBH0", "current_trial": 148, "dateTime": 1512964407978, "trialdata": {"rt": -1, "stimulus": "<p id=\"stim\">COWBOY</p>", "key_press": -1, "type": "PRES_VIS", "word": "cowboy", "wordID": 394, "conditions": [24, 1600, "v", 12000], "trial": 3, "serialpos": 19, "trial_type": "single-stim", "trial_index": 148, "time_elapsed": 662976, "internal_node_id": "0.0-112.0"}}, {"uniqueid": "MTK1003:33F859I567KGBRUI5M3EM4F5FDYBH0", "current_trial": 149, "dateTime": 1512964410470, "trialdata": {"rt": -1, "stimulus": "<p id=\"stim\">TORTOISE</p>", "key_press": -1, "type": "PRES_VIS", "word": "tortoise", "wordID": 1485, "conditions": [24, 1600, "v", 12000], "trial": 3, "serialpos": 20, "trial_type": "single-stim", "trial_index": 149, "time_elapsed": 665468, "internal_node_id": "0.0-113.0"}}, {"uniqueid": "MTK1003:33F859I567KGBRUI5M3EM4F5FDYBH0", "current_trial": 150, "dateTime": 1512964413259, "trialdata": {"rt": -1, "stimulus": "<p id=\"stim\">ACTOR</p>", "key_press": -1, "type": "PRES_VIS", "word": "actor", "wordID": 4, "conditions": [24, 1600, "v", 12000], "trial": 3, "serialpos": 21, "trial_type": "single-stim", "trial_index": 150, "time_elapsed": 668257, "internal_node_id": "0.0-114.0"}}, {"uniqueid": "MTK1003:33F859I567KGBRUI5M3EM4F5FDYBH0", "current_trial": 151, "dateTime": 1512964415846, "trialdata": {"rt": -1, "stimulus": "<p id=\"stim\">FLIPPER</p>", "key_press": -1, "type": "PRES_VIS", "word": "flipper", "wordID": 579, "conditions": [24, 1600, "v", 12000], "trial": 3, "serialpos": 22, "trial_type": "single-stim", "trial_index": 151, "time_elapsed": 670844, "internal_node_id": "0.0-115.0"}}, {"uniqueid": "MTK1003:33F859I567KGBRUI5M3EM4F5FDYBH0", "current_trial": 152, "dateTime": 1512964418252, "trialdata": {"rt": -1, "stimulus": "<p id=\"stim\">SIDEWALK</p>", "key_press": -1, "type": "PRES_VIS", "word": "sidewalk", "wordID": 1302, "conditions": [24, 1600, "v", 12000], "trial": 3, "serialpos": 23, "trial_type": "single-stim", "trial_index": 152, "time_elapsed": 673251, "internal_node_id": "0.0-116.0"}}, {"uniqueid": "MTK1003:33F859I567KGBRUI5M3EM4F5FDYBH0", "current_trial": 153, "dateTime": 1512964420459, "trialdata": {"rt": -1, "stimulus": "", "key_press": -1, "type": "PRE_RECALL_DELAY", "trial_type": "single-stim", "trial_index": 153, "time_elapsed": 675458, "internal_node_id": "0.0-117.0-0.0"}}, {"uniqueid": "MTK1003:33F859I567KGBRUI5M3EM4F5FDYBH0", "current_trial": 154, "dateTime": 1512964420961, "trialdata": {"rt": -1000, "stimulus": "/static/audio/400Hz.wav", "key_press": -1, "type": "PRE_RECALL_ALERT", "trial_type": "single-audio", "trial_index": 154, "time_elapsed": 675960, "internal_node_id": "0.0-118.0"}}, {"uniqueid": "MTK1003:33F859I567KGBRUI5M3EM4F5FDYBH0", "current_trial": 155, "dateTime": 1512964480973, "trialdata": {"rt": [4356, 10908, 13588, 17148, 19107, 21524, 27292, 29764, 31964, 33619, 35371, 36444, 38316, 40420, 42492, 49141, 51756, 53403], "recwords": ["army", "sidewalk", "flipper", "actopr", "actor", "tortoise", "cowboy", "world", "dorm", "sibling", "p", "olice", "policed", "police", "patrol", "peanut", "pecan", "seal"], "type": "FREE_RECALL", "conditions": [24, 1600, "v", 12000], "trial": 3, "trial_type": "free-recall", "trial_index": 155, "time_elapsed": 735965, "internal_node_id": "0.0-119.0-0.0"}}, {"uniqueid": "MTK1003:33F859I567KGBRUI5M3EM4F5FDYBH0", "current_trial": 156, "dateTime": 1512964486057, "trialdata": {"rt": 3082, "key_press": 13, "type": "INSTRUCTIONS", "trial_type": "text", "trial_index": 156, "time_elapsed": 741056, "internal_node_id": "0.0-120.0"}}, {"uniqueid": "MTK1003:33F859I567KGBRUI5M3EM4F5FDYBH0", "current_trial": 157, "dateTime": 1512964500064, "trialdata": {"rt": [4906, 7347, 9074, 10835], "responses": ["18", "15", "19", "10"], "num1": [6, 4, 8, 3, 2], "num2": [3, 4, 2, 1, 5], "num3": [9, 7, 9, 6, 5], "type": "DISTRACTOR", "conditions": [24, 800, "a", 12000], "trial": 4, "trial_type": "math-distractor", "trial_index": 157, "time_elapsed": 755062, "internal_node_id": "0.0-121.0"}}, {"uniqueid": "MTK1003:33F859I567KGBRUI5M3EM4F5FDYBH0", "current_trial": 158, "dateTime": 1512964503067, "trialdata": {"rt": -1, "stimulus": "<p id=\"stim\">10</p>", "key_press": -1, "trial_type": "single-stim", "trial_index": 158, "time_elapsed": 758065, "internal_node_id": "0.0-122.0-0.0"}}, {"uniqueid": "MTK1003:33F859I567KGBRUI5M3EM4F5FDYBH0", "current_trial": 159, "dateTime": 1512964504070, "trialdata": {"rt": -1, "stimulus": "<p id=\"stim\">9</p>", "key_press": -1, "trial_type": "single-stim", "trial_index": 159, "time_elapsed": 759068, "internal_node_id": "0.0-122.0-1.0"}}, {"uniqueid": "MTK1003:33F859I567KGBRUI5M3EM4F5FDYBH0", "current_trial": 160, "dateTime": 1512964505072, "trialdata": {"rt": -1, "stimulus": "<p id=\"stim\">8</p>", "key_press": -1, "trial_type": "single-stim", "trial_index": 160, "time_elapsed": 760070, "internal_node_id": "0.0-122.0-2.0"}}, {"uniqueid": "MTK1003:33F859I567KGBRUI5M3EM4F5FDYBH0", "current_trial": 161, "dateTime": 1512964506073, "trialdata": {"rt": -1, "stimulus": "<p id=\"stim\">7</p>", "key_press": -1, "trial_type": "single-stim", "trial_index": 161, "time_elapsed": 761072, "internal_node_id": "0.0-122.0-3.0"}}, {"uniqueid": "MTK1003:33F859I567KGBRUI5M3EM4F5FDYBH0", "current_trial": 162, "dateTime": 1512964507076, "trialdata": {"rt": -1, "stimulus": "<p id=\"stim\">6</p>", "key_press": -1, "trial_type": "single-stim", "trial_index": 162, "time_elapsed": 762075, "internal_node_id": "0.0-122.0-4.0"}}, {"uniqueid": "MTK1003:33F859I567KGBRUI5M3EM4F5FDYBH0", "current_trial": 163, "dateTime": 1512964508080, "trialdata": {"rt": -1, "stimulus": "<p id=\"stim\">5</p>", "key_press": -1, "trial_type": "single-stim", "trial_index": 163, "time_elapsed": 763078, "internal_node_id": "0.0-122.0-5.0"}}, {"uniqueid": "MTK1003:33F859I567KGBRUI5M3EM4F5FDYBH0", "current_trial": 164, "dateTime": 1512964509083, "trialdata": {"rt": -1, "stimulus": "<p id=\"stim\">4</p>", "key_press": -1, "trial_type": "single-stim", "trial_index": 164, "time_elapsed": 764081, "internal_node_id": "0.0-122.0-6.0"}}, {"uniqueid": "MTK1003:33F859I567KGBRUI5M3EM4F5FDYBH0", "current_trial": 165, "dateTime": 1512964510086, "trialdata": {"rt": -1, "stimulus": "<p id=\"stim\">3</p>", "key_press": -1, "trial_type": "single-stim", "trial_index": 165, "time_elapsed": 765084, "internal_node_id": "0.0-122.0-7.0"}}, {"uniqueid": "MTK1003:33F859I567KGBRUI5M3EM4F5FDYBH0", "current_trial": 166, "dateTime": 1512964511088, "trialdata": {"rt": -1, "stimulus": "<p id=\"stim\">2</p>", "key_press": -1, "trial_type": "single-stim", "trial_index": 166, "time_elapsed": 766086, "internal_node_id": "0.0-122.0-8.0"}}, {"uniqueid": "MTK1003:33F859I567KGBRUI5M3EM4F5FDYBH0", "current_trial": 167, "dateTime": 1512964512090, "trialdata": {"rt": -1, "stimulus": "<p id=\"stim\">1</p>", "key_press": -1, "trial_type": "single-stim", "trial_index": 167, "time_elapsed": 767088, "internal_node_id": "0.0-122.0-9.0"}}, {"uniqueid": "MTK1003:33F859I567KGBRUI5M3EM4F5FDYBH0", "current_trial": 168, "dateTime": 1512964513592, "trialdata": {"rt": -1, "stimulus": "<p id=\"stim\">+</p>", "key_press": -1, "type": "FIXATION", "trial_type": "single-stim", "trial_index": 168, "time_elapsed": 768590, "internal_node_id": "0.0-123.0-0.0"}}, {"uniqueid": "MTK1003:33F859I567KGBRUI5M3EM4F5FDYBH0", "current_trial": 169, "dateTime": 1512964515354, "trialdata": {"rt": -1000, "stimulus": "/static/audio/wordpool/WIFE.wav", "key_press": -1, "type": "PRES_AUD", "word": "wife", "wordID": 1608, "conditions": [24, 800, "a", 12000], "trial": 4, "serialpos": 0, "trial_type": "single-audio", "trial_index": 169, "time_elapsed": 770353, "internal_node_id": "0.0-124.0"}}, {"uniqueid": "MTK1003:33F859I567KGBRUI5M3EM4F5FDYBH0", "current_trial": 170, "dateTime": 1512964517131, "trialdata": {"rt": -1000, "stimulus": "/static/audio/wordpool/FRIEND.wav", "key_press": -1, "type": "PRES_AUD", "word": "friend", "wordID": 605, "conditions": [24, 800, "a", 12000], "trial": 4, "serialpos": 1, "trial_type": "single-audio", "trial_index": 170, "time_elapsed": 772130, "internal_node_id": "0.0-125.0"}}, {"uniqueid": "MTK1003:33F859I567KGBRUI5M3EM4F5FDYBH0", "current_trial": 171, "dateTime": 1512964518902, "trialdata": {"rt": -1000, "stimulus": "/static/audio/wordpool/SCULPTURE.wav", "key_press": -1, "type": "PRES_AUD", "word": "sculpture", "wordID": 1257, "conditions": [24, 800, "a", 12000], "trial": 4, "serialpos": 2, "trial_type": "single-audio", "trial_index": 171, "time_elapsed": 773900, "internal_node_id": "0.0-126.0"}}, {"uniqueid": "MTK1003:33F859I567KGBRUI5M3EM4F5FDYBH0", "current_trial": 172, "dateTime": 1512964520798, "trialdata": {"rt": -1000, "stimulus": "/static/audio/wordpool/EXPERT.wav", "key_press": -1, "type": "PRES_AUD", "word": "expert", "wordID": 542, "conditions": [24, 800, "a", 12000], "trial": 4, "serialpos": 3, "trial_type": "single-audio", "trial_index": 172, "time_elapsed": 775793, "internal_node_id": "0.0-127.0"}}, {"uniqueid": "MTK1003:33F859I567KGBRUI5M3EM4F5FDYBH0", "current_trial": 173, "dateTime": 1512964522747, "trialdata": {"rt": -1000, "stimulus": "/static/audio/wordpool/FLESH.wav", "key_press": -1, "type": "PRES_AUD", "word": "flesh", "wordID": 578, "conditions": [24, 800, "a", 12000], "trial": 4, "serialpos": 4, "trial_type": "single-audio", "trial_index": 173, "time_elapsed": 777746, "internal_node_id": "0.0-128.0"}}, {"uniqueid": "MTK1003:33F859I567KGBRUI5M3EM4F5FDYBH0", "current_trial": 174, "dateTime": 1512964524658, "trialdata": {"rt": -1000, "stimulus": "/static/audio/wordpool/SAUSAGE.wav", "key_press": -1, "type": "PRES_AUD", "word": "sausage", "wordID": 1237, "conditions": [24, 800, "a", 12000], "trial": 4, "serialpos": 5, "trial_type": "single-audio", "trial_index": 174, "time_elapsed": 779657, "internal_node_id": "0.0-129.0"}}, {"uniqueid": "MTK1003:33F859I567KGBRUI5M3EM4F5FDYBH0", "current_trial": 175, "dateTime": 1512964526502, "trialdata": {"rt": -1000, "stimulus": "/static/audio/wordpool/COLLEGE.wav", "key_press": -1, "type": "PRES_AUD", "word": "college", "wordID": 345, "conditions": [24, 800, "a", 12000], "trial": 4, "serialpos": 6, "trial_type": "single-audio", "trial_index": 175, "time_elapsed": 781501, "internal_node_id": "0.0-130.0"}}, {"uniqueid": "MTK1003:33F859I567KGBRUI5M3EM4F5FDYBH0", "current_trial": 176, "dateTime": 1512964528451, "trialdata": {"rt": -1000, "stimulus": "/static/audio/wordpool/SOFTBALL.wav", "key_press": -1, "type": "PRES_AUD", "word": "softball", "wordID": 1342, "conditions": [24, 800, "a", 12000], "trial": 4, "serialpos": 7, "trial_type": "single-audio", "trial_index": 176, "time_elapsed": 783449, "internal_node_id": "0.0-131.0"}}, {"uniqueid": "MTK1003:33F859I567KGBRUI5M3EM4F5FDYBH0", "current_trial": 177, "dateTime": 1512964530287, "trialdata": {"rt": -1000, "stimulus": "/static/audio/wordpool/HAWK.wav", "key_press": -1, "type": "PRES_AUD", "word": "hawk", "wordID": 691, "conditions": [24, 800, "a", 12000], "trial": 4, "serialpos": 8, "trial_type": "single-audio", "trial_index": 177, "time_elapsed": 785286, "internal_node_id": "0.0-132.0"}}, {"uniqueid": "MTK1003:33F859I567KGBRUI5M3EM4F5FDYBH0", "current_trial": 178, "dateTime": 1512964532216, "trialdata": {"rt": -1000, "stimulus": "/static/audio/wordpool/SILK.wav", "key_press": -1, "type": "PRES_AUD", "word": "silk", "wordID": 1306, "conditions": [24, 800, "a", 12000], "trial": 4, "serialpos": 9, "trial_type": "single-audio", "trial_index": 178, "time_elapsed": 787215, "internal_node_id": "0.0-133.0"}}, {"uniqueid": "MTK1003:33F859I567KGBRUI5M3EM4F5FDYBH0", "current_trial": 179, "dateTime": 1512964533924, "trialdata": {"rt": -1000, "stimulus": "/static/audio/wordpool/STATUE.wav", "key_press": -1, "type": "PRES_AUD", "word": "statue", "wordID": 1373, "conditions": [24, 800, "a", 12000], "trial": 4, "serialpos": 10, "trial_type": "single-audio", "trial_index": 179, "time_elapsed": 788923, "internal_node_id": "0.0-134.0"}}, {"uniqueid": "MTK1003:33F859I567KGBRUI5M3EM4F5FDYBH0", "current_trial": 180, "dateTime": 1512964535566, "trialdata": {"rt": -1000, "stimulus": "/static/audio/wordpool/GROUND.wav", "key_press": -1, "type": "PRES_AUD", "word": "ground", "wordID": 665, "conditions": [24, 800, "a", 12000], "trial": 4, "serialpos": 11, "trial_type": "single-audio", "trial_index": 180, "time_elapsed": 790565, "internal_node_id": "0.0-135.0"}}, {"uniqueid": "MTK1003:33F859I567KGBRUI5M3EM4F5FDYBH0", "current_trial": 181, "dateTime": 1512964537189, "trialdata": {"rt": -1000, "stimulus": "/static/audio/wordpool/KNIFE.wav", "key_press": -1, "type": "PRES_AUD", "word": "knife", "wordID": 784, "conditions": [24, 800, "a", 12000], "trial": 4, "serialpos": 12, "trial_type": "single-audio", "trial_index": 181, "time_elapsed": 792188, "internal_node_id": "0.0-136.0"}}, {"uniqueid": "MTK1003:33F859I567KGBRUI5M3EM4F5FDYBH0", "current_trial": 182, "dateTime": 1512964539075, "trialdata": {"rt": -1000, "stimulus": "/static/audio/wordpool/TURKEY.wav", "key_press": -1, "type": "PRES_AUD", "word": "turkey", "wordID": 1519, "conditions": [24, 800, "a", 12000], "trial": 4, "serialpos": 13, "trial_type": "single-audio", "trial_index": 182, "time_elapsed": 794074, "internal_node_id": "0.0-137.0"}}, {"uniqueid": "MTK1003:33F859I567KGBRUI5M3EM4F5FDYBH0", "current_trial": 183, "dateTime": 1512964540919, "trialdata": {"rt": -1000, "stimulus": "/static/audio/wordpool/ASIA.wav", "key_press": -1, "type": "PRES_AUD", "word": "asia", "wordID": 45, "conditions": [24, 800, "a", 12000], "trial": 4, "serialpos": 14, "trial_type": "single-audio", "trial_index": 183, "time_elapsed": 795918, "internal_node_id": "0.0-138.0"}}, {"uniqueid": "MTK1003:33F859I567KGBRUI5M3EM4F5FDYBH0", "current_trial": 184, "dateTime": 1512964542841, "trialdata": {"rt": -1000, "stimulus": "/static/audio/wordpool/EUROPE.wav", "key_press": -1, "type": "PRES_AUD", "word": "europe", "wordID": 540, "conditions": [24, 800, "a", 12000], "trial": 4, "serialpos": 15, "trial_type": "single-audio", "trial_index": 184, "time_elapsed": 797840, "internal_node_id": "0.0-139.0"}}, {"uniqueid": "MTK1003:33F859I567KGBRUI5M3EM4F5FDYBH0", "current_trial": 185, "dateTime": 1512964544797, "trialdata": {"rt": -1000, "stimulus": "/static/audio/wordpool/WITNESS.wav", "key_press": -1, "type": "PRES_AUD", "word": "witness", "wordID": 1617, "conditions": [24, 800, "a", 12000], "trial": 4, "serialpos": 16, "trial_type": "single-audio", "trial_index": 185, "time_elapsed": 799794, "internal_node_id": "0.0-140.0"}}, {"uniqueid": "MTK1003:33F859I567KGBRUI5M3EM4F5FDYBH0", "current_trial": 186, "dateTime": 1512964546760, "trialdata": {"rt": -1000, "stimulus": "/static/audio/wordpool/SHOULDER.wav", "key_press": -1, "type": "PRES_AUD", "word": "shoulder", "wordID": 1293, "conditions": [24, 800, "a", 12000], "trial": 4, "serialpos": 17, "trial_type": "single-audio", "trial_index": 186, "time_elapsed": 801759, "internal_node_id": "0.0-141.0"}}, {"uniqueid": "MTK1003:33F859I567KGBRUI5M3EM4F5FDYBH0", "current_trial": 187, "dateTime": 1512964548713, "trialdata": {"rt": -1000, "stimulus": "/static/audio/wordpool/FOOT.wav", "key_press": -1, "type": "PRES_AUD", "word": "foot", "wordID": 589, "conditions": [24, 800, "a", 12000], "trial": 4, "serialpos": 18, "trial_type": "single-audio", "trial_index": 187, "time_elapsed": 803712, "internal_node_id": "0.0-142.0"}}, {"uniqueid": "MTK1003:33F859I567KGBRUI5M3EM4F5FDYBH0", "current_trial": 188, "dateTime": 1512964550355, "trialdata": {"rt": -1000, "stimulus": "/static/audio/wordpool/BACON.wav", "key_press": -1, "type": "PRES_AUD", "word": "bacon", "wordID": 66, "conditions": [24, 800, "a", 12000], "trial": 4, "serialpos": 19, "trial_type": "single-audio", "trial_index": 188, "time_elapsed": 805354, "internal_node_id": "0.0-143.0"}}, {"uniqueid": "MTK1003:33F859I567KGBRUI5M3EM4F5FDYBH0", "current_trial": 189, "dateTime": 1512964551997, "trialdata": {"rt": -1000, "stimulus": "/static/audio/wordpool/EMPIRE.wav", "key_press": -1, "type": "PRES_AUD", "word": "empire", "wordID": 529, "conditions": [24, 800, "a", 12000], "trial": 4, "serialpos": 20, "trial_type": "single-audio", "trial_index": 189, "time_elapsed": 806996, "internal_node_id": "0.0-144.0"}}, {"uniqueid": "MTK1003:33F859I567KGBRUI5M3EM4F5FDYBH0", "current_trial": 190, "dateTime": 1512964553795, "trialdata": {"rt": -1000, "stimulus": "/static/audio/wordpool/BRANDY.wav", "key_press": -1, "type": "PRES_AUD", "word": "brandy", "wordID": 168, "conditions": [24, 800, "a", 12000], "trial": 4, "serialpos": 21, "trial_type": "single-audio", "trial_index": 190, "time_elapsed": 808794, "internal_node_id": "0.0-145.0"}}, {"uniqueid": "MTK1003:33F859I567KGBRUI5M3EM4F5FDYBH0", "current_trial": 191, "dateTime": 1512964555542, "trialdata": {"rt": -1000, "stimulus": "/static/audio/wordpool/CASHIER.wav", "key_press": -1, "type": "PRES_AUD", "word": "cashier", "wordID": 253, "conditions": [24, 800, "a", 12000], "trial": 4, "serialpos": 22, "trial_type": "single-audio", "trial_index": 191, "time_elapsed": 810541, "internal_node_id": "0.0-146.0"}}, {"uniqueid": "MTK1003:33F859I567KGBRUI5M3EM4F5FDYBH0", "current_trial": 192, "dateTime": 1512964557521, "trialdata": {"rt": -1000, "stimulus": "/static/audio/wordpool/TYPIST.wav", "key_press": -1, "type": "PRES_AUD", "word": "typist", "wordID": 1531, "conditions": [24, 800, "a", 12000], "trial": 4, "serialpos": 23, "trial_type": "single-audio", "trial_index": 192, "time_elapsed": 812520, "internal_node_id": "0.0-147.0"}}, {"uniqueid": "MTK1003:33F859I567KGBRUI5M3EM4F5FDYBH0", "current_trial": 193, "dateTime": 1512964558923, "trialdata": {"rt": -1, "stimulus": "", "key_press": -1, "type": "PRE_RECALL_DELAY", "trial_type": "single-stim", "trial_index": 193, "time_elapsed": 813922, "internal_node_id": "0.0-148.0-0.0"}}, {"uniqueid": "MTK1003:33F859I567KGBRUI5M3EM4F5FDYBH0", "current_trial": 194, "dateTime": 1512964559426, "trialdata": {"rt": -1000, "stimulus": "/static/audio/400Hz.wav", "key_press": -1, "type": "PRE_RECALL_ALERT", "trial_type": "single-audio", "trial_index": 194, "time_elapsed": 814425, "internal_node_id": "0.0-149.0"}}, {"uniqueid": "MTK1003:33F859I567KGBRUI5M3EM4F5FDYBH0", "current_trial": 195, "dateTime": 1512964619449, "trialdata": {"rt": [5050, 6579, 8019, 12603, 14274, 17442, 21523, 22579, 25899, 29778, 32418, 35874, 36907, 38978, 49244], "recwords": ["typist", "cashier", "brandy", "bacon", "empire", "foot", "europe", "asia", "statue", "softball", "college", "expert", "wife", "friend", ""], "type": "FREE_RECALL", "conditions": [24, 800, "a", 12000], "trial": 4, "trial_type": "free-recall", "trial_index": 195, "time_elapsed": 874430, "internal_node_id": "0.0-150.0-0.0"}}, {"uniqueid": "MTK1003:33F859I567KGBRUI5M3EM4F5FDYBH0", "current_trial": 196, "dateTime": 1512964623993, "trialdata": {"rt": 2542, "key_press": 13, "type": "INSTRUCTIONS", "trial_type": "text", "trial_index": 196, "time_elapsed": 878992, "internal_node_id": "0.0-151.0"}}, {"uniqueid": "MTK1003:33F859I567KGBRUI5M3EM4F5FDYBH0", "current_trial": 197, "dateTime": 1512964637998, "trialdata": {"rt": [3003, 4939, 6531, 8211, 10379], "responses": ["9", "16", "21", "19", "19"], "num1": [2, 1, 5, 4, 8, 8], "num2": [6, 9, 7, 6, 6, 9], "num3": [1, 6, 9, 9, 5, 7], "type": "DISTRACTOR", "conditions": [12, 1600, "a", 12000], "trial": 5, "trial_type": "math-distractor", "trial_index": 197, "time_elapsed": 892997, "internal_node_id": "0.0-152.0"}}, {"uniqueid": "MTK1003:33F859I567KGBRUI5M3EM4F5FDYBH0", "current_trial": 198, "dateTime": 1512964641002, "trialdata": {"rt": -1, "stimulus": "<p id=\"stim\">10</p>", "key_press": -1, "trial_type": "single-stim", "trial_index": 198, "time_elapsed": 896000, "internal_node_id": "0.0-153.0-0.0"}}, {"uniqueid": "MTK1003:33F859I567KGBRUI5M3EM4F5FDYBH0", "current_trial": 199, "dateTime": 1512964642003, "trialdata": {"rt": -1, "stimulus": "<p id=\"stim\">9</p>", "key_press": -1, "trial_type": "single-stim", "trial_index": 199, "time_elapsed": 897001, "internal_node_id": "0.0-153.0-1.0"}}, {"uniqueid": "MTK1003:33F859I567KGBRUI5M3EM4F5FDYBH0", "current_trial": 200, "dateTime": 1512964643006, "trialdata": {"rt": -1, "stimulus": "<p id=\"stim\">8</p>", "key_press": -1, "trial_type": "single-stim", "trial_index": 200, "time_elapsed": 898004, "internal_node_id": "0.0-153.0-2.0"}}, {"uniqueid": "MTK1003:33F859I567KGBRUI5M3EM4F5FDYBH0", "current_trial": 201, "dateTime": 1512964644008, "trialdata": {"rt": -1, "stimulus": "<p id=\"stim\">7</p>", "key_press": -1, "trial_type": "single-stim", "trial_index": 201, "time_elapsed": 899007, "internal_node_id": "0.0-153.0-3.0"}}, {"uniqueid": "MTK1003:33F859I567KGBRUI5M3EM4F5FDYBH0", "current_trial": 202, "dateTime": 1512964645010, "trialdata": {"rt": 1, "stimulus": "<p id=\"stim\">6</p>", "key_press": 18, "trial_type": "single-stim", "trial_index": 202, "time_elapsed": 900008, "internal_node_id": "0.0-153.0-4.0"}}, {"uniqueid": "MTK1003:33F859I567KGBRUI5M3EM4F5FDYBH0", "current_trial": 203, "dateTime": 1512964646013, "trialdata": {"rt": -1, "stimulus": "<p id=\"stim\">5</p>", "key_press": -1, "trial_type": "single-stim", "trial_index": 203, "time_elapsed": 901012, "internal_node_id": "0.0-153.0-5.0"}}, {"uniqueid": "MTK1003:33F859I567KGBRUI5M3EM4F5FDYBH0", "current_trial": 204, "dateTime": 1512964647015, "trialdata": {"rt": -1, "stimulus": "<p id=\"stim\">4</p>", "key_press": -1, "trial_type": "single-stim", "trial_index": 204, "time_elapsed": 902014, "internal_node_id": "0.0-153.0-6.0"}}, {"uniqueid": "MTK1003:33F859I567KGBRUI5M3EM4F5FDYBH0", "current_trial": 205, "dateTime": 1512964648018, "trialdata": {"rt": -1, "stimulus": "<p id=\"stim\">3</p>", "key_press": -1, "trial_type": "single-stim", "trial_index": 205, "time_elapsed": 903016, "internal_node_id": "0.0-153.0-7.0"}}, {"uniqueid": "MTK1003:33F859I567KGBRUI5M3EM4F5FDYBH0", "current_trial": 206, "dateTime": 1512964649020, "trialdata": {"rt": -1, "stimulus": "<p id=\"stim\">2</p>", "key_press": -1, "trial_type": "single-stim", "trial_index": 206, "time_elapsed": 904018, "internal_node_id": "0.0-153.0-8.0"}}, {"uniqueid": "MTK1003:33F859I567KGBRUI5M3EM4F5FDYBH0", "current_trial": 207, "dateTime": 1512964650022, "trialdata": {"rt": -1, "stimulus": "<p id=\"stim\">1</p>", "key_press": -1, "trial_type": "single-stim", "trial_index": 207, "time_elapsed": 905021, "internal_node_id": "0.0-153.0-9.0"}}, {"uniqueid": "MTK1003:33F859I567KGBRUI5M3EM4F5FDYBH0", "current_trial": 208, "dateTime": 1512964651524, "trialdata": {"rt": -1, "stimulus": "<p id=\"stim\">+</p>", "key_press": -1, "type": "FIXATION", "trial_type": "single-stim", "trial_index": 208, "time_elapsed": 906522, "internal_node_id": "0.0-154.0-0.0"}}, {"uniqueid": "MTK1003:33F859I567KGBRUI5M3EM4F5FDYBH0", "current_trial": 209, "dateTime": 1512964654223, "trialdata": {"rt": -1000, "stimulus": "/static/audio/wordpool/KIDNEY.wav", "key_press": -1, "type": "PRES_AUD", "word": "kidney", "wordID": 775, "conditions": [12, 1600, "a", 12000], "trial": 5, "serialpos": 0, "trial_type": "single-audio", "trial_index": 209, "time_elapsed": 909222, "internal_node_id": "0.0-155.0"}}, {"uniqueid": "MTK1003:33F859I567KGBRUI5M3EM4F5FDYBH0", "current_trial": 210, "dateTime": 1512964656856, "trialdata": {"rt": -1000, "stimulus": "/static/audio/wordpool/CREVICE.wav", "key_press": -1, "type": "PRES_AUD", "word": "crevice", "wordID": 404, "conditions": [12, 1600, "a", 12000], "trial": 5, "serialpos": 1, "trial_type": "single-audio", "trial_index": 210, "time_elapsed": 911852, "internal_node_id": "0.0-156.0"}}, {"uniqueid": "MTK1003:33F859I567KGBRUI5M3EM4F5FDYBH0", "current_trial": 211, "dateTime": 1512964659622, "trialdata": {"rt": -1000, "stimulus": "/static/audio/wordpool/SEAFOOD.wav", "key_press": -1, "type": "PRES_AUD", "word": "seafood", "wordID": 1259, "conditions": [12, 1600, "a", 12000], "trial": 5, "serialpos": 2, "trial_type": "single-audio", "trial_index": 211, "time_elapsed": 914620, "internal_node_id": "0.0-157.0"}}, {"uniqueid": "MTK1003:33F859I567KGBRUI5M3EM4F5FDYBH0", "current_trial": 212, "dateTime": 1512964662405, "trialdata": {"rt": -1000, "stimulus": "/static/audio/wordpool/BEEF.wav", "key_press": -1, "type": "PRES_AUD", "word": "beef", "wordID": 112, "conditions": [12, 1600, "a", 12000], "trial": 5, "serialpos": 3, "trial_type": "single-audio", "trial_index": 212, "time_elapsed": 917403, "internal_node_id": "0.0-158.0"}}, {"uniqueid": "MTK1003:33F859I567KGBRUI5M3EM4F5FDYBH0", "current_trial": 213, "dateTime": 1512964664907, "trialdata": {"rt": -1000, "stimulus": "/static/audio/wordpool/ROCKET.wav", "key_press": -1, "type": "PRES_AUD", "word": "rocket", "wordID": 1201, "conditions": [12, 1600, "a", 12000], "trial": 5, "serialpos": 4, "trial_type": "single-audio", "trial_index": 213, "time_elapsed": 919906, "internal_node_id": "0.0-159.0"}}, {"uniqueid": "MTK1003:33F859I567KGBRUI5M3EM4F5FDYBH0", "current_trial": 214, "dateTime": 1512964667594, "trialdata": {"rt": -1000, "stimulus": "/static/audio/wordpool/BASEMENT.wav", "key_press": -1, "type": "PRES_AUD", "word": "basement", "wordID": 93, "conditions": [12, 1600, "a", 12000], "trial": 5, "serialpos": 5, "trial_type": "single-audio", "trial_index": 214, "time_elapsed": 922593, "internal_node_id": "0.0-160.0"}}, {"uniqueid": "MTK1003:33F859I567KGBRUI5M3EM4F5FDYBH0", "current_trial": 215, "dateTime": 1512964670256, "trialdata": {"rt": -1000, "stimulus": "/static/audio/wordpool/WHISKERS.wav", "key_press": -1, "type": "PRES_AUD", "word": "whiskers", "wordID": 1604, "conditions": [12, 1600, "a", 12000], "trial": 5, "serialpos": 6, "trial_type": "single-audio", "trial_index": 215, "time_elapsed": 925255, "internal_node_id": "0.0-161.0"}}, {"uniqueid": "MTK1003:33F859I567KGBRUI5M3EM4F5FDYBH0", "current_trial": 216, "dateTime": 1512964672974, "trialdata": {"rt": -1000, "stimulus": "/static/audio/wordpool/CRAYON.wav", "key_press": -1, "type": "PRES_AUD", "word": "crayon", "wordID": 400, "conditions": [12, 1600, "a", 12000], "trial": 5, "serialpos": 7, "trial_type": "single-audio", "trial_index": 216, "time_elapsed": 927973, "internal_node_id": "0.0-162.0"}}, {"uniqueid": "MTK1003:33F859I567KGBRUI5M3EM4F5FDYBH0", "current_trial": 217, "dateTime": 1512964675599, "trialdata": {"rt": -1000, "stimulus": "/static/audio/wordpool/FOX.wav", "key_press": -1, "type": "PRES_AUD", "word": "fox", "wordID": 597, "conditions": [12, 1600, "a", 12000], "trial": 5, "serialpos": 8, "trial_type": "single-audio", "trial_index": 217, "time_elapsed": 930598, "internal_node_id": "0.0-163.0"}}, {"uniqueid": "MTK1003:33F859I567KGBRUI5M3EM4F5FDYBH0", "current_trial": 218, "dateTime": 1512964678058, "trialdata": {"rt": -1000, "stimulus": "/static/audio/wordpool/MISSILE.wav", "key_press": -1, "type": "PRES_AUD", "word": "missile", "wordID": 899, "conditions": [12, 1600, "a", 12000], "trial": 5, "serialpos": 9, "trial_type": "single-audio", "trial_index": 218, "time_elapsed": 933057, "internal_node_id": "0.0-164.0"}}, {"uniqueid": "MTK1003:33F859I567KGBRUI5M3EM4F5FDYBH0", "current_trial": 219, "dateTime": 1512964680561, "trialdata": {"rt": -1000, "stimulus": "/static/audio/wordpool/THIEF.wav", "key_press": -1, "type": "PRES_AUD", "word": "thief", "wordID": 1455, "conditions": [12, 1600, "a", 12000], "trial": 5, "serialpos": 10, "trial_type": "single-audio", "trial_index": 219, "time_elapsed": 935560, "internal_node_id": "0.0-165.0"}}, {"uniqueid": "MTK1003:33F859I567KGBRUI5M3EM4F5FDYBH0", "current_trial": 220, "dateTime": 1512964683119, "trialdata": {"rt": -1000, "stimulus": "/static/audio/wordpool/BURGLAR.wav", "key_press": -1, "type": "PRES_AUD", "word": "burglar", "wordID": 199, "conditions": [12, 1600, "a", 12000], "trial": 5, "serialpos": 11, "trial_type": "single-audio", "trial_index": 220, "time_elapsed": 938118, "internal_node_id": "0.0-166.0"}}, {"uniqueid": "MTK1003:33F859I567KGBRUI5M3EM4F5FDYBH0", "current_trial": 221, "dateTime": 1512964684520, "trialdata": {"rt": -1, "stimulus": "", "key_press": -1, "type": "PRE_RECALL_DELAY", "trial_type": "single-stim", "trial_index": 221, "time_elapsed": 939518, "internal_node_id": "0.0-167.0-0.0"}}, {"uniqueid": "MTK1003:33F859I567KGBRUI5M3EM4F5FDYBH0", "current_trial": 222, "dateTime": 1512964685029, "trialdata": {"rt": -1000, "stimulus": "/static/audio/400Hz.wav", "key_press": -1, "type": "PRE_RECALL_ALERT", "trial_type": "single-audio", "trial_index": 222, "time_elapsed": 940024, "internal_node_id": "0.0-168.0"}}, {"uniqueid": "MTK1003:33F859I567KGBRUI5M3EM4F5FDYBH0", "current_trial": 223, "dateTime": 1512964745043, "trialdata": {"rt": [5167, 6318, 17207, 25119, 34351], "recwords": ["burgler", "beef", "seafood", "basement", "whiskers"], "type": "FREE_RECALL", "conditions": [12, 1600, "a", 12000], "trial": 5, "trial_type": "free-recall", "trial_index": 223, "time_elapsed": 1000035, "internal_node_id": "0.0-169.0-0.0"}}, {"uniqueid": "MTK1003:33F859I567KGBRUI5M3EM4F5FDYBH0", "current_trial": 224, "dateTime": 1512964767265, "trialdata": {"rt": 20220, "key_press": 13, "type": "INSTRUCTIONS", "trial_type": "text", "trial_index": 224, "time_elapsed": 1022264, "internal_node_id": "0.0-170.0"}}, {"uniqueid": "MTK1003:33F859I567KGBRUI5M3EM4F5FDYBH0", "current_trial": 225, "dateTime": 1512964781270, "trialdata": {"rt": [2275, 4874, 7018, 8395], "responses": ["12", "12", "13", "15"], "num1": [9, 4, 3, 7, 7], "num2": [1, 2, 1, 7, 4], "num3": [2, 6, 9, 1, 7], "type": "DISTRACTOR", "conditions": [12, 800, "v", 12000], "trial": 6, "trial_type": "math-distractor", "trial_index": 225, "time_elapsed": 1036269, "internal_node_id": "0.0-171.0"}}, {"uniqueid": "MTK1003:33F859I567KGBRUI5M3EM4F5FDYBH0", "current_trial": 226, "dateTime": 1512964784274, "trialdata": {"rt": -1, "stimulus": "<p id=\"stim\">10</p>", "key_press": -1, "trial_type": "single-stim", "trial_index": 226, "time_elapsed": 1039273, "internal_node_id": "0.0-172.0-0.0"}}, {"uniqueid": "MTK1003:33F859I567KGBRUI5M3EM4F5FDYBH0", "current_trial": 227, "dateTime": 1512964785277, "trialdata": {"rt": -1, "stimulus": "<p id=\"stim\">9</p>", "key_press": -1, "trial_type": "single-stim", "trial_index": 227, "time_elapsed": 1040275, "internal_node_id": "0.0-172.0-1.0"}}, {"uniqueid": "MTK1003:33F859I567KGBRUI5M3EM4F5FDYBH0", "current_trial": 228, "dateTime": 1512964786280, "trialdata": {"rt": -1, "stimulus": "<p id=\"stim\">8</p>", "key_press": -1, "trial_type": "single-stim", "trial_index": 228, "time_elapsed": 1041278, "internal_node_id": "0.0-172.0-2.0"}}, {"uniqueid": "MTK1003:33F859I567KGBRUI5M3EM4F5FDYBH0", "current_trial": 229, "dateTime": 1512964787282, "trialdata": {"rt": -1, "stimulus": "<p id=\"stim\">7</p>", "key_press": -1, "trial_type": "single-stim", "trial_index": 229, "time_elapsed": 1042280, "internal_node_id": "0.0-172.0-3.0"}}, {"uniqueid": "MTK1003:33F859I567KGBRUI5M3EM4F5FDYBH0", "current_trial": 230, "dateTime": 1512964788285, "trialdata": {"rt": -1, "stimulus": "<p id=\"stim\">6</p>", "key_press": -1, "trial_type": "single-stim", "trial_index": 230, "time_elapsed": 1043283, "internal_node_id": "0.0-172.0-4.0"}}, {"uniqueid": "MTK1003:33F859I567KGBRUI5M3EM4F5FDYBH0", "current_trial": 231, "dateTime": 1512964789287, "trialdata": {"rt": -1, "stimulus": "<p id=\"stim\">5</p>", "key_press": -1, "trial_type": "single-stim", "trial_index": 231, "time_elapsed": 1044285, "internal_node_id": "0.0-172.0-5.0"}}, {"uniqueid": "MTK1003:33F859I567KGBRUI5M3EM4F5FDYBH0", "current_trial": 232, "dateTime": 1512964790289, "trialdata": {"rt": -1, "stimulus": "<p id=\"stim\">4</p>", "key_press": -1, "trial_type": "single-stim", "trial_index": 232, "time_elapsed": 1045287, "internal_node_id": "0.0-172.0-6.0"}}, {"uniqueid": "MTK1003:33F859I567KGBRUI5M3EM4F5FDYBH0", "current_trial": 233, "dateTime": 1512964791292, "trialdata": {"rt": -1, "stimulus": "<p id=\"stim\">3</p>", "key_press": -1, "trial_type": "single-stim", "trial_index": 233, "time_elapsed": 1046290, "internal_node_id": "0.0-172.0-7.0"}}, {"uniqueid": "MTK1003:33F859I567KGBRUI5M3EM4F5FDYBH0", "current_trial": 234, "dateTime": 1512964792295, "trialdata": {"rt": -1, "stimulus": "<p id=\"stim\">2</p>", "key_press": -1, "trial_type": "single-stim", "trial_index": 234, "time_elapsed": 1047293, "internal_node_id": "0.0-172.0-8.0"}}, {"uniqueid": "MTK1003:33F859I567KGBRUI5M3EM4F5FDYBH0", "current_trial": 235, "dateTime": 1512964793297, "trialdata": {"rt": -1, "stimulus": "<p id=\"stim\">1</p>", "key_press": -1, "trial_type": "single-stim", "trial_index": 235, "time_elapsed": 1048295, "internal_node_id": "0.0-172.0-9.0"}}, {"uniqueid": "MTK1003:33F859I567KGBRUI5M3EM4F5FDYBH0", "current_trial": 236, "dateTime": 1512964794799, "trialdata": {"rt": -1, "stimulus": "<p id=\"stim\">+</p>", "key_press": -1, "type": "FIXATION", "trial_type": "single-stim", "trial_index": 236, "time_elapsed": 1049797, "internal_node_id": "0.0-173.0-0.0"}}, {"uniqueid": "MTK1003:33F859I567KGBRUI5M3EM4F5FDYBH0", "current_trial": 237, "dateTime": 1512964795602, "trialdata": {"rt": -1, "stimulus": "<p id=\"stim\">DRILL</p>", "key_press": -1, "type": "PRES_VIS", "word": "drill", "wordID": 496, "conditions": [12, 800, "v", 12000], "trial": 6, "serialpos": 0, "trial_type": "single-stim", "trial_index": 237, "time_elapsed": 1050600, "internal_node_id": "0.0-174.0"}}, {"uniqueid": "MTK1003:33F859I567KGBRUI5M3EM4F5FDYBH0", "current_trial": 238, "dateTime": 1512964797500, "trialdata": {"rt": -1, "stimulus": "<p id=\"stim\">WRIST</p>", "key_press": -1, "type": "PRES_VIS", "word": "wrist", "wordID": 1625, "conditions": [12, 800, "v", 12000], "trial": 6, "serialpos": 1, "trial_type": "single-stim", "trial_index": 238, "time_elapsed": 1052499, "internal_node_id": "0.0-175.0"}}, {"uniqueid": "MTK1003:33F859I567KGBRUI5M3EM4F5FDYBH0", "current_trial": 239, "dateTime": 1512964799278, "trialdata": {"rt": -1, "stimulus": "<p id=\"stim\">TEMPLE</p>", "key_press": -1, "type": "PRES_VIS", "word": "temple", "wordID": 1447, "conditions": [12, 800, "v", 12000], "trial": 6, "serialpos": 2, "trial_type": "single-stim", "trial_index": 239, "time_elapsed": 1054276, "internal_node_id": "0.0-176.0"}}, {"uniqueid": "MTK1003:33F859I567KGBRUI5M3EM4F5FDYBH0", "current_trial": 240, "dateTime": 1512964801194, "trialdata": {"rt": -1, "stimulus": "<p id=\"stim\">WASHER</p>", "key_press": -1, "type": "PRES_VIS", "word": "washer", "wordID": 1591, "conditions": [12, 800, "v", 12000], "trial": 6, "serialpos": 3, "trial_type": "single-stim", "trial_index": 240, "time_elapsed": 1056192, "internal_node_id": "0.0-177.0"}}, {"uniqueid": "MTK1003:33F859I567KGBRUI5M3EM4F5FDYBH0", "current_trial": 241, "dateTime": 1512964802871, "trialdata": {"rt": -1, "stimulus": "<p id=\"stim\">COUCH</p>", "key_press": -1, "type": "PRES_VIS", "word": "couch", "wordID": 385, "conditions": [12, 800, "v", 12000], "trial": 6, "serialpos": 4, "trial_type": "single-stim", "trial_index": 241, "time_elapsed": 1057869, "internal_node_id": "0.0-178.0"}}, {"uniqueid": "MTK1003:33F859I567KGBRUI5M3EM4F5FDYBH0", "current_trial": 242, "dateTime": 1512964804749, "trialdata": {"rt": -1, "stimulus": "<p id=\"stim\">PORK</p>", "key_press": -1, "type": "PRES_VIS", "word": "pork", "wordID": 1107, "conditions": [12, 800, "v", 12000], "trial": 6, "serialpos": 5, "trial_type": "single-stim", "trial_index": 242, "time_elapsed": 1059748, "internal_node_id": "0.0-179.0"}}, {"uniqueid": "MTK1003:33F859I567KGBRUI5M3EM4F5FDYBH0", "current_trial": 243, "dateTime": 1512964806433, "trialdata": {"rt": -1, "stimulus": "<p id=\"stim\">DRESS</p>", "key_press": -1, "type": "PRES_VIS", "word": "dress", "wordID": 494, "conditions": [12, 800, "v", 12000], "trial": 6, "serialpos": 6, "trial_type": "single-stim", "trial_index": 243, "time_elapsed": 1061432, "internal_node_id": "0.0-180.0"}}, {"uniqueid": "MTK1003:33F859I567KGBRUI5M3EM4F5FDYBH0", "current_trial": 244, "dateTime": 1512964808327, "trialdata": {"rt": -1, "stimulus": "<p id=\"stim\">COSTUME</p>", "key_press": -1, "type": "PRES_VIS", "word": "costume", "wordID": 382, "conditions": [12, 800, "v", 12000], "trial": 6, "serialpos": 7, "trial_type": "single-stim", "trial_index": 244, "time_elapsed": 1063325, "internal_node_id": "0.0-181.0"}}, {"uniqueid": "MTK1003:33F859I567KGBRUI5M3EM4F5FDYBH0", "current_trial": 245, "dateTime": 1512964810248, "trialdata": {"rt": -1, "stimulus": "<p id=\"stim\">ANKLE</p>", "key_press": -1, "type": "PRES_VIS", "word": "ankle", "wordID": 23, "conditions": [12, 800, "v", 12000], "trial": 6, "serialpos": 8, "trial_type": "single-stim", "trial_index": 245, "time_elapsed": 1065246, "internal_node_id": "0.0-182.0"}}, {"uniqueid": "MTK1003:33F859I567KGBRUI5M3EM4F5FDYBH0", "current_trial": 246, "dateTime": 1512964811954, "trialdata": {"rt": -1, "stimulus": "<p id=\"stim\">HAND</p>", "key_press": -1, "type": "PRES_VIS", "word": "hand", "wordID": 682, "conditions": [12, 800, "v", 12000], "trial": 6, "serialpos": 9, "trial_type": "single-stim", "trial_index": 246, "time_elapsed": 1066953, "internal_node_id": "0.0-183.0"}}, {"uniqueid": "MTK1003:33F859I567KGBRUI5M3EM4F5FDYBH0", "current_trial": 247, "dateTime": 1512964813795, "trialdata": {"rt": -1, "stimulus": "<p id=\"stim\">MESSAGE</p>", "key_press": -1, "type": "PRES_VIS", "word": "message", "wordID": 887, "conditions": [12, 800, "v", 12000], "trial": 6, "serialpos": 10, "trial_type": "single-stim", "trial_index": 247, "time_elapsed": 1068794, "internal_node_id": "0.0-184.0"}}, {"uniqueid": "MTK1003:33F859I567KGBRUI5M3EM4F5FDYBH0", "current_trial": 248, "dateTime": 1512964815676, "trialdata": {"rt": -1, "stimulus": "<p id=\"stim\">PICTURE</p>", "key_press": -1, "type": "PRES_VIS", "word": "picture", "wordID": 1060, "conditions": [12, 800, "v", 12000], "trial": 6, "serialpos": 11, "trial_type": "single-stim", "trial_index": 248, "time_elapsed": 1070674, "internal_node_id": "0.0-185.0"}}, {"uniqueid": "MTK1003:33F859I567KGBRUI5M3EM4F5FDYBH0", "current_trial": 249, "dateTime": 1512964818222, "trialdata": {"rt": -1, "stimulus": "", "key_press": -1, "type": "PRE_RECALL_DELAY", "trial_type": "single-stim", "trial_index": 249, "time_elapsed": 1073220, "internal_node_id": "0.0-186.0-0.0"}}, {"uniqueid": "MTK1003:33F859I567KGBRUI5M3EM4F5FDYBH0", "current_trial": 250, "dateTime": 1512964818724, "trialdata": {"rt": -1000, "stimulus": "/static/audio/400Hz.wav", "key_press": -1, "type": "PRE_RECALL_ALERT", "trial_type": "single-audio", "trial_index": 250, "time_elapsed": 1073723, "internal_node_id": "0.0-187.0"}}, {"uniqueid": "MTK1003:33F859I567KGBRUI5M3EM4F5FDYBH0", "current_trial": 251, "dateTime": 1512964878737, "trialdata": {"rt": [4176, 6039, 8416, 10512, 12680, 16200, 19624, 21504], "recwords": ["picture", "coach", "couch", "message", "ankle", "dress", "pork", "temple"], "type": "FREE_RECALL", "conditions": [12, 800, "v", 12000], "trial": 6, "trial_type": "free-recall", "trial_index": 251, "time_elapsed": 1133728, "internal_node_id": "0.0-188.0-0.0"}}, {"uniqueid": "MTK1003:33F859I567KGBRUI5M3EM4F5FDYBH0", "current_trial": 252, "dateTime": 1512964887415, "trialdata": {"rt": 6677, "key_press": 13, "type": "INSTRUCTIONS", "trial_type": "text", "trial_index": 252, "time_elapsed": 1142414, "internal_node_id": "0.0-189.0"}}, {"uniqueid": "MTK1003:33F859I567KGBRUI5M3EM4F5FDYBH0", "current_trial": 253, "dateTime": 1512964913423, "trialdata": {"rt": [1969, 3721, 5761, 8554, 10722, 13457, 15121, 17818, 19962, 23145], "responses": ["12", "8", "18", "7", "16", "12", "10", "4", "15", "14"], "num1": [1, 3, 8, 2, 5, 3, 7, 2, 6, 3, 8], "num2": [3, 3, 3, 4, 6, 4, 2, 1, 2, 9, 5], "num3": [8, 2, 7, 1, 5, 5, 1, 1, 7, 2, 8], "type": "DISTRACTOR", "conditions": [24, 1600, "v", 24000], "trial": 7, "trial_type": "math-distractor", "trial_index": 253, "time_elapsed": 1168421, "internal_node_id": "0.0-190.0"}}, {"uniqueid": "MTK1003:33F859I567KGBRUI5M3EM4F5FDYBH0", "current_trial": 254, "dateTime": 1512964916427, "trialdata": {"rt": -1, "stimulus": "<p id=\"stim\">10</p>", "key_press": -1, "trial_type": "single-stim", "trial_index": 254, "time_elapsed": 1171426, "internal_node_id": "0.0-191.0-0.0"}}, {"uniqueid": "MTK1003:33F859I567KGBRUI5M3EM4F5FDYBH0", "current_trial": 255, "dateTime": 1512964917429, "trialdata": {"rt": -1, "stimulus": "<p id=\"stim\">9</p>", "key_press": -1, "trial_type": "single-stim", "trial_index": 255, "time_elapsed": 1172428, "internal_node_id": "0.0-191.0-1.0"}}, {"uniqueid": "MTK1003:33F859I567KGBRUI5M3EM4F5FDYBH0", "current_trial": 256, "dateTime": 1512964918431, "trialdata": {"rt": -1, "stimulus": "<p id=\"stim\">8</p>", "key_press": -1, "trial_type": "single-stim", "trial_index": 256, "time_elapsed": 1173430, "internal_node_id": "0.0-191.0-2.0"}}, {"uniqueid": "MTK1003:33F859I567KGBRUI5M3EM4F5FDYBH0", "current_trial": 257, "dateTime": 1512964919433, "trialdata": {"rt": -1, "stimulus": "<p id=\"stim\">7</p>", "key_press": -1, "trial_type": "single-stim", "trial_index": 257, "time_elapsed": 1174432, "internal_node_id": "0.0-191.0-3.0"}}, {"uniqueid": "MTK1003:33F859I567KGBRUI5M3EM4F5FDYBH0", "current_trial": 258, "dateTime": 1512964920436, "trialdata": {"rt": -1, "stimulus": "<p id=\"stim\">6</p>", "key_press": -1, "trial_type": "single-stim", "trial_index": 258, "time_elapsed": 1175435, "internal_node_id": "0.0-191.0-4.0"}}, {"uniqueid": "MTK1003:33F859I567KGBRUI5M3EM4F5FDYBH0", "current_trial": 259, "dateTime": 1512964921439, "trialdata": {"rt": -1, "stimulus": "<p id=\"stim\">5</p>", "key_press": -1, "trial_type": "single-stim", "trial_index": 259, "time_elapsed": 1176438, "internal_node_id": "0.0-191.0-5.0"}}, {"uniqueid": "MTK1003:33F859I567KGBRUI5M3EM4F5FDYBH0", "current_trial": 260, "dateTime": 1512964922442, "trialdata": {"rt": -1, "stimulus": "<p id=\"stim\">4</p>", "key_press": -1, "trial_type": "single-stim", "trial_index": 260, "time_elapsed": 1177440, "internal_node_id": "0.0-191.0-6.0"}}, {"uniqueid": "MTK1003:33F859I567KGBRUI5M3EM4F5FDYBH0", "current_trial": 261, "dateTime": 1512964923444, "trialdata": {"rt": -1, "stimulus": "<p id=\"stim\">3</p>", "key_press": -1, "trial_type": "single-stim", "trial_index": 261, "time_elapsed": 1178443, "internal_node_id": "0.0-191.0-7.0"}}, {"uniqueid": "MTK1003:33F859I567KGBRUI5M3EM4F5FDYBH0", "current_trial": 262, "dateTime": 1512964924447, "trialdata": {"rt": -1, "stimulus": "<p id=\"stim\">2</p>", "key_press": -1, "trial_type": "single-stim", "trial_index": 262, "time_elapsed": 1179446, "internal_node_id": "0.0-191.0-8.0"}}, {"uniqueid": "MTK1003:33F859I567KGBRUI5M3EM4F5FDYBH0", "current_trial": 263, "dateTime": 1512964925450, "trialdata": {"rt": -1, "stimulus": "<p id=\"stim\">1</p>", "key_press": -1, "trial_type": "single-stim", "trial_index": 263, "time_elapsed": 1180449, "internal_node_id": "0.0-191.0-9.0"}}, {"uniqueid": "MTK1003:33F859I567KGBRUI5M3EM4F5FDYBH0", "current_trial": 264, "dateTime": 1512964926953, "trialdata": {"rt": -1, "stimulus": "<p id=\"stim\">+</p>", "key_press": -1, "type": "FIXATION", "trial_type": "single-stim", "trial_index": 264, "time_elapsed": 1181952, "internal_node_id": "0.0-192.0-0.0"}}, {"uniqueid": "MTK1003:33F859I567KGBRUI5M3EM4F5FDYBH0", "current_trial": 265, "dateTime": 1512964928555, "trialdata": {"rt": -1, "stimulus": "<p id=\"stim\">KITCHEN</p>", "key_press": -1, "type": "PRES_VIS", "word": "kitchen", "wordID": 777, "conditions": [24, 1600, "v", 24000], "trial": 7, "serialpos": 0, "trial_type": "single-stim", "trial_index": 265, "time_elapsed": 1183553, "internal_node_id": "0.0-193.0"}}, {"uniqueid": "MTK1003:33F859I567KGBRUI5M3EM4F5FDYBH0", "current_trial": 266, "dateTime": 1512964931247, "trialdata": {"rt": -1, "stimulus": "<p id=\"stim\">BREAST</p>", "key_press": -1, "type": "PRES_VIS", "word": "breast", "wordID": 170, "conditions": [24, 1600, "v", 24000], "trial": 7, "serialpos": 1, "trial_type": "single-stim", "trial_index": 266, "time_elapsed": 1186245, "internal_node_id": "0.0-194.0"}}, {"uniqueid": "MTK1003:33F859I567KGBRUI5M3EM4F5FDYBH0", "current_trial": 267, "dateTime": 1512964933967, "trialdata": {"rt": -1, "stimulus": "<p id=\"stim\">SANDWICH</p>", "key_press": -1, "type": "PRES_VIS", "word": "sandwich", "wordID": 1231, "conditions": [24, 1600, "v", 24000], "trial": 7, "serialpos": 2, "trial_type": "single-stim", "trial_index": 267, "time_elapsed": 1188966, "internal_node_id": "0.0-195.0"}}, {"uniqueid": "MTK1003:33F859I567KGBRUI5M3EM4F5FDYBH0", "current_trial": 268, "dateTime": 1512964936610, "trialdata": {"rt": -1, "stimulus": "<p id=\"stim\">LEOPARD</p>", "key_press": -1, "type": "PRES_VIS", "word": "leopard", "wordID": 811, "conditions": [24, 1600, "v", 24000], "trial": 7, "serialpos": 3, "trial_type": "single-stim", "trial_index": 268, "time_elapsed": 1191608, "internal_node_id": "0.0-196.0"}}, {"uniqueid": "MTK1003:33F859I567KGBRUI5M3EM4F5FDYBH0", "current_trial": 269, "dateTime": 1512964939276, "trialdata": {"rt": -1, "stimulus": "<p id=\"stim\">PISTOL</p>", "key_press": -1, "type": "PRES_VIS", "word": "pistol", "wordID": 1074, "conditions": [24, 1600, "v", 24000], "trial": 7, "serialpos": 4, "trial_type": "single-stim", "trial_index": 269, "time_elapsed": 1194274, "internal_node_id": "0.0-197.0"}}, {"uniqueid": "MTK1003:33F859I567KGBRUI5M3EM4F5FDYBH0", "current_trial": 270, "dateTime": 1512964941849, "trialdata": {"rt": -1, "stimulus": "<p id=\"stim\">RECEIPT</p>", "key_press": -1, "type": "PRES_VIS", "word": "receipt", "wordID": 1172, "conditions": [24, 1600, "v", 24000], "trial": 7, "serialpos": 5, "trial_type": "single-stim", "trial_index": 270, "time_elapsed": 1196848, "internal_node_id": "0.0-198.0"}}, {"uniqueid": "MTK1003:33F859I567KGBRUI5M3EM4F5FDYBH0",