{"assignmentId": "37U1UTWH9WTAYNAEYFVY96RAXGJ8R6", "workerId": "MTK1637", "questiondata": {"origin": "China", "strat-rehearsal": "17", "marital": "Single", "education": "Some college", "ethnicity": "Not Hispanic", "color_depth": 24, "distracted": "No", "wrote-notes": "No", "strat-other": "", "screen_width": 1366, "avail_screen_width": 1366, "avail_screen_height": 728, "strat-image": "71", "language": "chinese", "gender": "Male", "age": "23", "gender_other": "", "race": ["Asian"], "strat-categorize": "45", "pixel_depth": 24, "strat-spatial": "16", "strat-story": "0", "race_other": "", "screen_height": 768}, "bonus": 0, "hitId": "3INZSNUD80XEOYCPV41QFT9XK9MD9P", "counterbalance": 2039, "useragent": "Mozilla/5.0 (Windows NT 10.0; Win64; x64) AppleWebKit/537.36 (KHTML, like Gecko) Chrome/63.0.3239.132 Safari/537.36", "eventdata": [{"eventtype": "initialized", "interval": 0, "value": null, "timestamp": 1516059234790}, {"eventtype": "window_resize", "interval": 0, "value": [1362, 713], "timestamp": 1516059234790}, {"eventtype": "focus", "interval": 285906, "value": "off", "timestamp": 1516059520696}, {"eventtype": "focus", "interval": 24238, "value": "on", "timestamp": 1516059544934}, {"eventtype": "focus", "interval": 8613, "value": "off", "timestamp": 1516059553547}, {"eventtype": "focus", "interval": 2881, "value": "on", "timestamp": 1516059556428}, {"eventtype": "focus", "interval": 6738, "value": "off", "timestamp": 1516059563166}, {"eventtype": "focus", "interval": 22477, "value": "on", "timestamp": 1516059585643}, {"eventtype": "focus", "interval": 2939, "value": "off", "timestamp": 1516059588582}, {"eventtype": "focus", "interval": 7438, "value": "on", "timestamp": 1516059596020}, {"eventtype": "focus", "interval": 6938, "value": "off", "timestamp": 1516059602958}, {"eventtype": "focus", "interval": 2405, "value": "on", "timestamp": 1516059605363}, {"eventtype": "focus", "interval": 34569, "value": "off", "timestamp": 1516059639932}, {"eventtype": "focus", "interval": 3067, "value": "on", "timestamp": 1516059642999}], "data": [{"current_trial": 0, "trialdata": {"rt": 32742, "trial_type": "text", "internal_node_id": "0.0-0.0", "time_elapsed": 32744, "key_press": 72, "type": "INSTRUCTIONS", "trial_index": 0}, "uniqueid": "MTK1637:37U1UTWH9WTAYNAEYFVY96RAXGJ8R6", "dateTime": 1516059303248}, {"current_trial": 1, "trialdata": {"rt": 15810, "trial_type": "text", "internal_node_id": "0.0-1.0", "time_elapsed": 48555, "key_press": 68, "type": "INSTRUCTIONS", "trial_index": 1}, "uniqueid": "MTK1637:37U1UTWH9WTAYNAEYFVY96RAXGJ8R6", "dateTime": 1516059319059}, {"current_trial": 2, "trialdata": {"rt": [8021], "trial_type": "audio-test", "responses": ["ocean"], "internal_node_id": "0.0-2.0", "time_elapsed": 56616, "type": "AUDIO_TEST", "trial_index": 2}, "uniqueid": "MTK1637:37U1UTWH9WTAYNAEYFVY96RAXGJ8R6", "dateTime": 1516059327120}, {"current_trial": 3, "trialdata": {"rt": [13581], "trial_type": "audio-test", "responses": ["crystal"], "internal_node_id": "0.0-3.0", "time_elapsed": 70202, "type": "AUDIO_TEST", "trial_index": 3}, "uniqueid": "MTK1637:37U1UTWH9WTAYNAEYFVY96RAXGJ8R6", "dateTime": 1516059340706}, {"current_trial": 4, "trialdata": {"rt": [5363], "trial_type": "audio-test", "responses": ["spice"], "internal_node_id": "0.0-4.0", "time_elapsed": 75569, "type": "AUDIO_TEST", "trial_index": 4}, "uniqueid": "MTK1637:37U1UTWH9WTAYNAEYFVY96RAXGJ8R6", "dateTime": 1516059346073}, {"current_trial": 5, "trialdata": {"rt": 20178, "trial_type": "survey-text", "responses": "{\"Q0\":\"12\",\"Q1\":\"10\",\"Q2\":\"5\"}", "internal_node_id": "0.0-5.0", "time_elapsed": 96499, "type": "SLEEP_SURVEY", "trial_index": 5}, "uniqueid": "MTK1637:37U1UTWH9WTAYNAEYFVY96RAXGJ8R6", "dateTime": 1516059367003}, {"current_trial": 6, "trialdata": {"rt": 73690, "trial_type": "text", "internal_node_id": "0.0-6.0", "time_elapsed": 171190, "key_press": 71, "type": "INSTRUCTIONS", "trial_index": 6}, "uniqueid": "MTK1637:37U1UTWH9WTAYNAEYFVY96RAXGJ8R6", "dateTime": 1516059441694}, {"current_trial": 7, "trialdata": {"rt": 19651, "trial_type": "text", "internal_node_id": "0.0-7.0", "time_elapsed": 191343, "key_press": 68, "type": "INSTRUCTIONS", "trial_index": 7}, "uniqueid": "MTK1637:37U1UTWH9WTAYNAEYFVY96RAXGJ8R6", "dateTime": 1516059461847}, {"current_trial": 8, "trialdata": {"rt": 6939, "trial_type": "text", "internal_node_id": "0.0-8.0", "time_elapsed": 198784, "key_press": 68, "type": "INSTRUCTIONS", "trial_index": 8}, "uniqueid": "MTK1637:37U1UTWH9WTAYNAEYFVY96RAXGJ8R6", "dateTime": 1516059469288}, {"current_trial": 9, "trialdata": {"rt": [6324, 8734], "trial_type": "math-distractor", "key_times": [3946, 4073, 6324, 8349, 8516, 8734, 13042, 13209], "responses": ["17", "17"], "num2": [9, 7, 9], "num3": [4, 6, 8], "conditions": [18, 1200, "a", 18000], "internal_node_id": "0.0-9.0", "key_presses": [49, 55, 13, 49, 55, 13, 50, 54], "trial": 0, "time_elapsed": 217823, "type": "DISTRACTOR", "trial_index": 9, "num1": [4, 4, 8]}, "uniqueid": "MTK1637:37U1UTWH9WTAYNAEYFVY96RAXGJ8R6", "dateTime": 1516059488327}, {"current_trial": 10, "trialdata": {"rt": -1, "trial_type": "single-stim", "stimulus": "<p id=\"stim\">10</p>", "internal_node_id": "0.0-10.0-0.0", "time_elapsed": 220826, "key_press": -1, "trial_index": 10}, "uniqueid": "MTK1637:37U1UTWH9WTAYNAEYFVY96RAXGJ8R6", "dateTime": 1516059491330}, {"current_trial": 11, "trialdata": {"rt": -1, "trial_type": "single-stim", "stimulus": "<p id=\"stim\">9</p>", "internal_node_id": "0.0-10.0-1.0", "time_elapsed": 221828, "key_press": -1, "trial_index": 11}, "uniqueid": "MTK1637:37U1UTWH9WTAYNAEYFVY96RAXGJ8R6", "dateTime": 1516059492332}, {"current_trial": 12, "trialdata": {"rt": -1, "trial_type": "single-stim", "stimulus": "<p id=\"stim\">8</p>", "internal_node_id": "0.0-10.0-2.0", "time_elapsed": 222830, "key_press": -1, "trial_index": 12}, "uniqueid": "MTK1637:37U1UTWH9WTAYNAEYFVY96RAXGJ8R6", "dateTime": 1516059493334}, {"current_trial": 13, "trialdata": {"rt": -1, "trial_type": "single-stim", "stimulus": "<p id=\"stim\">7</p>", "internal_node_id": "0.0-10.0-3.0", "time_elapsed": 223832, "key_press": -1, "trial_index": 13}, "uniqueid": "MTK1637:37U1UTWH9WTAYNAEYFVY96RAXGJ8R6", "dateTime": 1516059494336}, {"current_trial": 14, "trialdata": {"rt": -1, "trial_type": "single-stim", "stimulus": "<p id=\"stim\">6</p>", "internal_node_id": "0.0-10.0-4.0", "time_elapsed": 224834, "key_press": -1, "trial_index": 14}, "uniqueid": "MTK1637:37U1UTWH9WTAYNAEYFVY96RAXGJ8R6", "dateTime": 1516059495338}, {"current_trial": 15, "trialdata": {"rt": -1, "trial_type": "single-stim", "stimulus": "<p id=\"stim\">5</p>", "internal_node_id": "0.0-10.0-5.0", "time_elapsed": 225835, "key_press": -1, "trial_index": 15}, "uniqueid": "MTK1637:37U1UTWH9WTAYNAEYFVY96RAXGJ8R6", "dateTime": 1516059496339}, {"current_trial": 16, "trialdata": {"rt": -1, "trial_type": "single-stim", "stimulus": "<p id=\"stim\">4</p>", "internal_node_id": "0.0-10.0-6.0", "time_elapsed": 226836, "key_press": -1, "trial_index": 16}, "uniqueid": "MTK1637:37U1UTWH9WTAYNAEYFVY96RAXGJ8R6", "dateTime": 1516059497340}, {"current_trial": 17, "trialdata": {"rt": -1, "trial_type": "single-stim", "stimulus": "<p id=\"stim\">3</p>", "internal_node_id": "0.0-10.0-7.0", "time_elapsed": 227838, "key_press": -1, "trial_index": 17}, "uniqueid": "MTK1637:37U1UTWH9WTAYNAEYFVY96RAXGJ8R6", "dateTime": 1516059498342}, {"current_trial": 18, "trialdata": {"rt": -1, "trial_type": "single-stim", "stimulus": "<p id=\"stim\">2</p>", "internal_node_id": "0.0-10.0-8.0", "time_elapsed": 228839, "key_press": -1, "trial_index": 18}, "uniqueid": "MTK1637:37U1UTWH9WTAYNAEYFVY96RAXGJ8R6", "dateTime": 1516059499343}, {"current_trial": 19, "trialdata": {"rt": -1, "trial_type": "single-stim", "stimulus": "<p id=\"stim\">1</p>", "internal_node_id": "0.0-10.0-9.0", "time_elapsed": 229840, "key_press": -1, "trial_index": 19}, "uniqueid": "MTK1637:37U1UTWH9WTAYNAEYFVY96RAXGJ8R6", "dateTime": 1516059500344}, {"current_trial": 20, "trialdata": {"rt": -1, "trial_type": "single-stim", "stimulus": "<p id=\"stim\">+</p>", "internal_node_id": "0.0-11.0-0.0", "time_elapsed": 231341, "key_press": -1, "type": "FIXATION", "trial_index": 20}, "uniqueid": "MTK1637:37U1UTWH9WTAYNAEYFVY96RAXGJ8R6", "dateTime": 1516059501845}, {"current_trial": 21, "trialdata": {"rt": -1000, "trial_type": "single-audio", "word": "summit", "stimulus": "/static/audio/wordpool/SUMMIT.wav", "conditions": [18, 1200, "a", 18000], "internal_node_id": "0.0-12.0", "trial": 0, "time_elapsed": 233647, "serialpos": 0, "key_press": -1, "wordID": 1404, "type": "PRES_AUD", "trial_index": 21}, "uniqueid": "MTK1637:37U1UTWH9WTAYNAEYFVY96RAXGJ8R6", "dateTime": 1516059504151}, {"current_trial": 22, "trialdata": {"rt": 480.49886621316773, "trial_type": "single-audio", "word": "trombone", "stimulus": "/static/audio/wordpool/TROMBONE.wav", "conditions": [18, 1200, "a", 18000], "internal_node_id": "0.0-13.0", "trial": 0, "time_elapsed": 235808, "serialpos": 1, "key_press": 175, "wordID": 1507, "type": "PRES_AUD", "trial_index": 22}, "uniqueid": "MTK1637:37U1UTWH9WTAYNAEYFVY96RAXGJ8R6", "dateTime": 1516059506312}, {"current_trial": 23, "trialdata": {"rt": -18.730158730193125, "trial_type": "single-audio", "word": "tractor", "stimulus": "/static/audio/wordpool/TRACTOR.wav", "conditions": [18, 1200, "a", 18000], "internal_node_id": "0.0-14.0", "trial": 0, "time_elapsed": 237989, "serialpos": 2, "key_press": 175, "wordID": 1492, "type": "PRES_AUD", "trial_index": 23}, "uniqueid": "MTK1637:37U1UTWH9WTAYNAEYFVY96RAXGJ8R6", "dateTime": 1516059508493}, {"current_trial": 24, "trialdata": {"rt": -1000, "trial_type": "single-audio", "word": "dime", "stimulus": "/static/audio/wordpool/DIME.wav", "conditions": [18, 1200, "a", 18000], "internal_node_id": "0.0-15.0", "trial": 0, "time_elapsed": 240323, "serialpos": 3, "key_press": -1, "wordID": 465, "type": "PRES_AUD", "trial_index": 24}, "uniqueid": "MTK1637:37U1UTWH9WTAYNAEYFVY96RAXGJ8R6", "dateTime": 1516059510827}, {"current_trial": 25, "trialdata": {"rt": -1000, "trial_type": "single-audio", "word": "braces", "stimulus": "/static/audio/wordpool/BRACES.wav", "conditions": [18, 1200, "a", 18000], "internal_node_id": "0.0-16.0", "trial": 0, "time_elapsed": 242409, "serialpos": 4, "key_press": -1, "wordID": 163, "type": "PRES_AUD", "trial_index": 25}, "uniqueid": "MTK1637:37U1UTWH9WTAYNAEYFVY96RAXGJ8R6", "dateTime": 1516059512913}, {"current_trial": 26, "trialdata": {"rt": -1000, "trial_type": "single-audio", "word": "server", "stimulus": "/static/audio/wordpool/SERVER.wav", "conditions": [18, 1200, "a", 18000], "internal_node_id": "0.0-17.0", "trial": 0, "time_elapsed": 244753, "serialpos": 5, "key_press": -1, "wordID": 1271, "type": "PRES_AUD", "trial_index": 26}, "uniqueid": "MTK1637:37U1UTWH9WTAYNAEYFVY96RAXGJ8R6", "dateTime": 1516059515257}, {"current_trial": 27, "trialdata": {"rt": -1000, "trial_type": "single-audio", "word": "transplant", "stimulus": "/static/audio/wordpool/TRANSPLANT.wav", "conditions": [18, 1200, "a", 18000], "internal_node_id": "0.0-18.0", "trial": 0, "time_elapsed": 246886, "serialpos": 6, "key_press": -1, "wordID": 1495, "type": "PRES_AUD", "trial_index": 27}, "uniqueid": "MTK1637:37U1UTWH9WTAYNAEYFVY96RAXGJ8R6", "dateTime": 1516059517390}, {"current_trial": 28, "trialdata": {"rt": -1000, "trial_type": "single-audio", "word": "widow", "stimulus": "/static/audio/wordpool/WIDOW.wav", "conditions": [18, 1200, "a", 18000], "internal_node_id": "0.0-19.0", "trial": 0, "time_elapsed": 248907, "serialpos": 7, "key_press": -1, "wordID": 1607, "type": "PRES_AUD", "trial_index": 28}, "uniqueid": "MTK1637:37U1UTWH9WTAYNAEYFVY96RAXGJ8R6", "dateTime": 1516059519411}, {"current_trial": 29, "trialdata": {"rt": -1000, "trial_type": "single-audio", "word": "cousin", "stimulus": "/static/audio/wordpool/COUSIN.wav", "conditions": [18, 1200, "a", 18000], "internal_node_id": "0.0-20.0", "trial": 0, "time_elapsed": 251003, "serialpos": 8, "key_press": -1, "wordID": 391, "type": "PRES_AUD", "trial_index": 29}, "uniqueid": "MTK1637:37U1UTWH9WTAYNAEYFVY96RAXGJ8R6", "dateTime": 1516059521507}, {"current_trial": 30, "trialdata": {"rt": -1000, "trial_type": "single-audio", "word": "world", "stimulus": "/static/audio/wordpool/WORLD.wav", "conditions": [18, 1200, "a", 18000], "internal_node_id": "0.0-21.0", "trial": 0, "time_elapsed": 253231, "serialpos": 9, "key_press": -1, "wordID": 1621, "type": "PRES_AUD", "trial_index": 30}, "uniqueid": "MTK1637:37U1UTWH9WTAYNAEYFVY96RAXGJ8R6", "dateTime": 1516059523736}, {"current_trial": 31, "trialdata": {"rt": -1000, "trial_type": "single-audio", "word": "gangster", "stimulus": "/static/audio/wordpool/GANGSTER.wav", "conditions": [18, 1200, "a", 18000], "internal_node_id": "0.0-22.0", "trial": 0, "time_elapsed": 255288, "serialpos": 10, "key_press": -1, "wordID": 619, "type": "PRES_AUD", "trial_index": 31}, "uniqueid": "MTK1637:37U1UTWH9WTAYNAEYFVY96RAXGJ8R6", "dateTime": 1516059525792}, {"current_trial": 32, "trialdata": {"rt": -1000, "trial_type": "single-audio", "word": "paper", "stimulus": "/static/audio/wordpool/PAPER.wav", "conditions": [18, 1200, "a", 18000], "internal_node_id": "0.0-23.0", "trial": 0, "time_elapsed": 257473, "serialpos": 11, "key_press": -1, "wordID": 1010, "type": "PRES_AUD", "trial_index": 32}, "uniqueid": "MTK1637:37U1UTWH9WTAYNAEYFVY96RAXGJ8R6", "dateTime": 1516059527977}, {"current_trial": 33, "trialdata": {"rt": -1000, "trial_type": "single-audio", "word": "egypt", "stimulus": "/static/audio/wordpool/EGYPT.wav", "conditions": [18, 1200, "a", 18000], "internal_node_id": "0.0-24.0", "trial": 0, "time_elapsed": 259506, "serialpos": 12, "key_press": -1, "wordID": 518, "type": "PRES_AUD", "trial_index": 33}, "uniqueid": "MTK1637:37U1UTWH9WTAYNAEYFVY96RAXGJ8R6", "dateTime": 1516059530010}, {"current_trial": 34, "trialdata": {"rt": -1000, "trial_type": "single-audio", "word": "mammal", "stimulus": "/static/audio/wordpool/MAMMAL.wav", "conditions": [18, 1200, "a", 18000], "internal_node_id": "0.0-25.0", "trial": 0, "time_elapsed": 261788, "serialpos": 13, "key_press": -1, "wordID": 860, "type": "PRES_AUD", "trial_index": 34}, "uniqueid": "MTK1637:37U1UTWH9WTAYNAEYFVY96RAXGJ8R6", "dateTime": 1516059532292}, {"current_trial": 35, "trialdata": {"rt": -1000, "trial_type": "single-audio", "word": "perch", "stimulus": "/static/audio/wordpool/PERCH.wav", "conditions": [18, 1200, "a", 18000], "internal_node_id": "0.0-26.0", "trial": 0, "time_elapsed": 264117, "serialpos": 14, "key_press": -1, "wordID": 1047, "type": "PRES_AUD", "trial_index": 35}, "uniqueid": "MTK1637:37U1UTWH9WTAYNAEYFVY96RAXGJ8R6", "dateTime": 1516059534621}, {"current_trial": 36, "trialdata": {"rt": -1000, "trial_type": "single-audio", "word": "dorm", "stimulus": "/static/audio/wordpool/DORM.wav", "conditions": [18, 1200, "a", 18000], "internal_node_id": "0.0-27.0", "trial": 0, "time_elapsed": 266172, "serialpos": 15, "key_press": -1, "wordID": 487, "type": "PRES_AUD", "trial_index": 36}, "uniqueid": "MTK1637:37U1UTWH9WTAYNAEYFVY96RAXGJ8R6", "dateTime": 1516059536676}, {"current_trial": 37, "trialdata": {"rt": -1000, "trial_type": "single-audio", "word": "plate", "stimulus": "/static/audio/wordpool/PLATE.wav", "conditions": [18, 1200, "a", 18000], "internal_node_id": "0.0-28.0", "trial": 0, "time_elapsed": 268504, "serialpos": 16, "key_press": -1, "wordID": 1085, "type": "PRES_AUD", "trial_index": 37}, "uniqueid": "MTK1637:37U1UTWH9WTAYNAEYFVY96RAXGJ8R6", "dateTime": 1516059539008}, {"current_trial": 38, "trialdata": {"rt": -1000, "trial_type": "single-audio", "word": "radish", "stimulus": "/static/audio/wordpool/RADISH.wav", "conditions": [18, 1200, "a", 18000], "internal_node_id": "0.0-29.0", "trial": 0, "time_elapsed": 270604, "serialpos": 17, "key_press": -1, "wordID": 1157, "type": "PRES_AUD", "trial_index": 38}, "uniqueid": "MTK1637:37U1UTWH9WTAYNAEYFVY96RAXGJ8R6", "dateTime": 1516059541108}, {"current_trial": 39, "trialdata": {"rt": -1, "trial_type": "single-stim", "stimulus": "", "internal_node_id": "0.0-30.0-0.0", "time_elapsed": 271914, "key_press": -1, "type": "PRE_RECALL_DELAY", "trial_index": 39}, "uniqueid": "MTK1637:37U1UTWH9WTAYNAEYFVY96RAXGJ8R6", "dateTime": 1516059542418}, {"current_trial": 40, "trialdata": {"rt": -1000, "trial_type": "single-audio", "stimulus": "/static/audio/400Hz.wav", "internal_node_id": "0.0-31.0", "time_elapsed": 272415, "key_press": -1, "type": "PRE_RECALL_ALERT", "trial_index": 40}, "uniqueid": "MTK1637:37U1UTWH9WTAYNAEYFVY96RAXGJ8R6", "dateTime": 1516059542919}, {"current_trial": 41, "trialdata": {"rt": [7252, 9038, 55099, 58639], "recwords": ["radish", "plate", "mammal", "paper"], "key_times": [3777, 3866, 4080, 4217, 4317, 4595, 7252, 8002, 8183, 8243, 8377, 8440, 9038, 14826, 14893, 15058, 17831, 17928, 19120, 53977, 54112, 54471, 54651, 54795, 54891, 55099, 55906, 56251, 56591, 56689, 56791, 56914, 57085, 57168, 57665, 57776, 57897, 58429, 58492, 58639], "trial_type": "free-recall", "conditions": [18, 1200, "a", 18000], "internal_node_id": "0.0-32.0-0.0", "key_presses": [82, 65, 68, 73, 83, 72, 13, 80, 76, 65, 84, 69, 13, 68, 79, 82, 8, 8, 8, 77, 65, 77, 77, 65, 76, 13, 65, 8, 80, 65, 80, 80, 69, 82, 8, 8, 8, 69, 82, 13], "trial": 0, "time_elapsed": 332418, "type": "FREE_RECALL", "trial_index": 41}, "uniqueid": "MTK1637:37U1UTWH9WTAYNAEYFVY96RAXGJ8R6", "dateTime": 1516059602924}, {"current_trial": 42, "trialdata": {"rt": 8909, "trial_type": "text", "internal_node_id": "0.0-33.0", "time_elapsed": 343331, "key_press": 32, "type": "INSTRUCTIONS", "trial_index": 42}, "uniqueid": "MTK1637:37U1UTWH9WTAYNAEYFVY96RAXGJ8R6", "dateTime": 1516059613835}, {"current_trial": 43, "trialdata": {"rt": [4194, 6638, 9006, 14851], "trial_type": "math-distractor", "key_times": [3732, 3883, 4194, 6228, 6416, 6638, 8709, 8881, 9006, 14458, 14552, 14851], "responses": ["11", "18", "11", "12"], "num2": [7, 9, 2, 5, 8], "num3": [2, 1, 7, 4, 5], "conditions": [18, 1200, "a", 18000], "internal_node_id": "0.0-34.0", "key_presses": [49, 49, 13, 49, 56, 13, 49, 49, 13, 49, 50, 13], "trial": 1, "time_elapsed": 363335, "type": "DISTRACTOR", "trial_index": 43, "num1": [2, 8, 2, 3, 6]}, "uniqueid": "MTK1637:37U1UTWH9WTAYNAEYFVY96RAXGJ8R6", "dateTime": 1516059633839}, {"current_trial": 44, "trialdata": {"rt": -1, "trial_type": "single-stim", "stimulus": "<p id=\"stim\">10</p>", "internal_node_id": "0.0-35.0-0.0", "time_elapsed": 366338, "key_press": -1, "trial_index": 44}, "uniqueid": "MTK1637:37U1UTWH9WTAYNAEYFVY96RAXGJ8R6", "dateTime": 1516059636842}, {"current_trial": 45, "trialdata": {"rt": -1, "trial_type": "single-stim", "stimulus": "<p id=\"stim\">9</p>", "internal_node_id": "0.0-35.0-1.0", "time_elapsed": 367340, "key_press": -1, "trial_index": 45}, "uniqueid": "MTK1637:37U1UTWH9WTAYNAEYFVY96RAXGJ8R6", "dateTime": 1516059637844}, {"current_trial": 46, "trialdata": {"rt": -1, "trial_type": "single-stim", "stimulus": "<p id=\"stim\">8</p>", "internal_node_id": "0.0-35.0-2.0", "time_elapsed": 368342, "key_press": -1, "trial_index": 46}, "uniqueid": "MTK1637:37U1UTWH9WTAYNAEYFVY96RAXGJ8R6", "dateTime": 1516059638846}, {"current_trial": 47, "trialdata": {"rt": -1, "trial_type": "single-stim", "stimulus": "<p id=\"stim\">7</p>", "internal_node_id": "0.0-35.0-3.0", "time_elapsed": 369343, "key_press": -1, "trial_index": 47}, "uniqueid": "MTK1637:37U1UTWH9WTAYNAEYFVY96RAXGJ8R6", "dateTime": 1516059639847}, {"current_trial": 48, "trialdata": {"rt": -1, "trial_type": "single-stim", "stimulus": "<p id=\"stim\">6</p>", "internal_node_id": "0.0-35.0-4.0", "time_elapsed": 370344, "key_press": -1, "trial_index": 48}, "uniqueid": "MTK1637:37U1UTWH9WTAYNAEYFVY96RAXGJ8R6", "dateTime": 1516059640848}, {"current_trial": 49, "trialdata": {"rt": -1, "trial_type": "single-stim", "stimulus": "<p id=\"stim\">5</p>", "internal_node_id": "0.0-35.0-5.0", "time_elapsed": 371345, "key_press": -1, "trial_index": 49}, "uniqueid": "MTK1637:37U1UTWH9WTAYNAEYFVY96RAXGJ8R6", "dateTime": 1516059641849}, {"current_trial": 50, "trialdata": {"rt": -1, "trial_type": "single-stim", "stimulus": "<p id=\"stim\">4</p>", "internal_node_id": "0.0-35.0-6.0", "time_elapsed": 372346, "key_press": -1, "trial_index": 50}, "uniqueid": "MTK1637:37U1UTWH9WTAYNAEYFVY96RAXGJ8R6", "dateTime": 1516059642850}, {"current_trial": 51, "trialdata": {"rt": -1, "trial_type": "single-stim", "stimulus": "<p id=\"stim\">3</p>", "internal_node_id": "0.0-35.0-7.0", "time_elapsed": 373348, "key_press": -1, "trial_index": 51}, "uniqueid": "MTK1637:37U1UTWH9WTAYNAEYFVY96RAXGJ8R6", "dateTime": 1516059643852}, {"current_trial": 52, "trialdata": {"rt": -1, "trial_type": "single-stim", "stimulus": "<p id=\"stim\">2</p>", "internal_node_id": "0.0-35.0-8.0", "time_elapsed": 374349, "key_press": -1, "trial_index": 52}, "uniqueid": "MTK1637:37U1UTWH9WTAYNAEYFVY96RAXGJ8R6", "dateTime": 1516059644853}, {"current_trial": 53, "trialdata": {"rt": -1, "trial_type": "single-stim", "stimulus": "<p id=\"stim\">1</p>", "internal_node_id": "0.0-35.0-9.0", "time_elapsed": 375350, "key_press": -1, "trial_index": 53}, "uniqueid": "MTK1637:37U1UTWH9WTAYNAEYFVY96RAXGJ8R6", "dateTime": 1516059645854}, {"current_trial": 54, "trialdata": {"rt": -1, "trial_type": "single-stim", "stimulus": "<p id=\"stim\">+</p>", "internal_node_id": "0.0-36.0-0.0", "time_elapsed": 376851, "key_press": -1, "type": "FIXATION", "trial_index": 54}, "uniqueid": "MTK1637:37U1UTWH9WTAYNAEYFVY96RAXGJ8R6", "dateTime": 1516059647355}, {"current_trial": 55, "trialdata": {"rt": -1000, "trial_type": "single-audio", "word": "scotch", "stimulus": "/static/audio/wordpool/SCOTCH.wav", "conditions": [18, 1200, "a", 18000], "internal_node_id": "0.0-37.0", "trial": 1, "time_elapsed": 379136, "serialpos": 0, "key_press": -1, "wordID": 1250, "type": "PRES_AUD", "trial_index": 55}, "uniqueid": "MTK1637:37U1UTWH9WTAYNAEYFVY96RAXGJ8R6", "dateTime": 1516059649640}, {"current_trial": 56, "trialdata": {"rt": -1000, "trial_type": "single-audio", "word": "ox", "stimulus": "/static/audio/wordpool/OX.wav", "conditions": [18, 1200, "a", 18000], "internal_node_id": "0.0-38.0", "trial": 1, "time_elapsed": 381473, "serialpos": 1, "key_press": -1, "wordID": 993, "type": "PRES_AUD", "trial_index": 56}, "uniqueid": "MTK1637:37U1UTWH9WTAYNAEYFVY96RAXGJ8R6", "dateTime": 1516059651977}, {"current_trial": 57, "trialdata": {"rt": -1000, "trial_type": "single-audio", "word": "razor", "stimulus": "/static/audio/wordpool/RAZOR.wav", "conditions": [18, 1200, "a", 18000], "internal_node_id": "0.0-39.0", "trial": 1, "time_elapsed": 383688, "serialpos": 2, "key_press": -1, "wordID": 1170, "type": "PRES_AUD", "trial_index": 57}, "uniqueid": "MTK1637:37U1UTWH9WTAYNAEYFVY96RAXGJ8R6", "dateTime": 1516059654192}, {"current_trial": 58, "trialdata": {"rt": -1000, "trial_type": "single-audio", "word": "parsley", "stimulus": "/static/audio/wordpool/PARSLEY.wav", "conditions": [18, 1200, "a", 18000], "internal_node_id": "0.0-40.0", "trial": 1, "time_elapsed": 385751, "serialpos": 3, "key_press": -1, "wordID": 1015, "type": "PRES_AUD", "trial_index": 58}, "uniqueid": "MTK1637:37U1UTWH9WTAYNAEYFVY96RAXGJ8R6", "dateTime": 1516059656255}, {"current_trial": 59, "trialdata": {"rt": -1000, "trial_type": "single-audio", "word": "whiskers", "stimulus": "/static/audio/wordpool/WHISKERS.wav", "conditions": [18, 1200, "a", 18000], "internal_node_id": "0.0-41.0", "trial": 1, "time_elapsed": 387974, "serialpos": 4, "key_press": -1, "wordID": 1604, "type": "PRES_AUD", "trial_index": 59}, "uniqueid": "MTK1637:37U1UTWH9WTAYNAEYFVY96RAXGJ8R6", "dateTime": 1516059658478}, {"current_trial": 60, "trialdata": {"rt": -1000, "trial_type": "single-audio", "word": "typist", "stimulus": "/static/audio/wordpool/TYPIST.wav", "conditions": [18, 1200, "a", 18000], "internal_node_id": "0.0-42.0", "trial": 1, "time_elapsed": 390219, "serialpos": 5, "key_press": -1, "wordID": 1531, "type": "PRES_AUD", "trial_index": 60}, "uniqueid": "MTK1637:37U1UTWH9WTAYNAEYFVY96RAXGJ8R6", "dateTime": 1516059660723}, {"current_trial": 61, "trialdata": {"rt": -1000, "trial_type": "single-audio", "word": "match", "stimulus": "/static/audio/wordpool/MATCH.wav", "conditions": [18, 1200, "a", 18000], "internal_node_id": "0.0-43.0", "trial": 1, "time_elapsed": 392241, "serialpos": 6, "key_press": -1, "wordID": 877, "type": "PRES_AUD", "trial_index": 61}, "uniqueid": "MTK1637:37U1UTWH9WTAYNAEYFVY96RAXGJ8R6", "dateTime": 1516059662745}, {"current_trial": 62, "trialdata": {"rt": -1000, "trial_type": "single-audio", "word": "cellar", "stimulus": "/static/audio/wordpool/CELLAR.wav", "conditions": [18, 1200, "a", 18000], "internal_node_id": "0.0-44.0", "trial": 1, "time_elapsed": 394540, "serialpos": 7, "key_press": -1, "wordID": 266, "type": "PRES_AUD", "trial_index": 62}, "uniqueid": "MTK1637:37U1UTWH9WTAYNAEYFVY96RAXGJ8R6", "dateTime": 1516059665044}, {"current_trial": 63, "trialdata": {"rt": -1000, "trial_type": "single-audio", "word": "lapel", "stimulus": "/static/audio/wordpool/LAPEL.wav", "conditions": [18, 1200, "a", 18000], "internal_node_id": "0.0-45.0", "trial": 1, "time_elapsed": 396589, "serialpos": 8, "key_press": -1, "wordID": 799, "type": "PRES_AUD", "trial_index": 63}, "uniqueid": "MTK1637:37U1UTWH9WTAYNAEYFVY96RAXGJ8R6", "dateTime": 1516059667093}, {"current_trial": 64, "trialdata": {"rt": -1000, "trial_type": "single-audio", "word": "banker", "stimulus": "/static/audio/wordpool/BANKER.wav", "conditions": [18, 1200, "a", 18000], "internal_node_id": "0.0-46.0", "trial": 1, "time_elapsed": 398704, "serialpos": 9, "key_press": -1, "wordID": 83, "type": "PRES_AUD", "trial_index": 64}, "uniqueid": "MTK1637:37U1UTWH9WTAYNAEYFVY96RAXGJ8R6", "dateTime": 1516059669208}, {"current_trial": 65, "trialdata": {"rt": -1000, "trial_type": "single-audio", "word": "author", "stimulus": "/static/audio/wordpool/AUTHOR.wav", "conditions": [18, 1200, "a", 18000], "internal_node_id": "0.0-47.0", "trial": 1, "time_elapsed": 401088, "serialpos": 10, "key_press": -1, "wordID": 60, "type": "PRES_AUD", "trial_index": 65}, "uniqueid": "MTK1637:37U1UTWH9WTAYNAEYFVY96RAXGJ8R6", "dateTime": 1516059671592}, {"current_trial": 66, "trialdata": {"rt": -1000, "trial_type": "single-audio", "word": "diner", "stimulus": "/static/audio/wordpool/DINER.wav", "conditions": [18, 1200, "a", 18000], "internal_node_id": "0.0-48.0", "trial": 1, "time_elapsed": 403403, "serialpos": 11, "key_press": -1, "wordID": 466, "type": "PRES_AUD", "trial_index": 66}, "uniqueid": "MTK1637:37U1UTWH9WTAYNAEYFVY96RAXGJ8R6", "dateTime": 1516059673907}, {"current_trial": 67, "trialdata": {"rt": -1000, "trial_type": "single-audio", "word": "peanut", "stimulus": "/static/audio/wordpool/PEANUT.wav", "conditions": [18, 1200, "a", 18000], "internal_node_id": "0.0-49.0", "trial": 1, "time_elapsed": 405755, "serialpos": 12, "key_press": -1, "wordID": 1031, "type": "PRES_AUD", "trial_index": 67}, "uniqueid": "MTK1637:37U1UTWH9WTAYNAEYFVY96RAXGJ8R6", "dateTime": 1516059676259}, {"current_trial": 68, "trialdata": {"rt": -1000, "trial_type": "single-audio", "word": "woman", "stimulus": "/static/audio/wordpool/WOMAN.wav", "conditions": [18, 1200, "a", 18000], "internal_node_id": "0.0-50.0", "trial": 1, "time_elapsed": 407788, "serialpos": 13, "key_press": -1, "wordID": 1619, "type": "PRES_AUD", "trial_index": 68}, "uniqueid": "MTK1637:37U1UTWH9WTAYNAEYFVY96RAXGJ8R6", "dateTime": 1516059678294}, {"current_trial": 69, "trialdata": {"rt": -1000, "trial_type": "single-audio", "word": "partner", "stimulus": "/static/audio/wordpool/PARTNER.wav", "conditions": [18, 1200, "a", 18000], "internal_node_id": "0.0-51.0", "trial": 1, "time_elapsed": 409889, "serialpos": 14, "key_press": -1, "wordID": 1016, "type": "PRES_AUD", "trial_index": 69}, "uniqueid": "MTK1637:37U1UTWH9WTAYNAEYFVY96RAXGJ8R6", "dateTime": 1516059680393}, {"current_trial": 70, "trialdata": {"rt": -1000, "trial_type": "single-audio", "word": "cyclone", "stimulus": "/static/audio/wordpool/CYCLONE.wav", "conditions": [18, 1200, "a", 18000], "internal_node_id": "0.0-52.0", "trial": 1, "time_elapsed": 412004, "serialpos": 15, "key_press": -1, "wordID": 430, "type": "PRES_AUD", "trial_index": 70}, "uniqueid": "MTK1637:37U1UTWH9WTAYNAEYFVY96RAXGJ8R6", "dateTime": 1516059682508}, {"current_trial": 71, "trialdata": {"rt": -1000, "trial_type": "single-audio", "word": "mister", "stimulus": "/static/audio/wordpool/MISTER.wav", "conditions": [18, 1200, "a", 18000], "internal_node_id": "0.0-53.0", "trial": 1, "time_elapsed": 414026, "serialpos": 16, "key_press": -1, "wordID": 900, "type": "PRES_AUD", "trial_index": 71}, "uniqueid": "MTK1637:37U1UTWH9WTAYNAEYFVY96RAXGJ8R6", "dateTime": 1516059684530}, {"current_trial": 72, "trialdata": {"rt": -1000, "trial_type": "single-audio", "word": "hook", "stimulus": "/static/audio/wordpool/HOOK.wav", "conditions": [18, 1200, "a", 18000], "internal_node_id": "0.0-54.0", "trial": 1, "time_elapsed": 416104, "serialpos": 17, "key_press": -1, "wordID": 714, "type": "PRES_AUD", "trial_index": 72}, "uniqueid": "MTK1637:37U1UTWH9WTAYNAEYFVY96RAXGJ8R6", "dateTime": 1516059686608}, {"current_trial": 73, "trialdata": {"rt": -1, "trial_type": "single-stim", "stimulus": "", "internal_node_id": "0.0-55.0-0.0", "time_elapsed": 417404, "key_press": -1, "type": "PRE_RECALL_DELAY", "trial_index": 73}, "uniqueid": "MTK1637:37U1UTWH9WTAYNAEYFVY96RAXGJ8R6", "dateTime": 1516059687909}, {"current_trial": 74, "trialdata": {"rt": -1000, "trial_type": "single-audio", "stimulus": "/static/audio/400Hz.wav", "internal_node_id": "0.0-56.0", "time_elapsed": 417906, "key_press": -1, "type": "PRE_RECALL_ALERT", "trial_index": 74}, "uniqueid": "MTK1637:37U1UTWH9WTAYNAEYFVY96RAXGJ8R6", "dateTime": 1516059688410}, {"current_trial": 75, "trialdata": {"rt": [2221, 3456, 5122, 6510, 11766, 12518, 18887, 26140], "recwords": ["hook", "mister", "cyclone", "woman", "partner", "ox", "typist", "peanut"], "key_times": [1437, 1648, 1769, 1924, 2221, 2808, 2931, 3004, 3098, 3263, 3357, 3456, 3781, 3928, 4620, 4692, 4851, 4924, 5007, 5122, 5697, 5770, 5873, 6011, 6079, 6510, 9109, 9351, 9847, 10877, 11029, 11122, 11173, 11766, 12262, 12384, 12518, 17506, 17853, 18285, 18400, 18526, 18609, 18887, 23049, 23210, 23300, 23457, 23620, 23820, 24481, 24597, 24739, 24964, 25466, 25644, 25814, 25928, 26140], "trial_type": "free-recall", "conditions": [18, 1200, "a", 18000], "internal_node_id": "0.0-57.0-0.0", "key_presses": [72, 79, 79, 75, 13, 77, 73, 83, 84, 69, 82, 13, 67, 89, 67, 76, 79, 78, 69, 13, 87, 79, 77, 65, 78, 13, 80, 65, 82, 84, 78, 69, 82, 13, 79, 88, 13, 84, 89, 80, 73, 83, 84, 13, 80, 69, 65, 84, 85, 69, 8, 8, 8, 8, 65, 78, 85, 84, 13], "trial": 1, "time_elapsed": 477909, "type": "FREE_RECALL", "trial_index": 75}, "uniqueid": "MTK1637:37U1UTWH9WTAYNAEYFVY96RAXGJ8R6", "dateTime": 1516059748414}, {"current_trial": 76, "trialdata": {"rt": 6076, "trial_type": "text", "internal_node_id": "0.0-58.0", "time_elapsed": 485986, "key_press": 70, "type": "INSTRUCTIONS", "trial_index": 76}, "uniqueid": "MTK1637:37U1UTWH9WTAYNAEYFVY96RAXGJ8R6", "dateTime": 1516059756490}, {"current_trial": 77, "trialdata": {"rt": [4124, 7283, 9220, 10549, 12131, 13262, 14782, 16838, 19700, 21425], "trial_type": "math-distractor", "key_times": [3062, 3463, 3616, 3941, 4124, 6892, 7066, 7283, 9023, 9096, 9220, 10246, 10446, 10549, 11687, 11878, 12131, 13075, 13164, 13262, 14617, 14782, 16666, 16838, 19350, 19577, 19700, 21156, 21298, 21425, 23807], "responses": ["25", "19", "12", "14", "10", "12", "8", "9", "15", "12"], "num2": [9, 7, 3, 6, 2, 2, 2, 1, 6, 1, 7], "num3": [7, 7, 4, 6, 2, 5, 1, 7, 2, 8, 4], "conditions": [12, 800, "a", 24000], "internal_node_id": "0.0-59.0", "key_presses": [49, 8, 50, 53, 13, 49, 57, 13, 49, 50, 13, 49, 52, 13, 49, 48, 13, 49, 50, 13, 56, 13, 57, 13, 49, 53, 13, 49, 50, 13, 49], "trial": 2, "time_elapsed": 510989, "type": "DISTRACTOR", "trial_index": 77, "num1": [9, 6, 5, 4, 6, 5, 5, 1, 7, 3, 6]}, "uniqueid": "MTK1637:37U1UTWH9WTAYNAEYFVY96RAXGJ8R6", "dateTime": 1516059781493}, {"current_trial": 78, "trialdata": {"rt": -1, "trial_type": "single-stim", "stimulus": "<p id=\"stim\">10</p>", "internal_node_id": "0.0-60.0-0.0", "time_elapsed": 513991, "key_press": -1, "trial_index": 78}, "uniqueid": "MTK1637:37U1UTWH9WTAYNAEYFVY96RAXGJ8R6", "dateTime": 1516059784495}, {"current_trial": 79, "trialdata": {"rt": -1, "trial_type": "single-stim", "stimulus": "<p id=\"stim\">9</p>", "internal_node_id": "0.0-60.0-1.0", "time_elapsed": 514992, "key_press": -1, "trial_index": 79}, "uniqueid": "MTK1637:37U1UTWH9WTAYNAEYFVY96RAXGJ8R6", "dateTime": 1516059785496}, {"current_trial": 80, "trialdata": {"rt": -1, "trial_type": "single-stim", "stimulus": "<p id=\"stim\">8</p>", "internal_node_id": "0.0-60.0-2.0", "time_elapsed": 515994, "key_press": -1, "trial_index": 80}, "uniqueid": "MTK1637:37U1UTWH9WTAYNAEYFVY96RAXGJ8R6", "dateTime": 1516059786498}, {"current_trial": 81, "trialdata": {"rt": -1, "trial_type": "single-stim", "stimulus": "<p id=\"stim\">7</p>", "internal_node_id": "0.0-60.0-3.0", "time_elapsed": 516995, "key_press": -1, "trial_index": 81}, "uniqueid": "MTK1637:37U1UTWH9WTAYNAEYFVY96RAXGJ8R6", "dateTime": 1516059787499}, {"current_trial": 82, "trialdata": {"rt": -1, "trial_type": "single-stim", "stimulus": "<p id=\"stim\">6</p>", "internal_node_id": "0.0-60.0-4.0", "time_elapsed": 517996, "key_press": -1, "trial_index": 82}, "uniqueid": "MTK1637:37U1UTWH9WTAYNAEYFVY96RAXGJ8R6", "dateTime": 1516059788500}, {"current_trial": 83, "trialdata": {"rt": -1, "trial_type": "single-stim", "stimulus": "<p id=\"stim\">5</p>", "internal_node_id": "0.0-60.0-5.0", "time_elapsed": 518998, "key_press": -1, "trial_index": 83}, "uniqueid": "MTK1637:37U1UTWH9WTAYNAEYFVY96RAXGJ8R6", "dateTime": 1516059789502}, {"current_trial": 84, "trialdata": {"rt": -1, "trial_type": "single-stim", "stimulus": "<p id=\"stim\">4</p>", "internal_node_id": "0.0-60.0-6.0", "time_elapsed": 519999, "key_press": -1, "trial_index": 84}, "uniqueid": "MTK1637:37U1UTWH9WTAYNAEYFVY96RAXGJ8R6", "dateTime": 1516059790503}, {"current_trial": 85, "trialdata": {"rt": -1, "trial_type": "single-stim", "stimulus": "<p id=\"stim\">3</p>", "internal_node_id": "0.0-60.0-7.0", "time_elapsed": 521000, "key_press": -1, "trial_index": 85}, "uniqueid": "MTK1637:37U1UTWH9WTAYNAEYFVY96RAXGJ8R6", "dateTime": 1516059791504}, {"current_trial": 86, "trialdata": {"rt": -1, "trial_type": "single-stim", "stimulus": "<p id=\"stim\">2</p>", "internal_node_id": "0.0-60.0-8.0", "time_elapsed": 522002, "key_press": -1, "trial_index": 86}, "uniqueid": "MTK1637:37U1UTWH9WTAYNAEYFVY96RAXGJ8R6", "dateTime": 1516059792506}, {"current_trial": 87, "trialdata": {"rt": -1, "trial_type": "single-stim", "stimulus": "<p id=\"stim\">1</p>", "internal_node_id": "0.0-60.0-9.0", "time_elapsed": 523004, "key_press": -1, "trial_index": 87}, "uniqueid": "MTK1637:37U1UTWH9WTAYNAEYFVY96RAXGJ8R6", "dateTime": 1516059793508}, {"current_trial": 88, "trialdata": {"rt": -1, "trial_type": "single-stim", "stimulus": "<p id=\"stim\">+</p>", "internal_node_id": "0.0-61.0-0.0", "time_elapsed": 524506, "key_press": -1, "type": "FIXATION", "trial_index": 88}, "uniqueid": "MTK1637:37U1UTWH9WTAYNAEYFVY96RAXGJ8R6", "dateTime": 1516059795010}, {"current_trial": 89, "trialdata": {"rt": -1000, "trial_type": "single-audio", "word": "female", "stimulus": "/static/audio/wordpool/FEMALE.wav", "conditions": [12, 800, "a", 24000], "internal_node_id": "0.0-62.0", "trial": 2, "time_elapsed": 526189, "serialpos": 0, "key_press": -1, "wordID": 558, "type": "PRES_AUD", "trial_index": 89}, "uniqueid": "MTK1637:37U1UTWH9WTAYNAEYFVY96RAXGJ8R6", "dateTime": 1516059796693}, {"current_trial": 90, "trialdata": {"rt": -1000, "trial_type": "single-audio", "word": "diver", "stimulus": "/static/audio/wordpool/DIVER.wav", "conditions": [12, 800, "a", 24000], "internal_node_id": "0.0-63.0", "trial": 2, "time_elapsed": 528019, "serialpos": 1, "key_press": -1, "wordID": 475, "type": "PRES_AUD", "trial_index": 90}, "uniqueid": "MTK1637:37U1UTWH9WTAYNAEYFVY96RAXGJ8R6", "dateTime": 1516059798523}, {"current_trial": 91, "trialdata": {"rt": -1000, "trial_type": "single-audio", "word": "swimmer", "stimulus": "/static/audio/wordpool/SWIMMER.wav", "conditions": [12, 800, "a", 24000], "internal_node_id": "0.0-64.0", "trial": 2, "time_elapsed": 529904, "serialpos": 2, "key_press": -1, "wordID": 1419, "type": "PRES_AUD", "trial_index": 91}, "uniqueid": "MTK1637:37U1UTWH9WTAYNAEYFVY96RAXGJ8R6", "dateTime": 1516059800408}, {"current_trial": 92, "trialdata": {"rt": -1000, "trial_type": "single-audio", "word": "staple", "stimulus": "/static/audio/wordpool/STAPLE.wav", "conditions": [12, 800, "a", 24000], "internal_node_id": "0.0-65.0", "trial": 2, "time_elapsed": 531873, "serialpos": 3, "key_press": -1, "wordID": 1370, "type": "PRES_AUD", "trial_index": 92}, "uniqueid": "MTK1637:37U1UTWH9WTAYNAEYFVY96RAXGJ8R6", "dateTime": 1516059802377}, {"current_trial": 93, "trialdata": {"rt": -1000, "trial_type": "single-audio", "word": "banjo", "stimulus": "/static/audio/wordpool/BANJO.wav", "conditions": [12, 800, "a", 24000], "internal_node_id": "0.0-66.0", "trial": 2, "time_elapsed": 533539, "serialpos": 4, "key_press": -1, "wordID": 81, "type": "PRES_AUD", "trial_index": 93}, "uniqueid": "MTK1637:37U1UTWH9WTAYNAEYFVY96RAXGJ8R6", "dateTime": 1516059804043}, {"current_trial": 94, "trialdata": {"rt": -1000, "trial_type": "single-audio", "word": "muffin", "stimulus": "/static/audio/wordpool/MUFFIN.wav", "conditions": [12, 800, "a", 24000], "internal_node_id": "0.0-67.0", "trial": 2, "time_elapsed": 535317, "serialpos": 5, "key_press": -1, "wordID": 928, "type": "PRES_AUD", "trial_index": 94}, "uniqueid": "MTK1637:37U1UTWH9WTAYNAEYFVY96RAXGJ8R6", "dateTime": 1516059805821}, {"current_trial": 95, "trialdata": {"rt": -1000, "trial_type": "single-audio", "word": "temple", "stimulus": "/static/audio/wordpool/TEMPLE.wav", "conditions": [12, 800, "a", 24000], "internal_node_id": "0.0-68.0", "trial": 2, "time_elapsed": 537116, "serialpos": 6, "key_press": -1, "wordID": 1447, "type": "PRES_AUD", "trial_index": 95}, "uniqueid": "MTK1637:37U1UTWH9WTAYNAEYFVY96RAXGJ8R6", "dateTime": 1516059807621}, {"current_trial": 96, "trialdata": {"rt": -1000, "trial_type": "single-audio", "word": "flesh", "stimulus": "/static/audio/wordpool/FLESH.wav", "conditions": [12, 800, "a", 24000], "internal_node_id": "0.0-69.0", "trial": 2, "time_elapsed": 538925, "serialpos": 7, "key_press": -1, "wordID": 578, "type": "PRES_AUD", "trial_index": 96}, "uniqueid": "MTK1637:37U1UTWH9WTAYNAEYFVY96RAXGJ8R6", "dateTime": 1516059809429}, {"current_trial": 97, "trialdata": {"rt": -1000, "trial_type": "single-audio", "word": "spoon", "stimulus": "/static/audio/wordpool/SPOON.wav", "conditions": [12, 800, "a", 24000], "internal_node_id": "0.0-70.0", "trial": 2, "time_elapsed": 540909, "serialpos": 8, "key_press": -1, "wordID": 1356, "type": "PRES_AUD", "trial_index": 97}, "uniqueid": "MTK1637:37U1UTWH9WTAYNAEYFVY96RAXGJ8R6", "dateTime": 1516059811413}, {"current_trial": 98, "trialdata": {"rt": -1000, "trial_type": "single-audio", "word": "guitar", "stimulus": "/static/audio/wordpool/GUITAR.wav", "conditions": [12, 800, "a", 24000], "internal_node_id": "0.0-71.0", "trial": 2, "time_elapsed": 542908, "serialpos": 9, "key_press": -1, "wordID": 669, "type": "PRES_AUD", "trial_index": 98}, "uniqueid": "MTK1637:37U1UTWH9WTAYNAEYFVY96RAXGJ8R6", "dateTime": 1516059813412}, {"current_trial": 99, "trialdata": {"rt": -1000, "trial_type": "single-audio", "word": "couch", "stimulus": "/static/audio/wordpool/COUCH.wav", "conditions": [12, 800, "a", 24000], "internal_node_id": "0.0-72.0", "trial": 2, "time_elapsed": 544832, "serialpos": 10, "key_press": -1, "wordID": 385, "type": "PRES_AUD", "trial_index": 99}, "uniqueid": "MTK1637:37U1UTWH9WTAYNAEYFVY96RAXGJ8R6", "dateTime": 1516059815336}, {"current_trial": 100, "trialdata": {"rt": -1000, "trial_type": "single-audio", "word": "cod", "stimulus": "/static/audio/wordpool/COD.wav", "conditions": [12, 800, "a", 24000], "internal_node_id": "0.0-73.0", "trial": 2, "time_elapsed": 546646, "serialpos": 11, "key_press": -1, "wordID": 339, "type": "PRES_AUD", "trial_index": 100}, "uniqueid": "MTK1637:37U1UTWH9WTAYNAEYFVY96RAXGJ8R6", "dateTime": 1516059817150}, {"current_trial": 101, "trialdata": {"rt": -1, "trial_type": "single-stim", "stimulus": "", "internal_node_id": "0.0-74.0-0.0", "time_elapsed": 547989, "key_press": -1, "type": "PRE_RECALL_DELAY", "trial_index": 101}, "uniqueid": "MTK1637:37U1UTWH9WTAYNAEYFVY96RAXGJ8R6", "dateTime": 1516059818493}, {"current_trial": 102, "trialdata": {"rt": -1000, "trial_type": "single-audio", "stimulus": "/static/audio/400Hz.wav", "internal_node_id": "0.0-75.0", "time_elapsed": 548499, "key_press": -1, "type": "PRE_RECALL_ALERT", "trial_index": 102}, "uniqueid": "MTK1637:37U1UTWH9WTAYNAEYFVY96RAXGJ8R6", "dateTime": 1516059819003}, {"current_trial": 103, "trialdata": {"rt": [2753, 4646, 8961, 10527, 14691, 17666, 18534, 19917, 26695, 30329], "recwords": ["cod", "spoon", "guitar", "couch", "staphler", "female", "diver", "swimmer", "piano", "cod"], "key_times": [2180, 2331, 2441, 2753, 3548, 3703, 4077, 4198, 4356, 4646, 5291, 5413, 5658, 5827, 5911, 6533, 6693, 7063, 7532, 7651, 7961, 8253, 8398, 8483, 8961, 9888, 10021, 10078, 10217, 10311, 10527, 11577, 11730, 11814, 12183, 12561, 12774, 13240, 13376, 13750, 14052, 14162, 14218, 14691, 16938, 17059, 17207, 17324, 17453, 17549, 17666, 18002, 18085, 18189, 18373, 18429, 18534, 18952, 19233, 19318, 19511, 19622, 19774, 19814, 19917, 25038, 25192, 25372, 25765, 25878, 26105, 26244, 26341, 26445, 26695, 29972, 30107, 30207, 30329], "trial_type": "free-recall", "conditions": [12, 800, "a", 24000], "internal_node_id": "0.0-76.0-0.0", "key_presses": [67, 79, 68, 13, 83, 80, 79, 79, 78, 13, 71, 85, 84, 65, 82, 8, 8, 73, 8, 8, 73, 84, 65, 82, 13, 67, 79, 85, 67, 72, 13, 83, 84, 65, 80, 76, 72, 8, 8, 72, 76, 69, 82, 13, 70, 69, 77, 65, 76, 69, 13, 68, 73, 86, 69, 82, 13, 83, 87, 73, 77, 77, 69, 82, 13, 80, 65, 73, 8, 8, 73, 65, 78, 79, 13, 67, 79, 68, 13], "trial": 2, "time_elapsed": 608501, "type": "FREE_RECALL", "trial_index": 103}, "uniqueid": "MTK1637:37U1UTWH9WTAYNAEYFVY96RAXGJ8R6", "dateTime": 1516059879006}, {"current_trial": 104, "trialdata": {"rt": 9065, "trial_type": "text", "internal_node_id": "0.0-77.0", "time_elapsed": 619569, "key_press": 74, "type": "INSTRUCTIONS", "trial_index": 104}, "uniqueid": "MTK1637:37U1UTWH9WTAYNAEYFVY96RAXGJ8R6", "dateTime": 1516059890073}, {"current_trial": 105, "trialdata": {"rt": [2500, 4788, 8394, 11714, 14683, 17388, 19741, 21404], "trial_type": "math-distractor", "key_times": [2122, 2257, 2500, 4480, 4598, 4788, 7797, 8025, 8394, 10506, 10730, 11217, 11320, 11714, 12944, 13314, 14683, 16997, 17212, 17388, 19287, 19481, 19741, 21183, 21284, 21404, 23689, 23926], "responses": ["13", "20", "14", "13", "16", "18", "10", "21"], "num2": [2, 8, 7, 2, 1, 1, 6, 8, 6], "num3": [8, 6, 6, 6, 9, 9, 2, 5, 9], "conditions": [24, 1600, "a", 24000], "internal_node_id": "0.0-78.0", "key_presses": [49, 51, 13, 50, 48, 13, 49, 52, 13, 49, 52, 8, 51, 13, 49, 54, 13, 49, 56, 13, 49, 48, 13, 50, 49, 13, 49, 55], "trial": 3, "time_elapsed": 645571, "type": "DISTRACTOR", "trial_index": 105, "num1": [3, 6, 1, 5, 6, 8, 2, 8, 2]}, "uniqueid": "MTK1637:37U1UTWH9WTAYNAEYFVY96RAXGJ8R6", "dateTime": 1516059916075}, {"current_trial": 106, "trialdata": {"rt": -1, "trial_type": "single-stim", "stimulus": "<p id=\"stim\">10</p>", "internal_node_id": "0.0-79.0-0.0", "time_elapsed": 648574, "key_press": -1, "trial_index": 106}, "uniqueid": "MTK1637:37U1UTWH9WTAYNAEYFVY96RAXGJ8R6", "dateTime": 1516059919078}, {"current_trial": 107, "trialdata": {"rt": -1, "trial_type": "single-stim", "stimulus": "<p id=\"stim\">9</p>", "internal_node_id": "0.0-79.0-1.0", "time_elapsed": 649575, "key_press": -1, "trial_index": 107}, "uniqueid": "MTK1637:37U1UTWH9WTAYNAEYFVY96RAXGJ8R6", "dateTime": 1516059920079}, {"current_trial": 108, "trialdata": {"rt": -1, "trial_type": "single-stim", "stimulus": "<p id=\"stim\">8</p>", "internal_node_id": "0.0-79.0-2.0", "time_elapsed": 650576, "key_press": -1, "trial_index": 108}, "uniqueid": "MTK1637:37U1UTWH9WTAYNAEYFVY96RAXGJ8R6", "dateTime": 1516059921080}, {"current_trial": 109, "trialdata": {"rt": -1, "trial_type": "single-stim", "stimulus": "<p id=\"stim\">7</p>", "internal_node_id": "0.0-79.0-3.0", "time_elapsed": 651577, "key_press": -1, "trial_index": 109}, "uniqueid": "MTK1637:37U1UTWH9WTAYNAEYFVY96RAXGJ8R6", "dateTime": 1516059922081}, {"current_trial": 110, "trialdata": {"rt": -1, "trial_type": "single-stim", "stimulus": "<p id=\"stim\">6</p>", "internal_node_id": "0.0-79.0-4.0", "time_elapsed": 652579, "key_press": -1, "trial_index": 110}, "uniqueid": "MTK1637:37U1UTWH9WTAYNAEYFVY96RAXGJ8R6", "dateTime": 1516059923083}, {"current_trial": 111, "trialdata": {"rt": -1, "trial_type": "single-stim", "stimulus": "<p id=\"stim\">5</p>", "internal_node_id": "0.0-79.0-5.0", "time_elapsed": 653579, "key_press": -1, "trial_index": 111}, "uniqueid": "MTK1637:37U1UTWH9WTAYNAEYFVY96RAXGJ8R6", "dateTime": 1516059924083}, {"current_trial": 112, "trialdata": {"rt": -1, "trial_type": "single-stim", "stimulus": "<p id=\"stim\">4</p>", "internal_node_id": "0.0-79.0-6.0", "time_elapsed": 654580, "key_press": -1, "trial_index": 112}, "uniqueid": "MTK1637:37U1UTWH9WTAYNAEYFVY96RAXGJ8R6", "dateTime": 1516059925084}, {"current_trial": 113, "trialdata": {"rt": -1, "trial_type": "single-stim", "stimulus": "<p id=\"stim\">3</p>", "internal_node_id": "0.0-79.0-7.0", "time_elapsed": 655581, "key_press": -1, "trial_index": 113}, "uniqueid": "MTK1637:37U1UTWH9WTAYNAEYFVY96RAXGJ8R6", "dateTime": 1516059926085}, {"current_trial": 114, "trialdata": {"rt": -1, "trial_type": "single-stim", "stimulus": "<p id=\"stim\">2</p>", "internal_node_id": "0.0-79.0-8.0", "time_elapsed": 656582, "key_press": -1, "trial_index": 114}, "uniqueid": "MTK1637:37U1UTWH9WTAYNAEYFVY96RAXGJ8R6", "dateTime": 1516059927086}, {"current_trial": 115, "trialdata": {"rt": -1, "trial_type": "single-stim", "stimulus": "<p id=\"stim\">1</p>", "internal_node_id": "0.0-79.0-9.0", "time_elapsed": 657582, "key_press": -1, "trial_index": 115}, "uniqueid": "MTK1637:37U1UTWH9WTAYNAEYFVY96RAXGJ8R6", "dateTime": 1516059928087}, {"current_trial": 116, "trialdata": {"rt": -1, "trial_type": "single-stim", "stimulus": "<p id=\"stim\">+</p>", "internal_node_id": "0.0-80.0-0.0", "time_elapsed": 659084, "key_press": -1, "type": "FIXATION", "trial_index": 116}, "uniqueid": "MTK1637:37U1UTWH9WTAYNAEYFVY96RAXGJ8R6", "dateTime": 1516059929588}, {"current_trial": 117, "trialdata": {"rt": -1000, "trial_type": "single-audio", "word": "burglar", "stimulus": "/static/audio/wordpool/BURGLAR.wav", "conditions": [24, 1600, "a", 24000], "internal_node_id": "0.0-81.0", "trial": 3, "time_elapsed": 661751, "serialpos": 0, "key_press": -1, "wordID": 199, "type": "PRES_AUD", "trial_index": 117}, "uniqueid": "MTK1637:37U1UTWH9WTAYNAEYFVY96RAXGJ8R6", "dateTime": 1516059932255}, {"current_trial": 118, "trialdata": {"rt": -1000, "trial_type": "single-audio", "word": "hamper", "stimulus": "/static/audio/wordpool/HAMPER.wav", "conditions": [24, 1600, "a", 24000], "internal_node_id": "0.0-82.0", "trial": 3, "time_elapsed": 664173, "serialpos": 1, "key_press": -1, "wordID": 681, "type": "PRES_AUD", "trial_index": 118}, "uniqueid": "MTK1637:37U1UTWH9WTAYNAEYFVY96RAXGJ8R6", "dateTime": 1516059934677}, {"current_trial": 119, "trialdata": {"rt": -1000, "trial_type": "single-audio", "word": "skirt", "stimulus": "/static/audio/wordpool/SKIRT.wav", "conditions": [24, 1600, "a", 24000], "internal_node_id": "0.0-83.0", "trial": 3, "time_elapsed": 666751, "serialpos": 2, "key_press": -1, "wordID": 1318, "type": "PRES_AUD", "trial_index": 119}, "uniqueid": "MTK1637:37U1UTWH9WTAYNAEYFVY96RAXGJ8R6", "dateTime": 1516059937255}, {"current_trial": 120, "trialdata": {"rt": -1000, "trial_type": "single-audio", "word": "tortoise", "stimulus": "/static/audio/wordpool/TORTOISE.wav", "conditions": [24, 1600, "a", 24000], "internal_node_id": "0.0-84.0", "trial": 3, "time_elapsed": 669345, "serialpos": 3, "key_press": -1, "wordID": 1485, "type": "PRES_AUD", "trial_index": 120}, "uniqueid": "MTK1637:37U1UTWH9WTAYNAEYFVY96RAXGJ8R6", "dateTime": 1516059939849}, {"current_trial": 121, "trialdata": {"rt": -1000, "trial_type": "single-audio", "word": "sunrise", "stimulus": "/static/audio/wordpool/SUNRISE.wav", "conditions": [24, 1600, "a", 24000], "internal_node_id": "0.0-85.0", "trial": 3, "time_elapsed": 671988, "serialpos": 4, "key_press": -1, "wordID": 1406, "type": "PRES_AUD", "trial_index": 121}, "uniqueid": "MTK1637:37U1UTWH9WTAYNAEYFVY96RAXGJ8R6", "dateTime": 1516059942493}, {"current_trial": 122, "trialdata": {"rt": -1000, "trial_type": "single-audio", "word": "sunset", "stimulus": "/static/audio/wordpool/SUNSET.wav", "conditions": [24, 1600, "a", 24000], "internal_node_id": "0.0-86.0", "trial": 3, "time_elapsed": 674451, "serialpos": 5, "key_press": -1, "wordID": 1407, "type": "PRES_AUD", "trial_index": 122}, "uniqueid": "MTK1637:37U1UTWH9WTAYNAEYFVY96RAXGJ8R6", "dateTime": 1516059944955}, {"current_trial": 123, "trialdata": {"rt": -1000, "trial_type": "single-audio", "word": "cabbage", "stimulus": "/static/audio/wordpool/CABBAGE.wav", "conditions": [24, 1600, "a", 24000], "internal_node_id": "0.0-87.0", "trial": 3, "time_elapsed": 677119, "serialpos": 6, "key_press": -1, "wordID": 209, "type": "PRES_AUD", "trial_index": 123}, "uniqueid": "MTK1637:37U1UTWH9WTAYNAEYFVY96RAXGJ8R6", "dateTime": 1516059947623}, {"current_trial": 124, "trialdata": {"rt": -1000, "trial_type": "single-audio", "word": "saddle", "stimulus": "/static/audio/wordpool/SADDLE.wav", "conditions": [24, 1600, "a", 24000], "internal_node_id": "0.0-88.0", "trial": 3, "time_elapsed": 679849, "serialpos": 7, "key_press": -1, "wordID": 1220, "type": "PRES_AUD", "trial_index": 124}, "uniqueid": "MTK1637:37U1UTWH9WTAYNAEYFVY96RAXGJ8R6", "dateTime": 1516059950353}, {"current_trial": 125, "trialdata": {"rt": -1000, "trial_type": "single-audio", "word": "backbone", "stimulus": "/static/audio/wordpool/BACKBONE.wav", "conditions": [24, 1600, "a", 24000], "internal_node_id": "0.0-89.0", "trial": 3, "time_elapsed": 682429, "serialpos": 8, "key_press": -1, "wordID": 65, "type": "PRES_AUD", "trial_index": 125}, "uniqueid": "MTK1637:37U1UTWH9WTAYNAEYFVY96RAXGJ8R6", "dateTime": 1516059952933}, {"current_trial": 126, "trialdata": {"rt": -1000, "trial_type": "single-audio", "word": "rabbit", "stimulus": "/static/audio/wordpool/RABBIT.wav", "conditions": [24, 1600, "a", 24000], "internal_node_id": "0.0-90.0", "trial": 3, "time_elapsed": 684989, "serialpos": 9, "key_press": -1, "wordID": 1151, "type": "PRES_AUD", "trial_index": 126}, "uniqueid": "MTK1637:37U1UTWH9WTAYNAEYFVY96RAXGJ8R6", "dateTime": 1516059955493}, {"current_trial": 127, "trialdata": {"rt": -1000, "trial_type": "single-audio", "word": "airport", "stimulus": "/static/audio/wordpool/AIRPORT.wav", "conditions": [24, 1600, "a", 24000], "internal_node_id": "0.0-91.0", "trial": 3, "time_elapsed": 687774, "serialpos": 10, "key_press": -1, "wordID": 12, "type": "PRES_AUD", "trial_index": 127}, "uniqueid": "MTK1637:37U1UTWH9WTAYNAEYFVY96RAXGJ8R6", "dateTime": 1516059958278}, {"current_trial": 128, "trialdata": {"rt": -1000, "trial_type": "single-audio", "word": "thief", "stimulus": "/static/audio/wordpool/THIEF.wav", "conditions": [24, 1600, "a", 24000], "internal_node_id": "0.0-92.0", "trial": 3, "time_elapsed": 690308, "serialpos": 11, "key_press": -1, "wordID": 1455, "type": "PRES_AUD", "trial_index": 128}, "uniqueid": "MTK1637:37U1UTWH9WTAYNAEYFVY96RAXGJ8R6", "dateTime": 1516059960812}, {"current_trial": 129, "trialdata": {"rt": -1000, "trial_type": "single-audio", "word": "spider", "stimulus": "/static/audio/wordpool/SPIDER.wav", "conditions": [24, 1600, "a", 24000], "internal_node_id": "0.0-93.0", "trial": 3, "time_elapsed": 692888, "serialpos": 12, "key_press": -1, "wordID": 1350, "type": "PRES_AUD", "trial_index": 129}, "uniqueid": "MTK1637:37U1UTWH9WTAYNAEYFVY96RAXGJ8R6", "dateTime": 1516059963393}, {"current_trial": 130, "trialdata": {"rt": -1000, "trial_type": "single-audio", "word": "blade", "stimulus": "/static/audio/wordpool/BLADE.wav", "conditions": [24, 1600, "a", 24000], "internal_node_id": "0.0-94.0", "trial": 3, "time_elapsed": 695589, "serialpos": 13, "key_press": -1, "wordID": 133, "type": "PRES_AUD", "trial_index": 130}, "uniqueid": "MTK1637:37U1UTWH9WTAYNAEYFVY96RAXGJ8R6", "dateTime": 1516059966094}, {"current_trial": 131, "trialdata": {"rt": -1000, "trial_type": "single-audio", "word": "arm", "stimulus": "/static/audio/wordpool/ARM.wav", "conditions": [24, 1600, "a", 24000], "internal_node_id": "0.0-95.0", "trial": 3, "time_elapsed": 698306, "serialpos": 14, "key_press": -1, "wordID": 37, "type": "PRES_AUD", "trial_index": 131}, "uniqueid": "MTK1637:37U1UTWH9WTAYNAEYFVY96RAXGJ8R6", "dateTime": 1516059968810}, {"current_trial": 132, "trialdata": {"rt": -1000, "trial_type": "single-audio", "word": "nurse", "stimulus": "/static/audio/wordpool/NURSE.wav", "conditions": [24, 1600, "a", 24000], "internal_node_id": "0.0-96.0", "trial": 3, "time_elapsed": 701040, "serialpos": 15, "key_press": -1, "wordID": 962, "type": "PRES_AUD", "trial_index": 132}, "uniqueid": "MTK1637:37U1UTWH9WTAYNAEYFVY96RAXGJ8R6", "dateTime": 1516059971544}, {"current_trial": 133, "trialdata": {"rt": -1000, "trial_type": "single-audio", "word": "patient", "stimulus": "/static/audio/wordpool/PATIENT.wav", "conditions": [24, 1600, "a", 24000], "internal_node_id": "0.0-97.0", "trial": 3, "time_elapsed": 703707, "serialpos": 16, "key_press": -1, "wordID": 1023, "type": "PRES_AUD", "trial_index": 133}, "uniqueid": "MTK1637:37U1UTWH9WTAYNAEYFVY96RAXGJ8R6", "dateTime": 1516059974211}, {"current_trial": 134, "trialdata": {"rt": -1000, "trial_type": "single-audio", "word": "garden", "stimulus": "/static/audio/wordpool/GARDEN.wav", "conditions": [24, 1600, "a", 24000], "internal_node_id": "0.0-98.0", "trial": 3, "time_elapsed": 706504, "serialpos": 17, "key_press": -1, "wordID": 622, "type": "PRES_AUD", "trial_index": 134}, "uniqueid": "MTK1637:37U1UTWH9WTAYNAEYFVY96RAXGJ8R6", "dateTime": 1516059977008}, {"current_trial": 135, "trialdata": {"rt": -1000, "trial_type": "single-audio", "word": "grill", "stimulus": "/static/audio/wordpool/GRILL.wav", "conditions": [24, 1600, "a", 24000], "internal_node_id": "0.0-99.0", "trial": 3, "time_elapsed": 709094, "serialpos": 18, "key_press": -1, "wordID": 660, "type": "PRES_AUD", "trial_index": 135}, "uniqueid": "MTK1637:37U1UTWH9WTAYNAEYFVY96RAXGJ8R6", "dateTime": 1516059979598}, {"current_trial": 136, "trialdata": {"rt": -1000, "trial_type": "single-audio", "word": "parent", "stimulus": "/static/audio/wordpool/PARENT.wav", "conditions": [24, 1600, "a", 24000], "internal_node_id": "0.0-100.0", "trial": 3, "time_elapsed": 711551, "serialpos": 19, "key_press": -1, "wordID": 1012, "type": "PRES_AUD", "trial_index": 136}, "uniqueid": "MTK1637:37U1UTWH9WTAYNAEYFVY96RAXGJ8R6", "dateTime": 1516059982055}, {"current_trial": 137, "trialdata": {"rt": -1000, "trial_type": "single-audio", "word": "motel", "stimulus": "/static/audio/wordpool/MOTEL.wav", "conditions": [24, 1600, "a", 24000], "internal_node_id": "0.0-101.0", "trial": 3, "time_elapsed": 714153, "serialpos": 20, "key_press": -1, "wordID": 918, "type": "PRES_AUD", "trial_index": 137}, "uniqueid": "MTK1637:37U1UTWH9WTAYNAEYFVY96RAXGJ8R6", "dateTime": 1516059984657}, {"current_trial": 138, "trialdata": {"rt": -1000, "trial_type": "single-audio", "word": "knife", "stimulus": "/static/audio/wordpool/KNIFE.wav", "conditions": [24, 1600, "a", 24000], "internal_node_id": "0.0-102.0", "trial": 3, "time_elapsed": 716789, "serialpos": 21, "key_press": -1, "wordID": 784, "type": "PRES_AUD", "trial_index": 138}, "uniqueid": "MTK1637:37U1UTWH9WTAYNAEYFVY96RAXGJ8R6", "dateTime": 1516059987293}, {"current_trial": 139, "trialdata": {"rt": -1000, "trial_type": "single-audio", "word": "slide", "stimulus": "/static/audio/wordpool/SLIDE.wav", "conditions": [24, 1600, "a", 24000], "internal_node_id": "0.0-103.0", "trial": 3, "time_elapsed": 719489, "serialpos": 22, "key_press": -1, "wordID": 1325, "type": "PRES_AUD", "trial_index": 139}, "uniqueid": "MTK1637:37U1UTWH9WTAYNAEYFVY96RAXGJ8R6", "dateTime": 1516059989993}, {"current_trial": 140, "trialdata": {"rt": -1000, "trial_type": "single-audio", "word": "creature", "stimulus": "/static/audio/wordpool/CREATURE.wav", "conditions": [24, 1600, "a", 24000], "internal_node_id": "0.0-104.0", "trial": 3, "time_elapsed": 721974, "serialpos": 23, "key_press": -1, "wordID": 402, "type": "PRES_AUD", "trial_index": 140}, "uniqueid": "MTK1637:37U1UTWH9WTAYNAEYFVY96RAXGJ8R6", "dateTime": 1516059992478}, {"current_trial": 141, "trialdata": {"rt": -1, "trial_type": "single-stim", "stimulus": "", "internal_node_id": "0.0-105.0-0.0", "time_elapsed": 723314, "key_press": -1, "type": "PRE_RECALL_DELAY", "trial_index": 141}, "uniqueid": "MTK1637:37U1UTWH9WTAYNAEYFVY96RAXGJ8R6", "dateTime": 1516059993818}, {"current_trial": 142, "trialdata": {"rt": -1000, "trial_type": "single-audio", "stimulus": "/static/audio/400Hz.wav", "internal_node_id": "0.0-106.0", "time_elapsed": 723815, "key_press": -1, "type": "PRE_RECALL_ALERT", "trial_index": 142}, "uniqueid": "MTK1637:37U1UTWH9WTAYNAEYFVY96RAXGJ8R6", "dateTime": 1516059994319}, {"current_trial": 143, "trialdata": {"rt": [2285, 3381, 4449, 5550, 8482, 10124, 11548, 14461, 19397, 21437, 23778, 25896, 26700], "recwords": ["creature", "motel", "parent", "grill", "turtoise", "rabbit", "sunrise", "sunset", "burgular", "theif", "skirt", "blade", "nurse"], "key_times": [732, 1011, 1079, 1141, 1265, 1388, 1461, 1522, 2285, 2806, 2921, 3031, 3098, 3190, 3381, 3742, 3831, 3917, 3965, 4086, 4231, 4449, 4867, 5026, 5105, 5257, 5379, 5550, 7082, 7236, 7340, 7521, 7680, 7846, 7980, 8064, 8482, 9340, 9423, 9594, 9721, 9846, 9986, 10124, 10565, 10690, 10871, 10992, 11141, 11239, 11289, 11548, 11869, 11977, 12148, 12928, 13047, 13189, 13319, 13464, 13586, 13757, 14120, 14210, 14316, 14461, 17717, 17922, 17995, 18193, 18977, 19156, 19227, 19279, 19397, 20963, 21024, 21139, 21246, 21315, 21437, 23014, 23122, 23389, 23538, 23693, 23778, 25270, 25454, 25554, 25621, 25800, 25896, 26149, 26337, 26409, 26517, 26596, 26700], "trial_type": "free-recall", "conditions": [24, 1600, "a", 24000], "internal_node_id": "0.0-107.0-0.0", "key_presses": [67, 82, 69, 65, 84, 85, 82, 69, 13, 77, 79, 84, 69, 76, 13, 80, 65, 82, 69, 78, 84, 13, 71, 82, 73, 76, 76, 13, 84, 85, 82, 84, 79, 73, 83, 69, 13, 82, 65, 66, 66, 73, 84, 13, 83, 85, 78, 82, 73, 83, 69, 13, 82, 85, 78, 8, 8, 8, 8, 83, 85, 78, 83, 69, 84, 13, 66, 85, 82, 71, 85, 76, 65, 82, 13, 84, 72, 69, 73, 70, 13, 83, 75, 73, 82, 84, 13, 66, 76, 65, 68, 69, 13, 78, 85, 82, 83, 69, 13], "trial": 3, "time_elapsed": 783818, "type": "FREE_RECALL", "trial_index": 143}, "uniqueid": "MTK1637:37U1UTWH9WTAYNAEYFVY96RAXGJ8R6", "dateTime": 1516060054323}, {"current_trial": 144, "trialdata": {"rt": 1668, "trial_type": "text", "internal_node_id": "0.0-108.0", "time_elapsed": 787489, "key_press": 74, "type": "INSTRUCTIONS", "trial_index": 144}, "uniqueid": "MTK1637:37U1UTWH9WTAYNAEYFVY96RAXGJ8R6", "dateTime": 1516060057993}, {"current_trial": 145, "trialdata": {"rt": [2789, 6435, 8615, 10850], "trial_type": "math-distractor", "key_times": [2500, 2594, 2789, 5997, 6186, 6435, 8130, 8440, 8615, 10636, 10850], "responses": ["10", "11", "15", "7"], "num2": [5, 6, 5, 4, 6], "num3": [2, 1, 7, 1, 3], "conditions": [12, 800, "a", 12000], "internal_node_id": "0.0-109.0", "key_presses": [49, 48, 13, 49, 49, 13, 49, 53, 13, 55, 13], "trial": 4, "time_elapsed": 801492, "type": "DISTRACTOR", "trial_index": 145, "num1": [3, 4, 3, 2, 4]}, "uniqueid": "MTK1637:37U1UTWH9WTAYNAEYFVY96RAXGJ8R6", "dateTime": 1516060071996}, {"current_trial": 146, "trialdata": {"rt": -1, "trial_type": "single-stim", "stimulus": "<p id=\"stim\">10</p>", "internal_node_id": "0.0-110.0-0.0", "time_elapsed": 804493, "key_press": -1, "trial_index": 146}, "uniqueid": "MTK1637:37U1UTWH9WTAYNAEYFVY96RAXGJ8R6", "dateTime": 1516060074997}, {"current_trial": 147, "trialdata": {"rt": -1, "trial_type": "single-stim", "stimulus": "<p id=\"stim\">9</p>", "internal_node_id": "0.0-110.0-1.0", "time_elapsed": 805494, "key_press": -1, "trial_index": 147}, "uniqueid": "MTK1637:37U1UTWH9WTAYNAEYFVY96RAXGJ8R6", "dateTime": 1516060075998}, {"current_trial": 148, "trialdata": {"rt": -1, "trial_type": "single-stim", "stimulus": "<p id=\"stim\">8</p>", "internal_node_id": "0.0-110.0-2.0", "time_elapsed": 806495, "key_press": -1, "trial_index": 148}, "uniqueid": "MTK1637:37U1UTWH9WTAYNAEYFVY96RAXGJ8R6", "dateTime": 1516060076999}, {"current_trial": 149, "trialdata": {"rt": -1, "trial_type": "single-stim", "stimulus": "<p id=\"stim\">7</p>", "internal_node_id": "0.0-110.0-3.0", "time_elapsed": 807496, "key_press": -1, "trial_index": 149}, "uniqueid": "MTK1637:37U1UTWH9WTAYNAEYFVY96RAXGJ8R6", "dateTime": 1516060078000}, {"current_trial": 150, "trialdata": {"rt": -1, "trial_type": "single-stim", "stimulus": "<p id=\"stim\">6</p>", "internal_node_id": "0.0-110.0-4.0", "time_elapsed": 808497, "key_press": -1, "trial_index": 150}, "uniqueid": "MTK1637:37U1UTWH9WTAYNAEYFVY96RAXGJ8R6", "dateTime": 1516060079001}, {"current_trial": 151, "trialdata": {"rt": -1, "trial_type": "single-stim", "stimulus": "<p id=\"stim\">5</p>", "internal_node_id": "0.0-110.0-5.0", "time_elapsed": 809498, "key_press": -1, "trial_index": 151}, "uniqueid": "MTK1637:37U1UTWH9WTAYNAEYFVY96RAXGJ8R6", "dateTime": 1516060080002}, {"current_trial": 152, "trialdata": {"rt": -1, "trial_type": "single-stim", "stimulus": "<p id=\"stim\">4</p>", "internal_node_id": "0.0-110.0-6.0", "time_elapsed": 810499, "key_press": -1, "trial_index": 152}, "uniqueid": "MTK1637:37U1UTWH9WTAYNAEYFVY96RAXGJ8R6", "dateTime": 1516060081003}, {"current_trial": 153, "trialdata": {"rt": -1, "trial_type": "single-stim", "stimulus": "<p id=\"stim\">3</p>", "internal_node_id": "0.0-110.0-7.0", "time_elapsed": 811501, "key_press": -1, "trial_index": 153}, "uniqueid": "MTK1637:37U1UTWH9WTAYNAEYFVY96RAXGJ8R6", "dateTime": 1516060082005}, {"current_trial": 154, "trialdata": {"rt": -1, "trial_type": "single-stim", "stimulus": "<p id=\"stim\">2</p>", "internal_node_id": "0.0-110.0-8.0", "time_elapsed": 812503, "key_press": -1, "trial_index": 154}, "uniqueid": "MTK1637:37U1UTWH9WTAYNAEYFVY96RAXGJ8R6", "dateTime": 1516060083007}, {"current_trial": 155, "trialdata": {"rt": -1, "trial_type": "single-stim", "stimulus": "<p id=\"stim\">1</p>", "internal_node_id": "0.0-110.0-9.0", "time_elapsed": 813505, "key_press": -1, "trial_index": 155}, "uniqueid": "MTK1637:37U1UTWH9WTAYNAEYFVY96RAXGJ8R6", "dateTime": 1516060084009}, {"current_trial": 156, "trialdata": {"rt": -1, "trial_type": "single-stim", "stimulus": "<p id=\"stim\">+</p>", "internal_node_id": "0.0-111.0-0.0", "time_elapsed": 815005, "key_press": -1, "type": "FIXATION", "trial_index": 156}, "uniqueid": "MTK1637:37U1UTWH9WTAYNAEYFVY96RAXGJ8R6", "dateTime": 1516060085509}, {"current_trial": 157, "trialdata": {"rt": -1000, "trial_type": "single-audio", "word": "rebel", "stimulus": "/static/audio/wordpool/REBEL.wav", "conditions": [12, 800, "a", 12000], "internal_node_id": "0.0-112.0", "trial": 4, "time_elapsed": 816889, "serialpos": 0, "key_press": -1, "wordID": 1171, "type": "PRES_AUD", "trial_index": 157}, "uniqueid": "MTK1637:37U1UTWH9WTAYNAEYFVY96RAXGJ8R6", "dateTime": 1516060087393}, {"current_trial": 158, "trialdata": {"rt": -1000, "trial_type": "single-audio", "word": "queen", "stimulus": "/static/audio/wordpool/QUEEN.wav", "conditions": [12, 800, "a", 12000], "internal_node_id": "0.0-113.0", "trial": 4, "time_elapsed": 818590, "serialpos": 1, "key_press": -1, "wordID": 1148, "type": "PRES_AUD", "trial_index": 158}, "uniqueid": "MTK1637:37U1UTWH9WTAYNAEYFVY96RAXGJ8R6", "dateTime": 1516060089094}, {"current_trial": 159, "trialdata": {"rt": -1000, "trial_type": "single-audio", "word": "cricket", "stimulus": "/static/audio/wordpool/CRICKET.wav", "conditions": [12, 800, "a", 12000], "internal_node_id": "0.0-114.0", "trial": 4, "time_elapsed": 820290, "serialpos": 2, "key_press": -1, "wordID": 407, "type": "PRES_AUD", "trial_index": 159}, "uniqueid": "MTK1637:37U1UTWH9WTAYNAEYFVY96RAXGJ8R6", "dateTime": 1516060090794}, {"current_trial": 160, "trialdata": {"rt": -1000, "trial_type": "single-audio", "word": "venus", "stimulus": "/static/audio/wordpool/VENUS.wav", "conditions": [12, 800, "a", 12000], "internal_node_id": "0.0-115.0", "trial": 4, "time_elapsed": 821931, "serialpos": 3, "key_press": -1, "wordID": 1556, "type": "PRES_AUD", "trial_index": 160}, "uniqueid": "MTK1637:37U1UTWH9WTAYNAEYFVY96RAXGJ8R6", "dateTime": 1516060092435}, {"current_trial": 161, "trialdata": {"rt": -1000, "trial_type": "single-audio", "word": "princess", "stimulus": "/static/audio/wordpool/PRINCESS.wav", "conditions": [12, 800, "a", 12000], "internal_node_id": "0.0-116.0", "trial": 4, "time_elapsed": 823708, "serialpos": 4, "key_press": -1, "wordID": 1124, "type": "PRES_AUD", "trial_index": 161}, "uniqueid": "MTK1637:37U1UTWH9WTAYNAEYFVY96RAXGJ8R6", "dateTime": 1516060094212}, {"current_trial": 162, "trialdata": {"rt": -1000, "trial_type": "single-audio", "word": "hiker", "stimulus": "/static/audio/wordpool/HIKER.wav", "conditions": [12, 800, "a", 12000], "internal_node_id": "0.0-117.0", "trial": 4, "time_elapsed": 825473, "serialpos": 5, "key_press": -1, "wordID": 707, "type": "PRES_AUD", "trial_index": 162}, "uniqueid": "MTK1637:37U1UTWH9WTAYNAEYFVY96RAXGJ8R6", "dateTime": 1516060095977}, {"current_trial": 163, "trialdata": {"rt": -1000, "trial_type": "single-audio", "word": "goblin", "stimulus": "/static/audio/wordpool/GOBLIN.wav", "conditions": [12, 800, "a", 12000], "internal_node_id": "0.0-118.0", "trial": 4, "time_elapsed": 827289, "serialpos": 6, "key_press": -1, "wordID": 644, "type": "PRES_AUD", "trial_index": 163}, "uniqueid": "MTK1637:37U1UTWH9WTAYNAEYFVY96RAXGJ8R6", "dateTime": 1516060097793}, {"current_trial": 164, "trialdata": {"rt": -1000, "trial_type": "single-audio", "word": "lover", "stimulus": "/static/audio/wordpool/LOVER.wav", "conditions": [12, 800, "a", 12000], "internal_node_id": "0.0-119.0", "trial": 4, "time_elapsed": 829022, "serialpos": 7, "key_press": -1, "wordID": 845, "type": "PRES_AUD", "trial_index": 164}, "uniqueid": "MTK1637:37U1UTWH9WTAYNAEYFVY96RAXGJ8R6", "dateTime": 1516060099526}, {"current_trial": 165, "trialdata": {"rt": -1000, "trial_type": "single-audio", "word": "friend", "stimulus": "/static/audio/wordpool/FRIEND.wav", "conditions": [12, 800, "a", 12000], "internal_node_id": "0.0-120.0", "trial": 4, "time_elapsed": 831004, "serialpos": 8, "key_press": -1, "wordID": 605, "type": "PRES_AUD", "trial_index": 165}, "uniqueid": "MTK1637:37U1UTWH9WTAYNAEYFVY96RAXGJ8R6", "dateTime": 1516060101509}, {"current_trial": 166, "trialdata": {"rt": -1000, "trial_type": "single-audio", "word": "football", "stimulus": "/static/audio/wordpool/FOOTBALL.wav", "conditions": [12, 800, "a", 12000], "internal_node_id": "0.0-121.0", "trial": 4, "time_elapsed": 832889, "serialpos": 9, "key_press": -1, "wordID": 590, "type": "PRES_AUD", "trial_index": 166}, "uniqueid": "MTK1637:37U1UTWH9WTAYNAEYFVY96RAXGJ8R6", "dateTime": 1516060103393}, {"current_trial": 167, "trialdata": {"rt": -1000, "trial_type": "single-audio", "word": "palace", "stimulus": "/static/audio/wordpool/PALACE.wav", "conditions": [12, 800, "a", 12000], "internal_node_id": "0.0-122.0", "trial": 4, "time_elapsed": 834605, "serialpos": 10, "key_press": -1, "wordID": 1005, "type": "PRES_AUD", "trial_index": 167}, "uniqueid": "MTK1637:37U1UTWH9WTAYNAEYFVY96RAXGJ8R6", "dateTime": 1516060105109}, {"current_trial": 168, "trialdata": {"rt": -1000, "trial_type": "single-audio", "word": "lady", "stimulus": "/static/audio/wordpool/LADY.wav", "conditions": [12, 800, "a", 12000], "internal_node_id": "0.0-123.0", "trial": 4, "time_elapsed": 836347, "serialpos": 11, "key_press": -1, "wordID": 793, "type": "PRES_AUD", "trial_index": 168}, "uniqueid": "MTK1637:37U1UTWH9WTAYNAEYFVY96RAXGJ8R6", "dateTime": 1516060106851}, {"current_trial": 169, "trialdata": {"rt": -1, "trial_type": "single-stim", "stimulus": "", "internal_node_id": "0.0-124.0-0.0", "time_elapsed": 837574, "key_press": -1, "type": "PRE_RECALL_DELAY", "trial_index": 169}, "uniqueid": "MTK1637:37U1UTWH9WTAYNAEYFVY96RAXGJ8R6", "dateTime": 1516060108078}, {"current_trial": 170, "trialdata": {"rt": -1000, "trial_type": "single-audio", "stimulus": "/static/audio/400Hz.wav", "internal_node_id": "0.0-125.0", "time_elapsed": 838077, "key_press": -1, "type": "PRE_RECALL_ALERT", "trial_index": 170}, "uniqueid": "MTK1637:37U1UTWH9WTAYNAEYFVY96RAXGJ8R6", "dateTime": 1516060108581}, {"current_trial": 171, "trialdata": {"rt": [1911, 7183, 9132, 11971, 17566, 20176, 47833], "recwords": ["lady", "palace", "friend", "princess", "queen", "football", "venus"], "key_times": [1119, 1235, 1448, 1716, 1911, 2319, 2604, 2719, 2907, 2981, 3687, 3794, 4214, 4407, 4738, 4926, 5119, 5220, 5764, 5882, 6008, 6129, 6405, 6524, 6666, 6784, 6857, 7183, 7805, 8144, 8277, 8367, 8820, 8939, 9132, 10591, 10778, 10881, 10949, 11038, 11117, 11405, 11604, 11971, 12457, 13105, 13584, 14858, 15517, 15864, 16158, 16665, 16911, 17071, 17223, 17566, 18716, 18830, 18957, 19042, 19210, 19310, 19427, 19905, 20176, 47194, 47367, 47455, 47618, 47719, 47833], "trial_type": "free-recall", "conditions": [12, 800, "a", 12000], "internal_node_id": "0.0-126.0-0.0", "key_presses": [76, 65, 68, 89, 13, 80, 65, 76, 67, 69, 8, 8, 8, 8, 76, 65, 67, 69, 8, 8, 8, 8, 65, 76, 65, 67, 69, 13, 70, 82, 73, 69, 78, 68, 13, 80, 82, 73, 78, 67, 69, 83, 83, 13, 81, 69, 8, 78, 8, 78, 8, 85, 69, 69, 78, 13, 70, 79, 79, 84, 66, 65, 76, 76, 13, 86, 69, 78, 85, 83, 13], "trial": 4, "time_elapsed": 898079, "type": "FREE_RECALL", "trial_index": 171}, "uniqueid": "MTK1637:37U1UTWH9WTAYNAEYFVY96RAXGJ8R6", "dateTime": 1516060168585}, {"current_trial": 172, "trialdata": {"rt": 1163, "trial_type": "text", "internal_node_id": "0.0-127.0", "time_elapsed": 901245, "key_press": 71, "type": "INSTRUCTIONS", "trial_index": 172}, "uniqueid": "MTK1637:37U1UTWH9WTAYNAEYFVY96RAXGJ8R6", "dateTime": 1516060171749}, {"current_trial": 173, "trialdata": {"rt": [2486, 4411, 9728], "trial_type": "math-distractor", "key_times": [2300, 2355, 2486, 3994, 4147, 4411, 8831, 9008, 9728, 11419, 11702], "responses": ["12", "10", "20"], "num2": [3, 1, 5, 7], "num3": [6, 8, 8, 4], "conditions": [12, 1600, "a", 12000], "internal_node_id": "0.0-128.0", "key_presses": [49, 50, 13, 49, 48, 13, 50, 48, 13, 49, 54], "trial": 5, "time_elapsed": 915248, "type": "DISTRACTOR", "trial_index": 173, "num1": [3, 1, 7, 5]}, "uniqueid": "MTK1637:37U1UTWH9WTAYNAEYFVY96RAXGJ8R6", "dateTime": 1516060185752}, {"current_trial": 174, "trialdata": {"rt": -1, "trial_type": "single-stim", "stimulus": "<p id=\"stim\">10</p>", "internal_node_id": "0.0-129.0-0.0", "time_elapsed": 918251, "key_press": -1, "trial_index": 174}, "uniqueid": "MTK1637:37U1UTWH9WTAYNAEYFVY96RAXGJ8R6", "dateTime": 1516060188755}, {"current_trial": 175, "trialdata": {"rt": -1, "trial_type": "single-stim", "stimulus": "<p id=\"stim\">9</p>", "internal_node_id": "0.0-129.0-1.0", "time_elapsed": 919253, "key_press": -1, "trial_index": 175}, "uniqueid": "MTK1637:37U1UTWH9WTAYNAEYFVY96RAXGJ8R6", "dateTime": 1516060189757}, {"current_trial": 176, "trialdata": {"rt": -1, "trial_type": "single-stim", "stimulus": "<p id=\"stim\">8</p>", "internal_node_id": "0.0-129.0-2.0", "time_elapsed": 920255, "key_press": -1, "trial_index": 176}, "uniqueid": "MTK1637:37U1UTWH9WTAYNAEYFVY96RAXGJ8R6", "dateTime": 1516060190759}, {"current_trial": 177, "trialdata": {"rt": -1, "trial_type": "single-stim", "stimulus": "<p id=\"stim\">7</p>", "internal_node_id": "0.0-129.0-3.0", "time_elapsed": 921256, "key_press": -1, "trial_index": 177}, "uniqueid": "MTK1637:37U1UTWH9WTAYNAEYFVY96RAXGJ8R6", "dateTime": 1516060191760}, {"current_trial": 178, "trialdata": {"rt": -1, "trial_type": "single-stim", "stimulus": "<p id=\"stim\">6</p>", "internal_node_id": "0.0-129.0-4.0", "time_elapsed": 922257, "key_press": -1, "trial_index": 178}, "uniqueid": "MTK1637:37U1UTWH9WTAYNAEYFVY96RAXGJ8R6", "dateTime": 1516060192761}, {"current_trial": 179, "trialdata": {"rt": -1, "trial_type": "single-stim", "stimulus": "<p id=\"stim\">5</p>", "internal_node_id": "0.0-129.0-5.0", "time_elapsed": 923258, "key_press": -1, "trial_index": 179}, "uniqueid": "MTK1637:37U1UTWH9WTAYNAEYFVY96RAXGJ8R6", "dateTime": 1516060193762}, {"current_trial": 180, "trialdata": {"rt": -1, "trial_type": "single-stim", "stimulus": "<p id=\"stim\">4</p>", "internal_node_id": "0.0-129.0-6.0", "time_elapsed": 924259, "key_press": -1, "trial_index": 180}, "uniqueid": "MTK1637:37U1UTWH9WTAYNAEYFVY96RAXGJ8R6", "dateTime": 1516060194763}, {"current_trial": 181, "trialdata": {"rt": -1, "trial_type": "single-stim", "stimulus": "<p id=\"stim\">3</p>", "internal_node_id": "0.0-129.0-7.0", "time_elapsed": 925260, "key_press": -1, "trial_index": 181}, "uniqueid": "MTK1637:37U1UTWH9WTAYNAEYFVY96RAXGJ8R6", "dateTime": 1516060195764}, {"current_trial": 182, "trialdata": {"rt": -1, "trial_type": "single-stim", "stimulus": "<p id=\"stim\">2</p>", "internal_node_id": "0.0-129.0-8.0", "time_elapsed": 926262, "key_press": -1, "trial_index": 182}, "uniqueid": "MTK1637:37U1UTWH9WTAYNAEYFVY96RAXGJ8R6", "dateTime": 1516060196766}, {"current_trial": 183, "trialdata": {"rt": -1, "trial_type": "single-stim", "stimulus": "<p id=\"stim\">1</p>", "internal_node_id": "0.0-129.0-9.0", "time_elapsed": 927264, "key_press": -1, "trial_index": 183}, "uniqueid": "MTK1637:37U1UTWH9WTAYNAEYFVY96RAXGJ8R6", "dateTime": 1516060197769}, {"current_trial": 184, "trialdata": {"rt": -1, "trial_type": "single-stim", "stimulus": "<p id=\"stim\">+</p>", "internal_node_id": "0.0-130.0-0.0", "time_elapsed": 928766, "key_press": -1, "type": "FIXATION", "trial_index": 184}, "uniqueid": "MTK1637:37U1UTWH9WTAYNAEYFVY96RAXGJ8R6", "dateTime": 1516060199270}, {"current_trial": 185, "trialdata": {"rt": -1000, "trial_type": "single-audio", "word": "lizard", "stimulus": "/static/audio/wordpool/LIZARD.wav", "conditions": [12, 1600, "a", 12000], "internal_node_id": "0.0-131.0", "trial": 5, "time_elapsed": 931405, "serialpos": 0, "key_press": -1, "wordID": 833, "type": "PRES_AUD", "trial_index": 185}, "uniqueid": "MTK1637:37U1UTWH9WTAYNAEYFVY96RAXGJ8R6", "dateTime": 1516060201909}, {"current_trial": 186, "trialdata": {"rt": -1000, "trial_type": "single-audio", "word": "scallop", "stimulus": "/static/audio/wordpool/SCALLOP.wav", "conditions": [12, 1600, "a", 12000], "internal_node_id": "0.0-132.0", "trial": 5, "time_elapsed": 933807, "serialpos": 1, "key_press": -1, "wordID": 1241, "type": "PRES_AUD", "trial_index": 186}, "uniqueid": "MTK1637:37U1UTWH9WTAYNAEYFVY96RAXGJ8R6", "dateTime": 1516060204311}, {"current_trial": 187, "trialdata": {"rt": -1000, "trial_type": "single-audio", "word": "scalpel", "stimulus": "/static/audio/wordpool/SCALPEL.wav", "conditions": [12, 1600, "a", 12000], "internal_node_id": "0.0-133.0", "trial": 5, "time_elapsed": 936228, "serialpos": 2, "key_press": -1, "wordID": 1242, "type": "PRES_AUD", "trial_index": 187}, "uniqueid": "MTK1637:37U1UTWH9WTAYNAEYFVY96RAXGJ8R6", "dateTime": 1516060206732}, {"current_trial": 188, "trialdata": {"rt": -1000, "trial_type": "single-audio", "word": "pork", "stimulus": "/static/audio/wordpool/PORK.wav", "conditions": [12, 1600, "a", 12000], "internal_node_id": "0.0-134.0", "trial": 5, "time_elapsed": 938914, "serialpos": 3, "key_press": -1, "wordID": 1107, "type": "PRES_AUD", "trial_index": 188}, "uniqueid": "MTK1637:37U1UTWH9WTAYNAEYFVY96RAXGJ8R6", "dateTime": 1516060209418}, {"current_trial": 189, "trialdata": {"rt": -1000, "trial_type": "single-audio", "word": "silk", "stimulus": "/static/audio/wordpool/SILK.wav", "conditions": [12, 1600, "a", 12000], "internal_node_id": "0.0-135.0", "trial": 5, "time_elapsed": 941652, "serialpos": 4, "key_press": -1, "wordID": 1306, "type": "PRES_AUD", "trial_index": 189}, "uniqueid": "MTK1637:37U1UTWH9WTAYNAEYFVY96RAXGJ8R6", "dateTime": 1516060212156}, {"current_trial": 190, "trialdata": {"rt": -1000, "trial_type": "single-audio", "word": "treat", "stimulus": "/static/audio/wordpool/TREAT.wav", "conditions": [12, 1600, "a", 12000], "internal_node_id": "0.0-136.0", "trial": 5, "time_elapsed": 944174, "serialpos": 5, "key_press": -1, "wordID": 1500, "type": "PRES_AUD", "trial_index": 190}, "uniqueid": "MTK1637:37U1UTWH9WTAYNAEYFVY96RAXGJ8R6", "dateTime": 1516060214678}, {"current_trial": 191, "trialdata": {"rt": -1000, "trial_type": "single-audio", "word": "chipmunk", "stimulus": "/static/audio/wordpool/CHIPMUNK.wav", "conditions": [12, 1600, "a", 12000], "internal_node_id": "0.0-137.0", "trial": 5, "time_elapsed": 946812, "serialpos": 6, "key_press": -1, "wordID": 303, "type": "PRES_AUD", "trial_index": 191}, "uniqueid": "MTK1637:37U1UTWH9WTAYNAEYFVY96RAXGJ8R6", "dateTime": 1516060217316}, {"current_trial": 192, "trialdata": {"rt": -1000, "trial_type": "single-audio", "word": "window", "stimulus": "/static/audio/wordpool/WINDOW.wav", "conditions": [12, 1600, "a", 12000], "internal_node_id": "0.0-138.0", "trial": 5, "time_elapsed": 949589, "serialpos": 7, "key_press": -1, "wordID": 1610, "type": "PRES_AUD", "trial_index": 192}, "uniqueid": "MTK1637:37U1UTWH9WTAYNAEYFVY96RAXGJ8R6", "dateTime": 1516060220093}, {"current_trial": 193, "trialdata": {"rt": -1000, "trial_type": "single-audio", "word": "crater", "stimulus": "/static/audio/wordpool/CRATER.wav", "conditions": [12, 1600, "a", 12000], "internal_node_id": "0.0-139.0", "trial": 5, "time_elapsed": 952274, "serialpos": 8, "key_press": -1, "wordID": 399, "type": "PRES_AUD", "trial_index": 193}, "uniqueid": "MTK1637:37U1UTWH9WTAYNAEYFVY96RAXGJ8R6", "dateTime": 1516060222779}, {"current_trial": 194, "trialdata": {"rt": -1000, "trial_type": "single-audio", "word": "lava", "stimulus": "/static/audio/wordpool/LAVA.wav", "conditions": [12, 1600, "a", 12000], "internal_node_id": "0.0-140.0", "trial": 5, "time_elapsed": 954942, "serialpos": 9, "key_press": -1, "wordID": 803, "type": "PRES_AUD", "trial_index": 194}, "uniqueid": "MTK1637:37U1UTWH9WTAYNAEYFVY96RAXGJ8R6", "dateTime": 1516060225446}, {"current_trial": 195, "trialdata": {"rt": -1000, "trial_type": "single-audio", "word": "pliers", "stimulus": "/static/audio/wordpool/PLIERS.wav", "conditions": [12, 1600, "a", 12000], "internal_node_id": "0.0-141.0", "trial": 5, "time_elapsed": 957517, "serialpos": 10, "key_press": -1, "wordID": 1088, "type": "PRES_AUD", "trial_index": 195}, "uniqueid": "MTK1637:37U1UTWH9WTAYNAEYFVY96RAXGJ8R6", "dateTime": 1516060228021}, {"current_trial": 196, "trialdata": {"rt": -1000, "trial_type": "single-audio", "word": "taxi", "stimulus": "/static/audio/wordpool/TAXI.wav", "conditions": [12, 1600, "a", 12000], "internal_node_id": "0.0-142.0", "trial": 5, "time_elapsed": 960206, "serialpos": 11, "key_press": -1, "wordID": 1437, "type": "PRES_AUD", "trial_index": 196}, "uniqueid": "MTK1637:37U1UTWH9WTAYNAEYFVY96RAXGJ8R6", "dateTime": 1516060230710}, {"current_trial": 197, "trialdata": {"rt": -1, "trial_type": "single-stim", "stimulus": "", "internal_node_id": "0.0-143.0-0.0", "time_elapsed": 961547, "key_press": -1, "type": "PRE_RECALL_DELAY", "trial_index": 197}, "uniqueid": "MTK1637:37U1UTWH9WTAYNAEYFVY96RAXGJ8R6", "dateTime": 1516060232051}, {"current_trial": 198, "trialdata": {"rt": -1000, "trial_type": "single-audio", "stimulus": "/static/audio/400Hz.wav", "internal_node_id": "0.0-144.0", "time_elapsed": 962048, "key_press": -1, "type": "PRE_RECALL_ALERT", "trial_index": 198}, "uniqueid": "MTK1637:37U1UTWH9WTAYNAEYFVY96RAXGJ8R6", "dateTime": 1516060232552}, {"current_trial": 199, "trialdata": {"rt": [1740, 5410, 7098, 8395, 12313, 17688, 26503, 31637, 52917], "recwords": ["taxi", "pliers", "chipmunk", "window", "lava", "taxi", "crater", "lizard", "plier"], "key_times": [922, 1037, 1226, 1500, 1740, 2123, 2313, 2375, 2514, 2658, 3147, 3276, 3427, 3779, 4433, 4507, 5063, 5410, 5804, 5903, 5986, 6182, 6414, 6646, 6817, 6884, 7098, 7456, 7551, 7652, 7728, 7888, 7989, 8395, 11553, 11678, 11914, 12003, 12313, 16994, 17089, 17359, 17487, 17688, 24882, 24982, 25212, 25649, 25757, 25995, 26069, 26224, 26324, 26431, 26503, 30284, 30383, 30519, 30859, 30973, 31217, 31346, 31497, 31637, 49793, 49965, 50826, 51516, 51583, 52917], "trial_type": "free-recall", "conditions": [12, 1600, "a", 12000], "internal_node_id": "0.0-145.0-0.0", "key_presses": [84, 65, 88, 73, 13, 80, 76, 65, 73, 69, 8, 8, 8, 73, 69, 82, 83, 13, 67, 72, 73, 80, 77, 85, 78, 75, 13, 87, 73, 78, 68, 79, 87, 13, 76, 65, 86, 65, 13, 84, 65, 88, 73, 13, 67, 65, 82, 8, 8, 82, 65, 84, 69, 82, 13, 76, 73, 65, 8, 90, 65, 82, 68, 13, 80, 76, 73, 69, 82, 13], "trial": 5, "time_elapsed": 1022050, "type": "FREE_RECALL", "trial_index": 199}, "uniqueid": "MTK1637:37U1UTWH9WTAYNAEYFVY96RAXGJ8R6", "dateTime": 1516060292556}, {"current_trial": 200, "trialdata": {"rt": 1190, "trial_type": "text", "internal_node_id": "0.0-146.0", "time_elapsed": 1025243, "key_press": 71, "type": "INSTRUCTIONS", "trial_index": 200}, "uniqueid": "MTK1637:37U1UTWH9WTAYNAEYFVY96RAXGJ8R6", "dateTime": 1516060295747}, {"current_trial": 201, "trialdata": {"rt": [5098, 8781, 10686], "trial_type": "math-distractor", "key_times": [4463, 4844, 5098, 8421, 8487, 8781, 10210, 10525, 10686], "responses": ["26", "21", "14"], "num2": [8, 8, 1, 5], "num3": [7, 9, 9, 4], "conditions": [24, 1600, "a", 12000], "internal_node_id": "0.0-147.0", "key_presses": [50, 54, 13, 50, 49, 13, 49, 52, 13], "trial": 6, "time_elapsed": 1039246, "type": "DISTRACTOR", "trial_index": 201, "num1": [9, 4, 4, 3]}, "uniqueid": "MTK1637:37U1UTWH9WTAYNAEYFVY96RAXGJ8R6", "dateTime": 1516060309750}, {"current_trial": 202, "trialdata": {"rt": -1, "trial_type": "single-stim", "stimulus": "<p id=\"stim\">10</p>", "internal_node_id": "0.0-148.0-0.0", "time_elapsed": 1042248, "key_press": -1, "trial_index": 202}, "uniqueid": "MTK1637:37U1UTWH9WTAYNAEYFVY96RAXGJ8R6", "dateTime": 1516060312752}, {"current_trial": 203, "trialdata": {"rt": -1, "trial_type": "single-stim", "stimulus": "<p id=\"stim\">9</p>", "internal_node_id": "0.0-148.0-1.0", "time_elapsed": 1043249, "key_press": -1, "trial_index": 203}, "uniqueid": "MTK1637:37U1UTWH9WTAYNAEYFVY96RAXGJ8R6", "dateTime": 1516060313753}, {"current_trial": 204, "trialdata": {"rt": -1, "trial_type": "single-stim", "stimulus": "<p id=\"stim\">8</p>", "internal_node_id": "0.0-148.0-2.0", "time_elapsed": 1044251, "key_press": -1, "trial_index": 204}, "uniqueid": "MTK1637:37U1UTWH9WTAYNAEYFVY96RAXGJ8R6", "dateTime": 1516060314755}, {"current_trial": 205, "trialdata": {"rt": -1, "trial_type": "single-stim", "stimulus": "<p id=\"stim\">7</p>", "internal_node_id": "0.0-148.0-3.0", "time_elapsed": 1045252, "key_press": -1, "trial_index": 205}, "uniqueid": "MTK1637:37U1UTWH9WTAYNAEYFVY96RAXGJ8R6", "dateTime": 1516060315756}, {"current_trial": 206, "trialdata": {"rt": -1, "trial_type": "single-stim", "stimulus": "<p id=\"stim\">6</p>", "internal_node_id": "0.0-148.0-4.0", "time_elapsed": 1046253, "key_press": -1, "trial_index": 206}, "uniqueid": "MTK1637:37U1UTWH9WTAYNAEYFVY96RAXGJ8R6", "dateTime": 1516060316757}, {"current_trial": 207, "trialdata": {"rt": -1, "trial_type": "single-stim", "stimulus": "<p id=\"stim\">5</p>", "internal_node_id": "0.0-148.0-5.0", "time_elapsed": 1047255, "key_press": -1, "trial_index": 207}, "uniqueid": "MTK1637:37U1UTWH9WTAYNAEYFVY96RAXGJ8R6", "dateTime": 1516060317759}, {"current_trial": 208, "trialdata": {"rt": -1, "trial_type": "single-stim", "stimulus": "<p id=\"stim\">4</p>", "internal_node_id": "0.0-148.0-6.0", "time_elapsed": 1048256, "key_press": -1, "trial_index": 208}, "uniqueid": "MTK1637:37U1UTWH9WTAYNAEYFVY96RAXGJ8R6", "dateTime": 1516060318760}, {"current_trial": 209, "trialdata": {"rt": -1, "trial_type": "single-stim", "stimulus": "<p id=\"stim\">3</p>", "internal_node_id": "0.0-148.0-7.0", "time_elapsed": 1049257, "key_press": -1, "trial_index": 209}, "uniqueid": "MTK1637:37U1UTWH9WTAYNAEYFVY96RAXGJ8R6", "dateTime": 1516060319761}, {"current_trial": 210, "trialdata": {"rt": -1, "trial_type": "single-stim", "stimulus": "<p id=\"stim\">2</p>", "internal_node_id": "0.0-148.0-8.0", "time_elapsed": 1050258, "key_press": -1, "trial_index": 210}, "uniqueid": "MTK1637:37U1UTWH9WTAYNAEYFVY96RAXGJ8R6", "dateTime": 1516060320763}, {"current_trial": 211, "trialdata": {"rt": -1, "trial_type": "single-stim", "stimulus": "<p id=\"stim\">1</p>", "internal_node_id": "0.0-148.0-9.0", "time_elapsed": 1051261, "key_press": -1, "trial_index": 211}, "uniqueid": "MTK1637:37U1UTWH9WTAYNAEYFVY96RAXGJ8R6", "dateTime": 1516060321765}, {"current_trial": 212, "trialdata": {"rt": -1, "trial_type": "single-stim", "stimulus": "<p id=\"stim\">+</p>", "internal_node_id": "0.0-149.0-0.0", "time_elapsed": 1052762, "key_press": -1, "type": "FIXATION", "trial_index": 212}, "uniqueid": "MTK1637:37U1UTWH9WTAYNAEYFVY96RAXGJ8R6", "dateTime": 1516060323266}, {"current_trial": 213, "trialdata": {"rt": -1000, "trial_type": "single-audio", "word": "brook", "stimulus": "/static/audio/wordpool/BROOK.wav", "conditions": [24, 1600, "a", 12000], "internal_node_id": "0.0-150.0", "trial": 6, "time_elapsed": 1055505, "serialpos": 0, "key_press": -1, "wordID": 176, "type": "PRES_AUD", "trial_index": 213}, "uniqueid": "MTK1637:37U1UTWH9WTAYNAEYFVY96RAXGJ8R6", "dateTime": 1516060326009}, {"current_trial": 214, "trialdata": {"rt": -1000, "trial_type": "single-audio", "word": "river", "stimulus": "/static/audio/wordpool/RIVER.wav", "conditions": [24, 1600, "a", 12000], "internal_node_id": "0.0-151.0", "trial": 6, "time_elapsed": 1058274, "serialpos": 1, "key_press": -1, "wordID": 1193, "type": "PRES_AUD", "trial_index": 214}, "uniqueid": "MTK1637:37U1UTWH9WTAYNAEYFVY96RAXGJ8R6", "dateTime": 1516060328778}, {"current_trial": 215, "trialdata": {"rt": -1000, "trial_type": "single-audio", "word": "sponge", "stimulus": "/static/audio/wordpool/SPONGE.wav", "conditions": [24, 1600, "a", 12000], "internal_node_id": "0.0-152.0", "trial": 6, "time_elapsed": 1060949, "serialpos": 2, "key_press": -1, "wordID": 1354, "type": "PRES_AUD", "trial_index": 215}, "uniqueid": "MTK1637:37U1UTWH9WTAYNAEYFVY96RAXGJ8R6", "dateTime": 1516060331453}, {"current_trial": 216, "trialdata": {"rt": -1000, "trial_type": "single-audio", "word": "package", "stimulus": "/static/audio/wordpool/PACKAGE.wav", "conditions": [24, 1600, "a", 12000], "internal_node_id": "0.0-153.0", "trial": 6, "time_elapsed": 1063352, "serialpos": 3, "key_press": -1, "wordID": 996, "type": "PRES_AUD", "trial_index": 216}, "uniqueid": "MTK1637:37U1UTWH9WTAYNAEYFVY96RAXGJ8R6", "dateTime": 1516060333856}, {"current_trial": 217, "trialdata": {"rt": -1000, "trial_type": "single-audio", "word": "donkey", "stimulus": "/static/audio/wordpool/DONKEY.wav", "conditions": [24, 1600, "a", 12000], "internal_node_id": "0.0-154.0", "trial": 6, "time_elapsed": 1065824, "serialpos": 4, "key_press": -1, "wordID": 483, "type": "PRES_AUD", "trial_index": 217}, "uniqueid": "MTK1637:37U1UTWH9WTAYNAEYFVY96RAXGJ8R6", "dateTime": 1516060336328}, {"current_trial": 218, "trialdata": {"rt": -1000, "trial_type": "single-audio", "word": "crown", "stimulus": "/static/audio/wordpool/CROWN.wav", "conditions": [24, 1600, "a", 12000], "internal_node_id": "0.0-155.0", "trial": 6, "time_elapsed": 1068506, "serialpos": 5, "key_press": -1, "wordID": 414, "type": "PRES_AUD", "trial_index": 218}, "uniqueid": "MTK1637:37U1UTWH9WTAYNAEYFVY96RAXGJ8R6", "dateTime": 1516060339010}, {"current_trial": 219, "trialdata": {"rt": -1000, "trial_type": "single-audio", "word": "star", "stimulus": "/static/audio/wordpool/STAR.wav", "conditions": [24, 1600, "a", 12000], "internal_node_id": "0.0-156.0", "trial": 6, "time_elapsed": 1071028, "serialpos": 6, "key_press": -1, "wordID": 1372, "type": "PRES_AUD", "trial_index": 219}, "uniqueid": "MTK1637:37U1UTWH9WTAYNAEYFVY96RAXGJ8R6", "dateTime": 1516060341532}, {"current_trial": 220, "trialdata": {"rt": -1000, "trial_type": "single-audio", "word": "briefcase", "stimulus": "/static/audio/wordpool/BRIEFCASE.wav", "conditions": [24, 1600, "a", 12000], "internal_node_id": "0.0-157.0", "trial": 6, "time_elapsed": 1073675, "serialpos": 7, "key_press": -1, "wordID": 174, "type": "PRES_AUD", "trial_index": 220}, "uniqueid": "MTK1637:37U1UTWH9WTAYNAEYFVY96RAXGJ8R6", "dateTime": 1516060344179}, {"current_trial": 221, "trialdata": {"rt": -1000, "trial_type": "single-audio", "word": "lace", "stimulus": "/static/audio/wordpool/LACE.wav", "conditions": [24, 1600, "a", 12000], "internal_node_id": "0.0-158.0", "trial": 6, "time_elapsed": 1076325, "serialpos": 8, "key_press": -1, "wordID": 791, "type": "PRES_AUD", "trial_index": 221}, "uniqueid": "MTK1637:37U1UTWH9WTAYNAEYFVY96RAXGJ8R6", "dateTime": 1516060346829}, {"current_trial": 222, "trialdata": {"rt": -1000, "trial_type": "single-audio", "word": "camel", "stimulus": "/static/audio/wordpool/CAMEL.wav", "conditions": [24, 1600, "a", 12000], "internal_node_id": "0.0-159.0", "trial": 6, "time_elapsed": 1078774, "serialpos": 9, "key_press": -1, "wordID": 222, "type": "PRES_AUD", "trial_index": 222}, "uniqueid": "MTK1637:37U1UTWH9WTAYNAEYFVY96RAXGJ8R6", "dateTime": 1516060349278}, {"current_trial": 223, "trialdata": {"rt": -1000, "trial_type": "single-audio", "word": "bike", "stimulus": "/static/audio/wordpool/BIKE.wav", "conditions": [24, 1600, "a", 12000], "internal_node_id": "0.0-160.0", "trial": 6, "time_elapsed": 1081255, "serialpos": 10, "key_press": -1, "wordID": 124, "type": "PRES_AUD", "trial_index": 223}, "uniqueid": "MTK1637:37U1UTWH9WTAYNAEYFVY96RAXGJ8R6", "dateTime": 1516060351760}, {"current_trial": 224, "trialdata": {"rt": -1000, "trial_type": "single-audio", "word": "eyelash", "stimulus": "/static/audio/wordpool/EYELASH.wav", "conditions": [24, 1600, "a", 12000], "internal_node_id": "0.0-161.0", "trial": 6, "time_elapsed": 1083706, "serialpos": 11, "key_press": -1, "wordID": 545, "type": "PRES_AUD", "trial_index": 224}, "uniqueid": "MTK1637:37U1UTWH9WTAYNAEYFVY96RAXGJ8R6", "dateTime": 1516060354210}, {"current_trial": 225, "trialdata": {"rt": -1000, "trial_type": "single-audio", "word": "clock", "stimulus": "/static/audio/wordpool/CLOCK.wav", "conditions": [24, 1600, "a", 12000], "internal_node_id": "0.0-162.0", "trial": 6, "time_elapsed": 1086375, "serialpos": 12, "key_press": -1, "wordID": 324, "type": "PRES_AUD", "trial_index": 225}, "uniqueid": "MTK1637:37U1UTWH9WTAYNAEYFVY96RAXGJ8R6", "dateTime": 1516060356879}, {"current_trial": 226, "trialdata": {"rt": -1000, "trial_type": "single-audio", "word": "pigeon", "stimulus": "/static/audio/wordpool/PIGEON.wav", "conditions": [24, 1600, "a", 12000], "internal_node_id": "0.0-163.0", "trial": 6, "time_elapsed": 1088974, "serialpos": 13, "key_press": -1, "wordID": 1064, "type": "PRES_AUD", "trial_index": 226}, "uniqueid": "MTK1637:37U1UTWH9WTAYNAEYFVY96RAXGJ8R6", "dateTime": 1516060359478}, {"current_trial": 227, "trialdata": {"rt": -1000, "trial_type": "single-audio", "word": "plaid", "stimulus": "/static/audio/wordpool/PLAID.wav", "conditions": [24, 1600, "a", 12000], "internal_node_id": "0.0-164.0", "trial": 6, "time_elapsed": 1091505, "serialpos": 14, "key_press": -1, "wordID": 1079, "type": "PRES_AUD", "trial_index": 227}, "uniqueid": "MTK1637:37U1UTWH9WTAYNAEYFVY96RAXGJ8R6", "dateTime": 1516060362009}, {"current_trial": 228, "trialdata": {"rt": -1000, "trial_type": "single-audio", "word": "velvet", "stimulus": "/static/audio/wordpool/VELVET.wav", "conditions": [24, 1600, "a", 12000], "internal_node_id": "0.0-165.0", "trial": 6, "time_elapsed": 1094241, "serialpos": 15, "key_press": -1, "wordID": 1554, "type": "PRES_AUD", "trial_index": 228}, "uniqueid": "MTK1637:37U1UTWH9WTAYNAEYFVY96RAXGJ8R6", "dateTime": 1516060364745}, {"current_trial": 229, "trialdata": {"rt": -1000, "trial_type": "single-audio", "word": "fox", "stimulus": "/static/audio/wordpool/FOX.wav", "conditions": [24, 1600, "a", 12000], "internal_node_id": "0.0-166.0", "trial": 6, "time_elapsed": 1096676, "serialpos": 16, "key_press": -1, "wordID": 597, "type": "PRES_AUD", "trial_index": 229}, "uniqueid": "MTK1637:37U1UTWH9WTAYNAEYFVY96RAXGJ8R6", "dateTime": 1516060367180}, {"current_trial": 230, "trialdata": {"rt": -1000, "trial_type": "single-audio", "word": "seal", "stimulus": "/static/audio/wordpool/SEAL.wav", "conditions": [24, 1600, "a", 12000], "internal_node_id": "0.0-167.0", "trial": 6, "time_elapsed": 1099474, "serialpos": 17, "key_press": -1, "wordID": 1261, "type": "PRES_AUD", "trial_index": 230}, "uniqueid": "MTK1637:37U1UTWH9WTAYNAEYFVY96RAXGJ8R6", "dateTime": 1516060369978}, {"current_trial": 231, "trialdata": {"rt": -1000, "trial_type": "single-audio", "word": "husband", "stimulus": "/static/audio/wordpool/HUSBAND.wav", "conditions": [24, 1600, "a", 12000], "internal_node_id": "0.0-168.0", "trial": 6, "time_elapsed": 1102167, "serialpos": 18, "key_press": -1, "wordID": 727, "type": "PRES_AUD", "trial_index": 231}, "uniqueid": "MTK1637:37U1UTWH9WTAYNAEYFVY96RAXGJ8R6", "dateTime": 1516060372671}, {"current_trial": 232, "trialdata": {"rt": -1000, "trial_type": "single-audio", "word": "hero", "stimulus": "/static/audio/wordpool/HERO.wav", "conditions": [24, 1600, "a", 12000], "internal_node_id": "0.0-169.0", "trial": 6, "time_elapsed": 1104789, "serialpos": 19, "key_press": -1, "wordID": 705, "type": "PRES_AUD", "trial_index": 232}, "uniqueid": "MTK1637:37U1UTWH9WTAYNAEYFVY96RAXGJ8R6", "dateTime": 1516060375293}, {"current_trial": 233, "trialdata": {"rt": -1000, "trial_type": "single-audio", "word": "cocoon", "stimulus": "/static/audio/wordpool/COCOON.wav", "conditions": [24, 1600, "a", 12000], "internal_node_id": "0.0-170.0", "trial": 6, "time_elapsed": 1107474, "serialpos": 20, "key_press": -1, "wordID": 338, "type": "PRES_AUD", "trial_index": 233}, "uniqueid": "MTK1637:37U1UTWH9WTAYNAEYFVY96RAXGJ8R6", "dateTime": 1516060377978}, {"current_trial": 234, "trialdata": {"rt": -1000, "trial_type": "single-audio", "word": "ghetto", "stimulus": "/static/audio/wordpool/GHETTO.wav", "conditions": [24, 1600, "a", 12000], "internal_node_id": "0.0-171.0", "trial": 6, "time_elapsed": 1110122, "serialpos": 21, "key_press": -1, "wordID": 632, "type": "PRES_AUD", "trial_index": 234}, "uniqueid": "MTK1637:37U1UTWH9WTAYNAEYFVY96RAXGJ8R6", "dateTime": 1516060380626}, {"current_trial": 235, "trialdata": {"rt": -1000, "trial_type": "single-audio", "word": "bathtub", "stimulus": "/static/audio/wordpool/BATHTUB.wav", "conditions": [24, 1600, "a", 12000], "internal_node_id": "0.0-172.0", "trial": 6, "time_elapsed": 1112574, "serialpos": 22, "key_press": -1, "wordID": 99, "type": "PRES_AUD", "trial_index": 235}, "uniqueid": "MTK1637:37U1UTWH9WTAYNAEYFVY96RAXGJ8R6", "dateTime": 1516060383078}, {"current_trial": 236, "trialdata": {"rt": -1000, "trial_type": "single-audio", "word": "raft", "stimulus": "/static/audio/wordpool/RAFT.wav", "conditions": [24, 1600, "a", 12000], "internal_node_id": "0.0-173.0", "trial": 6, "time_elapsed": 1115074, "serialpos": 23, "key_press": -1, "wordID": 1158, "type": "PRES_AUD", "trial_index": 236}, "uniqueid": "MTK1637:37U1UTWH9WTAYNAEYFVY96RAXGJ8R6", "dateTime": 1516060385579}, {"current_trial": 237, "trialdata": {"rt": -1, "trial_type": "single-stim", "stimulus": "", "internal_node_id": "0.0-174.0-0.0", "time_elapsed": 1116374, "key_press": -1, "type": "PRE_RECALL_DELAY", "trial_index": 237}, "uniqueid": "MTK1637:37U1UTWH9WTAYNAEYFVY96RAXGJ8R6", "dateTime": 1516060386878}, {"current_trial": 238, "trialdata": {"rt": -1000, "trial_type": "single-audio", "stimulus": "/static/audio/400Hz.wav", "internal_node_id": "0.0-175.0", "time_elapsed": 1116875, "key_press": -1, "type": "PRE_RECALL_ALERT", "trial_index": 238}, "uniqueid": "MTK1637:37U1UTWH9WTAYNAEYFVY96RAXGJ8R6", "dateTime": 1516060387379}, {"current_trial": 239, "trialdata": {"rt": [2589, 7625, 10966, 19155, 20413, 21554, 23247, 24228, 38192, 38941, 52235], "recwords": ["raft", "husband", "bathtub", "river", "brook", "donkey", "crown", "star", "husband", "hero", "cocoon"], "key_times": [1255, 1337, 1792, 2124, 2589, 3388, 3581, 3735, 4575, 4676, 5654, 5819, 6292, 6418, 6538, 6645, 7625, 8616, 9013, 9227, 9323, 10418, 10515, 10693, 10966, 18317, 18434, 18561, 18793, 18865, 19155, 19442, 19685, 19913, 20058, 20193, 20413, 20621, 20711, 20822, 21012, 21165, 21333, 21554, 22594, 22836, 22924, 23018, 23086, 23247, 23418, 23518, 23663, 23724, 24228, 36512, 36693, 36872, 37709, 37830, 37936, 38034, 38192, 38467, 38576, 38644, 38738, 38941, 50394, 50810, 51080, 51246, 51566, 51802, 51940, 52064, 52235], "trial_type": "free-recall", "conditions": [24, 1600, "a", 12000], "internal_node_id": "0.0-176.0-0.0", "key_presses": [82, 65, 70, 84, 13, 72, 85, 83, 66, 65, 8, 8, 66, 65, 78, 68, 13, 66, 65, 84, 72, 84, 85, 66, 13, 82, 73, 86, 69, 82, 13, 66, 82, 79, 79, 75, 13, 68, 79, 78, 75, 69, 89, 13, 67, 82, 79, 87, 78, 13, 83, 84, 65, 82, 13, 72, 85, 83, 66, 65, 78, 68, 13, 72, 69, 82, 79, 13, 67, 79, 67, 67, 8, 79, 79, 78, 13], "trial": 6, "time_elapsed": 1176877, "type": "FREE_RECALL", "trial_index": 239}, "uniqueid": "MTK1637:37U1UTWH9WTAYNAEYFVY96RAXGJ8R6", "dateTime": 1516060447384}, {"current_trial": 240, "trialdata": {"rt": 2623, "trial_type": "text", "internal_node_id": "0.0-177.0", "time_elapsed": 1181504, "key_press": 74, "type": "INSTRUCTIONS", "trial_index": 240}, "uniqueid": "MTK1637:37U1UTWH9WTAYNAEYFVY96RAXGJ8R6", "dateTime": 1516060452008}, {"current_trial": 241, "trialdata": {"rt": [2579, 4922, 10397, 11883, 13812, 17993, 20932, 22907], "trial_type": "math-distractor", "key_times": [1792, 1917, 2579, 4308, 4649, 4922, 8625, 9027, 10397, 11600, 11706, 11883, 13231, 13643, 13812, 17780, 17830, 17993, 20596, 20786, 20932, 22438, 22721, 22907], "responses": ["10", "16", "25", "21", "16", "21", "22", "18"], "num2": [7, 8, 8, 8, 8, 9, 7, 8, 8], "num3": [2, 2, 8, 8, 1, 5, 8, 3, 5], "conditions": [12, 1600, "a", 24000], "internal_node_id": "0.0-178.0", "key_presses": [49, 48, 13, 49, 54, 13, 50, 53, 13, 50, 49, 13, 49, 54, 13, 50, 49, 13, 50, 50, 13, 49, 56, 13], "trial": 7, "time_elapsed": 1207508, "type": "DISTRACTOR", "trial_index": 241, "num1": [1, 6, 9, 5, 7, 7, 7, 7, 7]}, "uniqueid": "MTK1637:37U1UTWH9WTAYNAEYFVY96RAXGJ8R6", "dateTime": 1516060478013}, {"current_trial": 242, "trialdata": {"rt": -1, "trial_type": "single-stim", "stimulus": "<p id=\"stim\">10</p>", "internal_node_id": "0.0-179.0-0.0", "time_elapsed": 1210511, "key_press": -1, "trial_index": 242}, "uniqueid": "MTK1637:37U1UTWH9WTAYNAEYFVY96RAXGJ8R6", "dateTime": 1516060481015}, {"current_trial": 243, "trialdata": {"rt": -1, "trial_type": "single-stim", "stimulus": "<p id=\"stim\">9</p>", "internal_node_id": "0.0-179.0-1.0", "time_elapsed": 1211512, "key_press": -1, "trial_index": 243}, "uniqueid": "MTK1637:37U1UTWH9WTAYNAEYFVY96RAXGJ8R6", "dateTime": 1516060482016}, {"current_trial": 244, "trialdata": {"rt": -1, "trial_type": "single-stim", "stimulus": "<p id=\"stim\">8</p>", "internal_node_id": "0.0-179.0-2.0", "time_elapsed": 1212514, "key_press": -1, "trial_index": 244}, "uniqueid": "MTK1637:37U1UTWH9WTAYNAEYFVY96RAXGJ8R6", "dateTime": 1516060483018}, {"current_trial": 245, "trialdata": {"rt": -1, "trial_type": "single-stim", "stimulus": "<p id=\"stim\">7</p>", "internal_node_id": "0.0-179.0-3.0", "time_elapsed": 1213515, "key_press": -1, "trial_index": 245}, "uniqueid": "MTK1637:37U1UTWH9WTAYNAEYFVY96RAXGJ8R6", "dateTime": 1516060484019}, {"current_trial": 246, "trialdata": {"rt": -1, "trial_type": "single-stim", "stimulus": "<p id=\"stim\">6</p>", "internal_node_id": "0.0-179.0-4.0", "time_elapsed": 1214517, "key_press": -1, "trial_index": 246}, "uniqueid": "MTK1637:37U1UTWH9WTAYNAEYFVY96RAXGJ8R6", "dateTime": 1516060485021}, {"current_trial": 247, "trialdata": {"rt": -1, "trial_t