{"assignmentId": "3H7Z272LX8EK1HEIFC0D9GD1GN0LPX", "workerId": "MTK1786", "questiondata": {"origin": "United States", "strat-rehearsal": "77", "marital": "Single", "education": "Master's degree", "ethnicity": "Not Hispanic", "color_depth": 24, "distracted": "No", "wrote-notes": "No", "strat-other": "", "screen_width": 1920, "avail_screen_width": 1920, "avail_screen_height": 1040, "strat-image": "76", "language": "English", "gender": "Female", "age": "39", "gender_other": "", "race": ["White"], "strat-categorize": "48", "pixel_depth": 24, "strat-spatial": "0", "strat-story": "0", "race_other": "", "screen_height": 1080}, "bonus": 0, "hitId": "30Y6N4AHYP3KSY8BPL1C6E9RQ0ZRD7", "counterbalance": 72, "useragent": "Mozilla/5.0 (Windows NT 10.0; Win64; x64) AppleWebKit/537.36 (KHTML, like Gecko) Chrome/63.0.3239.132 Safari/537.36", "eventdata": [{"eventtype": "initialized", "interval": 0, "value": null, "timestamp": 1516298929332}, {"eventtype": "window_resize", "interval": 0, "value": [1920, 1033], "timestamp": 1516298929332}], "data": [{"current_trial": 0, "trialdata": {"rt": 5131, "trial_type": "text", "internal_node_id": "0.0-0.0", "time_elapsed": 5138, "key_press": 32, "type": "INSTRUCTIONS", "trial_index": 0}, "uniqueid": "MTK1786:3H7Z272LX8EK1HEIFC0D9GD1GN0LPX", "dateTime": 1516298935328}, {"current_trial": 1, "trialdata": {"rt": 37163, "trial_type": "text", "internal_node_id": "0.0-1.0", "time_elapsed": 42308, "key_press": 32, "type": "INSTRUCTIONS", "trial_index": 1}, "uniqueid": "MTK1786:3H7Z272LX8EK1HEIFC0D9GD1GN0LPX", "dateTime": 1516298972497}, {"current_trial": 2, "trialdata": {"rt": [15845], "trial_type": "audio-test", "responses": ["ocean"], "internal_node_id": "0.0-2.0", "time_elapsed": 58188, "type": "AUDIO_TEST", "trial_index": 2}, "uniqueid": "MTK1786:3H7Z272LX8EK1HEIFC0D9GD1GN0LPX", "dateTime": 1516298988376}, {"current_trial": 3, "trialdata": {"rt": [10880], "trial_type": "audio-test", "responses": ["crystal"], "internal_node_id": "0.0-3.0", "time_elapsed": 69075, "type": "AUDIO_TEST", "trial_index": 3}, "uniqueid": "MTK1786:3H7Z272LX8EK1HEIFC0D9GD1GN0LPX", "dateTime": 1516298999264}, {"current_trial": 4, "trialdata": {"rt": [9088], "trial_type": "audio-test", "responses": ["spice"], "internal_node_id": "0.0-4.0", "time_elapsed": 78171, "type": "AUDIO_TEST", "trial_index": 4}, "uniqueid": "MTK1786:3H7Z272LX8EK1HEIFC0D9GD1GN0LPX", "dateTime": 1516299008359}, {"current_trial": 5, "trialdata": {"rt": 40988, "trial_type": "survey-text", "responses": "{\"Q0\":\"2:00am\",\"Q1\":\"10:30am\",\"Q2\":\"5\"}", "internal_node_id": "0.0-5.0", "time_elapsed": 119924, "type": "SLEEP_SURVEY", "trial_index": 5}, "uniqueid": "MTK1786:3H7Z272LX8EK1HEIFC0D9GD1GN0LPX", "dateTime": 1516299050112}, {"current_trial": 6, "trialdata": {"rt": 86678, "trial_type": "text", "internal_node_id": "0.0-6.0", "time_elapsed": 207606, "key_press": 32, "type": "INSTRUCTIONS", "trial_index": 6}, "uniqueid": "MTK1786:3H7Z272LX8EK1HEIFC0D9GD1GN0LPX", "dateTime": 1516299137794}, {"current_trial": 7, "trialdata": {"rt": 29032, "trial_type": "text", "internal_node_id": "0.0-7.0", "time_elapsed": 237140, "key_press": 32, "type": "INSTRUCTIONS", "trial_index": 7}, "uniqueid": "MTK1786:3H7Z272LX8EK1HEIFC0D9GD1GN0LPX", "dateTime": 1516299167329}, {"current_trial": 8, "trialdata": {"rt": 19184, "trial_type": "text", "internal_node_id": "0.0-8.0", "time_elapsed": 256829, "key_press": 32, "type": "INSTRUCTIONS", "trial_index": 8}, "uniqueid": "MTK1786:3H7Z272LX8EK1HEIFC0D9GD1GN0LPX", "dateTime": 1516299187017}, {"current_trial": 9, "trialdata": {"rt": [5491, 8859, 13499, 16739], "trial_type": "math-distractor", "key_times": [4309, 4548, 5491, 7772, 7988, 8859, 12485, 12724, 13499, 15620, 15828, 16739], "responses": ["24", "12", "16", "15"], "num2": [9, 1, 5, 8, 2], "num3": [6, 4, 9, 5, 9], "conditions": [18, 1200, "v", 18000], "internal_node_id": "0.0-9.0", "key_presses": [98, 100, 13, 97, 98, 13, 97, 102, 13, 97, 101, 13], "trial": 0, "time_elapsed": 275841, "type": "DISTRACTOR", "trial_index": 9, "num1": [9, 7, 2, 2, 6]}, "uniqueid": "MTK1786:3H7Z272LX8EK1HEIFC0D9GD1GN0LPX", "dateTime": 1516299206029}, {"current_trial": 10, "trialdata": {"rt": -1, "trial_type": "single-stim", "stimulus": "<p id=\"stim\">10</p>", "internal_node_id": "0.0-10.0-0.0", "time_elapsed": 278847, "key_press": -1, "trial_index": 10}, "uniqueid": "MTK1786:3H7Z272LX8EK1HEIFC0D9GD1GN0LPX", "dateTime": 1516299209035}, {"current_trial": 11, "trialdata": {"rt": -1, "trial_type": "single-stim", "stimulus": "<p id=\"stim\">9</p>", "internal_node_id": "0.0-10.0-1.0", "time_elapsed": 279850, "key_press": -1, "trial_index": 11}, "uniqueid": "MTK1786:3H7Z272LX8EK1HEIFC0D9GD1GN0LPX", "dateTime": 1516299210039}, {"current_trial": 12, "trialdata": {"rt": -1, "trial_type": "single-stim", "stimulus": "<p id=\"stim\">8</p>", "internal_node_id": "0.0-10.0-2.0", "time_elapsed": 280853, "key_press": -1, "trial_index": 12}, "uniqueid": "MTK1786:3H7Z272LX8EK1HEIFC0D9GD1GN0LPX", "dateTime": 1516299211041}, {"current_trial": 13, "trialdata": {"rt": -1, "trial_type": "single-stim", "stimulus": "<p id=\"stim\">7</p>", "internal_node_id": "0.0-10.0-3.0", "time_elapsed": 281857, "key_press": -1, "trial_index": 13}, "uniqueid": "MTK1786:3H7Z272LX8EK1HEIFC0D9GD1GN0LPX", "dateTime": 1516299212045}, {"current_trial": 14, "trialdata": {"rt": -1, "trial_type": "single-stim", "stimulus": "<p id=\"stim\">6</p>", "internal_node_id": "0.0-10.0-4.0", "time_elapsed": 282865, "key_press": -1, "trial_index": 14}, "uniqueid": "MTK1786:3H7Z272LX8EK1HEIFC0D9GD1GN0LPX", "dateTime": 1516299213053}, {"current_trial": 15, "trialdata": {"rt": -1, "trial_type": "single-stim", "stimulus": "<p id=\"stim\">5</p>", "internal_node_id": "0.0-10.0-5.0", "time_elapsed": 283868, "key_press": -1, "trial_index": 15}, "uniqueid": "MTK1786:3H7Z272LX8EK1HEIFC0D9GD1GN0LPX", "dateTime": 1516299214056}, {"current_trial": 16, "trialdata": {"rt": -1, "trial_type": "single-stim", "stimulus": "<p id=\"stim\">4</p>", "internal_node_id": "0.0-10.0-6.0", "time_elapsed": 284871, "key_press": -1, "trial_index": 16}, "uniqueid": "MTK1786:3H7Z272LX8EK1HEIFC0D9GD1GN0LPX", "dateTime": 1516299215059}, {"current_trial": 17, "trialdata": {"rt": -1, "trial_type": "single-stim", "stimulus": "<p id=\"stim\">3</p>", "internal_node_id": "0.0-10.0-7.0", "time_elapsed": 285880, "key_press": -1, "trial_index": 17}, "uniqueid": "MTK1786:3H7Z272LX8EK1HEIFC0D9GD1GN0LPX", "dateTime": 1516299216068}, {"current_trial": 18, "trialdata": {"rt": -1, "trial_type": "single-stim", "stimulus": "<p id=\"stim\">2</p>", "internal_node_id": "0.0-10.0-8.0", "time_elapsed": 286883, "key_press": -1, "trial_index": 18}, "uniqueid": "MTK1786:3H7Z272LX8EK1HEIFC0D9GD1GN0LPX", "dateTime": 1516299217071}, {"current_trial": 19, "trialdata": {"rt": -1, "trial_type": "single-stim", "stimulus": "<p id=\"stim\">1</p>", "internal_node_id": "0.0-10.0-9.0", "time_elapsed": 287885, "key_press": -1, "trial_index": 19}, "uniqueid": "MTK1786:3H7Z272LX8EK1HEIFC0D9GD1GN0LPX", "dateTime": 1516299218073}, {"current_trial": 20, "trialdata": {"rt": -1, "trial_type": "single-stim", "stimulus": "<p id=\"stim\">+</p>", "internal_node_id": "0.0-11.0-0.0", "time_elapsed": 289387, "key_press": -1, "type": "FIXATION", "trial_index": 20}, "uniqueid": "MTK1786:3H7Z272LX8EK1HEIFC0D9GD1GN0LPX", "dateTime": 1516299219576}, {"current_trial": 21, "trialdata": {"rt": -1, "trial_type": "single-stim", "word": "wife", "stimulus": "<p id=\"stim\">WIFE</p>", "conditions": [18, 1200, "v", 18000], "internal_node_id": "0.0-12.0", "trial": 0, "time_elapsed": 290591, "serialpos": 0, "key_press": -1, "wordID": 1608, "type": "PRES_VIS", "trial_index": 21}, "uniqueid": "MTK1786:3H7Z272LX8EK1HEIFC0D9GD1GN0LPX", "dateTime": 1516299220779}, {"current_trial": 22, "trialdata": {"rt": -1, "trial_type": "single-stim", "word": "treat", "stimulus": "<p id=\"stim\">TREAT</p>", "conditions": [18, 1200, "v", 18000], "internal_node_id": "0.0-13.0", "trial": 0, "time_elapsed": 292904, "serialpos": 1, "key_press": -1, "wordID": 1500, "type": "PRES_VIS", "trial_index": 22}, "uniqueid": "MTK1786:3H7Z272LX8EK1HEIFC0D9GD1GN0LPX", "dateTime": 1516299223093}, {"current_trial": 23, "trialdata": {"rt": -1, "trial_type": "single-stim", "word": "stone", "stimulus": "<p id=\"stim\">STONE</p>", "conditions": [18, 1200, "v", 18000], "internal_node_id": "0.0-14.0", "trial": 0, "time_elapsed": 295272, "serialpos": 2, "key_press": -1, "wordID": 1384, "type": "PRES_VIS", "trial_index": 23}, "uniqueid": "MTK1786:3H7Z272LX8EK1HEIFC0D9GD1GN0LPX", "dateTime": 1516299225461}, {"current_trial": 24, "trialdata": {"rt": -1, "trial_type": "single-stim", "word": "venus", "stimulus": "<p id=\"stim\">VENUS</p>", "conditions": [18, 1200, "v", 18000], "internal_node_id": "0.0-15.0", "trial": 0, "time_elapsed": 297483, "serialpos": 3, "key_press": -1, "wordID": 1556, "type": "PRES_VIS", "trial_index": 24}, "uniqueid": "MTK1786:3H7Z272LX8EK1HEIFC0D9GD1GN0LPX", "dateTime": 1516299227671}, {"current_trial": 25, "trialdata": {"rt": -1, "trial_type": "single-stim", "word": "rabbit", "stimulus": "<p id=\"stim\">RABBIT</p>", "conditions": [18, 1200, "v", 18000], "internal_node_id": "0.0-16.0", "trial": 0, "time_elapsed": 299605, "serialpos": 4, "key_press": -1, "wordID": 1151, "type": "PRES_VIS", "trial_index": 25}, "uniqueid": "MTK1786:3H7Z272LX8EK1HEIFC0D9GD1GN0LPX", "dateTime": 1516299229794}, {"current_trial": 26, "trialdata": {"rt": -1, "trial_type": "single-stim", "word": "gymnast", "stimulus": "<p id=\"stim\">GYMNAST</p>", "conditions": [18, 1200, "v", 18000], "internal_node_id": "0.0-17.0", "trial": 0, "time_elapsed": 301733, "serialpos": 5, "key_press": -1, "wordID": 674, "type": "PRES_VIS", "trial_index": 26}, "uniqueid": "MTK1786:3H7Z272LX8EK1HEIFC0D9GD1GN0LPX", "dateTime": 1516299231921}, {"current_trial": 27, "trialdata": {"rt": -1, "trial_type": "single-stim", "word": "scarf", "stimulus": "<p id=\"stim\">SCARF</p>", "conditions": [18, 1200, "v", 18000], "internal_node_id": "0.0-18.0", "trial": 0, "time_elapsed": 303932, "serialpos": 6, "key_press": -1, "wordID": 1245, "type": "PRES_VIS", "trial_index": 27}, "uniqueid": "MTK1786:3H7Z272LX8EK1HEIFC0D9GD1GN0LPX", "dateTime": 1516299234120}, {"current_trial": 28, "trialdata": {"rt": -1, "trial_type": "single-stim", "word": "switch", "stimulus": "<p id=\"stim\">SWITCH</p>", "conditions": [18, 1200, "v", 18000], "internal_node_id": "0.0-19.0", "trial": 0, "time_elapsed": 306015, "serialpos": 7, "key_press": -1, "wordID": 1421, "type": "PRES_VIS", "trial_index": 28}, "uniqueid": "MTK1786:3H7Z272LX8EK1HEIFC0D9GD1GN0LPX", "dateTime": 1516299236203}, {"current_trial": 29, "trialdata": {"rt": -1, "trial_type": "single-stim", "word": "office", "stimulus": "<p id=\"stim\">OFFICE</p>", "conditions": [18, 1200, "v", 18000], "internal_node_id": "0.0-20.0", "trial": 0, "time_elapsed": 308347, "serialpos": 8, "key_press": -1, "wordID": 971, "type": "PRES_VIS", "trial_index": 29}, "uniqueid": "MTK1786:3H7Z272LX8EK1HEIFC0D9GD1GN0LPX", "dateTime": 1516299238535}, {"current_trial": 30, "trialdata": {"rt": -1, "trial_type": "single-stim", "word": "tweezers", "stimulus": "<p id=\"stim\">TWEEZERS</p>", "conditions": [18, 1200, "v", 18000], "internal_node_id": "0.0-21.0", "trial": 0, "time_elapsed": 310460, "serialpos": 9, "key_press": -1, "wordID": 1525, "type": "PRES_VIS", "trial_index": 30}, "uniqueid": "MTK1786:3H7Z272LX8EK1HEIFC0D9GD1GN0LPX", "dateTime": 1516299240649}, {"current_trial": 31, "trialdata": {"rt": -1, "trial_type": "single-stim", "word": "label", "stimulus": "<p id=\"stim\">LABEL</p>", "conditions": [18, 1200, "v", 18000], "internal_node_id": "0.0-22.0", "trial": 0, "time_elapsed": 312687, "serialpos": 10, "key_press": -1, "wordID": 789, "type": "PRES_VIS", "trial_index": 31}, "uniqueid": "MTK1786:3H7Z272LX8EK1HEIFC0D9GD1GN0LPX", "dateTime": 1516299242875}, {"current_trial": 32, "trialdata": {"rt": -1, "trial_type": "single-stim", "word": "package", "stimulus": "<p id=\"stim\">PACKAGE</p>", "conditions": [18, 1200, "v", 18000], "internal_node_id": "0.0-23.0", "trial": 0, "time_elapsed": 314857, "serialpos": 11, "key_press": -1, "wordID": 996, "type": "PRES_VIS", "trial_index": 32}, "uniqueid": "MTK1786:3H7Z272LX8EK1HEIFC0D9GD1GN0LPX", "dateTime": 1516299245045}, {"current_trial": 33, "trialdata": {"rt": -1, "trial_type": "single-stim", "word": "casket", "stimulus": "<p id=\"stim\">CASKET</p>", "conditions": [18, 1200, "v", 18000], "internal_node_id": "0.0-24.0", "trial": 0, "time_elapsed": 317243, "serialpos": 12, "key_press": -1, "wordID": 254, "type": "PRES_VIS", "trial_index": 33}, "uniqueid": "MTK1786:3H7Z272LX8EK1HEIFC0D9GD1GN0LPX", "dateTime": 1516299247431}, {"current_trial": 34, "trialdata": {"rt": -1, "trial_type": "single-stim", "word": "passage", "stimulus": "<p id=\"stim\">PASSAGE</p>", "conditions": [18, 1200, "v", 18000], "internal_node_id": "0.0-25.0", "trial": 0, "time_elapsed": 319316, "serialpos": 13, "key_press": -1, "wordID": 1018, "type": "PRES_VIS", "trial_index": 34}, "uniqueid": "MTK1786:3H7Z272LX8EK1HEIFC0D9GD1GN0LPX", "dateTime": 1516299249504}, {"current_trial": 35, "trialdata": {"rt": -1, "trial_type": "single-stim", "word": "suitcase", "stimulus": "<p id=\"stim\">SUITCASE</p>", "conditions": [18, 1200, "v", 18000], "internal_node_id": "0.0-26.0", "trial": 0, "time_elapsed": 321416, "serialpos": 14, "key_press": -1, "wordID": 1402, "type": "PRES_VIS", "trial_index": 35}, "uniqueid": "MTK1786:3H7Z272LX8EK1HEIFC0D9GD1GN0LPX", "dateTime": 1516299251605}, {"current_trial": 36, "trialdata": {"rt": -1, "trial_type": "single-stim", "word": "suspect", "stimulus": "<p id=\"stim\">SUSPECT</p>", "conditions": [18, 1200, "v", 18000], "internal_node_id": "0.0-27.0", "trial": 0, "time_elapsed": 323682, "serialpos": 15, "key_press": -1, "wordID": 1414, "type": "PRES_VIS", "trial_index": 36}, "uniqueid": "MTK1786:3H7Z272LX8EK1HEIFC0D9GD1GN0LPX", "dateTime": 1516299253870}, {"current_trial": 37, "trialdata": {"rt": -1, "trial_type": "single-stim", "word": "rattle", "stimulus": "<p id=\"stim\">RATTLE</p>", "conditions": [18, 1200, "v", 18000], "internal_node_id": "0.0-28.0", "trial": 0, "time_elapsed": 326008, "serialpos": 16, "key_press": -1, "wordID": 1169, "type": "PRES_VIS", "trial_index": 37}, "uniqueid": "MTK1786:3H7Z272LX8EK1HEIFC0D9GD1GN0LPX", "dateTime": 1516299256196}, {"current_trial": 38, "trialdata": {"rt": -1, "trial_type": "single-stim", "word": "yarn", "stimulus": "<p id=\"stim\">YARN</p>", "conditions": [18, 1200, "v", 18000], "internal_node_id": "0.0-29.0", "trial": 0, "time_elapsed": 328233, "serialpos": 17, "key_press": -1, "wordID": 1630, "type": "PRES_VIS", "trial_index": 38}, "uniqueid": "MTK1786:3H7Z272LX8EK1HEIFC0D9GD1GN0LPX", "dateTime": 1516299258421}, {"current_trial": 39, "trialdata": {"rt": -1, "trial_type": "single-stim", "stimulus": "", "internal_node_id": "0.0-30.0-0.0", "time_elapsed": 330391, "key_press": -1, "type": "PRE_RECALL_DELAY", "trial_index": 39}, "uniqueid": "MTK1786:3H7Z272LX8EK1HEIFC0D9GD1GN0LPX", "dateTime": 1516299260580}, {"current_trial": 40, "trialdata": {"rt": -1000, "trial_type": "single-audio", "stimulus": "/static/audio/400Hz.wav", "internal_node_id": "0.0-31.0", "time_elapsed": 330897, "key_press": -1, "type": "PRE_RECALL_ALERT", "trial_index": 40}, "uniqueid": "MTK1786:3H7Z272LX8EK1HEIFC0D9GD1GN0LPX", "dateTime": 1516299261085}, {"current_trial": 41, "trialdata": {"rt": [2493, 4093, 6069, 8557, 13429], "recwords": ["wife", "treat", "suitcase", "casket", "yarn"], "key_times": [1824, 1910, 2063, 2270, 2493, 2934, 3175, 3262, 3463, 3752, 4093, 4550, 4726, 4975, 5118, 5406, 5535, 5630, 5822, 6069, 6302, 6416, 6512, 6766, 7543, 7750, 8557, 11038, 11150, 11263, 11390, 11806, 11959, 12126, 12326, 12471, 12646, 13429], "trial_type": "free-recall", "conditions": [18, 1200, "v", 18000], "internal_node_id": "0.0-32.0-0.0", "key_presses": [87, 73, 70, 69, 13, 84, 82, 69, 65, 84, 13, 83, 85, 73, 84, 67, 65, 83, 69, 13, 67, 65, 83, 75, 69, 84, 13, 89, 69, 65, 82, 8, 8, 8, 65, 82, 78, 13], "trial": 0, "time_elapsed": 390904, "type": "FREE_RECALL", "trial_index": 41}, "uniqueid": "MTK1786:3H7Z272LX8EK1HEIFC0D9GD1GN0LPX", "dateTime": 1516299321098}, {"current_trial": 42, "trialdata": {"rt": 2467, "trial_type": "text", "internal_node_id": "0.0-33.0", "time_elapsed": 395381, "key_press": 32, "type": "INSTRUCTIONS", "trial_index": 42}, "uniqueid": "MTK1786:3H7Z272LX8EK1HEIFC0D9GD1GN0LPX", "dateTime": 1516299325569}, {"current_trial": 43, "trialdata": {"rt": [3680, 8272, 13024, 15632], "trial_type": "math-distractor", "key_times": [2729, 2922, 3680, 6818, 7097, 8272, 12281, 12546, 13024, 14631, 14818, 15632, 17378], "responses": ["21", "16", "18", "12"], "num2": [8, 8, 5, 1, 2], "num3": [5, 7, 6, 9, 1], "conditions": [18, 1200, "v", 18000], "internal_node_id": "0.0-34.0", "key_presses": [98, 97, 13, 97, 102, 13, 97, 104, 13, 97, 98, 13, 102], "trial": 1, "time_elapsed": 415387, "type": "DISTRACTOR", "trial_index": 43, "num1": [8, 1, 7, 2, 3]}, "uniqueid": "MTK1786:3H7Z272LX8EK1HEIFC0D9GD1GN0LPX", "dateTime": 1516299345575}, {"current_trial": 44, "trialdata": {"rt": -1, "trial_type": "single-stim", "stimulus": "<p id=\"stim\">10</p>", "internal_node_id": "0.0-35.0-0.0", "time_elapsed": 418390, "key_press": -1, "trial_index": 44}, "uniqueid": "MTK1786:3H7Z272LX8EK1HEIFC0D9GD1GN0LPX", "dateTime": 1516299348578}, {"current_trial": 45, "trialdata": {"rt": -1, "trial_type": "single-stim", "stimulus": "<p id=\"stim\">9</p>", "internal_node_id": "0.0-35.0-1.0", "time_elapsed": 419393, "key_press": -1, "trial_index": 45}, "uniqueid": "MTK1786:3H7Z272LX8EK1HEIFC0D9GD1GN0LPX", "dateTime": 1516299349581}, {"current_trial": 46, "trialdata": {"rt": -1, "trial_type": "single-stim", "stimulus": "<p id=\"stim\">8</p>", "internal_node_id": "0.0-35.0-2.0", "time_elapsed": 420395, "key_press": -1, "trial_index": 46}, "uniqueid": "MTK1786:3H7Z272LX8EK1HEIFC0D9GD1GN0LPX", "dateTime": 1516299350584}, {"current_trial": 47, "trialdata": {"rt": -1, "trial_type": "single-stim", "stimulus": "<p id=\"stim\">7</p>", "internal_node_id": "0.0-35.0-3.0", "time_elapsed": 421398, "key_press": -1, "trial_index": 47}, "uniqueid": "MTK1786:3H7Z272LX8EK1HEIFC0D9GD1GN0LPX", "dateTime": 1516299351587}, {"current_trial": 48, "trialdata": {"rt": -1, "trial_type": "single-stim", "stimulus": "<p id=\"stim\">6</p>", "internal_node_id": "0.0-35.0-4.0", "time_elapsed": 422402, "key_press": -1, "trial_index": 48}, "uniqueid": "MTK1786:3H7Z272LX8EK1HEIFC0D9GD1GN0LPX", "dateTime": 1516299352590}, {"current_trial": 49, "trialdata": {"rt": -1, "trial_type": "single-stim", "stimulus": "<p id=\"stim\">5</p>", "internal_node_id": "0.0-35.0-5.0", "time_elapsed": 423403, "key_press": -1, "trial_index": 49}, "uniqueid": "MTK1786:3H7Z272LX8EK1HEIFC0D9GD1GN0LPX", "dateTime": 1516299353592}, {"current_trial": 50, "trialdata": {"rt": -1, "trial_type": "single-stim", "stimulus": "<p id=\"stim\">4</p>", "internal_node_id": "0.0-35.0-6.0", "time_elapsed": 424406, "key_press": -1, "trial_index": 50}, "uniqueid": "MTK1786:3H7Z272LX8EK1HEIFC0D9GD1GN0LPX", "dateTime": 1516299354594}, {"current_trial": 51, "trialdata": {"rt": -1, "trial_type": "single-stim", "stimulus": "<p id=\"stim\">3</p>", "internal_node_id": "0.0-35.0-7.0", "time_elapsed": 425411, "key_press": -1, "trial_index": 51}, "uniqueid": "MTK1786:3H7Z272LX8EK1HEIFC0D9GD1GN0LPX", "dateTime": 1516299355600}, {"current_trial": 52, "trialdata": {"rt": -1, "trial_type": "single-stim", "stimulus": "<p id=\"stim\">2</p>", "internal_node_id": "0.0-35.0-8.0", "time_elapsed": 426415, "key_press": -1, "trial_index": 52}, "uniqueid": "MTK1786:3H7Z272LX8EK1HEIFC0D9GD1GN0LPX", "dateTime": 1516299356603}, {"current_trial": 53, "trialdata": {"rt": -1, "trial_type": "single-stim", "stimulus": "<p id=\"stim\">1</p>", "internal_node_id": "0.0-35.0-9.0", "time_elapsed": 427417, "key_press": -1, "trial_index": 53}, "uniqueid": "MTK1786:3H7Z272LX8EK1HEIFC0D9GD1GN0LPX", "dateTime": 1516299357606}, {"current_trial": 54, "trialdata": {"rt": -1, "trial_type": "single-stim", "stimulus": "<p id=\"stim\">+</p>", "internal_node_id": "0.0-36.0-0.0", "time_elapsed": 428921, "key_press": -1, "type": "FIXATION", "trial_index": 54}, "uniqueid": "MTK1786:3H7Z272LX8EK1HEIFC0D9GD1GN0LPX", "dateTime": 1516299359110}, {"current_trial": 55, "trialdata": {"rt": -1, "trial_type": "single-stim", "word": "cross", "stimulus": "<p id=\"stim\">CROSS</p>", "conditions": [18, 1200, "v", 18000], "internal_node_id": "0.0-37.0", "trial": 1, "time_elapsed": 430126, "serialpos": 0, "key_press": -1, "wordID": 412, "type": "PRES_VIS", "trial_index": 55}, "uniqueid": "MTK1786:3H7Z272LX8EK1HEIFC0D9GD1GN0LPX", "dateTime": 1516299360315}, {"current_trial": 56, "trialdata": {"rt": -1, "trial_type": "single-stim", "word": "farmer", "stimulus": "<p id=\"stim\">FARMER</p>", "conditions": [18, 1200, "v", 18000], "internal_node_id": "0.0-38.0", "trial": 1, "time_elapsed": 432220, "serialpos": 1, "key_press": -1, "wordID": 552, "type": "PRES_VIS", "trial_index": 56}, "uniqueid": "MTK1786:3H7Z272LX8EK1HEIFC0D9GD1GN0LPX", "dateTime": 1516299362408}, {"current_trial": 57, "trialdata": {"rt": -1, "trial_type": "single-stim", "word": "honey", "stimulus": "<p id=\"stim\">HONEY</p>", "conditions": [18, 1200, "v", 18000], "internal_node_id": "0.0-39.0", "trial": 1, "time_elapsed": 434409, "serialpos": 2, "key_press": -1, "wordID": 712, "type": "PRES_VIS", "trial_index": 57}, "uniqueid": "MTK1786:3H7Z272LX8EK1HEIFC0D9GD1GN0LPX", "dateTime": 1516299364598}, {"current_trial": 58, "trialdata": {"rt": -1, "trial_type": "single-stim", "word": "novel", "stimulus": "<p id=\"stim\">NOVEL</p>", "conditions": [18, 1200, "v", 18000], "internal_node_id": "0.0-40.0", "trial": 1, "time_elapsed": 436445, "serialpos": 3, "key_press": -1, "wordID": 959, "type": "PRES_VIS", "trial_index": 58}, "uniqueid": "MTK1786:3H7Z272LX8EK1HEIFC0D9GD1GN0LPX", "dateTime": 1516299366633}, {"current_trial": 59, "trialdata": {"rt": -1, "trial_type": "single-stim", "word": "freckle", "stimulus": "<p id=\"stim\">FRECKLE</p>", "conditions": [18, 1200, "v", 18000], "internal_node_id": "0.0-41.0", "trial": 1, "time_elapsed": 438692, "serialpos": 4, "key_press": -1, "wordID": 601, "type": "PRES_VIS", "trial_index": 59}, "uniqueid": "MTK1786:3H7Z272LX8EK1HEIFC0D9GD1GN0LPX", "dateTime": 1516299368881}, {"current_trial": 60, "trialdata": {"rt": -1, "trial_type": "single-stim", "word": "ketchup", "stimulus": "<p id=\"stim\">KETCHUP</p>", "conditions": [18, 1200, "v", 18000], "internal_node_id": "0.0-42.0", "trial": 1, "time_elapsed": 440720, "serialpos": 5, "key_press": -1, "wordID": 770, "type": "PRES_VIS", "trial_index": 60}, "uniqueid": "MTK1786:3H7Z272LX8EK1HEIFC0D9GD1GN0LPX", "dateTime": 1516299370909}, {"current_trial": 61, "trialdata": {"rt": -1, "trial_type": "single-stim", "word": "glove", "stimulus": "<p id=\"stim\">GLOVE</p>", "conditions": [18, 1200, "v", 18000], "internal_node_id": "0.0-43.0", "trial": 1, "time_elapsed": 443016, "serialpos": 6, "key_press": -1, "wordID": 641, "type": "PRES_VIS", "trial_index": 61}, "uniqueid": "MTK1786:3H7Z272LX8EK1HEIFC0D9GD1GN0LPX", "dateTime": 1516299373205}, {"current_trial": 62, "trialdata": {"rt": -1, "trial_type": "single-stim", "word": "shortcake", "stimulus": "<p id=\"stim\">SHORTCAKE</p>", "conditions": [18, 1200, "v", 18000], "internal_node_id": "0.0-44.0", "trial": 1, "time_elapsed": 445267, "serialpos": 7, "key_press": -1, "wordID": 1291, "type": "PRES_VIS", "trial_index": 62}, "uniqueid": "MTK1786:3H7Z272LX8EK1HEIFC0D9GD1GN0LPX", "dateTime": 1516299375456}, {"current_trial": 63, "trialdata": {"rt": -1, "trial_type": "single-stim", "word": "island", "stimulus": "<p id=\"stim\">ISLAND</p>", "conditions": [18, 1200, "v", 18000], "internal_node_id": "0.0-45.0", "trial": 1, "time_elapsed": 447481, "serialpos": 8, "key_press": -1, "wordID": 744, "type": "PRES_VIS", "trial_index": 63}, "uniqueid": "MTK1786:3H7Z272LX8EK1HEIFC0D9GD1GN0LPX", "dateTime": 1516299377669}, {"current_trial": 64, "trialdata": {"rt": -1, "trial_type": "single-stim", "word": "beaver", "stimulus": "<p id=\"stim\">BEAVER</p>", "conditions": [18, 1200, "v", 18000], "internal_node_id": "0.0-46.0", "trial": 1, "time_elapsed": 449872, "serialpos": 9, "key_press": -1, "wordID": 108, "type": "PRES_VIS", "trial_index": 64}, "uniqueid": "MTK1786:3H7Z272LX8EK1HEIFC0D9GD1GN0LPX", "dateTime": 1516299380061}, {"current_trial": 65, "trialdata": {"rt": -1, "trial_type": "single-stim", "word": "rifle", "stimulus": "<p id=\"stim\">RIFLE</p>", "conditions": [18, 1200, "v", 18000], "internal_node_id": "0.0-47.0", "trial": 1, "time_elapsed": 452086, "serialpos": 10, "key_press": -1, "wordID": 1191, "type": "PRES_VIS", "trial_index": 65}, "uniqueid": "MTK1786:3H7Z272LX8EK1HEIFC0D9GD1GN0LPX", "dateTime": 1516299382274}, {"current_trial": 66, "trialdata": {"rt": -1, "trial_type": "single-stim", "word": "world", "stimulus": "<p id=\"stim\">WORLD</p>", "conditions": [18, 1200, "v", 18000], "internal_node_id": "0.0-48.0", "trial": 1, "time_elapsed": 454317, "serialpos": 11, "key_press": -1, "wordID": 1621, "type": "PRES_VIS", "trial_index": 66}, "uniqueid": "MTK1786:3H7Z272LX8EK1HEIFC0D9GD1GN0LPX", "dateTime": 1516299384506}, {"current_trial": 67, "trialdata": {"rt": -1, "trial_type": "single-stim", "word": "dancer", "stimulus": "<p id=\"stim\">DANCER</p>", "conditions": [18, 1200, "v", 18000], "internal_node_id": "0.0-49.0", "trial": 1, "time_elapsed": 456385, "serialpos": 12, "key_press": -1, "wordID": 436, "type": "PRES_VIS", "trial_index": 67}, "uniqueid": "MTK1786:3H7Z272LX8EK1HEIFC0D9GD1GN0LPX", "dateTime": 1516299386574}, {"current_trial": 68, "trialdata": {"rt": -1, "trial_type": "single-stim", "word": "ground", "stimulus": "<p id=\"stim\">GROUND</p>", "conditions": [18, 1200, "v", 18000], "internal_node_id": "0.0-50.0", "trial": 1, "time_elapsed": 458780, "serialpos": 13, "key_press": -1, "wordID": 665, "type": "PRES_VIS", "trial_index": 68}, "uniqueid": "MTK1786:3H7Z272LX8EK1HEIFC0D9GD1GN0LPX", "dateTime": 1516299388987}, {"current_trial": 69, "trialdata": {"rt": -1, "trial_type": "single-stim", "word": "jungle", "stimulus": "<p id=\"stim\">JUNGLE</p>", "conditions": [18, 1200, "v", 18000], "internal_node_id": "0.0-51.0", "trial": 1, "time_elapsed": 460818, "serialpos": 14, "key_press": -1, "wordID": 763, "type": "PRES_VIS", "trial_index": 69}, "uniqueid": "MTK1786:3H7Z272LX8EK1HEIFC0D9GD1GN0LPX", "dateTime": 1516299391006}, {"current_trial": 70, "trialdata": {"rt": -1, "trial_type": "single-stim", "word": "pliers", "stimulus": "<p id=\"stim\">PLIERS</p>", "conditions": [18, 1200, "v", 18000], "internal_node_id": "0.0-52.0", "trial": 1, "time_elapsed": 463184, "serialpos": 15, "key_press": -1, "wordID": 1088, "type": "PRES_VIS", "trial_index": 70}, "uniqueid": "MTK1786:3H7Z272LX8EK1HEIFC0D9GD1GN0LPX", "dateTime": 1516299393372}, {"current_trial": 71, "trialdata": {"rt": -1, "trial_type": "single-stim", "word": "nomad", "stimulus": "<p id=\"stim\">NOMAD</p>", "conditions": [18, 1200, "v", 18000], "internal_node_id": "0.0-53.0", "trial": 1, "time_elapsed": 465467, "serialpos": 16, "key_press": -1, "wordID": 954, "type": "PRES_VIS", "trial_index": 71}, "uniqueid": "MTK1786:3H7Z272LX8EK1HEIFC0D9GD1GN0LPX", "dateTime": 1516299395656}, {"current_trial": 72, "trialdata": {"rt": -1, "trial_type": "single-stim", "word": "dust", "stimulus": "<p id=\"stim\">DUST</p>", "conditions": [18, 1200, "v", 18000], "internal_node_id": "0.0-54.0", "trial": 1, "time_elapsed": 467756, "serialpos": 17, "key_press": -1, "wordID": 507, "type": "PRES_VIS", "trial_index": 72}, "uniqueid": "MTK1786:3H7Z272LX8EK1HEIFC0D9GD1GN0LPX", "dateTime": 1516299397944}, {"current_trial": 73, "trialdata": {"rt": -1, "trial_type": "single-stim", "stimulus": "", "internal_node_id": "0.0-55.0-0.0", "time_elapsed": 470208, "key_press": -1, "type": "PRE_RECALL_DELAY", "trial_index": 73}, "uniqueid": "MTK1786:3H7Z272LX8EK1HEIFC0D9GD1GN0LPX", "dateTime": 1516299400396}, {"current_trial": 74, "trialdata": {"rt": -1000, "trial_type": "single-audio", "stimulus": "/static/audio/400Hz.wav", "internal_node_id": "0.0-56.0", "time_elapsed": 470722, "key_press": -1, "type": "PRE_RECALL_ALERT", "trial_index": 74}, "uniqueid": "MTK1786:3H7Z272LX8EK1HEIFC0D9GD1GN0LPX", "dateTime": 1516299400911}, {"current_trial": 75, "trialdata": {"rt": [1852, 3365, 4636, 8756, 13957, 16917, 26540], "recwords": ["dust", "nomad", "honey", "farmer", "shortcake", "island", "plier"], "key_times": [685, 868, 1172, 1477, 1852, 2269, 2405, 2669, 2808, 3021, 3365, 3701, 3853, 3958, 4134, 4285, 4636, 7709, 7838, 8021, 8205, 8342, 8421, 8756, 11969, 12077, 12182, 12335, 12838, 13278, 13414, 13591, 13758, 13957, 16046, 16149, 16333, 16454, 16607, 16743, 16917, 25502, 25709, 25918, 26102, 26181, 26540], "trial_type": "free-recall", "conditions": [18, 1200, "v", 18000], "internal_node_id": "0.0-57.0-0.0", "key_presses": [68, 85, 83, 84, 13, 78, 79, 77, 65, 68, 13, 72, 79, 78, 69, 89, 13, 70, 65, 82, 77, 69, 82, 13, 83, 72, 79, 82, 84, 67, 65, 75, 69, 13, 73, 83, 76, 65, 78, 68, 13, 80, 76, 73, 69, 82, 13], "trial": 1, "time_elapsed": 530727, "type": "FREE_RECALL", "trial_index": 75}, "uniqueid": "MTK1786:3H7Z272LX8EK1HEIFC0D9GD1GN0LPX", "dateTime": 1516299460919}, {"current_trial": 76, "trialdata": {"rt": 2018, "trial_type": "text", "internal_node_id": "0.0-58.0", "time_elapsed": 534753, "key_press": 32, "type": "INSTRUCTIONS", "trial_index": 76}, "uniqueid": "MTK1786:3H7Z272LX8EK1HEIFC0D9GD1GN0LPX", "dateTime": 1516299464942}, {"current_trial": 77, "trialdata": {"rt": [4165, 6734, 11742], "trial_type": "math-distractor", "key_times": [3182, 3382, 4165, 6118, 6278, 6734, 11038, 11230, 11742], "responses": ["14", "11", "20"], "num2": [8, 3, 8, 4], "num3": [1, 3, 7, 4], "conditions": [24, 800, "v", 12000], "internal_node_id": "0.0-59.0", "key_presses": [97, 100, 13, 97, 97, 13, 98, 96, 13], "trial": 2, "time_elapsed": 547759, "type": "DISTRACTOR", "trial_index": 77, "num1": [5, 5, 5, 7]}, "uniqueid": "MTK1786:3H7Z272LX8EK1HEIFC0D9GD1GN0LPX", "dateTime": 1516299477947}, {"current_trial": 78, "trialdata": {"rt": -1, "trial_type": "single-stim", "stimulus": "<p id=\"stim\">10</p>", "internal_node_id": "0.0-60.0-0.0", "time_elapsed": 550762, "key_press": -1, "trial_index": 78}, "uniqueid": "MTK1786:3H7Z272LX8EK1HEIFC0D9GD1GN0LPX", "dateTime": 1516299480950}, {"current_trial": 79, "trialdata": {"rt": -1, "trial_type": "single-stim", "stimulus": "<p id=\"stim\">9</p>", "internal_node_id": "0.0-60.0-1.0", "time_elapsed": 551765, "key_press": -1, "trial_index": 79}, "uniqueid": "MTK1786:3H7Z272LX8EK1HEIFC0D9GD1GN0LPX", "dateTime": 1516299481953}, {"current_trial": 80, "trialdata": {"rt": -1, "trial_type": "single-stim", "stimulus": "<p id=\"stim\">8</p>", "internal_node_id": "0.0-60.0-2.0", "time_elapsed": 552767, "key_press": -1, "trial_index": 80}, "uniqueid": "MTK1786:3H7Z272LX8EK1HEIFC0D9GD1GN0LPX", "dateTime": 1516299482955}, {"current_trial": 81, "trialdata": {"rt": -1, "trial_type": "single-stim", "stimulus": "<p id=\"stim\">7</p>", "internal_node_id": "0.0-60.0-3.0", "time_elapsed": 553769, "key_press": -1, "trial_index": 81}, "uniqueid": "MTK1786:3H7Z272LX8EK1HEIFC0D9GD1GN0LPX", "dateTime": 1516299483957}, {"current_trial": 82, "trialdata": {"rt": -1, "trial_type": "single-stim", "stimulus": "<p id=\"stim\">6</p>", "internal_node_id": "0.0-60.0-4.0", "time_elapsed": 554772, "key_press": -1, "trial_index": 82}, "uniqueid": "MTK1786:3H7Z272LX8EK1HEIFC0D9GD1GN0LPX", "dateTime": 1516299484961}, {"current_trial": 83, "trialdata": {"rt": -1, "trial_type": "single-stim", "stimulus": "<p id=\"stim\">5</p>", "internal_node_id": "0.0-60.0-5.0", "time_elapsed": 555775, "key_press": -1, "trial_index": 83}, "uniqueid": "MTK1786:3H7Z272LX8EK1HEIFC0D9GD1GN0LPX", "dateTime": 1516299485963}, {"current_trial": 84, "trialdata": {"rt": -1, "trial_type": "single-stim", "stimulus": "<p id=\"stim\">4</p>", "internal_node_id": "0.0-60.0-6.0", "time_elapsed": 556777, "key_press": -1, "trial_index": 84}, "uniqueid": "MTK1786:3H7Z272LX8EK1HEIFC0D9GD1GN0LPX", "dateTime": 1516299486965}, {"current_trial": 85, "trialdata": {"rt": -1, "trial_type": "single-stim", "stimulus": "<p id=\"stim\">3</p>", "internal_node_id": "0.0-60.0-7.0", "time_elapsed": 557779, "key_press": -1, "trial_index": 85}, "uniqueid": "MTK1786:3H7Z272LX8EK1HEIFC0D9GD1GN0LPX", "dateTime": 1516299487967}, {"current_trial": 86, "trialdata": {"rt": -1, "trial_type": "single-stim", "stimulus": "<p id=\"stim\">2</p>", "internal_node_id": "0.0-60.0-8.0", "time_elapsed": 558783, "key_press": -1, "trial_index": 86}, "uniqueid": "MTK1786:3H7Z272LX8EK1HEIFC0D9GD1GN0LPX", "dateTime": 1516299488971}, {"current_trial": 87, "trialdata": {"rt": -1, "trial_type": "single-stim", "stimulus": "<p id=\"stim\">1</p>", "internal_node_id": "0.0-60.0-9.0", "time_elapsed": 559787, "key_press": -1, "trial_index": 87}, "uniqueid": "MTK1786:3H7Z272LX8EK1HEIFC0D9GD1GN0LPX", "dateTime": 1516299489976}, {"current_trial": 88, "trialdata": {"rt": -1, "trial_type": "single-stim", "stimulus": "<p id=\"stim\">+</p>", "internal_node_id": "0.0-61.0-0.0", "time_elapsed": 561290, "key_press": -1, "type": "FIXATION", "trial_index": 88}, "uniqueid": "MTK1786:3H7Z272LX8EK1HEIFC0D9GD1GN0LPX", "dateTime": 1516299491479}, {"current_trial": 89, "trialdata": {"rt": -1, "trial_type": "single-stim", "word": "knapsack", "stimulus": "<p id=\"stim\">KNAPSACK</p>", "conditions": [24, 800, "v", 12000], "internal_node_id": "0.0-62.0", "trial": 2, "time_elapsed": 562095, "serialpos": 0, "key_press": -1, "wordID": 782, "type": "PRES_VIS", "trial_index": 89}, "uniqueid": "MTK1786:3H7Z272LX8EK1HEIFC0D9GD1GN0LPX", "dateTime": 1516299492284}, {"current_trial": 90, "trialdata": {"rt": -1, "trial_type": "single-stim", "word": "message", "stimulus": "<p id=\"stim\">MESSAGE</p>", "conditions": [24, 800, "v", 12000], "internal_node_id": "0.0-63.0", "trial": 2, "time_elapsed": 564086, "serialpos": 1, "key_press": -1, "wordID": 887, "type": "PRES_VIS", "trial_index": 90}, "uniqueid": "MTK1786:3H7Z272LX8EK1HEIFC0D9GD1GN0LPX", "dateTime": 1516299494274}, {"current_trial": 91, "trialdata": {"rt": -1, "trial_type": "single-stim", "word": "forest", "stimulus": "<p id=\"stim\">FOREST</p>", "conditions": [24, 800, "v", 12000], "internal_node_id": "0.0-64.0", "trial": 2, "time_elapsed": 565745, "serialpos": 2, "key_press": -1, "wordID": 592, "type": "PRES_VIS", "trial_index": 91}, "uniqueid": "MTK1786:3H7Z272LX8EK1HEIFC0D9GD1GN0LPX", "dateTime": 1516299495933}, {"current_trial": 92, "trialdata": {"rt": -1, "trial_type": "single-stim", "word": "breast", "stimulus": "<p id=\"stim\">BREAST</p>", "conditions": [24, 800, "v", 12000], "internal_node_id": "0.0-65.0", "trial": 2, "time_elapsed": 567461, "serialpos": 3, "key_press": -1, "wordID": 170, "type": "PRES_VIS", "trial_index": 92}, "uniqueid": "MTK1786:3H7Z272LX8EK1HEIFC0D9GD1GN0LPX", "dateTime": 1516299497649}, {"current_trial": 93, "trialdata": {"rt": -1, "trial_type": "single-stim", "word": "queen", "stimulus": "<p id=\"stim\">QUEEN</p>", "conditions": [24, 800, "v", 12000], "internal_node_id": "0.0-66.0", "trial": 2, "time_elapsed": 569242, "serialpos": 4, "key_press": -1, "wordID": 1148, "type": "PRES_VIS", "trial_index": 93}, "uniqueid": "MTK1786:3H7Z272LX8EK1HEIFC0D9GD1GN0LPX", "dateTime": 1516299499431}, {"current_trial": 94, "trialdata": {"rt": -1, "trial_type": "single-stim", "word": "robber", "stimulus": "<p id=\"stim\">ROBBER</p>", "conditions": [24, 800, "v", 12000], "internal_node_id": "0.0-67.0", "trial": 2, "time_elapsed": 571108, "serialpos": 5, "key_press": -1, "wordID": 1196, "type": "PRES_VIS", "trial_index": 94}, "uniqueid": "MTK1786:3H7Z272LX8EK1HEIFC0D9GD1GN0LPX", "dateTime": 1516299501297}, {"current_trial": 95, "trialdata": {"rt": -1, "trial_type": "single-stim", "word": "possum", "stimulus": "<p id=\"stim\">POSSUM</p>", "conditions": [24, 800, "v", 12000], "internal_node_id": "0.0-68.0", "trial": 2, "time_elapsed": 572805, "serialpos": 6, "key_press": -1, "wordID": 1111, "type": "PRES_VIS", "trial_index": 95}, "uniqueid": "MTK1786:3H7Z272LX8EK1HEIFC0D9GD1GN0LPX", "dateTime": 1516299502994}, {"current_trial": 96, "trialdata": {"rt": -1, "trial_type": "single-stim", "word": "forehead", "stimulus": "<p id=\"stim\">FOREHEAD</p>", "conditions": [24, 800, "v", 12000], "internal_node_id": "0.0-69.0", "trial": 2, "time_elapsed": 574506, "serialpos": 7, "key_press": -1, "wordID": 591, "type": "PRES_VIS", "trial_index": 96}, "uniqueid": "MTK1786:3H7Z272LX8EK1HEIFC0D9GD1GN0LPX", "dateTime": 1516299504694}, {"current_trial": 97, "trialdata": {"rt": -1, "trial_type": "single-stim", "word": "chest", "stimulus": "<p id=\"stim\">CHEST</p>", "conditions": [24, 800, "v", 12000], "internal_node_id": "0.0-70.0", "trial": 2, "time_elapsed": 576322, "serialpos": 8, "key_press": -1, "wordID": 294, "type": "PRES_VIS", "trial_index": 97}, "uniqueid": "MTK1786:3H7Z272LX8EK1HEIFC0D9GD1GN0LPX", "dateTime": 1516299506511}, {"current_trial": 98, "trialdata": {"rt": -1, "trial_type": "single-stim", "word": "crevice", "stimulus": "<p id=\"stim\">CREVICE</p>", "conditions": [24, 800, "v", 12000], "internal_node_id": "0.0-71.0", "trial": 2, "time_elapsed": 578131, "serialpos": 9, "key_press": -1, "wordID": 404, "type": "PRES_VIS", "trial_index": 98}, "uniqueid": "MTK1786:3H7Z272LX8EK1HEIFC0D9GD1GN0LPX", "dateTime": 1516299508319}, {"current_trial": 99, "trialdata": {"rt": -1, "trial_type": "single-stim", "word": "rod", "stimulus": "<p id=\"stim\">ROD</p>", "conditions": [24, 800, "v", 12000], "internal_node_id": "0.0-72.0", "trial": 2, "time_elapsed": 579772, "serialpos": 10, "key_press": -1, "wordID": 1202, "type": "PRES_VIS", "trial_index": 99}, "uniqueid": "MTK1786:3H7Z272LX8EK1HEIFC0D9GD1GN0LPX", "dateTime": 1516299509960}, {"current_trial": 100, "trialdata": {"rt": -1, "trial_type": "single-stim", "word": "briefcase", "stimulus": "<p id=\"stim\">BRIEFCASE</p>", "conditions": [24, 800, "v", 12000], "internal_node_id": "0.0-73.0", "trial": 2, "time_elapsed": 581505, "serialpos": 11, "key_press": -1, "wordID": 174, "type": "PRES_VIS", "trial_index": 100}, "uniqueid": "MTK1786:3H7Z272LX8EK1HEIFC0D9GD1GN0LPX", "dateTime": 1516299511693}, {"current_trial": 101, "trialdata": {"rt": -1, "trial_type": "single-stim", "word": "husband", "stimulus": "<p id=\"stim\">HUSBAND</p>", "conditions": [24, 800, "v", 12000], "internal_node_id": "0.0-74.0", "trial": 2, "time_elapsed": 583429, "serialpos": 12, "key_press": -1, "wordID": 727, "type": "PRES_VIS", "trial_index": 101}, "uniqueid": "MTK1786:3H7Z272LX8EK1HEIFC0D9GD1GN0LPX", "dateTime": 1516299513618}, {"current_trial": 102, "trialdata": {"rt": -1, "trial_type": "single-stim", "word": "pecan", "stimulus": "<p id=\"stim\">PECAN</p>", "conditions": [24, 800, "v", 12000], "internal_node_id": "0.0-75.0", "trial": 2, "time_elapsed": 585393, "serialpos": 13, "key_press": -1, "wordID": 1035, "type": "PRES_VIS", "trial_index": 102}, "uniqueid": "MTK1786:3H7Z272LX8EK1HEIFC0D9GD1GN0LPX", "dateTime": 1516299515581}, {"current_trial": 103, "trialdata": {"rt": -1, "trial_type": "single-stim", "word": "woman", "stimulus": "<p id=\"stim\">WOMAN</p>", "conditions": [24, 800, "v", 12000], "internal_node_id": "0.0-76.0", "trial": 2, "time_elapsed": 587214, "serialpos": 14, "key_press": -1, "wordID": 1619, "type": "PRES_VIS", "trial_index": 103}, "uniqueid": "MTK1786:3H7Z272LX8EK1HEIFC0D9GD1GN0LPX", "dateTime": 1516299517402}, {"current_trial": 104, "trialdata": {"rt": -1, "trial_type": "single-stim", "word": "victim", "stimulus": "<p id=\"stim\">VICTIM</p>", "conditions": [24, 800, "v", 12000], "internal_node_id": "0.0-77.0", "trial": 2, "time_elapsed": 589146, "serialpos": 15, "key_press": -1, "wordID": 1561, "type": "PRES_VIS", "trial_index": 104}, "uniqueid": "MTK1786:3H7Z272LX8EK1HEIFC0D9GD1GN0LPX", "dateTime": 1516299519334}, {"current_trial": 105, "trialdata": {"rt": -1, "trial_type": "single-stim", "word": "sponge", "stimulus": "<p id=\"stim\">SPONGE</p>", "conditions": [24, 800, "v", 12000], "internal_node_id": "0.0-78.0", "trial": 2, "time_elapsed": 591015, "serialpos": 16, "key_press": -1, "wordID": 1354, "type": "PRES_VIS", "trial_index": 105}, "uniqueid": "MTK1786:3H7Z272LX8EK1HEIFC0D9GD1GN0LPX", "dateTime": 1516299521203}, {"current_trial": 106, "trialdata": {"rt": -1, "trial_type": "single-stim", "word": "cloud", "stimulus": "<p id=\"stim\">CLOUD</p>", "conditions": [24, 800, "v", 12000], "internal_node_id": "0.0-79.0", "trial": 2, "time_elapsed": 592928, "serialpos": 17, "key_press": -1, "wordID": 327, "type": "PRES_VIS", "trial_index": 106}, "uniqueid": "MTK1786:3H7Z272LX8EK1HEIFC0D9GD1GN0LPX", "dateTime": 1516299523117}, {"current_trial": 107, "trialdata": {"rt": -1, "trial_type": "single-stim", "word": "plaza", "stimulus": "<p id=\"stim\">PLAZA</p>", "conditions": [24, 800, "v", 12000], "internal_node_id": "0.0-80.0", "trial": 2, "time_elapsed": 594640, "serialpos": 18, "key_press": -1, "wordID": 1087, "type": "PRES_VIS", "trial_index": 107}, "uniqueid": "MTK1786:3H7Z272LX8EK1HEIFC0D9GD1GN0LPX", "dateTime": 1516299524829}, {"current_trial": 108, "trialdata": {"rt": -1, "trial_type": "single-stim", "word": "sandwich", "stimulus": "<p id=\"stim\">SANDWICH</p>", "conditions": [24, 800, "v", 12000], "internal_node_id": "0.0-81.0", "trial": 2, "time_elapsed": 596511, "serialpos": 19, "key_press": -1, "wordID": 1231, "type": "PRES_VIS", "trial_index": 108}, "uniqueid": "MTK1786:3H7Z272LX8EK1HEIFC0D9GD1GN0LPX", "dateTime": 1516299526700}, {"current_trial": 109, "trialdata": {"rt": -1, "trial_type": "single-stim", "word": "sunset", "stimulus": "<p id=\"stim\">SUNSET</p>", "conditions": [24, 800, "v", 12000], "internal_node_id": "0.0-82.0", "trial": 2, "time_elapsed": 598393, "serialpos": 20, "key_press": -1, "wordID": 1407, "type": "PRES_VIS", "trial_index": 109}, "uniqueid": "MTK1786:3H7Z272LX8EK1HEIFC0D9GD1GN0LPX", "dateTime": 1516299528581}, {"current_trial": 110, "trialdata": {"rt": -1, "trial_type": "single-stim", "word": "peanut", "stimulus": "<p id=\"stim\">PEANUT</p>", "conditions": [24, 800, "v", 12000], "internal_node_id": "0.0-83.0", "trial": 2, "time_elapsed": 600116, "serialpos": 21, "key_press": -1, "wordID": 1031, "type": "PRES_VIS", "trial_index": 110}, "uniqueid": "MTK1786:3H7Z272LX8EK1HEIFC0D9GD1GN0LPX", "dateTime": 1516299530305}, {"current_trial": 111, "trialdata": {"rt": -1, "trial_type": "single-stim", "word": "robin", "stimulus": "<p id=\"stim\">ROBIN</p>", "conditions": [24, 800, "v", 12000], "internal_node_id": "0.0-84.0", "trial": 2, "time_elapsed": 602053, "serialpos": 22, "key_press": -1, "wordID": 1198, "type": "PRES_VIS", "trial_index": 111}, "uniqueid": "MTK1786:3H7Z272LX8EK1HEIFC0D9GD1GN0LPX", "dateTime": 1516299532242}, {"current_trial": 112, "trialdata": {"rt": -1, "trial_type": "single-stim", "word": "shirt", "stimulus": "<p id=\"stim\">SHIRT</p>", "conditions": [24, 800, "v", 12000], "internal_node_id": "0.0-85.0", "trial": 2, "time_elapsed": 603963, "serialpos": 23, "key_press": -1, "wordID": 1286, "type": "PRES_VIS", "trial_index": 112}, "uniqueid": "MTK1786:3H7Z272LX8EK1HEIFC0D9GD1GN0LPX", "dateTime": 1516299534151}, {"current_trial": 113, "trialdata": {"rt": -1, "trial_type": "single-stim", "stimulus": "", "internal_node_id": "0.0-86.0-0.0", "time_elapsed": 606199, "key_press": -1, "type": "PRE_RECALL_DELAY", "trial_index": 113}, "uniqueid": "MTK1786:3H7Z272LX8EK1HEIFC0D9GD1GN0LPX", "dateTime": 1516299536387}, {"current_trial": 114, "trialdata": {"rt": -1000, "trial_type": "single-audio", "stimulus": "/static/audio/400Hz.wav", "internal_node_id": "0.0-87.0", "time_elapsed": 606702, "key_press": -1, "type": "PRE_RECALL_ALERT", "trial_index": 114}, "uniqueid": "MTK1786:3H7Z272LX8EK1HEIFC0D9GD1GN0LPX", "dateTime": 1516299536890}, {"current_trial": 115, "trialdata": {"rt": [1433, 3050, 6001, 7226, 8529, 10618, 29521, 38273], "recwords": ["shirt", "peanut", "cloud", "woman", "victim", "husband", "briefcase", "sandwich"], "key_times": [554, 682, 825, 961, 1170, 1433, 1764, 1898, 2025, 2187, 2618, 2787, 3050, 4890, 5010, 5228, 5379, 5635, 6001, 6552, 6610, 6738, 6898, 7002, 7226, 7531, 7610, 7794, 8034, 8139, 8315, 8529, 8874, 9058, 9194, 9419, 9762, 9867, 10027, 10218, 10370, 10618, 27604, 27915, 28138, 28317, 28547, 28923, 29067, 29154, 29338, 29521, 36626, 36739, 36858, 37315, 37716, 37826, 37954, 38067, 38273], "trial_type": "free-recall", "conditions": [24, 800, "v", 12000], "internal_node_id": "0.0-88.0-0.0", "key_presses": [83, 72, 73, 82, 84, 13, 80, 69, 65, 78, 85, 84, 13, 67, 76, 79, 85, 68, 13, 87, 79, 77, 65, 78, 13, 86, 73, 67, 84, 73, 77, 13, 72, 85, 83, 77, 8, 66, 65, 78, 68, 13, 66, 82, 73, 69, 70, 67, 65, 83, 69, 13, 83, 65, 78, 68, 87, 73, 67, 72, 13], "trial": 2, "time_elapsed": 666708, "type": "FREE_RECALL", "trial_index": 115}, "uniqueid": "MTK1786:3H7Z272LX8EK1HEIFC0D9GD1GN0LPX", "dateTime": 1516299596913}, {"current_trial": 116, "trialdata": {"rt": 1644, "trial_type": "text", "internal_node_id": "0.0-89.0", "time_elapsed": 670373, "key_press": 32, "type": "INSTRUCTIONS", "trial_index": 116}, "uniqueid": "MTK1786:3H7Z272LX8EK1HEIFC0D9GD1GN0LPX", "dateTime": 1516299600561}, {"current_trial": 117, "trialdata": {"rt": [4824, 7065, 10520, 14257, 16513, 19288, 21952], "trial_type": "math-distractor", "key_times": [3768, 4049, 4824, 6497, 6745, 7065, 9523, 9776, 10520, 13718, 13905, 14257, 16105, 16513, 18385, 18553, 19288, 21059, 21257, 21952], "responses": ["18", "17", "17", "14", "8", "11", "21"], "num2": [7, 2, 9, 6, 4, 1, 7, 7], "num3": [5, 7, 2, 3, 3, 4, 7, 2], "conditions": [12, 800, "v", 24000], "internal_node_id": "0.0-90.0", "key_presses": [97, 104, 13, 97, 103, 13, 97, 103, 13, 97, 100, 13, 104, 13, 97, 97, 13, 98, 97, 13], "trial": 3, "time_elapsed": 696379, "type": "DISTRACTOR", "trial_index": 117, "num1": [6, 8, 6, 5, 1, 6, 7, 8]}, "uniqueid": "MTK1786:3H7Z272LX8EK1HEIFC0D9GD1GN0LPX", "dateTime": 1516299626568}, {"current_trial": 118, "trialdata": {"rt": -1, "trial_type": "single-stim", "stimulus": "<p id=\"stim\">10</p>", "internal_node_id": "0.0-91.0-0.0", "time_elapsed": 699383, "key_press": -1, "trial_index": 118}, "uniqueid": "MTK1786:3H7Z272LX8EK1HEIFC0D9GD1GN0LPX", "dateTime": 1516299629572}, {"current_trial": 119, "trialdata": {"rt": -1, "trial_type": "single-stim", "stimulus": "<p id=\"stim\">9</p>", "internal_node_id": "0.0-91.0-1.0", "time_elapsed": 700386, "key_press": -1, "trial_index": 119}, "uniqueid": "MTK1786:3H7Z272LX8EK1HEIFC0D9GD1GN0LPX", "dateTime": 1516299630574}, {"current_trial": 120, "trialdata": {"rt": -1, "trial_type": "single-stim", "stimulus": "<p id=\"stim\">8</p>", "internal_node_id": "0.0-91.0-2.0", "time_elapsed": 701388, "key_press": -1, "trial_index": 120}, "uniqueid": "MTK1786:3H7Z272LX8EK1HEIFC0D9GD1GN0LPX", "dateTime": 1516299631576}, {"current_trial": 121, "trialdata": {"rt": -1, "trial_type": "single-stim", "stimulus": "<p id=\"stim\">7</p>", "internal_node_id": "0.0-91.0-3.0", "time_elapsed": 702391, "key_press": -1, "trial_index": 121}, "uniqueid": "MTK1786:3H7Z272LX8EK1HEIFC0D9GD1GN0LPX", "dateTime": 1516299632579}, {"current_trial": 122, "trialdata": {"rt": -1, "trial_type": "single-stim", "stimulus": "<p id=\"stim\">6</p>", "internal_node_id": "0.0-91.0-4.0", "time_elapsed": 703395, "key_press": -1, "trial_index": 122}, "uniqueid": "MTK1786:3H7Z272LX8EK1HEIFC0D9GD1GN0LPX", "dateTime": 1516299633583}, {"current_trial": 123, "trialdata": {"rt": -1, "trial_type": "single-stim", "stimulus": "<p id=\"stim\">5</p>", "internal_node_id": "0.0-91.0-5.0", "time_elapsed": 704397, "key_press": -1, "trial_index": 123}, "uniqueid": "MTK1786:3H7Z272LX8EK1HEIFC0D9GD1GN0LPX", "dateTime": 1516299634585}, {"current_trial": 124, "trialdata": {"rt": -1, "trial_type": "single-stim", "stimulus": "<p id=\"stim\">4</p>", "internal_node_id": "0.0-91.0-6.0", "time_elapsed": 705399, "key_press": -1, "trial_index": 124}, "uniqueid": "MTK1786:3H7Z272LX8EK1HEIFC0D9GD1GN0LPX", "dateTime": 1516299635587}, {"current_trial": 125, "trialdata": {"rt": -1, "trial_type": "single-stim", "stimulus": "<p id=\"stim\">3</p>", "internal_node_id": "0.0-91.0-7.0", "time_elapsed": 706401, "key_press": -1, "trial_index": 125}, "uniqueid": "MTK1786:3H7Z272LX8EK1HEIFC0D9GD1GN0LPX", "dateTime": 1516299636589}, {"current_trial": 126, "trialdata": {"rt": -1, "trial_type": "single-stim", "stimulus": "<p id=\"stim\">2</p>", "internal_node_id": "0.0-91.0-8.0", "time_elapsed": 707404, "key_press": -1, "trial_index": 126}, "uniqueid": "MTK1786:3H7Z272LX8EK1HEIFC0D9GD1GN0LPX", "dateTime": 1516299637593}, {"current_trial": 127, "trialdata": {"rt": -1, "trial_type": "single-stim", "stimulus": "<p id=\"stim\">1</p>", "internal_node_id": "0.0-91.0-9.0", "time_elapsed": 708407, "key_press": -1, "trial_index": 127}, "uniqueid": "MTK1786:3H7Z272LX8EK1HEIFC0D9GD1GN0LPX", "dateTime": 1516299638595}, {"current_trial": 128, "trialdata": {"rt": -1, "trial_type": "single-stim", "stimulus": "<p id=\"stim\">+</p>", "internal_node_id": "0.0-92.0-0.0", "time_elapsed": 709909, "key_press": -1, "type": "FIXATION", "trial_index": 128}, "uniqueid": "MTK1786:3H7Z272LX8EK1HEIFC0D9GD1GN0LPX", "dateTime": 1516299640098}, {"current_trial": 129, "trialdata": {"rt": -1, "trial_type": "single-stim", "word": "couch", "stimulus": "<p id=\"stim\">COUCH</p>", "conditions": [12, 800, "v", 24000], "internal_node_id": "0.0-93.0", "trial": 3, "time_elapsed": 710712, "serialpos": 0, "key_press": -1, "wordID": 385, "type": "PRES_VIS", "trial_index": 129}, "uniqueid": "MTK1786:3H7Z272LX8EK1HEIFC0D9GD1GN0LPX", "dateTime": 1516299640900}, {"current_trial": 130, "trialdata": {"rt": -1, "trial_type": "single-stim", "word": "lettuce", "stimulus": "<p id=\"stim\">LETTUCE</p>", "conditions": [12, 800, "v", 24000], "internal_node_id": "0.0-94.0", "trial": 3, "time_elapsed": 712478, "serialpos": 1, "key_press": -1, "wordID": 813, "type": "PRES_VIS", "trial_index": 130}, "uniqueid": "MTK1786:3H7Z272LX8EK1HEIFC0D9GD1GN0LPX", "dateTime": 1516299642666}, {"current_trial": 131, "trialdata": {"rt": -1, "trial_type": "single-stim", "word": "chapel", "stimulus": "<p id=\"stim\">CHAPEL</p>", "conditions": [12, 800, "v", 24000], "internal_node_id": "0.0-95.0", "trial": 3, "time_elapsed": 714272, "serialpos": 2, "key_press": -1, "wordID": 279, "type": "PRES_VIS", "trial_index": 131}, "uniqueid": "MTK1786:3H7Z272LX8EK1HEIFC0D9GD1GN0LPX", "dateTime": 1516299644460}, {"current_trial": 132, "trialdata": {"rt": -1, "trial_type": "single-stim", "word": "country", "stimulus": "<p id=\"stim\">COUNTRY</p>", "conditions": [12, 800, "v", 24000], "internal_node_id": "0.0-96.0", "trial": 3, "time_elapsed": 716275, "serialpos": 3, "key_press": -1, "wordID": 387, "type": "PRES_VIS", "trial_index": 132}, "uniqueid": "MTK1786:3H7Z272LX8EK1HEIFC0D9GD1GN0LPX", "dateTime": 1516299646463}, {"current_trial": 133, "trialdata": {"rt": -1, "trial_type": "single-stim", "word": "clothes", "stimulus": "<p id=\"stim\">CLOTHES</p>", "conditions": [12, 800, "v", 24000], "internal_node_id": "0.0-97.0", "trial": 3, "time_elapsed": 718130, "serialpos": 4, "key_press": -1, "wordID": 326, "type": "PRES_VIS", "trial_index": 133}, "uniqueid": "MTK1786:3H7Z272LX8EK1HEIFC0D9GD1GN0LPX", "dateTime": 1516299648318}, {"current_trial": 134, "trialdata": {"rt": -1, "trial_type": "single-stim", "word": "mattress", "stimulus": "<p id=\"stim\">MATTRESS</p>", "conditions": [12, 800, "v", 24000], "internal_node_id": "0.0-98.0", "trial": 3, "time_elapsed": 719962, "serialpos": 5, "key_press": -1, "wordID": 878, "type": "PRES_VIS", "trial_index": 134}, "uniqueid": "MTK1786:3H7Z272LX8EK1HEIFC0D9GD1GN0LPX", "dateTime": 1516299650151}, {"current_trial": 135, "trialdata": {"rt": -1, "trial_type": "single-stim", "word": "comet", "stimulus": "<p id=\"stim\">COMET</p>", "conditions": [12, 800, "v", 24000], "internal_node_id": "0.0-99.0", "trial": 3, "time_elapsed": 721633, "serialpos": 6, "key_press": -1, "wordID": 352, "type": "PRES_VIS", "trial_index": 135}, "uniqueid": "MTK1786:3H7Z272LX8EK1HEIFC0D9GD1GN0LPX", "dateTime": 1516299651821}, {"current_trial": 136, "trialdata": {"rt": -1, "trial_type": "single-stim", "word": "gift", "stimulus": "<p id=\"stim\">GIFT</p>", "conditions": [12, 800, "v", 24000], "internal_node_id": "0.0-100.0", "trial": 3, "time_elapsed": 723410, "serialpos": 7, "key_press": -1, "wordID": 634, "type": "PRES_VIS", "trial_index": 136}, "uniqueid": "MTK1786:3H7Z272LX8EK1HEIFC0D9GD1GN0LPX", "dateTime": 1516299653599}, {"current_trial": 137, "trialdata": {"rt": -1, "trial_type": "single-stim", "word": "apple", "stimulus": "<p id=\"stim\">APPLE</p>", "conditions": [12, 800, "v", 24000], "internal_node_id": "0.0-101.0", "trial": 3, "time_elapsed": 725029, "serialpos": 8, "key_press": -1, "wordID": 32, "type": "PRES_VIS", "trial_index": 137}, "uniqueid": "MTK1786:3H7Z272LX8EK1HEIFC0D9GD1GN0LPX", "dateTime": 1516299655217}, {"current_trial": 138, "trialdata": {"rt": -1, "trial_type": "single-stim", "word": "fragrance", "stimulus": "<p id=\"stim\">FRAGRANCE</p>", "conditions": [12, 800, "v", 24000], "internal_node_id": "0.0-102.0", "trial": 3, "time_elapsed": 726654, "serialpos": 9, "key_press": -1, "wordID": 598, "type": "PRES_VIS", "trial_index": 138}, "uniqueid": "MTK1786:3H7Z272LX8EK1HEIFC0D9GD1GN0LPX", "dateTime": 1516299656842}, {"current_trial": 139, "trialdata": {"rt": -1, "trial_type": "single-stim", "word": "beef", "stimulus": "<p id=\"stim\">BEEF</p>", "conditions": [12, 800, "v", 24000], "internal_node_id": "0.0-103.0", "trial": 3, "time_elapsed": 728277, "serialpos": 10, "key_press": -1, "wordID": 112, "type": "PRES_VIS", "trial_index": 139}, "uniqueid": "MTK1786:3H7Z272LX8EK1HEIFC0D9GD1GN0LPX", "dateTime": 1516299658468}, {"current_trial": 140, "trialdata": {"rt": -1, "trial_type": "single-stim", "word": "cattle", "stimulus": "<p id=\"stim\">CATTLE</p>", "conditions": [12, 800, "v", 24000], "internal_node_id": "0.0-104.0", "trial": 3, "time_elapsed": 730027, "serialpos": 11, "key_press": -1, "wordID": 260, "type": "PRES_VIS", "trial_index": 140}, "uniqueid": "MTK1786:3H7Z272LX8EK1HEIFC0D9GD1GN0LPX", "dateTime": 1516299660215}, {"current_trial": 141, "trialdata": {"rt": -1, "trial_type": "single-stim", "stimulus": "", "internal_node_id": "0.0-105.0-0.0", "time_elapsed": 732231, "key_press": -1, "type": "PRE_RECALL_DELAY", "trial_index": 141}, "uniqueid": "MTK1786:3H7Z272LX8EK1HEIFC0D9GD1GN0LPX", "dateTime": 1516299662419}, {"current_trial": 142, "trialdata": {"rt": -1000, "trial_type": "single-audio", "stimulus": "/static/audio/400Hz.wav", "internal_node_id": "0.0-106.0", "time_elapsed": 732748, "key_press": -1, "type": "PRE_RECALL_ALERT", "trial_index": 142}, "uniqueid": "MTK1786:3H7Z272LX8EK1HEIFC0D9GD1GN0LPX", "dateTime": 1516299662937}, {"current_trial": 143, "trialdata": {"rt": [1835, 3242, 4659, 7234, 9379], "recwords": ["beef", "cattle", "couch", "mattress", "lettuce"], "key_times": [827, 1098, 1259, 1467, 1835, 2268, 2396, 2635, 2787, 2947, 3044, 3242, 3883, 3963, 4140, 4323, 4420, 4659, 5060, 5180, 5356, 5507, 5700, 5740, 5980, 6115, 7234, 7748, 7875, 8243, 8372, 8588, 8780, 9076, 9379], "trial_type": "free-recall", "conditions": [12, 800, "v", 24000], "internal_node_id": "0.0-107.0-0.0", "key_presses": [66, 69, 69, 70, 13, 67, 65, 84, 84, 76, 69, 13, 67, 79, 85, 67, 72, 13, 77, 65, 84, 84, 82, 69, 83, 83, 13, 76, 69, 84, 84, 85, 67, 69, 13], "trial": 3, "time_elapsed": 792754, "type": "FREE_RECALL", "trial_index": 143}, "uniqueid": "MTK1786:3H7Z272LX8EK1HEIFC0D9GD1GN0LPX", "dateTime": 1516299722957}, {"current_trial": 144, "trialdata": {"rt": 1625, "trial_type": "text", "internal_node_id": "0.0-108.0", "time_elapsed": 796396, "key_press": 32, "type": "INSTRUCTIONS", "trial_index": 144}, "uniqueid": "MTK1786:3H7Z272LX8EK1HEIFC0D9GD1GN0LPX", "dateTime": 1516299726584}, {"current_trial": 145, "trialdata": {"rt": [4753, 9146, 11657], "trial_type": "math-distractor", "key_times": [3643, 3946, 4753, 8588, 8762, 9146, 11025, 11281, 11657], "responses": ["19", "21", "16"], "num2": [4, 6, 7, 3], "num3": [6, 9, 2, 3], "conditions": [12, 800, "v", 12000], "internal_node_id": "0.0-109.0", "key_presses": [97, 105, 13, 98, 97, 13, 97, 102, 13], "trial": 4, "time_elapsed": 810401, "type": "DISTRACTOR", "trial_index": 145, "num1": [9, 6, 7, 7]}, "uniqueid": "MTK1786:3H7Z272LX8EK1HEIFC0D9GD1GN0LPX", "dateTime": 1516299740591}, {"current_trial": 146, "trialdata": {"rt": -1, "trial_type": "single-stim", "stimulus": "<p id=\"stim\">10</p>", "internal_node_id": "0.0-110.0-0.0", "time_elapsed": 813405, "key_press": -1, "trial_index": 146}, "uniqueid": "MTK1786:3H7Z272LX8EK1HEIFC0D9GD1GN0LPX", "dateTime": 1516299743593}, {"current_trial": 147, "trialdata": {"rt": -1, "trial_type": "single-stim", "stimulus": "<p id=\"stim\">9</p>", "internal_node_id": "0.0-110.0-1.0", "time_elapsed": 814406, "key_press": -1, "trial_index": 147}, "uniqueid": "MTK1786:3H7Z272LX8EK1HEIFC0D9GD1GN0LPX", "dateTime": 1516299744594}, {"current_trial": 148, "trialdata": {"rt": -1, "trial_type": "single-stim", "stimulus": "<p id=\"stim\">8</p>", "internal_node_id": "0.0-110.0-2.0", "time_elapsed": 815407, "key_press": -1, "trial_index": 148}, "uniqueid": "MTK1786:3H7Z272LX8EK1HEIFC0D9GD1GN0LPX", "dateTime": 1516299745596}, {"current_trial": 149, "trialdata": {"rt": -1, "trial_type": "single-stim", "stimulus": "<p id=\"stim\">7</p>", "internal_node_id": "0.0-110.0-3.0", "time_elapsed": 816409, "key_press": -1, "trial_index": 149}, "uniqueid": "MTK1786:3H7Z272LX8EK1HEIFC0D9GD1GN0LPX", "dateTime": 1516299746597}, {"current_trial": 150, "trialdata": {"rt": -1, "trial_type": "single-stim", "stimulus": "<p id=\"stim\">6</p>", "internal_node_id": "0.0-110.0-4.0", "time_elapsed": 817411, "key_press": -1, "trial_index": 150}, "uniqueid": "MTK1786:3H7Z272LX8EK1HEIFC0D9GD1GN0LPX", "dateTime": 1516299747599}, {"current_trial": 151, "trialdata": {"rt": -1, "trial_type": "single-stim", "stimulus": "<p id=\"stim\">5</p>", "internal_node_id": "0.0-110.0-5.0", "time_elapsed": 818415, "key_press": -1, "trial_index": 151}, "uniqueid": "MTK1786:3H7Z272LX8EK1HEIFC0D9GD1GN0LPX", "dateTime": 1516299748603}, {"current_trial": 152, "trialdata": {"rt": -1, "trial_type": "single-stim", "stimulus": "<p id=\"stim\">4</p>", "internal_node_id": "0.0-110.0-6.0", "time_elapsed": 819418, "key_press": -1, "trial_index": 152}, "uniqueid": "MTK1786:3H7Z272LX8EK1HEIFC0D9GD1GN0LPX", "dateTime": 1516299749607}, {"current_trial": 153, "trialdata": {"rt": -1, "trial_type": "single-stim", "stimulus": "<p id=\"stim\">3</p>", "internal_node_id": "0.0-110.0-7.0", "time_elapsed": 820421, "key_press": -1, "trial_index": 153}, "uniqueid": "MTK1786:3H7Z272LX8EK1HEIFC0D9GD1GN0LPX", "dateTime": 1516299750609}, {"current_trial": 154, "trialdata": {"rt": -1, "trial_type": "single-stim", "stimulus": "<p id=\"stim\">2</p>", "internal_node_id": "0.0-110.0-8.0", "time_elapsed": 821424, "key_press": -1, "trial_index": 154}, "uniqueid": "MTK1786:3H7Z272LX8EK1HEIFC0D9GD1GN0LPX", "dateTime": 1516299751612}, {"current_trial": 155, "trialdata": {"rt": -1, "trial_type": "single-stim", "stimulus": "<p id=\"stim\">1</p>", "internal_node_id": "0.0-110.0-9.0", "time_elapsed": 822427, "key_press": -1, "trial_index": 155}, "uniqueid": "MTK1786:3H7Z272LX8EK1HEIFC0D9GD1GN0LPX", "dateTime": 1516299752615}, {"current_trial": 156, "trialdata": {"rt": -1, "trial_type": "single-stim", "stimulus": "<p id=\"stim\">+</p>", "internal_node_id": "0.0-111.0-0.0", "time_elapsed": 823930, "key_press": -1, "type": "FIXATION", "trial_index": 156}, "uniqueid": "MTK1786:3H7Z272LX8EK1HEIFC0D9GD1GN0LPX", "dateTime": 1516299754118}, {"current_trial": 157, "trialdata": {"rt": -1, "trial_type": "single-stim", "word": "swamp", "stimulus": "<p id=\"stim\">SWAMP</p>", "conditions": [12, 800, "v", 12000], "internal_node_id": "0.0-112.0", "trial": 4, "time_elapsed": 824736, "serialpos": 0, "key_press": -1, "wordID": 1415, "type": "PRES_VIS", "trial_index": 157}, "uniqueid": "MTK1786:3H7Z272LX8EK1HEIFC0D9GD1GN0LPX", "dateTime": 1516299754924}, {"current_trial": 158, "trialdata": {"rt": -1, "trial_type": "single-stim", "word": "cashew", "stimulus": "<p id=\"stim\">CASHEW</p>", "conditions": [12, 800, "v", 12000], "internal_node_id": "0.0-113.0", "trial": 4, "time_elapsed": 826649, "serialpos": 1, "key_press": -1, "wordID": 252, "type": "PRES_VIS", "trial_index": 158}, "uniqueid": "MTK1786:3H7Z272LX8EK1HEIFC0D9GD1GN0LPX", "dateTime": 1516299756838}, {"current_trial": 159, "trialdata": {"rt": -1, "trial_type": "single-stim", "word": "receipt", "stimulus": "<p id=\"stim\">RECEIPT</p>", "conditions": [12, 800, "v", 12000], "internal_node_id": "0.0-114.0", "trial": 4, "time_elapsed": 828342, "serialpos": 2, "key_press": -1, "wordID": 1172, "type": "PRES_VIS", "trial_index": 159}, "uniqueid": "MTK1786:3H7Z272LX8EK1HEIFC0D9GD1GN0LPX", "dateTime": 1516299758530}, {"current_trial": 160, "trialdata": {"rt": -1, "trial_type": "single-stim", "word": "tablet", "stimulus": "<p id=\"stim\">TABLET</p>", "conditions": [12, 800, "v", 12000], "internal_node_id": "0.0-115.0", "trial": 4, "time_elapsed": 829991, "serialpos": 3, "key_press": -1, "wordID": 1426, "type": "PRES_VIS", "trial_index": 160}, "uniqueid": "MTK1786:3H7Z272LX8EK1HEIFC0D9GD1GN0LPX", "dateTime": 1516299760179}, {"current_trial": 161, "trialdata": {"rt": -1, "trial_type": "single-stim", "word": "thief", "stimulus": "<p id=\"stim\">THIEF</p>", "conditions": [12, 800, "v", 12000], "internal_node_id": "0.0-116.0", "trial": 4, "time_elapsed": 831893, "serialpos": 4, "key_press": -1, "wordID": 1455, "type": "PRES_VIS", "trial_index": 161}, "uniqueid": "MTK1786:3H7Z272LX8EK1HEIFC0D9GD1GN0LPX", "dateTime": 1516299762082}, {"current_trial": 162, "trialdata": {"rt": -1, "trial_type": "single-stim", "word": "zipper", "stimulus": "<p id=\"stim\">ZIPPER</p>", "conditions": [12, 800, "v", 12000], "internal_node_id": "0.0-117.0", "trial": 4, "time_elapsed": 833628, "serialpos": 5, "key_press": -1, "wordID": 1635, "type": "PRES_VIS", "trial_index": 162}, "uniqueid": "MTK1786:3H7Z272LX8EK1HEIFC0D9GD1GN0LPX", "dateTime": 1516299763817}, {"current_trial": 163, "trialdata": {"rt": -1, "trial_type": "single-stim", "word": "garlic", "stimulus": "<p id=\"stim\">GARLIC</p>", "conditions": [12, 800, "v", 12000], "internal_node_id": "0.0-118.0", "trial": 4, "time_elapsed": 835280, "serialpos": 6, "key_press": -1, "wordID": 623, "type": "PRES_VIS", "trial_index": 163}, "uniqueid": "MTK1786:3H7Z272LX8EK1HEIFC0D9GD1GN0LPX", "dateTime": 1516299765468}, {"current_trial": 164, "trialdata": {"rt": -1, "trial_type": "single-stim", "word": "burglar", "stimulus": "<p id=\"stim\">BURGLAR</p>", "conditions": [12, 800, "v", 12000], "internal_node_id": "0.0-119.0", "trial": 4, "time_elapsed": 837243, "serialpos": 7, "key_press": -1, "wordID": 199, "type": "PRES_VIS", "trial_index": 164}, "uniqueid": "MTK1786:3H7Z272LX8EK1HEIFC0D9GD1GN0LPX", "dateTime": 1516299767431}, {"current_trial": 165, "trialdata": {"rt": -1, "trial_type": "single-stim", "word": "county", "stimulus": "<p id=\"stim\">COUNTY</p>", "conditions": [12, 800, "v", 12000], "internal_node_id": "0.0-120.0", "trial": 4, "time_elapsed": 838897, "serialpos": 8, "key_press": -1, "wordID": 388, "type": "PRES_VIS", "trial_index": 165}, "uniqueid": "MTK1786:3H7Z272LX8EK1HEIFC0D9GD1GN0LPX", "dateTime": 1516299769085}, {"current_trial": 166, "trialdata": {"rt": -1, "trial_type": "single-stim", "word": "sheriff", "stimulus": "<p id=\"stim\">SHERIFF</p>", "conditions": [12, 800, "v", 12000], "internal_node_id": "0.0-121.0", "trial": 4, "time_elapsed": 840795, "serialpos": 9, "key_press": -1, "wordID": 1283, "type": "PRES_VIS", "trial_index": 166}, "uniqueid": "MTK1786:3H7Z272LX8EK1HEIFC0D9GD1GN0LPX", "dateTime": 1516299770984}, {"current_trial": 167, "trialdata": {"rt": -1, "trial_type": "single-stim", "word": "costume", "stimulus": "<p id=\"stim\">COSTUME</p>", "conditions": [12, 800, "v", 12000], "internal_node_id": "0.0-122.0", "trial": 4, "time_elapsed": 842789, "serialpos": 10, "key_press": -1, "wordID": 382, "type": "PRES_VIS", "trial_index": 167}, "uniqueid": "MTK1786:3H7Z272LX8EK1HEIFC0D9GD1GN0LPX", "dateTime": 1516299772977}, {"current_trial": 168, "trialdata": {"rt": -1, "trial_type": "single-stim", "word": "student", "stimulus": "<p id=\"stim\">STUDENT</p>", "conditions": [12, 800, "v", 12000], "internal_node_id": "0.0-123.0", "trial": 4, "time_elapsed": 844744, "serialpos": 11, "key_press": -1, "wordID": 1394, "type": "PRES_VIS", "trial_index": 168}, "uniqueid": "MTK1786:3H7Z272LX8EK1HEIFC0D9GD1GN0LPX", "dateTime": 1516299774933}, {"current_trial": 169, "trialdata": {"rt": -1, "trial_type": "single-stim", "stimulus": "", "internal_node_id": "0.0-124.0-0.0", "time_elapsed": 846833, "key_press": -1, "type": "PRE_RECALL_DELAY", "trial_index": 169}, "uniqueid": "MTK1786:3H7Z272LX8EK1HEIFC0D9GD1GN0LPX", "dateTime": 1516299777021}, {"current_trial": 170, "trialdata": {"rt": -1000, "trial_type": "single-audio", "stimulus": "/static/audio/400Hz.wav", "internal_node_id": "0.0-125.0", "time_elapsed": 847353, "key_press": -1, "type": "PRE_RECALL_ALERT", "trial_index": 170}, "uniqueid": "MTK1786:3H7Z272LX8EK1HEIFC0D9GD1GN0LPX", "dateTime": 1516299777542}, {"current_trial": 171, "trialdata": {"rt": [2140, 4444, 6389, 38957], "recwords": ["cashew", "sheriff", "burglar", "garlic"], "key_times": [525, 716, 853, 1116, 1334, 1695, 2140, 3260, 3390, 3494, 3605, 3744, 3905, 4045, 4444, 5110, 5237, 5397, 5654, 5804, 5924, 6101, 6389, 37999, 38125, 38246, 38501, 38669, 38765, 38957], "trial_type": "free-recall", "conditions": [12, 800, "v", 12000], "internal_node_id": "0.0-126.0-0.0", "key_presses": [67, 65, 83, 72, 69, 87, 13, 83, 72, 69, 82, 73, 70, 70, 13, 66, 85, 82, 71, 76, 65, 82, 13, 71, 65, 82, 76, 73, 67, 13], "trial": 4, "time_elapsed": 907360, "type": "FREE_RECALL", "trial_index": 171}, "uniqueid": "MTK1786:3H7Z272LX8EK1HEIFC0D9GD1GN0LPX", "dateTime": 1516299837566}, {"current_trial": 172, "trialdata": {"rt": 2639, "trial_type": "text", "internal_node_id": "0.0-127.0", "time_elapsed": 912019, "key_press": 32, "type": "INSTRUCTIONS", "trial_index": 172}, "uniqueid": "MTK1786:3H7Z272LX8EK1HEIFC0D9GD1GN0LPX", "dateTime": 1516299842208}, {"current_trial": 173, "trialdata": {"rt": [2728, 6503, 9288, 12527, 16535, 19024, 22072], "trial_type": "math-distractor", "key_times": [2057, 2265, 2728, 5856, 6064, 6503, 8649, 8833, 9288, 11905, 12088, 12527, 13849, 14792, 15473, 15680, 16535, 18377, 18624, 19024, 21433, 21632, 22072], "responses": ["14", "20", "10", "12", "24", "16", "20"], "num2": [6, 8, 2, 3, 8, 6, 7, 5], "num3": [6, 9, 5, 4, 8, 5, 6, 8], "conditions": [24, 1600, "v", 24000], "internal_node_id": "0.0-128.0", "key_presses": [97, 100, 13, 98, 96, 13, 97, 96, 13, 97, 98, 13, 99, 8, 98, 100, 13, 97, 102, 13, 98, 96, 13], "trial": 5, "time_elapsed": 938054, "type": "DISTRACTOR", "trial_index": 173, "num1": [2, 3, 3, 5, 8, 5, 7, 7]}, "uniqueid": "MTK1786:3H7Z272LX8EK1HEIFC0D9GD1GN0LPX", "dateTime": 1516299868242}, {"current_trial": 174, "trialdata": {"rt": -1, "trial_type": "single-stim", "stimulus": "<p id=\"stim\">10</p>", "internal_node_id": "0.0-129.0-0.0", "time_elapsed": 941057, "key_press": -1, "trial_index": 174}, "uniqueid": "MTK1786:3H7Z272LX8EK1HEIFC0D9GD1GN0LPX", "dateTime": 1516299871245}, {"current_trial": 175, "trialdata": {"rt": -1, "trial_type": "single-stim", "stimulus": "<p id=\"stim\">9</p>", "internal_node_id": "0.0-129.0-1.0", "time_elapsed": 942059, "key_press": -1, "trial_index": 175}, "uniqueid": "MTK1786:3H7Z272LX8EK1HEIFC0D9GD1GN0LPX", "dateTime": 1516299872247}, {"current_trial": 176, "trialdata": {"rt": -1, "trial_type": "single-stim", "stimulus": "<p id=\"stim\">8</p>", "internal_node_id": "0.0-129.0-2.0", "time_elapsed": 943062, "key_press": -1, "trial_index": 176}, "uniqueid": "MTK1786:3H7Z272LX8EK1HEIFC0D9GD1GN0LPX", "dateTime": 1516299873250}, {"current_trial": 177, "trialdata": {"rt": -1, "trial_type": "single-stim", "stimulus": "<p id=\"stim\">7</p>", "internal_node_id": "0.0-129.0-3.0", "time_elapsed": 944065, "key_press": -1, "trial_index": 177}, "uniqueid": "MTK1786:3H7Z272LX8EK1HEIFC0D9GD1GN0LPX", "dateTime": 1516299874254}, {"current_trial": 178, "trialdata": {"rt": -1, "trial_type": "single-stim", "stimulus": "<p id=\"stim\">6</p>", "internal_node_id": "0.0-129.0-4.0", "time_elapsed": 945068, "key_press": -1, "trial_index": 178}, "uniqueid": "MTK1786:3H7Z272LX8EK1HEIFC0D9GD1GN0LPX", "dateTime": 1516299875257}, {"current_trial": 179, "trialdata": {"rt": -1, "trial_type": "single-stim", "stimulus": "<p id=\"stim\">5</p>", "internal_node_id": "0.0-129.0-5.0", "time_elapsed": 946072, "key_press": -1, "trial_index": 179}, "uniqueid": "MTK1786:3H7Z272LX8EK1HEIFC0D9GD1GN0LPX", "dateTime": 1516299876260}, {"current_trial": 180, "trialdata": {"rt": -1, "trial_type": "single-stim", "stimulus": "<p id=\"stim\">4</p>", "internal_node_id": "0.0-129.0-6.0", "time_elapsed": 947074, "key_press": -1, "trial_index": 180}, "uniqueid": "MTK1786:3H7Z272LX8EK1HEIFC0D9GD1GN0LPX", "dateTime": 1516299877263}, {"current_trial": 181, "trialdata": {"rt": -1, "trial_type": "single-stim", "stimulus": "<p id=\"stim\">3</p>", "internal_node_id": "0.0-129.0-7.0", "time_elapsed": 948077, "key_press": -1, "trial_index": 181}, "uniqueid": "MTK1786:3H7Z272LX8EK1HEIFC0D9GD1GN0LPX", "dateTime": 1516299878266}, {"current_trial": 182, "trialdata": {"rt": -1, "trial_type": "single-stim", "stimulus": "<p id=\"stim\">2</p>", "internal_node_id": "0.0-129.0-8.0", "time_elapsed": 949081, "key_press": -1, "trial_index": 182}, "uniqueid": "MTK1786:3H7Z272LX8EK1HEIFC0D9GD1GN0LPX", "dateTime": 1516299879272}, {"current_trial": 183, "trialdata": {"rt": -1, "trial_type": "single-stim", "stimulus": "<p id=\"stim\">1</p>", "internal_node_id": "0.0-129.0-9.0", "time_elapsed": 950086, "key_press": -1, "trial_index": 183}, "uniqueid": "MTK1786:3H7Z272LX8EK1HEIFC0D9GD1GN0LPX", "dateTime": 1516299880274}, {"current_trial": 184, "trialdata": {"rt": -1, "trial_type": "single-stim", "stimulus": "<p id=\"stim\">+</p>", "internal_node_id": "0.0-130.0-0.0", "time_elapsed": 951588, "key_press": -1, "type": "FIXATION", "trial_index": 184}, "uniqueid": "MTK1786:3H7Z272LX8EK1HEIFC0D9GD1GN0LPX", "dateTime": 1516299881777}, {"current_trial": 185, "trialdata": {"rt": -1, "trial_type": "single-stim", "word": "blockade", "stimulus": "<p id=\"stim\">BLOCKADE</p>", "conditions": [24, 1600, "v", 24000], "internal_node_id": "0.0-131.0", "trial": 5, "time_elapsed": 953191, "serialpos": 0, "key_press": -1, "wordID": 136, "type": "PRES_VIS", "trial_index": 185}, "uniqueid": "MTK1786:3H7Z272LX8EK1HEIFC0D9GD1GN0LPX", "dateTime": 1516299883380}, {"current_trial": 186, "trialdata": {"rt": -1, "trial_type": "single-stim", "word": "army", "stimulus": "<p id=\"stim\">ARMY</p>", "conditions": [24, 1600, "v", 24000], "internal_node_id": "0.0-132.0", "trial": 5, "time_elapsed": 955946, "serialpos": 1, "key_press": -1, "wordID": 38, "type": "PRES_VIS", "trial_index": 186}, "uniqueid": "MTK1786:3H7Z272LX8EK1HEIFC0D9GD1GN0LPX", "dateTime": 1516299886135}, {"current_trial": 187, "trialdata": {"rt": -1, "trial_type": "single-stim", "word": "donor", "stimulus": "<p id=\"stim\">DONOR</p>", "conditions": [24, 1600, "v", 24000], "internal_node_id": "0.0-133.0", "trial": 5, "time_elapsed": 958652, "serialpos": 2, "key_press": -1, "wordID": 484, "type": "PRES_VIS", "trial_index": 187}, "uniqueid": "MTK1786:3H7Z272LX8EK1HEIFC0D9GD1GN0LPX", "dateTime": 1516299888840}, {"current_trial": 188, "trialdata": {"rt": -1, "trial_type": "single-stim", "word": "supper", "stimulus": "<p id=\"stim\">SUPPER</p>", "conditions": [24, 1600, "v", 24000], "internal_node_id": "0.0-134.0", "trial": 5, "time_elapsed": 961373, "serialpos": 3, "key_press": -1, "wordID": 1410, "type": "PRES_VIS", "trial_index": 188}, "uniqueid": "MTK1786:3H7Z272LX8EK1HEIFC0D9GD1GN0LPX", "dateTime": 1516299891562}, {"current_trial": 189, "trialdata": {"rt": -1, "trial_type": "single-stim", "word": "crib", "stimulus": "<p id=\"stim\">CRIB</p>", "conditions": [24, 1600, "v", 24000], "internal_node_id": "0.0-135.0", "trial": 5, "time_elapsed": 963929, "serialpos": 4, "key_press": -1, "wordID": 406, "type": "PRES_VIS", "trial_index": 189}, "uniqueid": "MTK1786:3H7Z272LX8EK1HEIFC0D9GD1GN0LPX", "dateTime": 1516299894117}, {"current_trial": 190, "trialdata": {"rt": -1, "trial_type": "single-stim", "word": "machine", "stimulus": "<p id=\"stim\">MACHINE</p>", "conditions": [24, 1600, "v", 24000], "internal_node_id": "0.0-136.0", "trial": 5, "time_elapsed": 966413, "serialpos": 5, "key_press": -1, "wordID": 851, "type": "PRES_VIS", "trial_index": 190}, "uniqueid": "MTK1786:3H7Z272LX8EK1HEIFC0D9GD1GN0LPX", "dateTime": 1516299896601}, {"current_trial": 191, "trialdata": {"rt": -1, "trial_type": "single-stim", "word": "sister", "stimulus": "<p id=\"stim\">SISTER</p>", "conditions": [24, 1600, "v", 24000], "internal_node_id": "0.0-137.0", "trial": 5, "time_elapsed": 968849, "serialpos": 6, "key_press": -1, "wordID": 1311, "type": "PRES_VIS", "trial_index": 191}, "uniqueid": "MTK1786:3H7Z272LX8EK1HEIFC0D9GD1GN0LPX", "dateTime": 1516299899038}, {"current_trial": 192, "trialdata": {"rt": -1, "trial_type": "single-stim", "word": "infant", "stimulus": "<p id=\"stim\">INFANT</p>", "conditions": [24, 1600, "v", 24000], "internal_node_id": "0.0-138.0", "trial": 5, "time_elapsed": 971599, "serialpos": 7, "key_press": -1, "wordID": 736, "type": "PRES_VIS", "trial_index": 192}, "uniqueid": "MTK1786:3H7Z272LX8EK1HEIFC0D9GD1GN0LPX", "dateTime": 1516299901787}, {"current_trial": 193, "trialdata": {"rt": -1, "trial_type": "single-stim", "word": "fleet", "stimulus": "<p id=\"stim\">FLEET</p>", "conditions": [24, 1600, "v", 24000], "internal_node_id": "0.0-139.0", "trial": 5, "time_elapsed": 974054, "serialpos": 8, "key_press": -1, "wordID": 577, "type": "PRES_VIS", "trial_index": 193}, "uniqueid": "MTK1786:3H7Z272LX8EK1HEIFC0D9GD1GN0LPX", "dateTime": 1516299904242}, {"current_trial": 194, "trialdata": {"rt": -1, "trial_type": "single-stim", "word": "donkey", "stimulus": "<p id=\"stim\">DONKEY</p>", "conditions": [24, 1600, "v", 24000], "internal_node_id": "0.0-140.0", "trial": 5, "time_elapsed": 976713, "serialpos": 9, "key_press": -1, "wordID": 483, "type": "PRES_VIS", "trial_index": 194}, "uniqueid": "MTK1786:3H7Z272LX8EK1HEIFC0D9GD1GN0LPX", "dateTime": 1516299906901}, {"current_trial": 195, "trialdata": {"rt": -1, "trial_type": "single-stim", "word": "camel", "stimulus": "<p id=\"stim\">CAMEL</p>", "conditions": [24, 1600, "v", 24000], "internal_node_id": "0.0-141.0", "trial": 5, "time_elapsed": 979407, "serialpos": 10, "key_press": -1, "wordID": 222, "type": "PRES_VIS", "trial_index": 195}, "uniqueid": "MTK1786:3H7Z272LX8EK1HEIFC0D9GD1GN0LPX", "dateTime": 1516299909595}, {"current_trial": 196, "trialdata": {"rt": -1, "trial_type": "single-stim", "word": "cod", "stimulus": "<p id=\"stim\">COD</p>", "conditions": [24, 1600, "v", 24000], "internal_node_id": "0.0-142.0", "trial": 5, "time_elapsed": 982194, "serialpos": 11, "key_press": -1, "wordID": 339, "type": "PRES_VIS", "trial_index": 196}, "uniqueid": "MTK1786:3H7Z272LX8EK1HEIFC0D9GD1GN0LPX", "dateTime": 1516299912383}, {"current_trial": 197, "trialdata": {"rt": -1, "trial_type": "single-stim", "word": "notebook", "stimulus": "<p id=\"stim\">NOTEBOOK</p>", "conditions": [24, 1600, "v", 24000], "internal_node_id": "0.0-143.0", "trial": 5, "time_elapsed": 984885, "serialpos": 12, "key_press": -1, "wordID": 958, "type": "PRES_VIS", "trial_index": 197}, "uniqueid": "MTK1786:3H7Z272LX8EK1HEIFC0D9GD1GN0LPX", "dateTime": 1516299915073}, {"current_trial": 198, "trialdata": {"rt": -1, "trial_type": "single-stim", "word": "hook", "stimulus": "<p id=\"stim\">HOOK</p>", "conditions": [24, 1600, "v", 24000], "internal_node_id": "0.0-144.0", "trial": 5, "time_elapsed": 987348, "serialpos": 13, "key_press": -1, "wordID": 714, "type": "PRES_VIS", "trial_index": 198}, "uniqueid": "MTK1786:3H7Z272LX8EK1HEIFC0D9GD1GN0LPX", "dateTime": 1516299917536}, {"current_trial": 199, "trialdata": {"rt": -1, "trial_type": "single-stim", "word": "france", "stimulus": "<p id=\"stim\">FRANCE</p>", "conditions": [24, 1600, "v", 24000], "internal_node_id": "0.0-145.0", "trial": 5, "time_elapsed": 989778, "serialpos": 14, "key_press": -1, "wordID": 600, "type": "PRES_VIS", "trial_index": 199}, "uniqueid": "MTK1786:3H7Z272LX8EK1HEIFC0D9GD1GN0LPX", "dateTime": 1516299919966}, {"current_trial": 200, "trialdata": {"rt": -1, "trial_type": "single-stim", "word": "egypt", "stimulus": "<p id=\"stim\">EGYPT</p>", "conditions": [24, 1600, "v", 24000], "internal_node_id": "0.0-146.0", "trial": 5, "time_elapsed": 992332, "serialpos": 15, "key_press": -1, "wordID": 518, "type": "PRES_VIS", "trial_index": 200}, "uniqueid": "MTK1786:3H7Z272LX8EK1HEIFC0D9GD1GN0LPX", "dateTime": 1516299922520}, {"current_trial": 201, "trialdata": {"rt": -1, "trial_type": "single-stim", "word": "wrist", "stimulus": "<p id=\"stim\">WRIST</p>", "conditions": [24, 1600, "v", 24000], "internal_node_id": "0.0-147.0", "trial": 5, "time_elapsed": 994792, "serialpos": 16, "key_press": -1, "wordID": 1625, "type": "PRES_VIS", "trial_index": 201}, "uniqueid": "MTK1786:3H7Z272LX8EK1HEIFC0D9GD1GN0LPX", "dateTime": 1516299924981}, {"current_trial": 202, "trialdata": {"rt": -1, "trial_type": "single-stim", "word": "ointment", "stimulus": "<p id=\"stim\">OINTMENT</p>", "conditions": [24, 1600, "v", 24000], "internal_node_id": "0.0-148.0", "trial": 5, "time_elapsed": 997424, "serialpos": 17, "key_press": -1, "wordID": 973, "type": "PRES_VIS", "trial_index": 202}, "uniqueid": "MTK1786:3H7Z272LX8EK1HEIFC0D9GD1GN0LPX", "dateTime": 1516299927613}, {"current_trial": 203, "trialdata": {"rt": -1, "trial_type": "single-stim", "word": "parsley", "stimulus": "<p id=\"stim\">PARSLEY</p>", "conditions": [24, 1600, "v", 24000], "internal_node_id": "0.0-149.0", "trial": 5, "time_elapsed": 1000016, "serialpos": 18, "key_press": -1, "wordID": 1015, "type": "PRES_VIS", "trial_index": 203}, "uniqueid": "MTK1786:3H7Z272LX8EK1HEIFC0D9GD1GN0LPX", "dateTime": 1516299930205}, {"current_trial": 204, "trialdata": {"rt": -1, "trial_type": "single-stim", "word": "padding", "stimulus": "<p id=\"stim\">PADDING</p>", "conditions": [24, 1600, "v", 24000], "internal_node_id": "0.0-150.0", "trial": 5, "time_elapsed": 1002479, "serialpos": 19, "key_press": -1, "wordID": 998, "type": "PRES_VIS", "trial_index": 204}, "uniqueid": "MTK1786:3H7Z272LX8EK1HEIFC0D9GD1GN0LPX", "dateTime": 1516299932667}, {"current_trial": 205, "trialdata": {"rt": -1, "trial_type": "single-stim", "word": "beaker", "stimulus": "<p id=\"stim\">BEAKER</p>", "conditions": [24, 1600, "v", 24000], "internal_node_id": "0.0-151.0", "trial": 5, "time_elapsed": 1005023, "serialpos": 20, "key_press": -1, "wordID": 103, "type": "PRES_VIS", "trial_index": 205}, "uniqueid": "MTK1786:3H7Z272LX8EK1HEIFC0D9GD1GN0LPX", "dateTime": 1516299935212}, {"current_trial": 206, "trialdata": {"rt": -1, "trial_type": "single-stim", "word": "flask", "stimulus": "<p id=\"stim\">FLASK</p>", "conditions": [24, 1600, "v", 24000], "internal_node_id": "0.0-152.0", "trial": 5, "time_elapsed": 1007807, "serialpos": 21, "key_press": -1, "wordID": 575, "type": "PRES_VIS", "trial_index": 206}, "uniqueid": "MTK1786:3H7Z272LX8EK1HEIFC0D9GD1GN0LPX", "dateTime": 1516299937995}, {"current_trial": 207, "trialdata": {"rt": -1, "trial_type": "single-stim", "word": "outdoors", "stimulus": "<p id=\"stim\">OUTDOORS</p>", "conditions": [24, 1600, "v", 24000], "internal_node_id": "0.0-153.0", "trial": 5, "time_elapsed": 1010461, "serialpos": 22, "key_press": -1, "wordID": 986, "type": "PRES_VIS", "trial_index": 207}, "uniqueid": "MTK1786:3H7Z272LX8EK1HEIFC0D9GD1GN0LPX", "dateTime": 1516299940649}, {"current_trial": 208, "trialdata": {"rt": -1, "trial_type": "single-stim", "word": "pepper", "stimulus": "<p id=\"stim\">PEPPER</p>", "conditions": [24, 1600, "v", 24000], "internal_node_id": "0.0-154.0", "trial": 5, "time_elapsed": 1013136, "serialpos": 23, "key_press": -1, "wordID": 1046, "type": "PRES_VIS", "trial_index": 208}, "uniqueid": "MTK1786:3H7Z272LX8EK1HEIFC0D9GD1GN0LPX", "dateTime": 1516299943324}, {"current_trial": 209, "trialdata": {"rt": -1, "trial_type": "single-stim", "stimulus": "", "internal_node_id": "0.0-155.0-0.0", "time_elapsed": 1015580, "key_press": -1, "type": "PRE_RECALL_DELAY", "trial_index": 209}, "uniqueid": "MTK1786:3H7Z272LX8EK1HEIFC0D9GD1GN0LPX", "dateTime": 1516299945769}, {"current_trial": 210, "trialdata": {"rt": -1000, "trial_type": "single-audio", "stimulus": "/static/audio/400Hz.wav", "internal_node_id": "0.0-156.0", "time_elapsed": 1016105, "key_press": -1, "type": "PRE_RECALL_ALERT", "trial_index": 210}, "uniqueid": "MTK1786:3H7Z272LX8EK1HEIFC0D9GD1GN0LPX", "dateTime": 1516299946294}, {"current_trial": 211, "trialdata": {"rt": [1915, 3914, 5331, 6787, 8394, 9722, 16794, 21923, 23171, 32099, 35747], "recwords": ["pepper", "beaker", "flask", "infant", "sister", "army", "notebook", "egypt", "france", "donkey", "camel"], "key_times": [572, 826, 1034, 1188, 1348, 1443, 1915, 2252, 2515, 2667, 3259, 3427, 3515, 3914, 4412, 4534, 4683, 4812, 4939, 5331, 5852, 5979, 6115, 6244, 6356, 6619, 6787, 7076, 7139, 7284, 7844, 8092, 8195, 8394, 8755, 8902, 9043, 9332, 9722, 15284, 15388, 15492, 15675, 16148, 16227, 16388, 16499, 16794, 20203, 20420, 21035, 21267, 21420, 21923, 22196, 22419, 22523, 22652, 22859, 22996, 23171, 31116, 31219, 31307, 31555, 31699, 31876, 32099, 34980, 35117, 35212, 35411, 35523, 35747], "trial_type": "free-recall", "conditions": [24, 1600, "v", 24000], "internal_node_id": "0.0-157.0-0.0", "key_presses": [80, 69, 80, 80, 69, 82, 13, 66, 69, 65, 75, 69, 82, 13, 70, 76, 65, 83, 75, 13, 73, 78, 70, 65, 78, 84, 13, 83, 73, 83, 84, 69, 82, 13, 65, 82, 77, 89, 13, 78, 79, 84, 69, 66, 79, 79, 75, 13, 69, 71, 89, 80, 84, 13, 70, 82, 65, 78, 67, 69, 13, 68, 79, 78, 75, 69, 89, 13, 67, 65, 77, 69, 76, 13], "trial": 5, "time_elapsed": 1076113, "type": "FREE_RECALL", "trial_index": 211}, "uniqueid": "MTK1786:3H7Z272LX8EK1HEIFC0D9GD1GN0LPX", "dateTime": 1516300006306}, {"current_trial": 212, "trialdata": {"rt": 1035, "trial_type": "text", "internal_node_id": "0.0-158.0", "time_elapsed": 1079156, "key_press": 32, "type": "INSTRUCTIONS", "trial_index": 212}, "uniqueid": "MTK1786:3H7Z272LX8EK1HEIFC0D9GD1GN0LPX", "dateTime": 1516300009344}, {"current_trial": 213, "trialdata": {"rt": [3137, 5522, 7889, 11154], "trial_type": "math-distractor", "key_times": [2427, 3137, 5027, 5522, 7171, 7370, 7889, 10555, 10755, 11154], "responses": ["8", "8", "10", "15"], "num2": [4, 5, 1, 5, 3], "num3": [3, 1, 2, 3, 8], "conditions": [24, 1600, "v", 12000], "internal_node_id": "0.0-159.0", "key_presses": [104, 13, 104, 13, 97, 96, 13, 97, 101, 13], "trial": 6, "time_elapsed": 1093162, "type": "DISTRACTOR", "trial_index": 213, "num1": [1, 2, 7, 7, 4]}, "uniqueid": "MTK1786:3H7Z272LX8EK1HEIFC0D9GD1GN0LPX", "dateTime": 1516300023350}, {"current_trial": 214, "trialdata": {"rt": -1, "trial_type": "single-stim", "stimulus": "<p id=\"stim\">10</p>", "internal_node_id": "0.0-160.0-0.0", "time_elapsed": 1096165, "key_press": -1, "trial_index": 214}, "uniqueid": "MTK1786:3H7Z272LX8EK1HEIFC0D9GD1GN0LPX", "dateTime": 1516300026353}, {"current_trial": 215, "trialdata": {"rt": -1, "trial_type": "single-stim", "stimulus": "<p id=\"stim\">9</p>", "internal_node_id": "0.0-160.0-1.0", "time_elapsed": 1097167, "key_press": -1, "trial_index": 215}, "uniqueid": "MTK1786:3H7Z272LX8EK1HEIFC0D9GD1GN0LPX", "dateTime": 1516300027355}, {"current_trial": 216, "trialdata": {"rt": -1, "trial_type": "single-stim", "stimulus": "<p id=\"stim\">8</p>", "internal_node_id": "0.0-160.0-2.0", "time_elapsed": 1098170, "key_press": -1, "trial_index": 216}, "uniqueid": "MTK1786:3H7Z272LX8EK1HEIFC0D9GD1GN0LPX", "dateTime": 1516300028358}, {"current_trial": 217, "trialdata": {"rt": -1, "trial_type": "single-stim", "stimulus": "<p id=\"stim\">7</p>", "internal_node_id": "0.0-160.0-3.0", "time_elapsed": 1099172, "key_press": -1, "trial_index": 217}, "uniqueid": "MTK1786:3H7Z272LX8EK1HEIFC0D9GD1GN0LPX", "dateTime": 1516300029360}, {"current_trial": 218, "trialdata": {"rt": -1, "trial_type": "single-stim", "stimulus": "<p id=\"stim\">6</p>", "internal_node_id": "0.0-160.0-4.0", "time_elapsed": 1100175, "key_press": -1, "trial_index": 218}, "uniqueid": "MTK1786:3H7Z272LX8EK1HEIFC0D9GD1GN0LPX", "dateTime": 1516300030364}, {"current_trial": 219, "trialdata": {"rt": -1, "trial_type": "single-stim", "stimulus": "<p id=\"stim\">5</p>", "internal_node_id": "0.0-160.0-5.0", "time_elapsed": 1101178, "key_press": -1, "trial_index": 219}, "uniqueid": "MTK1786:3H7Z272LX8EK1HEIFC0D9GD1GN0LPX", "dateTime": 1516300031366}, {"current_trial": 220, "trialdata": {"rt": -1, "trial_type": "single-stim", "stimulus": "<p id=\"stim\">4</p>", "internal_node_id": "0.0-160.0-6.0", "time_elapsed": 1102181, "key_press": -1, "trial_index": 220}, "uniqueid": "MTK1786:3H7Z272LX8EK1HEIFC0D9GD1GN0LPX", "dateTime": 1516300032369}, {"current_trial": 221, "trialdata": {"rt": -1, "trial_type": "single-stim", "stimulus": "<p id=\"stim\">3</p>", "internal_node_id": "0.0-160.0-7.0", "time_elapsed": 1103183, "key_press": -1, "trial_index": 221}, "uniqueid": "MTK1786:3H7Z272LX8EK1HEIFC0D9GD1GN0LPX", "dateTime": 1516300033371}, {"current_trial": 222, "trialdata": {"rt": -1, "trial_type": "single-stim", "stimulus": "<p id=\"stim\">2</p>", "internal_node_id": "0.0-160.0-8.0", "time_elapsed": 1104187, "key_press": -1, "trial_index": 222}, "uniqueid": "MTK1786:3H7Z272LX8EK1HEIFC0D9GD1GN0LPX", "dateTime": 1516300034375}, {"current_trial": 223, "trialdata": {"rt": -1, "trial_type": "single-stim", "stimulus": "<p id=\"stim\">1</p>", "internal_node_id": "0.0-160.0-9.0", "time_elapsed": 1105189, "key_press": -1, "trial_index": 223}, "uniqueid": "MTK1786:3H7Z272LX8EK1HEIFC0D9GD1GN0LPX", "dateTime": 1516300035377}, {"current_trial": 224, "trialdata": {"rt": -1, "trial_type": "single-stim", "stimulus": "<p id=\"stim\">+</p>", "internal_node_id": "0.0-161.0-0.0", "time_elapsed": 1106691, "key_press": -1, "type": "FIXATION", "trial_index": 224}, "uniqueid": "MTK1786:3H7Z272LX8EK1HEIFC0D9GD1GN0LPX", "dateTime": 1516300036879}, {"current_trial": 225, "trialdata": {"rt": -1, "trial_type": "single-stim", "word": "hound", "stimulus": "<p id=\"stim\">HOUND</p>", "conditions": [24, 1600, "v", 12000], "internal_node_id": "0.0-162.0", "trial": 6, "time_elapsed": 1108294, "serialpos": 0, "key_press": -1, "wordID": 723, "type": "PRES_VIS", "trial_index": 225}, "uniqueid": "MTK1786:3H7Z272LX8EK1HEIFC0D9GD1GN0LPX", "dateTime": 1516300038483}, {"current_trial": 226, "trialdata": {"rt": -1, "trial_type": "single-stim", "word": "mailman", "stimulus": "<p id=\"stim\">MAILMAN</p>", "conditions": [24, 1600, "v", 12000], "internal_node_id": "0.0-163.0", "trial": 6, "time_elapsed": 1110907, "serialpos": 1, "key_press": -1, "wordID": 857, "type": "PRES_VIS", "trial_index": 226}, "uniqueid": "MTK1786:3H7Z272LX8EK1HEIFC0D9GD1GN0LPX", "dateTime": 1516300041095}, {"current_trial": 227, "trialdata": {"rt": -1, "trial_type": "single-stim", "word": "pastry", "stimulus": "<p id=\"stim\">PASTRY</p>", "conditions": [24, 1600, "v", 12000], "internal_node_id": "0.0-164.0", "trial": 6, "time_elapsed": 1113385, "serialpos": 2, "key_press": -1, "wordID": 1021, "type": "PRES_VIS", "trial_index": 227}, "uniqueid": "MTK1786:3H7Z272LX8EK1HEIFC0D9GD1GN0LPX", "dateTime": 1516300043574}, {"current_trial": 228, "trialdata": {"rt": -1, "trial_type": "single-stim", "word": "glass", "stimulus": "<p id=\"stim\">GLASS</p>", "conditions": [24, 1600, "v", 12000], "internal_node_id": "0.0-165.0", "trial": 6, "time_elapsed": 1115864, "serialpos": 3, "key_press": -1, "wordID": 638, "type": "PRES_VIS", "trial_index": 228}, "uniqueid": "MTK1786:3H7Z272LX8EK1HEIFC0D9GD1GN0LPX", "dateTime": 1516300046052}, {"current_trial": 229, "trialdata": {"rt": -1, "trial_type": "single-stim", "word": "truck", "stimulus": "<p id=\"stim\">TRUCK</p>", "conditions": [24, 1600, "v", 12000], "internal_node_id": "0.0-166.0", "trial": 6, "time_elapsed": 1118564, "serialpos": 4, "key_press": -1, "wordID": 1511, "type": "PRES_VIS", "trial_index": 229}, "uniqueid": "MTK1786:3H7Z272LX8EK1HEIFC0D9GD1GN0LPX", "dateTime": 1516300048752}, {"current_trial": 230, "trialdata": {"rt": -1, "trial_type": "single-stim", "word": "hiker", "stimulus": "<p id=\"stim\">HIKER</p>", "conditions": [24, 1600, "v", 12000], "internal_node_id": "0.0-167.0", "trial": 6, "time_elapsed": 1121205, "serialpos": 5, "key_press": -1, "wordID": 707, "type": "PRES_VIS", "trial_index": 230}, "uniqueid": "MTK1786:3H7Z272LX8EK1HEIFC0D9GD1GN0LPX", "dateTime": 1516300051394}, {"current_trial": 231, "trialdata": {"rt": -1, "trial_type": "single-stim", "word": "gallon", "stimulus": "<p id=\"stim\">GALLON</p>", "conditions": [24, 1600, "v", 12000], "internal_node_id": "0.0-168.0", "trial": 6, "time_elapsed": 1123987, "serialpos": 6, "key_press": -1, "wordID": 617, "type": "PRES_VIS", "trial_index": 231}, "uniqueid": "MTK1786:3H7Z272LX8EK1HEIFC0D9GD1GN0LPX", "dateTime": 1516300054176}, {"current_trial": 232, "trialdata": {"rt": -1, "trial_type": "single-stim", "word": "cowboy", "stimulus": "<p id=\"stim\">COWBOY</p>", "conditions": [24, 1600, "v", 12000], "internal_node_id": "0.0-169.0", "trial": 6, "time_elapsed": 1126663, "serialpos": 7, "key_press": -1, "wordID": 394, "type": "PRES_VIS", "trial_index": 232}, "uniqueid": "MTK1786:3H7Z272LX8EK1HEIFC0D9GD1GN0LPX", "dateTime": 1516300056851}, {"current_trial": 233, "trialdata": {"rt": -1, "trial_type": "single-stim", "word": "muffin", "stimulus": "<p id=\"stim\">MUFFIN</p>", "conditions": [24, 1600, "v", 12000], "internal_node_id": "0.0-170.0", "trial": 6, "time_elapsed": 1129315, "serialpos": 8, "key_press": -1, "wordID": 928, "type": "PRES_VIS", "trial_index": 233}, "uniqueid": "MTK1786:3H7Z272LX8EK1HEIFC0D9GD1GN0LPX", "dateTime": 1516300059504}, {"current_trial": 234, "trialdata": {"rt": -1, "trial_type": "single-stim", "word": "fox", "stimulus": "<p id=\"stim\">FOX</p>", "conditions": [24, 1600, "v", 12000], "internal_node_id": "0.0-171.0", "trial": 6, "time_elapsed": 1131848, "serialpos": 9, "key_press": -1, "wordID": 597, "type": "PRES_VIS", "trial_index": 234}, "uniqueid": "MTK1786:3H7Z272LX8EK1HEIFC0D9GD1GN0LPX", "dateTime": 1516300062037}, {"current_trial": 235, "trialdata": {"rt": -1, "trial_type": "single-stim", "word": "pigeon", "stimulus": "<p id=\"stim\">PIGEON</p>", "conditions": [24, 1600, "v", 12000], "internal_node_id": "0.0-172.0", "trial": 6, "time_elapsed": 1134493, "serialpos": 10, "key_press": -1, "wordID": 1064, "type": "PRES_VIS", "trial_index": 235}, "uniqueid": "MTK1786:3H7Z272LX8EK1HEIFC0D9GD1GN0LPX", "dateTime": 1516300064681}, {"current_trial": 236, "trialdata": {"rt": -1, "trial_type": "single-stim", "word": "chipmunk", "stimulus": "<p id=\"stim\">CHIPMUNK</p>", "conditions": [24, 1600, "v", 12000], "internal_node_id": "0.0-173.0", "trial": 6, "time_elapsed": 1137082, "serialpos": 11, "key_press": -1, "wordID": 303, "type": "PRES_VIS", "trial_index": 236}, "uniqueid": "MTK1786:3H7Z272LX8EK1HEIFC0D9GD1GN0LPX", "dateTime": 1516300067270}, {"current_trial": 237, "trialdata": {"rt": -1, "trial_type": "single-stim", "word": "valve", "stimulus": "<p id=\"stim\">VALVE</p>", "conditions": [24, 1600, "v", 12000], "internal_node_id": "0.0-174.0", "trial": 6, "time_elapsed": 1139816, "serialpos": 12, "key_press": -1, "wordID": 1545, "type": "PRES_VIS", "trial_index": 237}, "uniqueid": "MTK1786:3H7Z272LX8EK1HEIFC0D9GD1GN0LPX", "dateTime": 1516300070004}, {"current_trial": 238, "trialdata": {"rt": -1, "trial_type": "single-stim", "word": "snack", "stimulus": "<p id=\"stim\">SNACK</p>", "conditions": [24, 1600, "v", 12000], "internal_node_id": "0.0-175.0", "trial": 6, "time_elapsed": 1142395, "serialpos": 13, "key_press": -1, "wordID": 1330, "type": "PRES_VIS", "trial_index": 238}, "uniqueid": "MTK1786:3H7Z272LX8EK1HEIFC0D9GD1GN0LPX", "dateTime": 1516300072583}, {"current_trial": 239, "trialdata": {"rt": -1, "trial_type": "single-stim", "word": "lunch", "stimulus": "<p id=\"stim\">LUNCH</p>", "conditions": [24, 1600, "v", 12000], "internal_node_id": "0.0-176.0", "trial": 6, "time_elapsed": 1145068, "serialpos": 14, "key_press": -1, "wordID": 848, "type": "PRES_VIS", "trial_index": 239}, "uniqueid": "MTK1786:3H7Z272LX8EK1HEIFC0D9GD1GN0LPX", "dateTime": 1516300075256}, {"current_trial": 240, "trialdata": {"rt": -1, "trial_type": "single-stim", "word": "lady", "stimulus": "<p id=\"stim\">LADY</p>", "conditions": [24, 1600, "v", 12000], "internal_node_id": "0.0-177.0", "trial": 6, "time_elapsed": 1147741, "serialpos": 15, "key_press": -1, "wordID": 793, "type": "PRES_VIS", "trial_index": 240}, "uniqueid": "MTK1786:3H7Z272LX8EK1HEIFC0D9GD1GN0LPX", "dateTime": 1516300077930}, {"current_trial": 241, "trialdata": {"rt": -1, "trial_type": "single-stim", "word": "jury", "stimulus": "<p id=\"stim\">JURY</p>", "conditions": [24, 1600, "v", 12000], "internal_node_id": "0.0-178.0", "trial": 6, "time_elapsed": 1150259, "serialpos": 16, "key_press": -1, "wordID": 765, "type": "PRES_VIS", "trial_index": 241}, "uniqueid": "MTK1786:3H7Z272LX8EK1HEIFC0D9GD1GN0LPX", "dateTime": 1516300080447}, {"current_trial": 242, "trialdata": {"rt": -1, "trial_type": "single-stim", "word": "widow", "stimulus": "<p id=\"stim\">WIDOW</p>", "conditions": [24, 1600, "v", 12000], "internal_node_id": "0.0-179.0", "trial": 6, "time_elapsed": 1152748, "serialpos": 17, "key_press": -1, "wordID": 1607, "type": "PRES_VIS", "trial_index": 242}, "uniqueid": "MTK1786:3H7Z272LX8EK1HEIFC0D9GD1GN0LPX", "dateTime": 1516300082936}, {"current_trial": 243, "trialdata": {"rt": -1, "trial_type": "single-stim", "word": "maple", "stimulus": "<p id=\"stim\">MAPLE</p>", "conditions": [24, 1600, "v", 12000], "internal_node_id": "0.0-180.0", "trial": 6, "time_elapsed": 1155214, "serialpos": 18, "key_press": -1, "wordID": 865, "type": "PRES_VIS", "trial_index": 243}, "uniqueid": "MTK1786:3H7Z272LX8EK1HEIFC0D9GD1GN0LPX", "dateTime": 1516300085402}, {"current_trial": 244, "trialdata": {"rt": -1, "trial_type": "single-stim", "word": "pudding", "stimulus": "<p id=\"stim\">PUDDING</p>", "conditions": [24, 1600, "v", 12000], "internal_node_id": "0.0-181.0", "trial": 6, "time_elapsed": 1157948, "serialpos": 19, "key_press": -1, "wordID": 1138, "type": "PRES_VIS", "trial_index": 244}, "uniqueid": "MTK1786:3H7Z272LX8EK1HEIFC0D9GD1GN0LPX", "dateTime": 1516300088136}, {"current_trial": 245, "trialdata": {"rt": -1, "trial_type": "single-stim", "word": "cashier", "stimulus": "<p id=\"stim\">CASHIER</p>", "conditions": [24, 1600, "v", 12000], "internal_node_id": "0.0-182.0", "trial": 6, "time_elapsed": 1160512, "serialpos": 20, "key_press": -1, "wordID": 253, "type": "PRES_VIS", "trial_index": 245}, "uniqueid": "MTK1786:3H7Z272LX8EK1HEIFC0D9GD1GN0LPX", "dateTime": 1516300090700}, {"current_trial": 246, "trialdata": {"rt": -1, "trial_type": "single-stim", "word": "outfit", "stimulus": "<p id=\"stim\">OUTFIT</p>", "conditions": [24, 1600, "v", 12000], "internal_node_id": "0.0-183.0", "trial": 6, "time_elapsed": 1163191, "serialpos": 21, "key_press": -1, "wordID": 987, "type": "PRES_VIS", "trial_index": 246}, "uniqueid": "MTK1786:3H7Z272LX8EK1HEIFC0D9GD1GN0LPX", "dateTime": 1516300093379}, {"current_trial": 247, "trialdata": {"rt": -1, "trial_type": "single-stim", "word": "skirt", "stimulus": "<p id=\"stim\">SKIRT</p>", "conditions": [24, 1600, "v", 12000], "internal_node_id": "0.0-184.0", "trial": 6, "time_elapsed": 1165787, "serialpos": 22, "key_press": -1, "wordID": 1318, "type": "PRES_VIS", "trial_index": 247}, "uniqueid": "MTK1786:3H7Z272LX8EK1HEIFC0D9GD1GN0LPX", "dateTime": 1516300095976}, {"current_trial": 248, "trialdata": {"rt": -1, "trial_type": "single-stim", "word": "piston", "stimulus": "<p id=\"stim\">PISTON</p>", "conditions": [24, 1600, "v", 12000], "internal_node_id": "0.0-185.0", "trial": 6, "time_elapsed": 1168427, "serialpos": 23, "key_press": -1, "wordID": 1075, "type": "PRES_VIS", "trial_index": 248}, "uniqueid": "MTK1786:3H7Z272LX8EK1HEIFC0D9GD1GN0LPX", "dateTime": 1516300098616}, {"current_trial": 249, "trialdata": {"rt": -1, "trial_type": "single-stim", "stimulus": "", "internal_node_id": "0.0-186.0-0.0", "time_elapsed": 1170601, "key_press": -1, "type": "PRE_RECALL_DELAY", "trial_index": 249}, "uniqueid": "MTK1786:3H7Z272LX8EK1HEIFC0D9GD1GN0LPX", "dateTime": 1516300100790}, {"current_trial": 250, "trialdata": {"rt": -1000, "trial_type": "single-audio", "stimulus": "/static/audio/400Hz.wav", "internal_node_id": "0.0-187.0", "time_elapsed": 1171104, "key_press": -1, "type": "PRE_RECALL_ALERT", "trial_index": 250}, "uniqueid": "MTK1786:3H7Z272LX8EK1HEIFC0D9GD1GN0LPX", "dateTime": 1516300101292}, {"current_trial": 251, "trialdata": {"rt": [1441, 3288, 5873, 8240, 10689, 13905, 32592], "recwords": ["lady", "widow", "hound", "mailman", "skirt", "outfit", "pudding"], "key_times": [569, 658, 785, 1088, 1441, 2186, 2298, 2514, 2681, 2969, 3288, 5049, 5169, 5273, 5505, 5673, 5873, 6313, 6460, 6611, 6833, 7489, 7593, 7690, 8240, 9553, 9770, 9978, 10108, 10433, 10689, 12905, 13065, 13179, 13434, 13521, 13739, 13905, 31473, 31744, 31921, 32096, 32192, 32312, 32489, 32592], "trial_type": "free-recall", "conditions": [24, 1600, "v", 12000], "internal_node_id": "0.0-188.0-0.0", "key_presses": [76, 65, 68, 89, 13, 87, 73, 68, 79, 87, 13, 72, 79, 85, 78, 68, 13, 77, 65, 73, 76, 77, 65, 78, 13, 83, 75, 73, 82, 84, 13, 79, 85, 84, 70, 73, 84, 13, 80, 85, 68, 68, 73, 78, 71, 13], "trial": 6, "time_elapsed": 1231108, "type": "FREE_RECALL", "trial_index": 251}, "uniqueid": "MTK1786:3H7Z272LX8EK1HEIFC0D9GD1GN0LPX", "dateTime": 1516300161308}, {"current_trial": 252, "trialdata": {"rt": 2738, "trial_type": "text", "internal_node_id": "0.0-189.0", "time_elapsed": 1235861, "key_press": 32, "type": "INSTRUCTIONS", "trial_index": 252}, "uniqueid": "MTK1786:3H7Z272LX8EK1HEIFC0D9GD1GN0LPX", "dateTime": 1516300166049}, {"current_trial": 253, "trialdata": {"rt": [3777, 7649, 10913, 13657, 17121, 19497, 21905], "trial_type": "math-distractor", "key_times": [3058, 3242, 3777, 6977, 7298, 7649, 10274, 10521, 10913, 12970, 13226, 13657, 16449, 16729, 17121, 18793, 19090, 19497, 21291, 21482, 21905, 23729, 24001], "responses": ["15", "24", "18", "16", "17", "27", "12"], "num2": [6, 9, 4, 8, 7, 9, 1, 4], "num3": [8, 6, 6, 4, 8, 9, 3, 4], "conditions": [12, 1600, "v", 24000], "internal_node_id": "0.0-190.0", "key_presses": [97, 101, 13, 98, 100, 13, 97, 104, 13, 97, 102, 13, 97, 103, 13, 98, 103, 13, 97, 98, 13, 97, 102], "trial": 7, "time_elapsed": 1261872, "type": "DISTRACTOR", "trial_index": 253, "num1": [1, 9, 8, 4, 2, 9, 8, 8]}, "uniqueid": "MTK1786:3H7Z272LX8EK1HEIFC0D9GD1GN0LPX", "dateTime": 1516300192060}, {"current_trial": 254, "trialdata": {"rt": -1, "trial_type": "single-stim", "stimulus": "<p id=\"stim\">10</p>", "internal_node_id": "0.0-191.0-0.0", "time_elapsed": 1264877, "key_press": -1, "trial_index": 254}, "uniqueid": "MTK1786:3H7Z272LX8EK1HEIFC0D9GD1GN0LPX", "dateTime": 1516300195065}, {"current_trial": 255, "trialdata": {"rt": -1, "trial_type": "single-stim", "stimulus": "<p id=\"stim\">9</p>", "internal_node_id": "0.0-191.0-1.0", "time_elapsed": 1265880, "key_press": -1, "trial_index": 255}, "uniqueid": "MTK1786:3H7Z272LX8EK1HEIFC0D9GD1GN0LPX", "dateTime": 1516300196068}, {"current_trial": 256, "trialdata": {"rt": -1, "trial_type": "single-stim", "stimulus": "<p id=\"stim\">8</p>", "internal_node_id": "0.0-191.0-2.0", "time_elapsed": 1266883, "key_press": -1, "trial_index": 256}, "uniqueid": "MTK1786:3H7Z272LX8EK1HEIFC0D9GD1GN0LPX", "dateTime": 1516300197071}, {"current_trial": 257, "trialdata": {"rt": -1, "trial_type": "single-stim", "stimulus": "<p id=\"stim\">7</p>", "internal_node_id": "0.0-191.0-3.0", "time_elapsed": 1267886, "key_press": -1, "trial_index": 257}, "uniqueid": "MTK1786:3H7Z272LX8EK1HEIFC0D9GD1GN0LPX", "dateTime": 1516300198074}, {"current_trial": 258, "trialdata": {"rt": -1, "trial_type"