{"assignmentId": "3CN4LGXD5YVICNZY07XF0Q42X0K4YG", "workerId": "MTK1361", "questiondata": {"origin": "United States", "strat-rehearsal": "54", "marital": "Single", "education": "Bachelor's degree", "ethnicity": "Hispanic", "color_depth": 24, "distracted": "No", "wrote-notes": "Yes", "strat-other": "", "screen_width": 1680, "avail_screen_width": 1680, "avail_screen_height": 1014, "strat-image": "34", "language": "English", "gender": "Female", "age": "31", "gender_other": "", "race": ["Asian"], "strat-categorize": "54", "pixel_depth": 24, "strat-spatial": "41", "strat-story": "54", "race_other": "", "screen_height": 1050}, "bonus": 0, "hitId": "3N7PQ0KLI5WX1219AQB0UYOWKOZ3E3", "counterbalance": 696, "useragent": "Mozilla/5.0 (Windows NT 5.1) AppleWebKit/537.36 (KHTML, like Gecko) Chrome/49.0.2623.112 Safari/537.36", "eventdata": [{"eventtype": "initialized", "interval": 0, "value": null, "timestamp": 1515868316491}, {"eventtype": "window_resize", "interval": 0, "value": [1344, 771], "timestamp": 1515868316491}, {"eventtype": "focus", "interval": 12261, "value": "off", "timestamp": 1515868328752}, {"eventtype": "focus", "interval": 10372, "value": "on", "timestamp": 1515868339124}], "data": [{"current_trial": 0, "trialdata": {"rt": 2800, "trial_type": "text", "internal_node_id": "0.0-0.0", "time_elapsed": 2806, "key_press": 32, "type": "INSTRUCTIONS", "trial_index": 0}, "uniqueid": "MTK1361:3CN4LGXD5YVICNZY07XF0Q42X0K4YG", "dateTime": 1515868320468}, {"current_trial": 1, "trialdata": {"rt": 2680, "trial_type": "text", "internal_node_id": "0.0-1.0", "time_elapsed": 5490, "key_press": 32, "type": "INSTRUCTIONS", "trial_index": 1}, "uniqueid": "MTK1361:3CN4LGXD5YVICNZY07XF0Q42X0K4YG", "dateTime": 1515868323151}, {"current_trial": 2, "trialdata": {"rt": [34951], "trial_type": "audio-test", "responses": ["ocean"], "internal_node_id": "0.0-2.0", "time_elapsed": 40451, "type": "AUDIO_TEST", "trial_index": 2}, "uniqueid": "MTK1361:3CN4LGXD5YVICNZY07XF0Q42X0K4YG", "dateTime": 1515868358112}, {"current_trial": 3, "trialdata": {"rt": [14174], "trial_type": "audio-test", "responses": ["crystal"], "internal_node_id": "0.0-3.0", "time_elapsed": 54633, "type": "AUDIO_TEST", "trial_index": 3}, "uniqueid": "MTK1361:3CN4LGXD5YVICNZY07XF0Q42X0K4YG", "dateTime": 1515868372293}, {"current_trial": 4, "trialdata": {"rt": [7294], "trial_type": "audio-test", "responses": ["spice"], "internal_node_id": "0.0-4.0", "time_elapsed": 61934, "type": "AUDIO_TEST", "trial_index": 4}, "uniqueid": "MTK1361:3CN4LGXD5YVICNZY07XF0Q42X0K4YG", "dateTime": 1515868379595}, {"current_trial": 5, "trialdata": {"rt": 14126, "trial_type": "survey-text", "responses": "{\"Q0\":\"11:30pM\",\"Q1\":\"5:30aM\",\"Q2\":\"2\"}", "internal_node_id": "0.0-5.0", "time_elapsed": 76851, "type": "SLEEP_SURVEY", "trial_index": 5}, "uniqueid": "MTK1361:3CN4LGXD5YVICNZY07XF0Q42X0K4YG", "dateTime": 1515868394512}, {"current_trial": 6, "trialdata": {"rt": 37326, "trial_type": "text", "internal_node_id": "0.0-6.0", "time_elapsed": 115179, "key_press": 32, "type": "INSTRUCTIONS", "trial_index": 6}, "uniqueid": "MTK1361:3CN4LGXD5YVICNZY07XF0Q42X0K4YG", "dateTime": 1515868432840}, {"current_trial": 7, "trialdata": {"rt": 1733, "trial_type": "text", "internal_node_id": "0.0-7.0", "time_elapsed": 117428, "key_press": 32, "type": "INSTRUCTIONS", "trial_index": 7}, "uniqueid": "MTK1361:3CN4LGXD5YVICNZY07XF0Q42X0K4YG", "dateTime": 1515868435088}, {"current_trial": 8, "trialdata": {"rt": 1843, "trial_type": "text", "internal_node_id": "0.0-8.0", "time_elapsed": 119802, "key_press": 32, "type": "INSTRUCTIONS", "trial_index": 8}, "uniqueid": "MTK1361:3CN4LGXD5YVICNZY07XF0Q42X0K4YG", "dateTime": 1515868437463}, {"current_trial": 9, "trialdata": {"rt": [3436, 8480, 10958, 13493, 17588], "trial_type": "math-distractor", "key_times": [2221, 2621, 3436, 7249, 8247, 8480, 10823, 10776, 10958, 13011, 13252, 13493, 16791, 17012, 17588], "responses": ["20", "19", "12", "15", "17"], "num2": [2, 6, 3, 2, 4, 2], "num3": [9, 5, 6, 6, 8, 3], "conditions": [18, 1200, "v", 18000], "internal_node_id": "0.0-9.0", "key_presses": [50, 48, 13, 49, 57, 13, 49, 50, 13, 49, 53, 13, 49, 55, 13], "trial": 0, "time_elapsed": 138724, "type": "DISTRACTOR", "trial_index": 9, "num1": [9, 8, 3, 7, 5, 6]}, "uniqueid": "MTK1361:3CN4LGXD5YVICNZY07XF0Q42X0K4YG", "dateTime": 1515868456384}, {"current_trial": 10, "trialdata": {"rt": -1, "trial_type": "single-stim", "stimulus": "<p id=\"stim\">10</p>", "internal_node_id": "0.0-10.0-0.0", "time_elapsed": 141756, "key_press": -1, "trial_index": 10}, "uniqueid": "MTK1361:3CN4LGXD5YVICNZY07XF0Q42X0K4YG", "dateTime": 1515868459416}, {"current_trial": 11, "trialdata": {"rt": -1, "trial_type": "single-stim", "stimulus": "<p id=\"stim\">9</p>", "internal_node_id": "0.0-10.0-1.0", "time_elapsed": 142801, "key_press": -1, "trial_index": 11}, "uniqueid": "MTK1361:3CN4LGXD5YVICNZY07XF0Q42X0K4YG", "dateTime": 1515868460461}, {"current_trial": 12, "trialdata": {"rt": -1, "trial_type": "single-stim", "stimulus": "<p id=\"stim\">8</p>", "internal_node_id": "0.0-10.0-2.0", "time_elapsed": 143833, "key_press": -1, "trial_index": 12}, "uniqueid": "MTK1361:3CN4LGXD5YVICNZY07XF0Q42X0K4YG", "dateTime": 1515868461493}, {"current_trial": 13, "trialdata": {"rt": -1, "trial_type": "single-stim", "stimulus": "<p id=\"stim\">7</p>", "internal_node_id": "0.0-10.0-3.0", "time_elapsed": 144833, "key_press": -1, "trial_index": 13}, "uniqueid": "MTK1361:3CN4LGXD5YVICNZY07XF0Q42X0K4YG", "dateTime": 1515868462494}, {"current_trial": 14, "trialdata": {"rt": -1, "trial_type": "single-stim", "stimulus": "<p id=\"stim\">6</p>", "internal_node_id": "0.0-10.0-4.0", "time_elapsed": 145834, "key_press": -1, "trial_index": 14}, "uniqueid": "MTK1361:3CN4LGXD5YVICNZY07XF0Q42X0K4YG", "dateTime": 1515868463494}, {"current_trial": 15, "trialdata": {"rt": -1, "trial_type": "single-stim", "stimulus": "<p id=\"stim\">5</p>", "internal_node_id": "0.0-10.0-5.0", "time_elapsed": 146850, "key_press": -1, "trial_index": 15}, "uniqueid": "MTK1361:3CN4LGXD5YVICNZY07XF0Q42X0K4YG", "dateTime": 1515868464510}, {"current_trial": 16, "trialdata": {"rt": -1, "trial_type": "single-stim", "stimulus": "<p id=\"stim\">4</p>", "internal_node_id": "0.0-10.0-6.0", "time_elapsed": 147851, "key_press": -1, "trial_index": 16}, "uniqueid": "MTK1361:3CN4LGXD5YVICNZY07XF0Q42X0K4YG", "dateTime": 1515868465511}, {"current_trial": 17, "trialdata": {"rt": -1, "trial_type": "single-stim", "stimulus": "<p id=\"stim\">3</p>", "internal_node_id": "0.0-10.0-7.0", "time_elapsed": 148886, "key_press": -1, "trial_index": 17}, "uniqueid": "MTK1361:3CN4LGXD5YVICNZY07XF0Q42X0K4YG", "dateTime": 1515868466546}, {"current_trial": 18, "trialdata": {"rt": -1, "trial_type": "single-stim", "stimulus": "<p id=\"stim\">2</p>", "internal_node_id": "0.0-10.0-8.0", "time_elapsed": 149887, "key_press": -1, "trial_index": 18}, "uniqueid": "MTK1361:3CN4LGXD5YVICNZY07XF0Q42X0K4YG", "dateTime": 1515868467548}, {"current_trial": 19, "trialdata": {"rt": -1, "trial_type": "single-stim", "stimulus": "<p id=\"stim\">1</p>", "internal_node_id": "0.0-10.0-9.0", "time_elapsed": 150896, "key_press": -1, "trial_index": 19}, "uniqueid": "MTK1361:3CN4LGXD5YVICNZY07XF0Q42X0K4YG", "dateTime": 1515868468557}, {"current_trial": 20, "trialdata": {"rt": -1, "trial_type": "single-stim", "stimulus": "<p id=\"stim\">+</p>", "internal_node_id": "0.0-11.0-0.0", "time_elapsed": 152427, "key_press": -1, "type": "FIXATION", "trial_index": 20}, "uniqueid": "MTK1361:3CN4LGXD5YVICNZY07XF0Q42X0K4YG", "dateTime": 1515868470087}, {"current_trial": 21, "trialdata": {"rt": -1, "trial_type": "single-stim", "word": "tortoise", "stimulus": "<p id=\"stim\">TORTOISE</p>", "conditions": [18, 1200, "v", 18000], "internal_node_id": "0.0-12.0", "trial": 0, "time_elapsed": 153629, "serialpos": 0, "key_press": -1, "wordID": 1485, "type": "PRES_VIS", "trial_index": 21}, "uniqueid": "MTK1361:3CN4LGXD5YVICNZY07XF0Q42X0K4YG", "dateTime": 1515868471290}, {"current_trial": 22, "trialdata": {"rt": -1, "trial_type": "single-stim", "word": "tribe", "stimulus": "<p id=\"stim\">TRIBE</p>", "conditions": [18, 1200, "v", 18000], "internal_node_id": "0.0-13.0", "trial": 0, "time_elapsed": 155864, "serialpos": 1, "key_press": -1, "wordID": 1504, "type": "PRES_VIS", "trial_index": 22}, "uniqueid": "MTK1361:3CN4LGXD5YVICNZY07XF0Q42X0K4YG", "dateTime": 1515868473524}, {"current_trial": 23, "trialdata": {"rt": -1, "trial_type": "single-stim", "word": "ketchup", "stimulus": "<p id=\"stim\">KETCHUP</p>", "conditions": [18, 1200, "v", 18000], "internal_node_id": "0.0-14.0", "trial": 0, "time_elapsed": 158008, "serialpos": 2, "key_press": -1, "wordID": 770, "type": "PRES_VIS", "trial_index": 23}, "uniqueid": "MTK1361:3CN4LGXD5YVICNZY07XF0Q42X0K4YG", "dateTime": 1515868475668}, {"current_trial": 24, "trialdata": {"rt": -1, "trial_type": "single-stim", "word": "slide", "stimulus": "<p id=\"stim\">SLIDE</p>", "conditions": [18, 1200, "v", 18000], "internal_node_id": "0.0-15.0", "trial": 0, "time_elapsed": 160431, "serialpos": 3, "key_press": -1, "wordID": 1325, "type": "PRES_VIS", "trial_index": 24}, "uniqueid": "MTK1361:3CN4LGXD5YVICNZY07XF0Q42X0K4YG", "dateTime": 1515868478091}, {"current_trial": 25, "trialdata": {"rt": -1, "trial_type": "single-stim", "word": "waitress", "stimulus": "<p id=\"stim\">WAITRESS</p>", "conditions": [18, 1200, "v", 18000], "internal_node_id": "0.0-16.0", "trial": 0, "time_elapsed": 162708, "serialpos": 4, "key_press": -1, "wordID": 1580, "type": "PRES_VIS", "trial_index": 25}, "uniqueid": "MTK1361:3CN4LGXD5YVICNZY07XF0Q42X0K4YG", "dateTime": 1515868480368}, {"current_trial": 26, "trialdata": {"rt": -1, "trial_type": "single-stim", "word": "canyon", "stimulus": "<p id=\"stim\">CANYON</p>", "conditions": [18, 1200, "v", 18000], "internal_node_id": "0.0-17.0", "trial": 0, "time_elapsed": 164881, "serialpos": 5, "key_press": -1, "wordID": 234, "type": "PRES_VIS", "trial_index": 26}, "uniqueid": "MTK1361:3CN4LGXD5YVICNZY07XF0Q42X0K4YG", "dateTime": 1515868482541}, {"current_trial": 27, "trialdata": {"rt": -1, "trial_type": "single-stim", "word": "baby", "stimulus": "<p id=\"stim\">BABY</p>", "conditions": [18, 1200, "v", 18000], "internal_node_id": "0.0-18.0", "trial": 0, "time_elapsed": 167256, "serialpos": 6, "key_press": -1, "wordID": 63, "type": "PRES_VIS", "trial_index": 27}, "uniqueid": "MTK1361:3CN4LGXD5YVICNZY07XF0Q42X0K4YG", "dateTime": 1515868484916}, {"current_trial": 28, "trialdata": {"rt": -1, "trial_type": "single-stim", "word": "drawing", "stimulus": "<p id=\"stim\">DRAWING</p>", "conditions": [18, 1200, "v", 18000], "internal_node_id": "0.0-19.0", "trial": 0, "time_elapsed": 169523, "serialpos": 7, "key_press": -1, "wordID": 493, "type": "PRES_VIS", "trial_index": 28}, "uniqueid": "MTK1361:3CN4LGXD5YVICNZY07XF0Q42X0K4YG", "dateTime": 1515868487183}, {"current_trial": 29, "trialdata": {"rt": -1, "trial_type": "single-stim", "word": "summit", "stimulus": "<p id=\"stim\">SUMMIT</p>", "conditions": [18, 1200, "v", 18000], "internal_node_id": "0.0-20.0", "trial": 0, "time_elapsed": 171891, "serialpos": 8, "key_press": -1, "wordID": 1404, "type": "PRES_VIS", "trial_index": 29}, "uniqueid": "MTK1361:3CN4LGXD5YVICNZY07XF0Q42X0K4YG", "dateTime": 1515868489551}, {"current_trial": 30, "trialdata": {"rt": -1, "trial_type": "single-stim", "word": "garlic", "stimulus": "<p id=\"stim\">GARLIC</p>", "conditions": [18, 1200, "v", 18000], "internal_node_id": "0.0-21.0", "trial": 0, "time_elapsed": 174017, "serialpos": 9, "key_press": -1, "wordID": 623, "type": "PRES_VIS", "trial_index": 30}, "uniqueid": "MTK1361:3CN4LGXD5YVICNZY07XF0Q42X0K4YG", "dateTime": 1515868491677}, {"current_trial": 31, "trialdata": {"rt": -1, "trial_type": "single-stim", "word": "dolphin", "stimulus": "<p id=\"stim\">DOLPHIN</p>", "conditions": [18, 1200, "v", 18000], "internal_node_id": "0.0-22.0", "trial": 0, "time_elapsed": 176348, "serialpos": 10, "key_press": -1, "wordID": 482, "type": "PRES_VIS", "trial_index": 31}, "uniqueid": "MTK1361:3CN4LGXD5YVICNZY07XF0Q42X0K4YG", "dateTime": 1515868494009}, {"current_trial": 32, "trialdata": {"rt": -1, "trial_type": "single-stim", "word": "fungus", "stimulus": "<p id=\"stim\">FUNGUS</p>", "conditions": [18, 1200, "v", 18000], "internal_node_id": "0.0-23.0", "trial": 0, "time_elapsed": 178522, "serialpos": 11, "key_press": -1, "wordID": 613, "type": "PRES_VIS", "trial_index": 32}, "uniqueid": "MTK1361:3CN4LGXD5YVICNZY07XF0Q42X0K4YG", "dateTime": 1515868496182}, {"current_trial": 33, "trialdata": {"rt": -1, "trial_type": "single-stim", "word": "scribble", "stimulus": "<p id=\"stim\">SCRIBBLE</p>", "conditions": [18, 1200, "v", 18000], "internal_node_id": "0.0-24.0", "trial": 0, "time_elapsed": 180864, "serialpos": 12, "key_press": -1, "wordID": 1255, "type": "PRES_VIS", "trial_index": 33}, "uniqueid": "MTK1361:3CN4LGXD5YVICNZY07XF0Q42X0K4YG", "dateTime": 1515868498524}, {"current_trial": 34, "trialdata": {"rt": -1, "trial_type": "single-stim", "word": "twister", "stimulus": "<p id=\"stim\">TWISTER</p>", "conditions": [18, 1200, "v", 18000], "internal_node_id": "0.0-25.0", "trial": 0, "time_elapsed": 183116, "serialpos": 13, "key_press": -1, "wordID": 1529, "type": "PRES_VIS", "trial_index": 34}, "uniqueid": "MTK1361:3CN4LGXD5YVICNZY07XF0Q42X0K4YG", "dateTime": 1515868500776}, {"current_trial": 35, "trialdata": {"rt": -1, "trial_type": "single-stim", "word": "piano", "stimulus": "<p id=\"stim\">PIANO</p>", "conditions": [18, 1200, "v", 18000], "internal_node_id": "0.0-26.0", "trial": 0, "time_elapsed": 185266, "serialpos": 14, "key_press": -1, "wordID": 1056, "type": "PRES_VIS", "trial_index": 35}, "uniqueid": "MTK1361:3CN4LGXD5YVICNZY07XF0Q42X0K4YG", "dateTime": 1515868502926}, {"current_trial": 36, "trialdata": {"rt": -1, "trial_type": "single-stim", "word": "dress", "stimulus": "<p id=\"stim\">DRESS</p>", "conditions": [18, 1200, "v", 18000], "internal_node_id": "0.0-27.0", "trial": 0, "time_elapsed": 187334, "serialpos": 15, "key_press": -1, "wordID": 494, "type": "PRES_VIS", "trial_index": 36}, "uniqueid": "MTK1361:3CN4LGXD5YVICNZY07XF0Q42X0K4YG", "dateTime": 1515868504994}, {"current_trial": 37, "trialdata": {"rt": -1, "trial_type": "single-stim", "word": "muffin", "stimulus": "<p id=\"stim\">MUFFIN</p>", "conditions": [18, 1200, "v", 18000], "internal_node_id": "0.0-28.0", "trial": 0, "time_elapsed": 189599, "serialpos": 16, "key_press": -1, "wordID": 928, "type": "PRES_VIS", "trial_index": 37}, "uniqueid": "MTK1361:3CN4LGXD5YVICNZY07XF0Q42X0K4YG", "dateTime": 1515868507259}, {"current_trial": 38, "trialdata": {"rt": -1, "trial_type": "single-stim", "word": "creature", "stimulus": "<p id=\"stim\">CREATURE</p>", "conditions": [18, 1200, "v", 18000], "internal_node_id": "0.0-29.0", "trial": 0, "time_elapsed": 191761, "serialpos": 17, "key_press": -1, "wordID": 402, "type": "PRES_VIS", "trial_index": 38}, "uniqueid": "MTK1361:3CN4LGXD5YVICNZY07XF0Q42X0K4YG", "dateTime": 1515868509421}, {"current_trial": 39, "trialdata": {"rt": -1, "trial_type": "single-stim", "stimulus": "", "internal_node_id": "0.0-30.0-0.0", "time_elapsed": 194214, "key_press": -1, "type": "PRE_RECALL_DELAY", "trial_index": 39}, "uniqueid": "MTK1361:3CN4LGXD5YVICNZY07XF0Q42X0K4YG", "dateTime": 1515868511874}, {"current_trial": 40, "trialdata": {"rt": -1000, "trial_type": "single-audio", "stimulus": "/static/audio/400Hz.wav", "internal_node_id": "0.0-31.0", "time_elapsed": 194770, "key_press": -1, "type": "PRE_RECALL_ALERT", "trial_index": 40}, "uniqueid": "MTK1361:3CN4LGXD5YVICNZY07XF0Q42X0K4YG", "dateTime": 1515868512430}, {"current_trial": 41, "trialdata": {"rt": [4894, 7394, 9348, 10660, 13237, 20004, 23347, 25270, 26921, 29613, 31191, 33956, 36989, 39253, 41112, 42566, 44742, 46691], "recwords": ["creature", "muffin", "piano", "dress", "scribble", "tortoise", "ketchup", "drawing", "garlic", "dolphin", "garlic", "scribble", "canyon", "waitress", "ketchup", "tribe", "baby", "drawing"], "key_times": [2724, 3030, 3316, 3503, 3677, 3889, 3962, 4023, 4894, 5675, 5909, 6083, 6237, 6426, 6942, 7394, 8132, 8399, 8613, 8722, 8965, 9348, 9648, 9831, 9947, 10191, 10359, 10660, 11378, 11615, 11832, 11949, 12146, 12274, 12441, 12644, 13237, 14926, 15128, 15201, 15498, 16128, 16555, 16925, 17676, 17918, 18040, 18193, 18630, 19338, 19472, 19566, 19722, 20004, 20706, 20816, 20988, 21243, 21326, 21967, 22154, 23347, 24146, 24317, 24503, 24628, 24753, 24910, 25027, 25270, 25659, 25810, 26117, 26308, 26523, 26753, 26921, 27222, 27386, 27629, 27828, 28051, 28269, 28581, 29613, 29972, 30196, 30331, 30493, 30667, 30926, 31191, 32208, 32426, 32645, 32877, 33088, 33228, 33370, 33597, 33956, 35410, 35553, 35738, 36206, 36362, 36581, 36989, 37898, 38081, 38277, 38399, 38596, 38692, 38944, 39098, 39253, 39508, 39660, 39987, 40207, 40316, 40516, 40737, 41112, 41316, 41472, 41649, 41833, 42191, 42566, 43253, 43691, 43941, 44194, 44742, 45146, 45332, 45417, 45629, 45945, 46080, 46362, 46691], "trial_type": "free-recall", "conditions": [18, 1200, "v", 18000], "internal_node_id": "0.0-32.0-0.0", "key_presses": [67, 82, 69, 65, 84, 85, 82, 69, 13, 77, 85, 70, 70, 73, 78, 13, 80, 73, 65, 78, 79, 13, 68, 82, 69, 83, 83, 13, 83, 67, 82, 73, 66, 66, 76, 69, 13, 84, 79, 82, 79, 83, 73, 69, 8, 8, 8, 8, 84, 79, 73, 83, 69, 13, 75, 69, 84, 67, 72, 85, 80, 13, 68, 82, 65, 87, 73, 78, 71, 13, 71, 65, 82, 76, 73, 67, 13, 68, 79, 76, 80, 72, 73, 78, 13, 71, 65, 82, 76, 73, 67, 13, 83, 67, 82, 73, 66, 66, 76, 69, 13, 67, 65, 78, 89, 79, 78, 13, 87, 65, 73, 84, 82, 69, 83, 83, 13, 75, 69, 84, 67, 72, 85, 80, 13, 84, 82, 73, 66, 69, 13, 66, 65, 66, 89, 13, 68, 82, 65, 87, 73, 78, 71, 13], "trial": 0, "time_elapsed": 254623, "type": "FREE_RECALL", "trial_index": 41}, "uniqueid": "MTK1361:3CN4LGXD5YVICNZY07XF0Q42X0K4YG", "dateTime": 1515868572295}, {"current_trial": 42, "trialdata": {"rt": 1901, "trial_type": "text", "internal_node_id": "0.0-33.0", "time_elapsed": 258537, "key_press": 18, "type": "INSTRUCTIONS", "trial_index": 42}, "uniqueid": "MTK1361:3CN4LGXD5YVICNZY07XF0Q42X0K4YG", "dateTime": 1515868576197}, {"current_trial": 43, "trialdata": {"rt": [2668, 5237, 7007, 9905, 12882, 15789], "trial_type": "math-distractor", "key_times": [2039, 2351, 2668, 4698, 4851, 5237, 6438, 6804, 7007, 8132, 9748, 9905, 12505, 12882, 15416, 15476, 15789, 17274, 17569], "responses": ["18", "11", "15", "12", "9", "20"], "num2": [8, 2, 5, 4, 2, 7, 6], "num3": [8, 6, 3, 4, 4, 8, 1], "conditions": [18, 1200, "v", 18000], "internal_node_id": "0.0-34.0", "key_presses": [49, 56, 13, 49, 49, 13, 49, 53, 13, 49, 50, 13, 57, 13, 50, 48, 13, 49, 52], "trial": 1, "time_elapsed": 278540, "type": "DISTRACTOR", "trial_index": 43, "num1": [2, 3, 7, 4, 3, 5, 7]}, "uniqueid": "MTK1361:3CN4LGXD5YVICNZY07XF0Q42X0K4YG", "dateTime": 1515868596201}, {"current_trial": 44, "trialdata": {"rt": -1, "trial_type": "single-stim", "stimulus": "<p id=\"stim\">10</p>", "internal_node_id": "0.0-35.0-0.0", "time_elapsed": 281542, "key_press": -1, "trial_index": 44}, "uniqueid": "MTK1361:3CN4LGXD5YVICNZY07XF0Q42X0K4YG", "dateTime": 1515868599202}, {"current_trial": 45, "trialdata": {"rt": -1, "trial_type": "single-stim", "stimulus": "<p id=\"stim\">9</p>", "internal_node_id": "0.0-35.0-1.0", "time_elapsed": 282544, "key_press": -1, "trial_index": 45}, "uniqueid": "MTK1361:3CN4LGXD5YVICNZY07XF0Q42X0K4YG", "dateTime": 1515868600204}, {"current_trial": 46, "trialdata": {"rt": -1, "trial_type": "single-stim", "stimulus": "<p id=\"stim\">8</p>", "internal_node_id": "0.0-35.0-2.0", "time_elapsed": 283593, "key_press": -1, "trial_index": 46}, "uniqueid": "MTK1361:3CN4LGXD5YVICNZY07XF0Q42X0K4YG", "dateTime": 1515868601253}, {"current_trial": 47, "trialdata": {"rt": -1, "trial_type": "single-stim", "stimulus": "<p id=\"stim\">7</p>", "internal_node_id": "0.0-35.0-3.0", "time_elapsed": 284595, "key_press": -1, "trial_index": 47}, "uniqueid": "MTK1361:3CN4LGXD5YVICNZY07XF0Q42X0K4YG", "dateTime": 1515868602255}, {"current_trial": 48, "trialdata": {"rt": -1, "trial_type": "single-stim", "stimulus": "<p id=\"stim\">6</p>", "internal_node_id": "0.0-35.0-4.0", "time_elapsed": 285626, "key_press": -1, "trial_index": 48}, "uniqueid": "MTK1361:3CN4LGXD5YVICNZY07XF0Q42X0K4YG", "dateTime": 1515868603287}, {"current_trial": 49, "trialdata": {"rt": -1, "trial_type": "single-stim", "stimulus": "<p id=\"stim\">5</p>", "internal_node_id": "0.0-35.0-5.0", "time_elapsed": 286673, "key_press": -1, "trial_index": 49}, "uniqueid": "MTK1361:3CN4LGXD5YVICNZY07XF0Q42X0K4YG", "dateTime": 1515868604333}, {"current_trial": 50, "trialdata": {"rt": -1, "trial_type": "single-stim", "stimulus": "<p id=\"stim\">4</p>", "internal_node_id": "0.0-35.0-6.0", "time_elapsed": 287688, "key_press": -1, "trial_index": 50}, "uniqueid": "MTK1361:3CN4LGXD5YVICNZY07XF0Q42X0K4YG", "dateTime": 1515868605348}, {"current_trial": 51, "trialdata": {"rt": -1, "trial_type": "single-stim", "stimulus": "<p id=\"stim\">3</p>", "internal_node_id": "0.0-35.0-7.0", "time_elapsed": 288703, "key_press": -1, "trial_index": 51}, "uniqueid": "MTK1361:3CN4LGXD5YVICNZY07XF0Q42X0K4YG", "dateTime": 1515868606364}, {"current_trial": 52, "trialdata": {"rt": -1, "trial_type": "single-stim", "stimulus": "<p id=\"stim\">2</p>", "internal_node_id": "0.0-35.0-8.0", "time_elapsed": 289704, "key_press": -1, "trial_index": 52}, "uniqueid": "MTK1361:3CN4LGXD5YVICNZY07XF0Q42X0K4YG", "dateTime": 1515868607364}, {"current_trial": 53, "trialdata": {"rt": -1, "trial_type": "single-stim", "stimulus": "<p id=\"stim\">1</p>", "internal_node_id": "0.0-35.0-9.0", "time_elapsed": 290720, "key_press": -1, "trial_index": 53}, "uniqueid": "MTK1361:3CN4LGXD5YVICNZY07XF0Q42X0K4YG", "dateTime": 1515868608380}, {"current_trial": 54, "trialdata": {"rt": -1, "trial_type": "single-stim", "stimulus": "<p id=\"stim\">+</p>", "internal_node_id": "0.0-36.0-0.0", "time_elapsed": 292221, "key_press": -1, "type": "FIXATION", "trial_index": 54}, "uniqueid": "MTK1361:3CN4LGXD5YVICNZY07XF0Q42X0K4YG", "dateTime": 1515868609882}, {"current_trial": 55, "trialdata": {"rt": -1, "trial_type": "single-stim", "word": "scissors", "stimulus": "<p id=\"stim\">SCISSORS</p>", "conditions": [18, 1200, "v", 18000], "internal_node_id": "0.0-37.0", "trial": 1, "time_elapsed": 293422, "serialpos": 0, "key_press": -1, "wordID": 1249, "type": "PRES_VIS", "trial_index": 55}, "uniqueid": "MTK1361:3CN4LGXD5YVICNZY07XF0Q42X0K4YG", "dateTime": 1515868611083}, {"current_trial": 56, "trialdata": {"rt": -1, "trial_type": "single-stim", "word": "scallop", "stimulus": "<p id=\"stim\">SCALLOP</p>", "conditions": [18, 1200, "v", 18000], "internal_node_id": "0.0-38.0", "trial": 1, "time_elapsed": 295844, "serialpos": 1, "key_press": -1, "wordID": 1241, "type": "PRES_VIS", "trial_index": 56}, "uniqueid": "MTK1361:3CN4LGXD5YVICNZY07XF0Q42X0K4YG", "dateTime": 1515868613505}, {"current_trial": 57, "trialdata": {"rt": -1, "trial_type": "single-stim", "word": "valley", "stimulus": "<p id=\"stim\">VALLEY</p>", "conditions": [18, 1200, "v", 18000], "internal_node_id": "0.0-39.0", "trial": 1, "time_elapsed": 297984, "serialpos": 2, "key_press": -1, "wordID": 1544, "type": "PRES_VIS", "trial_index": 57}, "uniqueid": "MTK1361:3CN4LGXD5YVICNZY07XF0Q42X0K4YG", "dateTime": 1515868615645}, {"current_trial": 58, "trialdata": {"rt": -1, "trial_type": "single-stim", "word": "vagrant", "stimulus": "<p id=\"stim\">VAGRANT</p>", "conditions": [18, 1200, "v", 18000], "internal_node_id": "0.0-40.0", "trial": 1, "time_elapsed": 300077, "serialpos": 3, "key_press": -1, "wordID": 1543, "type": "PRES_VIS", "trial_index": 58}, "uniqueid": "MTK1361:3CN4LGXD5YVICNZY07XF0Q42X0K4YG", "dateTime": 1515868617737}, {"current_trial": 59, "trialdata": {"rt": -1, "trial_type": "single-stim", "word": "racket", "stimulus": "<p id=\"stim\">RACKET</p>", "conditions": [18, 1200, "v", 18000], "internal_node_id": "0.0-41.0", "trial": 1, "time_elapsed": 302376, "serialpos": 4, "key_press": -1, "wordID": 1154, "type": "PRES_VIS", "trial_index": 59}, "uniqueid": "MTK1361:3CN4LGXD5YVICNZY07XF0Q42X0K4YG", "dateTime": 1515868620036}, {"current_trial": 60, "trialdata": {"rt": -1, "trial_type": "single-stim", "word": "contract", "stimulus": "<p id=\"stim\">CONTRACT</p>", "conditions": [18, 1200, "v", 18000], "internal_node_id": "0.0-42.0", "trial": 1, "time_elapsed": 304784, "serialpos": 5, "key_press": -1, "wordID": 367, "type": "PRES_VIS", "trial_index": 60}, "uniqueid": "MTK1361:3CN4LGXD5YVICNZY07XF0Q42X0K4YG", "dateTime": 1515868622444}, {"current_trial": 61, "trialdata": {"rt": -1, "trial_type": "single-stim", "word": "rug", "stimulus": "<p id=\"stim\">RUG</p>", "conditions": [18, 1200, "v", 18000], "internal_node_id": "0.0-43.0", "trial": 1, "time_elapsed": 306828, "serialpos": 6, "key_press": -1, "wordID": 1214, "type": "PRES_VIS", "trial_index": 61}, "uniqueid": "MTK1361:3CN4LGXD5YVICNZY07XF0Q42X0K4YG", "dateTime": 1515868624489}, {"current_trial": 62, "trialdata": {"rt": -1, "trial_type": "single-stim", "word": "picnic", "stimulus": "<p id=\"stim\">PICNIC</p>", "conditions": [18, 1200, "v", 18000], "internal_node_id": "0.0-44.0", "trial": 1, "time_elapsed": 309121, "serialpos": 7, "key_press": -1, "wordID": 1059, "type": "PRES_VIS", "trial_index": 62}, "uniqueid": "MTK1361:3CN4LGXD5YVICNZY07XF0Q42X0K4YG", "dateTime": 1515868626781}, {"current_trial": 63, "trialdata": {"rt": -1, "trial_type": "single-stim", "word": "barrel", "stimulus": "<p id=\"stim\">BARREL</p>", "conditions": [18, 1200, "v", 18000], "internal_node_id": "0.0-45.0", "trial": 1, "time_elapsed": 311406, "serialpos": 8, "key_press": -1, "wordID": 90, "type": "PRES_VIS", "trial_index": 63}, "uniqueid": "MTK1361:3CN4LGXD5YVICNZY07XF0Q42X0K4YG", "dateTime": 1515868629067}, {"current_trial": 64, "trialdata": {"rt": -1, "trial_type": "single-stim", "word": "bubble", "stimulus": "<p id=\"stim\">BUBBLE</p>", "conditions": [18, 1200, "v", 18000], "internal_node_id": "0.0-46.0", "trial": 1, "time_elapsed": 313413, "serialpos": 9, "key_press": -1, "wordID": 182, "type": "PRES_VIS", "trial_index": 64}, "uniqueid": "MTK1361:3CN4LGXD5YVICNZY07XF0Q42X0K4YG", "dateTime": 1515868631073}, {"current_trial": 65, "trialdata": {"rt": -1, "trial_type": "single-stim", "word": "atlas", "stimulus": "<p id=\"stim\">ATLAS</p>", "conditions": [18, 1200, "v", 18000], "internal_node_id": "0.0-47.0", "trial": 1, "time_elapsed": 315695, "serialpos": 10, "key_press": -1, "wordID": 52, "type": "PRES_VIS", "trial_index": 65}, "uniqueid": "MTK1361:3CN4LGXD5YVICNZY07XF0Q42X0K4YG", "dateTime": 1515868633355}, {"current_trial": 66, "trialdata": {"rt": -1, "trial_type": "single-stim", "word": "flesh", "stimulus": "<p id=\"stim\">FLESH</p>", "conditions": [18, 1200, "v", 18000], "internal_node_id": "0.0-48.0", "trial": 1, "time_elapsed": 318055, "serialpos": 11, "key_press": -1, "wordID": 578, "type": "PRES_VIS", "trial_index": 66}, "uniqueid": "MTK1361:3CN4LGXD5YVICNZY07XF0Q42X0K4YG", "dateTime": 1515868635715}, {"current_trial": 67, "trialdata": {"rt": -1, "trial_type": "single-stim", "word": "buggy", "stimulus": "<p id=\"stim\">BUGGY</p>", "conditions": [18, 1200, "v", 18000], "internal_node_id": "0.0-49.0", "trial": 1, "time_elapsed": 320272, "serialpos": 12, "key_press": -1, "wordID": 187, "type": "PRES_VIS", "trial_index": 67}, "uniqueid": "MTK1361:3CN4LGXD5YVICNZY07XF0Q42X0K4YG", "dateTime": 1515868637932}, {"current_trial": 68, "trialdata": {"rt": -1, "trial_type": "single-stim", "word": "cabbage", "stimulus": "<p id=\"stim\">CABBAGE</p>", "conditions": [18, 1200, "v", 18000], "internal_node_id": "0.0-50.0", "trial": 1, "time_elapsed": 322470, "serialpos": 13, "key_press": -1, "wordID": 209, "type": "PRES_VIS", "trial_index": 68}, "uniqueid": "MTK1361:3CN4LGXD5YVICNZY07XF0Q42X0K4YG", "dateTime": 1515868640130}, {"current_trial": 69, "trialdata": {"rt": -1, "trial_type": "single-stim", "word": "turnip", "stimulus": "<p id=\"stim\">TURNIP</p>", "conditions": [18, 1200, "v", 18000], "internal_node_id": "0.0-51.0", "trial": 1, "time_elapsed": 324663, "serialpos": 14, "key_press": -1, "wordID": 1520, "type": "PRES_VIS", "trial_index": 69}, "uniqueid": "MTK1361:3CN4LGXD5YVICNZY07XF0Q42X0K4YG", "dateTime": 1515868642323}, {"current_trial": 70, "trialdata": {"rt": -1, "trial_type": "single-stim", "word": "staple", "stimulus": "<p id=\"stim\">STAPLE</p>", "conditions": [18, 1200, "v", 18000], "internal_node_id": "0.0-52.0", "trial": 1, "time_elapsed": 326892, "serialpos": 15, "key_press": -1, "wordID": 1370, "type": "PRES_VIS", "trial_index": 70}, "uniqueid": "MTK1361:3CN4LGXD5YVICNZY07XF0Q42X0K4YG", "dateTime": 1515868644552}, {"current_trial": 71, "trialdata": {"rt": -1, "trial_type": "single-stim", "word": "mailbox", "stimulus": "<p id=\"stim\">MAILBOX</p>", "conditions": [18, 1200, "v", 18000], "internal_node_id": "0.0-53.0", "trial": 1, "time_elapsed": 329159, "serialpos": 16, "key_press": -1, "wordID": 856, "type": "PRES_VIS", "trial_index": 71}, "uniqueid": "MTK1361:3CN4LGXD5YVICNZY07XF0Q42X0K4YG", "dateTime": 1515868646819}, {"current_trial": 72, "trialdata": {"rt": -1, "trial_type": "single-stim", "word": "lace", "stimulus": "<p id=\"stim\">LACE</p>", "conditions": [18, 1200, "v", 18000], "internal_node_id": "0.0-54.0", "trial": 1, "time_elapsed": 331550, "serialpos": 17, "key_press": -1, "wordID": 791, "type": "PRES_VIS", "trial_index": 72}, "uniqueid": "MTK1361:3CN4LGXD5YVICNZY07XF0Q42X0K4YG", "dateTime": 1515868649210}, {"current_trial": 73, "trialdata": {"rt": -1, "trial_type": "single-stim", "stimulus": "", "internal_node_id": "0.0-55.0-0.0", "time_elapsed": 333866, "key_press": -1, "type": "PRE_RECALL_DELAY", "trial_index": 73}, "uniqueid": "MTK1361:3CN4LGXD5YVICNZY07XF0Q42X0K4YG", "dateTime": 1515868651527}, {"current_trial": 74, "trialdata": {"rt": -1000, "trial_type": "single-audio", "stimulus": "/static/audio/400Hz.wav", "internal_node_id": "0.0-56.0", "time_elapsed": 334396, "key_press": -1, "type": "PRE_RECALL_ALERT", "trial_index": 74}, "uniqueid": "MTK1361:3CN4LGXD5YVICNZY07XF0Q42X0K4YG", "dateTime": 1515868652056}, {"current_trial": 75, "trialdata": {"rt": [4524, 6222, 9185, 11001, 16514, 30513, 50877], "recwords": ["lace", "siccors", "valley", "mailbox", "scissors", "atlas", "denim"], "key_times": [3577, 3681, 3870, 4103, 4524, 4781, 5037, 5265, 5389, 5586, 5764, 6014, 6222, 6545, 6700, 6827, 6998, 7108, 8343, 9185, 9367, 9532, 9717, 9880, 10201, 10529, 10655, 11001, 13764, 13982, 14149, 14451, 14518, 14607, 14858, 15014, 16514, 27646, 27844, 28057, 28214, 29122, 30513, 40347, 40940, 41261, 41584, 41909, 50877], "trial_type": "free-recall", "conditions": [18, 1200, "v", 18000], "internal_node_id": "0.0-57.0-0.0", "key_presses": [76, 65, 67, 69, 13, 83, 73, 67, 67, 79, 82, 83, 13, 86, 65, 76, 76, 69, 89, 13, 77, 65, 73, 76, 66, 79, 88, 13, 83, 67, 73, 83, 83, 79, 82, 83, 13, 65, 84, 76, 65, 83, 13, 68, 69, 78, 73, 77, 13], "trial": 1, "time_elapsed": 394248, "type": "FREE_RECALL", "trial_index": 75}, "uniqueid": "MTK1361:3CN4LGXD5YVICNZY07XF0Q42X0K4YG", "dateTime": 1515868711913}, {"current_trial": 76, "trialdata": {"rt": 1741, "trial_type": "text", "internal_node_id": "0.0-58.0", "time_elapsed": 397996, "key_press": 32, "type": "INSTRUCTIONS", "trial_index": 76}, "uniqueid": "MTK1361:3CN4LGXD5YVICNZY07XF0Q42X0K4YG", "dateTime": 1515868715656}, {"current_trial": 77, "trialdata": {"rt": [3013, 8156, 11736, 13359, 16364, 18982, 21153, 23175], "trial_type": "math-distractor", "key_times": [2466, 2631, 3013, 7794, 7919, 8156, 11310, 11499, 11736, 12824, 13153, 13359, 15853, 16014, 16364, 18513, 18644, 18982, 20419, 20573, 21153, 22797, 23175], "responses": ["17", "22", "15", "11", "20", "20", "18", "6"], "num2": [2, 8, 2, 9, 4, 5, 8, 2, 5], "num3": [9, 9, 9, 1, 8, 6, 9, 3, 4], "conditions": [12, 1600, "v", 24000], "internal_node_id": "0.0-59.0", "key_presses": [49, 55, 13, 50, 50, 13, 49, 53, 13, 49, 49, 13, 50, 48, 13, 50, 48, 13, 49, 56, 13, 54, 13], "trial": 2, "time_elapsed": 422999, "type": "DISTRACTOR", "trial_index": 77, "num1": [6, 5, 4, 1, 8, 9, 1, 1, 5]}, "uniqueid": "MTK1361:3CN4LGXD5YVICNZY07XF0Q42X0K4YG", "dateTime": 1515868740660}, {"current_trial": 78, "trialdata": {"rt": -1, "trial_type": "single-stim", "stimulus": "<p id=\"stim\">10</p>", "internal_node_id": "0.0-60.0-0.0", "time_elapsed": 426027, "key_press": -1, "trial_index": 78}, "uniqueid": "MTK1361:3CN4LGXD5YVICNZY07XF0Q42X0K4YG", "dateTime": 1515868743687}, {"current_trial": 79, "trialdata": {"rt": -1, "trial_type": "single-stim", "stimulus": "<p id=\"stim\">9</p>", "internal_node_id": "0.0-60.0-1.0", "time_elapsed": 427027, "key_press": -1, "trial_index": 79}, "uniqueid": "MTK1361:3CN4LGXD5YVICNZY07XF0Q42X0K4YG", "dateTime": 1515868744687}, {"current_trial": 80, "trialdata": {"rt": -1, "trial_type": "single-stim", "stimulus": "<p id=\"stim\">8</p>", "internal_node_id": "0.0-60.0-2.0", "time_elapsed": 428042, "key_press": -1, "trial_index": 80}, "uniqueid": "MTK1361:3CN4LGXD5YVICNZY07XF0Q42X0K4YG", "dateTime": 1515868745703}, {"current_trial": 81, "trialdata": {"rt": -1, "trial_type": "single-stim", "stimulus": "<p id=\"stim\">7</p>", "internal_node_id": "0.0-60.0-3.0", "time_elapsed": 429044, "key_press": -1, "trial_index": 81}, "uniqueid": "MTK1361:3CN4LGXD5YVICNZY07XF0Q42X0K4YG", "dateTime": 1515868746704}, {"current_trial": 82, "trialdata": {"rt": -1, "trial_type": "single-stim", "stimulus": "<p id=\"stim\">6</p>", "internal_node_id": "0.0-60.0-4.0", "time_elapsed": 430046, "key_press": -1, "trial_index": 82}, "uniqueid": "MTK1361:3CN4LGXD5YVICNZY07XF0Q42X0K4YG", "dateTime": 1515868747706}, {"current_trial": 83, "trialdata": {"rt": -1, "trial_type": "single-stim", "stimulus": "<p id=\"stim\">5</p>", "internal_node_id": "0.0-60.0-5.0", "time_elapsed": 431047, "key_press": -1, "trial_index": 83}, "uniqueid": "MTK1361:3CN4LGXD5YVICNZY07XF0Q42X0K4YG", "dateTime": 1515868748707}, {"current_trial": 84, "trialdata": {"rt": -1, "trial_type": "single-stim", "stimulus": "<p id=\"stim\">4</p>", "internal_node_id": "0.0-60.0-6.0", "time_elapsed": 432074, "key_press": -1, "trial_index": 84}, "uniqueid": "MTK1361:3CN4LGXD5YVICNZY07XF0Q42X0K4YG", "dateTime": 1515868749734}, {"current_trial": 85, "trialdata": {"rt": -1, "trial_type": "single-stim", "stimulus": "<p id=\"stim\">3</p>", "internal_node_id": "0.0-60.0-7.0", "time_elapsed": 432923, "key_press": -1, "trial_index": 85}, "uniqueid": "MTK1361:3CN4LGXD5YVICNZY07XF0Q42X0K4YG", "dateTime": 1515868750583}, {"current_trial": 86, "trialdata": {"rt": -1, "trial_type": "single-stim", "stimulus": "<p id=\"stim\">2</p>", "internal_node_id": "0.0-60.0-8.0", "time_elapsed": 433925, "key_press": -1, "trial_index": 86}, "uniqueid": "MTK1361:3CN4LGXD5YVICNZY07XF0Q42X0K4YG", "dateTime": 1515868751585}, {"current_trial": 87, "trialdata": {"rt": -1, "trial_type": "single-stim", "stimulus": "<p id=\"stim\">1</p>", "internal_node_id": "0.0-60.0-9.0", "time_elapsed": 434925, "key_press": -1, "trial_index": 87}, "uniqueid": "MTK1361:3CN4LGXD5YVICNZY07XF0Q42X0K4YG", "dateTime": 1515868752585}, {"current_trial": 88, "trialdata": {"rt": -1, "trial_type": "single-stim", "stimulus": "<p id=\"stim\">+</p>", "internal_node_id": "0.0-61.0-0.0", "time_elapsed": 436439, "key_press": -1, "type": "FIXATION", "trial_index": 88}, "uniqueid": "MTK1361:3CN4LGXD5YVICNZY07XF0Q42X0K4YG", "dateTime": 1515868754099}, {"current_trial": 89, "trialdata": {"rt": -1, "trial_type": "single-stim", "word": "crib", "stimulus": "<p id=\"stim\">CRIB</p>", "conditions": [12, 1600, "v", 24000], "internal_node_id": "0.0-62.0", "trial": 2, "time_elapsed": 438065, "serialpos": 0, "key_press": -1, "wordID": 406, "type": "PRES_VIS", "trial_index": 89}, "uniqueid": "MTK1361:3CN4LGXD5YVICNZY07XF0Q42X0K4YG", "dateTime": 1515868755725}, {"current_trial": 90, "trialdata": {"rt": -1, "trial_type": "single-stim", "word": "woman", "stimulus": "<p id=\"stim\">WOMAN</p>", "conditions": [12, 1600, "v", 24000], "internal_node_id": "0.0-63.0", "trial": 2, "time_elapsed": 440531, "serialpos": 1, "key_press": -1, "wordID": 1619, "type": "PRES_VIS", "trial_index": 90}, "uniqueid": "MTK1361:3CN4LGXD5YVICNZY07XF0Q42X0K4YG", "dateTime": 1515868758191}, {"current_trial": 91, "trialdata": {"rt": -1, "trial_type": "single-stim", "word": "flower", "stimulus": "<p id=\"stim\">FLOWER</p>", "conditions": [12, 1600, "v", 24000], "internal_node_id": "0.0-64.0", "trial": 2, "time_elapsed": 443282, "serialpos": 2, "key_press": -1, "wordID": 583, "type": "PRES_VIS", "trial_index": 91}, "uniqueid": "MTK1361:3CN4LGXD5YVICNZY07XF0Q42X0K4YG", "dateTime": 1515868760942}, {"current_trial": 92, "trialdata": {"rt": -1, "trial_type": "single-stim", "word": "seafood", "stimulus": "<p id=\"stim\">SEAFOOD</p>", "conditions": [12, 1600, "v", 24000], "internal_node_id": "0.0-65.0", "trial": 2, "time_elapsed": 445752, "serialpos": 3, "key_press": -1, "wordID": 1259, "type": "PRES_VIS", "trial_index": 92}, "uniqueid": "MTK1361:3CN4LGXD5YVICNZY07XF0Q42X0K4YG", "dateTime": 1515868763412}, {"current_trial": 93, "trialdata": {"rt": -1, "trial_type": "single-stim", "word": "icing", "stimulus": "<p id=\"stim\">ICING</p>", "conditions": [12, 1600, "v", 24000], "internal_node_id": "0.0-66.0", "trial": 2, "time_elapsed": 448252, "serialpos": 4, "key_press": -1, "wordID": 731, "type": "PRES_VIS", "trial_index": 93}, "uniqueid": "MTK1361:3CN4LGXD5YVICNZY07XF0Q42X0K4YG", "dateTime": 1515868765912}, {"current_trial": 94, "trialdata": {"rt": -1, "trial_type": "single-stim", "word": "shelf", "stimulus": "<p id=\"stim\">SHELF</p>", "conditions": [12, 1600, "v", 24000], "internal_node_id": "0.0-67.0", "trial": 2, "time_elapsed": 450683, "serialpos": 5, "key_press": -1, "wordID": 1279, "type": "PRES_VIS", "trial_index": 94}, "uniqueid": "MTK1361:3CN4LGXD5YVICNZY07XF0Q42X0K4YG", "dateTime": 1515868768343}, {"current_trial": 95, "trialdata": {"rt": -1, "trial_type": "single-stim", "word": "marsh", "stimulus": "<p id=\"stim\">MARSH</p>", "conditions": [12, 1600, "v", 24000], "internal_node_id": "0.0-68.0", "trial": 2, "time_elapsed": 453438, "serialpos": 6, "key_press": -1, "wordID": 873, "type": "PRES_VIS", "trial_index": 95}, "uniqueid": "MTK1361:3CN4LGXD5YVICNZY07XF0Q42X0K4YG", "dateTime": 1515868771099}, {"current_trial": 96, "trialdata": {"rt": -1, "trial_type": "single-stim", "word": "necklace", "stimulus": "<p id=\"stim\">NECKLACE</p>", "conditions": [12, 1600, "v", 24000], "internal_node_id": "0.0-69.0", "trial": 2, "time_elapsed": 456110, "serialpos": 7, "key_press": -1, "wordID": 939, "type": "PRES_VIS", "trial_index": 96}, "uniqueid": "MTK1361:3CN4LGXD5YVICNZY07XF0Q42X0K4YG", "dateTime": 1515868773770}, {"current_trial": 97, "trialdata": {"rt": -1, "trial_type": "single-stim", "word": "cod", "stimulus": "<p id=\"stim\">COD</p>", "conditions": [12, 1600, "v", 24000], "internal_node_id": "0.0-70.0", "trial": 2, "time_elapsed": 458584, "serialpos": 8, "key_press": -1, "wordID": 339, "type": "PRES_VIS", "trial_index": 97}, "uniqueid": "MTK1361:3CN4LGXD5YVICNZY07XF0Q42X0K4YG", "dateTime": 1515868776244}, {"current_trial": 98, "trialdata": {"rt": -1, "trial_type": "single-stim", "word": "guitar", "stimulus": "<p id=\"stim\">GUITAR</p>", "conditions": [12, 1600, "v", 24000], "internal_node_id": "0.0-71.0", "trial": 2, "time_elapsed": 461371, "serialpos": 9, "key_press": -1, "wordID": 669, "type": "PRES_VIS", "trial_index": 98}, "uniqueid": "MTK1361:3CN4LGXD5YVICNZY07XF0Q42X0K4YG", "dateTime": 1515868779031}, {"current_trial": 99, "trialdata": {"rt": -1, "trial_type": "single-stim", "word": "harp", "stimulus": "<p id=\"stim\">HARP</p>", "conditions": [12, 1600, "v", 24000], "internal_node_id": "0.0-72.0", "trial": 2, "time_elapsed": 463876, "serialpos": 10, "key_press": -1, "wordID": 688, "type": "PRES_VIS", "trial_index": 99}, "uniqueid": "MTK1361:3CN4LGXD5YVICNZY07XF0Q42X0K4YG", "dateTime": 1515868781536}, {"current_trial": 100, "trialdata": {"rt": -1, "trial_type": "single-stim", "word": "flipper", "stimulus": "<p id=\"stim\">FLIPPER</p>", "conditions": [12, 1600, "v", 24000], "internal_node_id": "0.0-73.0", "trial": 2, "time_elapsed": 466315, "serialpos": 11, "key_press": -1, "wordID": 579, "type": "PRES_VIS", "trial_index": 100}, "uniqueid": "MTK1361:3CN4LGXD5YVICNZY07XF0Q42X0K4YG", "dateTime": 1515868783975}, {"current_trial": 101, "trialdata": {"rt": 1046, "trial_type": "single-stim", "stimulus": "", "internal_node_id": "0.0-74.0-0.0", "time_elapsed": 468438, "key_press": 37, "type": "PRE_RECALL_DELAY", "trial_index": 101}, "uniqueid": "MTK1361:3CN4LGXD5YVICNZY07XF0Q42X0K4YG", "dateTime": 1515868786098}, {"current_trial": 102, "trialdata": {"rt": -1000, "trial_type": "single-audio", "stimulus": "/static/audio/400Hz.wav", "internal_node_id": "0.0-75.0", "time_elapsed": 468940, "key_press": -1, "type": "PRE_RECALL_ALERT", "trial_index": 102}, "uniqueid": "MTK1361:3CN4LGXD5YVICNZY07XF0Q42X0K4YG", "dateTime": 1515868786601}, {"current_trial": 103, "trialdata": {"rt": [4183, 6057, 7401, 9354, 11453, 12370, 14323, 15495, 18212, 20344, 22966, 24157, 30890], "recwords": ["flipper", "crib", "guitar", "harp", "necklace", "cod", "woman", "flower", "seafood", "march", "shelf", "icing", "flower"], "key_times": [2167, 2432, 2901, 3111, 3260, 3435, 3532, 4183, 4995, 5199, 5401, 5578, 6057, 6448, 6604, 6729, 6885, 7011, 7120, 7401, 7729, 7833, 8229, 8542, 9354, 9999, 10133, 10384, 10745, 10838, 10932, 11111, 11337, 11453, 11663, 11839, 12011, 12370, 13542, 13597, 13792, 13885, 13989, 14323, 14617, 14669, 14870, 14932, 15009, 15183, 15495, 15964, 16323, 16785, 17354, 17508, 17662, 17856, 18212, 19232, 19280, 19381, 19714, 19818, 20344, 21185, 21503, 21760, 21854, 22505, 22966, 23307, 23480, 23557, 23697, 23904, 24157, 26017, 27690, 27986, 28116, 28148, 28313, 30890], "trial_type": "free-recall", "conditions": [12, 1600, "v", 24000], "internal_node_id": "0.0-76.0-0.0", "key_presses": [70, 76, 73, 80, 80, 69, 82, 13, 67, 82, 73, 66, 13, 71, 85, 73, 84, 65, 82, 13, 72, 65, 82, 80, 13, 78, 69, 67, 75, 76, 65, 67, 69, 13, 67, 79, 68, 13, 87, 79, 77, 65, 78, 13, 70, 76, 79, 87, 69, 82, 13, 83, 69, 65, 70, 79, 79, 68, 13, 77, 65, 82, 67, 72, 13, 83, 72, 69, 76, 70, 13, 73, 67, 73, 78, 71, 13, 70, 76, 79, 87, 69, 82, 13], "trial": 2, "time_elapsed": 528793, "type": "FREE_RECALL", "trial_index": 103}, "uniqueid": "MTK1361:3CN4LGXD5YVICNZY07XF0Q42X0K4YG", "dateTime": 1515868846458}, {"current_trial": 104, "trialdata": {"rt": 15849, "trial_type": "text", "internal_node_id": "0.0-77.0", "time_elapsed": 546647, "key_press": 32, "type": "INSTRUCTIONS", "trial_index": 104}, "uniqueid": "MTK1361:3CN4LGXD5YVICNZY07XF0Q42X0K4YG", "dateTime": 1515868864308}, {"current_trial": 105, "trialdata": {"rt": [2446, 4928, 9069, 10914], "trial_type": "math-distractor", "key_times": [1579, 1786, 2446, 4488, 4710, 4928, 8302, 8488, 9069, 10451, 10694, 10914], "responses": ["10", "15", "19", "14"], "num2": [3, 5, 6, 4, 1], "num3": [6, 9, 6, 6, 6], "conditions": [12, 1600, "v", 12000], "internal_node_id": "0.0-78.0", "key_presses": [49, 48, 13, 49, 53, 13, 49, 57, 13, 49, 52, 13], "trial": 3, "time_elapsed": 560516, "type": "DISTRACTOR", "trial_index": 105, "num1": [1, 1, 7, 4, 1]}, "uniqueid": "MTK1361:3CN4LGXD5YVICNZY07XF0Q42X0K4YG", "dateTime": 1515868878176}, {"current_trial": 106, "trialdata": {"rt": -1, "trial_type": "single-stim", "stimulus": "<p id=\"stim\">10</p>", "internal_node_id": "0.0-79.0-0.0", "time_elapsed": 563562, "key_press": -1, "trial_index": 106}, "uniqueid": "MTK1361:3CN4LGXD5YVICNZY07XF0Q42X0K4YG", "dateTime": 1515868881222}, {"current_trial": 107, "trialdata": {"rt": -1, "trial_type": "single-stim", "stimulus": "<p id=\"stim\">9</p>", "internal_node_id": "0.0-79.0-1.0", "time_elapsed": 564564, "key_press": -1, "trial_index": 107}, "uniqueid": "MTK1361:3CN4LGXD5YVICNZY07XF0Q42X0K4YG", "dateTime": 1515868882224}, {"current_trial": 108, "trialdata": {"rt": -1, "trial_type": "single-stim", "stimulus": "<p id=\"stim\">8</p>", "internal_node_id": "0.0-79.0-2.0", "time_elapsed": 565565, "key_press": -1, "trial_index": 108}, "uniqueid": "MTK1361:3CN4LGXD5YVICNZY07XF0Q42X0K4YG", "dateTime": 1515868883225}, {"current_trial": 109, "trialdata": {"rt": -1, "trial_type": "single-stim", "stimulus": "<p id=\"stim\">7</p>", "internal_node_id": "0.0-79.0-3.0", "time_elapsed": 566593, "key_press": -1, "trial_index": 109}, "uniqueid": "MTK1361:3CN4LGXD5YVICNZY07XF0Q42X0K4YG", "dateTime": 1515868884253}, {"current_trial": 110, "trialdata": {"rt": -1, "trial_type": "single-stim", "stimulus": "<p id=\"stim\">6</p>", "internal_node_id": "0.0-79.0-4.0", "time_elapsed": 567594, "key_press": -1, "trial_index": 110}, "uniqueid": "MTK1361:3CN4LGXD5YVICNZY07XF0Q42X0K4YG", "dateTime": 1515868885255}, {"current_trial": 111, "trialdata": {"rt": -1, "trial_type": "single-stim", "stimulus": "<p id=\"stim\">5</p>", "internal_node_id": "0.0-79.0-5.0", "time_elapsed": 568595, "key_press": -1, "trial_index": 111}, "uniqueid": "MTK1361:3CN4LGXD5YVICNZY07XF0Q42X0K4YG", "dateTime": 1515868886255}, {"current_trial": 112, "trialdata": {"rt": -1, "trial_type": "single-stim", "stimulus": "<p id=\"stim\">4</p>", "internal_node_id": "0.0-79.0-6.0", "time_elapsed": 569596, "key_press": -1, "trial_index": 112}, "uniqueid": "MTK1361:3CN4LGXD5YVICNZY07XF0Q42X0K4YG", "dateTime": 1515868887256}, {"current_trial": 113, "trialdata": {"rt": -1, "trial_type": "single-stim", "stimulus": "<p id=\"stim\">3</p>", "internal_node_id": "0.0-79.0-7.0", "time_elapsed": 570597, "key_press": -1, "trial_index": 113}, "uniqueid": "MTK1361:3CN4LGXD5YVICNZY07XF0Q42X0K4YG", "dateTime": 1515868888257}, {"current_trial": 114, "trialdata": {"rt": -1, "trial_type": "single-stim", "stimulus": "<p id=\"stim\">2</p>", "internal_node_id": "0.0-79.0-8.0", "time_elapsed": 571598, "key_press": -1, "trial_index": 114}, "uniqueid": "MTK1361:3CN4LGXD5YVICNZY07XF0Q42X0K4YG", "dateTime": 1515868889258}, {"current_trial": 115, "trialdata": {"rt": -1, "trial_type": "single-stim", "stimulus": "<p id=\"stim\">1</p>", "internal_node_id": "0.0-79.0-9.0", "time_elapsed": 572600, "key_press": -1, "trial_index": 115}, "uniqueid": "MTK1361:3CN4LGXD5YVICNZY07XF0Q42X0K4YG", "dateTime": 1515868890261}, {"current_trial": 116, "trialdata": {"rt": -1, "trial_type": "single-stim", "stimulus": "<p id=\"stim\">+</p>", "internal_node_id": "0.0-80.0-0.0", "time_elapsed": 574102, "key_press": -1, "type": "FIXATION", "trial_index": 116}, "uniqueid": "MTK1361:3CN4LGXD5YVICNZY07XF0Q42X0K4YG", "dateTime": 1515868891762}, {"current_trial": 117, "trialdata": {"rt": -1, "trial_type": "single-stim", "word": "knife", "stimulus": "<p id=\"stim\">KNIFE</p>", "conditions": [12, 1600, "v", 12000], "internal_node_id": "0.0-81.0", "trial": 3, "time_elapsed": 575703, "serialpos": 0, "key_press": -1, "wordID": 784, "type": "PRES_VIS", "trial_index": 117}, "uniqueid": "MTK1361:3CN4LGXD5YVICNZY07XF0Q42X0K4YG", "dateTime": 1515868893363}, {"current_trial": 118, "trialdata": {"rt": -1, "trial_type": "single-stim", "word": "sword", "stimulus": "<p id=\"stim\">SWORD</p>", "conditions": [12, 1600, "v", 12000], "internal_node_id": "0.0-82.0", "trial": 3, "time_elapsed": 578147, "serialpos": 1, "key_press": -1, "wordID": 1422, "type": "PRES_VIS", "trial_index": 118}, "uniqueid": "MTK1361:3CN4LGXD5YVICNZY07XF0Q42X0K4YG", "dateTime": 1515868895807}, {"current_trial": 119, "trialdata": {"rt": -1, "trial_type": "single-stim", "word": "pliers", "stimulus": "<p id=\"stim\">PLIERS</p>", "conditions": [12, 1600, "v", 12000], "internal_node_id": "0.0-83.0", "trial": 3, "time_elapsed": 580772, "serialpos": 2, "key_press": -1, "wordID": 1088, "type": "PRES_VIS", "trial_index": 119}, "uniqueid": "MTK1361:3CN4LGXD5YVICNZY07XF0Q42X0K4YG", "dateTime": 1515868898432}, {"current_trial": 120, "trialdata": {"rt": -1, "trial_type": "single-stim", "word": "chapel", "stimulus": "<p id=\"stim\">CHAPEL</p>", "conditions": [12, 1600, "v", 12000], "internal_node_id": "0.0-84.0", "trial": 3, "time_elapsed": 583624, "serialpos": 3, "key_press": -1, "wordID": 279, "type": "PRES_VIS", "trial_index": 120}, "uniqueid": "MTK1361:3CN4LGXD5YVICNZY07XF0Q42X0K4YG", "dateTime": 1515868901284}, {"current_trial": 121, "trialdata": {"rt": -1, "trial_type": "single-stim", "word": "outdoors", "stimulus": "<p id=\"stim\">OUTDOORS</p>", "conditions": [12, 1600, "v", 12000], "internal_node_id": "0.0-85.0", "trial": 3, "time_elapsed": 586125, "serialpos": 4, "key_press": -1, "wordID": 986, "type": "PRES_VIS", "trial_index": 121}, "uniqueid": "MTK1361:3CN4LGXD5YVICNZY07XF0Q42X0K4YG", "dateTime": 1515868903786}, {"current_trial": 122, "trialdata": {"rt": -1, "trial_type": "single-stim", "word": "treat", "stimulus": "<p id=\"stim\">TREAT</p>", "conditions": [12, 1600, "v", 12000], "internal_node_id": "0.0-86.0", "trial": 3, "time_elapsed": 588563, "serialpos": 5, "key_press": -1, "wordID": 1500, "type": "PRES_VIS", "trial_index": 122}, "uniqueid": "MTK1361:3CN4LGXD5YVICNZY07XF0Q42X0K4YG", "dateTime": 1515868906224}, {"current_trial": 123, "trialdata": {"rt": -1, "trial_type": "single-stim", "word": "snail", "stimulus": "<p id=\"stim\">SNAIL</p>", "conditions": [12, 1600, "v", 12000], "internal_node_id": "0.0-87.0", "trial": 3, "time_elapsed": 591406, "serialpos": 6, "key_press": -1, "wordID": 1331, "type": "PRES_VIS", "trial_index": 123}, "uniqueid": "MTK1361:3CN4LGXD5YVICNZY07XF0Q42X0K4YG", "dateTime": 1515868909066}, {"current_trial": 124, "trialdata": {"rt": -1, "trial_type": "single-stim", "word": "mummy", "stimulus": "<p id=\"stim\">MUMMY</p>", "conditions": [12, 1600, "v", 12000], "internal_node_id": "0.0-88.0", "trial": 3, "time_elapsed": 594125, "serialpos": 7, "key_press": -1, "wordID": 931, "type": "PRES_VIS", "trial_index": 124}, "uniqueid": "MTK1361:3CN4LGXD5YVICNZY07XF0Q42X0K4YG", "dateTime": 1515868911786}, {"current_trial": 125, "trialdata": {"rt": -1, "trial_type": "single-stim", "word": "maple", "stimulus": "<p id=\"stim\">MAPLE</p>", "conditions": [12, 1600, "v", 12000], "internal_node_id": "0.0-89.0", "trial": 3, "time_elapsed": 596547, "serialpos": 8, "key_press": -1, "wordID": 865, "type": "PRES_VIS", "trial_index": 125}, "uniqueid": "MTK1361:3CN4LGXD5YVICNZY07XF0Q42X0K4YG", "dateTime": 1515868914207}, {"current_trial": 126, "trialdata": {"rt": -1, "trial_type": "single-stim", "word": "peanut", "stimulus": "<p id=\"stim\">PEANUT</p>", "conditions": [12, 1600, "v", 12000], "internal_node_id": "0.0-90.0", "trial": 3, "time_elapsed": 599062, "serialpos": 9, "key_press": -1, "wordID": 1031, "type": "PRES_VIS", "trial_index": 126}, "uniqueid": "MTK1361:3CN4LGXD5YVICNZY07XF0Q42X0K4YG", "dateTime": 1515868916723}, {"current_trial": 127, "trialdata": {"rt": -1, "trial_type": "single-stim", "word": "church", "stimulus": "<p id=\"stim\">CHURCH</p>", "conditions": [12, 1600, "v", 12000], "internal_node_id": "0.0-91.0", "trial": 3, "time_elapsed": 601609, "serialpos": 10, "key_press": -1, "wordID": 306, "type": "PRES_VIS", "trial_index": 127}, "uniqueid": "MTK1361:3CN4LGXD5YVICNZY07XF0Q42X0K4YG", "dateTime": 1515868919270}, {"current_trial": 128, "trialdata": {"rt": -1, "trial_type": "single-stim", "word": "wasp", "stimulus": "<p id=\"stim\">WASP</p>", "conditions": [12, 1600, "v", 12000], "internal_node_id": "0.0-92.0", "trial": 3, "time_elapsed": 604079, "serialpos": 11, "key_press": -1, "wordID": 1592, "type": "PRES_VIS", "trial_index": 128}, "uniqueid": "MTK1361:3CN4LGXD5YVICNZY07XF0Q42X0K4YG", "dateTime": 1515868921739}, {"current_trial": 129, "trialdata": {"rt": -1, "trial_type": "single-stim", "stimulus": "", "internal_node_id": "0.0-93.0-0.0", "time_elapsed": 606533, "key_press": -1, "type": "PRE_RECALL_DELAY", "trial_index": 129}, "uniqueid": "MTK1361:3CN4LGXD5YVICNZY07XF0Q42X0K4YG", "dateTime": 1515868924193}, {"current_trial": 130, "trialdata": {"rt": -1000, "trial_type": "single-audio", "stimulus": "/static/audio/400Hz.wav", "internal_node_id": "0.0-94.0", "time_elapsed": 607036, "key_press": -1, "type": "PRE_RECALL_ALERT", "trial_index": 130}, "uniqueid": "MTK1361:3CN4LGXD5YVICNZY07XF0Q42X0K4YG", "dateTime": 1515868924697}, {"current_trial": 131, "trialdata": {"rt": [4305, 7682, 9197, 11448, 13656, 15117, 48404, 52118, 54885, 58307], "recwords": ["peanut", "knife", "sword", "pliers", "outdoors", "chapel", "wasp", "church", "trend", "mummy"], "key_times": [1196, 3138, 3217, 3353, 3459, 3681, 3884, 4305, 4903, 5035, 5214, 5962, 6495, 7060, 7416, 7682, 7901, 8029, 8121, 8479, 8885, 9197, 9729, 9923, 10033, 10182, 10260, 10651, 11448, 12058, 12166, 12353, 12891, 13057, 13182, 13323, 13487, 13656, 13902, 14027, 14166, 14432, 14635, 14863, 15117, 46840, 47041, 47166, 48030, 48404, 50464, 50666, 50897, 51028, 51384, 51510, 52118, 53885, 54042, 54339, 54464, 54682, 54885, 56245, 56506, 56950, 57092, 57791, 58307, 59755], "trial_type": "free-recall", "conditions": [12, 1600, "v", 12000], "internal_node_id": "0.0-95.0-0.0", "key_presses": [16, 80, 69, 65, 78, 85, 84, 13, 75, 78, 75, 8, 73, 70, 69, 13, 83, 87, 79, 82, 68, 13, 80, 76, 73, 69, 82, 83, 13, 79, 85, 84, 68, 79, 79, 82, 83, 13, 67, 72, 65, 80, 69, 76, 13, 87, 65, 83, 80, 13, 67, 72, 85, 82, 67, 72, 13, 84, 82, 69, 78, 68, 13, 77, 85, 77, 77, 89, 13, 83], "trial": 3, "time_elapsed": 666900, "type": "FREE_RECALL", "trial_index": 131}, "uniqueid": "MTK1361:3CN4LGXD5YVICNZY07XF0Q42X0K4YG", "dateTime": 1515868984566}, {"current_trial": 132, "trialdata": {"rt": 1397, "trial_type": "text", "internal_node_id": "0.0-96.0", "time_elapsed": 670304, "key_press": 32, "type": "INSTRUCTIONS", "trial_index": 132}, "uniqueid": "MTK1361:3CN4LGXD5YVICNZY07XF0Q42X0K4YG", "dateTime": 1515868987965}, {"current_trial": 133, "trialdata": {"rt": [5266, 9750], "trial_type": "math-distractor", "key_times": [2501, 2635, 5266, 9415, 9625, 9627, 9750], "responses": ["11", "212"], "num2": [8, 9, 2], "num3": [2, 6, 2], "conditions": [24, 800, "v", 12000], "internal_node_id": "0.0-97.0", "key_presses": [49, 49, 13, 50, 49, 50, 13], "trial": 4, "time_elapsed": 684198, "type": "DISTRACTOR", "trial_index": 133, "num1": [1, 7, 9]}, "uniqueid": "MTK1361:3CN4LGXD5YVICNZY07XF0Q42X0K4YG", "dateTime": 1515869001858}, {"current_trial": 134, "trialdata": {"rt": -1, "trial_type": "single-stim", "stimulus": "<p id=\"stim\">10</p>", "internal_node_id": "0.0-98.0-0.0", "time_elapsed": 687259, "key_press": -1, "trial_index": 134}, "uniqueid": "MTK1361:3CN4LGXD5YVICNZY07XF0Q42X0K4YG", "dateTime": 1515869004919}, {"current_trial": 135, "trialdata": {"rt": -1, "trial_type": "single-stim", "stimulus": "<p id=\"stim\">9</p>", "internal_node_id": "0.0-98.0-1.0", "time_elapsed": 688274, "key_press": -1, "trial_index": 135}, "uniqueid": "MTK1361:3CN4LGXD5YVICNZY07XF0Q42X0K4YG", "dateTime": 1515869005935}, {"current_trial": 136, "trialdata": {"rt": -1, "trial_type": "single-stim", "stimulus": "<p id=\"stim\">8</p>", "internal_node_id": "0.0-98.0-2.0", "time_elapsed": 689280, "key_press": -1, "trial_index": 136}, "uniqueid": "MTK1361:3CN4LGXD5YVICNZY07XF0Q42X0K4YG", "dateTime": 1515869006940}, {"current_trial": 137, "trialdata": {"rt": -1, "trial_type": "single-stim", "stimulus": "<p id=\"stim\">7</p>", "internal_node_id": "0.0-98.0-3.0", "time_elapsed": 690280, "key_press": -1, "trial_index": 137}, "uniqueid": "MTK1361:3CN4LGXD5YVICNZY07XF0Q42X0K4YG", "dateTime": 1515869007940}, {"current_trial": 138, "trialdata": {"rt": -1, "trial_type": "single-stim", "stimulus": "<p id=\"stim\">6</p>", "internal_node_id": "0.0-98.0-4.0", "time_elapsed": 691282, "key_press": -1, "trial_index": 138}, "uniqueid": "MTK1361:3CN4LGXD5YVICNZY07XF0Q42X0K4YG", "dateTime": 1515869008942}, {"current_trial": 139, "trialdata": {"rt": -1, "trial_type": "single-stim", "stimulus": "<p id=\"stim\">5</p>", "internal_node_id": "0.0-98.0-5.0", "time_elapsed": 692291, "key_press": -1, "trial_index": 139}, "uniqueid": "MTK1361:3CN4LGXD5YVICNZY07XF0Q42X0K4YG", "dateTime": 1515869009951}, {"current_trial": 140, "trialdata": {"rt": -1, "trial_type": "single-stim", "stimulus": "<p id=\"stim\">4</p>", "internal_node_id": "0.0-98.0-6.0", "time_elapsed": 693292, "key_press": -1, "trial_index": 140}, "uniqueid": "MTK1361:3CN4LGXD5YVICNZY07XF0Q42X0K4YG", "dateTime": 1515869010952}, {"current_trial": 141, "trialdata": {"rt": -1, "trial_type": "single-stim", "stimulus": "<p id=\"stim\">3</p>", "internal_node_id": "0.0-98.0-7.0", "time_elapsed": 694321, "key_press": -1, "trial_index": 141}, "uniqueid": "MTK1361:3CN4LGXD5YVICNZY07XF0Q42X0K4YG", "dateTime": 1515869011981}, {"current_trial": 142, "trialdata": {"rt": -1, "trial_type": "single-stim", "stimulus": "<p id=\"stim\">2</p>", "internal_node_id": "0.0-98.0-8.0", "time_elapsed": 695323, "key_press": -1, "trial_index": 142}, "uniqueid": "MTK1361:3CN4LGXD5YVICNZY07XF0Q42X0K4YG", "dateTime": 1515869012983}, {"current_trial": 143, "trialdata": {"rt": -1, "trial_type": "single-stim", "stimulus": "<p id=\"stim\">1</p>", "internal_node_id": "0.0-98.0-9.0", "time_elapsed": 696337, "key_press": -1, "trial_index": 143}, "uniqueid": "MTK1361:3CN4LGXD5YVICNZY07XF0Q42X0K4YG", "dateTime": 1515869013999}, {"current_trial": 144, "trialdata": {"rt": -1, "trial_type": "single-stim", "stimulus": "<p id=\"stim\">+</p>", "internal_node_id": "0.0-99.0-0.0", "time_elapsed": 697840, "key_press": -1, "type": "FIXATION", "trial_index": 144}, "uniqueid": "MTK1361:3CN4LGXD5YVICNZY07XF0Q42X0K4YG", "dateTime": 1515869015500}, {"current_trial": 145, "trialdata": {"rt": -1, "trial_type": "single-stim", "word": "clothes", "stimulus": "<p id=\"stim\">CLOTHES</p>", "conditions": [24, 800, "v", 12000], "internal_node_id": "0.0-100.0", "trial": 4, "time_elapsed": 698649, "serialpos": 0, "key_press": -1, "wordID": 326, "type": "PRES_VIS", "trial_index": 145}, "uniqueid": "MTK1361:3CN4LGXD5YVICNZY07XF0Q42X0K4YG", "dateTime": 1515869016310}, {"current_trial": 146, "trialdata": {"rt": -1, "trial_type": "single-stim", "word": "denim", "stimulus": "<p id=\"stim\">DENIM</p>", "conditions": [24, 800, "v", 12000], "internal_node_id": "0.0-101.0", "trial": 4, "time_elapsed": 700513, "serialpos": 1, "key_press": -1, "wordID": 445, "type": "PRES_VIS", "trial_index": 146}, "uniqueid": "MTK1361:3CN4LGXD5YVICNZY07XF0Q42X0K4YG", "dateTime": 1515869018173}, {"current_trial": 147, "trialdata": {"rt": -1, "trial_type": "single-stim", "word": "crevice", "stimulus": "<p id=\"stim\">CREVICE</p>", "conditions": [24, 800, "v", 12000], "internal_node_id": "0.0-102.0", "trial": 4, "time_elapsed": 702494, "serialpos": 2, "key_press": -1, "wordID": 404, "type": "PRES_VIS", "trial_index": 147}, "uniqueid": "MTK1361:3CN4LGXD5YVICNZY07XF0Q42X0K4YG", "dateTime": 1515869020154}, {"current_trial": 148, "trialdata": {"rt": -1, "trial_type": "single-stim", "word": "fiddle", "stimulus": "<p id=\"stim\">FIDDLE</p>", "conditions": [24, 800, "v", 12000], "internal_node_id": "0.0-103.0", "trial": 4, "time_elapsed": 704275, "serialpos": 3, "key_press": -1, "wordID": 560, "type": "PRES_VIS", "trial_index": 148}, "uniqueid": "MTK1361:3CN4LGXD5YVICNZY07XF0Q42X0K4YG", "dateTime": 1515869021935}, {"current_trial": 149, "trialdata": {"rt": -1, "trial_type": "single-stim", "word": "judge", "stimulus": "<p id=\"stim\">JUDGE</p>", "conditions": [24, 800, "v", 12000], "internal_node_id": "0.0-104.0", "trial": 4, "time_elapsed": 706165, "serialpos": 4, "key_press": -1, "wordID": 760, "type": "PRES_VIS", "trial_index": 149}, "uniqueid": "MTK1361:3CN4LGXD5YVICNZY07XF0Q42X0K4YG", "dateTime": 1515869023825}, {"current_trial": 150, "trialdata": {"rt": -1, "trial_type": "single-stim", "word": "witness", "stimulus": "<p id=\"stim\">WITNESS</p>", "conditions": [24, 800, "v", 12000], "internal_node_id": "0.0-105.0", "trial": 4, "time_elapsed": 708024, "serialpos": 5, "key_press": -1, "wordID": 1617, "type": "PRES_VIS", "trial_index": 150}, "uniqueid": "MTK1361:3CN4LGXD5YVICNZY07XF0Q42X0K4YG", "dateTime": 1515869025685}, {"current_trial": 151, "trialdata": {"rt": -1, "trial_type": "single-stim", "word": "frame", "stimulus": "<p id=\"stim\">FRAME</p>", "conditions": [24, 800, "v", 12000], "internal_node_id": "0.0-106.0", "trial": 4, "time_elapsed": 709872, "serialpos": 6, "key_press": -1, "wordID": 599, "type": "PRES_VIS", "trial_index": 151}, "uniqueid": "MTK1361:3CN4LGXD5YVICNZY07XF0Q42X0K4YG", "dateTime": 1515869027532}, {"current_trial": 152, "trialdata": {"rt": -1, "trial_type": "single-stim", "word": "asia", "stimulus": "<p id=\"stim\">ASIA</p>", "conditions": [24, 800, "v", 12000], "internal_node_id": "0.0-107.0", "trial": 4, "time_elapsed": 711544, "serialpos": 7, "key_press": -1, "wordID": 45, "type": "PRES_VIS", "trial_index": 152}, "uniqueid": "MTK1361:3CN4LGXD5YVICNZY07XF0Q42X0K4YG", "dateTime": 1515869029204}, {"current_trial": 153, "trialdata": {"rt": -1, "trial_type": "single-stim", "word": "hornet", "stimulus": "<p id=\"stim\">HORNET</p>", "conditions": [24, 800, "v", 12000], "internal_node_id": "0.0-108.0", "trial": 4, "time_elapsed": 713450, "serialpos": 8, "key_press": -1, "wordID": 717, "type": "PRES_VIS", "trial_index": 153}, "uniqueid": "MTK1361:3CN4LGXD5YVICNZY07XF0Q42X0K4YG", "dateTime": 1515869031110}, {"current_trial": 154, "trialdata": {"rt": -1, "trial_type": "single-stim", "word": "quarter", "stimulus": "<p id=\"stim\">QUARTER</p>", "conditions": [24, 800, "v", 12000], "internal_node_id": "0.0-109.0", "trial": 4, "time_elapsed": 715121, "serialpos": 9, "key_press": -1, "wordID": 1147, "type": "PRES_VIS", "trial_index": 154}, "uniqueid": "MTK1361:3CN4LGXD5YVICNZY07XF0Q42X0K4YG", "dateTime": 1515869032782}, {"current_trial": 155, "trialdata": {"rt": -1, "trial_type": "single-stim", "word": "europe", "stimulus": "<p id=\"stim\">EUROPE</p>", "conditions": [24, 800, "v", 12000], "internal_node_id": "0.0-110.0", "trial": 4, "time_elapsed": 716858, "serialpos": 10, "key_press": -1, "wordID": 540, "type": "PRES_VIS", "trial_index": 155}, "uniqueid": "MTK1361:3CN4LGXD5YVICNZY07XF0Q42X0K4YG", "dateTime": 1515869034518}, {"current_trial": 156, "trialdata": {"rt": -1, "trial_type": "single-stim", "word": "citrus", "stimulus": "<p id=\"stim\">CITRUS</p>", "conditions": [24, 800, "v", 12000], "internal_node_id": "0.0-111.0", "trial": 4, "time_elapsed": 718548, "serialpos": 11, "key_press": -1, "wordID": 312, "type": "PRES_VIS", "trial_index": 156}, "uniqueid": "MTK1361:3CN4LGXD5YVICNZY07XF0Q42X0K4YG", "dateTime": 1515869036208}, {"current_trial": 157, "trialdata": {"rt": -1, "trial_type": "single-stim", "word": "jelly", "stimulus": "<p id=\"stim\">JELLY</p>", "conditions": [24, 800, "v", 12000], "internal_node_id": "0.0-112.0", "trial": 4, "time_elapsed": 720270, "serialpos": 12, "key_press": -1, "wordID": 754, "type": "PRES_VIS", "trial_index": 157}, "uniqueid": "MTK1361:3CN4LGXD5YVICNZY07XF0Q42X0K4YG", "dateTime": 1515869037930}, {"current_trial": 158, "trialdata": {"rt": -1, "trial_type": "single-stim", "word": "jello", "stimulus": "<p id=\"stim\">JELLO</p>", "conditions": [24, 800, "v", 12000], "internal_node_id": "0.0-113.0", "trial": 4, "time_elapsed": 721950, "serialpos": 13, "key_press": -1, "wordID": 753, "type": "PRES_VIS", "trial_index": 158}, "uniqueid": "MTK1361:3CN4LGXD5YVICNZY07XF0Q42X0K4YG", "dateTime": 1515869039610}, {"current_trial": 159, "trialdata": {"rt": -1, "trial_type": "single-stim", "word": "scotch", "stimulus": "<p id=\"stim\">SCOTCH</p>", "conditions": [24, 800, "v", 12000], "internal_node_id": "0.0-114.0", "trial": 4, "time_elapsed": 723918, "serialpos": 14, "key_press": -1, "wordID": 1250, "type": "PRES_VIS", "trial_index": 159}, "uniqueid": "MTK1361:3CN4LGXD5YVICNZY07XF0Q42X0K4YG", "dateTime": 1515869041578}, {"current_trial": 160, "trialdata": {"rt": -1, "trial_type": "single-stim", "word": "passage", "stimulus": "<p id=\"stim\">PASSAGE</p>", "conditions": [24, 800, "v", 12000], "internal_node_id": "0.0-115.0", "trial": 4, "time_elapsed": 725902, "serialpos": 15, "key_press": -1, "wordID": 1018, "type": "PRES_VIS", "trial_index": 160}, "uniqueid": "MTK1361:3CN4LGXD5YVICNZY07XF0Q42X0K4YG", "dateTime": 1515869043562}, {"current_trial": 161, "trialdata": {"rt": -1, "trial_type": "single-stim", "word": "lily", "stimulus": "<p id=\"stim\">LILY</p>", "conditions": [24, 800, "v", 12000], "internal_node_id": "0.0-116.0", "trial": 4, "time_elapsed": 727699, "serialpos": 16, "key_press": -1, "wordID": 820, "type": "PRES_VIS", "trial_index": 161}, "uniqueid": "MTK1361:3CN4LGXD5YVICNZY07XF0Q42X0K4YG", "dateTime": 1515869045359}, {"current_trial": 162, "trialdata": {"rt": -1, "trial_type": "single-stim", "word": "flag", "stimulus": "<p id=\"stim\">FLAG</p>", "conditions": [24, 800, "v", 12000], "internal_node_id": "0.0-117.0", "trial": 4, "time_elapsed": 729415, "serialpos": 17, "key_press": -1, "wordID": 572, "type": "PRES_VIS", "trial_index": 162}, "uniqueid": "MTK1361:3CN4LGXD5YVICNZY07XF0Q42X0K4YG", "dateTime": 1515869047076}, {"current_trial": 163, "trialdata": {"rt": -1, "trial_type": "single-stim", "word": "bathtub", "stimulus": "<p id=\"stim\">BATHTUB</p>", "conditions": [24, 800, "v", 12000], "internal_node_id": "0.0-118.0", "trial": 4, "time_elapsed": 731262, "serialpos": 18, "key_press": -1, "wordID": 99, "type": "PRES_VIS", "trial_index": 163}, "uniqueid": "MTK1361:3CN4LGXD5YVICNZY07XF0Q42X0K4YG", "dateTime": 1515869048922}, {"current_trial": 164, "trialdata": {"rt": -1, "trial_type": "single-stim", "word": "dustpan", "stimulus": "<p id=\"stim\">DUSTPAN</p>", "conditions": [24, 800, "v", 12000], "internal_node_id": "0.0-119.0", "trial": 4, "time_elapsed": 733103, "serialpos": 19, "key_press": -1, "wordID": 508, "type": "PRES_VIS", "trial_index": 164}, "uniqueid": "MTK1361:3CN4LGXD5YVICNZY07XF0Q42X0K4YG", "dateTime": 1515869050763}, {"current_trial": 165, "trialdata": {"rt": -1, "trial_type": "single-stim", "word": "basement", "stimulus": "<p id=\"stim\">BASEMENT</p>", "conditions": [24, 800, "v", 12000], "internal_node_id": "0.0-120.0", "trial": 4, "time_elapsed": 734626, "serialpos": 20, "key_press": -1, "wordID": 93, "type": "PRES_VIS", "trial_index": 165}, "uniqueid": "MTK1361:3CN4LGXD5YVICNZY07XF0Q42X0K4YG", "dateTime": 1515869052286}, {"current_trial": 166, "trialdata": {"rt": -1, "trial_type": "single-stim", "word": "iceberg", "stimulus": "<p id=\"stim\">ICEBERG</p>", "conditions": [24, 800, "v", 12000], "internal_node_id": "0.0-121.0", "trial": 4, "time_elapsed": 736305, "serialpos": 21, "key_press": -1, "wordID": 730, "type": "PRES_VIS", "trial_index": 166}, "uniqueid": "MTK1361:3CN4LGXD5YVICNZY07XF0Q42X0K4YG", "dateTime": 1515869053965}, {"current_trial": 167, "trialdata": {"rt": -1, "trial_type": "single-stim", "word": "rifle", "stimulus": "<p id=\"stim\">RIFLE</p>", "conditions": [24, 800, "v", 12000], "internal_node_id": "0.0-122.0", "trial": 4, "time_elapsed": 738207, "serialpos": 22, "key_press": -1, "wordID": 1191, "type": "PRES_VIS", "trial_index": 167}, "uniqueid": "MTK1361:3CN4LGXD5YVICNZY07XF0Q42X0K4YG", "dateTime": 1515869055868}, {"current_trial": 168, "trialdata": {"rt": -1, "trial_type": "single-stim", "word": "daisy", "stimulus": "<p id=\"stim\">DAISY</p>", "conditions": [24, 800, "v", 12000], "internal_node_id": "0.0-123.0", "trial": 4, "time_elapsed": 739969, "serialpos": 23, "key_press": -1, "wordID": 434, "type": "PRES_VIS", "trial_index": 168}, "uniqueid": "MTK1361:3CN4LGXD5YVICNZY07XF0Q42X0K4YG", "dateTime": 1515869057629}, {"current_trial": 169, "trialdata": {"rt": -1, "trial_type": "single-stim", "stimulus": "", "internal_node_id": "0.0-124.0-0.0", "time_elapsed": 742445, "key_press": -1, "type": "PRE_RECALL_DELAY", "trial_index": 169}, "uniqueid": "MTK1361:3CN4LGXD5YVICNZY07XF0Q42X0K4YG", "dateTime": 1515869060105}, {"current_trial": 170, "trialdata": {"rt": -1000, "trial_type": "single-audio", "stimulus": "/static/audio/400Hz.wav", "internal_node_id": "0.0-125.0", "time_elapsed": 743004, "key_press": -1, "type": "PRE_RECALL_ALERT", "trial_index": 170}, "uniqueid": "MTK1361:3CN4LGXD5YVICNZY07XF0Q42X0K4YG", "dateTime": 1515869060664}, {"current_trial": 171, "trialdata": {"rt": [3431, 5151, 8474, 9308, 10746, 13761, 45417, 53050, 55761, 58419], "recwords": ["daisy", "rifle", "europe", "asia", "witness", "iceberg", "basement", "fiddle", "rifle", "crevice"], "key_times": [2059, 2559, 2745, 2884, 3090, 3431, 3776, 4399, 4651, 4789, 4961, 5151, 5526, 5745, 6496, 6666, 7105, 7574, 7805, 7964, 8104, 8235, 8474, 8604, 8714, 8901, 9104, 9308, 9526, 9617, 9777, 10074, 10235, 10448, 10610, 10746, 10932, 11089, 11297, 11620, 12059, 12190, 12792, 13761, 39698, 39841, 39937, 40123, 40584, 40698, 40839, 40995, 45417, 52011, 52184, 52339, 52480, 52693, 52857, 53050, 54617, 54870, 54966, 55121, 55237, 55761, 56959, 57184, 57369, 57636, 57870, 57980, 58136, 58419, 58870, 59063, 59237, 59486, 59677], "trial_type": "free-recall", "conditions": [24, 800, "v", 12000], "internal_node_id": "0.0-126.0-0.0", "key_presses": [68, 65, 73, 83, 89, 13, 82, 73, 70, 76, 69, 13, 87, 85, 8, 8, 69, 85, 82, 79, 80, 69, 13, 65, 83, 73, 65, 13, 87, 73, 84, 78, 69, 83, 83, 13, 73, 67, 69, 66, 69, 82, 71, 13, 66, 65, 83, 69, 77, 69, 78, 84, 13, 70, 73, 68, 68, 76, 69, 13, 82, 73, 70, 76, 69, 13, 67, 82, 69, 86, 73, 67, 69, 13, 68, 69, 78, 73, 77], "trial": 4, "time_elapsed": 802880, "type": "FREE_RECALL", "trial_index": 171}, "uniqueid": "MTK1361:3CN4LGXD5YVICNZY07XF0Q42X0K4YG", "dateTime": 1515869120546}, {"current_trial": 172, "trialdata": {"rt": 9156, "trial_type": "text", "internal_node_id": "0.0-127.0", "time_elapsed": 814052, "key_press": 32, "type": "INSTRUCTIONS", "trial_index": 172}, "uniqueid": "MTK1361:3CN4LGXD5YVICNZY07XF0Q42X0K4YG", "dateTime": 1515869131712}, {"current_trial": 173, "trialdata": {"rt": [4117, 5872, 8025, 9909, 11684], "trial_type": "math-distractor", "key_times": [3559, 3715, 4117, 5356, 5543, 5872, 7653, 7736, 8025, 9653, 9909, 11262, 11515, 11684], "responses": ["17", "13", "23", "5", "13"], "num2": [8, 1, 9, 3, 4, 9], "num3": [2, 6, 9, 1, 8, 5], "conditions": [24, 1600, "v", 12000], "internal_node_id": "0.0-128.0", "key_presses": [49, 55, 13, 49, 51, 13, 50, 51, 13, 53, 13, 49, 51, 13], "trial": 5, "time_elapsed": 828055, "type": "DISTRACTOR", "trial_index": 173, "num1": [7, 6, 5, 1, 1, 1]}, "uniqueid": "MTK1361:3CN4LGXD5YVICNZY07XF0Q42X0K4YG", "dateTime": 1515869145716}, {"current_trial": 174, "trialdata": {"rt": -1, "trial_type": "single-stim", "stimulus": "<p id=\"stim\">10</p>", "internal_node_id": "0.0-129.0-0.0", "time_elapsed": 831057, "key_press": -1, "trial_index": 174}, "uniqueid": "MTK1361:3CN4LGXD5YVICNZY07XF0Q42X0K4YG", "dateTime": 1515869148717}, {"current_trial": 175, "trialdata": {"rt": -1, "trial_type": "single-stim", "stimulus": "<p id=\"stim\">9</p>", "internal_node_id": "0.0-129.0-1.0", "time_elapsed": 832058, "key_press": -1, "trial_index": 175}, "uniqueid": "MTK1361:3CN4LGXD5YVICNZY07XF0Q42X0K4YG", "dateTime": 1515869149718}, {"current_trial": 176, "trialdata": {"rt": -1, "trial_type": "single-stim", "stimulus": "<p id=\"stim\">8</p>", "internal_node_id": "0.0-129.0-2.0", "time_elapsed": 833059, "key_press": -1, "trial_index": 176}, "uniqueid": "MTK1361:3CN4LGXD5YVICNZY07XF0Q42X0K4YG", "dateTime": 1515869150719}, {"current_trial": 177, "trialdata": {"rt": -1, "trial_type": "single-stim", "stimulus": "<p id=\"stim\">7</p>", "internal_node_id": "0.0-129.0-3.0", "time_elapsed": 834061, "key_press": -1, "trial_index": 177}, "uniqueid": "MTK1361:3CN4LGXD5YVICNZY07XF0Q42X0K4YG", "dateTime": 1515869151721}, {"current_trial": 178, "trialdata": {"rt": -1, "trial_type": "single-stim", "stimulus": "<p id=\"stim\">6</p>", "internal_node_id": "0.0-129.0-4.0", "time_elapsed": 835061, "key_press": -1, "trial_index": 178}, "uniqueid": "MTK1361:3CN4LGXD5YVICNZY07XF0Q42X0K4YG", "dateTime": 1515869152721}, {"current_trial": 179, "trialdata": {"rt": -1, "trial_type": "single-stim", "stimulus": "<p id=\"stim\">5</p>", "internal_node_id": "0.0-129.0-5.0", "time_elapsed": 836063, "key_press": -1, "trial_index": 179}, "uniqueid": "MTK1361:3CN4LGXD5YVICNZY07XF0Q42X0K4YG", "dateTime": 1515869153723}, {"current_trial": 180, "trialdata": {"rt": -1, "trial_type": "single-stim", "stimulus": "<p id=\"stim\">4</p>", "internal_node_id": "0.0-129.0-6.0", "time_elapsed": 837066, "key_press": -1, "trial_index": 180}, "uniqueid": "MTK1361:3CN4LGXD5YVICNZY07XF0Q42X0K4YG", "dateTime": 1515869154726}, {"current_trial": 181, "trialdata": {"rt": -1, "trial_type": "single-stim", "stimulus": "<p id=\"stim\">3</p>", "internal_node_id": "0.0-129.0-7.0", "time_elapsed": 838066, "key_press": -1, "trial_index": 181}, "uniqueid": "MTK1361:3CN4LGXD5YVICNZY07XF0Q42X0K4YG", "dateTime": 1515869155726}, {"current_trial": 182, "trialdata": {"rt": -1, "trial_type": "single-stim", "stimulus": "<p id=\"stim\">2</p>", "internal_node_id": "0.0-129.0-8.0", "time_elapsed": 839068, "key_press": -1, "trial_index": 182}, "uniqueid": "MTK1361:3CN4LGXD5YVICNZY07XF0Q42X0K4YG", "dateTime": 1515869156728}, {"current_trial": 183, "trialdata": {"rt": -1, "trial_type": "single-stim", "stimulus": "<p id=\"stim\">1</p>", "internal_node_id": "0.0-129.0-9.0", "time_elapsed": 840070, "key_press": -1, "trial_index": 183}, "uniqueid": "MTK1361:3CN4LGXD5YVICNZY07XF0Q42X0K4YG", "dateTime": 1515869157730}, {"current_trial": 184, "trialdata": {"rt": -1, "trial_type": "single-stim", "stimulus": "<p id=\"stim\">+</p>", "internal_node_id": "0.0-130.0-0.0", "time_elapsed": 841598, "key_press": -1, "type": "FIXATION", "trial_index": 184}, "uniqueid": "MTK1361:3CN4LGXD5YVICNZY07XF0Q42X0K4YG", "dateTime": 1515869159258}, {"current_trial": 185, "trialdata": {"rt": -1, "trial_type": "single-stim", "word": "plaster", "stimulus": "<p id=\"stim\">PLASTER</p>", "conditions": [24, 1600, "v", 12000], "internal_node_id": "0.0-131.0", "trial": 5, "time_elapsed": 843199, "serialpos": 0, "key_press": -1, "wordID": 1084, "type": "PRES_VIS", "trial_index": 185}, "uniqueid": "MTK1361:3CN4LGXD5YVICNZY07XF0Q42X0K4YG", "dateTime": 1515869160859}, {"current_trial": 186, "trialdata": {"rt": -1, "trial_type": "single-stim", "word": "possum", "stimulus": "<p id=\"stim\">POSSUM</p>", "conditions": [24, 1600, "v", 12000], "internal_node_id": "0.0-132.0", "trial": 5, "time_elapsed": 845788, "serialpos": 1, "key_press": -1, "wordID": 1111, "type": "PRES_VIS", "trial_index": 186}, "uniqueid": "MTK1361:3CN4LGXD5YVICNZY07XF0Q42X0K4YG", "dateTime": 1515869163448}, {"current_trial": 187, "trialdata": {"rt": -1, "trial_type": "single-stim", "word": "wife", "stimulus": "<p id=\"stim\">WIFE</p>", "conditions": [24, 1600, "v", 12000], "internal_node_id": "0.0-133.0", "trial": 5, "time_elapsed": 848458, "serialpos": 2, "key_press": -1, "wordID": 1608, "type": "PRES_VIS", "trial_index": 187}, "uniqueid": "MTK1361:3CN4LGXD5YVICNZY07XF0Q42X0K4YG", "dateTime": 1515869166118}, {"current_trial": 188, "trialdata": {"rt": -1, "trial_type": "single-stim", "word": "sister", "stimulus": "<p id=\"stim\">SISTER</p>", "conditions": [24, 1600, "v", 12000], "internal_node_id": "0.0-134.0", "trial": 5, "time_elapsed": 851120, "serialpos": 3, "key_press": -1, "wordID": 1311, "type": "PRES_VIS", "trial_index": 188}, "uniqueid": "MTK1361:3CN4LGXD5YVICNZY07XF0Q42X0K4YG", "dateTime": 1515869168781}, {"current_trial": 189, "trialdata": {"rt": -1, "trial_type": "single-stim", "word": "canal", "stimulus": "<p id=\"stim\">CANAL</p>", "conditions": [24, 1600, "v", 12000], "internal_node_id": "0.0-135.0", "trial": 5, "time_elapsed": 853786, "serialpos": 4, "key_press": -1, "wordID": 225, "type": "PRES_VIS", "trial_index": 189}, "uniqueid": "MTK1361:3CN4LGXD5YVICNZY07XF0Q42X0K4YG", "dateTime": 1515869171447}, {"current_trial": 190, "trialdata": {"rt": -1, "trial_type": "single-stim", "word": "carriage", "stimulus": "<p id=\"stim\">CARRIAGE</p>", "conditions": [24, 1600, "v", 12000], "internal_node_id": "0.0-136.0", "trial": 5, "time_elapsed": 856079, "serialpos": 5, "key_press": -1, "wordID": 247, "type": "PRES_VIS", "trial_index": 190}, "uniqueid": "MTK1361:3CN4LGXD5YVICNZY07XF0Q42X0K4YG", "dateTime": 1515869173739}, {"current_trial": 191, "trialdata": {"rt": -1, "trial_type": "single-stim", "word": "cocktail", "stimulus": "<p id=\"stim\">COCKTAIL</p>", "conditions": [24, 1600, "v", 12000], "internal_node_id": "0.0-137.0", "trial": 5, "time_elapsed": 858901, "serialpos": 6, "key_press": -1, "wordID": 337, "type": "PRES_VIS", "trial_index": 191}, "uniqueid": "MTK1361:3CN4LGXD5YVICNZY07XF0Q42X0K4YG", "dateTime": 1515869176562}, {"current_trial": 192, "trialdata": {"rt": -1, "trial_type": "single-stim", "word": "whiskers", "stimulus": "<p id=\"stim\">WHISKERS</p>", "conditions": [24, 1600, "v", 12000], "internal_node_id": "0.0-138.0", "trial": 5, "time_elapsed": 861467, "serialpos": 7, "key_press": -1, "wordID": 1604, "type": "PRES_VIS", "trial_index": 192}, "uniqueid": "MTK1361:3CN4LGXD5YVICNZY07XF0Q42X0K4YG", "dateTime": 1515869179127}, {"current_trial": 193, "trialdata": {"rt": -1, "trial_type": "single-stim", "word": "snake", "stimulus": "<p id=\"stim\">SNAKE</p>", "conditions": [24, 1600, "v", 12000], "internal_node_id": "0.0-139.0", "trial": 5, "time_elapsed": 864090, "serialpos": 8, "key_press": -1, "wordID": 1332, "type": "PRES_VIS", "trial_index": 193}, "uniqueid": "MTK1361:3CN4LGXD5YVICNZY07XF0Q42X0K4YG", "dateTime": 1515869181750}, {"current_trial": 194, "trialdata": {"rt": -1, "trial_type": "single-stim", "word": "marrow", "stimulus": "<p id=\"stim\">MARROW</p>", "conditions": [24, 1600, "v", 12000], "internal_node_id": "0.0-140.0", "trial": 5, "time_elapsed": 866901, "serialpos": 9, "key_press": -1, "wordID": 871, "type": "PRES_VIS", "trial_index": 194}, "uniqueid": "MTK1361:3CN4LGXD5YVICNZY07XF0Q42X0K4YG", "dateTime": 1515869184562}, {"current_trial": 195, "trialdata": {"rt": -1, "trial_type": "single-stim", "word": "missile", "stimulus": "<p id=\"stim\">MISSILE</p>", "conditions": [24, 1600, "v", 12000], "internal_node_id": "0.0-141.0", "trial": 5, "time_elapsed": 869466, "serialpos": 10, "key_press": -1, "wordID": 899, "type": "PRES_VIS", "trial_index": 195}, "uniqueid": "MTK1361:3CN4LGXD5YVICNZY07XF0Q42X0K4YG", "dateTime": 1515869187126}, {"current_trial": 196, "trialdata": {"rt": -1, "trial_type": "single-stim", "word": "dime", "stimulus": "<p id=\"stim\">DIME</p>", "conditions": [24, 1600, "v", 12000], "internal_node_id": "0.0-142.0", "trial": 5, "time_elapsed": 872012, "serialpos": 11, "key_press": -1, "wordID": 465, "type": "PRES_VIS", "trial_index": 196}, "uniqueid": "MTK1361:3CN4LGXD5YVICNZY07XF0Q42X0K4YG", "dateTime": 1515869189672}, {"current_trial": 197, "trialdata": {"rt": -1, "trial_type": "single-stim", "word": "rabbit", "stimulus": "<p id=\"stim\">RABBIT</p>", "conditions": [24, 1600, "v", 12000], "internal_node_id": "0.0-143.0", "trial": 5, "time_elapsed": 874700, "serialpos": 12, "key_press": -1, "wordID": 1151, "type": "PRES_VIS", "trial_index": 197}, "uniqueid": "MTK1361:3CN4LGXD5YVICNZY07XF0Q42X0K4YG", "dateTime": 1515869192360}, {"current_trial": 198, "trialdata": {"rt": -1, "trial_type": "single-stim", "word": "stomach", "stimulus": "<p id=\"stim\">STOMACH</p>", "conditions": [24, 1600, "v", 12000], "internal_node_id": "0.0-144.0", "trial": 5, "time_elapsed": 877215, "serialpos": 13, "key_press": -1, "wordID": 1383, "type": "PRES_VIS", "trial_index": 198}, "uniqueid": "MTK1361:3CN4LGXD5YVICNZY07XF0Q42X0K4YG", "dateTime": 1515869194875}, {"current_trial": 199, "trialdata": {"rt": -1, "trial_type": "single-stim", "word": "chest", "stimulus": "<p id=\"stim\">CHEST</p>", "conditions": [24, 1600, "v", 12000], "internal_node_id": "0.0-145.0", "trial": 5, "time_elapsed": 879686, "serialpos": 14, "key_press": -1, "wordID": 294, "type": "PRES_VIS", "trial_index": 199}, "uniqueid": "MTK1361:3CN4LGXD5YVICNZY07XF0Q42X0K4YG", "dateTime": 1515869197346}, {"current_trial": 200, "trialdata": {"rt": -1, "trial_type": "single-stim", "word": "popcorn", "stimulus": "<p id=\"stim\">POPCORN</p>", "conditions": [24, 1600, "v", 12000], "internal_node_id": "0.0-146.0", "trial": 5, "time_elapsed": 882372, "serialpos": 15, "key_press": -1, "wordID": 1103, "type": "PRES_VIS", "trial_index": 200}, "uniqueid": "MTK1361:3CN4LGXD5YVICNZY07XF0Q42X0K4YG", "dateTime": 1515869200032}, {"current_trial": 201, "trialdata": {"rt": -1, "trial_type": "single-stim", "word": "dust", "stimulus": "<p id=\"stim\">DUST</p>", "conditions": [24, 1600, "v", 12000], "internal_node_id": "0.0-147.0", "trial": 5, "time_elapsed": 885153, "serialpos": 16, "key_press": -1, "wordID": 507, "type": "PRES_VIS", "trial_index": 201}, "uniqueid": "MTK1361:3CN4LGXD5YVICNZY07XF0Q42X0K4YG", "dateTime": 1515869202813}, {"current_trial": 202, "trialdata": {"rt": -1, "trial_type": "single-stim", "word": "bouquet", "stimulus": "<p id=\"stim\">BOUQUET</p>", "conditions": [24, 1600, "v", 12000], "internal_node_id": "0.0-148.0", "trial": 5, "time_elapsed": 887965, "serialpos": 17, "key_press": -1, "wordID": 156, "type": "PRES_VIS", "trial_index": 202}, "uniqueid": "MTK1361:3CN4LGXD5YVICNZY07XF0Q42X0K4YG", "dateTime": 1515869205625}, {"current_trial": 203, "trialdata": {"rt": -1, "trial_type": "single-stim", "word": "garbage", "stimulus": "<p id=\"stim\">GARBAGE</p>", "conditions": [24, 1600, "v", 12000], "internal_node_id": "0.0-149.0", "trial": 5, "time_elapsed": 890747, "serialpos": 18, "key_press": -1, "wordID": 621, "type": "PRES_VIS", "trial_index": 203}, "uniqueid": "MTK1361:3CN4LGXD5YVICNZY07XF0Q42X0K4YG", "dateTime": 1515869208407}, {"current_trial": 204, "trialdata": {"rt": -1, "trial_type": "single-stim", "word": "taxi", "stimulus": "<p id=\"stim\">TAXI</p>", "conditions": [24, 1600, "v", 12000], "internal_node_id": "0.0-150.0", "trial": 5, "time_elapsed": 893220, "serialpos": 19, "key_press": -1, "wordID": 1437, "type": "PRES_VIS", "trial_index": 204}, "uniqueid": "MTK1361:3CN4LGXD5YVICNZY07XF0Q42X0K4YG", "dateTime": 1515869210880}, {"current_trial": 205, "trialdata": {"rt": -1, "trial_type": "single-stim", "word": "bank", "stimulus": "<p id=\"stim\">BANK</p>", "conditions": [24, 1600, "v", 12000], "internal_node_id": "0.0-151.0", "trial": 5, "time_elapsed": 895823, "serialpos": 20, "key_press": -1, "wordID": 82, "type": "PRES_VIS", "trial_index": 205}, "uniqueid": "MTK1361:3CN4LGXD5YVICNZY07XF0Q42X0K4YG", "dateTime": 1515869213484}, {"current_trial": 206, "trialdata": {"rt": -1, "trial_type": "single-stim", "word": "fruit", "stimulus": "<p id=\"stim\">FRUIT</p>", "conditions": [24, 1600, "v", 12000], "internal_node_id": "0.0-152.0", "trial": 5, "time_elapsed": 898636, "serialpos": 21, "key_press": -1, "wordID": 609, "type": "PRES_VIS", "trial_index": 206}, "uniqueid": "MTK1361:3CN4LGXD5YVICNZY07XF0Q42X0K4YG", "dateTime": 1515869216296}, {"current_trial": 207, "trialdata": {"rt": -1, "trial_type": "single-stim", "word": "mustard", "stimulus": "<p id=\"stim\">MUSTARD</p>", "conditions": [24, 1600, "v", 12000], "internal_node_id": "0.0-153.0", "trial": 5, "time_elapsed": 901370, "serialpos": 22, "key_press": -1, "wordID": 934, "type": "PRES_VIS", "trial_index": 207}, "uniqueid": "MTK1361:3CN4LGXD5YVICNZY07XF0Q42X0K4YG", "dateTime": 1515869219031}, {"current_trial": 208, "trialdata": {"rt": -1, "trial_type": "single-stim", "word": "branch", "stimulus": "<p id=\"stim\">BRANCH</p>", "conditions": [24, 1600, "v", 12000], "internal_node_id": "0.0-154.0", "trial": 5, "time_elapsed": 904104, "serialpos": 23, "key_press": -1, "wordID": 167, "type": "PRES_VIS", "trial_index": 208}, "uniqueid": "MTK1361:3CN4LGXD5YVICNZY07XF0Q42X0K4YG", "dateTime": 1515869221765}, {"current_trial": 209, "trialdata": {"rt": -1, "trial_type": "single-stim", "stimulus": "", "internal_node_id": "0.0-155.0-0.0", "time_elapsed": 906293, "key_press": -1, "type": "PRE_RECALL_DELAY", "trial_index": 209}, "uniqueid": "MTK1361:3CN4LGXD5YVICNZY07XF0Q42X0K4YG", "dateTime": 1515869223954}, {"current_trial": 210, "trialdata": {"rt": -1000, "trial_type": "single-audio", "stimulus": "/static/audio/400Hz.wav", "internal_node_id": "0.0-156.0", "time_elapsed": 906795, "key_press": -1, "type": "PRE_RECALL_ALERT", "trial_index": 210}, "uniqueid": "MTK1361:3CN4LGXD5YVICNZY07XF0Q42X0K4YG", "dateTime": 1515869224455}, {"current_trial": 211, "trialdata": {"rt": [18190, 20203, 23257, 26556, 27813, 28688, 30719, 32391, 34125, 36270, 37579, 39328, 43002, 45145, 46876, 50260, 51766, 54117, 56219, 58860], "recwords": ["mustard", "taxi", "garbage", "bouquet", "marrow", "dust", "popcorn", "plasterm", "wife", "sister", "canal", "carriage", "possum", "coctail", "stomach", "chest", "rabbit", "stomach", "chest", "canal"], "key_times": [16286, 16816, 16882, 17110, 17453, 17572, 17906, 18190, 18623, 18783, 19000, 19407, 20203, 20780, 21086, 21195, 21487, 22315, 22420, 22719, 22800, 23053, 23257, 24750, 24922, 25080, 25641, 25799, 26173, 26406, 26556, 26828, 26938, 27031, 27189, 27314, 27482, 27813, 27969, 28063, 28188, 28379, 28688, 28969, 29125, 29370, 29637, 29756, 30063, 30250, 30719, 31117, 31328, 31423, 31489, 31766, 31880, 31948, 32244, 32391, 32578, 32703, 32848, 33943, 34125, 34315, 34438, 34578, 34860, 34894, 35080, 36270, 36656, 36837, 36922, 37063, 37269, 37579, 37802, 37986, 38125, 38284, 38407, 38563, 38736, 39134, 39328, 39560, 40243, 40594, 40737, 41283, 41540, 41641, 41780, 41876, 42204, 43002, 43444, 43547, 43812, 44049, 44253, 44360, 44656, 45145, 45298, 45454, 45503, 45698, 45875, 46196, 46311, 46876, 47266, 47360, 47520, 47777, 48192, 48390, 49232, 49407, 49566, 49774, 49934, 50260, 50438, 50565, 50828, 50953, 51125, 51422, 51766, 52771, 52913, 53219, 53285, 53399, 53643, 53860, 54117, 54578, 54665, 54860, 55141, 55391, 56219, 56682, 56875, 56913, 57391, 58195, 58450, 58610, 58860, 59531, 59860], "trial_type": "free-recall", "conditions": [24, 1600, "v", 12000], "internal_node_id": "0.0-157.0-0.0", "key_presses": [77, 85, 83, 84, 65, 82, 68, 13, 84, 65, 88, 73, 13, 71, 65, 82, 71, 8, 66, 65, 71, 69, 13, 66, 79, 85, 81, 85, 69, 84, 13, 77, 65, 82, 82, 79, 87, 13, 68, 85, 83, 84, 13, 80, 79, 80, 67, 79, 82, 78, 13, 80, 76, 65, 83, 84, 69, 82, 77, 32, 87, 73, 70, 69, 13, 83, 73, 83, 84, 69, 82, 13, 67, 65, 78, 65, 76, 13, 67, 65, 82, 82, 73, 65, 71, 69, 13, 66, 8, 80, 80, 8, 79, 83, 83, 85, 77, 13, 67, 79, 67, 84, 65, 73, 76, 13, 83, 84, 79, 77, 65, 67, 72, 32, 67, 72, 69, 67, 83, 84, 8, 8, 8, 83, 84, 13, 82, 65, 66, 66, 73, 84, 13, 83, 84, 79, 77, 65, 67, 72, 13, 67, 72, 69, 83, 84, 13, 67, 65, 78, 82, 8, 65, 76, 13, 67, 65], "trial": 5, "time_elapsed": 966660, "type": "FREE_RECALL", "trial_index": 211}, "uniqueid": "MTK1361:3CN4LGXD5YVICNZY07XF0Q42X0K4YG", "dateTime": 1515869284333}, {"current_trial": 212, "trialdata": {"rt": 141, "trial_type": "text", "internal_node_id": "0.0-158.0", "time_elapsed": 968815, "key_press": 73, "type": "INSTRUCTIONS", "trial_index": 212}, "uniqueid": "MTK1361:3CN4LGXD5YVICNZY07XF0Q42X0K4YG", "dateTime": 1515869286475}, {"current_trial": 213, "trialdata": {"rt": [6417, 11642, 13939, 15947, 18268, 21657], "trial_type": "math-distractor", "key_times": [5690, 6417, 11111, 11360, 11642, 13647, 13939, 15611, 15765, 15947, 17657, 17826, 18268, 21251, 21402, 21657, 23748], "responses": ["7", "16", "8", "12", "14", "19"], "num2": [3, 7, 2, 2, 9, 7, 6], "num3": [2, 4, 1, 4, 1, 8, 6], "conditions": [24, 1600, "v", 24000], "internal_node_id": "0.0-159.0", "key_presses": [55, 13, 49, 54, 13, 56, 13, 49, 50, 13, 49, 52, 13, 49, 57, 13, 50], "trial": 6, "time_elapsed": 994666, "type": "DISTRACTOR", "trial_index": 213, "num1": [2, 5, 5, 6, 4, 4, 8]}, "uniqueid": "MTK1361:3CN4LGXD5YVICNZY07XF0Q42X0K4YG", "dateTime": 1515869312327}, {"current_trial": 214, "trialdata": {"rt": -1, "trial_type": "single-stim", "stimulus": "<p id=\"stim\">10</p>", "internal_node_id": "0.0-160.0-0.0", "time_elapsed": 997741, "key_press": -1, "trial_index": 214}, "uniqueid": "MTK1361:3CN4LGXD5YVICNZY07XF0Q42X0K4YG", "dateTime": 1515869315401}, {"current_trial": 215, "trialdata": {"rt": -1, "trial_type": "single-stim", "stimulus": "<p id=\"stim\">9</p>", "internal_node_id": "0.0-160.0-1.0", "time_elapsed": 998787, "key_press": -1, "trial_index": 215}, "uniqueid": "MTK1361:3CN4LGXD5YVICNZY07XF0Q42X0K4YG", "dateTime": 1515869316448}, {"current_trial": 216, "trialdata": {"rt": -1, "trial_type": "single-stim", "stimulus": "<p id=\"stim\">8</p>", "internal_node_id": "0.0-160.0-2.0", "time_elapsed": 999818, "key_press": -1, "trial_index": 216}, "uniqueid": "MTK1361:3CN4LGXD5YVICNZY07XF0Q42X0K4YG", "dateTime": 1515869317479}, {"current_trial": 217, "trialdata": {"rt": -1, "trial_type": "single-stim", "stimulus": "<p id=\"stim\">7</p>", "internal_node_id": "0.0-160.0-3.0", "time_elapsed": 1000849, "key_press": -1, "trial_index": 217}, "uniqueid": "MTK1361:3CN4LGXD5YVICNZY07XF0Q42X0K4YG", "dateTime": 1515869318509}, {"current_trial": 218, "trialdata": {"rt": -1, "trial_type": "single-stim", "stimulus": "<p id=\"stim\">6</p>", "internal_node_id": "0.0-160.0-4.0", "time_elapsed": 1001881, "key_press": -1, "trial_index": 218}, "uniqueid": "MTK1361:3CN4LGXD5YVICNZY07XF0Q42X0K4YG", "dateTime": 1515869319541}, {"current_trial": 219, "trialdata": {"rt": -1, "trial_type": "single-stim", "stimulus": "<p id=\"stim\">5</p>", "internal_node_id": "0.0-160.0-5.0", "time_elapsed": 1002900, "key_press": -1, "trial_index": 219}, "uniqueid": "MTK1361:3CN4LGXD5YVICNZY07XF0Q42X0K4YG", "dateTime": 1515869320561}, {"current_trial": 220, "trialdata": {"rt": -1, "trial_type": "single-stim", "stimulus": "<p id=\"stim\">4</p>", "internal_node_id": "0.0-160.0-6.0", "time_elapsed": 1003929, "key_press": -1, "trial_index": 220}, "uniqueid": "MTK1361:3CN4LGXD5YVICNZY07XF0Q42X0K4YG", "dateTime": 1515869321589}, {"current_trial": 221, "trialdata": {"rt": -1, "trial_type": "single-stim", "stimulus": "<p id=\"stim\">3</p>", "internal_node_id": "0.0-160.0-7.0", "time_elapsed": 1004944, "key_press": -1, "trial_index": 221}, "uniqueid": "MTK1361:3CN4LGXD5YVICNZY07XF0Q42X0K4YG", "dateTime": 1515869322604}, {"current_trial": 222, "trialdata": {"rt": -1, "trial_type": "single-stim", "stimulus": "<p id=\"stim\">2</p>", "internal_node_id": "0.0-160.0-8.0", "time_elapsed": 1005974, "key_press": -1, "trial_index": 222}, "uniqueid": "MTK1361:3CN4LGXD5YVICNZY07XF0Q42X0K4YG", "dateTime": 1515869323634}, {"current_trial": 223, "trialdata": {"rt": -1, "trial_type": "single-stim", "stimulus": "<p id=\"stim\">1</p>", "internal_node_id": "0.0-160.0-9.0", "time_elapsed": 1006990, "key_press": -1, "trial_index": 223}, "uniqueid": "MTK1361:3CN4LGXD5YVICNZY07XF0Q42X0K4YG", "dateTime": 1515869324651}, {"current_trial": 224, "trialdata": {"rt": -1, "trial_type": "single-stim", "stimulus": "<p id=\"stim\">+</p>", "internal_node_id": "0.0-161.0-0.0", "time_elapsed": 1008506, "key_press": -1, "type": "FIXATION", "trial_index": 224}, "uniqueid": "MTK1361:3CN4LGXD5YVICNZY07XF0Q42X0K4YG", "dateTime": 1515869326166}, {"current_trial": 225, "trialdata": {"rt": -1, "trial_type": "single-stim", "word": "japan", "stimulus": "<p id=\"stim\">JAPAN</p>", "conditions": [24, 1600, "v", 24000], "internal_node_id": "0.0-162.0", "trial": 6, "time_elapsed": 1010146, "serialpos": 0, "key_press": -1, "wordID": 748, "type": "PRES_VIS", "trial_index": 225}, "uniqueid": "MTK1361:3CN4LGXD5YVICNZY07XF0Q42X0K4YG", "dateTime": 1515869327807}, {"current_trial": 226, "trialdata": {"rt": -1, "trial_type": "single-stim", "word": "child", "stimulus": "<p id=\"stim\">CHILD</p>", "conditions": [24, 1600, "v", 24000], "internal_node_id": "0.0-163.0", "trial": 6, "time_elapsed": 1012599, "serialpos": 1, "key_press": -1, "wordID": 298, "type": "PRES_VIS", "trial_index": 226}, "uniqueid": "MTK1361:3CN4LGXD5YVICNZY07XF0Q42X0K4YG", "dateTime": 1515869330260}, {"current_trial": 227, "trialdata": {"rt": -1, "trial_type": "single-stim", "word": "infant", "stimulus": "<p id=\"stim\">INFANT</p>", "conditions": [24, 1600, "v", 24000], "internal_node_id": "0.0-164.0", "trial": 6, "time_elapsed": 1015148, "serialpos": 2, "key_press": -1, "wordID": 736, "type": "PRES_VIS", "trial_index": 227}, "uniqueid": "MTK1361:3CN4LGXD5YVICNZY07XF0Q42X0K4YG", "dateTime": 1515869332808}, {"current_trial": 228, "trialdata": {"rt": -1, "trial_type": "single-stim", "word": "france", "stimulus": "<p id=\"stim\">FRANCE</p>", "conditions": [24, 1600, "v", 24000], "internal_node_id": "0.0-165.0", "trial": 6, "time_elapsed": 1017865, "serialpos": 3, "key_press": -1, "wordID": 600, "type": "PRES_VIS", "trial_index": 228}, "uniqueid": "MTK1361:3CN4LGXD5YVICNZY07XF0Q42X0K4YG", "dateTime": 1515869335526}, {"current_trial": 229, "trialdata": {"rt": -1, "trial_type": "single-stim", "word": "fox", "stimulus": "<p id=\"stim\">FOX</p>", "conditions": [24, 1600, "v", 24000], "internal_node_id": "0.0-166.0", "trial": 6, "time_elapsed": 1020664, "serialpos": 4, "key_press": -1, "wordID": 597, "type": "PRES_VIS", "trial_index": 229}, "uniqueid": "MTK1361:3CN4LGXD5YVICNZY07XF0Q42X0K4YG", "dateTime": 1515869338324}, {"current_trial": 230, "trialdata": {"rt": -1, "trial_type": "single-stim", "word": "hedge", "stimulus": "<p id=\"stim\">HEDGE</p>", "conditions": [24, 1600, "v", 24000], "internal_node_id": "0.0-167.0", "trial": 6, "time_elapsed": 1023318, "serialpos": 5, "key_press": -1, "wordID": 698, "type": "PRES_VIS", "trial_index": 230}, "uniqueid": "MTK1361:3CN4LGXD5YVICNZY07XF0Q42X0K4YG", "dateTime": 1515869340979}, {"current_trial": 231, "trialdata": {"rt": -1, "trial_type": "single-stim", "word": "bullet", "stimulus": "<p id=\"stim\">BULLET</p>", "conditions": [24, 1600, "v", 24000], "internal_node_id": "0.0-168.0", "trial": 6, "time_elapsed": 1025875, "serialpos": 6, "key_press": -1, "wordID": 193, "type": "PRES_VIS", "trial_index": 231}, "uniqueid": "MTK1361:3CN4LGXD5YVICNZY07XF0Q42X0K4YG", "dateTime": 1515869343535}, {"current_trial": 232, "trialdata": {"rt": -1, "trial_type": "single-stim", "word": "softball", "stimulus": "<p id=\"stim\">SOFTBALL</p>", "conditions": [24, 1600, "v", 24000], "internal_node_id": "0.0-169.0", "trial": 6, "time_elapsed": 1028463, "serialpos": 7, "key_press": -1, "wordID": 1342, "type": "PRES_VIS", "trial_index": 232}, "uniqueid": "MTK1361:3CN4LGXD5YVICNZY07XF0Q42X0K4YG", "dateTime": 1515869346123}, {"current_trial": 233, "trialdata": {"rt": -1, "trial_type": "single-stim", "word": "clamp", "stimulus": "<p id=\"stim\">CLAMP</p>", "conditions": [24, 1600, "v", 24000], "internal_node_id": "0.0-170.0", "trial": 6, "time_elapsed": 1031274, "serialpos": 8, "key_press": -1, "wordID": 315, "type": "PRES_VIS", "trial_index": 233}, "uniqueid": "MTK1361:3CN4LGXD5YVICNZY07XF0Q42X0K4YG", "dateTime": 1515869348935}, {"current_trial": 234, "trialdata": {"rt": -1, "trial_type": "single-stim", "word": "milk", "stimulus": "<p id=\"stim\">MILK</p>", "conditions": [24, 1600, "v", 24000], "internal_node_id": "0.0-171.0", "trial": 6, "time_elapsed": 1033787, "serialpos": 9, "key_press": -1, "wordID": 894, "type": "PRES_VIS", "trial_index": 234}, "uniqueid": "MTK1361:3CN4LGXD5YVICNZY07XF0Q42X0K4YG", "dateTime": 1515869351448}, {"current_trial": 235, "trialdata": {"rt": -1, "trial_type": "single-stim", "word": "catcher", "stimulus": "<p id=\"stim\">CATCHER</p>", "conditions": [24, 1600, "v", 24000], "internal_node_id": "0.0-172.0", "trial": 6, "time_elapsed": 1036352, "serialpos": 10, "key_press": -1, "wordID": 257, "type": "PRES_VIS", "trial_index": 235}, "uniqueid": "MTK1361:3CN4LGXD5YVICNZY07XF0Q42X0K4YG", "dateTime": 1515869354012}, {"current_trial": 236, "trialdata": {"rt": -1, "trial_type": "single-stim", "word": "motor", "stimulus": "<p id=\"stim\">MOTOR</p>", "conditions": [24, 1600, "v", 24000], "internal_node_id": "0.0-173.0", "trial": 6, "time_elapsed": 1038853, "serialpos": 11, "key_press": -1, "wordID": 921, "type": "PRES_VIS", "trial_index": 236}, "uniqueid": "MTK1361:3CN4LGXD5YVICNZY07XF0Q42X0K4YG", "dateTime": 1515869356514}, {"current_trial": 237, "trialdata": {"rt": -1, "trial_type": "single-stim", "word": "sphinx", "stimulus": "<p id=\"stim\">SPHINX</p>", "conditions": [24, 1600, "v", 24000], "internal_node_id": "0.0-174.0", "trial": 6, "time_elapsed": 1041651, "serialpos": 12, "key_press": -1, "wordID": 1348, "type": "PRES_VIS", "trial_index": 237}, "uniqueid": "MTK1361:3CN4LGXD5YVICNZY07XF0Q42X0K4YG", "dateTime": 1515869359311}, {"current_trial": 238, "trialdata": {"rt": -1, "trial_type": "single-stim", "word": "burglar", "stimulus": "<p id=\"stim\">BURGLAR</p>", "conditions": [24, 1600, "v", 24000], "internal_node_id": "0.0-175.0", "trial": 6, "time_elapsed": 1044321, "serialpos": 13, "key_press": -1, "wordID": 199, "type": "PRES_VIS", "trial_index": 238}, "uniqueid": "MTK1361:3CN4LGXD5YVICNZY07XF0Q42X0K4YG", "dateTime": 1515869361981}, {"current_trial": 239, "trialdata": {"rt": -1, "trial_type": "single-stim", "word": "doughnut", "stimulus": "<p id=\"stim\">DOUGHNUT</p>", "conditions": [24, 1600, "v", 24000], "internal_node_id": "0.0-176.0", "trial": 6, "time_elapsed": 1047039, "serialpos": 14, "key_press": -1, "wordID": 489, "type": "PRES_VIS", "trial_index": 239}, "uniqueid": "MTK1361:3CN4LGXD5YVICNZY07XF0Q42X0K4YG", "dateTime": 1515869364700}, {"current_trial": 240, "trialdata": {"rt": -1, "trial_type": "single-stim", "word": "cook", "stimulus": "<p id=\"stim\">COOK</p>", "conditions": [24, 1600, "v", 24000], "internal_node_id": "0.0-177.0", "trial": 6, "time_elapsed": 1049763, "serialpos": 15, "key_press": -1, "wordID": 371, "type": "PRES_VIS", "trial_index": 240}, "uniqueid": "MTK1361:3CN4LGXD5YVICNZY07XF0Q42X0K4YG", "dateTime": 1515869367423}, {"current_trial": 241, "trialdata": {"rt": -1, "trial_type": "single-stim", "word": "kidney", "stimulus": "<p id=\"stim\">KIDNEY</p>", "conditions": [24, 1600, "v", 24000], "internal_node_id": "0.0-178.0", "trial": 6, "time_elapsed": 1052263, "serialpos": 16, "key_press": -1, "wordID": 775, "type": "PRES_VIS", "trial_index": 241}, "uniqueid": "MTK1361:3CN4LGXD5YVICNZY07XF0Q42X0K4YG", "dateTime": 1515869369923}, {"current_trial": 242, "trialdata": {"rt": -1, "trial_type": "single-stim", "word": "leader", "stimulus": "<p id=\"stim\">LEADER</p>", "conditions": [24, 1600, "v", 24000], "internal_node_id": "0.0-179.0", "trial": 6, "time_elapsed": 1054795, "serialpos": 17, "key_press": -1, "wordID": 806, "type": "PRES_VIS", "trial_index": 242}, "uniqueid": "MTK1361:3CN4LGXD5YVICNZY07XF0Q42X0K4YG", "dateTime": 1515869372455}, {"current_trial": 243, "trialdata": {"rt": -1, "trial_type": "single-stim", "word": "sparrow", "stimulus": "<p id=\"stim\">SPARROW</p>", "conditions": [24, 1600, "v", 24000], "internal_node_id": "0.0-180.0", "trial": 6, "time_elapsed": 1057275, "serialpos": 18, "key_press": -1, "wordID": 1346, "type": "PRES_VIS", "trial_index": 243}, "uniqueid": "MTK1361:3CN4LGXD5YVICNZY07XF0Q42X0K4YG", "dateTime": 1515869374935}, {"current_trial": 244, "trialdata": {"rt": -1, "trial_type": "single-stim", "word": "lodge", "stimulus": "<p id=\"stim\">LODGE</p>", "conditions": [24, 1600, "v", 24000], "internal_node_id": "0.0-181.0", "trial": 6, "time_elapsed": 1059859, "serialpos": 19, "key_press": -1, "wordID": 838, "type": "PRES_VIS", "trial_index": 244}, "uniqueid": "MTK1361:3CN4LGXD5YVICNZY07XF0Q42X0K4YG", "dateTime": 1515869377519}, {"current_trial": 245, "trialdata": {"rt": -1, "trial_type": "single-stim", "word": "custard", "stimulus": "<p id=\"stim\">CUSTARD</p>", "conditions": [24, 1600, "v", 24000], "internal_node_id": "0.0-182.0", "trial": 6, "time_elapsed": 1062523, "serialpos": 20, "key_press": -1, "wordID": 428, "type": "PRES_VIS", "trial_index": 245}, "uniqueid": "MTK1361:3CN4LGXD5YVICNZY07XF0Q42X0K4YG", "dateTime": 1515869380184}, {"current_trial": 246, "trialdata": {"rt": -1, "trial_type": "single-stim", "word": "pudding", "stimulus": "<p id=\"stim\">PUDDING</p>", "conditions": [24, 1600, "v", 24000], "internal_node_id": "0.0-183.0", "trial": 6, "time_elapsed": 1065086, "serialpos": 21, "key_press": -1, "wordID": 1138, "type": "PRES_VIS", "trial_index": 246}, "uniqueid": "MTK1361:3CN4LGXD5YVICNZY07XF0Q42X0K4YG", "dateTime": 1515869382747}, {"current_trial": 247, "trialdata": {"rt": -1, "trial_type": "single-stim", "word": "stove", "stimulus": "<p id=\"stim\">STOVE</p>", "conditions": [24, 1600, "v", 24000], "internal_node_id": "0.0-184.0", "trial": 6, "time_elapsed": 1067664, "serialpos": 22, "key_press": -1, "wordID": 1387, "type": "PRES_VIS", "trial_index": 247}, "uniqueid": "MTK1361:3CN4LGXD5YVICNZY07XF0Q42X0K4YG"