{"assignmentId": "37ZHEEHM6XTEF7KTDK2WD8SZGRP73O", "workerId": "MTK1725", "questiondata": {"origin": "China", "strat-rehearsal": "47", "marital": "Married/Domestic Partnership", "education": "Bachelor's degree", "ethnicity": "Not Hispanic", "color_depth": 24, "distracted": "No", "wrote-notes": "No", "strat-other": "I try to remember the first letter of each word as I create the sentence that group them together. Sometime it works and at time nope.", "screen_width": 1920, "avail_screen_width": 1920, "avail_screen_height": 1040, "strat-image": "6", "language": "Chinese", "gender": "Female", "age": "38", "gender_other": "", "race": ["Asian"], "strat-categorize": "94", "pixel_depth": 24, "strat-spatial": "0", "strat-story": "51", "race_other": "", "screen_height": 1080}, "bonus": 0, "hitId": "3Z33IC0JC0T0IFCBMP1KLFF4KHL9VH", "counterbalance": 2067, "useragent": "Mozilla/5.0 (Windows NT 10.0; Win64; x64) AppleWebKit/537.36 (KHTML, like Gecko) Chrome/63.0.3239.132 Safari/537.36", "eventdata": [{"eventtype": "initialized", "interval": 0, "value": null, "timestamp": 1516133203666}, {"eventtype": "window_resize", "interval": 0, "value": [1920, 989], "timestamp": 1516133203666}, {"eventtype": "focus", "interval": 42738, "value": "off", "timestamp": 1516133246404}, {"eventtype": "focus", "interval": 2663, "value": "on", "timestamp": 1516133249067}, {"eventtype": "focus", "interval": 12257, "value": "off", "timestamp": 1516133261324}, {"eventtype": "focus", "interval": 1, "value": "on", "timestamp": 1516133261325}, {"eventtype": "focus", "interval": 4958, "value": "off", "timestamp": 1516133266283}, {"eventtype": "focus", "interval": 11105, "value": "on", "timestamp": 1516133277388}, {"eventtype": "focus", "interval": 11917, "value": "off", "timestamp": 1516133289305}, {"eventtype": "focus", "interval": 2621, "value": "on", "timestamp": 1516133291926}, {"eventtype": "focus", "interval": 2913570, "value": "off", "timestamp": 1516136205496}, {"eventtype": "focus", "interval": 88341, "value": "on", "timestamp": 1516136293837}], "data": [{"current_trial": 0, "trialdata": {"rt": 5797, "trial_type": "text", "internal_node_id": "0.0-0.0", "time_elapsed": 5801, "key_press": 32, "type": "INSTRUCTIONS", "trial_index": 0}, "uniqueid": "MTK1725:37ZHEEHM6XTEF7KTDK2WD8SZGRP73O", "dateTime": 1516133209652}, {"current_trial": 1, "trialdata": {"rt": 26564, "trial_type": "text", "internal_node_id": "0.0-1.0", "time_elapsed": 32367, "key_press": 32, "type": "INSTRUCTIONS", "trial_index": 1}, "uniqueid": "MTK1725:37ZHEEHM6XTEF7KTDK2WD8SZGRP73O", "dateTime": 1516133236218}, {"current_trial": 2, "trialdata": {"rt": [15483], "trial_type": "audio-test", "responses": ["ocean"], "internal_node_id": "0.0-2.0", "time_elapsed": 47863, "type": "AUDIO_TEST", "trial_index": 2}, "uniqueid": "MTK1725:37ZHEEHM6XTEF7KTDK2WD8SZGRP73O", "dateTime": 1516133251713}, {"current_trial": 3, "trialdata": {"rt": [7237, 29285], "trial_type": "audio-test", "responses": ["cyrstal", "crystal"], "internal_node_id": "0.0-3.0", "time_elapsed": 77150, "type": "AUDIO_TEST", "trial_index": 3}, "uniqueid": "MTK1725:37ZHEEHM6XTEF7KTDK2WD8SZGRP73O", "dateTime": 1516133281001}, {"current_trial": 4, "trialdata": {"rt": [5565], "trial_type": "audio-test", "responses": ["spice"], "internal_node_id": "0.0-4.0", "time_elapsed": 82718, "type": "AUDIO_TEST", "trial_index": 4}, "uniqueid": "MTK1725:37ZHEEHM6XTEF7KTDK2WD8SZGRP73O", "dateTime": 1516133286568}, {"current_trial": 5, "trialdata": {"rt": 28102, "trial_type": "survey-text", "responses": "{\"Q0\":\"10:49 pm\",\"Q1\":\"9:38 am\",\"Q2\":\"5\"}", "internal_node_id": "0.0-5.0", "time_elapsed": 111572, "type": "SLEEP_SURVEY", "trial_index": 5}, "uniqueid": "MTK1725:37ZHEEHM6XTEF7KTDK2WD8SZGRP73O", "dateTime": 1516133315422}, {"current_trial": 6, "trialdata": {"rt": 109137, "trial_type": "text", "internal_node_id": "0.0-6.0", "time_elapsed": 221711, "key_press": 32, "type": "INSTRUCTIONS", "trial_index": 6}, "uniqueid": "MTK1725:37ZHEEHM6XTEF7KTDK2WD8SZGRP73O", "dateTime": 1516133425561}, {"current_trial": 7, "trialdata": {"rt": 17593, "trial_type": "text", "internal_node_id": "0.0-7.0", "time_elapsed": 239806, "key_press": 32, "type": "INSTRUCTIONS", "trial_index": 7}, "uniqueid": "MTK1725:37ZHEEHM6XTEF7KTDK2WD8SZGRP73O", "dateTime": 1516133443656}, {"current_trial": 8, "trialdata": {"rt": 16106, "trial_type": "text", "internal_node_id": "0.0-8.0", "time_elapsed": 256413, "key_press": 32, "type": "INSTRUCTIONS", "trial_index": 8}, "uniqueid": "MTK1725:37ZHEEHM6XTEF7KTDK2WD8SZGRP73O", "dateTime": 1516133460263}, {"current_trial": 9, "trialdata": {"rt": [3138, 5554, 9202, 13226, 15362, 17330], "trial_type": "math-distractor", "key_times": [2466, 2642, 3138, 4802, 5042, 5554, 8962, 9202, 12626, 12819, 13226, 14570, 14810, 15362, 16810, 17018, 17330], "responses": ["16", "15", "9", "12", "14", "15"], "num2": [3, 1, 4, 1, 3, 5, 6], "num3": [6, 5, 3, 5, 7, 2, 6], "conditions": [18, 1200, "v", 18000], "internal_node_id": "0.0-9.0", "key_presses": [97, 102, 13, 97, 101, 13, 105, 13, 97, 98, 13, 97, 100, 13, 97, 101, 13], "trial": 0, "time_elapsed": 275421, "type": "DISTRACTOR", "trial_index": 9, "num1": [7, 9, 2, 6, 4, 8, 4]}, "uniqueid": "MTK1725:37ZHEEHM6XTEF7KTDK2WD8SZGRP73O", "dateTime": 1516133479271}, {"current_trial": 10, "trialdata": {"rt": -1, "trial_type": "single-stim", "stimulus": "<p id=\"stim\">10</p>", "internal_node_id": "0.0-10.0-0.0", "time_elapsed": 278425, "key_press": -1, "trial_index": 10}, "uniqueid": "MTK1725:37ZHEEHM6XTEF7KTDK2WD8SZGRP73O", "dateTime": 1516133482275}, {"current_trial": 11, "trialdata": {"rt": -1, "trial_type": "single-stim", "stimulus": "<p id=\"stim\">9</p>", "internal_node_id": "0.0-10.0-1.0", "time_elapsed": 279426, "key_press": -1, "trial_index": 11}, "uniqueid": "MTK1725:37ZHEEHM6XTEF7KTDK2WD8SZGRP73O", "dateTime": 1516133483276}, {"current_trial": 12, "trialdata": {"rt": -1, "trial_type": "single-stim", "stimulus": "<p id=\"stim\">8</p>", "internal_node_id": "0.0-10.0-2.0", "time_elapsed": 280428, "key_press": -1, "trial_index": 12}, "uniqueid": "MTK1725:37ZHEEHM6XTEF7KTDK2WD8SZGRP73O", "dateTime": 1516133484278}, {"current_trial": 13, "trialdata": {"rt": -1, "trial_type": "single-stim", "stimulus": "<p id=\"stim\">7</p>", "internal_node_id": "0.0-10.0-3.0", "time_elapsed": 281429, "key_press": -1, "trial_index": 13}, "uniqueid": "MTK1725:37ZHEEHM6XTEF7KTDK2WD8SZGRP73O", "dateTime": 1516133485279}, {"current_trial": 14, "trialdata": {"rt": -1, "trial_type": "single-stim", "stimulus": "<p id=\"stim\">6</p>", "internal_node_id": "0.0-10.0-4.0", "time_elapsed": 282430, "key_press": -1, "trial_index": 14}, "uniqueid": "MTK1725:37ZHEEHM6XTEF7KTDK2WD8SZGRP73O", "dateTime": 1516133486280}, {"current_trial": 15, "trialdata": {"rt": -1, "trial_type": "single-stim", "stimulus": "<p id=\"stim\">5</p>", "internal_node_id": "0.0-10.0-5.0", "time_elapsed": 283431, "key_press": -1, "trial_index": 15}, "uniqueid": "MTK1725:37ZHEEHM6XTEF7KTDK2WD8SZGRP73O", "dateTime": 1516133487281}, {"current_trial": 16, "trialdata": {"rt": -1, "trial_type": "single-stim", "stimulus": "<p id=\"stim\">4</p>", "internal_node_id": "0.0-10.0-6.0", "time_elapsed": 284432, "key_press": -1, "trial_index": 16}, "uniqueid": "MTK1725:37ZHEEHM6XTEF7KTDK2WD8SZGRP73O", "dateTime": 1516133488282}, {"current_trial": 17, "trialdata": {"rt": -1, "trial_type": "single-stim", "stimulus": "<p id=\"stim\">3</p>", "internal_node_id": "0.0-10.0-7.0", "time_elapsed": 285433, "key_press": -1, "trial_index": 17}, "uniqueid": "MTK1725:37ZHEEHM6XTEF7KTDK2WD8SZGRP73O", "dateTime": 1516133489283}, {"current_trial": 18, "trialdata": {"rt": -1, "trial_type": "single-stim", "stimulus": "<p id=\"stim\">2</p>", "internal_node_id": "0.0-10.0-8.0", "time_elapsed": 286434, "key_press": -1, "trial_index": 18}, "uniqueid": "MTK1725:37ZHEEHM6XTEF7KTDK2WD8SZGRP73O", "dateTime": 1516133490284}, {"current_trial": 19, "trialdata": {"rt": -1, "trial_type": "single-stim", "stimulus": "<p id=\"stim\">1</p>", "internal_node_id": "0.0-10.0-9.0", "time_elapsed": 287435, "key_press": -1, "trial_index": 19}, "uniqueid": "MTK1725:37ZHEEHM6XTEF7KTDK2WD8SZGRP73O", "dateTime": 1516133491285}, {"current_trial": 20, "trialdata": {"rt": -1, "trial_type": "single-stim", "stimulus": "<p id=\"stim\">+</p>", "internal_node_id": "0.0-11.0-0.0", "time_elapsed": 288936, "key_press": -1, "type": "FIXATION", "trial_index": 20}, "uniqueid": "MTK1725:37ZHEEHM6XTEF7KTDK2WD8SZGRP73O", "dateTime": 1516133492787}, {"current_trial": 21, "trialdata": {"rt": -1, "trial_type": "single-stim", "word": "witness", "stimulus": "<p id=\"stim\">WITNESS</p>", "conditions": [18, 1200, "v", 18000], "internal_node_id": "0.0-12.0", "trial": 0, "time_elapsed": 290137, "serialpos": 0, "key_press": -1, "wordID": 1617, "type": "PRES_VIS", "trial_index": 21}, "uniqueid": "MTK1725:37ZHEEHM6XTEF7KTDK2WD8SZGRP73O", "dateTime": 1516133493988}, {"current_trial": 22, "trialdata": {"rt": -1, "trial_type": "single-stim", "word": "pigment", "stimulus": "<p id=\"stim\">PIGMENT</p>", "conditions": [18, 1200, "v", 18000], "internal_node_id": "0.0-13.0", "trial": 0, "time_elapsed": 292435, "serialpos": 1, "key_press": -1, "wordID": 1065, "type": "PRES_VIS", "trial_index": 22}, "uniqueid": "MTK1725:37ZHEEHM6XTEF7KTDK2WD8SZGRP73O", "dateTime": 1516133496285}, {"current_trial": 23, "trialdata": {"rt": -1, "trial_type": "single-stim", "word": "puddle", "stimulus": "<p id=\"stim\">PUDDLE</p>", "conditions": [18, 1200, "v", 18000], "internal_node_id": "0.0-14.0", "trial": 0, "time_elapsed": 294807, "serialpos": 2, "key_press": -1, "wordID": 1139, "type": "PRES_VIS", "trial_index": 23}, "uniqueid": "MTK1725:37ZHEEHM6XTEF7KTDK2WD8SZGRP73O", "dateTime": 1516133498657}, {"current_trial": 24, "trialdata": {"rt": -1, "trial_type": "single-stim", "word": "pizza", "stimulus": "<p id=\"stim\">PIZZA</p>", "conditions": [18, 1200, "v", 18000], "internal_node_id": "0.0-15.0", "trial": 0, "time_elapsed": 296913, "serialpos": 3, "key_press": -1, "wordID": 1078, "type": "PRES_VIS", "trial_index": 24}, "uniqueid": "MTK1725:37ZHEEHM6XTEF7KTDK2WD8SZGRP73O", "dateTime": 1516133500763}, {"current_trial": 25, "trialdata": {"rt": -1, "trial_type": "single-stim", "word": "machine", "stimulus": "<p id=\"stim\">MACHINE</p>", "conditions": [18, 1200, "v", 18000], "internal_node_id": "0.0-16.0", "trial": 0, "time_elapsed": 299187, "serialpos": 4, "key_press": -1, "wordID": 851, "type": "PRES_VIS", "trial_index": 25}, "uniqueid": "MTK1725:37ZHEEHM6XTEF7KTDK2WD8SZGRP73O", "dateTime": 1516133503037}, {"current_trial": 26, "trialdata": {"rt": -1, "trial_type": "single-stim", "word": "necklace", "stimulus": "<p id=\"stim\">NECKLACE</p>", "conditions": [18, 1200, "v", 18000], "internal_node_id": "0.0-17.0", "trial": 0, "time_elapsed": 301278, "serialpos": 5, "key_press": -1, "wordID": 939, "type": "PRES_VIS", "trial_index": 26}, "uniqueid": "MTK1725:37ZHEEHM6XTEF7KTDK2WD8SZGRP73O", "dateTime": 1516133505128}, {"current_trial": 27, "trialdata": {"rt": -1, "trial_type": "single-stim", "word": "apple", "stimulus": "<p id=\"stim\">APPLE</p>", "conditions": [18, 1200, "v", 18000], "internal_node_id": "0.0-18.0", "trial": 0, "time_elapsed": 303329, "serialpos": 6, "key_press": -1, "wordID": 32, "type": "PRES_VIS", "trial_index": 27}, "uniqueid": "MTK1725:37ZHEEHM6XTEF7KTDK2WD8SZGRP73O", "dateTime": 1516133507180}, {"current_trial": 28, "trialdata": {"rt": -1, "trial_type": "single-stim", "word": "crayon", "stimulus": "<p id=\"stim\">CRAYON</p>", "conditions": [18, 1200, "v", 18000], "internal_node_id": "0.0-19.0", "trial": 0, "time_elapsed": 305685, "serialpos": 7, "key_press": -1, "wordID": 400, "type": "PRES_VIS", "trial_index": 28}, "uniqueid": "MTK1725:37ZHEEHM6XTEF7KTDK2WD8SZGRP73O", "dateTime": 1516133509535}, {"current_trial": 29, "trialdata": {"rt": -1, "trial_type": "single-stim", "word": "honey", "stimulus": "<p id=\"stim\">HONEY</p>", "conditions": [18, 1200, "v", 18000], "internal_node_id": "0.0-20.0", "trial": 0, "time_elapsed": 307864, "serialpos": 8, "key_press": -1, "wordID": 712, "type": "PRES_VIS", "trial_index": 29}, "uniqueid": "MTK1725:37ZHEEHM6XTEF7KTDK2WD8SZGRP73O", "dateTime": 1516133511714}, {"current_trial": 30, "trialdata": {"rt": -1, "trial_type": "single-stim", "word": "tunnel", "stimulus": "<p id=\"stim\">TUNNEL</p>", "conditions": [18, 1200, "v", 18000], "internal_node_id": "0.0-21.0", "trial": 0, "time_elapsed": 310222, "serialpos": 9, "key_press": -1, "wordID": 1518, "type": "PRES_VIS", "trial_index": 30}, "uniqueid": "MTK1725:37ZHEEHM6XTEF7KTDK2WD8SZGRP73O", "dateTime": 1516133514072}, {"current_trial": 31, "trialdata": {"rt": -1, "trial_type": "single-stim", "word": "flute", "stimulus": "<p id=\"stim\">FLUTE</p>", "conditions": [18, 1200, "v", 18000], "internal_node_id": "0.0-22.0", "trial": 0, "time_elapsed": 312436, "serialpos": 10, "key_press": -1, "wordID": 584, "type": "PRES_VIS", "trial_index": 31}, "uniqueid": "MTK1725:37ZHEEHM6XTEF7KTDK2WD8SZGRP73O", "dateTime": 1516133516286}, {"current_trial": 32, "trialdata": {"rt": -1, "trial_type": "single-stim", "word": "airport", "stimulus": "<p id=\"stim\">AIRPORT</p>", "conditions": [18, 1200, "v", 18000], "internal_node_id": "0.0-23.0", "trial": 0, "time_elapsed": 314736, "serialpos": 11, "key_press": -1, "wordID": 12, "type": "PRES_VIS", "trial_index": 32}, "uniqueid": "MTK1725:37ZHEEHM6XTEF7KTDK2WD8SZGRP73O", "dateTime": 1516133518586}, {"current_trial": 33, "trialdata": {"rt": -1, "trial_type": "single-stim", "word": "pimple", "stimulus": "<p id=\"stim\">PIMPLE</p>", "conditions": [18, 1200, "v", 18000], "internal_node_id": "0.0-24.0", "trial": 0, "time_elapsed": 317079, "serialpos": 12, "key_press": -1, "wordID": 1070, "type": "PRES_VIS", "trial_index": 33}, "uniqueid": "MTK1725:37ZHEEHM6XTEF7KTDK2WD8SZGRP73O", "dateTime": 1516133520929}, {"current_trial": 34, "trialdata": {"rt": -1, "trial_type": "single-stim", "word": "razor", "stimulus": "<p id=\"stim\">RAZOR</p>", "conditions": [18, 1200, "v", 18000], "internal_node_id": "0.0-25.0", "trial": 0, "time_elapsed": 319280, "serialpos": 13, "key_press": -1, "wordID": 1170, "type": "PRES_VIS", "trial_index": 34}, "uniqueid": "MTK1725:37ZHEEHM6XTEF7KTDK2WD8SZGRP73O", "dateTime": 1516133523130}, {"current_trial": 35, "trialdata": {"rt": -1, "trial_type": "single-stim", "word": "leader", "stimulus": "<p id=\"stim\">LEADER</p>", "conditions": [18, 1200, "v", 18000], "internal_node_id": "0.0-26.0", "trial": 0, "time_elapsed": 321292, "serialpos": 14, "key_press": -1, "wordID": 806, "type": "PRES_VIS", "trial_index": 35}, "uniqueid": "MTK1725:37ZHEEHM6XTEF7KTDK2WD8SZGRP73O", "dateTime": 1516133525142}, {"current_trial": 36, "trialdata": {"rt": -1, "trial_type": "single-stim", "word": "antler", "stimulus": "<p id=\"stim\">ANTLER</p>", "conditions": [18, 1200, "v", 18000], "internal_node_id": "0.0-27.0", "trial": 0, "time_elapsed": 323301, "serialpos": 15, "key_press": -1, "wordID": 28, "type": "PRES_VIS", "trial_index": 36}, "uniqueid": "MTK1725:37ZHEEHM6XTEF7KTDK2WD8SZGRP73O", "dateTime": 1516133527151}, {"current_trial": 37, "trialdata": {"rt": -1, "trial_type": "single-stim", "word": "slug", "stimulus": "<p id=\"stim\">SLUG</p>", "conditions": [18, 1200, "v", 18000], "internal_node_id": "0.0-28.0", "trial": 0, "time_elapsed": 325699, "serialpos": 16, "key_press": -1, "wordID": 1328, "type": "PRES_VIS", "trial_index": 37}, "uniqueid": "MTK1725:37ZHEEHM6XTEF7KTDK2WD8SZGRP73O", "dateTime": 1516133529550}, {"current_trial": 38, "trialdata": {"rt": -1, "trial_type": "single-stim", "word": "binder", "stimulus": "<p id=\"stim\">BINDER</p>", "conditions": [18, 1200, "v", 18000], "internal_node_id": "0.0-29.0", "trial": 0, "time_elapsed": 327928, "serialpos": 17, "key_press": -1, "wordID": 126, "type": "PRES_VIS", "trial_index": 38}, "uniqueid": "MTK1725:37ZHEEHM6XTEF7KTDK2WD8SZGRP73O", "dateTime": 1516133531778}, {"current_trial": 39, "trialdata": {"rt": -1, "trial_type": "single-stim", "stimulus": "", "internal_node_id": "0.0-30.0-0.0", "time_elapsed": 330148, "key_press": -1, "type": "PRE_RECALL_DELAY", "trial_index": 39}, "uniqueid": "MTK1725:37ZHEEHM6XTEF7KTDK2WD8SZGRP73O", "dateTime": 1516133533998}, {"current_trial": 40, "trialdata": {"rt": -1000, "trial_type": "single-audio", "stimulus": "/static/audio/400Hz.wav", "internal_node_id": "0.0-31.0", "time_elapsed": 330651, "key_press": -1, "type": "PRE_RECALL_ALERT", "trial_index": 40}, "uniqueid": "MTK1725:37ZHEEHM6XTEF7KTDK2WD8SZGRP73O", "dateTime": 1516133534501}, {"current_trial": 41, "trialdata": {"rt": [12823, 15023, 27479, 37663], "recwords": ["pigment", "flute", "pimple", "anger"], "key_times": [3424, 3607, 4839, 5039, 8056, 8143, 8920, 10160, 10295, 10431, 10560, 10671, 12823, 14136, 14207, 14343, 14519, 14671, 14799, 15023, 22480, 22592, 22799, 23496, 23671, 26128, 26207, 26343, 26560, 26863, 27087, 27199, 27479, 35784, 35839, 35999, 36103, 36319, 36439, 37663, 41920, 41991, 42159, 44207, 44495, 44655, 45391, 45891, 45925, 45958, 45990, 46023, 46056, 46090], "trial_type": "free-recall", "conditions": [18, 1200, "v", 18000], "internal_node_id": "0.0-32.0-0.0", "key_presses": [80, 73, 8, 8, 16, 80, 73, 71, 77, 69, 78, 84, 13, 16, 70, 76, 85, 84, 69, 13, 16, 65, 78, 8, 8, 16, 80, 73, 77, 80, 76, 69, 13, 16, 65, 78, 71, 69, 82, 13, 16, 70, 76, 85, 75, 69, 8, 8, 8, 8, 8, 8, 8, 8], "trial": 0, "time_elapsed": 390655, "type": "FREE_RECALL", "trial_index": 41}, "uniqueid": "MTK1725:37ZHEEHM6XTEF7KTDK2WD8SZGRP73O", "dateTime": 1516133594507}, {"current_trial": 42, "trialdata": {"rt": 2954, "trial_type": "text", "internal_node_id": "0.0-33.0", "time_elapsed": 395613, "key_press": 32, "type": "INSTRUCTIONS", "trial_index": 42}, "uniqueid": "MTK1725:37ZHEEHM6XTEF7KTDK2WD8SZGRP73O", "dateTime": 1516133599463}, {"current_trial": 43, "trialdata": {"rt": [3245, 5805], "trial_type": "math-distractor", "key_times": [2501, 2749, 3245, 5005, 5405, 5805, 13005, 13237, 14293, 14533], "responses": ["19", "16"], "num2": [3, 7, 8], "num3": [8, 2, 9], "conditions": [18, 1200, "v", 18000], "internal_node_id": "0.0-34.0", "key_presses": [97, 105, 13, 97, 102, 13, 97, 102, 8, 8], "trial": 1, "time_elapsed": 415617, "type": "DISTRACTOR", "trial_index": 43, "num1": [8, 7, 7]}, "uniqueid": "MTK1725:37ZHEEHM6XTEF7KTDK2WD8SZGRP73O", "dateTime": 1516133619467}, {"current_trial": 44, "trialdata": {"rt": -1, "trial_type": "single-stim", "stimulus": "<p id=\"stim\">10</p>", "internal_node_id": "0.0-35.0-0.0", "time_elapsed": 418619, "key_press": -1, "trial_index": 44}, "uniqueid": "MTK1725:37ZHEEHM6XTEF7KTDK2WD8SZGRP73O", "dateTime": 1516133622469}, {"current_trial": 45, "trialdata": {"rt": -1, "trial_type": "single-stim", "stimulus": "<p id=\"stim\">9</p>", "internal_node_id": "0.0-35.0-1.0", "time_elapsed": 419621, "key_press": -1, "trial_index": 45}, "uniqueid": "MTK1725:37ZHEEHM6XTEF7KTDK2WD8SZGRP73O", "dateTime": 1516133623471}, {"current_trial": 46, "trialdata": {"rt": -1, "trial_type": "single-stim", "stimulus": "<p id=\"stim\">8</p>", "internal_node_id": "0.0-35.0-2.0", "time_elapsed": 420622, "key_press": -1, "trial_index": 46}, "uniqueid": "MTK1725:37ZHEEHM6XTEF7KTDK2WD8SZGRP73O", "dateTime": 1516133624472}, {"current_trial": 47, "trialdata": {"rt": -1, "trial_type": "single-stim", "stimulus": "<p id=\"stim\">7</p>", "internal_node_id": "0.0-35.0-3.0", "time_elapsed": 421624, "key_press": -1, "trial_index": 47}, "uniqueid": "MTK1725:37ZHEEHM6XTEF7KTDK2WD8SZGRP73O", "dateTime": 1516133625474}, {"current_trial": 48, "trialdata": {"rt": -1, "trial_type": "single-stim", "stimulus": "<p id=\"stim\">6</p>", "internal_node_id": "0.0-35.0-4.0", "time_elapsed": 422625, "key_press": -1, "trial_index": 48}, "uniqueid": "MTK1725:37ZHEEHM6XTEF7KTDK2WD8SZGRP73O", "dateTime": 1516133626475}, {"current_trial": 49, "trialdata": {"rt": -1, "trial_type": "single-stim", "stimulus": "<p id=\"stim\">5</p>", "internal_node_id": "0.0-35.0-5.0", "time_elapsed": 423626, "key_press": -1, "trial_index": 49}, "uniqueid": "MTK1725:37ZHEEHM6XTEF7KTDK2WD8SZGRP73O", "dateTime": 1516133627476}, {"current_trial": 50, "trialdata": {"rt": -1, "trial_type": "single-stim", "stimulus": "<p id=\"stim\">4</p>", "internal_node_id": "0.0-35.0-6.0", "time_elapsed": 424627, "key_press": -1, "trial_index": 50}, "uniqueid": "MTK1725:37ZHEEHM6XTEF7KTDK2WD8SZGRP73O", "dateTime": 1516133628477}, {"current_trial": 51, "trialdata": {"rt": -1, "trial_type": "single-stim", "stimulus": "<p id=\"stim\">3</p>", "internal_node_id": "0.0-35.0-7.0", "time_elapsed": 425628, "key_press": -1, "trial_index": 51}, "uniqueid": "MTK1725:37ZHEEHM6XTEF7KTDK2WD8SZGRP73O", "dateTime": 1516133629479}, {"current_trial": 52, "trialdata": {"rt": -1, "trial_type": "single-stim", "stimulus": "<p id=\"stim\">2</p>", "internal_node_id": "0.0-35.0-8.0", "time_elapsed": 426630, "key_press": -1, "trial_index": 52}, "uniqueid": "MTK1725:37ZHEEHM6XTEF7KTDK2WD8SZGRP73O", "dateTime": 1516133630480}, {"current_trial": 53, "trialdata": {"rt": -1, "trial_type": "single-stim", "stimulus": "<p id=\"stim\">1</p>", "internal_node_id": "0.0-35.0-9.0", "time_elapsed": 427631, "key_press": -1, "trial_index": 53}, "uniqueid": "MTK1725:37ZHEEHM6XTEF7KTDK2WD8SZGRP73O", "dateTime": 1516133631481}, {"current_trial": 54, "trialdata": {"rt": -1, "trial_type": "single-stim", "stimulus": "<p id=\"stim\">+</p>", "internal_node_id": "0.0-36.0-0.0", "time_elapsed": 429132, "key_press": -1, "type": "FIXATION", "trial_index": 54}, "uniqueid": "MTK1725:37ZHEEHM6XTEF7KTDK2WD8SZGRP73O", "dateTime": 1516133632982}, {"current_trial": 55, "trialdata": {"rt": -1, "trial_type": "single-stim", "word": "cigar", "stimulus": "<p id=\"stim\">CIGAR</p>", "conditions": [18, 1200, "v", 18000], "internal_node_id": "0.0-37.0", "trial": 1, "time_elapsed": 430333, "serialpos": 0, "key_press": -1, "wordID": 307, "type": "PRES_VIS", "trial_index": 55}, "uniqueid": "MTK1725:37ZHEEHM6XTEF7KTDK2WD8SZGRP73O", "dateTime": 1516133634183}, {"current_trial": 56, "trialdata": {"rt": -1, "trial_type": "single-stim", "word": "dresser", "stimulus": "<p id=\"stim\">DRESSER</p>", "conditions": [18, 1200, "v", 18000], "internal_node_id": "0.0-38.0", "trial": 1, "time_elapsed": 432677, "serialpos": 1, "key_press": -1, "wordID": 495, "type": "PRES_VIS", "trial_index": 56}, "uniqueid": "MTK1725:37ZHEEHM6XTEF7KTDK2WD8SZGRP73O", "dateTime": 1516133636528}, {"current_trial": 57, "trialdata": {"rt": -1, "trial_type": "single-stim", "word": "racket", "stimulus": "<p id=\"stim\">RACKET</p>", "conditions": [18, 1200, "v", 18000], "internal_node_id": "0.0-39.0", "trial": 1, "time_elapsed": 434928, "serialpos": 2, "key_press": -1, "wordID": 1154, "type": "PRES_VIS", "trial_index": 57}, "uniqueid": "MTK1725:37ZHEEHM6XTEF7KTDK2WD8SZGRP73O", "dateTime": 1516133638778}, {"current_trial": 58, "trialdata": {"rt": -1, "trial_type": "single-stim", "word": "cod", "stimulus": "<p id=\"stim\">COD</p>", "conditions": [18, 1200, "v", 18000], "internal_node_id": "0.0-40.0", "trial": 1, "time_elapsed": 437150, "serialpos": 3, "key_press": -1, "wordID": 339, "type": "PRES_VIS", "trial_index": 58}, "uniqueid": "MTK1725:37ZHEEHM6XTEF7KTDK2WD8SZGRP73O", "dateTime": 1516133641000}, {"current_trial": 59, "trialdata": {"rt": -1, "trial_type": "single-stim", "word": "arm", "stimulus": "<p id=\"stim\">ARM</p>", "conditions": [18, 1200, "v", 18000], "internal_node_id": "0.0-41.0", "trial": 1, "time_elapsed": 439218, "serialpos": 4, "key_press": -1, "wordID": 37, "type": "PRES_VIS", "trial_index": 59}, "uniqueid": "MTK1725:37ZHEEHM6XTEF7KTDK2WD8SZGRP73O", "dateTime": 1516133643068}, {"current_trial": 60, "trialdata": {"rt": -1, "trial_type": "single-stim", "word": "luggage", "stimulus": "<p id=\"stim\">LUGGAGE</p>", "conditions": [18, 1200, "v", 18000], "internal_node_id": "0.0-42.0", "trial": 1, "time_elapsed": 441556, "serialpos": 5, "key_press": -1, "wordID": 846, "type": "PRES_VIS", "trial_index": 60}, "uniqueid": "MTK1725:37ZHEEHM6XTEF7KTDK2WD8SZGRP73O", "dateTime": 1516133645406}, {"current_trial": 61, "trialdata": {"rt": -1, "trial_type": "single-stim", "word": "dragon", "stimulus": "<p id=\"stim\">DRAGON</p>", "conditions": [18, 1200, "v", 18000], "internal_node_id": "0.0-43.0", "trial": 1, "time_elapsed": 443644, "serialpos": 6, "key_press": -1, "wordID": 491, "type": "PRES_VIS", "trial_index": 61}, "uniqueid": "MTK1725:37ZHEEHM6XTEF7KTDK2WD8SZGRP73O", "dateTime": 1516133647494}, {"current_trial": 62, "trialdata": {"rt": -1, "trial_type": "single-stim", "word": "catcher", "stimulus": "<p id=\"stim\">CATCHER</p>", "conditions": [18, 1200, "v", 18000], "internal_node_id": "0.0-44.0", "trial": 1, "time_elapsed": 445886, "serialpos": 7, "key_press": -1, "wordID": 257, "type": "PRES_VIS", "trial_index": 62}, "uniqueid": "MTK1725:37ZHEEHM6XTEF7KTDK2WD8SZGRP73O", "dateTime": 1516133649737}, {"current_trial": 63, "trialdata": {"rt": -1, "trial_type": "single-stim", "word": "cottage", "stimulus": "<p id=\"stim\">COTTAGE</p>", "conditions": [18, 1200, "v", 18000], "internal_node_id": "0.0-45.0", "trial": 1, "time_elapsed": 448136, "serialpos": 8, "key_press": -1, "wordID": 383, "type": "PRES_VIS", "trial_index": 63}, "uniqueid": "MTK1725:37ZHEEHM6XTEF7KTDK2WD8SZGRP73O", "dateTime": 1516133651986}, {"current_trial": 64, "trialdata": {"rt": -1, "trial_type": "single-stim", "word": "fox", "stimulus": "<p id=\"stim\">FOX</p>", "conditions": [18, 1200, "v", 18000], "internal_node_id": "0.0-46.0", "trial": 1, "time_elapsed": 450144, "serialpos": 9, "key_press": -1, "wordID": 597, "type": "PRES_VIS", "trial_index": 64}, "uniqueid": "MTK1725:37ZHEEHM6XTEF7KTDK2WD8SZGRP73O", "dateTime": 1516133653994}, {"current_trial": 65, "trialdata": {"rt": -1, "trial_type": "single-stim", "word": "termite", "stimulus": "<p id=\"stim\">TERMITE</p>", "conditions": [18, 1200, "v", 18000], "internal_node_id": "0.0-47.0", "trial": 1, "time_elapsed": 452529, "serialpos": 10, "key_press": -1, "wordID": 1450, "type": "PRES_VIS", "trial_index": 65}, "uniqueid": "MTK1725:37ZHEEHM6XTEF7KTDK2WD8SZGRP73O", "dateTime": 1516133656379}, {"current_trial": 66, "trialdata": {"rt": -1, "trial_type": "single-stim", "word": "relish", "stimulus": "<p id=\"stim\">RELISH</p>", "conditions": [18, 1200, "v", 18000], "internal_node_id": "0.0-48.0", "trial": 1, "time_elapsed": 454883, "serialpos": 11, "key_press": -1, "wordID": 1182, "type": "PRES_VIS", "trial_index": 66}, "uniqueid": "MTK1725:37ZHEEHM6XTEF7KTDK2WD8SZGRP73O", "dateTime": 1516133658734}, {"current_trial": 67, "trialdata": {"rt": -1, "trial_type": "single-stim", "word": "jello", "stimulus": "<p id=\"stim\">JELLO</p>", "conditions": [18, 1200, "v", 18000], "internal_node_id": "0.0-49.0", "trial": 1, "time_elapsed": 457209, "serialpos": 12, "key_press": -1, "wordID": 753, "type": "PRES_VIS", "trial_index": 67}, "uniqueid": "MTK1725:37ZHEEHM6XTEF7KTDK2WD8SZGRP73O", "dateTime": 1516133661059}, {"current_trial": 68, "trialdata": {"rt": -1, "trial_type": "single-stim", "word": "transplant", "stimulus": "<p id=\"stim\">TRANSPLANT</p>", "conditions": [18, 1200, "v", 18000], "internal_node_id": "0.0-50.0", "trial": 1, "time_elapsed": 459385, "serialpos": 13, "key_press": -1, "wordID": 1495, "type": "PRES_VIS", "trial_index": 68}, "uniqueid": "MTK1725:37ZHEEHM6XTEF7KTDK2WD8SZGRP73O", "dateTime": 1516133663238}, {"current_trial": 69, "trialdata": {"rt": -1, "trial_type": "single-stim", "word": "hostess", "stimulus": "<p id=\"stim\">HOSTESS</p>", "conditions": [18, 1200, "v", 18000], "internal_node_id": "0.0-51.0", "trial": 1, "time_elapsed": 461491, "serialpos": 14, "key_press": -1, "wordID": 722, "type": "PRES_VIS", "trial_index": 69}, "uniqueid": "MTK1725:37ZHEEHM6XTEF7KTDK2WD8SZGRP73O", "dateTime": 1516133665341}, {"current_trial": 70, "trialdata": {"rt": -1, "trial_type": "single-stim", "word": "lake", "stimulus": "<p id=\"stim\">LAKE</p>", "conditions": [18, 1200, "v", 18000], "internal_node_id": "0.0-52.0", "trial": 1, "time_elapsed": 463511, "serialpos": 15, "key_press": -1, "wordID": 795, "type": "PRES_VIS", "trial_index": 70}, "uniqueid": "MTK1725:37ZHEEHM6XTEF7KTDK2WD8SZGRP73O", "dateTime": 1516133667361}, {"current_trial": 71, "trialdata": {"rt": -1, "trial_type": "single-stim", "word": "girl", "stimulus": "<p id=\"stim\">GIRL</p>", "conditions": [18, 1200, "v", 18000], "internal_node_id": "0.0-53.0", "trial": 1, "time_elapsed": 465601, "serialpos": 16, "key_press": -1, "wordID": 636, "type": "PRES_VIS", "trial_index": 71}, "uniqueid": "MTK1725:37ZHEEHM6XTEF7KTDK2WD8SZGRP73O", "dateTime": 1516133669451}, {"current_trial": 72, "trialdata": {"rt": -1, "trial_type": "single-stim", "word": "baby", "stimulus": "<p id=\"stim\">BABY</p>", "conditions": [18, 1200, "v", 18000], "internal_node_id": "0.0-54.0", "trial": 1, "time_elapsed": 467740, "serialpos": 17, "key_press": -1, "wordID": 63, "type": "PRES_VIS", "trial_index": 72}, "uniqueid": "MTK1725:37ZHEEHM6XTEF7KTDK2WD8SZGRP73O", "dateTime": 1516133671590}, {"current_trial": 73, "trialdata": {"rt": -1, "trial_type": "single-stim", "stimulus": "", "internal_node_id": "0.0-55.0-0.0", "time_elapsed": 470267, "key_press": -1, "type": "PRE_RECALL_DELAY", "trial_index": 73}, "uniqueid": "MTK1725:37ZHEEHM6XTEF7KTDK2WD8SZGRP73O", "dateTime": 1516133674117}, {"current_trial": 74, "trialdata": {"rt": -1000, "trial_type": "single-audio", "stimulus": "/static/audio/400Hz.wav", "internal_node_id": "0.0-56.0", "time_elapsed": 470769, "key_press": -1, "type": "PRE_RECALL_ALERT", "trial_index": 74}, "uniqueid": "MTK1725:37ZHEEHM6XTEF7KTDK2WD8SZGRP73O", "dateTime": 1516133674619}, {"current_trial": 75, "trialdata": {"rt": [5481, 11441, 12889, 13785, 16561, 18817, 25521, 28857, 30833, 34889, 37993, 41033, 42521, 44313], "recwords": ["cigar", "catcher", "dresser", "cod", "arm", "luggage", "dress", "cottege", "fox", "termite", "relish", "hostess", "girl", "baby"], "key_times": [3938, 4025, 4682, 4873, 5002, 5481, 8770, 8993, 9097, 9401, 9506, 9649, 9770, 11441, 11753, 11921, 12026, 12145, 12321, 12513, 12642, 12889, 13154, 13257, 13401, 13785, 15722, 15874, 16330, 16561, 16906, 17130, 17289, 17441, 17697, 18033, 18225, 18817, 20962, 21241, 21394, 21617, 21865, 25521, 25914, 26361, 26610, 26810, 27450, 27649, 27977, 28857, 29113, 29297, 29417, 30833, 31330, 31721, 31857, 32041, 32185, 32281, 32497, 34889, 36602, 36809, 36969, 37089, 37201, 37329, 37993, 39809, 39929, 40121, 40241, 40473, 40665, 40817, 41033, 41881, 41969, 42137, 42225, 42521, 42913, 43033, 43129, 43337, 44313], "trial_type": "free-recall", "conditions": [18, 1200, "v", 18000], "internal_node_id": "0.0-57.0-0.0", "key_presses": [67, 73, 71, 65, 82, 13, 67, 65, 84, 67, 72, 69, 82, 13, 68, 82, 69, 83, 83, 69, 82, 13, 67, 79, 68, 13, 65, 82, 77, 13, 76, 85, 71, 71, 65, 71, 69, 13, 68, 82, 69, 83, 83, 13, 67, 79, 84, 84, 69, 71, 69, 13, 70, 79, 88, 13, 84, 69, 82, 77, 73, 84, 69, 13, 82, 69, 76, 73, 83, 72, 13, 72, 79, 83, 84, 69, 83, 83, 13, 71, 73, 82, 76, 13, 66, 65, 66, 89, 13], "trial": 1, "time_elapsed": 530772, "type": "FREE_RECALL", "trial_index": 75}, "uniqueid": "MTK1725:37ZHEEHM6XTEF7KTDK2WD8SZGRP73O", "dateTime": 1516133734625}, {"current_trial": 76, "trialdata": {"rt": 4227, "trial_type": "text", "internal_node_id": "0.0-58.0", "time_elapsed": 537004, "key_press": 32, "type": "INSTRUCTIONS", "trial_index": 76}, "uniqueid": "MTK1725:37ZHEEHM6XTEF7KTDK2WD8SZGRP73O", "dateTime": 1516133740854}, {"current_trial": 77, "trialdata": {"rt": [3669, 6461, 10373, 12693, 15101, 17061, 19253], "trial_type": "math-distractor", "key_times": [2901, 3109, 3669, 5661, 5917, 6461, 9813, 10061, 10373, 12381, 12693, 13997, 14181, 15101, 16485, 16781, 17061, 18333, 18893, 19253, 23405], "responses": ["20", "15", "16", "9", "11", "13", "13"], "num2": [5, 4, 3, 1, 9, 3, 1, 9], "num3": [6, 8, 7, 1, 1, 7, 3, 7], "conditions": [12, 800, "v", 24000], "internal_node_id": "0.0-59.0", "key_presses": [98, 96, 13, 97, 101, 13, 97, 102, 13, 105, 13, 97, 97, 13, 97, 99, 13, 97, 99, 13, 97], "trial": 2, "time_elapsed": 562006, "type": "DISTRACTOR", "trial_index": 77, "num1": [9, 3, 6, 7, 1, 3, 9, 4]}, "uniqueid": "MTK1725:37ZHEEHM6XTEF7KTDK2WD8SZGRP73O", "dateTime": 1516133765857}, {"current_trial": 78, "trialdata": {"rt": -1, "trial_type": "single-stim", "stimulus": "<p id=\"stim\">10</p>", "internal_node_id": "0.0-60.0-0.0", "time_elapsed": 565008, "key_press": -1, "trial_index": 78}, "uniqueid": "MTK1725:37ZHEEHM6XTEF7KTDK2WD8SZGRP73O", "dateTime": 1516133768858}, {"current_trial": 79, "trialdata": {"rt": -1, "trial_type": "single-stim", "stimulus": "<p id=\"stim\">9</p>", "internal_node_id": "0.0-60.0-1.0", "time_elapsed": 566009, "key_press": -1, "trial_index": 79}, "uniqueid": "MTK1725:37ZHEEHM6XTEF7KTDK2WD8SZGRP73O", "dateTime": 1516133769859}, {"current_trial": 80, "trialdata": {"rt": -1, "trial_type": "single-stim", "stimulus": "<p id=\"stim\">8</p>", "internal_node_id": "0.0-60.0-2.0", "time_elapsed": 567010, "key_press": -1, "trial_index": 80}, "uniqueid": "MTK1725:37ZHEEHM6XTEF7KTDK2WD8SZGRP73O", "dateTime": 1516133770860}, {"current_trial": 81, "trialdata": {"rt": -1, "trial_type": "single-stim", "stimulus": "<p id=\"stim\">7</p>", "internal_node_id": "0.0-60.0-3.0", "time_elapsed": 568012, "key_press": -1, "trial_index": 81}, "uniqueid": "MTK1725:37ZHEEHM6XTEF7KTDK2WD8SZGRP73O", "dateTime": 1516133771862}, {"current_trial": 82, "trialdata": {"rt": -1, "trial_type": "single-stim", "stimulus": "<p id=\"stim\">6</p>", "internal_node_id": "0.0-60.0-4.0", "time_elapsed": 569013, "key_press": -1, "trial_index": 82}, "uniqueid": "MTK1725:37ZHEEHM6XTEF7KTDK2WD8SZGRP73O", "dateTime": 1516133772863}, {"current_trial": 83, "trialdata": {"rt": -1, "trial_type": "single-stim", "stimulus": "<p id=\"stim\">5</p>", "internal_node_id": "0.0-60.0-5.0", "time_elapsed": 570015, "key_press": -1, "trial_index": 83}, "uniqueid": "MTK1725:37ZHEEHM6XTEF7KTDK2WD8SZGRP73O", "dateTime": 1516133773865}, {"current_trial": 84, "trialdata": {"rt": -1, "trial_type": "single-stim", "stimulus": "<p id=\"stim\">4</p>", "internal_node_id": "0.0-60.0-6.0", "time_elapsed": 571017, "key_press": -1, "trial_index": 84}, "uniqueid": "MTK1725:37ZHEEHM6XTEF7KTDK2WD8SZGRP73O", "dateTime": 1516133774867}, {"current_trial": 85, "trialdata": {"rt": -1, "trial_type": "single-stim", "stimulus": "<p id=\"stim\">3</p>", "internal_node_id": "0.0-60.0-7.0", "time_elapsed": 572018, "key_press": -1, "trial_index": 85}, "uniqueid": "MTK1725:37ZHEEHM6XTEF7KTDK2WD8SZGRP73O", "dateTime": 1516133775868}, {"current_trial": 86, "trialdata": {"rt": -1, "trial_type": "single-stim", "stimulus": "<p id=\"stim\">2</p>", "internal_node_id": "0.0-60.0-8.0", "time_elapsed": 573019, "key_press": -1, "trial_index": 86}, "uniqueid": "MTK1725:37ZHEEHM6XTEF7KTDK2WD8SZGRP73O", "dateTime": 1516133776869}, {"current_trial": 87, "trialdata": {"rt": -1, "trial_type": "single-stim", "stimulus": "<p id=\"stim\">1</p>", "internal_node_id": "0.0-60.0-9.0", "time_elapsed": 574020, "key_press": -1, "trial_index": 87}, "uniqueid": "MTK1725:37ZHEEHM6XTEF7KTDK2WD8SZGRP73O", "dateTime": 1516133777870}, {"current_trial": 88, "trialdata": {"rt": -1, "trial_type": "single-stim", "stimulus": "<p id=\"stim\">+</p>", "internal_node_id": "0.0-61.0-0.0", "time_elapsed": 575521, "key_press": -1, "type": "FIXATION", "trial_index": 88}, "uniqueid": "MTK1725:37ZHEEHM6XTEF7KTDK2WD8SZGRP73O", "dateTime": 1516133779371}, {"current_trial": 89, "trialdata": {"rt": -1, "trial_type": "single-stim", "word": "piano", "stimulus": "<p id=\"stim\">PIANO</p>", "conditions": [12, 800, "v", 24000], "internal_node_id": "0.0-62.0", "trial": 2, "time_elapsed": 576322, "serialpos": 0, "key_press": -1, "wordID": 1056, "type": "PRES_VIS", "trial_index": 89}, "uniqueid": "MTK1725:37ZHEEHM6XTEF7KTDK2WD8SZGRP73O", "dateTime": 1516133780172}, {"current_trial": 90, "trialdata": {"rt": -1, "trial_type": "single-stim", "word": "belly", "stimulus": "<p id=\"stim\">BELLY</p>", "conditions": [12, 800, "v", 24000], "internal_node_id": "0.0-63.0", "trial": 2, "time_elapsed": 578141, "serialpos": 1, "key_press": -1, "wordID": 118, "type": "PRES_VIS", "trial_index": 90}, "uniqueid": "MTK1725:37ZHEEHM6XTEF7KTDK2WD8SZGRP73O", "dateTime": 1516133781991}, {"current_trial": 91, "trialdata": {"rt": -1, "trial_type": "single-stim", "word": "servant", "stimulus": "<p id=\"stim\">SERVANT</p>", "conditions": [12, 800, "v", 24000], "internal_node_id": "0.0-64.0", "trial": 2, "time_elapsed": 580004, "serialpos": 2, "key_press": -1, "wordID": 1270, "type": "PRES_VIS", "trial_index": 91}, "uniqueid": "MTK1725:37ZHEEHM6XTEF7KTDK2WD8SZGRP73O", "dateTime": 1516133783854}, {"current_trial": 92, "trialdata": {"rt": -1, "trial_type": "single-stim", "word": "skirt", "stimulus": "<p id=\"stim\">SKIRT</p>", "conditions": [12, 800, "v", 24000], "internal_node_id": "0.0-65.0", "trial": 2, "time_elapsed": 581829, "serialpos": 3, "key_press": -1, "wordID": 1318, "type": "PRES_VIS", "trial_index": 92}, "uniqueid": "MTK1725:37ZHEEHM6XTEF7KTDK2WD8SZGRP73O", "dateTime": 1516133785680}, {"current_trial": 93, "trialdata": {"rt": -1, "trial_type": "single-stim", "word": "county", "stimulus": "<p id=\"stim\">COUNTY</p>", "conditions": [12, 800, "v", 24000], "internal_node_id": "0.0-66.0", "trial": 2, "time_elapsed": 583790, "serialpos": 4, "key_press": -1, "wordID": 388, "type": "PRES_VIS", "trial_index": 93}, "uniqueid": "MTK1725:37ZHEEHM6XTEF7KTDK2WD8SZGRP73O", "dateTime": 1516133787640}, {"current_trial": 94, "trialdata": {"rt": -1, "trial_type": "single-stim", "word": "office", "stimulus": "<p id=\"stim\">OFFICE</p>", "conditions": [12, 800, "v", 24000], "internal_node_id": "0.0-67.0", "trial": 2, "time_elapsed": 585578, "serialpos": 5, "key_press": -1, "wordID": 971, "type": "PRES_VIS", "trial_index": 94}, "uniqueid": "MTK1725:37ZHEEHM6XTEF7KTDK2WD8SZGRP73O", "dateTime": 1516133789428}, {"current_trial": 95, "trialdata": {"rt": -1, "trial_type": "single-stim", "word": "blouse", "stimulus": "<p id=\"stim\">BLOUSE</p>", "conditions": [12, 800, "v", 24000], "internal_node_id": "0.0-68.0", "trial": 2, "time_elapsed": 587329, "serialpos": 6, "key_press": -1, "wordID": 138, "type": "PRES_VIS", "trial_index": 95}, "uniqueid": "MTK1725:37ZHEEHM6XTEF7KTDK2WD8SZGRP73O", "dateTime": 1516133791179}, {"current_trial": 96, "trialdata": {"rt": -1, "trial_type": "single-stim", "word": "lava", "stimulus": "<p id=\"stim\">LAVA</p>", "conditions": [12, 800, "v", 24000], "internal_node_id": "0.0-69.0", "trial": 2, "time_elapsed": 589014, "serialpos": 7, "key_press": -1, "wordID": 803, "type": "PRES_VIS", "trial_index": 96}, "uniqueid": "MTK1725:37ZHEEHM6XTEF7KTDK2WD8SZGRP73O", "dateTime": 1516133792864}, {"current_trial": 97, "trialdata": {"rt": -1, "trial_type": "single-stim", "word": "sculpture", "stimulus": "<p id=\"stim\">SCULPTURE</p>", "conditions": [12, 800, "v", 24000], "internal_node_id": "0.0-70.0", "trial": 2, "time_elapsed": 590958, "serialpos": 8, "key_press": -1, "wordID": 1257, "type": "PRES_VIS", "trial_index": 97}, "uniqueid": "MTK1725:37ZHEEHM6XTEF7KTDK2WD8SZGRP73O", "dateTime": 1516133794808}, {"current_trial": 98, "trialdata": {"rt": -1, "trial_type": "single-stim", "word": "statue", "stimulus": "<p id=\"stim\">STATUE</p>", "conditions": [12, 800, "v", 24000], "internal_node_id": "0.0-71.0", "trial": 2, "time_elapsed": 592783, "serialpos": 9, "key_press": -1, "wordID": 1373, "type": "PRES_VIS", "trial_index": 98}, "uniqueid": "MTK1725:37ZHEEHM6XTEF7KTDK2WD8SZGRP73O", "dateTime": 1516133796633}, {"current_trial": 99, "trialdata": {"rt": -1, "trial_type": "single-stim", "word": "whistle", "stimulus": "<p id=\"stim\">WHISTLE</p>", "conditions": [12, 800, "v", 24000], "internal_node_id": "0.0-72.0", "trial": 2, "time_elapsed": 594677, "serialpos": 10, "key_press": -1, "wordID": 1605, "type": "PRES_VIS", "trial_index": 99}, "uniqueid": "MTK1725:37ZHEEHM6XTEF7KTDK2WD8SZGRP73O", "dateTime": 1516133798528}, {"current_trial": 100, "trialdata": {"rt": -1, "trial_type": "single-stim", "word": "crutch", "stimulus": "<p id=\"stim\">CRUTCH</p>", "conditions": [12, 800, "v", 24000], "internal_node_id": "0.0-73.0", "trial": 2, "time_elapsed": 596664, "serialpos": 11, "key_press": -1, "wordID": 416, "type": "PRES_VIS", "trial_index": 100}, "uniqueid": "MTK1725:37ZHEEHM6XTEF7KTDK2WD8SZGRP73O", "dateTime": 1516133800514}, {"current_trial": 101, "trialdata": {"rt": -1, "trial_type": "single-stim", "stimulus": "", "internal_node_id": "0.0-74.0-0.0", "time_elapsed": 598752, "key_press": -1, "type": "PRE_RECALL_DELAY", "trial_index": 101}, "uniqueid": "MTK1725:37ZHEEHM6XTEF7KTDK2WD8SZGRP73O", "dateTime": 1516133802602}, {"current_trial": 102, "trialdata": {"rt": -1000, "trial_type": "single-audio", "stimulus": "/static/audio/400Hz.wav", "internal_node_id": "0.0-75.0", "time_elapsed": 599253, "key_press": -1, "type": "PRE_RECALL_ALERT", "trial_index": 102}, "uniqueid": "MTK1725:37ZHEEHM6XTEF7KTDK2WD8SZGRP73O", "dateTime": 1516133803103}, {"current_trial": 103, "trialdata": {"rt": [11356, 21244, 25316, 31525, 33061, 36780, 39485, 46292, 50012], "recwords": ["piano", "reilly", "skirt", "counter", "office", "blouse", "lava", "statue", "whistle"], "key_times": [10525, 10685, 10853, 10965, 11101, 11356, 13605, 13869, 14629, 14829, 14965, 15173, 15325, 15813, 15989, 16165, 19125, 19293, 19677, 19773, 20293, 20397, 20565, 20733, 20893, 21244, 24413, 24533, 24733, 24789, 24997, 25316, 28493, 28829, 28933, 29125, 30005, 30293, 30397, 30741, 30773, 31525, 32229, 32317, 32485, 32573, 32740, 32885, 33061, 35629, 35781, 35981, 36093, 36229, 36365, 36780, 38165, 38781, 38981, 39140, 39485, 43093, 43261, 44597, 44860, 45117, 45292, 45789, 45900, 46292, 48301, 48381, 48501, 48733, 48940, 49100, 49221, 50012, 50845, 51181, 51373, 51644, 51852, 52773, 52965, 53261, 53877, 54044, 57932, 58164, 58588, 58645, 58812, 58909], "trial_type": "free-recall", "conditions": [12, 800, "v", 24000], "internal_node_id": "0.0-76.0-0.0", "key_presses": [80, 73, 65, 78, 79, 13, 82, 73, 8, 69, 73, 76, 76, 8, 8, 8, 8, 8, 16, 82, 69, 73, 76, 76, 89, 13, 83, 75, 73, 82, 84, 13, 67, 79, 85, 82, 8, 78, 84, 69, 82, 13, 79, 70, 70, 73, 67, 69, 13, 66, 76, 79, 85, 83, 69, 13, 76, 65, 86, 65, 13, 83, 84, 65, 84, 85, 83, 8, 69, 13, 87, 72, 73, 83, 84, 76, 69, 13, 67, 82, 85, 67, 72, 8, 8, 84, 8, 8, 85, 84, 67, 72, 69, 82], "trial": 2, "time_elapsed": 659255, "type": "FREE_RECALL", "trial_index": 103}, "uniqueid": "MTK1725:37ZHEEHM6XTEF7KTDK2WD8SZGRP73O", "dateTime": 1516133863108}, {"current_trial": 104, "trialdata": {"rt": 7256, "trial_type": "text", "internal_node_id": "0.0-77.0", "time_elapsed": 668515, "key_press": 13, "type": "INSTRUCTIONS", "trial_index": 104}, "uniqueid": "MTK1725:37ZHEEHM6XTEF7KTDK2WD8SZGRP73O", "dateTime": 1516133872365}, {"current_trial": 105, "trialdata": {"rt": [2429, 5941, 7717, 9437], "trial_type": "math-distractor", "key_times": [2094, 2429, 5358, 5663, 5941, 7237, 7405, 7717, 8990, 9213, 9437], "responses": ["8", "16", "11", "12"], "num2": [5, 5, 1, 6, 7], "num3": [2, 8, 5, 1, 6], "conditions": [24, 1600, "v", 12000], "internal_node_id": "0.0-78.0", "key_presses": [104, 13, 97, 102, 13, 97, 97, 13, 97, 98, 13], "trial": 3, "time_elapsed": 682518, "type": "DISTRACTOR", "trial_index": 105, "num1": [1, 3, 5, 5, 9]}, "uniqueid": "MTK1725:37ZHEEHM6XTEF7KTDK2WD8SZGRP73O", "dateTime": 1516133886368}, {"current_trial": 106, "trialdata": {"rt": -1, "trial_type": "single-stim", "stimulus": "<p id=\"stim\">10</p>", "internal_node_id": "0.0-79.0-0.0", "time_elapsed": 685521, "key_press": -1, "trial_index": 106}, "uniqueid": "MTK1725:37ZHEEHM6XTEF7KTDK2WD8SZGRP73O", "dateTime": 1516133889371}, {"current_trial": 107, "trialdata": {"rt": -1, "trial_type": "single-stim", "stimulus": "<p id=\"stim\">9</p>", "internal_node_id": "0.0-79.0-1.0", "time_elapsed": 686522, "key_press": -1, "trial_index": 107}, "uniqueid": "MTK1725:37ZHEEHM6XTEF7KTDK2WD8SZGRP73O", "dateTime": 1516133890372}, {"current_trial": 108, "trialdata": {"rt": -1, "trial_type": "single-stim", "stimulus": "<p id=\"stim\">8</p>", "internal_node_id": "0.0-79.0-2.0", "time_elapsed": 687523, "key_press": -1, "trial_index": 108}, "uniqueid": "MTK1725:37ZHEEHM6XTEF7KTDK2WD8SZGRP73O", "dateTime": 1516133891374}, {"current_trial": 109, "trialdata": {"rt": -1, "trial_type": "single-stim", "stimulus": "<p id=\"stim\">7</p>", "internal_node_id": "0.0-79.0-3.0", "time_elapsed": 688525, "key_press": -1, "trial_index": 109}, "uniqueid": "MTK1725:37ZHEEHM6XTEF7KTDK2WD8SZGRP73O", "dateTime": 1516133892375}, {"current_trial": 110, "trialdata": {"rt": -1, "trial_type": "single-stim", "stimulus": "<p id=\"stim\">6</p>", "internal_node_id": "0.0-79.0-4.0", "time_elapsed": 689526, "key_press": -1, "trial_index": 110}, "uniqueid": "MTK1725:37ZHEEHM6XTEF7KTDK2WD8SZGRP73O", "dateTime": 1516133893376}, {"current_trial": 111, "trialdata": {"rt": -1, "trial_type": "single-stim", "stimulus": "<p id=\"stim\">5</p>", "internal_node_id": "0.0-79.0-5.0", "time_elapsed": 690528, "key_press": -1, "trial_index": 111}, "uniqueid": "MTK1725:37ZHEEHM6XTEF7KTDK2WD8SZGRP73O", "dateTime": 1516133894378}, {"current_trial": 112, "trialdata": {"rt": -1, "trial_type": "single-stim", "stimulus": "<p id=\"stim\">4</p>", "internal_node_id": "0.0-79.0-6.0", "time_elapsed": 691529, "key_press": -1, "trial_index": 112}, "uniqueid": "MTK1725:37ZHEEHM6XTEF7KTDK2WD8SZGRP73O", "dateTime": 1516133895379}, {"current_trial": 113, "trialdata": {"rt": -1, "trial_type": "single-stim", "stimulus": "<p id=\"stim\">3</p>", "internal_node_id": "0.0-79.0-7.0", "time_elapsed": 692530, "key_press": -1, "trial_index": 113}, "uniqueid": "MTK1725:37ZHEEHM6XTEF7KTDK2WD8SZGRP73O", "dateTime": 1516133896380}, {"current_trial": 114, "trialdata": {"rt": -1, "trial_type": "single-stim", "stimulus": "<p id=\"stim\">2</p>", "internal_node_id": "0.0-79.0-8.0", "time_elapsed": 693532, "key_press": -1, "trial_index": 114}, "uniqueid": "MTK1725:37ZHEEHM6XTEF7KTDK2WD8SZGRP73O", "dateTime": 1516133897382}, {"current_trial": 115, "trialdata": {"rt": -1, "trial_type": "single-stim", "stimulus": "<p id=\"stim\">1</p>", "internal_node_id": "0.0-79.0-9.0", "time_elapsed": 694533, "key_press": -1, "trial_index": 115}, "uniqueid": "MTK1725:37ZHEEHM6XTEF7KTDK2WD8SZGRP73O", "dateTime": 1516133898383}, {"current_trial": 116, "trialdata": {"rt": -1, "trial_type": "single-stim", "stimulus": "<p id=\"stim\">+</p>", "internal_node_id": "0.0-80.0-0.0", "time_elapsed": 696035, "key_press": -1, "type": "FIXATION", "trial_index": 116}, "uniqueid": "MTK1725:37ZHEEHM6XTEF7KTDK2WD8SZGRP73O", "dateTime": 1516133899885}, {"current_trial": 117, "trialdata": {"rt": -1, "trial_type": "single-stim", "word": "cafe", "stimulus": "<p id=\"stim\">CAFE</p>", "conditions": [24, 1600, "v", 12000], "internal_node_id": "0.0-81.0", "trial": 3, "time_elapsed": 697636, "serialpos": 0, "key_press": -1, "wordID": 215, "type": "PRES_VIS", "trial_index": 117}, "uniqueid": "MTK1725:37ZHEEHM6XTEF7KTDK2WD8SZGRP73O", "dateTime": 1516133901486}, {"current_trial": 118, "trialdata": {"rt": -1, "trial_type": "single-stim", "word": "omelet", "stimulus": "<p id=\"stim\">OMELET</p>", "conditions": [24, 1600, "v", 12000], "internal_node_id": "0.0-82.0", "trial": 3, "time_elapsed": 700370, "serialpos": 1, "key_press": -1, "wordID": 975, "type": "PRES_VIS", "trial_index": 118}, "uniqueid": "MTK1725:37ZHEEHM6XTEF7KTDK2WD8SZGRP73O", "dateTime": 1516133904220}, {"current_trial": 119, "trialdata": {"rt": -1, "trial_type": "single-stim", "word": "bureau", "stimulus": "<p id=\"stim\">BUREAU</p>", "conditions": [24, 1600, "v", 12000], "internal_node_id": "0.0-83.0", "trial": 3, "time_elapsed": 703163, "serialpos": 2, "key_press": -1, "wordID": 198, "type": "PRES_VIS", "trial_index": 119}, "uniqueid": "MTK1725:37ZHEEHM6XTEF7KTDK2WD8SZGRP73O", "dateTime": 1516133907013}, {"current_trial": 120, "trialdata": {"rt": -1, "trial_type": "single-stim", "word": "grape", "stimulus": "<p id=\"stim\">GRAPE</p>", "conditions": [24, 1600, "v", 12000], "internal_node_id": "0.0-84.0", "trial": 3, "time_elapsed": 705878, "serialpos": 3, "key_press": -1, "wordID": 653, "type": "PRES_VIS", "trial_index": 120}, "uniqueid": "MTK1725:37ZHEEHM6XTEF7KTDK2WD8SZGRP73O", "dateTime": 1516133909728}, {"current_trial": 121, "trialdata": {"rt": -1, "trial_type": "single-stim", "word": "diver", "stimulus": "<p id=\"stim\">DIVER</p>", "conditions": [24, 1600, "v", 12000], "internal_node_id": "0.0-85.0", "trial": 3, "time_elapsed": 708626, "serialpos": 4, "key_press": -1, "wordID": 475, "type": "PRES_VIS", "trial_index": 121}, "uniqueid": "MTK1725:37ZHEEHM6XTEF7KTDK2WD8SZGRP73O", "dateTime": 1516133912476}, {"current_trial": 122, "trialdata": {"rt": -1, "trial_type": "single-stim", "word": "sheriff", "stimulus": "<p id=\"stim\">SHERIFF</p>", "conditions": [24, 1600, "v", 12000], "internal_node_id": "0.0-86.0", "trial": 3, "time_elapsed": 711396, "serialpos": 5, "key_press": -1, "wordID": 1283, "type": "PRES_VIS", "trial_index": 122}, "uniqueid": "MTK1725:37ZHEEHM6XTEF7KTDK2WD8SZGRP73O", "dateTime": 1516133915247}, {"current_trial": 123, "trialdata": {"rt": -1, "trial_type": "single-stim", "word": "mildew", "stimulus": "<p id=\"stim\">MILDEW</p>", "conditions": [24, 1600, "v", 12000], "internal_node_id": "0.0-87.0", "trial": 3, "time_elapsed": 714041, "serialpos": 6, "key_press": -1, "wordID": 892, "type": "PRES_VIS", "trial_index": 123}, "uniqueid": "MTK1725:37ZHEEHM6XTEF7KTDK2WD8SZGRP73O", "dateTime": 1516133917891}, {"current_trial": 124, "trialdata": {"rt": -1, "trial_type": "single-stim", "word": "fungus", "stimulus": "<p id=\"stim\">FUNGUS</p>", "conditions": [24, 1600, "v", 12000], "internal_node_id": "0.0-88.0", "trial": 3, "time_elapsed": 716584, "serialpos": 7, "key_press": -1, "wordID": 613, "type": "PRES_VIS", "trial_index": 124}, "uniqueid": "MTK1725:37ZHEEHM6XTEF7KTDK2WD8SZGRP73O", "dateTime": 1516133920434}, {"current_trial": 125, "trialdata": {"rt": -1, "trial_type": "single-stim", "word": "pocket", "stimulus": "<p id=\"stim\">POCKET</p>", "conditions": [24, 1600, "v", 12000], "internal_node_id": "0.0-89.0", "trial": 3, "time_elapsed": 719286, "serialpos": 8, "key_press": -1, "wordID": 1092, "type": "PRES_VIS", "trial_index": 125}, "uniqueid": "MTK1725:37ZHEEHM6XTEF7KTDK2WD8SZGRP73O", "dateTime": 1516133923136}, {"current_trial": 126, "trialdata": {"rt": -1, "trial_type": "single-stim", "word": "stomach", "stimulus": "<p id=\"stim\">STOMACH</p>", "conditions": [24, 1600, "v", 12000], "internal_node_id": "0.0-90.0", "trial": 3, "time_elapsed": 721697, "serialpos": 9, "key_press": -1, "wordID": 1383, "type": "PRES_VIS", "trial_index": 126}, "uniqueid": "MTK1725:37ZHEEHM6XTEF7KTDK2WD8SZGRP73O", "dateTime": 1516133925548}, {"current_trial": 127, "trialdata": {"rt": -1, "trial_type": "single-stim", "word": "tribe", "stimulus": "<p id=\"stim\">TRIBE</p>", "conditions": [24, 1600, "v", 12000], "internal_node_id": "0.0-91.0", "trial": 3, "time_elapsed": 724284, "serialpos": 10, "key_press": -1, "wordID": 1504, "type": "PRES_VIS", "trial_index": 127}, "uniqueid": "MTK1725:37ZHEEHM6XTEF7KTDK2WD8SZGRP73O", "dateTime": 1516133928134}, {"current_trial": 128, "trialdata": {"rt": -1, "trial_type": "single-stim", "word": "shortcake", "stimulus": "<p id=\"stim\">SHORTCAKE</p>", "conditions": [24, 1600, "v", 12000], "internal_node_id": "0.0-92.0", "trial": 3, "time_elapsed": 726793, "serialpos": 11, "key_press": -1, "wordID": 1291, "type": "PRES_VIS", "trial_index": 128}, "uniqueid": "MTK1725:37ZHEEHM6XTEF7KTDK2WD8SZGRP73O", "dateTime": 1516133930643}, {"current_trial": 129, "trialdata": {"rt": -1, "trial_type": "single-stim", "word": "curtain", "stimulus": "<p id=\"stim\">CURTAIN</p>", "conditions": [24, 1600, "v", 12000], "internal_node_id": "0.0-93.0", "trial": 3, "time_elapsed": 729473, "serialpos": 12, "key_press": -1, "wordID": 426, "type": "PRES_VIS", "trial_index": 129}, "uniqueid": "MTK1725:37ZHEEHM6XTEF7KTDK2WD8SZGRP73O", "dateTime": 1516133933323}, {"current_trial": 130, "trialdata": {"rt": -1, "trial_type": "single-stim", "word": "globe", "stimulus": "<p id=\"stim\">GLOBE</p>", "conditions": [24, 1600, "v", 12000], "internal_node_id": "0.0-94.0", "trial": 3, "time_elapsed": 732183, "serialpos": 13, "key_press": -1, "wordID": 640, "type": "PRES_VIS", "trial_index": 130}, "uniqueid": "MTK1725:37ZHEEHM6XTEF7KTDK2WD8SZGRP73O", "dateTime": 1516133936033}, {"current_trial": 131, "trialdata": {"rt": -1, "trial_type": "single-stim", "word": "leg", "stimulus": "<p id=\"stim\">LEG</p>", "conditions": [24, 1600, "v", 12000], "internal_node_id": "0.0-95.0", "trial": 3, "time_elapsed": 734801, "serialpos": 14, "key_press": -1, "wordID": 808, "type": "PRES_VIS", "trial_index": 131}, "uniqueid": "MTK1725:37ZHEEHM6XTEF7KTDK2WD8SZGRP73O", "dateTime": 1516133938651}, {"current_trial": 132, "trialdata": {"rt": -1, "trial_type": "single-stim", "word": "body", "stimulus": "<p id=\"stim\">BODY</p>", "conditions": [24, 1600, "v", 12000], "internal_node_id": "0.0-96.0", "trial": 3, "time_elapsed": 737522, "serialpos": 15, "key_press": -1, "wordID": 144, "type": "PRES_VIS", "trial_index": 132}, "uniqueid": "MTK1725:37ZHEEHM6XTEF7KTDK2WD8SZGRP73O", "dateTime": 1516133941372}, {"current_trial": 133, "trialdata": {"rt": -1, "trial_type": "single-stim", "word": "egypt", "stimulus": "<p id=\"stim\">EGYPT</p>", "conditions": [24, 1600, "v", 12000], "internal_node_id": "0.0-97.0", "trial": 3, "time_elapsed": 740298, "serialpos": 16, "key_press": -1, "wordID": 518, "type": "PRES_VIS", "trial_index": 133}, "uniqueid": "MTK1725:37ZHEEHM6XTEF7KTDK2WD8SZGRP73O", "dateTime": 1516133944148}, {"current_trial": 134, "trialdata": {"rt": -1, "trial_type": "single-stim", "word": "europe", "stimulus": "<p id=\"stim\">EUROPE</p>", "conditions": [24, 1600, "v", 12000], "internal_node_id": "0.0-98.0", "trial": 3, "time_elapsed": 742979, "serialpos": 17, "key_press": -1, "wordID": 540, "type": "PRES_VIS", "trial_index": 134}, "uniqueid": "MTK1725:37ZHEEHM6XTEF7KTDK2WD8SZGRP73O", "dateTime": 1516133946829}, {"current_trial": 135, "trialdata": {"rt": -1, "trial_type": "single-stim", "word": "human", "stimulus": "<p id=\"stim\">HUMAN</p>", "conditions": [24, 1600, "v", 12000], "internal_node_id": "0.0-99.0", "trial": 3, "time_elapsed": 745579, "serialpos": 18, "key_press": -1, "wordID": 725, "type": "PRES_VIS", "trial_index": 135}, "uniqueid": "MTK1725:37ZHEEHM6XTEF7KTDK2WD8SZGRP73O", "dateTime": 1516133949429}, {"current_trial": 136, "trialdata": {"rt": -1, "trial_type": "single-stim", "word": "suitcase", "stimulus": "<p id=\"stim\">SUITCASE</p>", "conditions": [24, 1600, "v", 12000], "internal_node_id": "0.0-100.0", "trial": 3, "time_elapsed": 748191, "serialpos": 19, "key_press": -1, "wordID": 1402, "type": "PRES_VIS", "trial_index": 136}, "uniqueid": "MTK1725:37ZHEEHM6XTEF7KTDK2WD8SZGRP73O", "dateTime": 1516133952041}, {"current_trial": 137, "trialdata": {"rt": -1, "trial_type": "single-stim", "word": "clam", "stimulus": "<p id=\"stim\">CLAM</p>", "conditions": [24, 1600, "v", 12000], "internal_node_id": "0.0-101.0", "trial": 3, "time_elapsed": 750948, "serialpos": 20, "key_press": -1, "wordID": 314, "type": "PRES_VIS", "trial_index": 137}, "uniqueid": "MTK1725:37ZHEEHM6XTEF7KTDK2WD8SZGRP73O", "dateTime": 1516133954798}, {"current_trial": 138, "trialdata": {"rt": -1, "trial_type": "single-stim", "word": "chipmunk", "stimulus": "<p id=\"stim\">CHIPMUNK</p>", "conditions": [24, 1600, "v", 12000], "internal_node_id": "0.0-102.0", "trial": 3, "time_elapsed": 753423, "serialpos": 21, "key_press": -1, "wordID": 303, "type": "PRES_VIS", "trial_index": 138}, "uniqueid": "MTK1725:37ZHEEHM6XTEF7KTDK2WD8SZGRP73O", "dateTime": 1516133957274}, {"current_trial": 139, "trialdata": {"rt": -1, "trial_type": "single-stim", "word": "snake", "stimulus": "<p id=\"stim\">SNAKE</p>", "conditions": [24, 1600, "v", 12000], "internal_node_id": "0.0-103.0", "trial": 3, "time_elapsed": 755975, "serialpos": 22, "key_press": -1, "wordID": 1332, "type": "PRES_VIS", "trial_index": 139}, "uniqueid": "MTK1725:37ZHEEHM6XTEF7KTDK2WD8SZGRP73O", "dateTime": 1516133959825}, {"current_trial": 140, "trialdata": {"rt": -1, "trial_type": "single-stim", "word": "handbag", "stimulus": "<p id=\"stim\">HANDBAG</p>", "conditions": [24, 1600, "v", 12000], "internal_node_id": "0.0-104.0", "trial": 3, "time_elapsed": 758673, "serialpos": 23, "key_press": -1, "wordID": 683, "type": "PRES_VIS", "trial_index": 140}, "uniqueid": "MTK1725:37ZHEEHM6XTEF7KTDK2WD8SZGRP73O", "dateTime": 1516133962523}, {"current_trial": 141, "trialdata": {"rt": -1, "trial_type": "single-stim", "stimulus": "", "internal_node_id": "0.0-105.0-0.0", "time_elapsed": 761150, "key_press": -1, "type": "PRE_RECALL_DELAY", "trial_index": 141}, "uniqueid": "MTK1725:37ZHEEHM6XTEF7KTDK2WD8SZGRP73O", "dateTime": 1516133965000}, {"current_trial": 142, "trialdata": {"rt": -1000, "trial_type": "single-audio", "stimulus": "/static/audio/400Hz.wav", "internal_node_id": "0.0-106.0", "time_elapsed": 761651, "key_press": -1, "type": "PRE_RECALL_ALERT", "trial_index": 142}, "uniqueid": "MTK1725:37ZHEEHM6XTEF7KTDK2WD8SZGRP73O", "dateTime": 1516133965501}, {"current_trial": 143, "trialdata": {"rt": [11068, 13341, 20412, 24996, 26044, 28028, 30612, 33196, 38596, 42444, 44100, 48052, 49620, 52764, 54716, 56276, 58628], "recwords": ["cafe", "omelet", "bureau", "grape", "diver", "sheriff", "mildrew", "pocket", "fungus", "stomach", "tribe", "shortcake", "tribe", "leg", "body", "egypt", "human"], "key_times": [9797, 10085, 10581, 10693, 10797, 10893, 11068, 11621, 11828, 11965, 12077, 12212, 12381, 13341, 14741, 15733, 15869, 16005, 16181, 16325, 16685, 17185, 17217, 17251, 17283, 17316, 17349, 17382, 17557, 17645, 19165, 19373, 19517, 19709, 19917, 20412, 22925, 23148, 23269, 23893, 23949, 24996, 25277, 25405, 25556, 25725, 25837, 26044, 26452, 26565, 26829, 27236, 27413, 27590, 27765, 28028, 29397, 29541, 29693, 29861, 30069, 30220, 30405, 30612, 31341, 31469, 31669, 31781, 31981, 32085, 33196, 34093, 34773, 34965, 35093, 35237, 35365, 35565, 35701, 36228, 36412, 36573, 36740, 36909, 37164, 37380, 37525, 37620, 37796, 38596, 40341, 40509, 40629, 40740, 40885, 41141, 41181, 42444, 43149, 43357, 43476, 43716, 43852, 44100, 45325, 45445, 45572, 45668, 45868, 46741, 46900, 46989, 47148, 48052, 48316, 48516, 48589, 48772, 48988, 49620, 52045, 52212, 52468, 52764, 53909, 54052, 54244, 54413, 54716, 55084, 55292, 55460, 55588, 55748, 56276, 57740, 57956, 58204, 58316, 58420, 58628, 59220, 59341, 59428, 59596, 59948], "trial_type": "free-recall", "conditions": [24, 1600, "v", 12000], "internal_node_id": "0.0-107.0-0.0", "key_presses": [67, 70, 8, 65, 70, 69, 13, 79, 77, 69, 76, 69, 84, 13, 67, 85, 82, 69, 65, 85, 8, 8, 8, 8, 8, 8, 8, 8, 16, 66, 85, 82, 69, 65, 85, 13, 71, 82, 65, 80, 69, 13, 68, 73, 86, 69, 82, 13, 83, 72, 69, 82, 73, 70, 70, 13, 77, 73, 76, 68, 82, 69, 87, 13, 80, 79, 67, 75, 69, 84, 13, 83, 8, 70, 73, 78, 71, 69, 82, 8, 8, 8, 8, 8, 85, 78, 71, 85, 83, 13, 83, 84, 79, 77, 65, 67, 72, 13, 84, 82, 73, 66, 69, 13, 83, 72, 79, 82, 84, 67, 65, 75, 69, 13, 84, 82, 73, 66, 69, 13, 76, 69, 71, 13, 66, 79, 68, 89, 13, 69, 71, 89, 80, 84, 13, 72, 85, 77, 65, 78, 13, 83, 85, 73, 84, 67], "trial": 3, "time_elapsed": 821653, "type": "FREE_RECALL", "trial_index": 143}, "uniqueid": "MTK1725:37ZHEEHM6XTEF7KTDK2WD8SZGRP73O", "dateTime": 1516134025506}, {"current_trial": 144, "trialdata": {"rt": 1096, "trial_type": "text", "internal_node_id": "0.0-108.0", "time_elapsed": 824754, "key_press": 32, "type": "INSTRUCTIONS", "trial_index": 144}, "uniqueid": "MTK1725:37ZHEEHM6XTEF7KTDK2WD8SZGRP73O", "dateTime": 1516134028604}, {"current_trial": 145, "trialdata": {"rt": [3421, 5229, 7309, 8829, 10549], "trial_type": "math-distractor", "key_times": [2829, 3077, 3421, 4597, 4925, 5229, 6821, 7029, 7309, 8349, 8565, 8829, 9918, 10253, 10549], "responses": ["19", "19", "10", "12", "15"], "num2": [7, 5, 1, 2, 5, 9], "num3": [5, 9, 6, 5, 1, 9], "conditions": [12, 800, "v", 12000], "internal_node_id": "0.0-109.0", "key_presses": [97, 105, 13, 97, 105, 13, 97, 96, 13, 97, 98, 13, 97, 101, 13], "trial": 4, "time_elapsed": 838756, "type": "DISTRACTOR", "trial_index": 145, "num1": [7, 5, 3, 5, 9, 1]}, "uniqueid": "MTK1725:37ZHEEHM6XTEF7KTDK2WD8SZGRP73O", "dateTime": 1516134042607}, {"current_trial": 146, "trialdata": {"rt": -1, "trial_type": "single-stim", "stimulus": "<p id=\"stim\">10</p>", "internal_node_id": "0.0-110.0-0.0", "time_elapsed": 841759, "key_press": -1, "trial_index": 146}, "uniqueid": "MTK1725:37ZHEEHM6XTEF7KTDK2WD8SZGRP73O", "dateTime": 1516134045609}, {"current_trial": 147, "trialdata": {"rt": -1, "trial_type": "single-stim", "stimulus": "<p id=\"stim\">9</p>", "internal_node_id": "0.0-110.0-1.0", "time_elapsed": 842760, "key_press": -1, "trial_index": 147}, "uniqueid": "MTK1725:37ZHEEHM6XTEF7KTDK2WD8SZGRP73O", "dateTime": 1516134046610}, {"current_trial": 148, "trialdata": {"rt": -1, "trial_type": "single-stim", "stimulus": "<p id=\"stim\">8</p>", "internal_node_id": "0.0-110.0-2.0", "time_elapsed": 843761, "key_press": -1, "trial_index": 148}, "uniqueid": "MTK1725:37ZHEEHM6XTEF7KTDK2WD8SZGRP73O", "dateTime": 1516134047611}, {"current_trial": 149, "trialdata": {"rt": -1, "trial_type": "single-stim", "stimulus": "<p id=\"stim\">7</p>", "internal_node_id": "0.0-110.0-3.0", "time_elapsed": 844762, "key_press": -1, "trial_index": 149}, "uniqueid": "MTK1725:37ZHEEHM6XTEF7KTDK2WD8SZGRP73O", "dateTime": 1516134048612}, {"current_trial": 150, "trialdata": {"rt": -1, "trial_type": "single-stim", "stimulus": "<p id=\"stim\">6</p>", "internal_node_id": "0.0-110.0-4.0", "time_elapsed": 845763, "key_press": -1, "trial_index": 150}, "uniqueid": "MTK1725:37ZHEEHM6XTEF7KTDK2WD8SZGRP73O", "dateTime": 1516134049613}, {"current_trial": 151, "trialdata": {"rt": -1, "trial_type": "single-stim", "stimulus": "<p id=\"stim\">5</p>", "internal_node_id": "0.0-110.0-5.0", "time_elapsed": 846764, "key_press": -1, "trial_index": 151}, "uniqueid": "MTK1725:37ZHEEHM6XTEF7KTDK2WD8SZGRP73O", "dateTime": 1516134050614}, {"current_trial": 152, "trialdata": {"rt": -1, "trial_type": "single-stim", "stimulus": "<p id=\"stim\">4</p>", "internal_node_id": "0.0-110.0-6.0", "time_elapsed": 847765, "key_press": -1, "trial_index": 152}, "uniqueid": "MTK1725:37ZHEEHM6XTEF7KTDK2WD8SZGRP73O", "dateTime": 1516134051615}, {"current_trial": 153, "trialdata": {"rt": -1, "trial_type": "single-stim", "stimulus": "<p id=\"stim\">3</p>", "internal_node_id": "0.0-110.0-7.0", "time_elapsed": 848766, "key_press": -1, "trial_index": 153}, "uniqueid": "MTK1725:37ZHEEHM6XTEF7KTDK2WD8SZGRP73O", "dateTime": 1516134052617}, {"current_trial": 154, "trialdata": {"rt": -1, "trial_type": "single-stim", "stimulus": "<p id=\"stim\">2</p>", "internal_node_id": "0.0-110.0-8.0", "time_elapsed": 849768, "key_press": -1, "trial_index": 154}, "uniqueid": "MTK1725:37ZHEEHM6XTEF7KTDK2WD8SZGRP73O", "dateTime": 1516134053618}, {"current_trial": 155, "trialdata": {"rt": -1, "trial_type": "single-stim", "stimulus": "<p id=\"stim\">1</p>", "internal_node_id": "0.0-110.0-9.0", "time_elapsed": 850769, "key_press": -1, "trial_index": 155}, "uniqueid": "MTK1725:37ZHEEHM6XTEF7KTDK2WD8SZGRP73O", "dateTime": 1516134054619}, {"current_trial": 156, "trialdata": {"rt": -1, "trial_type": "single-stim", "stimulus": "<p id=\"stim\">+</p>", "internal_node_id": "0.0-111.0-0.0", "time_elapsed": 852271, "key_press": -1, "type": "FIXATION", "trial_index": 156}, "uniqueid": "MTK1725:37ZHEEHM6XTEF7KTDK2WD8SZGRP73O", "dateTime": 1516134056121}, {"current_trial": 157, "trialdata": {"rt": -1, "trial_type": "single-stim", "word": "peanut", "stimulus": "<p id=\"stim\">PEANUT</p>", "conditions": [12, 800, "v", 12000], "internal_node_id": "0.0-112.0", "trial": 4, "time_elapsed": 853072, "serialpos": 0, "key_press": -1, "wordID": 1031, "type": "PRES_VIS", "trial_index": 157}, "uniqueid": "MTK1725:37ZHEEHM6XTEF7KTDK2WD8SZGRP73O", "dateTime": 1516134056922}, {"current_trial": 158, "trialdata": {"rt": -1, "trial_type": "single-stim", "word": "custard", "stimulus": "<p id=\"stim\">CUSTARD</p>", "conditions": [12, 800, "v", 12000], "internal_node_id": "0.0-113.0", "trial": 4, "time_elapsed": 855041, "serialpos": 1, "key_press": -1, "wordID": 428, "type": "PRES_VIS", "trial_index": 158}, "uniqueid": "MTK1725:37ZHEEHM6XTEF7KTDK2WD8SZGRP73O", "dateTime": 1516134058891}, {"current_trial": 159, "trialdata": {"rt": -1, "trial_type": "single-stim", "word": "motel", "stimulus": "<p id=\"stim\">MOTEL</p>", "conditions": [12, 800, "v", 12000], "internal_node_id": "0.0-114.0", "trial": 4, "time_elapsed": 856762, "serialpos": 2, "key_press": -1, "wordID": 918, "type": "PRES_VIS", "trial_index": 159}, "uniqueid": "MTK1725:37ZHEEHM6XTEF7KTDK2WD8SZGRP73O", "dateTime": 1516134060612}, {"current_trial": 160, "trialdata": {"rt": -1, "trial_type": "single-stim", "word": "coffee", "stimulus": "<p id=\"stim\">COFFEE</p>", "conditions": [12, 800, "v", 12000], "internal_node_id": "0.0-115.0", "trial": 4, "time_elapsed": 858762, "serialpos": 3, "key_press": -1, "wordID": 340, "type": "PRES_VIS", "trial_index": 160}, "uniqueid": "MTK1725:37ZHEEHM6XTEF7KTDK2WD8SZGRP73O", "dateTime": 1516134062612}, {"current_trial": 161, "trialdata": {"rt": -1, "trial_type": "single-stim", "word": "gangster", "stimulus": "<p id=\"stim\">GANGSTER</p>", "conditions": [12, 800, "v", 12000], "internal_node_id": "0.0-116.0", "trial": 4, "time_elapsed": 860418, "serialpos": 4, "key_press": -1, "wordID": 619, "type": "PRES_VIS", "trial_index": 161}, "uniqueid": "MTK1725:37ZHEEHM6XTEF7KTDK2WD8SZGRP73O", "dateTime": 1516134064268}, {"current_trial": 162, "trialdata": {"rt": -1, "trial_type": "single-stim", "word": "jelly", "stimulus": "<p id=\"stim\">JELLY</p>", "conditions": [12, 800, "v", 12000], "internal_node_id": "0.0-117.0", "trial": 4, "time_elapsed": 862302, "serialpos": 5, "key_press": -1, "wordID": 754, "type": "PRES_VIS", "trial_index": 162}, "uniqueid": "MTK1725:37ZHEEHM6XTEF7KTDK2WD8SZGRP73O", "dateTime": 1516134066152}, {"current_trial": 163, "trialdata": {"rt": -1, "trial_type": "single-stim", "word": "virus", "stimulus": "<p id=\"stim\">VIRUS</p>", "conditions": [12, 800, "v", 12000], "internal_node_id": "0.0-118.0", "trial": 4, "time_elapsed": 864052, "serialpos": 6, "key_press": -1, "wordID": 1571, "type": "PRES_VIS", "trial_index": 163}, "uniqueid": "MTK1725:37ZHEEHM6XTEF7KTDK2WD8SZGRP73O", "dateTime": 1516134067902}, {"current_trial": 164, "trialdata": {"rt": -1, "trial_type": "single-stim", "word": "bug", "stimulus": "<p id=\"stim\">BUG</p>", "conditions": [12, 800, "v", 12000], "internal_node_id": "0.0-119.0", "trial": 4, "time_elapsed": 865788, "serialpos": 7, "key_press": -1, "wordID": 186, "type": "PRES_VIS", "trial_index": 164}, "uniqueid": "MTK1725:37ZHEEHM6XTEF7KTDK2WD8SZGRP73O", "dateTime": 1516134069638}, {"current_trial": 165, "trialdata": {"rt": -1, "trial_type": "single-stim", "word": "smog", "stimulus": "<p id=\"stim\">SMOG</p>", "conditions": [12, 800, "v", 12000], "internal_node_id": "0.0-120.0", "trial": 4, "time_elapsed": 867529, "serialpos": 8, "key_press": -1, "wordID": 1329, "type": "PRES_VIS", "trial_index": 165}, "uniqueid": "MTK1725:37ZHEEHM6XTEF7KTDK2WD8SZGRP73O", "dateTime": 1516134071380}, {"current_trial": 166, "trialdata": {"rt": -1, "trial_type": "single-stim", "word": "salt", "stimulus": "<p id=\"stim\">SALT</p>", "conditions": [12, 800, "v", 12000], "internal_node_id": "0.0-121.0", "trial": 4, "time_elapsed": 869485, "serialpos": 9, "key_press": -1, "wordID": 1228, "type": "PRES_VIS", "trial_index": 166}, "uniqueid": "MTK1725:37ZHEEHM6XTEF7KTDK2WD8SZGRP73O", "dateTime": 1516134073335}, {"current_trial": 167, "trialdata": {"rt": -1, "trial_type": "single-stim", "word": "jury", "stimulus": "<p id=\"stim\">JURY</p>", "conditions": [12, 800, "v", 12000], "internal_node_id": "0.0-122.0", "trial": 4, "time_elapsed": 871291, "serialpos": 10, "key_press": -1, "wordID": 765, "type": "PRES_VIS", "trial_index": 167}, "uniqueid": "MTK1725:37ZHEEHM6XTEF7KTDK2WD8SZGRP73O", "dateTime": 1516134075141}, {"current_trial": 168, "trialdata": {"rt": -1, "trial_type": "single-stim", "word": "whiskers", "stimulus": "<p id=\"stim\">WHISKERS</p>", "conditions": [12, 800, "v", 12000], "internal_node_id": "0.0-123.0", "trial": 4, "time_elapsed": 873187, "serialpos": 11, "key_press": -1, "wordID": 1604, "type": "PRES_VIS", "trial_index": 168}, "uniqueid": "MTK1725:37ZHEEHM6XTEF7KTDK2WD8SZGRP73O", "dateTime": 1516134077037}, {"current_trial": 169, "trialdata": {"rt": -1, "trial_type": "single-stim", "stimulus": "", "internal_node_id": "0.0-124.0-0.0", "time_elapsed": 875675, "key_press": -1, "type": "PRE_RECALL_DELAY", "trial_index": 169}, "uniqueid": "MTK1725:37ZHEEHM6XTEF7KTDK2WD8SZGRP73O", "dateTime": 1516134079525}, {"current_trial": 170, "trialdata": {"rt": -1000, "trial_type": "single-audio", "stimulus": "/static/audio/400Hz.wav", "internal_node_id": "0.0-125.0", "time_elapsed": 876176, "key_press": -1, "type": "PRE_RECALL_ALERT", "trial_index": 170}, "uniqueid": "MTK1725:37ZHEEHM6XTEF7KTDK2WD8SZGRP73O", "dateTime": 1516134080027}, {"current_trial": 171, "trialdata": {"rt": [7223, 9471, 11351, 14903, 16814, 19159, 20423, 22399, 23558, 56182], "recwords": ["peanut", "custard", "coffee", "jelly", "virus", "bug", "salt", "jury", "whisker", "motel"], "key_times": [4807, 5023, 5175, 5359, 5591, 5695, 7223, 7727, 7943, 8135, 8255, 8479, 8527, 8823, 9471, 9959, 10103, 10223, 10383, 10655, 10815, 11351, 13911, 14151, 14271, 14423, 14671, 14903, 15615, 15783, 16047, 16215, 16375, 16814, 18647, 18807, 18975, 19159, 19727, 19983, 20095, 20199, 20423, 21151, 21447, 21663, 21863, 22399, 22807, 22895, 22991, 23127, 23255, 23351, 23415, 23558, 55271, 55487, 55639, 55751, 55894, 56182], "trial_type": "free-recall", "conditions": [12, 800, "v", 12000], "internal_node_id": "0.0-126.0-0.0", "key_presses": [80, 69, 65, 78, 85, 84, 13, 67, 85, 83, 84, 65, 82, 68, 13, 67, 79, 70, 70, 69, 69, 13, 74, 69, 76, 76, 89, 13, 86, 73, 82, 85, 83, 13, 66, 85, 71, 13, 83, 65, 76, 84, 13, 74, 85, 82, 89, 13, 87, 72, 73, 83, 75, 69, 82, 13, 77, 79, 84, 69, 76, 13], "trial": 4, "time_elapsed": 936181, "type": "FREE_RECALL", "trial_index": 171}, "uniqueid": "MTK1725:37ZHEEHM6XTEF7KTDK2WD8SZGRP73O", "dateTime": 1516134140036}, {"current_trial": 172, "trialdata": {"rt": 15101, "trial_type": "text", "internal_node_id": "0.0-127.0", "time_elapsed": 953289, "key_press": 32, "type": "INSTRUCTIONS", "trial_index": 172}, "uniqueid": "MTK1725:37ZHEEHM6XTEF7KTDK2WD8SZGRP73O", "dateTime": 1516134157139}, {"current_trial": 173, "trialdata": {"rt": [2548, 5045, 10956], "trial_type": "math-distractor", "key_times": [2029, 2213, 2548, 4453, 4653, 5045, 9149, 9677, 10956], "responses": ["20", "14", "24"], "num2": [9, 1, 9, 3], "num3": [9, 4, 7, 9], "conditions": [24, 800, "v", 12000], "internal_node_id": "0.0-128.0", "key_presses": [98, 96, 13, 97, 100, 13, 98, 100, 13], "trial": 5, "time_elapsed": 967293, "type": "DISTRACTOR", "trial_index": 173, "num1": [2, 9, 6, 5]}, "uniqueid": "MTK1725:37ZHEEHM6XTEF7KTDK2WD8SZGRP73O", "dateTime": 1516134171143}, {"current_trial": 174, "trialdata": {"rt": -1, "trial_type": "single-stim", "stimulus": "<p id=\"stim\">10</p>", "internal_node_id": "0.0-129.0-0.0", "time_elapsed": 970295, "key_press": -1, "trial_index": 174}, "uniqueid": "MTK1725:37ZHEEHM6XTEF7KTDK2WD8SZGRP73O", "dateTime": 1516134174145}, {"current_trial": 175, "trialdata": {"rt": -1, "trial_type": "single-stim", "stimulus": "<p id=\"stim\">9</p>", "internal_node_id": "0.0-129.0-1.0", "time_elapsed": 971296, "key_press": -1, "trial_index": 175}, "uniqueid": "MTK1725:37ZHEEHM6XTEF7KTDK2WD8SZGRP73O", "dateTime": 1516134175147}, {"current_trial": 176, "trialdata": {"rt": -1, "trial_type": "single-stim", "stimulus": "<p id=\"stim\">8</p>", "internal_node_id": "0.0-129.0-2.0", "time_elapsed": 972298, "key_press": -1, "trial_index": 176}, "uniqueid": "MTK1725:37ZHEEHM6XTEF7KTDK2WD8SZGRP73O", "dateTime": 1516134176148}, {"current_trial": 177, "trialdata": {"rt": -1, "trial_type": "single-stim", "stimulus": "<p id=\"stim\">7</p>", "internal_node_id": "0.0-129.0-3.0", "time_elapsed": 973300, "key_press": -1, "trial_index": 177}, "uniqueid": "MTK1725:37ZHEEHM6XTEF7KTDK2WD8SZGRP73O", "dateTime": 1516134177150}, {"current_trial": 178, "trialdata": {"rt": -1, "trial_type": "single-stim", "stimulus": "<p id=\"stim\">6</p>", "internal_node_id": "0.0-129.0-4.0", "time_elapsed": 974301, "key_press": -1, "trial_index": 178}, "uniqueid": "MTK1725:37ZHEEHM6XTEF7KTDK2WD8SZGRP73O", "dateTime": 1516134178151}, {"current_trial": 179, "trialdata": {"rt": -1, "trial_type": "single-stim", "stimulus": "<p id=\"stim\">5</p>", "internal_node_id": "0.0-129.0-5.0", "time_elapsed": 975302, "key_press": -1, "trial_index": 179}, "uniqueid": "MTK1725:37ZHEEHM6XTEF7KTDK2WD8SZGRP73O", "dateTime": 1516134179153}, {"current_trial": 180, "trialdata": {"rt": -1, "trial_type": "single-stim", "stimulus": "<p id=\"stim\">4</p>", "internal_node_id": "0.0-129.0-6.0", "time_elapsed": 976304, "key_press": -1, "trial_index": 180}, "uniqueid": "MTK1725:37ZHEEHM6XTEF7KTDK2WD8SZGRP73O", "dateTime": 1516134180154}, {"current_trial": 181, "trialdata": {"rt": -1, "trial_type": "single-stim", "stimulus": "<p id=\"stim\">3</p>", "internal_node_id": "0.0-129.0-7.0", "time_elapsed": 977305, "key_press": -1, "trial_index": 181}, "uniqueid": "MTK1725:37ZHEEHM6XTEF7KTDK2WD8SZGRP73O", "dateTime": 1516134181155}, {"current_trial": 182, "trialdata": {"rt": -1, "trial_type": "single-stim", "stimulus": "<p id=\"stim\">2</p>", "internal_node_id": "0.0-129.0-8.0", "time_elapsed": 978306, "key_press": -1, "trial_index": 182}, "uniqueid": "MTK1725:37ZHEEHM6XTEF7KTDK2WD8SZGRP73O", "dateTime": 1516134182156}, {"current_trial": 183, "trialdata": {"rt": -1, "trial_type": "single-stim", "stimulus": "<p id=\"stim\">1</p>", "internal_node_id": "0.0-129.0-9.0", "time_elapsed": 979307, "key_press": -1, "trial_index": 183}, "uniqueid": "MTK1725:37ZHEEHM6XTEF7KTDK2WD8SZGRP73O", "dateTime": 1516134183157}, {"current_trial": 184, "trialdata": {"rt": -1, "trial_type": "single-stim", "stimulus": "<p id=\"stim\">+</p>", "internal_node_id": "0.0-130.0-0.0", "time_elapsed": 980808, "key_press": -1, "type": "FIXATION", "trial_index": 184}, "uniqueid": "MTK1725:37ZHEEHM6XTEF7KTDK2WD8SZGRP73O", "dateTime": 1516134184658}, {"current_trial": 185, "trialdata": {"rt": -1, "trial_type": "single-stim", "word": "daughter", "stimulus": "<p id=\"stim\">DAUGHTER</p>", "conditions": [24, 800, "v", 12000], "internal_node_id": "0.0-131.0", "trial": 5, "time_elapsed": 981610, "serialpos": 0, "key_press": -1, "wordID": 441, "type": "PRES_VIS", "trial_index": 185}, "uniqueid": "MTK1725:37ZHEEHM6XTEF7KTDK2WD8SZGRP73O", "dateTime": 1516134185460}, {"current_trial": 186, "trialdata": {"rt": -1, "trial_type": "single-stim", "word": "cashier", "stimulus": "<p id=\"stim\">CASHIER</p>", "conditions": [24, 800, "v", 12000], "internal_node_id": "0.0-132.0", "trial": 5, "time_elapsed": 983442, "serialpos": 1, "key_press": -1, "wordID": 253, "type": "PRES_VIS", "trial_index": 186}, "uniqueid": "MTK1725:37ZHEEHM6XTEF7KTDK2WD8SZGRP73O", "dateTime": 1516134187292}, {"current_trial": 187, "trialdata": {"rt": -1, "trial_type": "single-stim", "word": "waitress", "stimulus": "<p id=\"stim\">WAITRESS</p>", "conditions": [24, 800, "v", 12000], "internal_node_id": "0.0-133.0", "trial": 5, "time_elapsed": 985332, "serialpos": 2, "key_press": -1, "wordID": 1580, "type": "PRES_VIS", "trial_index": 187}, "uniqueid": "MTK1725:37ZHEEHM6XTEF7KTDK2WD8SZGRP73O", "dateTime": 1516134189182}, {"current_trial": 188, "trialdata": {"rt": -1, "trial_type": "single-stim", "word": "icing", "stimulus": "<p id=\"stim\">ICING</p>", "conditions": [24, 800, "v", 12000], "internal_node_id": "0.0-134.0", "trial": 5, "time_elapsed": 987299, "serialpos": 3, "key_press": -1, "wordID": 731, "type": "PRES_VIS", "trial_index": 188}, "uniqueid": "MTK1725:37ZHEEHM6XTEF7KTDK2WD8SZGRP73O", "dateTime": 1516134191149}, {"current_trial": 189, "trialdata": {"rt": -1, "trial_type": "single-stim", "word": "infant", "stimulus": "<p id=\"stim\">INFANT</p>", "conditions": [24, 800, "v", 12000], "internal_node_id": "0.0-135.0", "trial": 5, "time_elapsed": 989069, "serialpos": 4, "key_press": -1, "wordID": 736, "type": "PRES_VIS", "trial_index": 189}, "uniqueid": "MTK1725:37ZHEEHM6XTEF7KTDK2WD8SZGRP73O", "dateTime": 1516134192919}, {"current_trial": 190, "trialdata": {"rt": -1, "trial_type": "single-stim", "word": "popcorn", "stimulus": "<p id=\"stim\">POPCORN</p>", "conditions": [24, 800, "v", 12000], "internal_node_id": "0.0-136.0", "trial": 5, "time_elapsed": 990881, "serialpos": 5, "key_press": -1, "wordID": 1103, "type": "PRES_VIS", "trial_index": 190}, "uniqueid": "MTK1725:37ZHEEHM6XTEF7KTDK2WD8SZGRP73O", "dateTime": 1516134194731}, {"current_trial": 191, "trialdata": {"rt": -1, "trial_type": "single-stim", "word": "student", "stimulus": "<p id=\"stim\">STUDENT</p>", "conditions": [24, 800, "v", 12000], "internal_node_id": "0.0-137.0", "trial": 5, "time_elapsed": 992873, "serialpos": 6, "key_press": -1, "wordID": 1394, "type": "PRES_VIS", "trial_index": 191}, "uniqueid": "MTK1725:37ZHEEHM6XTEF7KTDK2WD8SZGRP73O", "dateTime": 1516134196723}, {"current_trial": 192, "trialdata": {"rt": -1, "trial_type": "single-stim", "word": "princess", "stimulus": "<p id=\"stim\">PRINCESS</p>", "conditions": [24, 800, "v", 12000], "internal_node_id": "0.0-138.0", "trial": 5, "time_elapsed": 994727, "serialpos": 7, "key_press": -1, "wordID": 1124, "type": "PRES_VIS", "trial_index": 192}, "uniqueid": "MTK1725:37ZHEEHM6XTEF7KTDK2WD8SZGRP73O", "dateTime": 1516134198577}, {"current_trial": 193, "trialdata": {"rt": -1, "trial_type": "single-stim", "word": "banker", "stimulus": "<p id=\"stim\">BANKER</p>", "conditions": [24, 800, "v", 12000], "internal_node_id": "0.0-139.0", "trial": 5, "time_elapsed": 996617, "serialpos": 8, "key_press": -1, "wordID": 83, "type": "PRES_VIS", "trial_index": 193}, "uniqueid": "MTK1725:37ZHEEHM6XTEF7KTDK2WD8SZGRP73O", "dateTime": 1516134200467}, {"current_trial": 194, "trialdata": {"rt": -1, "trial_type": "single-stim", "word": "agent", "stimulus": "<p id=\"stim\">AGENT</p>", "conditions": [24, 800, "v", 12000], "internal_node_id": "0.0-140.0", "trial": 5, "time_elapsed": 998566, "serialpos": 9, "key_press": -1, "wordID": 9, "type": "PRES_VIS", "trial_index": 194}, "uniqueid": "MTK1725:37ZHEEHM6XTEF7KTDK2WD8SZGRP73O", "dateTime": 1516134202416}, {"current_trial": 195, "trialdata": {"rt": -1, "trial_type": "single-stim", "word": "queen", "stimulus": "<p id=\"stim\">QUEEN</p>", "conditions": [24, 800, "v", 12000], "internal_node_id": "0.0-141.0", "trial": 5, "time_elapsed": 1000202, "serialpos": 10, "key_press": -1, "wordID": 1148, "type": "PRES_VIS", "trial_index": 195}, "uniqueid": "MTK1725:37ZHEEHM6XTEF7KTDK2WD8SZGRP73O", "dateTime": 1516134204052}, {"current_trial": 196, "trialdata": {"rt": -1, "trial_type": "single-stim", "word": "lumber", "stimulus": "<p id=\"stim\">LUMBER</p>", "conditions": [24, 800, "v", 12000], "internal_node_id": "0.0-142.0", "trial": 5, "time_elapsed": 1001950, "serialpos": 11, "key_press": -1, "wordID": 847, "type": "PRES_VIS", "trial_index": 196}, "uniqueid": "MTK1725:37ZHEEHM6XTEF7KTDK2WD8SZGRP73O", "dateTime": 1516134205800}, {"current_trial": 197, "trialdata": {"rt": -1, "trial_type": "single-stim", "word": "cellar", "stimulus": "<p id=\"stim\">CELLAR</p>", "conditions": [24, 800, "v", 12000], "internal_node_id": "0.0-143.0", "trial": 5, "time_elapsed": 1003576, "serialpos": 12, "key_press": -1, "wordID": 266, "type": "PRES_VIS", "trial_index": 197}, "uniqueid": "MTK1725:37ZHEEHM6XTEF7KTDK2WD8SZGRP73O", "dateTime": 1516134207426}, {"current_trial": 198, "trialdata": {"rt": -1, "trial_type": "single-stim", "word": "creature", "stimulus": "<p id=\"stim\">CREATURE</p>", "conditions": [24, 800, "v", 12000], "internal_node_id": "0.0-144.0", "trial": 5, "time_elapsed": 1005264, "serialpos": 13, "key_press": -1, "wordID": 402, "type": "PRES_VIS", "trial_index": 198}, "uniqueid": "MTK1725:37ZHEEHM6XTEF7KTDK2WD8SZGRP73O", "dateTime": 1516134209114}, {"current_trial": 199, "trialdata": {"rt": -1, "trial_type": "single-stim", "word": "knife", "stimulus": "<p id=\"stim\">KNIFE</p>", "conditions": [24, 800, "v", 12000], "internal_node_id": "0.0-145.0", "trial": 5, "time_elapsed": 1007249, "serialpos": 14, "key_press": -1, "wordID": 784, "type": "PRES_VIS", "trial_index": 199}, "uniqueid": "MTK1725:37ZHEEHM6XTEF7KTDK2WD8SZGRP73O", "dateTime": 1516134211100}, {"current_trial": 200, "trialdata": {"rt": -1, "trial_type": "single-stim", "word": "twister", "stimulus": "<p id=\"stim\">TWISTER</p>", "conditions": [24, 800, "v", 12000], "internal_node_id": "0.0-146.0", "trial": 5, "time_elapsed": 1009025, "serialpos": 15, "key_press": -1, "wordID": 1529, "type": "PRES_VIS", "trial_index": 200}, "uniqueid": "MTK1725:37ZHEEHM6XTEF7KTDK2WD8SZGRP73O", "dateTime": 1516134212875}, {"current_trial": 201, "trialdata": {"rt": -1, "trial_type": "single-stim", "word": "basement", "stimulus": "<p id=\"stim\">BASEMENT</p>", "conditions": [24, 800, "v", 12000], "internal_node_id": "0.0-147.0", "trial": 5, "time_elapsed": 1010642, "serialpos": 16, "key_press": -1, "wordID": 93, "type": "PRES_VIS", "trial_index": 201}, "uniqueid": "MTK1725:37ZHEEHM6XTEF7KTDK2WD8SZGRP73O", "dateTime": 1516134214492}, {"current_trial": 202, "trialdata": {"rt": -1, "trial_type": "single-stim", "word": "uncle", "stimulus": "<p id=\"stim\">UNCLE</p>", "conditions": [24, 800, "v", 12000], "internal_node_id": "0.0-148.0", "trial": 5, "time_elapsed": 1012596, "serialpos": 17, "key_press": -1, "wordID": 1535, "type": "PRES_VIS", "trial_index": 202}, "uniqueid": "MTK1725:37ZHEEHM6XTEF7KTDK2WD8SZGRP73O", "dateTime": 1516134216446}, {"current_trial": 203, "trialdata": {"rt": -1, "trial_type": "single-stim", "word": "lady", "stimulus": "<p id=\"stim\">LADY</p>", "conditions": [24, 800, "v", 12000], "internal_node_id": "0.0-149.0", "trial": 5, "time_elapsed": 1014399, "serialpos": 18, "key_press": -1, "wordID": 793, "type": "PRES_VIS", "trial_index": 203}, "uniqueid": "MTK1725:37ZHEEHM6XTEF7KTDK2WD8SZGRP73O", "dateTime": 1516134218250}, {"current_trial": 204, "trialdata": {"rt": -1, "trial_type": "single-stim", "word": "wagon", "stimulus": "<p id=\"stim\">WAGON</p>", "conditions": [24, 800, "v", 12000], "internal_node_id": "0.0-150.0", "trial": 5, "time_elapsed": 1016308, "serialpos": 19, "key_press": -1, "wordID": 1577, "type": "PRES_VIS", "trial_index": 204}, "uniqueid": "MTK1725:37ZHEEHM6XTEF7KTDK2WD8SZGRP73O", "dateTime": 1516134220158}, {"current_trial": 205, "trialdata": {"rt": -1, "trial_type": "single-stim", "word": "bunny", "stimulus": "<p id=\"stim\">BUNNY</p>", "conditions": [24, 800, "v", 12000], "internal_node_id": "0.0-151.0", "trial": 5, "time_elapsed": 1018102, "serialpos": 20, "key_press": -1, "wordID": 197, "type": "PRES_VIS", "trial_index": 205}, "uniqueid": "MTK1725:37ZHEEHM6XTEF7KTDK2WD8SZGRP73O", "dateTime": 1516134221952}, {"current_trial": 206, "trialdata": {"rt": -1, "trial_type": "single-stim", "word": "mattress", "stimulus": "<p id=\"stim\">MATTRESS</p>", "conditions": [24, 800, "v", 12000], "internal_node_id": "0.0-152.0", "trial": 5, "time_elapsed": 1019954, "serialpos": 21, "key_press": -1, "wordID": 878, "type": "PRES_VIS", "trial_index": 206}, "uniqueid": "MTK1725:37ZHEEHM6XTEF7KTDK2WD8SZGRP73O", "dateTime": 1516134223804}, {"current_trial": 207, "trialdata": {"rt": -1, "trial_type": "single-stim", "word": "couch", "stimulus": "<p id=\"stim\">COUCH</p>", "conditions": [24, 800, "v", 12000], "internal_node_id": "0.0-153.0", "trial": 5, "time_elapsed": 1021929, "serialpos": 22, "key_press": -1, "wordID": 385, "type": "PRES_VIS", "trial_index": 207}, "uniqueid": "MTK1725:37ZHEEHM6XTEF7KTDK2WD8SZGRP73O", "dateTime": 1516134225779}, {"current_trial": 208, "trialdata": {"rt": -1, "trial_type": "single-stim", "word": "sponge", "stimulus": "<p id=\"stim\">SPONGE</p>", "conditions": [24, 800, "v", 12000], "internal_node_id": "0.0-154.0", "trial": 5, "time_elapsed": 1023660, "serialpos": 23, "key_press": -1, "wordID": 1354, "type": "PRES_VIS", "trial_index": 208}, "uniqueid": "MTK1725:37ZHEEHM6XTEF7KTDK2WD8SZGRP73O", "dateTime": 1516134227510}, {"current_trial": 209, "trialdata": {"rt": -1, "trial_type": "single-stim", "stimulus": "", "internal_node_id": "0.0-155.0-0.0", "time_elapsed": 1025881, "key_press": -1, "type": "PRE_RECALL_DELAY", "trial_index": 209}, "uniqueid": "MTK1725:37ZHEEHM6XTEF7KTDK2WD8SZGRP73O", "dateTime": 1516134229732}, {"current_trial": 210, "trialdata": {"rt": -1000, "trial_type": "single-audio", "stimulus": "/static/audio/400Hz.wav", "internal_node_id": "0.0-156.0", "time_elapsed": 1026383, "key_press": -1, "type": "PRE_RECALL_ALERT", "trial_index": 210}, "uniqueid": "MTK1725:37ZHEEHM6XTEF7KTDK2WD8SZGRP73O", "dateTime": 1516134230233}, {"current_trial": 211, "trialdata": {"rt": [12464, 16136, 17728, 19392, 23816, 26960, 30280, 35320, 36999, 43103, 45751, 47887, 51175, 55207, 57407], "recwords": ["daughter", "cashier", "icing", "infant", "popcorn", "princess", "queen", "agent", "cellar", "knife", "uncle", "lady", "bunny", "couch", "sponge"], "key_times": [2857, 3104, 3240, 3377, 3520, 4496, 4720, 4808, 12464, 14609, 14856, 15488, 15616, 15704, 15840, 15920, 16136, 16592, 16752, 16864, 16992, 17144, 17728, 18608, 18720, 18800, 18968, 19080, 19176, 19392, 22448, 22664, 22816, 23088, 23192, 23400, 23512, 23816, 25592, 25776, 25888, 26056, 26192, 26321, 26536, 26704, 26960, 29496, 29632, 29768, 29936, 30032, 30280, 32760, 32968, 33144, 33256, 33336, 35320, 35912, 36072, 36184, 36344, 36488, 36607, 36999, 41664, 41840, 41959, 42039, 42231, 43103, 44159, 44400, 45215, 45319, 45487, 45751, 47048, 47247, 47471, 47631, 47887, 50191, 50303, 50528, 50655, 50919, 51175, 54552, 54631, 54743, 54879, 54983, 55207, 56135, 56223, 56327, 56471, 56599, 56743, 57407], "trial_type": "free-recall", "conditions": [24, 800, "v", 12000], "internal_node_id": "0.0-157.0-0.0", "key_presses": [68, 65, 85, 71, 72, 84, 69, 82, 13, 67, 65, 83, 72, 73, 69, 82, 13, 73, 67, 73, 78, 71, 13, 73, 78, 70, 65, 78, 84, 13, 80, 79, 80, 67, 79, 82, 78, 13, 80, 82, 73, 78, 67, 69, 83, 83, 13, 81, 85, 69, 69, 78, 13, 65, 71, 69, 78, 84, 13, 67, 69, 76, 76, 65, 82, 13, 75, 78, 73, 70, 69, 13, 85, 78, 67, 76, 69, 13, 76, 65, 68, 89, 13, 66, 85, 78, 78, 89, 13, 67, 79, 85, 67, 72, 13, 83, 80, 79, 78, 71, 69, 13], "trial": 5, "time_elapsed": 1086384, "type": "FREE_RECALL", "trial_index": 211}, "uniqueid": "MTK1725:37ZHEEHM6XTEF7KTDK2WD8SZGRP73O", "dateTime": 1516134290238}, {"current_trial": 212, "trialdata": {"rt": 5769, "trial_type": "text", "internal_node_id": "0.0-158.0", "time_elapsed": 1094159, "key_press": 13, "type": "INSTRUCTIONS", "trial_index": 212}, "uniqueid": "MTK1725:37ZHEEHM6XTEF7KTDK2WD8SZGRP73O", "dateTime": 1516134298009}, {"current_trial": 213, "trialdata": {"rt": [2486, 4334, 7126, 11950, 14374, 19374, 21998], "trial_type": "math-distractor", "key_times": [2022, 2254, 2486, 3870, 4102, 4334, 6534, 6822, 7126, 11502, 11678, 11950, 14070, 14374, 19030, 19374, 21430, 21622, 21998, 23886], "responses": ["13", "13", "17", "20", "9", "8", "10"], "num2": [4, 6, 4, 7, 1, 2, 6, 2], "num3": [3, 2, 7, 4, 1, 3, 1, 4], "conditions": [24, 800, "v", 24000], "internal_node_id": "0.0-159.0", "key_presses": [97, 99, 13, 97, 99, 13, 97, 103, 13, 98, 96, 13, 105, 13, 104, 13, 97, 96, 13, 103], "trial": 6, "time_elapsed": 1120163, "type": "DISTRACTOR", "trial_index": 213, "num1": [6, 5, 6, 9, 7, 3, 3, 1]}, "uniqueid": "MTK1725:37ZHEEHM6XTEF7KTDK2WD8SZGRP73O", "dateTime": 1516134324013}, {"current_trial": 214, "trialdata": {"rt": -1, "trial_type": "single-stim", "stimulus": "<p id=\"stim\">10</p>", "internal_node_id": "0.0-160.0-0.0", "time_elapsed": 1123165, "key_press": -1, "trial_index": 214}, "uniqueid": "MTK1725:37ZHEEHM6XTEF7KTDK2WD8SZGRP73O", "dateTime": 1516134327015}, {"current_trial": 215, "trialdata": {"rt": -1, "trial_type": "single-stim", "stimulus": "<p id=\"stim\">9</p>", "internal_node_id": "0.0-160.0-1.0", "time_elapsed": 1124167, "key_press": -1, "trial_index": 215}, "uniqueid": "MTK1725:37ZHEEHM6XTEF7KTDK2WD8SZGRP73O", "dateTime": 1516134328017}, {"current_trial": 216, "trialdata": {"rt": -1, "trial_type": "single-stim", "stimulus": "<p id=\"stim\">8</p>", "internal_node_id": "0.0-160.0-2.0", "time_elapsed": 1125168, "key_press": -1, "trial_index": 216}, "uniqueid": "MTK1725:37ZHEEHM6XTEF7KTDK2WD8SZGRP73O", "dateTime": 1516134329018}, {"current_trial": 217, "trialdata": {"rt": -1, "trial_type": "single-stim", "stimulus": "<p id=\"stim\">7</p>", "internal_node_id": "0.0-160.0-3.0", "time_elapsed": 1126169, "key_press": -1, "trial_index": 217}, "uniqueid": "MTK1725:37ZHEEHM6XTEF7KTDK2WD8SZGRP73O", "dateTime": 1516134330019}, {"current_trial": 218, "trialdata": {"rt": -1, "trial_type": "single-stim", "stimulus": "<p id=\"stim\">6</p>", "internal_node_id": "0.0-160.0-4.0", "time_elapsed": 1127170, "key_press": -1, "trial_index": 218}, "uniqueid": "MTK1725:37ZHEEHM6XTEF7KTDK2WD8SZGRP73O", "dateTime": 1516134331020}, {"current_trial": 219, "trialdata": {"rt": -1, "trial_type": "single-stim", "stimulus": "<p id=\"stim\">5</p>", "internal_node_id": "0.0-160.0-5.0", "time_elapsed": 1128171, "key_press": -1, "trial_index": 219}, "uniqueid": "MTK1725:37ZHEEHM6XTEF7KTDK2WD8SZGRP73O", "dateTime": 1516134332021}, {"current_trial": 220, "trialdata": {"rt": -1, "trial_type": "single-stim", "stimulus": "<p id=\"stim\">4</p>", "internal_node_id": "0.0-160.0-6.0", "time_elapsed": 1129172, "key_press": -1, "trial_index": 220}, "uniqueid": "MTK1725:37ZHEEHM6XTEF7KTDK2WD8SZGRP73O", "dateTime": 1516134333022}, {"current_trial": 221, "trialdata": {"rt": -1, "trial_type": "single-stim", "stimulus": "<p id=\"stim\">3</p>", "internal_node_id": "0.0-160.0-7.0", "time_elapsed": 1130174, "key_press": -1, "trial_index": 221}, "uniqueid": "MTK1725:37ZHEEHM6XTEF7KTDK2WD8SZGRP73O", "dateTime": 1516134334024}, {"current_trial": 222, "trialdata": {"rt": -1, "trial_type": "single-stim", "stimulus": "<p id=\"stim\">2</p>", "internal_node_id": "0.0-160.0-8.0", "time_elapsed": 1131175, "key_press": -1, "trial_index": 222}, "uniqueid": "MTK1725:37ZHEEHM6XTEF7KTDK2WD8SZGRP73O", "dateTime": 1516134335025}, {"current_trial": 223, "trialdata": {"rt": -1, "trial_type": "single-stim", "stimulus": "<p id=\"stim\">1</p>", "internal_node_id": "0.0-160.0-9.0", "time_elapsed": 1132176, "key_press": -1, "trial_index": 223}, "uniqueid": "MTK1725:37ZHEEHM6XTEF7KTDK2WD8SZGRP73O", "dateTime": 1516134336026}, {"current_trial": 224, "trialdata": {"rt": -1, "trial_type": "single-stim", "stimulus": "<p id=\"stim\">+</p>", "internal_node_id": "0.0-161.0-0.0", "time_elapsed": 1133677, "key_press": -1, "type": "FIXATION", "trial_index": 224}, "uniqueid": "MTK1725:37ZHEEHM6XTEF7KTDK2WD8SZGRP73O", "dateTime": 1516134337527}, {"current_trial": 225, "trialdata": {"rt": -1, "trial_type": "single-stim", "word": "shirt", "stimulus": "<p id=\"stim\">SHIRT</p>", "conditions": [24, 800, "v", 24000], "internal_node_id": "0.0-162.0", "trial": 6, "time_elapsed": 1134479, "serialpos": 0, "key_press": -1, "wordID": 1286, "type": "PRES_VIS", "trial_index": 225}, "uniqueid": "MTK1725:37ZHEEHM6XTEF7KTDK2WD8SZGRP73O", "dateTime": 1516134338329}, {"current_trial": 226, "trialdata": {"rt": -1, "trial_type": "single-stim", "word": "donkey", "stimulus": "<p id=\"stim\">DONKEY</p>", "conditions": [24, 800, "v", 24000], "internal_node_id": "0.0-163.0", "trial": 6, "time_elapsed": 1136129, "serialpos": 1, "key_press": -1, "wordID": 483, "type": "PRES_VIS", "trial_index": 226}, "uniqueid": "MTK1725:37ZHEEHM6XTEF7KTDK2WD8SZGRP73O", "dateTime": 1516134339980}, {"current_trial": 227, "trialdata": {"rt": -1, "trial_type": "single-stim", "word": "camel", "stimulus": "<p id=\"stim\">CAMEL</p>", "conditions": [24, 800, "v", 24000], "internal_node_id": "0.0-164.0", "trial": 6, "time_elapsed": 1137812, "serialpos": 2, "key_press": -1, "wordID": 222, "type": "PRES_VIS", "trial_index": 227}, "uniqueid": "MTK1725:37ZHEEHM6XTEF7KTDK2WD8SZGRP73O", "dateTime": 1516134341662}, {"current_trial": 228, "trialdata": {"rt": -1, "trial_type": "single-stim", "word": "fragrance", "stimulus": "<p id=\"stim\">FRAGRANCE</p>", "conditions": [24, 800, "v", 24000], "internal_node_id": "0.0-165.0", "trial": 6, "time_elapsed": 1139565, "serialpos": 3, "key_press": -1, "wordID": 598, "type": "PRES_VIS", "trial_index": 228}, "uniqueid": "MTK1725:37ZHEEHM6XTEF7KTDK2WD8SZGRP73O", "dateTime": 1516134343415}, {"current_trial": 229, "trialdata": {"rt": -1, "trial_type": "single-stim", "word": "dress", "stimulus": "<p id=\"stim\">DRESS</p>", "conditions": [24, 800, "v", 24000], "internal_node_id": "0.0-166.0", "trial": 6, "time_elapsed": 1141375, "serialpos": 4, "key_press": -1, "wordID": 494, "type": "PRES_VIS", "trial_index": 229}, "uniqueid": "MTK1725:37ZHEEHM6XTEF7KTDK2WD8SZGRP73O", "dateTime": 1516134345225}, {"current_trial": 230, "trialdata": {"rt": -1, "trial_type": "single-stim", "word": "wrist", "stimulus": "<p id=\"stim\">WRIST</p>", "conditions": [24, 800, "v", 24000], "internal_node_id": "0.0-167.0", "trial": 6, "time_elapsed": 1143140, "serialpos": 5, "key_press": -1, "wordID": 1625, "type": "PRES_VIS", "trial_index": 230}, "uniqueid": "MTK1725:37ZHEEHM6XTEF7KTDK2WD8SZGRP73O", "dateTime": 1516134346990}, {"current_trial": 231, "trialdata": {"rt": -1, "trial_type": "single-stim", "word": "army", "stimulus": "<p id=\"stim\">ARMY</p>", "conditions": [24, 800, "v", 24000], "internal_node_id": "0.0-168.0", "trial": 6, "time_elapsed": 1144985, "serialpos": 6, "key_press": -1, "wordID": 38, "type": "PRES_VIS", "trial_index": 231}, "uniqueid": "MTK1725:37ZHEEHM6XTEF7KTDK2WD8SZGRP73O", "dateTime": 1516134348835}, {"current_trial": 232, "trialdata": {"rt": -1, "trial_type": "single-stim", "word": "wardrobe", "stimulus": "<p id=\"stim\">WARDROBE</p>", "conditions": [24, 800, "v", 24000], "internal_node_id": "0.0-169.0", "trial": 6, "time_elapsed": 1146906, "serialpos": 7, "key_press": -1, "wordID": 1586, "type": "PRES_VIS", "trial_index": 232}, "uniqueid": "MTK1725:37ZHEEHM6XTEF7KTDK2WD8SZGRP73O", "dateTime": 1516134350757}, {"current_trial": 233, "trialdata": {"rt": -1, "trial_type": "single-stim", "word": "bathtub", "stimulus": "<p id=\"stim\">BATHTUB</p>", "conditions": [24, 800, "v", 24000], "internal_node_id": "0.0-170.0", "trial": 6, "time_elapsed": 1148842, "serialpos": 8, "key_press": -1, "wordID": 99, "type": "PRES_VIS", "trial_index": 233}, "uniqueid": "MTK1725:37ZHEEHM6XTEF7KTDK2WD8SZGRP73O", "dateTime": 1516134352692}, {"current_trial": 234, "trialdata": {"rt": -1, "trial_type": "single-stim", "word": "canyon", "stimulus": "<p id=\"stim\">CANYON</p>", "conditions": [24, 800, "v", 24000], "internal_node_id": "0.0-171.0", "trial": 6, "time_elapsed": 1150553, "serialpos": 9, "key_press": -1, "wordID": 234, "type": "PRES_VIS", "trial_index": 234}, "uniqueid": "MTK1725:37ZHEEHM6XTEF7KTDK2WD8SZGRP73O", "dateTime": 1516134354403}, {"current_trial": 235, "trialdata": {"rt": -1, "trial_type": "single-stim", "word": "sphinx", "stimulus": "<p id=\"stim\">SPHINX</p>", "conditions": [24, 800, "v", 24000], "internal_node_id": "0.0-172.0", "trial": 6, "time_elapsed": 1152319, "serialpos": 10, "key_press": -1, "wordID": 1348, "type": "PRES_VIS", "trial_index": 235}, "uniqueid": "MTK1725:37ZHEEHM6XTEF7KTDK2WD8SZGRP73O", "dateTime": 1516134356169}, {"current_trial": 236, "trialdata": {"rt": -1, "trial_type": "single-stim", "word": "item", "stimulus": "<p id=\"stim\">ITEM</p>", "conditions": [24, 800, "v", 24000], "internal_node_id": "0.0-173.0", "trial": 6, "time_elapsed": 1154200, "serialpos": 11, "key_press": -1, "wordID": 745, "type": "PRES_VIS", "trial_index": 236}, "uniqueid": "MTK1725:37ZHEEHM6XTEF7KTDK2WD8SZGRP73O", "dateTime": 1516134358050}, {"current_trial": 237, "trialdata": {"rt": -1, "trial_type": "single-stim", "word": "wasp", "stimulus": "<p id=\"stim\">WASP</p>", "conditions": [24, 800, "v", 24000], "internal_node_id": "0.0-174.0", "trial": 6, "time_elapsed": 1156126, "serialpos": 12, "key_press": -1, "wordID": 1592, "type": "PRES_VIS", "trial_index": 237}, "uniqueid": "MTK1725:37ZHEEHM6XTEF7KTDK2WD8SZGRP73O", "dateTime": 1516134359976}, {"current_trial": 238, "trialdata": {"rt": -1, "trial_type": "single-stim", "word": "pliers", "stimulus": "<p id=\"stim\">PLIERS</p>", "conditions": [24, 800, "v", 24000], "internal_node_id": "0.0-175.0", "trial": 6, "time_elapsed": 1158086, "serialpos": 13, "key_press": -1, "wordID": 1088, "type": "PRES_VIS", "trial_index": 238}, "uniqueid": "MTK1725:37ZHEEHM6XTEF7KTDK2WD8SZGRP73O", "dateTime": 1516134361937}, {"current_trial": 239, "trialdata": {"rt": -1, "trial_type": "single-stim", "word": "casket", "stimulus": "<p id=\"stim\">CASKET</p>", "conditions": [24, 800, "v", 24000], "internal_node_id": "0.0-176.0", "trial": 6, "time_elapsed": 1159961, "serialpos": 14, "key_press": -1, "wordID": 254, "type": "PRES_VIS", "trial_index": 239}, "uniqueid": "MTK1725:37ZHEEHM6XTEF7KTDK2WD8SZGRP73O", "dateTime": 1516134363811}, {"current_trial": 240, "trialdata": {"rt": -1, "trial_type": "single-stim", "word": "hornet", "stimulus": "<p id=\"stim\">HORNET</p>", "conditions": [24, 800, "v", 24000], "internal_node_id": "0.0-177.0", "trial": 6, "time_elapsed": 1161848, "serialpos": 15, "key_press": -1, "wordID": 717, "type": "PRES_VIS", "trial_index": 240}, "uniqueid": "MTK1725:37ZHEEHM6XTEF7KTDK2WD8SZGRP73O", "dateTime": 1516134365698}, {"current_trial": 241, "trialdata": {"rt": -1, "trial_type": "single-stim", "word": "marsh", "stimulus": "<p id=\"stim\">MARSH</p>", "conditions": [24, 800, "v", 24000], "internal_node_id": "0.0-178.0", "trial": 6, "time_elapsed": 1163639, "serialpos": 16, "key_press": -1, "wordID": 873, "type": "PRES_VIS", "trial_index": 241}, "uniqueid": "MTK1725:37ZHEEHM6XTEF7KTDK2WD8SZGRP73O", "dateTime": 1516134367489}, {"current_trial": 242, "trialdata": {"rt": -1, "trial_type": "single-stim", "word": "neutron", "stimulus": "<p id=\"stim\">NEUTRON</p>", "conditions": [24, 800, "v", 24000], "internal_node_id": "0.0-179.0", "trial": 6, "time_elapsed": 1165348, "serialpos": 17, "key_press": -1, "wordID": 946, "type": "PRES_VIS", "trial_index": 242}, "uniqueid": "MTK1725:37ZHEEHM6XTEF7KTDK2WD8SZGRP73O", "dateTime": 1516134369198}, {"current_trial": 243, "trialdata": {"rt": -1, "trial_type": "single-stim", "word": "iceberg", "stimulus": "<p id=\"stim\">ICEBERG</p>", "conditions": [24, 800, "v", 24000], "internal_node_id": "0.0-180.0", "trial": 6, "time_elapsed": 1167110, "serialpos": 18, "key_press": -1, "wordID": 730, "type": "PRES_VIS", "trial_index": 243}, "uniqueid": "MTK1725:37ZHEEHM6XTEF7KTDK2WD8SZGRP73O", "dateTime": 1516134370960}, {"current_trial": 244, "trialdata": {"rt": -1, "trial_type": "single-stim", "word": "brother", "stimulus": "<p id=\"stim\">BROTHER</p>", "conditions": [24, 800, "v", 24000], "internal_node_id": "0.0-181.0", "trial": 6, "time_elapsed": 1168926, "serialpos": 19, "key_press": -1, "wordID": 178, "type": "PRES_VIS", "trial_index": 244}, "uniqueid": "MTK1725:37ZHEEHM6XTEF7KTDK2WD8SZGRP73O", "dateTime": 1516134372776}, {"current_trial": 245, "trialdata": {"rt": -1, "trial_type": "single-stim", "word": "sandwich", "stimulus": "<p id=\"stim\">SANDWICH</p>", "conditions": [24, 800, "v", 24000], "internal_node_id": "0.0-182.0", "trial": 6, "time_elapsed": 1170788, "serialpos": 20, "key_press": -1, "wordID": 1231, "type": "PRES_VIS", "trial_index": 245}, "uniqueid": "MTK1725:37ZHEEHM6XTEF7KTDK2WD8SZGRP73O", "dateTime": 1516134374639}, {"current_trial": 246, "trialdata": {"rt": -1, "trial_type": "single-stim", "word": "salad", "stimulus": "<p id=\"stim\">SALAD</p>", "conditions": [24, 800, "v", 24000], "internal_node_id": "0.0-183.0", "trial": 6, "time_elapsed": 1172707, "serialpos": 21, "key_press": -1, "wordID": 1223, "type": "PRES_VIS", "trial_index": 246}, "uniqueid": "MTK1725:37ZHEEHM6XTEF7KTDK2WD8SZGRP73O", "dateTime": 1516134376558}, {"current_trial": 247, "trialdata": {"rt": -1, "trial_type": "single-stim", "word": "lipstick", "stimulus": "<p id=\"