{"condition": 0, "counterbalance": 2239, "assignmentId": "3TPZPLC3M1J3LDOT96WDDUJKDE3P34", "workerId": "MTK1058", "hitId": "3CIS7GGG65QH0WESPA71H7EWWA6EUQ", "currenttrial": 626, "bonus": 0, "data": [{"uniqueid": "MTK1058:3TPZPLC3M1J3LDOT96WDDUJKDE3P34", "current_trial": 0, "dateTime": 1513020923615, "trialdata": {"rt": 5211, "key_press": 13, "type": "INSTRUCTIONS", "trial_type": "text", "trial_index": 0, "time_elapsed": 5217, "internal_node_id": "0.0-0.0"}}, {"uniqueid": "MTK1058:3TPZPLC3M1J3LDOT96WDDUJKDE3P34", "current_trial": 1, "dateTime": 1513020938833, "trialdata": {"rt": 15217, "key_press": 13, "type": "INSTRUCTIONS", "trial_type": "text", "trial_index": 1, "time_elapsed": 20436, "internal_node_id": "0.0-1.0"}}, {"uniqueid": "MTK1058:3TPZPLC3M1J3LDOT96WDDUJKDE3P34", "current_trial": 2, "dateTime": 1513020944757, "trialdata": {"rt": [5904], "responses": ["ocean"], "type": "AUDIO_TEST", "trial_type": "audio-test", "trial_index": 2, "time_elapsed": 26359, "internal_node_id": "0.0-2.0"}}, {"uniqueid": "MTK1058:3TPZPLC3M1J3LDOT96WDDUJKDE3P34", "current_trial": 3, "dateTime": 1513020952436, "trialdata": {"rt": [7668], "responses": ["crystal"], "type": "AUDIO_TEST", "trial_type": "audio-test", "trial_index": 3, "time_elapsed": 34039, "internal_node_id": "0.0-3.0"}}, {"uniqueid": "MTK1058:3TPZPLC3M1J3LDOT96WDDUJKDE3P34", "current_trial": 4, "dateTime": 1513020960499, "trialdata": {"rt": [8053], "responses": ["spice"], "type": "AUDIO_TEST", "trial_type": "audio-test", "trial_index": 4, "time_elapsed": 42102, "internal_node_id": "0.0-4.0"}}, {"uniqueid": "MTK1058:3TPZPLC3M1J3LDOT96WDDUJKDE3P34", "current_trial": 5, "dateTime": 1513020977585, "trialdata": {"rt": 16333, "responses": "{\"Q0\":\"10:30\",\"Q1\":\"7:30\",\"Q2\":\"4\"}", "type": "SLEEP_SURVEY", "trial_type": "survey-text", "trial_index": 5, "time_elapsed": 59188, "internal_node_id": "0.0-5.0"}}, {"uniqueid": "MTK1058:3TPZPLC3M1J3LDOT96WDDUJKDE3P34", "current_trial": 6, "dateTime": 1513021014186, "trialdata": {"rt": 35592, "key_press": 13, "type": "INSTRUCTIONS", "trial_type": "text", "trial_index": 6, "time_elapsed": 95789, "internal_node_id": "0.0-6.0"}}, {"uniqueid": "MTK1058:3TPZPLC3M1J3LDOT96WDDUJKDE3P34", "current_trial": 7, "dateTime": 1513021029594, "trialdata": {"rt": 14906, "key_press": 13, "type": "INSTRUCTIONS", "trial_type": "text", "trial_index": 7, "time_elapsed": 111197, "internal_node_id": "0.0-7.0"}}, {"uniqueid": "MTK1058:3TPZPLC3M1J3LDOT96WDDUJKDE3P34", "current_trial": 8, "dateTime": 1513021048650, "trialdata": {"rt": 18548, "key_press": 13, "type": "INSTRUCTIONS", "trial_type": "text", "trial_index": 8, "time_elapsed": 130253, "internal_node_id": "0.0-8.0"}}, {"uniqueid": "MTK1058:3TPZPLC3M1J3LDOT96WDDUJKDE3P34", "current_trial": 9, "dateTime": 1513021067681, "trialdata": {"rt": [2221, 5142, 7727, 9515, 11340, 13269, 15277, 16902], "responses": ["14", "21", "22", "18", "16", "17", "19", "12"], "num1": [5, 3, 7, 9, 6, 4, 7, 3, 1], "num2": [4, 9, 8, 7, 9, 5, 8, 3, 8], "num3": [5, 9, 7, 2, 1, 8, 4, 6, 4], "type": "DISTRACTOR", "conditions": [18, 1200, "v", 18000], "trial": 0, "trial_type": "math-distractor", "trial_index": 9, "time_elapsed": 149284, "internal_node_id": "0.0-9.0"}}, {"uniqueid": "MTK1058:3TPZPLC3M1J3LDOT96WDDUJKDE3P34", "current_trial": 10, "dateTime": 1513021070698, "trialdata": {"rt": -1, "stimulus": "<p id=\"stim\">10</p>", "key_press": -1, "trial_type": "single-stim", "trial_index": 10, "time_elapsed": 152301, "internal_node_id": "0.0-10.0-0.0"}}, {"uniqueid": "MTK1058:3TPZPLC3M1J3LDOT96WDDUJKDE3P34", "current_trial": 11, "dateTime": 1513021071702, "trialdata": {"rt": -1, "stimulus": "<p id=\"stim\">9</p>", "key_press": -1, "trial_type": "single-stim", "trial_index": 11, "time_elapsed": 153305, "internal_node_id": "0.0-10.0-1.0"}}, {"uniqueid": "MTK1058:3TPZPLC3M1J3LDOT96WDDUJKDE3P34", "current_trial": 12, "dateTime": 1513021072707, "trialdata": {"rt": -1, "stimulus": "<p id=\"stim\">8</p>", "key_press": -1, "trial_type": "single-stim", "trial_index": 12, "time_elapsed": 154310, "internal_node_id": "0.0-10.0-2.0"}}, {"uniqueid": "MTK1058:3TPZPLC3M1J3LDOT96WDDUJKDE3P34", "current_trial": 13, "dateTime": 1513021073716, "trialdata": {"rt": -1, "stimulus": "<p id=\"stim\">7</p>", "key_press": -1, "trial_type": "single-stim", "trial_index": 13, "time_elapsed": 155315, "internal_node_id": "0.0-10.0-3.0"}}, {"uniqueid": "MTK1058:3TPZPLC3M1J3LDOT96WDDUJKDE3P34", "current_trial": 14, "dateTime": 1513021074720, "trialdata": {"rt": -1, "stimulus": "<p id=\"stim\">6</p>", "key_press": -1, "trial_type": "single-stim", "trial_index": 14, "time_elapsed": 156323, "internal_node_id": "0.0-10.0-4.0"}}, {"uniqueid": "MTK1058:3TPZPLC3M1J3LDOT96WDDUJKDE3P34", "current_trial": 15, "dateTime": 1513021075726, "trialdata": {"rt": -1, "stimulus": "<p id=\"stim\">5</p>", "key_press": -1, "trial_type": "single-stim", "trial_index": 15, "time_elapsed": 157329, "internal_node_id": "0.0-10.0-5.0"}}, {"uniqueid": "MTK1058:3TPZPLC3M1J3LDOT96WDDUJKDE3P34", "current_trial": 16, "dateTime": 1513021076730, "trialdata": {"rt": -1, "stimulus": "<p id=\"stim\">4</p>", "key_press": -1, "trial_type": "single-stim", "trial_index": 16, "time_elapsed": 158333, "internal_node_id": "0.0-10.0-6.0"}}, {"uniqueid": "MTK1058:3TPZPLC3M1J3LDOT96WDDUJKDE3P34", "current_trial": 17, "dateTime": 1513021077743, "trialdata": {"rt": -1, "stimulus": "<p id=\"stim\">3</p>", "key_press": -1, "trial_type": "single-stim", "trial_index": 17, "time_elapsed": 159346, "internal_node_id": "0.0-10.0-7.0"}}, {"uniqueid": "MTK1058:3TPZPLC3M1J3LDOT96WDDUJKDE3P34", "current_trial": 18, "dateTime": 1513021078747, "trialdata": {"rt": -1, "stimulus": "<p id=\"stim\">2</p>", "key_press": -1, "trial_type": "single-stim", "trial_index": 18, "time_elapsed": 160350, "internal_node_id": "0.0-10.0-8.0"}}, {"uniqueid": "MTK1058:3TPZPLC3M1J3LDOT96WDDUJKDE3P34", "current_trial": 19, "dateTime": 1513021079752, "trialdata": {"rt": -1, "stimulus": "<p id=\"stim\">1</p>", "key_press": -1, "trial_type": "single-stim", "trial_index": 19, "time_elapsed": 161355, "internal_node_id": "0.0-10.0-9.0"}}, {"uniqueid": "MTK1058:3TPZPLC3M1J3LDOT96WDDUJKDE3P34", "current_trial": 20, "dateTime": 1513021081272, "trialdata": {"rt": -1, "stimulus": "<p id=\"stim\">+</p>", "key_press": -1, "type": "FIXATION", "trial_type": "single-stim", "trial_index": 20, "time_elapsed": 162875, "internal_node_id": "0.0-11.0-0.0"}}, {"uniqueid": "MTK1058:3TPZPLC3M1J3LDOT96WDDUJKDE3P34", "current_trial": 21, "dateTime": 1513021082476, "trialdata": {"rt": -1, "stimulus": "<p id=\"stim\">ROBOT</p>", "key_press": -1, "type": "PRES_VIS", "word": "robot", "wordID": 1199, "conditions": [18, 1200, "v", 18000], "trial": 0, "serialpos": 0, "trial_type": "single-stim", "trial_index": 21, "time_elapsed": 164079, "internal_node_id": "0.0-12.0"}}, {"uniqueid": "MTK1058:3TPZPLC3M1J3LDOT96WDDUJKDE3P34", "current_trial": 22, "dateTime": 1513021084501, "trialdata": {"rt": -1, "stimulus": "<p id=\"stim\">PLAID</p>", "key_press": -1, "type": "PRES_VIS", "word": "plaid", "wordID": 1079, "conditions": [18, 1200, "v", 18000], "trial": 0, "serialpos": 1, "trial_type": "single-stim", "trial_index": 22, "time_elapsed": 166100, "internal_node_id": "0.0-13.0"}}, {"uniqueid": "MTK1058:3TPZPLC3M1J3LDOT96WDDUJKDE3P34", "current_trial": 23, "dateTime": 1513021086590, "trialdata": {"rt": -1, "stimulus": "<p id=\"stim\">HEART</p>", "key_press": -1, "type": "PRES_VIS", "word": "heart", "wordID": 696, "conditions": [18, 1200, "v", 18000], "trial": 0, "serialpos": 2, "trial_type": "single-stim", "trial_index": 23, "time_elapsed": 168189, "internal_node_id": "0.0-14.0"}}, {"uniqueid": "MTK1058:3TPZPLC3M1J3LDOT96WDDUJKDE3P34", "current_trial": 24, "dateTime": 1513021088940, "trialdata": {"rt": -1, "stimulus": "<p id=\"stim\">PUPPY</p>", "key_press": -1, "type": "PRES_VIS", "word": "puppy", "wordID": 1143, "conditions": [18, 1200, "v", 18000], "trial": 0, "serialpos": 3, "trial_type": "single-stim", "trial_index": 24, "time_elapsed": 170543, "internal_node_id": "0.0-15.0"}}, {"uniqueid": "MTK1058:3TPZPLC3M1J3LDOT96WDDUJKDE3P34", "current_trial": 25, "dateTime": 1513021091236, "trialdata": {"rt": -1, "stimulus": "<p id=\"stim\">INMATE</p>", "key_press": -1, "type": "PRES_VIS", "word": "inmate", "wordID": 737, "conditions": [18, 1200, "v", 18000], "trial": 0, "serialpos": 4, "trial_type": "single-stim", "trial_index": 25, "time_elapsed": 172839, "internal_node_id": "0.0-16.0"}}, {"uniqueid": "MTK1058:3TPZPLC3M1J3LDOT96WDDUJKDE3P34", "current_trial": 26, "dateTime": 1513021093561, "trialdata": {"rt": -1, "stimulus": "<p id=\"stim\">TURNIP</p>", "key_press": -1, "type": "PRES_VIS", "word": "turnip", "wordID": 1520, "conditions": [18, 1200, "v", 18000], "trial": 0, "serialpos": 5, "trial_type": "single-stim", "trial_index": 26, "time_elapsed": 175164, "internal_node_id": "0.0-17.0"}}, {"uniqueid": "MTK1058:3TPZPLC3M1J3LDOT96WDDUJKDE3P34", "current_trial": 27, "dateTime": 1513021095630, "trialdata": {"rt": -1, "stimulus": "<p id=\"stim\">BUCKET</p>", "key_press": -1, "type": "PRES_VIS", "word": "bucket", "wordID": 183, "conditions": [18, 1200, "v", 18000], "trial": 0, "serialpos": 6, "trial_type": "single-stim", "trial_index": 27, "time_elapsed": 177233, "internal_node_id": "0.0-18.0"}}, {"uniqueid": "MTK1058:3TPZPLC3M1J3LDOT96WDDUJKDE3P34", "current_trial": 28, "dateTime": 1513021098007, "trialdata": {"rt": -1, "stimulus": "<p id=\"stim\">ROBBER</p>", "key_press": -1, "type": "PRES_VIS", "word": "robber", "wordID": 1196, "conditions": [18, 1200, "v", 18000], "trial": 0, "serialpos": 7, "trial_type": "single-stim", "trial_index": 28, "time_elapsed": 179610, "internal_node_id": "0.0-19.0"}}, {"uniqueid": "MTK1058:3TPZPLC3M1J3LDOT96WDDUJKDE3P34", "current_trial": 29, "dateTime": 1513021100211, "trialdata": {"rt": -1, "stimulus": "<p id=\"stim\">SCISSORS</p>", "key_press": -1, "type": "PRES_VIS", "word": "scissors", "wordID": 1249, "conditions": [18, 1200, "v", 18000], "trial": 0, "serialpos": 8, "trial_type": "single-stim", "trial_index": 29, "time_elapsed": 181814, "internal_node_id": "0.0-20.0"}}, {"uniqueid": "MTK1058:3TPZPLC3M1J3LDOT96WDDUJKDE3P34", "current_trial": 30, "dateTime": 1513021102364, "trialdata": {"rt": -1, "stimulus": "<p id=\"stim\">EYELASH</p>", "key_press": -1, "type": "PRES_VIS", "word": "eyelash", "wordID": 545, "conditions": [18, 1200, "v", 18000], "trial": 0, "serialpos": 9, "trial_type": "single-stim", "trial_index": 30, "time_elapsed": 183967, "internal_node_id": "0.0-21.0"}}, {"uniqueid": "MTK1058:3TPZPLC3M1J3LDOT96WDDUJKDE3P34", "current_trial": 31, "dateTime": 1513021104405, "trialdata": {"rt": -1, "stimulus": "<p id=\"stim\">COMPASS</p>", "key_press": -1, "type": "PRES_VIS", "word": "compass", "wordID": 357, "conditions": [18, 1200, "v", 18000], "trial": 0, "serialpos": 10, "trial_type": "single-stim", "trial_index": 31, "time_elapsed": 186008, "internal_node_id": "0.0-22.0"}}, {"uniqueid": "MTK1058:3TPZPLC3M1J3LDOT96WDDUJKDE3P34", "current_trial": 32, "dateTime": 1513021106553, "trialdata": {"rt": -1, "stimulus": "<p id=\"stim\">STALLION</p>", "key_press": -1, "type": "PRES_VIS", "word": "stallion", "wordID": 1368, "conditions": [18, 1200, "v", 18000], "trial": 0, "serialpos": 11, "trial_type": "single-stim", "trial_index": 32, "time_elapsed": 188156, "internal_node_id": "0.0-23.0"}}, {"uniqueid": "MTK1058:3TPZPLC3M1J3LDOT96WDDUJKDE3P34", "current_trial": 33, "dateTime": 1513021108838, "trialdata": {"rt": -1, "stimulus": "<p id=\"stim\">HAMPER</p>", "key_press": -1, "type": "PRES_VIS", "word": "hamper", "wordID": 681, "conditions": [18, 1200, "v", 18000], "trial": 0, "serialpos": 12, "trial_type": "single-stim", "trial_index": 33, "time_elapsed": 190441, "internal_node_id": "0.0-24.0"}}, {"uniqueid": "MTK1058:3TPZPLC3M1J3LDOT96WDDUJKDE3P34", "current_trial": 34, "dateTime": 1513021111239, "trialdata": {"rt": -1, "stimulus": "<p id=\"stim\">RECEIPT</p>", "key_press": -1, "type": "PRES_VIS", "word": "receipt", "wordID": 1172, "conditions": [18, 1200, "v", 18000], "trial": 0, "serialpos": 13, "trial_type": "single-stim", "trial_index": 34, "time_elapsed": 192842, "internal_node_id": "0.0-25.0"}}, {"uniqueid": "MTK1058:3TPZPLC3M1J3LDOT96WDDUJKDE3P34", "current_trial": 35, "dateTime": 1513021113627, "trialdata": {"rt": -1, "stimulus": "<p id=\"stim\">KLEENEX</p>", "key_press": -1, "type": "PRES_VIS", "word": "kleenex", "wordID": 781, "conditions": [18, 1200, "v", 18000], "trial": 0, "serialpos": 14, "trial_type": "single-stim", "trial_index": 35, "time_elapsed": 195230, "internal_node_id": "0.0-26.0"}}, {"uniqueid": "MTK1058:3TPZPLC3M1J3LDOT96WDDUJKDE3P34", "current_trial": 36, "dateTime": 1513021115748, "trialdata": {"rt": -1, "stimulus": "<p id=\"stim\">POLICE</p>", "key_press": -1, "type": "PRES_VIS", "word": "police", "wordID": 1097, "conditions": [18, 1200, "v", 18000], "trial": 0, "serialpos": 15, "trial_type": "single-stim", "trial_index": 36, "time_elapsed": 197351, "internal_node_id": "0.0-27.0"}}, {"uniqueid": "MTK1058:3TPZPLC3M1J3LDOT96WDDUJKDE3P34", "current_trial": 37, "dateTime": 1513021118137, "trialdata": {"rt": -1, "stimulus": "<p id=\"stim\">CUPBOARD</p>", "key_press": -1, "type": "PRES_VIS", "word": "cupboard", "wordID": 424, "conditions": [18, 1200, "v", 18000], "trial": 0, "serialpos": 16, "trial_type": "single-stim", "trial_index": 37, "time_elapsed": 199740, "internal_node_id": "0.0-28.0"}}, {"uniqueid": "MTK1058:3TPZPLC3M1J3LDOT96WDDUJKDE3P34", "current_trial": 38, "dateTime": 1513021120262, "trialdata": {"rt": -1, "stimulus": "<p id=\"stim\">JAPAN</p>", "key_press": -1, "type": "PRES_VIS", "word": "japan", "wordID": 748, "conditions": [18, 1200, "v", 18000], "trial": 0, "serialpos": 17, "trial_type": "single-stim", "trial_index": 38, "time_elapsed": 201865, "internal_node_id": "0.0-29.0"}}, {"uniqueid": "MTK1058:3TPZPLC3M1J3LDOT96WDDUJKDE3P34", "current_trial": 39, "dateTime": 1513021122845, "trialdata": {"rt": -1, "stimulus": "", "key_press": -1, "type": "PRE_RECALL_DELAY", "trial_type": "single-stim", "trial_index": 39, "time_elapsed": 204448, "internal_node_id": "0.0-30.0-0.0"}}, {"uniqueid": "MTK1058:3TPZPLC3M1J3LDOT96WDDUJKDE3P34", "current_trial": 40, "dateTime": 1513021123352, "trialdata": {"rt": -1000, "stimulus": "/static/audio/400Hz.wav", "key_press": -1, "type": "PRE_RECALL_ALERT", "trial_type": "single-audio", "trial_index": 40, "time_elapsed": 204955, "internal_node_id": "0.0-31.0"}}, {"uniqueid": "MTK1058:3TPZPLC3M1J3LDOT96WDDUJKDE3P34", "current_trial": 41, "dateTime": 1513021183382, "trialdata": {"rt": [3726, 5854, 8207, 9774, 11838, 17808, 21327, 46279, 47007, 47543, 47743, 47927, 51861, 52217, 55177, 57582, 58050, 58891], "recwords": ["japan", "police", "cupboard", "puppy", "basket", "receipt", "scissors", "", "", "", "", "", "i", "do", "i", "i", "do", "not"], "type": "FREE_RECALL", "conditions": [18, 1200, "v", 18000], "trial": 0, "trial_type": "free-recall", "trial_index": 41, "time_elapsed": 264969, "internal_node_id": "0.0-32.0-0.0"}}, {"uniqueid": "MTK1058:3TPZPLC3M1J3LDOT96WDDUJKDE3P34", "current_trial": 42, "dateTime": 1513021187139, "trialdata": {"rt": 1748, "key_press": 13, "type": "INSTRUCTIONS", "trial_type": "text", "trial_index": 42, "time_elapsed": 268738, "internal_node_id": "0.0-33.0"}}, {"uniqueid": "MTK1058:3TPZPLC3M1J3LDOT96WDDUJKDE3P34", "current_trial": 43, "dateTime": 1513021207153, "trialdata": {"rt": [2268, 4478, 5986, 7922, 9719, 11243, 17770], "responses": ["19", "10", "16", "17", "11", "14", "25"], "num1": [9, 1, 8, 7, 2, 1, 9, 6], "num2": [9, 7, 2, 9, 2, 8, 8, 5], "num3": [1, 2, 6, 1, 7, 5, 8, 2], "type": "DISTRACTOR", "conditions": [18, 1200, "a", 18000], "trial": 1, "trial_type": "math-distractor", "trial_index": 43, "time_elapsed": 288756, "internal_node_id": "0.0-34.0"}}, {"uniqueid": "MTK1058:3TPZPLC3M1J3LDOT96WDDUJKDE3P34", "current_trial": 44, "dateTime": 1513021210162, "trialdata": {"rt": -1, "stimulus": "<p id=\"stim\">10</p>", "key_press": -1, "trial_type": "single-stim", "trial_index": 44, "time_elapsed": 291765, "internal_node_id": "0.0-35.0-0.0"}}, {"uniqueid": "MTK1058:3TPZPLC3M1J3LDOT96WDDUJKDE3P34", "current_trial": 45, "dateTime": 1513021211170, "trialdata": {"rt": -1, "stimulus": "<p id=\"stim\">9</p>", "key_press": -1, "trial_type": "single-stim", "trial_index": 45, "time_elapsed": 292773, "internal_node_id": "0.0-35.0-1.0"}}, {"uniqueid": "MTK1058:3TPZPLC3M1J3LDOT96WDDUJKDE3P34", "current_trial": 46, "dateTime": 1513021212174, "trialdata": {"rt": -1, "stimulus": "<p id=\"stim\">8</p>", "key_press": -1, "trial_type": "single-stim", "trial_index": 46, "time_elapsed": 293777, "internal_node_id": "0.0-35.0-2.0"}}, {"uniqueid": "MTK1058:3TPZPLC3M1J3LDOT96WDDUJKDE3P34", "current_trial": 47, "dateTime": 1513021213179, "trialdata": {"rt": -1, "stimulus": "<p id=\"stim\">7</p>", "key_press": -1, "trial_type": "single-stim", "trial_index": 47, "time_elapsed": 294782, "internal_node_id": "0.0-35.0-3.0"}}, {"uniqueid": "MTK1058:3TPZPLC3M1J3LDOT96WDDUJKDE3P34", "current_trial": 48, "dateTime": 1513021214187, "trialdata": {"rt": -1, "stimulus": "<p id=\"stim\">6</p>", "key_press": -1, "trial_type": "single-stim", "trial_index": 48, "time_elapsed": 295786, "internal_node_id": "0.0-35.0-4.0"}}, {"uniqueid": "MTK1058:3TPZPLC3M1J3LDOT96WDDUJKDE3P34", "current_trial": 49, "dateTime": 1513021215191, "trialdata": {"rt": -1, "stimulus": "<p id=\"stim\">5</p>", "key_press": -1, "trial_type": "single-stim", "trial_index": 49, "time_elapsed": 296794, "internal_node_id": "0.0-35.0-5.0"}}, {"uniqueid": "MTK1058:3TPZPLC3M1J3LDOT96WDDUJKDE3P34", "current_trial": 50, "dateTime": 1513021216196, "trialdata": {"rt": -1, "stimulus": "<p id=\"stim\">4</p>", "key_press": -1, "trial_type": "single-stim", "trial_index": 50, "time_elapsed": 297799, "internal_node_id": "0.0-35.0-6.0"}}, {"uniqueid": "MTK1058:3TPZPLC3M1J3LDOT96WDDUJKDE3P34", "current_trial": 51, "dateTime": 1513021217200, "trialdata": {"rt": -1, "stimulus": "<p id=\"stim\">3</p>", "key_press": -1, "trial_type": "single-stim", "trial_index": 51, "time_elapsed": 298803, "internal_node_id": "0.0-35.0-7.0"}}, {"uniqueid": "MTK1058:3TPZPLC3M1J3LDOT96WDDUJKDE3P34", "current_trial": 52, "dateTime": 1513021218225, "trialdata": {"rt": -1, "stimulus": "<p id=\"stim\">2</p>", "key_press": -1, "trial_type": "single-stim", "trial_index": 52, "time_elapsed": 299828, "internal_node_id": "0.0-35.0-8.0"}}, {"uniqueid": "MTK1058:3TPZPLC3M1J3LDOT96WDDUJKDE3P34", "current_trial": 53, "dateTime": 1513021219229, "trialdata": {"rt": -1, "stimulus": "<p id=\"stim\">1</p>", "key_press": -1, "trial_type": "single-stim", "trial_index": 53, "time_elapsed": 300832, "internal_node_id": "0.0-35.0-9.0"}}, {"uniqueid": "MTK1058:3TPZPLC3M1J3LDOT96WDDUJKDE3P34", "current_trial": 54, "dateTime": 1513021220737, "trialdata": {"rt": -1, "stimulus": "<p id=\"stim\">+</p>", "key_press": -1, "type": "FIXATION", "trial_type": "single-stim", "trial_index": 54, "time_elapsed": 302337, "internal_node_id": "0.0-36.0-0.0"}}, {"uniqueid": "MTK1058:3TPZPLC3M1J3LDOT96WDDUJKDE3P34", "current_trial": 55, "dateTime": 1513021222950, "trialdata": {"rt": -1000, "stimulus": "/static/audio/wordpool/SKIRT.wav", "key_press": -1, "type": "PRES_AUD", "word": "skirt", "wordID": 1318, "conditions": [18, 1200, "a", 18000], "trial": 1, "serialpos": 0, "trial_type": "single-audio", "trial_index": 55, "time_elapsed": 304553, "internal_node_id": "0.0-37.0"}}, {"uniqueid": "MTK1058:3TPZPLC3M1J3LDOT96WDDUJKDE3P34", "current_trial": 56, "dateTime": 1513021225058, "trialdata": {"rt": -1000, "stimulus": "/static/audio/wordpool/PARENT.wav", "key_press": -1, "type": "PRES_AUD", "word": "parent", "wordID": 1012, "conditions": [18, 1200, "a", 18000], "trial": 1, "serialpos": 1, "trial_type": "single-audio", "trial_index": 56, "time_elapsed": 306661, "internal_node_id": "0.0-38.0"}}, {"uniqueid": "MTK1058:3TPZPLC3M1J3LDOT96WDDUJKDE3P34", "current_trial": 57, "dateTime": 1513021227400, "trialdata": {"rt": -1000, "stimulus": "/static/audio/wordpool/JUNGLE.wav", "key_press": -1, "type": "PRES_AUD", "word": "jungle", "wordID": 763, "conditions": [18, 1200, "a", 18000], "trial": 1, "serialpos": 2, "trial_type": "single-audio", "trial_index": 57, "time_elapsed": 309003, "internal_node_id": "0.0-39.0"}}, {"uniqueid": "MTK1058:3TPZPLC3M1J3LDOT96WDDUJKDE3P34", "current_trial": 58, "dateTime": 1513021229575, "trialdata": {"rt": -1000, "stimulus": "/static/audio/wordpool/COUNTRY.wav", "key_press": -1, "type": "PRES_AUD", "word": "country", "wordID": 387, "conditions": [18, 1200, "a", 18000], "trial": 1, "serialpos": 3, "trial_type": "single-audio", "trial_index": 58, "time_elapsed": 311177, "internal_node_id": "0.0-40.0"}}, {"uniqueid": "MTK1058:3TPZPLC3M1J3LDOT96WDDUJKDE3P34", "current_trial": 59, "dateTime": 1513021231596, "trialdata": {"rt": -1000, "stimulus": "/static/audio/wordpool/PIGEON.wav", "key_press": -1, "type": "PRES_AUD", "word": "pigeon", "wordID": 1064, "conditions": [18, 1200, "a", 18000], "trial": 1, "serialpos": 4, "trial_type": "single-audio", "trial_index": 59, "time_elapsed": 313199, "internal_node_id": "0.0-41.0"}}, {"uniqueid": "MTK1058:3TPZPLC3M1J3LDOT96WDDUJKDE3P34", "current_trial": 60, "dateTime": 1513021233870, "trialdata": {"rt": -1000, "stimulus": "/static/audio/wordpool/FLUTE.wav", "key_press": -1, "type": "PRES_AUD", "word": "flute", "wordID": 584, "conditions": [18, 1200, "a", 18000], "trial": 1, "serialpos": 5, "trial_type": "single-audio", "trial_index": 60, "time_elapsed": 315472, "internal_node_id": "0.0-42.0"}}, {"uniqueid": "MTK1058:3TPZPLC3M1J3LDOT96WDDUJKDE3P34", "current_trial": 61, "dateTime": 1513021236046, "trialdata": {"rt": -1000, "stimulus": "/static/audio/wordpool/UMPIRE.wav", "key_press": -1, "type": "PRES_AUD", "word": "umpire", "wordID": 1534, "conditions": [18, 1200, "a", 18000], "trial": 1, "serialpos": 6, "trial_type": "single-audio", "trial_index": 61, "time_elapsed": 317649, "internal_node_id": "0.0-43.0"}}, {"uniqueid": "MTK1058:3TPZPLC3M1J3LDOT96WDDUJKDE3P34", "current_trial": 62, "dateTime": 1513021238316, "trialdata": {"rt": -1000, "stimulus": "/static/audio/wordpool/TWEEZERS.wav", "key_press": -1, "type": "PRES_AUD", "word": "tweezers", "wordID": 1525, "conditions": [18, 1200, "a", 18000], "trial": 1, "serialpos": 7, "trial_type": "single-audio", "trial_index": 62, "time_elapsed": 319918, "internal_node_id": "0.0-44.0"}}, {"uniqueid": "MTK1058:3TPZPLC3M1J3LDOT96WDDUJKDE3P34", "current_trial": 63, "dateTime": 1513021240681, "trialdata": {"rt": -1000, "stimulus": "/static/audio/wordpool/WHISTLE.wav", "key_press": -1, "type": "PRES_AUD", "word": "whistle", "wordID": 1605, "conditions": [18, 1200, "a", 18000], "trial": 1, "serialpos": 8, "trial_type": "single-audio", "trial_index": 63, "time_elapsed": 322283, "internal_node_id": "0.0-45.0"}}, {"uniqueid": "MTK1058:3TPZPLC3M1J3LDOT96WDDUJKDE3P34", "current_trial": 64, "dateTime": 1513021242920, "trialdata": {"rt": -1000, "stimulus": "/static/audio/wordpool/XEROX.wav", "key_press": -1, "type": "PRES_AUD", "word": "xerox", "wordID": 1627, "conditions": [18, 1200, "a", 18000], "trial": 1, "serialpos": 9, "trial_type": "single-audio", "trial_index": 64, "time_elapsed": 324523, "internal_node_id": "0.0-46.0"}}, {"uniqueid": "MTK1058:3TPZPLC3M1J3LDOT96WDDUJKDE3P34", "current_trial": 65, "dateTime": 1513021244946, "trialdata": {"rt": -1000, "stimulus": "/static/audio/wordpool/FLIPPER.wav", "key_press": -1, "type": "PRES_AUD", "word": "flipper", "wordID": 579, "conditions": [18, 1200, "a", 18000], "trial": 1, "serialpos": 10, "trial_type": "single-audio", "trial_index": 65, "time_elapsed": 326549, "internal_node_id": "0.0-47.0"}}, {"uniqueid": "MTK1058:3TPZPLC3M1J3LDOT96WDDUJKDE3P34", "current_trial": 66, "dateTime": 1513021246987, "trialdata": {"rt": -1000, "stimulus": "/static/audio/wordpool/CATCHER.wav", "key_press": -1, "type": "PRES_AUD", "word": "catcher", "wordID": 257, "conditions": [18, 1200, "a", 18000], "trial": 1, "serialpos": 11, "trial_type": "single-audio", "trial_index": 66, "time_elapsed": 328590, "internal_node_id": "0.0-48.0"}}, {"uniqueid": "MTK1058:3TPZPLC3M1J3LDOT96WDDUJKDE3P34", "current_trial": 67, "dateTime": 1513021249232, "trialdata": {"rt": -1000, "stimulus": "/static/audio/wordpool/DENIM.wav", "key_press": -1, "type": "PRES_AUD", "word": "denim", "wordID": 445, "conditions": [18, 1200, "a", 18000], "trial": 1, "serialpos": 12, "trial_type": "single-audio", "trial_index": 67, "time_elapsed": 330835, "internal_node_id": "0.0-49.0"}}, {"uniqueid": "MTK1058:3TPZPLC3M1J3LDOT96WDDUJKDE3P34", "current_trial": 68, "dateTime": 1513021251463, "trialdata": {"rt": -1000, "stimulus": "/static/audio/wordpool/MARROW.wav", "key_press": -1, "type": "PRES_AUD", "word": "marrow", "wordID": 871, "conditions": [18, 1200, "a", 18000], "trial": 1, "serialpos": 13, "trial_type": "single-audio", "trial_index": 68, "time_elapsed": 333063, "internal_node_id": "0.0-50.0"}}, {"uniqueid": "MTK1058:3TPZPLC3M1J3LDOT96WDDUJKDE3P34", "current_trial": 69, "dateTime": 1513021253576, "trialdata": {"rt": -1000, "stimulus": "/static/audio/wordpool/WRIST.wav", "key_press": -1, "type": "PRES_AUD", "word": "wrist", "wordID": 1625, "conditions": [18, 1200, "a", 18000], "trial": 1, "serialpos": 14, "trial_type": "single-audio", "trial_index": 69, "time_elapsed": 335178, "internal_node_id": "0.0-51.0"}}, {"uniqueid": "MTK1058:3TPZPLC3M1J3LDOT96WDDUJKDE3P34", "current_trial": 70, "dateTime": 1513021255845, "trialdata": {"rt": -1000, "stimulus": "/static/audio/wordpool/TOASTER.wav", "key_press": -1, "type": "PRES_AUD", "word": "toaster", "wordID": 1471, "conditions": [18, 1200, "a", 18000], "trial": 1, "serialpos": 15, "trial_type": "single-audio", "trial_index": 70, "time_elapsed": 337448, "internal_node_id": "0.0-52.0"}}, {"uniqueid": "MTK1058:3TPZPLC3M1J3LDOT96WDDUJKDE3P34", "current_trial": 71, "dateTime": 1513021258033, "trialdata": {"rt": -1000, "stimulus": "/static/audio/wordpool/CREVICE.wav", "key_press": -1, "type": "PRES_AUD", "word": "crevice", "wordID": 404, "conditions": [18, 1200, "a", 18000], "trial": 1, "serialpos": 16, "trial_type": "single-audio", "trial_index": 71, "time_elapsed": 339635, "internal_node_id": "0.0-53.0"}}, {"uniqueid": "MTK1058:3TPZPLC3M1J3LDOT96WDDUJKDE3P34", "current_trial": 72, "dateTime": 1513021260173, "trialdata": {"rt": -1000, "stimulus": "/static/audio/wordpool/GARDEN.wav", "key_press": -1, "type": "PRES_AUD", "word": "garden", "wordID": 622, "conditions": [18, 1200, "a", 18000], "trial": 1, "serialpos": 17, "trial_type": "single-audio", "trial_index": 72, "time_elapsed": 341776, "internal_node_id": "0.0-54.0"}}, {"uniqueid": "MTK1058:3TPZPLC3M1J3LDOT96WDDUJKDE3P34", "current_trial": 73, "dateTime": 1513021261441, "trialdata": {"rt": -1, "stimulus": "", "key_press": -1, "type": "PRE_RECALL_DELAY", "trial_type": "single-stim", "trial_index": 73, "time_elapsed": 343043, "internal_node_id": "0.0-55.0-0.0"}}, {"uniqueid": "MTK1058:3TPZPLC3M1J3LDOT96WDDUJKDE3P34", "current_trial": 74, "dateTime": 1513021261945, "trialdata": {"rt": -1000, "stimulus": "/static/audio/400Hz.wav", "key_press": -1, "type": "PRE_RECALL_ALERT", "trial_type": "single-audio", "trial_index": 74, "time_elapsed": 343548, "internal_node_id": "0.0-56.0"}}, {"uniqueid": "MTK1058:3TPZPLC3M1J3LDOT96WDDUJKDE3P34", "current_trial": 75, "dateTime": 1513021321970, "trialdata": {"rt": [2637, 6005, 7638, 9413, 12879, 15677, 23557, 38405], "recwords": ["garden", "parents", "wrist", "crevice", "parents", "jungle", "xerox", "skirt"], "type": "FREE_RECALL", "conditions": [18, 1200, "a", 18000], "trial": 1, "trial_type": "free-recall", "trial_index": 75, "time_elapsed": 403557, "internal_node_id": "0.0-57.0-0.0"}}, {"uniqueid": "MTK1058:3TPZPLC3M1J3LDOT96WDDUJKDE3P34", "current_trial": 76, "dateTime": 1513021326187, "trialdata": {"rt": 2197, "key_press": 13, "type": "INSTRUCTIONS", "trial_type": "text", "trial_index": 76, "time_elapsed": 407782, "internal_node_id": "0.0-58.0"}}, {"uniqueid": "MTK1058:3TPZPLC3M1J3LDOT96WDDUJKDE3P34", "current_trial": 77, "dateTime": 1513021351202, "trialdata": {"rt": [3373, 5020, 7022, 9941, 11565, 13622, 16447, 18572, 20557, 22990], "responses": ["23", "16", "10", "19", "13", "20", "18", "20", "17", "15"], "num1": [7, 6, 4, 8, 3, 3, 5, 7, 7, 2, 9], "num2": [9, 4, 3, 9, 1, 8, 9, 5, 4, 9, 3], "num3": [7, 6, 3, 2, 9, 9, 4, 8, 6, 4, 8], "type": "DISTRACTOR", "conditions": [12, 800, "v", 24000], "trial": 2, "trial_type": "math-distractor", "trial_index": 77, "time_elapsed": 432801, "internal_node_id": "0.0-59.0"}}, {"uniqueid": "MTK1058:3TPZPLC3M1J3LDOT96WDDUJKDE3P34", "current_trial": 78, "dateTime": 1513021354207, "trialdata": {"rt": -1, "stimulus": "<p id=\"stim\">10</p>", "key_press": -1, "trial_type": "single-stim", "trial_index": 78, "time_elapsed": 435810, "internal_node_id": "0.0-60.0-0.0"}}, {"uniqueid": "MTK1058:3TPZPLC3M1J3LDOT96WDDUJKDE3P34", "current_trial": 79, "dateTime": 1513021355212, "trialdata": {"rt": -1, "stimulus": "<p id=\"stim\">9</p>", "key_press": -1, "trial_type": "single-stim", "trial_index": 79, "time_elapsed": 436815, "internal_node_id": "0.0-60.0-1.0"}}, {"uniqueid": "MTK1058:3TPZPLC3M1J3LDOT96WDDUJKDE3P34", "current_trial": 80, "dateTime": 1513021356216, "trialdata": {"rt": -1, "stimulus": "<p id=\"stim\">8</p>", "key_press": -1, "trial_type": "single-stim", "trial_index": 80, "time_elapsed": 437819, "internal_node_id": "0.0-60.0-2.0"}}, {"uniqueid": "MTK1058:3TPZPLC3M1J3LDOT96WDDUJKDE3P34", "current_trial": 81, "dateTime": 1513021357220, "trialdata": {"rt": -1, "stimulus": "<p id=\"stim\">7</p>", "key_press": -1, "trial_type": "single-stim", "trial_index": 81, "time_elapsed": 438823, "internal_node_id": "0.0-60.0-3.0"}}, {"uniqueid": "MTK1058:3TPZPLC3M1J3LDOT96WDDUJKDE3P34", "current_trial": 82, "dateTime": 1513021358225, "trialdata": {"rt": -1, "stimulus": "<p id=\"stim\">6</p>", "key_press": -1, "trial_type": "single-stim", "trial_index": 82, "time_elapsed": 439828, "internal_node_id": "0.0-60.0-4.0"}}, {"uniqueid": "MTK1058:3TPZPLC3M1J3LDOT96WDDUJKDE3P34", "current_trial": 83, "dateTime": 1513021359237, "trialdata": {"rt": -1, "stimulus": "<p id=\"stim\">5</p>", "key_press": -1, "trial_type": "single-stim", "trial_index": 83, "time_elapsed": 440840, "internal_node_id": "0.0-60.0-5.0"}}, {"uniqueid": "MTK1058:3TPZPLC3M1J3LDOT96WDDUJKDE3P34", "current_trial": 84, "dateTime": 1513021360245, "trialdata": {"rt": -1, "stimulus": "<p id=\"stim\">4</p>", "key_press": -1, "trial_type": "single-stim", "trial_index": 84, "time_elapsed": 441848, "internal_node_id": "0.0-60.0-6.0"}}, {"uniqueid": "MTK1058:3TPZPLC3M1J3LDOT96WDDUJKDE3P34", "current_trial": 85, "dateTime": 1513021361250, "trialdata": {"rt": -1, "stimulus": "<p id=\"stim\">3</p>", "key_press": -1, "trial_type": "single-stim", "trial_index": 85, "time_elapsed": 442853, "internal_node_id": "0.0-60.0-7.0"}}, {"uniqueid": "MTK1058:3TPZPLC3M1J3LDOT96WDDUJKDE3P34", "current_trial": 86, "dateTime": 1513021362254, "trialdata": {"rt": -1, "stimulus": "<p id=\"stim\">2</p>", "key_press": -1, "trial_type": "single-stim", "trial_index": 86, "time_elapsed": 443857, "internal_node_id": "0.0-60.0-8.0"}}, {"uniqueid": "MTK1058:3TPZPLC3M1J3LDOT96WDDUJKDE3P34", "current_trial": 87, "dateTime": 1513021363259, "trialdata": {"rt": -1, "stimulus": "<p id=\"stim\">1</p>", "key_press": -1, "trial_type": "single-stim", "trial_index": 87, "time_elapsed": 444862, "internal_node_id": "0.0-60.0-9.0"}}, {"uniqueid": "MTK1058:3TPZPLC3M1J3LDOT96WDDUJKDE3P34", "current_trial": 88, "dateTime": 1513021364764, "trialdata": {"rt": -1, "stimulus": "<p id=\"stim\">+</p>", "key_press": -1, "type": "FIXATION", "trial_type": "single-stim", "trial_index": 88, "time_elapsed": 446366, "internal_node_id": "0.0-61.0-0.0"}}, {"uniqueid": "MTK1058:3TPZPLC3M1J3LDOT96WDDUJKDE3P34", "current_trial": 89, "dateTime": 1513021365566, "trialdata": {"rt": -1, "stimulus": "<p id=\"stim\">BUTCHER</p>", "key_press": -1, "type": "PRES_VIS", "word": "butcher", "wordID": 202, "conditions": [12, 800, "v", 24000], "trial": 2, "serialpos": 0, "trial_type": "single-stim", "trial_index": 89, "time_elapsed": 447169, "internal_node_id": "0.0-62.0"}}, {"uniqueid": "MTK1058:3TPZPLC3M1J3LDOT96WDDUJKDE3P34", "current_trial": 90, "dateTime": 1513021367429, "trialdata": {"rt": -1, "stimulus": "<p id=\"stim\">SCALPEL</p>", "key_press": -1, "type": "PRES_VIS", "word": "scalpel", "wordID": 1242, "conditions": [12, 800, "v", 24000], "trial": 2, "serialpos": 1, "trial_type": "single-stim", "trial_index": 90, "time_elapsed": 449032, "internal_node_id": "0.0-63.0"}}, {"uniqueid": "MTK1058:3TPZPLC3M1J3LDOT96WDDUJKDE3P34", "current_trial": 91, "dateTime": 1513021369287, "trialdata": {"rt": -1, "stimulus": "<p id=\"stim\">GRILL</p>", "key_press": -1, "type": "PRES_VIS", "word": "grill", "wordID": 660, "conditions": [12, 800, "v", 24000], "trial": 2, "serialpos": 2, "trial_type": "single-stim", "trial_index": 91, "time_elapsed": 450889, "internal_node_id": "0.0-64.0"}}, {"uniqueid": "MTK1058:3TPZPLC3M1J3LDOT96WDDUJKDE3P34", "current_trial": 92, "dateTime": 1513021371210, "trialdata": {"rt": -1, "stimulus": "<p id=\"stim\">HAND</p>", "key_press": -1, "type": "PRES_VIS", "word": "hand", "wordID": 682, "conditions": [12, 800, "v", 24000], "trial": 2, "serialpos": 3, "trial_type": "single-stim", "trial_index": 92, "time_elapsed": 452813, "internal_node_id": "0.0-65.0"}}, {"uniqueid": "MTK1058:3TPZPLC3M1J3LDOT96WDDUJKDE3P34", "current_trial": 93, "dateTime": 1513021373070, "trialdata": {"rt": -1, "stimulus": "<p id=\"stim\">NOTEBOOK</p>", "key_press": -1, "type": "PRES_VIS", "word": "notebook", "wordID": 958, "conditions": [12, 800, "v", 24000], "trial": 2, "serialpos": 4, "trial_type": "single-stim", "trial_index": 93, "time_elapsed": 454673, "internal_node_id": "0.0-66.0"}}, {"uniqueid": "MTK1058:3TPZPLC3M1J3LDOT96WDDUJKDE3P34", "current_trial": 94, "dateTime": 1513021374952, "trialdata": {"rt": -1, "stimulus": "<p id=\"stim\">CHURCH</p>", "key_press": -1, "type": "PRES_VIS", "word": "church", "wordID": 306, "conditions": [12, 800, "v", 24000], "trial": 2, "serialpos": 5, "trial_type": "single-stim", "trial_index": 94, "time_elapsed": 456555, "internal_node_id": "0.0-67.0"}}, {"uniqueid": "MTK1058:3TPZPLC3M1J3LDOT96WDDUJKDE3P34", "current_trial": 95, "dateTime": 1513021376839, "trialdata": {"rt": -1, "stimulus": "<p id=\"stim\">CHAPEL</p>", "key_press": -1, "type": "PRES_VIS", "word": "chapel", "wordID": 279, "conditions": [12, 800, "v", 24000], "trial": 2, "serialpos": 6, "trial_type": "single-stim", "trial_index": 95, "time_elapsed": 458434, "internal_node_id": "0.0-68.0"}}, {"uniqueid": "MTK1058:3TPZPLC3M1J3LDOT96WDDUJKDE3P34", "current_trial": 96, "dateTime": 1513021378755, "trialdata": {"rt": -1, "stimulus": "<p id=\"stim\">BALLOON</p>", "key_press": -1, "type": "PRES_VIS", "word": "balloon", "wordID": 74, "conditions": [12, 800, "v", 24000], "trial": 2, "serialpos": 7, "trial_type": "single-stim", "trial_index": 96, "time_elapsed": 460358, "internal_node_id": "0.0-69.0"}}, {"uniqueid": "MTK1058:3TPZPLC3M1J3LDOT96WDDUJKDE3P34", "current_trial": 97, "dateTime": 1513021380704, "trialdata": {"rt": -1, "stimulus": "<p id=\"stim\">WAGON</p>", "key_press": -1, "type": "PRES_VIS", "word": "wagon", "wordID": 1577, "conditions": [12, 800, "v", 24000], "trial": 2, "serialpos": 8, "trial_type": "single-stim", "trial_index": 97, "time_elapsed": 462307, "internal_node_id": "0.0-70.0"}}, {"uniqueid": "MTK1058:3TPZPLC3M1J3LDOT96WDDUJKDE3P34", "current_trial": 98, "dateTime": 1513021382661, "trialdata": {"rt": -1, "stimulus": "<p id=\"stim\">RAZOR</p>", "key_press": -1, "type": "PRES_VIS", "word": "razor", "wordID": 1170, "conditions": [12, 800, "v", 24000], "trial": 2, "serialpos": 9, "trial_type": "single-stim", "trial_index": 98, "time_elapsed": 464264, "internal_node_id": "0.0-71.0"}}, {"uniqueid": "MTK1058:3TPZPLC3M1J3LDOT96WDDUJKDE3P34", "current_trial": 99, "dateTime": 1513021384362, "trialdata": {"rt": -1, "stimulus": "<p id=\"stim\">PERCH</p>", "key_press": -1, "type": "PRES_VIS", "word": "perch", "wordID": 1047, "conditions": [12, 800, "v", 24000], "trial": 2, "serialpos": 10, "trial_type": "single-stim", "trial_index": 99, "time_elapsed": 465965, "internal_node_id": "0.0-72.0"}}, {"uniqueid": "MTK1058:3TPZPLC3M1J3LDOT96WDDUJKDE3P34", "current_trial": 100, "dateTime": 1513021386302, "trialdata": {"rt": -1, "stimulus": "<p id=\"stim\">NURSE</p>", "key_press": -1, "type": "PRES_VIS", "word": "nurse", "wordID": 962, "conditions": [12, 800, "v", 24000], "trial": 2, "serialpos": 11, "trial_type": "single-stim", "trial_index": 100, "time_elapsed": 467905, "internal_node_id": "0.0-73.0"}}, {"uniqueid": "MTK1058:3TPZPLC3M1J3LDOT96WDDUJKDE3P34", "current_trial": 101, "dateTime": 1513021388418, "trialdata": {"rt": -1, "stimulus": "", "key_press": -1, "type": "PRE_RECALL_DELAY", "trial_type": "single-stim", "trial_index": 101, "time_elapsed": 470020, "internal_node_id": "0.0-74.0-0.0"}}, {"uniqueid": "MTK1058:3TPZPLC3M1J3LDOT96WDDUJKDE3P34", "current_trial": 102, "dateTime": 1513021388921, "trialdata": {"rt": -1000, "stimulus": "/static/audio/400Hz.wav", "key_press": -1, "type": "PRE_RECALL_ALERT", "trial_type": "single-audio", "trial_index": 102, "time_elapsed": 470524, "internal_node_id": "0.0-75.0"}}, {"uniqueid": "MTK1058:3TPZPLC3M1J3LDOT96WDDUJKDE3P34", "current_trial": 103, "dateTime": 1513021448946, "trialdata": {"rt": [7647, 10423, 12359, 15488, 17303, 19087, 21319], "recwords": ["perch", "razor", "chapel", "hand", "scapel", "butcher", "grill"], "type": "FREE_RECALL", "conditions": [12, 800, "v", 24000], "trial": 2, "trial_type": "free-recall", "trial_index": 103, "time_elapsed": 530533, "internal_node_id": "0.0-76.0-0.0"}}, {"uniqueid": "MTK1058:3TPZPLC3M1J3LDOT96WDDUJKDE3P34", "current_trial": 104, "dateTime": 1513021452244, "trialdata": {"rt": 1289, "key_press": 13, "type": "INSTRUCTIONS", "trial_type": "text", "trial_index": 104, "time_elapsed": 533847, "internal_node_id": "0.0-77.0"}}, {"uniqueid": "MTK1058:3TPZPLC3M1J3LDOT96WDDUJKDE3P34", "current_trial": 105, "dateTime": 1513021478255, "trialdata": {"rt": [3650, 5123, 6892, 8620, 10795, 12683, 14812, 19245, 20526, 23124], "responses": ["10", "16", "17", "17", "15", "9", "20", "16", "3", "17"], "num1": [3, 7, 6, 6, 2, 7, 9, 7, 1, 3, 9], "num2": [5, 7, 5, 6, 9, 1, 5, 7, 1, 7, 9], "num3": [2, 2, 6, 5, 4, 1, 6, 2, 1, 7, 1], "type": "DISTRACTOR", "conditions": [12, 800, "a", 24000], "trial": 3, "trial_type": "math-distractor", "trial_index": 105, "time_elapsed": 559854, "internal_node_id": "0.0-78.0"}}, {"uniqueid": "MTK1058:3TPZPLC3M1J3LDOT96WDDUJKDE3P34", "current_trial": 106, "dateTime": 1513021481260, "trialdata": {"rt": -1, "stimulus": "<p id=\"stim\">10</p>", "key_press": -1, "trial_type": "single-stim", "trial_index": 106, "time_elapsed": 562863, "internal_node_id": "0.0-79.0-0.0"}}, {"uniqueid": "MTK1058:3TPZPLC3M1J3LDOT96WDDUJKDE3P34", "current_trial": 107, "dateTime": 1513021482264, "trialdata": {"rt": -1, "stimulus": "<p id=\"stim\">9</p>", "key_press": -1, "trial_type": "single-stim", "trial_index": 107, "time_elapsed": 563867, "internal_node_id": "0.0-79.0-1.0"}}, {"uniqueid": "MTK1058:3TPZPLC3M1J3LDOT96WDDUJKDE3P34", "current_trial": 108, "dateTime": 1513021483276, "trialdata": {"rt": -1, "stimulus": "<p id=\"stim\">8</p>", "key_press": -1, "trial_type": "single-stim", "trial_index": 108, "time_elapsed": 564879, "internal_node_id": "0.0-79.0-2.0"}}, {"uniqueid": "MTK1058:3TPZPLC3M1J3LDOT96WDDUJKDE3P34", "current_trial": 109, "dateTime": 1513021484281, "trialdata": {"rt": -1, "stimulus": "<p id=\"stim\">7</p>", "key_press": -1, "trial_type": "single-stim", "trial_index": 109, "time_elapsed": 565884, "internal_node_id": "0.0-79.0-3.0"}}, {"uniqueid": "MTK1058:3TPZPLC3M1J3LDOT96WDDUJKDE3P34", "current_trial": 110, "dateTime": 1513021485289, "trialdata": {"rt": -1, "stimulus": "<p id=\"stim\">6</p>", "key_press": -1, "trial_type": "single-stim", "trial_index": 110, "time_elapsed": 566892, "internal_node_id": "0.0-79.0-4.0"}}, {"uniqueid": "MTK1058:3TPZPLC3M1J3LDOT96WDDUJKDE3P34", "current_trial": 111, "dateTime": 1513021486294, "trialdata": {"rt": -1, "stimulus": "<p id=\"stim\">5</p>", "key_press": -1, "trial_type": "single-stim", "trial_index": 111, "time_elapsed": 567897, "internal_node_id": "0.0-79.0-5.0"}}, {"uniqueid": "MTK1058:3TPZPLC3M1J3LDOT96WDDUJKDE3P34", "current_trial": 112, "dateTime": 1513021487298, "trialdata": {"rt": -1, "stimulus": "<p id=\"stim\">4</p>", "key_press": -1, "trial_type": "single-stim", "trial_index": 112, "time_elapsed": 568901, "internal_node_id": "0.0-79.0-6.0"}}, {"uniqueid": "MTK1058:3TPZPLC3M1J3LDOT96WDDUJKDE3P34", "current_trial": 113, "dateTime": 1513021488302, "trialdata": {"rt": -1, "stimulus": "<p id=\"stim\">3</p>", "key_press": -1, "trial_type": "single-stim", "trial_index": 113, "time_elapsed": 569905, "internal_node_id": "0.0-79.0-7.0"}}, {"uniqueid": "MTK1058:3TPZPLC3M1J3LDOT96WDDUJKDE3P34", "current_trial": 114, "dateTime": 1513021489307, "trialdata": {"rt": -1, "stimulus": "<p id=\"stim\">2</p>", "key_press": -1, "trial_type": "single-stim", "trial_index": 114, "time_elapsed": 570910, "internal_node_id": "0.0-79.0-8.0"}}, {"uniqueid": "MTK1058:3TPZPLC3M1J3LDOT96WDDUJKDE3P34", "current_trial": 115, "dateTime": 1513021490311, "trialdata": {"rt": -1, "stimulus": "<p id=\"stim\">1</p>", "key_press": -1, "trial_type": "single-stim", "trial_index": 115, "time_elapsed": 571914, "internal_node_id": "0.0-79.0-9.0"}}, {"uniqueid": "MTK1058:3TPZPLC3M1J3LDOT96WDDUJKDE3P34", "current_trial": 116, "dateTime": 1513021491813, "trialdata": {"rt": -1, "stimulus": "<p id=\"stim\">+</p>", "key_press": -1, "type": "FIXATION", "trial_type": "single-stim", "trial_index": 116, "time_elapsed": 573416, "internal_node_id": "0.0-80.0-0.0"}}, {"uniqueid": "MTK1058:3TPZPLC3M1J3LDOT96WDDUJKDE3P34", "current_trial": 117, "dateTime": 1513021493502, "trialdata": {"rt": -1000, "stimulus": "/static/audio/wordpool/PLATE.wav", "key_press": -1, "type": "PRES_AUD", "word": "plate", "wordID": 1085, "conditions": [12, 800, "a", 24000], "trial": 3, "serialpos": 0, "trial_type": "single-audio", "trial_index": 117, "time_elapsed": 575105, "internal_node_id": "0.0-81.0"}}, {"uniqueid": "MTK1058:3TPZPLC3M1J3LDOT96WDDUJKDE3P34", "current_trial": 118, "dateTime": 1513021495262, "trialdata": {"rt": -1000, "stimulus": "/static/audio/wordpool/CRAB.wav", "key_press": -1, "type": "PRES_AUD", "word": "crab", "wordID": 396, "conditions": [12, 800, "a", 24000], "trial": 3, "serialpos": 1, "trial_type": "single-audio", "trial_index": 118, "time_elapsed": 576865, "internal_node_id": "0.0-82.0"}}, {"uniqueid": "MTK1058:3TPZPLC3M1J3LDOT96WDDUJKDE3P34", "current_trial": 119, "dateTime": 1513021497029, "trialdata": {"rt": -1000, "stimulus": "/static/audio/wordpool/PADDLE.wav", "key_press": -1, "type": "PRES_AUD", "word": "paddle", "wordID": 999, "conditions": [12, 800, "a", 24000], "trial": 3, "serialpos": 2, "trial_type": "single-audio", "trial_index": 119, "time_elapsed": 578632, "internal_node_id": "0.0-83.0"}}, {"uniqueid": "MTK1058:3TPZPLC3M1J3LDOT96WDDUJKDE3P34", "current_trial": 120, "dateTime": 1513021499017, "trialdata": {"rt": -1000, "stimulus": "/static/audio/wordpool/QUEEN.wav", "key_press": -1, "type": "PRES_AUD", "word": "queen", "wordID": 1148, "conditions": [12, 800, "a", 24000], "trial": 3, "serialpos": 3, "trial_type": "single-audio", "trial_index": 120, "time_elapsed": 580619, "internal_node_id": "0.0-84.0"}}, {"uniqueid": "MTK1058:3TPZPLC3M1J3LDOT96WDDUJKDE3P34", "current_trial": 121, "dateTime": 1513021500984, "trialdata": {"rt": -1000, "stimulus": "/static/audio/wordpool/CURTAIN.wav", "key_press": -1, "type": "PRES_AUD", "word": "curtain", "wordID": 426, "conditions": [12, 800, "a", 24000], "trial": 3, "serialpos": 4, "trial_type": "single-audio", "trial_index": 121, "time_elapsed": 582587, "internal_node_id": "0.0-85.0"}}, {"uniqueid": "MTK1058:3TPZPLC3M1J3LDOT96WDDUJKDE3P34", "current_trial": 122, "dateTime": 1513021502630, "trialdata": {"rt": -1000, "stimulus": "/static/audio/wordpool/PUDDING.wav", "key_press": -1, "type": "PRES_AUD", "word": "pudding", "wordID": 1138, "conditions": [12, 800, "a", 24000], "trial": 3, "serialpos": 5, "trial_type": "single-audio", "trial_index": 122, "time_elapsed": 584233, "internal_node_id": "0.0-86.0"}}, {"uniqueid": "MTK1058:3TPZPLC3M1J3LDOT96WDDUJKDE3P34", "current_trial": 123, "dateTime": 1513021504282, "trialdata": {"rt": -1000, "stimulus": "/static/audio/wordpool/RAFT.wav", "key_press": -1, "type": "PRES_AUD", "word": "raft", "wordID": 1158, "conditions": [12, 800, "a", 24000], "trial": 3, "serialpos": 6, "trial_type": "single-audio", "trial_index": 123, "time_elapsed": 585885, "internal_node_id": "0.0-87.0"}}, {"uniqueid": "MTK1058:3TPZPLC3M1J3LDOT96WDDUJKDE3P34", "current_trial": 124, "dateTime": 1513021506008, "trialdata": {"rt": -1000, "stimulus": "/static/audio/wordpool/CARROT.wav", "key_press": -1, "type": "PRES_AUD", "word": "carrot", "wordID": 248, "conditions": [12, 800, "a", 24000], "trial": 3, "serialpos": 7, "trial_type": "single-audio", "trial_index": 124, "time_elapsed": 587611, "internal_node_id": "0.0-88.0"}}, {"uniqueid": "MTK1058:3TPZPLC3M1J3LDOT96WDDUJKDE3P34", "current_trial": 125, "dateTime": 1513021507831, "trialdata": {"rt": -1000, "stimulus": "/static/audio/wordpool/DAUGHTER.wav", "key_press": -1, "type": "PRES_AUD", "word": "daughter", "wordID": 441, "conditions": [12, 800, "a", 24000], "trial": 3, "serialpos": 8, "trial_type": "single-audio", "trial_index": 125, "time_elapsed": 589434, "internal_node_id": "0.0-89.0"}}, {"uniqueid": "MTK1058:3TPZPLC3M1J3LDOT96WDDUJKDE3P34", "current_trial": 126, "dateTime": 1513021509728, "trialdata": {"rt": -1000, "stimulus": "/static/audio/wordpool/CHILD.wav", "key_press": -1, "type": "PRES_AUD", "word": "child", "wordID": 298, "conditions": [12, 800, "a", 24000], "trial": 3, "serialpos": 9, "trial_type": "single-audio", "trial_index": 126, "time_elapsed": 591331, "internal_node_id": "0.0-90.0"}}, {"uniqueid": "MTK1058:3TPZPLC3M1J3LDOT96WDDUJKDE3P34", "current_trial": 127, "dateTime": 1513021511579, "trialdata": {"rt": -1000, "stimulus": "/static/audio/wordpool/STREAM.wav", "key_press": -1, "type": "PRES_AUD", "word": "stream", "wordID": 1391, "conditions": [12, 800, "a", 24000], "trial": 3, "serialpos": 10, "trial_type": "single-audio", "trial_index": 127, "time_elapsed": 593181, "internal_node_id": "0.0-91.0"}}, {"uniqueid": "MTK1058:3TPZPLC3M1J3LDOT96WDDUJKDE3P34", "current_trial": 128, "dateTime": 1513021513233, "trialdata": {"rt": -1000, "stimulus": "/static/audio/wordpool/CUSTARD.wav", "key_press": -1, "type": "PRES_AUD", "word": "custard", "wordID": 428, "conditions": [12, 800, "a", 24000], "trial": 3, "serialpos": 11, "trial_type": "single-audio", "trial_index": 128, "time_elapsed": 594836, "internal_node_id": "0.0-92.0"}}, {"uniqueid": "MTK1058:3TPZPLC3M1J3LDOT96WDDUJKDE3P34", "current_trial": 129, "dateTime": 1513021514603, "trialdata": {"rt": -1, "stimulus": "", "key_press": -1, "type": "PRE_RECALL_DELAY", "trial_type": "single-stim", "trial_index": 129, "time_elapsed": 596206, "internal_node_id": "0.0-93.0-0.0"}}, {"uniqueid": "MTK1058:3TPZPLC3M1J3LDOT96WDDUJKDE3P34", "current_trial": 130, "dateTime": 1513021515108, "trialdata": {"rt": -1000, "stimulus": "/static/audio/400Hz.wav", "key_press": -1, "type": "PRE_RECALL_ALERT", "trial_type": "single-audio", "trial_index": 130, "time_elapsed": 596710, "internal_node_id": "0.0-94.0"}}, {"uniqueid": "MTK1058:3TPZPLC3M1J3LDOT96WDDUJKDE3P34", "current_trial": 131, "dateTime": 1513021575131, "trialdata": {"rt": [2978, 4898, 8042, 9322, 19882, 21880], "recwords": ["custard", "child", "stream", "child", "plate", "clean"], "type": "FREE_RECALL", "conditions": [12, 800, "a", 24000], "trial": 3, "trial_type": "free-recall", "trial_index": 131, "time_elapsed": 656726, "internal_node_id": "0.0-95.0-0.0"}}, {"uniqueid": "MTK1058:3TPZPLC3M1J3LDOT96WDDUJKDE3P34", "current_trial": 132, "dateTime": 1513021578772, "trialdata": {"rt": 1637, "key_press": 13, "type": "INSTRUCTIONS", "trial_type": "text", "trial_index": 132, "time_elapsed": 660375, "internal_node_id": "0.0-96.0"}}, {"uniqueid": "MTK1058:3TPZPLC3M1J3LDOT96WDDUJKDE3P34", "current_trial": 133, "dateTime": 1513021592792, "trialdata": {"rt": [2121, 3728, 5048, 6708, 8521, 10056, 11856], "responses": ["19", "10", "9", "17", "16", "12", "27"], "num1": [7, 1, 1, 7, 7, 8, 9, 5], "num2": [5, 1, 5, 8, 1, 2, 9, 4], "num3": [7, 8, 3, 2, 8, 2, 9, 4], "type": "DISTRACTOR", "conditions": [12, 800, "v", 12000], "trial": 4, "trial_type": "math-distractor", "trial_index": 133, "time_elapsed": 674395, "internal_node_id": "0.0-97.0"}}, {"uniqueid": "MTK1058:3TPZPLC3M1J3LDOT96WDDUJKDE3P34", "current_trial": 134, "dateTime": 1513021595797, "trialdata": {"rt": -1, "stimulus": "<p id=\"stim\">10</p>", "key_press": -1, "trial_type": "single-stim", "trial_index": 134, "time_elapsed": 677400, "internal_node_id": "0.0-98.0-0.0"}}, {"uniqueid": "MTK1058:3TPZPLC3M1J3LDOT96WDDUJKDE3P34", "current_trial": 135, "dateTime": 1513021596800, "trialdata": {"rt": -1, "stimulus": "<p id=\"stim\">9</p>", "key_press": -1, "trial_type": "single-stim", "trial_index": 135, "time_elapsed": 678403, "internal_node_id": "0.0-98.0-1.0"}}, {"uniqueid": "MTK1058:3TPZPLC3M1J3LDOT96WDDUJKDE3P34", "current_trial": 136, "dateTime": 1513021597806, "trialdata": {"rt": -1, "stimulus": "<p id=\"stim\">8</p>", "key_press": -1, "trial_type": "single-stim", "trial_index": 136, "time_elapsed": 679409, "internal_node_id": "0.0-98.0-2.0"}}, {"uniqueid": "MTK1058:3TPZPLC3M1J3LDOT96WDDUJKDE3P34", "current_trial": 137, "dateTime": 1513021598810, "trialdata": {"rt": -1, "stimulus": "<p id=\"stim\">7</p>", "key_press": -1, "trial_type": "single-stim", "trial_index": 137, "time_elapsed": 680413, "internal_node_id": "0.0-98.0-3.0"}}, {"uniqueid": "MTK1058:3TPZPLC3M1J3LDOT96WDDUJKDE3P34", "current_trial": 138, "dateTime": 1513021599816, "trialdata": {"rt": -1, "stimulus": "<p id=\"stim\">6</p>", "key_press": -1, "trial_type": "single-stim", "trial_index": 138, "time_elapsed": 681419, "internal_node_id": "0.0-98.0-4.0"}}, {"uniqueid": "MTK1058:3TPZPLC3M1J3LDOT96WDDUJKDE3P34", "current_trial": 139, "dateTime": 1513021600827, "trialdata": {"rt": -1, "stimulus": "<p id=\"stim\">5</p>", "key_press": -1, "trial_type": "single-stim", "trial_index": 139, "time_elapsed": 682430, "internal_node_id": "0.0-98.0-5.0"}}, {"uniqueid": "MTK1058:3TPZPLC3M1J3LDOT96WDDUJKDE3P34", "current_trial": 140, "dateTime": 1513021601835, "trialdata": {"rt": -1, "stimulus": "<p id=\"stim\">4</p>", "key_press": -1, "trial_type": "single-stim", "trial_index": 140, "time_elapsed": 683438, "internal_node_id": "0.0-98.0-6.0"}}, {"uniqueid": "MTK1058:3TPZPLC3M1J3LDOT96WDDUJKDE3P34", "current_trial": 141, "dateTime": 1513021602840, "trialdata": {"rt": -1, "stimulus": "<p id=\"stim\">3</p>", "key_press": -1, "trial_type": "single-stim", "trial_index": 141, "time_elapsed": 684443, "internal_node_id": "0.0-98.0-7.0"}}, {"uniqueid": "MTK1058:3TPZPLC3M1J3LDOT96WDDUJKDE3P34", "current_trial": 142, "dateTime": 1513021603858, "trialdata": {"rt": -1, "stimulus": "<p id=\"stim\">2</p>", "key_press": -1, "trial_type": "single-stim", "trial_index": 142, "time_elapsed": 685457, "internal_node_id": "0.0-98.0-8.0"}}, {"uniqueid": "MTK1058:3TPZPLC3M1J3LDOT96WDDUJKDE3P34", "current_trial": 143, "dateTime": 1513021604862, "trialdata": {"rt": -1, "stimulus": "<p id=\"stim\">1</p>", "key_press": -1, "trial_type": "single-stim", "trial_index": 143, "time_elapsed": 686465, "internal_node_id": "0.0-98.0-9.0"}}, {"uniqueid": "MTK1058:3TPZPLC3M1J3LDOT96WDDUJKDE3P34", "current_trial": 144, "dateTime": 1513021606459, "trialdata": {"rt": -1, "stimulus": "<p id=\"stim\">+</p>", "key_press": -1, "type": "FIXATION", "trial_type": "single-stim", "trial_index": 144, "time_elapsed": 688062, "internal_node_id": "0.0-99.0-0.0"}}, {"uniqueid": "MTK1058:3TPZPLC3M1J3LDOT96WDDUJKDE3P34", "current_trial": 145, "dateTime": 1513021607263, "trialdata": {"rt": -1, "stimulus": "<p id=\"stim\">CABBAGE</p>", "key_press": -1, "type": "PRES_VIS", "word": "cabbage", "wordID": 209, "conditions": [12, 800, "v", 12000], "trial": 4, "serialpos": 0, "trial_type": "single-stim", "trial_index": 145, "time_elapsed": 688866, "internal_node_id": "0.0-100.0"}}, {"uniqueid": "MTK1058:3TPZPLC3M1J3LDOT96WDDUJKDE3P34", "current_trial": 146, "dateTime": 1513021608997, "trialdata": {"rt": -1, "stimulus": "<p id=\"stim\">GRAPE</p>", "key_press": -1, "type": "PRES_VIS", "word": "grape", "wordID": 653, "conditions": [12, 800, "v", 12000], "trial": 4, "serialpos": 1, "trial_type": "single-stim", "trial_index": 146, "time_elapsed": 690599, "internal_node_id": "0.0-101.0"}}, {"uniqueid": "MTK1058:3TPZPLC3M1J3LDOT96WDDUJKDE3P34", "current_trial": 147, "dateTime": 1513021610824, "trialdata": {"rt": -1, "stimulus": "<p id=\"stim\">KIDNEY</p>", "key_press": -1, "type": "PRES_VIS", "word": "kidney", "wordID": 775, "conditions": [12, 800, "v", 12000], "trial": 4, "serialpos": 2, "trial_type": "single-stim", "trial_index": 147, "time_elapsed": 692427, "internal_node_id": "0.0-102.0"}}, {"uniqueid": "MTK1058:3TPZPLC3M1J3LDOT96WDDUJKDE3P34", "current_trial": 148, "dateTime": 1513021612481, "trialdata": {"rt": -1, "stimulus": "<p id=\"stim\">SHORTCAKE</p>", "key_press": -1, "type": "PRES_VIS", "word": "shortcake", "wordID": 1291, "conditions": [12, 800, "v", 12000], "trial": 4, "serialpos": 3, "trial_type": "single-stim", "trial_index": 148, "time_elapsed": 694084, "internal_node_id": "0.0-103.0"}}, {"uniqueid": "MTK1058:3TPZPLC3M1J3LDOT96WDDUJKDE3P34", "current_trial": 149, "dateTime": 1513021614193, "trialdata": {"rt": -1, "stimulus": "<p id=\"stim\">SCARECROW</p>", "key_press": -1, "type": "PRES_VIS", "word": "scarecrow", "wordID": 1244, "conditions": [12, 800, "v", 12000], "trial": 4, "serialpos": 4, "trial_type": "single-stim", "trial_index": 149, "time_elapsed": 695796, "internal_node_id": "0.0-104.0"}}, {"uniqueid": "MTK1058:3TPZPLC3M1J3LDOT96WDDUJKDE3P34", "current_trial": 150, "dateTime": 1513021616010, "trialdata": {"rt": -1, "stimulus": "<p id=\"stim\">BLOCKADE</p>", "key_press": -1, "type": "PRES_VIS", "word": "blockade", "wordID": 136, "conditions": [12, 800, "v", 12000], "trial": 4, "serialpos": 5, "trial_type": "single-stim", "trial_index": 150, "time_elapsed": 697613, "internal_node_id": "0.0-105.0"}}, {"uniqueid": "MTK1058:3TPZPLC3M1J3LDOT96WDDUJKDE3P34", "current_trial": 151, "dateTime": 1513021617626, "trialdata": {"rt": -1, "stimulus": "<p id=\"stim\">BLOUSE</p>", "key_press": -1, "type": "PRES_VIS", "word": "blouse", "wordID": 138, "conditions": [12, 800, "v", 12000], "trial": 4, "serialpos": 6, "trial_type": "single-stim", "trial_index": 151, "time_elapsed": 699221, "internal_node_id": "0.0-106.0"}}, {"uniqueid": "MTK1058:3TPZPLC3M1J3LDOT96WDDUJKDE3P34", "current_trial": 152, "dateTime": 1513021619407, "trialdata": {"rt": -1, "stimulus": "<p id=\"stim\">LUGGAGE</p>", "key_press": -1, "type": "PRES_VIS", "word": "luggage", "wordID": 846, "conditions": [12, 800, "v", 12000], "trial": 4, "serialpos": 7, "trial_type": "single-stim", "trial_index": 152, "time_elapsed": 701010, "internal_node_id": "0.0-107.0"}}, {"uniqueid": "MTK1058:3TPZPLC3M1J3LDOT96WDDUJKDE3P34", "current_trial": 153, "dateTime": 1513021621096, "trialdata": {"rt": -1, "stimulus": "<p id=\"stim\">BRANDY</p>", "key_press": -1, "type": "PRES_VIS", "word": "brandy", "wordID": 168, "conditions": [12, 800, "v", 12000], "trial": 4, "serialpos": 8, "trial_type": "single-stim", "trial_index": 153, "time_elapsed": 702699, "internal_node_id": "0.0-108.0"}}, {"uniqueid": "MTK1058:3TPZPLC3M1J3LDOT96WDDUJKDE3P34", "current_trial": 154, "dateTime": 1513021622716, "trialdata": {"rt": -1, "stimulus": "<p id=\"stim\">STOMACH</p>", "key_press": -1, "type": "PRES_VIS", "word": "stomach", "wordID": 1383, "conditions": [12, 800, "v", 12000], "trial": 4, "serialpos": 9, "trial_type": "single-stim", "trial_index": 154, "time_elapsed": 704319, "internal_node_id": "0.0-109.0"}}, {"uniqueid": "MTK1058:3TPZPLC3M1J3LDOT96WDDUJKDE3P34", "current_trial": 155, "dateTime": 1513021624629, "trialdata": {"rt": -1, "stimulus": "<p id=\"stim\">CHEST</p>", "key_press": -1, "type": "PRES_VIS", "word": "chest", "wordID": 294, "conditions": [12, 800, "v", 12000], "trial": 4, "serialpos": 10, "trial_type": "single-stim", "trial_index": 155, "time_elapsed": 706232, "internal_node_id": "0.0-110.0"}}, {"uniqueid": "MTK1058:3TPZPLC3M1J3LDOT96WDDUJKDE3P34", "current_trial": 156, "dateTime": 1513021626422, "trialdata": {"rt": -1, "stimulus": "<p id=\"stim\">SCOTCH</p>", "key_press": -1, "type": "PRES_VIS", "word": "scotch", "wordID": 1250, "conditions": [12, 800, "v", 12000], "trial": 4, "serialpos": 11, "trial_type": "single-stim", "trial_index": 156, "time_elapsed": 708025, "internal_node_id": "0.0-111.0"}}, {"uniqueid": "MTK1058:3TPZPLC3M1J3LDOT96WDDUJKDE3P34", "current_trial": 157, "dateTime": 1513021628738, "trialdata": {"rt": -1, "stimulus": "", "key_press": -1, "type": "PRE_RECALL_DELAY", "trial_type": "single-stim", "trial_index": 157, "time_elapsed": 710341, "internal_node_id": "0.0-112.0-0.0"}}, {"uniqueid": "MTK1058:3TPZPLC3M1J3LDOT96WDDUJKDE3P34", "current_trial": 158, "dateTime": 1513021629246, "trialdata": {"rt": -1000, "stimulus": "/static/audio/400Hz.wav", "key_press": -1, "type": "PRE_RECALL_ALERT", "trial_type": "single-audio", "trial_index": 158, "time_elapsed": 710849, "internal_node_id": "0.0-113.0"}}, {"uniqueid": "MTK1058:3TPZPLC3M1J3LDOT96WDDUJKDE3P34", "current_trial": 159, "dateTime": 1513021689257, "trialdata": {"rt": [2411, 4334, 7105, 9585, 13370, 15514, 18233, 28586], "recwords": ["scotach", "stomach", "brandy", "cake", "shortcake", "cabbage", "grape", "kidney"], "type": "FREE_RECALL", "conditions": [12, 800, "v", 12000], "trial": 4, "trial_type": "free-recall", "trial_index": 159, "time_elapsed": 770856, "internal_node_id": "0.0-114.0-0.0"}}, {"uniqueid": "MTK1058:3TPZPLC3M1J3LDOT96WDDUJKDE3P34", "current_trial": 160, "dateTime": 1513021692474, "trialdata": {"rt": 1212, "key_press": 13, "type": "INSTRUCTIONS", "trial_type": "text", "trial_index": 160, "time_elapsed": 774077, "internal_node_id": "0.0-115.0"}}, {"uniqueid": "MTK1058:3TPZPLC3M1J3LDOT96WDDUJKDE3P34", "current_trial": 161, "dateTime": 1513021706490, "trialdata": {"rt": [2145, 4938, 7179, 9112, 10897], "responses": ["17", "24", "16", "14", "18"], "num1": [9, 6, 9, 5, 9, 7], "num2": [3, 9, 5, 1, 4, 6], "num3": [5, 9, 2, 8, 5, 1], "type": "DISTRACTOR", "conditions": [12, 800, "a", 12000], "trial": 5, "trial_type": "math-distractor", "trial_index": 161, "time_elapsed": 788089, "internal_node_id": "0.0-116.0"}}, {"uniqueid": "MTK1058:3TPZPLC3M1J3LDOT96WDDUJKDE3P34", "current_trial": 162, "dateTime": 1513021709537, "trialdata": {"rt": -1, "stimulus": "<p id=\"stim\">10</p>", "key_press": -1, "trial_type": "single-stim", "trial_index": 162, "time_elapsed": 791140, "internal_node_id": "0.0-117.0-0.0"}}, {"uniqueid": "MTK1058:3TPZPLC3M1J3LDOT96WDDUJKDE3P34", "current_trial": 163, "dateTime": 1513021710545, "trialdata": {"rt": -1, "stimulus": "<p id=\"stim\">9</p>", "key_press": -1, "trial_type": "single-stim", "trial_index": 163, "time_elapsed": 792148, "internal_node_id": "0.0-117.0-1.0"}}, {"uniqueid": "MTK1058:3TPZPLC3M1J3LDOT96WDDUJKDE3P34", "current_trial": 164, "dateTime": 1513021711549, "trialdata": {"rt": -1, "stimulus": "<p id=\"stim\">8</p>", "key_press": -1, "trial_type": "single-stim", "trial_index": 164, "time_elapsed": 793152, "internal_node_id": "0.0-117.0-2.0"}}, {"uniqueid": "MTK1058:3TPZPLC3M1J3LDOT96WDDUJKDE3P34", "current_trial": 165, "dateTime": 1513021712554, "trialdata": {"rt": -1, "stimulus": "<p id=\"stim\">7</p>", "key_press": -1, "trial_type": "single-stim", "trial_index": 165, "time_elapsed": 794157, "internal_node_id": "0.0-117.0-3.0"}}, {"uniqueid": "MTK1058:3TPZPLC3M1J3LDOT96WDDUJKDE3P34", "current_trial": 166, "dateTime": 1513021713558, "trialdata": {"rt": -1, "stimulus": "<p id=\"stim\">6</p>", "key_press": -1, "trial_type": "single-stim", "trial_index": 166, "time_elapsed": 795161, "internal_node_id": "0.0-117.0-4.0"}}, {"uniqueid": "MTK1058:3TPZPLC3M1J3LDOT96WDDUJKDE3P34", "current_trial": 167, "dateTime": 1513021714563, "trialdata": {"rt": -1, "stimulus": "<p id=\"stim\">5</p>", "key_press": -1, "trial_type": "single-stim", "trial_index": 167, "time_elapsed": 796166, "internal_node_id": "0.0-117.0-5.0"}}, {"uniqueid": "MTK1058:3TPZPLC3M1J3LDOT96WDDUJKDE3P34", "current_trial": 168, "dateTime": 1513021715571, "trialdata": {"rt": -1, "stimulus": "<p id=\"stim\">4</p>", "key_press": -1, "trial_type": "single-stim", "trial_index": 168, "time_elapsed": 797174, "internal_node_id": "0.0-117.0-6.0"}}, {"uniqueid": "MTK1058:3TPZPLC3M1J3LDOT96WDDUJKDE3P34", "current_trial": 169, "dateTime": 1513021716575, "trialdata": {"rt": -1, "stimulus": "<p id=\"stim\">3</p>", "key_press": -1, "trial_type": "single-stim", "trial_index": 169, "time_elapsed": 798178, "internal_node_id": "0.0-117.0-7.0"}}, {"uniqueid": "MTK1058:3TPZPLC3M1J3LDOT96WDDUJKDE3P34", "current_trial": 170, "dateTime": 1513021717580, "trialdata": {"rt": -1, "stimulus": "<p id=\"stim\">2</p>", "key_press": -1, "trial_type": "single-stim", "trial_index": 170, "time_elapsed": 799183, "internal_node_id": "0.0-117.0-8.0"}}, {"uniqueid": "MTK1058:3TPZPLC3M1J3LDOT96WDDUJKDE3P34", "current_trial": 171, "dateTime": 1513021718604, "trialdata": {"rt": -1, "stimulus": "<p id=\"stim\">1</p>", "key_press": -1, "trial_type": "single-stim", "trial_index": 171, "time_elapsed": 800207, "internal_node_id": "0.0-117.0-9.0"}}, {"uniqueid": "MTK1058:3TPZPLC3M1J3LDOT96WDDUJKDE3P34", "current_trial": 172, "dateTime": 1513021720108, "trialdata": {"rt": -1, "stimulus": "<p id=\"stim\">+</p>", "key_press": -1, "type": "FIXATION", "trial_type": "single-stim", "trial_index": 172, "time_elapsed": 801711, "internal_node_id": "0.0-118.0-0.0"}}, {"uniqueid": "MTK1058:3TPZPLC3M1J3LDOT96WDDUJKDE3P34", "current_trial": 173, "dateTime": 1513021721788, "trialdata": {"rt": -1000, "stimulus": "/static/audio/wordpool/LOVER.wav", "key_press": -1, "type": "PRES_AUD", "word": "lover", "wordID": 845, "conditions": [12, 800, "a", 12000], "trial": 5, "serialpos": 0, "trial_type": "single-audio", "trial_index": 173, "time_elapsed": 803391, "internal_node_id": "0.0-119.0"}}, {"uniqueid": "MTK1058:3TPZPLC3M1J3LDOT96WDDUJKDE3P34", "current_trial": 174, "dateTime": 1513021723624, "trialdata": {"rt": -1000, "stimulus": "/static/audio/wordpool/FRIEND.wav", "key_press": -1, "type": "PRES_AUD", "word": "friend", "wordID": 605, "conditions": [12, 800, "a", 12000], "trial": 5, "serialpos": 1, "trial_type": "single-audio", "trial_index": 174, "time_elapsed": 805226, "internal_node_id": "0.0-120.0"}}, {"uniqueid": "MTK1058:3TPZPLC3M1J3LDOT96WDDUJKDE3P34", "current_trial": 175, "dateTime": 1513021725584, "trialdata": {"rt": -1000, "stimulus": "/static/audio/wordpool/MILK.wav", "key_press": -1, "type": "PRES_AUD", "word": "milk", "wordID": 894, "conditions": [12, 800, "a", 12000], "trial": 5, "serialpos": 2, "trial_type": "single-audio", "trial_index": 175, "time_elapsed": 807187, "internal_node_id": "0.0-121.0"}}, {"uniqueid": "MTK1058:3TPZPLC3M1J3LDOT96WDDUJKDE3P34", "current_trial": 176, "dateTime": 1513021727444, "trialdata": {"rt": -1000, "stimulus": "/static/audio/wordpool/MUSTARD.wav", "key_press": -1, "type": "PRES_AUD", "word": "mustard", "wordID": 934, "conditions": [12, 800, "a", 12000], "trial": 5, "serialpos": 3, "trial_type": "single-audio", "trial_index": 176, "time_elapsed": 809047, "internal_node_id": "0.0-122.0"}}, {"uniqueid": "MTK1058:3TPZPLC3M1J3LDOT96WDDUJKDE3P34", "current_trial": 177, "dateTime": 1513021729214, "trialdata": {"rt": -1000, "stimulus": "/static/audio/wordpool/QUAIL.wav", "key_press": -1, "type": "PRES_AUD", "word": "quail", "wordID": 1146, "conditions": [12, 800, "a", 12000], "trial": 5, "serialpos": 4, "trial_type": "single-audio", "trial_index": 177, "time_elapsed": 810817, "internal_node_id": "0.0-123.0"}}, {"uniqueid": "MTK1058:3TPZPLC3M1J3LDOT96WDDUJKDE3P34", "current_trial": 178, "dateTime": 1513021731154, "trialdata": {"rt": -1000, "stimulus": "/static/audio/wordpool/SHELF.wav", "key_press": -1, "type": "PRES_AUD", "word": "shelf", "wordID": 1279, "conditions": [12, 800, "a", 12000], "trial": 5, "serialpos": 5, "trial_type": "single-audio", "trial_index": 178, "time_elapsed": 812757, "internal_node_id": "0.0-124.0"}}, {"uniqueid": "MTK1058:3TPZPLC3M1J3LDOT96WDDUJKDE3P34", "current_trial": 179, "dateTime": 1513021733060, "trialdata": {"rt": -1000, "stimulus": "/static/audio/wordpool/GLASS.wav", "key_press": -1, "type": "PRES_AUD", "word": "glass", "wordID": 638, "conditions": [12, 800, "a", 12000], "trial": 5, "serialpos": 6, "trial_type": "single-audio", "trial_index": 179, "time_elapsed": 814663, "internal_node_id": "0.0-125.0"}}, {"uniqueid": "MTK1058:3TPZPLC3M1J3LDOT96WDDUJKDE3P34", "current_trial": 180, "dateTime": 1513021734745, "trialdata": {"rt": -1000, "stimulus": "/static/audio/wordpool/PUDDLE.wav", "key_press": -1, "type": "PRES_AUD", "word": "puddle", "wordID": 1139, "conditions": [12, 800, "a", 12000], "trial": 5, "serialpos": 7, "trial_type": "single-audio", "trial_index": 180, "time_elapsed": 816348, "internal_node_id": "0.0-126.0"}}, {"uniqueid": "MTK1058:3TPZPLC3M1J3LDOT96WDDUJKDE3P34", "current_trial": 181, "dateTime": 1513021736733, "trialdata": {"rt": -1000, "stimulus": "/static/audio/wordpool/JURY.wav", "key_press": -1, "type": "PRES_AUD", "word": "jury", "wordID": 765, "conditions": [12, 800, "a", 12000], "trial": 5, "serialpos": 8, "trial_type": "single-audio", "trial_index": 181, "time_elapsed": 818336, "internal_node_id": "0.0-127.0"}}, {"uniqueid": "MTK1058:3TPZPLC3M1J3LDOT96WDDUJKDE3P34", "current_trial": 182, "dateTime": 1513021738464, "trialdata": {"rt": -1000, "stimulus": "/static/audio/wordpool/CASHEW.wav", "key_press": -1, "type": "PRES_AUD", "word": "cashew", "wordID": 252, "conditions": [12, 800, "a", 12000], "trial": 5, "serialpos": 9, "trial_type": "single-audio", "trial_index": 182, "time_elapsed": 820067, "internal_node_id": "0.0-128.0"}}, {"uniqueid": "MTK1058:3TPZPLC3M1J3LDOT96WDDUJKDE3P34", "current_trial": 183, "dateTime": 1513021740372, "trialdata": {"rt": -1000, "stimulus": "/static/audio/wordpool/TUBA.wav", "key_press": -1, "type": "PRES_AUD", "word": "tuba", "wordID": 1514, "conditions": [12, 800, "a", 12000], "trial": 5, "serialpos": 10, "trial_type": "single-audio", "trial_index": 183, "time_elapsed": 821975, "internal_node_id": "0.0-129.0"}}, {"uniqueid": "MTK1058:3TPZPLC3M1J3LDOT96WDDUJKDE3P34", "current_trial": 184, "dateTime": 1513021742104, "trialdata": {"rt": -1000, "stimulus": "/static/audio/wordpool/HONEY.wav", "key_press": -1, "type": "PRES_AUD", "word": "honey", "wordID": 712, "conditions": [12, 800, "a", 12000], "trial": 5, "serialpos": 11, "trial_type": "single-audio", "trial_index": 184, "time_elapsed": 823707, "internal_node_id": "0.0-130.0"}}, {"uniqueid": "MTK1058:3TPZPLC3M1J3LDOT96WDDUJKDE3P34", "current_trial": 185, "dateTime": 1513021743420, "trialdata": {"rt": -1, "stimulus": "", "key_press": -1, "type": "PRE_RECALL_DELAY", "trial_type": "single-stim", "trial_index": 185, "time_elapsed": 825023, "internal_node_id": "0.0-131.0-0.0"}}, {"uniqueid": "MTK1058:3TPZPLC3M1J3LDOT96WDDUJKDE3P34", "current_trial": 186, "dateTime": 1513021743923, "trialdata": {"rt": -1000, "stimulus": "/static/audio/400Hz.wav", "key_press": -1, "type": "PRE_RECALL_ALERT", "trial_type": "single-audio", "trial_index": 186, "time_elapsed": 825526, "internal_node_id": "0.0-132.0"}}, {"uniqueid": "MTK1058:3TPZPLC3M1J3LDOT96WDDUJKDE3P34", "current_trial": 187, "dateTime": 1513021803960, "trialdata": {"rt": [1630, 3278, 5728, 7503, 24855, 35501], "recwords": ["lover", "friend", "honey", "cashew", "milk", "quail"], "type": "FREE_RECALL", "conditions": [12, 800, "a", 12000], "trial": 5, "trial_type": "free-recall", "trial_index": 187, "time_elapsed": 885535, "internal_node_id": "0.0-133.0-0.0"}}, {"uniqueid": "MTK1058:3TPZPLC3M1J3LDOT96WDDUJKDE3P34", "current_trial": 188, "dateTime": 1513021806365, "trialdata": {"rt": 396, "key_press": 13, "type": "INSTRUCTIONS", "trial_type": "text", "trial_index": 188, "time_elapsed": 887964, "internal_node_id": "0.0-134.0"}}, {"uniqueid": "MTK1058:3TPZPLC3M1J3LDOT96WDDUJKDE3P34", "current_trial": 189, "dateTime": 1513021832376, "trialdata": {"rt": [1548, 3674, 5163, 6483, 8212, 11862, 13915, 15452, 17587, 19339, 21356], "responses": ["19", "13", "14", "9", "9", "22", "8", "13", "18", "14", "8"], "num1": [9, 1, 4, 4, 1, 7, 2, 2, 5, 2, 4, 8], "num2": [8, 4, 8, 1, 2, 6, 4, 5, 7, 4, 2, 9], "num3": [2, 8, 2, 4, 6, 9, 2, 6, 6, 8, 2, 6], "type": "DISTRACTOR", "conditions": [12, 1600, "a", 24000], "trial": 6, "trial_type": "math-distractor", "trial_index": 189, "time_elapsed": 913975, "internal_node_id": "0.0-135.0"}}, {"uniqueid": "MTK1058:3TPZPLC3M1J3LDOT96WDDUJKDE3P34", "current_trial": 190, "dateTime": 1513021835381, "trialdata": {"rt": -1, "stimulus": "<p id=\"stim\">10</p>", "key_press": -1, "trial_type": "single-stim", "trial_index": 190, "time_elapsed": 916984, "internal_node_id": "0.0-136.0-0.0"}}, {"uniqueid": "MTK1058:3TPZPLC3M1J3LDOT96WDDUJKDE3P34", "current_trial": 191, "dateTime": 1513021836385, "trialdata": {"rt": -1, "stimulus": "<p id=\"stim\">9</p>", "key_press": -1, "trial_type": "single-stim", "trial_index": 191, "time_elapsed": 917988, "internal_node_id": "0.0-136.0-1.0"}}, {"uniqueid": "MTK1058:3TPZPLC3M1J3LDOT96WDDUJKDE3P34", "current_trial": 192, "dateTime": 1513021837390, "trialdata": {"rt": -1, "stimulus": "<p id=\"stim\">8</p>", "key_press": -1, "trial_type": "single-stim", "trial_index": 192, "time_elapsed": 918993, "internal_node_id": "0.0-136.0-2.0"}}, {"uniqueid": "MTK1058:3TPZPLC3M1J3LDOT96WDDUJKDE3P34", "current_trial": 193, "dateTime": 1513021838394, "trialdata": {"rt": -1, "stimulus": "<p id=\"stim\">7</p>", "key_press": -1, "trial_type": "single-stim", "trial_index": 193, "time_elapsed": 919997, "internal_node_id": "0.0-136.0-3.0"}}, {"uniqueid": "MTK1058:3TPZPLC3M1J3LDOT96WDDUJKDE3P34", "current_trial": 194, "dateTime": 1513021839530, "trialdata": {"rt": -1, "stimulus": "<p id=\"stim\">6</p>", "key_press": -1, "trial_type": "single-stim", "trial_index": 194, "time_elapsed": 921133, "internal_node_id": "0.0-136.0-4.0"}}, {"uniqueid": "MTK1058:3TPZPLC3M1J3LDOT96WDDUJKDE3P34", "current_trial": 195, "dateTime": 1513021840535, "trialdata": {"rt": -1, "stimulus": "<p id=\"stim\">5</p>", "key_press": -1, "trial_type": "single-stim", "trial_index": 195, "time_elapsed": 922138, "internal_node_id": "0.0-136.0-5.0"}}, {"uniqueid": "MTK1058:3TPZPLC3M1J3LDOT96WDDUJKDE3P34", "current_trial": 196, "dateTime": 1513021841539, "trialdata": {"rt": -1, "stimulus": "<p id=\"stim\">4</p>", "key_press": -1, "trial_type": "single-stim", "trial_index": 196, "time_elapsed": 923142, "internal_node_id": "0.0-136.0-6.0"}}, {"uniqueid": "MTK1058:3TPZPLC3M1J3LDOT96WDDUJKDE3P34", "current_trial": 197, "dateTime": 1513021842543, "trialdata": {"rt": -1, "stimulus": "<p id=\"stim\">3</p>", "key_press": -1, "trial_type": "single-stim", "trial_index": 197, "time_elapsed": 924146, "internal_node_id": "0.0-136.0-7.0"}}, {"uniqueid": "MTK1058:3TPZPLC3M1J3LDOT96WDDUJKDE3P34", "current_trial": 198, "dateTime": 1513021843548, "trialdata": {"rt": -1, "stimulus": "<p id=\"stim\">2</p>", "key_press": -1, "trial_type": "single-stim", "trial_index": 198, "time_elapsed": 925151, "internal_node_id": "0.0-136.0-8.0"}}, {"uniqueid": "MTK1058:3TPZPLC3M1J3LDOT96WDDUJKDE3P34", "current_trial": 199, "dateTime": 1513021844553, "trialdata": {"rt": -1, "stimulus": "<p id=\"stim\">1</p>", "key_press": -1, "trial_type": "single-stim", "trial_index": 199, "time_elapsed": 926156, "internal_node_id": "0.0-136.0-9.0"}}, {"uniqueid": "MTK1058:3TPZPLC3M1J3LDOT96WDDUJKDE3P34", "current_trial": 200, "dateTime": 1513021846061, "trialdata": {"rt": -1, "stimulus": "<p id=\"stim\">+</p>", "key_press": -1, "type": "FIXATION", "trial_type": "single-stim", "trial_index": 200, "time_elapsed": 927664, "internal_node_id": "0.0-137.0-0.0"}}, {"uniqueid": "MTK1058:3TPZPLC3M1J3LDOT96WDDUJKDE3P34", "current_trial": 201, "dateTime": 1513021848881, "trialdata": {"rt": -1000, "stimulus": "/static/audio/wordpool/FEMALE.wav", "key_press": -1, "type": "PRES_AUD", "word": "female", "wordID": 558, "conditions": [12, 1600, "a", 24000], "trial": 6, "serialpos": 0, "trial_type": "single-audio", "trial_index": 201, "time_elapsed": 930483, "internal_node_id": "0.0-138.0"}}, {"uniqueid": "MTK1058:3TPZPLC3M1J3LDOT96WDDUJKDE3P34", "current_trial": 202, "dateTime": 1513021851566, "trialdata": {"rt": -1000, "stimulus": "/static/audio/wordpool/ACTRESS.wav", "key_press": -1, "type": "PRES_AUD", "word": "actress", "wordID": 5, "conditions": [12, 1600, "a", 24000], "trial": 6, "serialpos": 1, "trial_type": "single-audio", "trial_index": 202, "time_elapsed": 933169, "internal_node_id": "0.0-139.0"}}, {"uniqueid": "MTK1058:3TPZPLC3M1J3LDOT96WDDUJKDE3P34", "current_trial": 203, "dateTime": 1513021854133, "trialdata": {"rt": -1000, "stimulus": "/static/audio/wordpool/ACTOR.wav", "key_press": -1, "type": "PRES_AUD", "word": "actor", "wordID": 4, "conditions": [12, 1600, "a", 24000], "trial": 6, "serialpos": 2, "trial_type": "single-audio", "trial_index": 203, "time_elapsed": 935736, "internal_node_id": "0.0-140.0"}}, {"uniqueid": "MTK1058:3TPZPLC3M1J3LDOT96WDDUJKDE3P34", "current_trial": 204, "dateTime": 1513021856896, "trialdata": {"rt": -1000, "stimulus": "/static/audio/wordpool/SURVEY.wav", "key_press": -1, "type": "PRES_AUD", "word": "survey", "wordID": 1413, "conditions": [12, 1600, "a", 24000], "trial": 6, "serialpos": 3, "trial_type": "single-audio", "trial_index": 204, "time_elapsed": 938499, "internal_node_id": "0.0-141.0"}}, {"uniqueid": "MTK1058:3TPZPLC3M1J3LDOT96WDDUJKDE3P34", "current_trial": 205, "dateTime": 1513021859655, "trialdata": {"rt": -1000, "stimulus": "/static/audio/wordpool/POCKET.wav", "key_press": -1, "type": "PRES_AUD", "word": "pocket", "wordID": 1092, "conditions": [12, 1600, "a", 24000], "trial": 6, "serialpos": 4, "trial_type": "single-audio", "trial_index": 205, "time_elapsed": 941258, "internal_node_id": "0.0-142.0"}}, {"uniqueid": "MTK1058:3TPZPLC3M1J3LDOT96WDDUJKDE3P34", "current_trial": 206, "dateTime": 1513021862292, "trialdata": {"rt": -1000, "stimulus": "/static/audio/wordpool/SEAL.wav", "key_press": -1, "type": "PRES_AUD", "word": "seal", "wordID": 1261, "conditions": [12, 1600, "a", 24000], "trial": 6, "serialpos": 5, "trial_type": "single-audio", "trial_index": 206, "time_elapsed": 943894, "internal_node_id": "0.0-143.0"}}, {"uniqueid": "MTK1058:3TPZPLC3M1J3LDOT96WDDUJKDE3P34", "current_trial": 207, "dateTime": 1513021864787, "trialdata": {"rt": -1000, "stimulus": "/static/audio/wordpool/ICING.wav", "key_press": -1, "type": "PRES_AUD", "word": "icing", "wordID": 731, "conditions": [12, 1600, "a", 24000], "trial": 6, "serialpos": 6, "trial_type": "single-audio", "trial_index": 207, "time_elapsed": 946390, "internal_node_id": "0.0-144.0"}}, {"uniqueid": "MTK1058:3TPZPLC3M1J3LDOT96WDDUJKDE3P34", "current_trial": 208, "dateTime": 1513021867489, "trialdata": {"rt": -1000, "stimulus": "/static/audio/wordpool/BRIEFCASE.wav", "key_press": -1, "type": "PRES_AUD", "word": "briefcase", "wordID": 174, "conditions": [12, 1600, "a", 24000], "trial": 6, "serialpos": 7, "trial_type": "single-audio", "trial_index": 208, "time_elapsed": 949092, "internal_node_id": "0.0-145.0"}}, {"uniqueid": "MTK1058:3TPZPLC3M1J3LDOT96WDDUJKDE3P34", "current_trial": 209, "dateTime": 1513021870077, "trialdata": {"rt": -1000, "stimulus": "/static/audio/wordpool/LONDON.wav", "key_press": -1, "type": "PRES_AUD", "word": "london", "wordID": 842, "conditions": [12, 1600, "a", 24000], "trial": 6, "serialpos": 8, "trial_type": "single-audio", "trial_index": 209, "time_elapsed": 951680, "internal_node_id": "0.0-146.0"}}, {"uniqueid": "MTK1058:3TPZPLC3M1J3LDOT96WDDUJKDE3P34", "current_trial": 210, "dateTime": 1513021872844, "trialdata": {"rt": -1000, "stimulus": "/static/audio/wordpool/COOKBOOK.wav", "key_press": -1, "type": "PRES_AUD", "word": "cookbook", "wordID": 372, "conditions": [12, 1600, "a", 24000], "trial": 6, "serialpos": 9, "trial_type": "single-audio", "trial_index": 210, "time_elapsed": 954447, "internal_node_id": "0.0-147.0"}}, {"uniqueid": "MTK1058:3TPZPLC3M1J3LDOT96WDDUJKDE3P34", "current_trial": 211, "dateTime": 1513021875321, "trialdata": {"rt": -1000, "stimulus": "/static/audio/wordpool/FOREST.wav", "key_press": -1, "type": "PRES_AUD", "word": "forest", "wordID": 592, "conditions": [12, 1600, "a", 24000], "trial": 6, "serialpos": 10, "trial_type": "single-audio", "trial_index": 211, "time_elapsed": 956922, "internal_node_id": "0.0-148.0"}}, {"uniqueid": "MTK1058:3TPZPLC3M1J3LDOT96WDDUJKDE3P34", "current_trial": 212, "dateTime": 1513021877830, "trialdata": {"rt": -1000, "stimulus": "/static/audio/wordpool/STUDENT.wav", "key_press": -1, "type": "PRES_AUD", "word": "student", "wordID": 1394, "conditions": [12, 1600, "a", 24000], "trial": 6, "serialpos": 11, "trial_type": "single-audio", "trial_index": 212, "time_elapsed": 959433, "internal_node_id": "0.0-149.0"}}, {"uniqueid": "MTK1058:3TPZPLC3M1J3LDOT96WDDUJKDE3P34", "current_trial": 213, "dateTime": 1513021879183, "trialdata": {"rt": -1, "stimulus": "", "key_press": -1, "type": "PRE_RECALL_DELAY", "trial_type": "single-stim", "trial_index": 213, "time_elapsed": 960785, "internal_node_id": "0.0-150.0-0.0"}}, {"uniqueid": "MTK1058:3TPZPLC3M1J3LDOT96WDDUJKDE3P34", "current_trial": 214, "dateTime": 1513021879686, "trialdata": {"rt": -1000, "stimulus": "/static/audio/400Hz.wav", "key_press": -1, "type": "PRE_RECALL_ALERT", "trial_type": "single-audio", "trial_index": 214, "time_elapsed": 961289, "internal_node_id": "0.0-151.0"}}, {"uniqueid": "MTK1058:3TPZPLC3M1J3LDOT96WDDUJKDE3P34", "current_trial": 215, "dateTime": 1513021939729, "trialdata": {"rt": [2330, 3858, 6178, 7546, 9546, 11754, 13882, 53104], "recwords": ["student", "forest", "briefcase", "actor", "actress", "email", "forrest", "icing"], "type": "FREE_RECALL", "conditions": [12, 1600, "a", 24000], "trial": 6, "trial_type": "free-recall", "trial_index": 215, "time_elapsed": 1021296, "internal_node_id": "0.0-152.0-0.0"}}, {"uniqueid": "MTK1058:3TPZPLC3M1J3LDOT96WDDUJKDE3P34", "current_trial": 216, "dateTime": 1513021943174, "trialdata": {"rt": 1436, "key_press": 13, "type": "INSTRUCTIONS", "trial_type": "text", "trial_index": 216, "time_elapsed": 1024777, "internal_node_id": "0.0-153.0"}}, {"uniqueid": "MTK1058:3TPZPLC3M1J3LDOT96WDDUJKDE3P34", "current_trial": 217, "dateTime": 1513021969192, "trialdata": {"rt": [1789, 4189, 5717, 7839, 9735, 12264, 14037, 16118, 19515, 21068, 22925], "responses": ["11", "19", "20", "24", "16", "18", "19", "13", "19", "14", "19"], "num1": [8, 4, 8, 6, 5, 4, 5, 2, 8, 6, 9, 2], "num2": [2, 8, 8, 9, 4, 7, 7, 2, 5, 2, 8, 3], "num3": [1, 7, 4, 9, 6, 7, 7, 9, 7, 6, 2, 2], "type": "DISTRACTOR", "conditions": [24, 800, "a", 24000], "trial": 7, "trial_type": "math-distractor", "trial_index": 217, "time_elapsed": 1050795, "internal_node_id": "0.0-154.0"}}, {"uniqueid": "MTK1058:3TPZPLC3M1J3LDOT96WDDUJKDE3P34", "current_trial": 218, "dateTime": 1513021972209, "trialdata": {"rt": -1, "stimulus": "<p id=\"stim\">10</p>", "key_press": -1, "trial_type": "single-stim", "trial_index": 218, "time_elapsed": 1053812, "internal_node_id": "0.0-155.0-0.0"}}, {"uniqueid": "MTK1058:3TPZPLC3M1J3LDOT96WDDUJKDE3P34", "current_trial": 219, "dateTime": 1513021973213, "trialdata": {"rt": -1, "stimulus": "<p id=\"stim\">9</p>", "key_press": -1, "trial_type": "single-stim", "trial_index": 219, "time_elapsed": 1054816, "internal_node_id": "0.0-155.0-1.0"}}, {"uniqueid": "MTK1058:3TPZPLC3M1J3LDOT96WDDUJKDE3P34", "current_trial": 220, "dateTime": 1513021974218, "trialdata": {"rt": -1, "stimulus": "<p id=\"stim\">8</p>", "key_press": -1, "trial_type": "single-stim", "trial_index": 220, "time_elapsed": 1055821, "internal_node_id": "0.0-155.0-2.0"}}, {"uniqueid": "MTK1058:3TPZPLC3M1J3LDOT96WDDUJKDE3P34", "current_trial": 221, "dateTime": 1513021975222, "trialdata": {"rt": -1, "stimulus": "<p id=\"stim\">7</p>", "key_press": -1, "trial_type": "single-stim", "trial_index": 221, "time_elapsed": 1056825, "internal_node_id": "0.0-155.0-3.0"}}, {"uniqueid": "MTK1058:3TPZPLC3M1J3LDOT96WDDUJKDE3P34", "current_trial": 222, "dateTime": 1513021976239, "trialdata": {"rt": -1, "stimulus": "<p id=\"stim\">6</p>", "key_press": -1, "trial_type": "single-stim", "trial_index": 222, "time_elapsed": 1057842, "internal_node_id": "0.0-155.0-4.0"}}, {"uniqueid": "MTK1058:3TPZPLC3M1J3LDOT96WDDUJKDE3P34", "current_trial": 223, "dateTime": 1513021977243, "trialdata": {"rt": -1, "stimulus": "<p id=\"stim\">5</p>", "key_press": -1, "trial_type": "single-stim", "trial_index": 223, "time_elapsed": 1058846, "internal_node_id": "0.0-155.0-5.0"}}, {"uniqueid": "MTK1058:3TPZPLC3M1J3LDOT96WDDUJKDE3P34", "current_trial": 224, "dateTime": 1513021978247, "trialdata": {"rt": -1, "stimulus": "<p id=\"stim\">4</p>", "key_press": -1, "trial_type": "single-stim", "trial_index": 224, "time_elapsed": 1059850, "internal_node_id": "0.0-155.0-6.0"}}, {"uniqueid": "MTK1058:3TPZPLC3M1J3LDOT96WDDUJKDE3P34", "current_trial": 225, "dateTime": 1513021979252, "trialdata": {"rt": -1, "stimulus": "<p id=\"stim\">3</p>", "key_press": -1, "trial_type": "single-stim", "trial_index": 225, "time_elapsed": 1060855, "internal_node_id": "0.0-155.0-7.0"}}, {"uniqueid": "MTK1058:3TPZPLC3M1J3LDOT96WDDUJKDE3P34", "current_trial": 226, "dateTime": 1513021980272, "trialdata": {"rt": -1, "stimulus": "<p id=\"stim\">2</p>", "key_press": -1, "trial_type": "single-stim", "trial_index": 226, "time_elapsed": 1061875, "internal_node_id": "0.0-155.0-8.0"}}, {"uniqueid": "MTK1058:3TPZPLC3M1J3LDOT96WDDUJKDE3P34", "current_trial": 227, "dateTime": 1513021981281, "trialdata": {"rt": -1, "stimulus": "<p id=\"stim\">1</p>", "key_press": -1, "trial_type": "single-stim", "trial_index": 227, "time_elapsed": 1062884, "internal_node_id": "0.0-155.0-9.0"}}, {"uniqueid": "MTK1058:3TPZPLC3M1J3LDOT96WDDUJKDE3P34", "current_trial": 228, "dateTime": 1513021982785, "trialdata": {"rt": -1, "stimulus": "<p id=\"stim\">+</p>", "key_press": -1, "type": "FIXATION", "trial_type": "single-stim", "trial_index": 228, "time_elapsed": 1064388, "internal_node_id": "0.0-156.0-0.0"}}, {"uniqueid": "MTK1058:3TPZPLC3M1J3LDOT96WDDUJKDE3P34", "current_trial": 229, "dateTime": 1513021984642, "trialdata": {"rt": -1000, "stimulus": "/static/audio/wordpool/FRAGRANCE.wav", "key_press": -1, "type": "PRES_AUD", "word": "fragrance", "wordID": 598, "conditions": [24, 800, "a", 24000], "trial": 7, "serialpos": 0, "trial_type": "single-audio", "trial_index": 229, "time_elapsed": 1066244, "internal_node_id": "0.0-157.0"}}, {"uniqueid": "MTK1058:3TPZPLC3M1J3LDOT96WDDUJKDE3P34", "current_trial": 230, "dateTime": 1513021986585, "trialdata": {"rt": -1000, "stimulus": "/static/audio/wordpool/RACKET.wav", "key_press": -1, "type": "PRES_AUD", "word": "racket", "wordID": 1154, "conditions": [24, 800, "a", 24000], "trial": 7, "serialpos": 1, "trial_type": "single-audio", "trial_index": 230, "time_elapsed": 1068187, "internal_node_id": "0.0-158.0"}}, {"uniqueid": "MTK1058:3TPZPLC3M1J3LDOT96WDDUJKDE3P34", "current_trial": 231, "dateTime": 1513021988377, "trialdata": {"rt": -1000, "stimulus": "/static/audio/wordpool/BIKE.wav", "key_press": -1, "type": "PRES_AUD", "word": "bike", "wordID": 124, "conditions": [24, 800, "a", 24000], "trial": 7, "serialpos": 2, "trial_type": "single-audio", "trial_index": 231, "time_elapsed": 1069980, "internal_node_id": "0.0-159.0"}}, {"uniqueid": "MTK1058:3TPZPLC3M1J3LDOT96WDDUJKDE3P34", "current_trial": 232, "dateTime": 1513021990034, "trialdata": {"rt": -1000, "stimulus": "/static/audio/wordpool/LIGHTNING.wav", "key_press": -1, "type": "PRES_AUD", "word": "lightning", "wordID": 819, "conditions": [24, 800, "a", 24000], "trial": 7, "serialpos": 3, "trial_type": "single-audio", "trial_index": 232, "time_elapsed": 1071636, "internal_node_id": "0.0-160.0"}}, {"uniqueid": "MTK1058:3TPZPLC3M1J3LDOT96WDDUJKDE3P34", "current_trial": 233, "dateTime": 1513021991646, "trialdata": {"rt": -1000, "stimulus": "/static/audio/wordpool/HORNET.wav", "key_press": -1, "type": "PRES_AUD", "word": "hornet", "wordID": 717, "conditions": [24, 800, "a", 24000], "trial": 7, "serialpos": 4, "trial_type": "single-audio", "trial_index": 233, "time_elapsed": 1073249, "internal_node_id": "0.0-161.0"}}, {"uniqueid": "MTK1058:3TPZPLC3M1J3LDOT96WDDUJKDE3P34", "current_trial": 234, "dateTime": 1513021993368, "trialdata": {"rt": -1000, "stimulus": "/static/audio/wordpool/SHRUB.wav", "key_press": -1, "type": "PRES_AUD", "word": "shrub", "wordID": 1298, "conditions": [24, 800, "a", 24000], "trial": 7, "serialpos": 5, "trial_type": "single-audio", "trial_index": 234, "time_elapsed": 1074970, "internal_node_id": "0.0-162.0"}}, {"uniqueid": "MTK1058:3TPZPLC3M1J3LDOT96WDDUJKDE3P34", "current_trial": 235, "dateTime": 1513021995364, "trialdata": {"rt": -1000, "stimulus": "/static/audio/wordpool/LILY.wav", "key_press": -1, "type": "PRES_AUD", "word": "lily", "wordID": 820, "conditions": [24, 800, "a", 24000], "trial": 7, "serialpos": 6, "trial_type": "single-audio", "trial_index": 235, "time_elapsed": 1076967, "internal_node_id": "0.0-163.0"}}, {"uniqueid": "MTK1058:3TPZPLC3M1J3LDOT96WDDUJKDE3P34", "current_trial": 236, "dateTime": 1513021997134, "trialdata": {"rt": -1000, "stimulus": "/static/audio/wordpool/PERFUME.wav", "key_press": -1, "type": "PRES_AUD", "word": "perfume", "wordID": 1048, "conditions": [24, 800, "a", 24000], "trial": 7, "serialpos": 7, "trial_type": "single-audio", "trial_index": 236, "time_elapsed": 1078737, "internal_node_id": "0.0-164.0"}}, {"uniqueid": "MTK1058:3TPZPLC3M1J3LDOT96WDDUJKDE3P34", "current_trial": 237, "dateTime": 1513021998976, "trialdata": {"rt": -1000, "stimulus": "/static/audio/wordpool/JUDGE.wav", "key_press": -1, "type": "PRES_AUD", "word": "judge", "wordID": 760, "conditions": [24, 800, "a", 24000], "trial": 7, "serialpos": 8, "trial_type": "single-audio", "trial_index": 237, "time_elapsed": 1080579, "internal_node_id": "0.0-165.0"}}, {"uniqueid": "MTK1058:3TPZPLC3M1J3LDOT96WDDUJKDE3P34", "current_trial": 238, "dateTime": 1513022000670, "trialdata": {"rt": -1000, "stimulus": "/static/audio/wordpool/DASHBOARD.wav", "key_press": -1, "type": "PRES_AUD", "word": "dashboard", "wordID": 440, "conditions": [24, 800, "a", 24000], "trial": 7, "serialpos": 9, "trial_type": "single-audio", "trial_index": 238, "time_elapsed": 1082272, "internal_node_id": "0.0-166.0"}}, {"uniqueid": "MTK1058:3TPZPLC3M1J3LDOT96WDDUJKDE3P34", "current_trial": 239, "dateTime": 1513022002461, "trialdata": {"rt": -1000, "stimulus": "/static/audio/wordpool/RIVER.wav", "key_press": -1, "type": "PRES_AUD", "word": "river", "wordID": 1193, "conditions": [24, 800, "a", 24000], "trial": 7, "serialpos": 10, "trial_type": "single-audio", "trial_index": 239, "time_elapsed": 1084064, "internal_node_id": "0.0-167.0"}}, {"uniqueid": "MTK1058:3TPZPLC3M1J3LDOT96WDDUJKDE3P34", "current_trial": 240, "dateTime": 1513022004355, "trialdata": {"rt": -1000, "stimulus": "/static/audio/wordpool/LUMBER.wav", "key_press": -1, "type": "PRES_AUD", "word": "lumber", "wordID": 847, "conditions": [24, 800, "a", 24000], "trial": 7, "serialpos": 11, "trial_type": "single-audio", "trial_index": 240, "time_elapsed": 1085958, "internal_node_id": "0.0-168.0"}}, {"uniqueid": "MTK1058:3TPZPLC3M1J3LDOT96WDDUJKDE3P34", "current_trial": 241, "dateTime": 1513022006265, "trialdata": {"rt": -1000, "stimulus": "/static/audio/wordpool/FIREMAN.wav", "key_press": -1, "type": "PRES_AUD", "word": "fireman", "wordID": 568, "conditions": [24, 800, "a", 24000], "trial": 7, "serialpos": 12, "trial_type": "single-audio", "trial_index": 241, "time_elapsed": 1087867, "internal_node_id": "0.0-169.0"}}, {"uniqueid": "MTK1058:3TPZPLC3M1J3LDOT96WDDUJKDE3P34", "current_trial": 242, "dateTime": 1513022008231, "trialdata": {"rt": -1000, "stimulus": "/static/audio/wordpool/PARTNER.wav", "key_press": -1, "type": "PRES_AUD", "word": "partner", "wordID": 1016, "conditions": [24, 800, "a", 24000], "trial": 7, "serialpos": 13, "trial_type": "single-audio", "trial_index": 242, "time_elapsed": 1089834, "internal_node_id": "0.0-170.0"}}, {"uniqueid": "MTK1058:3TPZPLC3M1J3LDOT96WDDUJKDE3P34", "current_trial": 243, "dateTime": 1513022010229, "trialdata": {"rt": -1000, "stimulus": "/static/audio/wordpool/HATCHET.wav", "key_press": -1, "type": "PRES_AUD", "word": "hatchet", "wordID": 690, "conditions": [24, 800, "a", 24000], "trial": 7, "serialpos": 14, "trial_type": "single-audio", "trial_index": 243, "time_elapsed": 1091832, "internal_node_id": "0.0-171.0"}}, {"uniqueid": "MTK1058:3TPZPLC3M1J3LDOT96WDDUJKDE3P34", "current_trial": 244, "dateTime": 1513022012004, "trialdata": {"rt": 1409.3333333335067, "stimulus": "/static/audio/wordpool/MOTEL.wav", "key_press": 17, "type": "PRES_AUD", "word": "motel", "wordID": 918, "conditions": [24, 800, "a", 24000], "trial": 7, "serialpos": 15, "trial_type": "single-audio", "trial_index": 244, "time_elapsed": 1093606, "internal_node_id": "0.0-172.0"}}, {"uniqueid": "MTK1058:3TPZPLC3M1J3LDOT96WDDUJKDE3P34", "current_trial": 245, "dateTime": 1513022013793, "trialdata": {"rt": -1000, "stimulus": "/static/audio/wordpool/MUFFIN.wav", "key_press": -1, "type": "PRES_AUD", "word": "muffin", "wordID": 928, "conditions": [24, 800, "a", 24000], "trial": 7, "serialpos": 16, "trial_type": "single-audio", "trial_index": 245, "time_elapsed": 1095396, "internal_node_id": "0.0-173.0"}}, {"uniqueid": "MTK1058:3TPZPLC3M1J3LDOT96WDDUJKDE3P34", "current_trial": 246, "dateTime": 1513022015778, "trialdata": {"rt": -1000, "stimulus": "/static/audio/wordpool/COOK.wav", "key_press": -1, "type": "PRES_AUD", "word": "cook", "wordID": 371, "conditions": [24, 800, "a", 24000], "trial": 7, "serialpos": 17, "trial_type": "single-audio", "trial_index": 246, "time_elapsed": 1097380, "internal_node_id": "0.0-174.0"}}, {"uniqueid": "MTK1058:3TPZPLC3M1J3LDOT96WDDUJKDE3P34", "current_trial": 247, "dateTime": 1513022017463, "trialdata": {"rt": -1000, "stimulus": "/static/audio/wordpool/BARREL.wav", "key_press": -1, "type": "PRES_AUD", "word": "barrel", "wordID": 90, "conditions": [24, 800, "a", 24000], "trial": 7, "serialpos": 18, "trial_type": "single-audio", "trial_index": 247, "time_elapsed": 1099060, "internal_node_id": "0.0-175.0"}}, {"uniqueid": "MTK1058:3TPZPLC3M1J3LDOT96WDDUJKDE3P34", "current_trial": 248, "dateTime": 1513022019275, "trialdata": {"rt": -1000, "stimulus": "/static/audio/wordpool/GALLON.wav", "key_press": -1, "type": "PRES_AUD", "word": "gallon", "wordID": 617, "conditions": [24, 800, "a", 24000], "trial": 7, "serialpos": 19, "trial_type": "single-audio", "trial_index": 248, "time_elapsed": 1100878, "internal_node_id": "0.0-176.0"}}, {"uniqueid": "MTK1058:3TPZPLC3M1J3LDOT96WDDUJKDE3P34", "current_trial": 249, "dateTime": 1513022021224, "trialdata": {"rt": -1000, "stimulus": "/static/audio/wordpool/BLACKBOARD.wav", "key_press": -1, "type": "PRES_AUD", "word": "blackboard", "wordID": 132, "conditions": [24, 800, "a", 24000], "trial": 7, "serialpos": 20, "trial_type": "single-audio", "trial_index": 249, "time_elapsed": 1102826, "internal_node_id": "0.0-177.0"}}, {"uniqueid": "MTK1058:3TPZPLC3M1J3LDOT96WDDUJKDE3P34", "current_trial": 250, "dateTime": 1513022023219, "trialdata": {"rt": -1000, "stimulus": "/static/audio/wordpool/PIZZA.wav", "key_press": -1, "type": "PRES_AUD", "word": "pizza", "wordID": 1078, "conditions": [24, 800, "a", 24000], "trial": 7, "serialpos": 21, "trial_type": "single-audio", "trial_index": 250, "time_elapsed": 1104822, "internal_node_id": "0.0-178.0"}}, {"uniqueid": "MTK1058:3TPZPLC3M1J3LDOT96WDDUJKDE3P34", "current_trial": 251, "dateTime": 1513022025109, "trialdata": {"rt": -1000, "stimulus": "/static/audio/wordpool/FREEZER.wav", "key_press": -1, "type": "PRES_AUD", "word": "freezer", "wordID": 603, "conditions": [24, 800, "a", 24000], "trial": 7, "serialpos": 22, "trial_type": "single-audio", "trial_index": 251, "time_elapsed": 1106712, "internal_node_id": "0.0-179.0"}}, {"uniqueid": "MTK1058:3TPZPLC3M1J3LDOT96WDDUJKDE3P34", "current_trial": 252, "dateTime": 1513022026790, "trialdata": {"rt": -1000, "stimulus": "/static/audio/wordpool/DOUGHNUT.wav", "key_press": -1, "type": "PRES_AUD", "word": "doughnut", "wordID": 489, "conditions": [24, 800, "a", 24000], "trial": 7, "serialpos": 23, "trial_type": "single-audio", "trial_index": 252, "time_elapsed": 1108393, "internal_node_id": "0.0-180.0"}}, {"uniqueid": "MTK1058:3TPZPLC3M1J3LDOT96WDDUJKDE3P34", "current_trial": 253, "dateTime": 1513022028165, "trialdata": {"rt": -1, "stimulus": "", "key_press": -1, "type": "PRE_RECALL_DELAY", "trial_type": "single-stim", "trial_index": 253, "time_elapsed": 1109768, "internal_node_id": "0.0-181.0-0.0"}}, {"uniqueid": "MTK1058:3TPZPLC3M1J3LDOT96WDDUJKDE3P34", "current_trial": 254, "dateTime": 1513022028668, "trialdata": {"rt": -1000, "stimulus": "/static/audio/400Hz.wav", "key_press": -1, "type": "PRE_RECALL_ALERT", "trial_type": "single-audio", "trial_index": 254, "time_elapsed": 1110270, "internal_node_id": "0.0-182.0"}}, {"uniqueid": "MTK1058:3TPZPLC3M1J3LDOT96WDDUJKDE3P34", "current_trial": 255, "dateTime": 1513022088681, "trialdata": {"rt": [2967, 5407, 6991, 9430, 12454, 20394, 22727], "recwords": ["dashboard", "donut", "pizza", "fragrence", "perfume", "hornet", "jacket"], "type": "FREE_RECALL", "conditions": [24, 800, "a", 24000], "trial": 7, "trial_type": "free-recall", "trial_index": 255, "time_elapsed": 1170277, "internal_node_id": "0.0-183.0-0.0"}}, {"uniqueid": "MTK1058:3TPZPLC3M1J3LDOT96WDDUJKDE3P34", "current_trial": 256, "dateTime": 1513022092776, "trialdata": {"rt": 2054, "key_press": 13, "type": "INSTRUCTIONS", "trial_type": "text", "trial_index": 256, "time_elapsed": 1174375, "internal_node_id": "0.0-184.0"}}, {"uniqueid": "MTK1058:3TPZPLC3M1J3LDOT96WDDUJKDE3P34", "current_trial": 257, "dateTime": 1513022106789, "trialdata": {"rt": [2321, 5026, 6802, 8346, 10399], "responses": ["18", "21", "15", "17", "18"], "num1": [3, 9, 6, 7, 9, 7], "num2": [9, 5, 1, 7, 2, 8], "num3": [6, 7, 8, 3, 7, 6], "type": "DISTRACTOR", "conditions": [12, 1600, "v", 12000], "trial": 8, "trial_type": "math-distractor", "trial_index": 257, "time_elapsed": 1188392, "internal_node_id": "0.0-185.0"}}, {"uniqueid": "MTK1058:3TPZPLC3M1J3LDOT96WDDUJKDE3P34", "current_trial": 258, "dateTime": 1513022109798, "trialdata": {"rt": -1, "stimulus": "<p id=\"stim\">10</p>", "key_press": -1, "trial_type": "single-stim", "trial_index": 258, "time_elapsed": 1191398, "internal_node_id": "0.0-186.0-0.0"}}, {"uniqueid": "MTK1058:3TPZPLC3M1J3LDOT96WDDUJKDE3P34", "current_trial": 259, "dateTime": 1513022110803, "trialdata": {"rt": -1, "stimulus": "<p id=\"stim\">9</p>", "key_press": -1, "trial_type": "single-stim", "trial_index": 259, "time_elapsed": 1192406, "internal_node_id": "0.0-186.0-1.0"}}, {"uniqueid": "MTK1058:3TPZPLC3M1J3LDOT96WDDUJKDE3P34", "current_trial": 260, "dateTime": 1513022111808, "trialdata": {"rt": -1, "stimulus": "<p id=\"stim\">8</p>", "key_press": -1, "trial_type": "single-stim", "trial_index": 260, "time_elapsed": 1193411, "internal_node_id": "0.0-186.0-2.0"}}, {"uniqueid": "MTK1058:3TPZPLC3M1J3LDOT96WDDUJKDE3P34", "current_trial": 261, "dateTime": 1513022112812, "trialdata": {"rt": -1, "stimulus": "<p id=\"stim\">7</p>", "key_press": -1, "trial_type": "single-stim", "trial_index": 261, "time_elapsed": 1194415, "internal_node_id": "0.0-186.0-3.0"}}, {"uniqueid": "MTK1058:3TPZPLC3M1J3LDOT96WDDUJKDE3P34", "current_trial": 262, "dateTime": 1513022113817, "trialdata": {"rt": -1, "stimulus": "<p id=\"stim\">6</p>", "key_press": -1, "trial_type": "single-stim", "trial_index": 262, "time_elapsed": 1195420, "internal_node_id": "0.0-186.0-4.0"}}, {"uniqueid": "MTK1058:3TPZPLC3M1J3LDOT96WDDUJKDE3P34", "current_trial": 263, "dateTime": 1513022114821, "trialdata": {"rt": -1, "stimulus": "<p id=\"stim\">5</p>", "key_press": -1, "trial_type": "single-stim", "trial_index": 263, "time_elapsed": 1196424, "internal_node_id": "0.0-186.0-5.0"}}, {"uniqueid": "MTK1058:3TPZPLC3M1J3LDOT96WDDUJKDE3P34", "current_trial": 264, "dateTime": 1513022115837, "trialdata": {"rt": -1, "stimulus": "<p id=\"stim\">4</p>", "key_press": -1, "trial_type": "single-stim", "trial_index": 264, "time_elapsed": 1197440, "internal_node_id": "0.0-186.0-6.0"}}, {"uniqueid": "MTK1058:3TPZPLC3M1J3LDOT96WDDUJKDE3P34", "current_trial": 265, "dateTime": 1513022116842, "trialdata": {"rt": -1, "stimulus": "<p id=\"stim\">3</p>", "key_press": -1, "trial_type": "single-stim", "trial_index": 265, "time_elapsed": 1198445, "internal_node_id": "0.0-186.0-7.0"}}, {"uniqueid": "MTK1058:3TPZPLC3M1J3LDOT96WDDUJKDE3P34", "current_trial": 266, "dateTime": 1513022117850, "trialdata": {"rt": -1, "stimulus": "<p id=\"stim\">2</p>", "key_press": -1, "trial_type": "single-stim", "trial_index": 266, "time_elapsed": 1199453, "internal_node_id": "0.0-186.0-8.0"}}, {"uniqueid": "MTK1058:3TPZPLC3M1J3LDOT96WDDUJKDE3P34", "current_trial": 267, "dateTime": 1513022118859, "trialdata": {"rt": -1, "stimulus": "<p id=\"stim\">1</p>", "key_press": -1, "trial_type": "single-stim", "trial_index": 267, "time_elapsed": 1200458, "internal_node_id": "0.0-186.0-9.0"}}, {"uniqueid": "MTK1058:3TPZPLC3M1J3LDOT96WDDUJKDE3P34", "current_trial": 268, "dateTime": 1513022120507, "trialdata": {"rt": -1, "stimulus": "<p id=\"stim\">+</p>", "key_press": -1, "type": "FIXATION", "trial_type": "single-stim", "trial_index": 268, "time_elapsed": 1202110, "internal_node_id": "0.0-187.0-0.0"}}, {"uniqueid": "MTK1058:3TPZPLC3M1J3LDOT96WDDUJKDE3P34", "current_trial": 269, "dateTime": 1513022122112, "trialdata": {"rt": -1, "stimulus": "<p id=\"stim\">CLAMP</p>", "key_press": -1, "type": "PRES_VIS", "word": "clamp", "wordID": 315, "conditions": [12, 1600, "v", 12000], "trial": 8, "serialpos": 0, "trial_type": "single-stim", "trial_index": 269, "time_elapsed": 1203715, "internal_node_id": "0.0-188.0"}}, {"uniqueid": "MTK1058:3TPZPLC3M1J3LDOT96WDDUJKDE3P34", "current_trial": 270, "dateTime": 1513022124677, "trialdata": {"rt": -1, "stimulus": "<p id=\"stim\">SWITCH</p>", "key_press": -1, "type": "PRES_VIS", "word": "switch", "wordID": 1421, "conditions": [12, 1600, "v", 12000], "trial": 8, "serialpos": 1, "trial_type": "single-stim", "trial_index": 270, "time_elapsed": 1206280, "internal_node_id": "0.0-189.0"}}, {"uniqueid": "MTK1058:3TPZPLC3M1J3LDOT96WDDUJKDE3P34", "current_trial": 271, "dateTime": 1513022127234, "trialdata": {"rt": -1, "stimulus": "<p id=\"stim\">PIMPLE</p>", "key_press": -1, "type": "PRES_VIS", "word": "pimple", "wordID": 1070, "conditions": [12, 1600, "v", 12000], "trial": 8, "serialpos": 2, "trial_type": "single-stim", "trial_index": 271, "time_elapsed": 1208837, "internal_node_id": "0.0-190.0"}}, {"uniqueid": "MTK1058:3TPZPLC3M1J3LDOT96WDDUJKDE3P34", "current_trial": 272, "dateTime": 1513022129977, "trialdata": {"rt": -1, "stimulus": "<p id=\"stim\">SCALLOP</p>", "key_press": -1, "type": "PRES_VIS", "word": "scallop", "wordID": 1241, "conditions": [12, 1600, "v", 12000], "trial": 8, "serialpos": 3, "trial_type": "single-stim", "trial_index": 272, "time_elapsed": 1211580, "internal_node_id": "0.0-191.0"}}, {"uniqueid": "MTK1058:3TPZPLC3M1J3LDOT96WDDUJKDE3P34", "current_trial": 273, "dateTime": 1513022132569, "trialdata": {"rt": -1, "stimulus": "<p id=\"stim\">WORLD</p>", "key_press": -1, "type": "PRES_VIS", "word": "world", "wordID": 1621, "conditions": [12, 1600, "v", 12000], "trial": 8, "serialpos": 4, "trial_type": "single-stim", "trial_index": 273, "time_elapsed": 1214172, "internal_node_id": "0.0-192.0"}}, {"uniqueid": "MTK1058:3TPZPLC3M1J3LDOT96WDDUJKDE3P34", "current_trial": 27