{"assignmentId": "3LUY3GC6307LMWPGBIZ3QBV0KX4P7O", "workerId": "MTK1369", "questiondata": {"origin": "United States", "strat-rehearsal": "87", "marital": "Married/Domestic Partnership", "education": "Bachelor's degree", "ethnicity": "Not Hispanic", "color_depth": 24, "distracted": "No", "wrote-notes": "No", "strat-other": "Occassionally, a string of words in a row made a funny expression or oxymoron-like phrase that was humorous and made it easier to remember that group of words. Paying attention to the way the speaker said some of the words differently than I would say them (with a different emphasis) helped me remember some of the words. ", "screen_width": 1366, "avail_screen_width": 1366, "avail_screen_height": 728, "strat-image": "25", "language": "English", "gender": "Male", "age": "29", "gender_other": "", "race": ["White"], "strat-categorize": "68", "pixel_depth": 24, "strat-spatial": "0", "strat-story": "65", "race_other": "", "screen_height": 768}, "bonus": 0, "hitId": "389A2A304OPMNCIYVCNM2CQMW020CC", "counterbalance": 2997, "useragent": "Mozilla/5.0 (Windows NT 10.0; Win64; x64) AppleWebKit/537.36 (KHTML, like Gecko) Chrome/63.0.3239.132 Safari/537.36", "eventdata": [{"eventtype": "initialized", "interval": 0, "value": null, "timestamp": 1515864461883}, {"eventtype": "window_resize", "interval": 0, "value": [1366, 721], "timestamp": 1515864461883}, {"eventtype": "window_resize", "interval": 1984, "value": [1366, 677], "timestamp": 1515864463867}, {"eventtype": "window_resize", "interval": 4899, "value": [1366, 721], "timestamp": 1515864468766}, {"eventtype": "focus", "interval": 25177, "value": "off", "timestamp": 1515864493943}, {"eventtype": "focus", "interval": 15074, "value": "on", "timestamp": 1515864509017}, {"eventtype": "focus", "interval": 3369, "value": "off", "timestamp": 1515864512386}, {"eventtype": "focus", "interval": 7991, "value": "on", "timestamp": 1515864520377}, {"eventtype": "window_resize", "interval": 1862, "value": [1366, 677], "timestamp": 1515864522239}], "data": [{"current_trial": 0, "trialdata": {"rt": 20761, "trial_type": "text", "internal_node_id": "0.0-0.0", "time_elapsed": 20763, "key_press": 13, "type": "INSTRUCTIONS", "trial_index": 0}, "uniqueid": "MTK1369:3LUY3GC6307LMWPGBIZ3QBV0KX4P7O", "dateTime": 1515864522720}, {"current_trial": 1, "trialdata": {"rt": 18378, "trial_type": "text", "internal_node_id": "0.0-1.0", "time_elapsed": 39143, "key_press": 13, "type": "INSTRUCTIONS", "trial_index": 1}, "uniqueid": "MTK1369:3LUY3GC6307LMWPGBIZ3QBV0KX4P7O", "dateTime": 1515864541100}, {"current_trial": 2, "trialdata": {"rt": [5164], "trial_type": "audio-test", "responses": ["ocean"], "internal_node_id": "0.0-2.0", "time_elapsed": 44335, "type": "AUDIO_TEST", "trial_index": 2}, "uniqueid": "MTK1369:3LUY3GC6307LMWPGBIZ3QBV0KX4P7O", "dateTime": 1515864546292}, {"current_trial": 3, "trialdata": {"rt": [7222], "trial_type": "audio-test", "responses": ["crystal"], "internal_node_id": "0.0-3.0", "time_elapsed": 51562, "type": "AUDIO_TEST", "trial_index": 3}, "uniqueid": "MTK1369:3LUY3GC6307LMWPGBIZ3QBV0KX4P7O", "dateTime": 1515864553519}, {"current_trial": 4, "trialdata": {"rt": [6410], "trial_type": "audio-test", "responses": ["spice"], "internal_node_id": "0.0-4.0", "time_elapsed": 57976, "type": "AUDIO_TEST", "trial_index": 4}, "uniqueid": "MTK1369:3LUY3GC6307LMWPGBIZ3QBV0KX4P7O", "dateTime": 1515864559933}, {"current_trial": 5, "trialdata": {"rt": 27349, "trial_type": "survey-text", "responses": "{\"Q0\":\"11:30\",\"Q1\":\"8:15\",\"Q2\":\"5\"}", "internal_node_id": "0.0-5.0", "time_elapsed": 86078, "type": "SLEEP_SURVEY", "trial_index": 5}, "uniqueid": "MTK1369:3LUY3GC6307LMWPGBIZ3QBV0KX4P7O", "dateTime": 1515864588035}, {"current_trial": 6, "trialdata": {"rt": 44912, "trial_type": "text", "internal_node_id": "0.0-6.0", "time_elapsed": 131992, "key_press": 13, "type": "INSTRUCTIONS", "trial_index": 6}, "uniqueid": "MTK1369:3LUY3GC6307LMWPGBIZ3QBV0KX4P7O", "dateTime": 1515864633949}, {"current_trial": 7, "trialdata": {"rt": 13775, "trial_type": "text", "internal_node_id": "0.0-7.0", "time_elapsed": 146268, "key_press": 175, "type": "INSTRUCTIONS", "trial_index": 7}, "uniqueid": "MTK1369:3LUY3GC6307LMWPGBIZ3QBV0KX4P7O", "dateTime": 1515864648225}, {"current_trial": 8, "trialdata": {"rt": 1862, "trial_type": "text", "internal_node_id": "0.0-8.0", "time_elapsed": 148631, "key_press": 175, "type": "INSTRUCTIONS", "trial_index": 8}, "uniqueid": "MTK1369:3LUY3GC6307LMWPGBIZ3QBV0KX4P7O", "dateTime": 1515864650588}, {"current_trial": 9, "trialdata": {"rt": [3816, 6131, 8245, 11495, 13582, 15044, 17226], "trial_type": "math-distractor", "key_times": [3177, 3312, 3816, 5654, 5827, 6131, 7763, 7869, 8245, 10804, 10946, 11495, 13140, 13247, 13582, 14582, 14750, 15044, 16562, 16903, 17226], "responses": ["13", "15", "10", "11", "17", "11", "16"], "num2": [7, 4, 3, 7, 7, 6, 9, 5], "num3": [5, 4, 4, 2, 2, 1, 6, 6], "conditions": [18, 1200, "a", 18000], "internal_node_id": "0.0-9.0", "key_presses": [49, 51, 13, 49, 53, 13, 49, 48, 13, 49, 49, 13, 49, 55, 13, 49, 49, 13, 49, 54, 13], "trial": 0, "time_elapsed": 167637, "type": "DISTRACTOR", "trial_index": 9, "num1": [1, 7, 3, 2, 8, 4, 1, 1]}, "uniqueid": "MTK1369:3LUY3GC6307LMWPGBIZ3QBV0KX4P7O", "dateTime": 1515864669594}, {"current_trial": 10, "trialdata": {"rt": -1, "trial_type": "single-stim", "stimulus": "<p id=\"stim\">10</p>", "internal_node_id": "0.0-10.0-0.0", "time_elapsed": 170641, "key_press": -1, "trial_index": 10}, "uniqueid": "MTK1369:3LUY3GC6307LMWPGBIZ3QBV0KX4P7O", "dateTime": 1515864672598}, {"current_trial": 11, "trialdata": {"rt": -1, "trial_type": "single-stim", "stimulus": "<p id=\"stim\">9</p>", "internal_node_id": "0.0-10.0-1.0", "time_elapsed": 171643, "key_press": -1, "trial_index": 11}, "uniqueid": "MTK1369:3LUY3GC6307LMWPGBIZ3QBV0KX4P7O", "dateTime": 1515864673600}, {"current_trial": 12, "trialdata": {"rt": -1, "trial_type": "single-stim", "stimulus": "<p id=\"stim\">8</p>", "internal_node_id": "0.0-10.0-2.0", "time_elapsed": 172644, "key_press": -1, "trial_index": 12}, "uniqueid": "MTK1369:3LUY3GC6307LMWPGBIZ3QBV0KX4P7O", "dateTime": 1515864674602}, {"current_trial": 13, "trialdata": {"rt": -1, "trial_type": "single-stim", "stimulus": "<p id=\"stim\">7</p>", "internal_node_id": "0.0-10.0-3.0", "time_elapsed": 173645, "key_press": -1, "trial_index": 13}, "uniqueid": "MTK1369:3LUY3GC6307LMWPGBIZ3QBV0KX4P7O", "dateTime": 1515864675603}, {"current_trial": 14, "trialdata": {"rt": -1, "trial_type": "single-stim", "stimulus": "<p id=\"stim\">6</p>", "internal_node_id": "0.0-10.0-4.0", "time_elapsed": 174646, "key_press": -1, "trial_index": 14}, "uniqueid": "MTK1369:3LUY3GC6307LMWPGBIZ3QBV0KX4P7O", "dateTime": 1515864676603}, {"current_trial": 15, "trialdata": {"rt": -1, "trial_type": "single-stim", "stimulus": "<p id=\"stim\">5</p>", "internal_node_id": "0.0-10.0-5.0", "time_elapsed": 175647, "key_press": -1, "trial_index": 15}, "uniqueid": "MTK1369:3LUY3GC6307LMWPGBIZ3QBV0KX4P7O", "dateTime": 1515864677604}, {"current_trial": 16, "trialdata": {"rt": -1, "trial_type": "single-stim", "stimulus": "<p id=\"stim\">4</p>", "internal_node_id": "0.0-10.0-6.0", "time_elapsed": 176649, "key_press": -1, "trial_index": 16}, "uniqueid": "MTK1369:3LUY3GC6307LMWPGBIZ3QBV0KX4P7O", "dateTime": 1515864678606}, {"current_trial": 17, "trialdata": {"rt": -1, "trial_type": "single-stim", "stimulus": "<p id=\"stim\">3</p>", "internal_node_id": "0.0-10.0-7.0", "time_elapsed": 177650, "key_press": -1, "trial_index": 17}, "uniqueid": "MTK1369:3LUY3GC6307LMWPGBIZ3QBV0KX4P7O", "dateTime": 1515864679607}, {"current_trial": 18, "trialdata": {"rt": -1, "trial_type": "single-stim", "stimulus": "<p id=\"stim\">2</p>", "internal_node_id": "0.0-10.0-8.0", "time_elapsed": 178653, "key_press": -1, "trial_index": 18}, "uniqueid": "MTK1369:3LUY3GC6307LMWPGBIZ3QBV0KX4P7O", "dateTime": 1515864680610}, {"current_trial": 19, "trialdata": {"rt": -1, "trial_type": "single-stim", "stimulus": "<p id=\"stim\">1</p>", "internal_node_id": "0.0-10.0-9.0", "time_elapsed": 179654, "key_press": -1, "trial_index": 19}, "uniqueid": "MTK1369:3LUY3GC6307LMWPGBIZ3QBV0KX4P7O", "dateTime": 1515864681611}, {"current_trial": 20, "trialdata": {"rt": -1, "trial_type": "single-stim", "stimulus": "<p id=\"stim\">+</p>", "internal_node_id": "0.0-11.0-0.0", "time_elapsed": 181156, "key_press": -1, "type": "FIXATION", "trial_index": 20}, "uniqueid": "MTK1369:3LUY3GC6307LMWPGBIZ3QBV0KX4P7O", "dateTime": 1515864683113}, {"current_trial": 21, "trialdata": {"rt": -1000, "trial_type": "single-audio", "word": "cobra", "stimulus": "/static/audio/wordpool/COBRA.wav", "conditions": [18, 1200, "a", 18000], "internal_node_id": "0.0-12.0", "trial": 0, "time_elapsed": 183545, "serialpos": 0, "key_press": -1, "wordID": 335, "type": "PRES_AUD", "trial_index": 21}, "uniqueid": "MTK1369:3LUY3GC6307LMWPGBIZ3QBV0KX4P7O", "dateTime": 1515864685502}, {"current_trial": 22, "trialdata": {"rt": -1000, "trial_type": "single-audio", "word": "pocket", "stimulus": "/static/audio/wordpool/POCKET.wav", "conditions": [18, 1200, "a", 18000], "internal_node_id": "0.0-13.0", "trial": 0, "time_elapsed": 185664, "serialpos": 1, "key_press": -1, "wordID": 1092, "type": "PRES_AUD", "trial_index": 22}, "uniqueid": "MTK1369:3LUY3GC6307LMWPGBIZ3QBV0KX4P7O", "dateTime": 1515864687621}, {"current_trial": 23, "trialdata": {"rt": -1000, "trial_type": "single-audio", "word": "velvet", "stimulus": "/static/audio/wordpool/VELVET.wav", "conditions": [18, 1200, "a", 18000], "internal_node_id": "0.0-14.0", "trial": 0, "time_elapsed": 187713, "serialpos": 2, "key_press": -1, "wordID": 1554, "type": "PRES_AUD", "trial_index": 23}, "uniqueid": "MTK1369:3LUY3GC6307LMWPGBIZ3QBV0KX4P7O", "dateTime": 1515864689670}, {"current_trial": 24, "trialdata": {"rt": -1000, "trial_type": "single-audio", "word": "tablet", "stimulus": "/static/audio/wordpool/TABLET.wav", "conditions": [18, 1200, "a", 18000], "internal_node_id": "0.0-15.0", "trial": 0, "time_elapsed": 189911, "serialpos": 3, "key_press": -1, "wordID": 1426, "type": "PRES_AUD", "trial_index": 24}, "uniqueid": "MTK1369:3LUY3GC6307LMWPGBIZ3QBV0KX4P7O", "dateTime": 1515864691868}, {"current_trial": 25, "trialdata": {"rt": -1000, "trial_type": "single-audio", "word": "bunny", "stimulus": "/static/audio/wordpool/BUNNY.wav", "conditions": [18, 1200, "a", 18000], "internal_node_id": "0.0-16.0", "trial": 0, "time_elapsed": 192304, "serialpos": 4, "key_press": -1, "wordID": 197, "type": "PRES_AUD", "trial_index": 25}, "uniqueid": "MTK1369:3LUY3GC6307LMWPGBIZ3QBV0KX4P7O", "dateTime": 1515864694261}, {"current_trial": 26, "trialdata": {"rt": -1000, "trial_type": "single-audio", "word": "saddle", "stimulus": "/static/audio/wordpool/SADDLE.wav", "conditions": [18, 1200, "a", 18000], "internal_node_id": "0.0-17.0", "trial": 0, "time_elapsed": 194617, "serialpos": 5, "key_press": -1, "wordID": 1220, "type": "PRES_AUD", "trial_index": 26}, "uniqueid": "MTK1369:3LUY3GC6307LMWPGBIZ3QBV0KX4P7O", "dateTime": 1515864696574}, {"current_trial": 27, "trialdata": {"rt": -1000, "trial_type": "single-audio", "word": "taxi", "stimulus": "/static/audio/wordpool/TAXI.wav", "conditions": [18, 1200, "a", 18000], "internal_node_id": "0.0-18.0", "trial": 0, "time_elapsed": 196875, "serialpos": 6, "key_press": -1, "wordID": 1437, "type": "PRES_AUD", "trial_index": 27}, "uniqueid": "MTK1369:3LUY3GC6307LMWPGBIZ3QBV0KX4P7O", "dateTime": 1515864698832}, {"current_trial": 28, "trialdata": {"rt": -1000, "trial_type": "single-audio", "word": "peach", "stimulus": "/static/audio/wordpool/PEACH.wav", "conditions": [18, 1200, "a", 18000], "internal_node_id": "0.0-19.0", "trial": 0, "time_elapsed": 198976, "serialpos": 7, "key_press": -1, "wordID": 1030, "type": "PRES_AUD", "trial_index": 28}, "uniqueid": "MTK1369:3LUY3GC6307LMWPGBIZ3QBV0KX4P7O", "dateTime": 1515864700933}, {"current_trial": 29, "trialdata": {"rt": -1000, "trial_type": "single-audio", "word": "slope", "stimulus": "/static/audio/wordpool/SLOPE.wav", "conditions": [18, 1200, "a", 18000], "internal_node_id": "0.0-20.0", "trial": 0, "time_elapsed": 201217, "serialpos": 8, "key_press": -1, "wordID": 1327, "type": "PRES_AUD", "trial_index": 29}, "uniqueid": "MTK1369:3LUY3GC6307LMWPGBIZ3QBV0KX4P7O", "dateTime": 1515864703174}, {"current_trial": 30, "trialdata": {"rt": -1000, "trial_type": "single-audio", "word": "airport", "stimulus": "/static/audio/wordpool/AIRPORT.wav", "conditions": [18, 1200, "a", 18000], "internal_node_id": "0.0-21.0", "trial": 0, "time_elapsed": 203434, "serialpos": 9, "key_press": -1, "wordID": 12, "type": "PRES_AUD", "trial_index": 30}, "uniqueid": "MTK1369:3LUY3GC6307LMWPGBIZ3QBV0KX4P7O", "dateTime": 1515864705391}, {"current_trial": 31, "trialdata": {"rt": -1000, "trial_type": "single-audio", "word": "coin", "stimulus": "/static/audio/wordpool/COIN.wav", "conditions": [18, 1200, "a", 18000], "internal_node_id": "0.0-22.0", "trial": 0, "time_elapsed": 205732, "serialpos": 10, "key_press": -1, "wordID": 342, "type": "PRES_AUD", "trial_index": 31}, "uniqueid": "MTK1369:3LUY3GC6307LMWPGBIZ3QBV0KX4P7O", "dateTime": 1515864707689}, {"current_trial": 32, "trialdata": {"rt": -1000, "trial_type": "single-audio", "word": "lagoon", "stimulus": "/static/audio/wordpool/LAGOON.wav", "conditions": [18, 1200, "a", 18000], "internal_node_id": "0.0-23.0", "trial": 0, "time_elapsed": 207777, "serialpos": 11, "key_press": -1, "wordID": 794, "type": "PRES_AUD", "trial_index": 32}, "uniqueid": "MTK1369:3LUY3GC6307LMWPGBIZ3QBV0KX4P7O", "dateTime": 1515864709734}, {"current_trial": 33, "trialdata": {"rt": -1000, "trial_type": "single-audio", "word": "dancer", "stimulus": "/static/audio/wordpool/DANCER.wav", "conditions": [18, 1200, "a", 18000], "internal_node_id": "0.0-24.0", "trial": 0, "time_elapsed": 210034, "serialpos": 12, "key_press": -1, "wordID": 436, "type": "PRES_AUD", "trial_index": 33}, "uniqueid": "MTK1369:3LUY3GC6307LMWPGBIZ3QBV0KX4P7O", "dateTime": 1515864711991}, {"current_trial": 34, "trialdata": {"rt": -1000, "trial_type": "single-audio", "word": "turnip", "stimulus": "/static/audio/wordpool/TURNIP.wav", "conditions": [18, 1200, "a", 18000], "internal_node_id": "0.0-25.0", "trial": 0, "time_elapsed": 212418, "serialpos": 13, "key_press": -1, "wordID": 1520, "type": "PRES_AUD", "trial_index": 34}, "uniqueid": "MTK1369:3LUY3GC6307LMWPGBIZ3QBV0KX4P7O", "dateTime": 1515864714375}, {"current_trial": 35, "trialdata": {"rt": -1000, "trial_type": "single-audio", "word": "creature", "stimulus": "/static/audio/wordpool/CREATURE.wav", "conditions": [18, 1200, "a", 18000], "internal_node_id": "0.0-26.0", "trial": 0, "time_elapsed": 214657, "serialpos": 14, "key_press": -1, "wordID": 402, "type": "PRES_AUD", "trial_index": 35}, "uniqueid": "MTK1369:3LUY3GC6307LMWPGBIZ3QBV0KX4P7O", "dateTime": 1515864716614}, {"current_trial": 36, "trialdata": {"rt": -1000, "trial_type": "single-audio", "word": "lion", "stimulus": "/static/audio/wordpool/LION.wav", "conditions": [18, 1200, "a", 18000], "internal_node_id": "0.0-27.0", "trial": 0, "time_elapsed": 216884, "serialpos": 15, "key_press": -1, "wordID": 826, "type": "PRES_AUD", "trial_index": 36}, "uniqueid": "MTK1369:3LUY3GC6307LMWPGBIZ3QBV0KX4P7O", "dateTime": 1515864718841}, {"current_trial": 37, "trialdata": {"rt": -1000, "trial_type": "single-audio", "word": "clothes", "stimulus": "/static/audio/wordpool/CLOTHES.wav", "conditions": [18, 1200, "a", 18000], "internal_node_id": "0.0-28.0", "trial": 0, "time_elapsed": 219020, "serialpos": 16, "key_press": -1, "wordID": 326, "type": "PRES_AUD", "trial_index": 37}, "uniqueid": "MTK1369:3LUY3GC6307LMWPGBIZ3QBV0KX4P7O", "dateTime": 1515864720977}, {"current_trial": 38, "trialdata": {"rt": -1000, "trial_type": "single-audio", "word": "slug", "stimulus": "/static/audio/wordpool/SLUG.wav", "conditions": [18, 1200, "a", 18000], "internal_node_id": "0.0-29.0", "trial": 0, "time_elapsed": 221316, "serialpos": 17, "key_press": -1, "wordID": 1328, "type": "PRES_AUD", "trial_index": 38}, "uniqueid": "MTK1369:3LUY3GC6307LMWPGBIZ3QBV0KX4P7O", "dateTime": 1515864723273}, {"current_trial": 39, "trialdata": {"rt": -1, "trial_type": "single-stim", "stimulus": "", "internal_node_id": "0.0-30.0-0.0", "time_elapsed": 222570, "key_press": -1, "type": "PRE_RECALL_DELAY", "trial_index": 39}, "uniqueid": "MTK1369:3LUY3GC6307LMWPGBIZ3QBV0KX4P7O", "dateTime": 1515864724527}, {"current_trial": 40, "trialdata": {"rt": -1000, "trial_type": "single-audio", "stimulus": "/static/audio/400Hz.wav", "internal_node_id": "0.0-31.0", "time_elapsed": 223073, "key_press": -1, "type": "PRE_RECALL_ALERT", "trial_index": 40}, "uniqueid": "MTK1369:3LUY3GC6307LMWPGBIZ3QBV0KX4P7O", "dateTime": 1515864725030}, {"current_trial": 41, "trialdata": {"rt": [3698, 4849, 6513, 8026, 9736, 10820, 12700, 17295, 20288, 22527, 33384, 52135], "recwords": ["preacher", "peach", "bunny", "slope", "airport", "lion", "slug", "pogrom", "saddle", "coin", "taxi", "bunny"], "key_times": [1800, 1883, 1940, 2033, 2215, 2373, 2465, 2549, 3698, 4043, 4145, 4226, 4358, 4453, 4849, 5223, 5288, 5568, 5690, 6040, 6513, 6808, 6929, 7172, 7501, 7697, 8026, 8497, 8696, 8814, 8996, 9184, 9299, 9469, 9736, 10160, 10356, 10417, 10546, 10820, 11318, 11429, 11633, 11755, 12700, 14602, 15377, 15494, 16032, 16175, 16360, 16428, 16519, 17295, 19149, 19329, 19453, 19603, 19699, 19794, 20288, 21930, 22021, 22085, 22153, 22527, 31586, 32203, 32840, 32911, 33384, 50768, 50859, 51355, 51474, 51576, 52135], "trial_type": "free-recall", "conditions": [18, 1200, "a", 18000], "internal_node_id": "0.0-32.0-0.0", "key_presses": [80, 82, 69, 65, 67, 72, 69, 82, 13, 80, 69, 65, 67, 72, 13, 66, 85, 78, 78, 89, 13, 83, 76, 79, 80, 69, 13, 65, 73, 82, 80, 79, 82, 84, 13, 76, 73, 79, 78, 13, 83, 76, 85, 71, 13, 80, 79, 82, 8, 71, 82, 79, 77, 13, 83, 65, 68, 68, 76, 69, 13, 67, 79, 73, 78, 13, 84, 65, 88, 73, 13, 66, 85, 78, 78, 89, 13], "trial": 0, "time_elapsed": 283076, "type": "FREE_RECALL", "trial_index": 41}, "uniqueid": "MTK1369:3LUY3GC6307LMWPGBIZ3QBV0KX4P7O", "dateTime": 1515864785035}, {"current_trial": 42, "trialdata": {"rt": 1812, "trial_type": "text", "internal_node_id": "0.0-33.0", "time_elapsed": 286891, "key_press": 13, "type": "INSTRUCTIONS", "trial_index": 42}, "uniqueid": "MTK1369:3LUY3GC6307LMWPGBIZ3QBV0KX4P7O", "dateTime": 1515864788848}, {"current_trial": 43, "trialdata": {"rt": [3036, 4895, 6738, 8885, 10677, 12747, 15031, 17953], "trial_type": "math-distractor", "key_times": [2044, 2643, 3036, 4176, 4570, 4895, 6378, 6489, 6738, 8350, 8495, 8885, 10277, 10420, 10677, 12284, 12747, 14540, 14751, 15031, 17572, 17744, 17953], "responses": ["14", "16", "19", "14", "11", "7", "16", "23"], "num2": [6, 7, 5, 6, 4, 3, 6, 9, 4], "num3": [5, 6, 7, 6, 4, 1, 3, 8, 8], "conditions": [18, 1200, "a", 18000], "internal_node_id": "0.0-34.0", "key_presses": [49, 52, 13, 49, 54, 13, 49, 57, 13, 49, 52, 13, 49, 49, 13, 55, 13, 49, 54, 13, 50, 51, 13], "trial": 1, "time_elapsed": 306894, "type": "DISTRACTOR", "trial_index": 43, "num1": [3, 3, 7, 2, 3, 3, 7, 6, 5]}, "uniqueid": "MTK1369:3LUY3GC6307LMWPGBIZ3QBV0KX4P7O", "dateTime": 1515864808851}, {"current_trial": 44, "trialdata": {"rt": -1, "trial_type": "single-stim", "stimulus": "<p id=\"stim\">10</p>", "internal_node_id": "0.0-35.0-0.0", "time_elapsed": 309896, "key_press": -1, "trial_index": 44}, "uniqueid": "MTK1369:3LUY3GC6307LMWPGBIZ3QBV0KX4P7O", "dateTime": 1515864811853}, {"current_trial": 45, "trialdata": {"rt": -1, "trial_type": "single-stim", "stimulus": "<p id=\"stim\">9</p>", "internal_node_id": "0.0-35.0-1.0", "time_elapsed": 310896, "key_press": -1, "trial_index": 45}, "uniqueid": "MTK1369:3LUY3GC6307LMWPGBIZ3QBV0KX4P7O", "dateTime": 1515864812853}, {"current_trial": 46, "trialdata": {"rt": -1, "trial_type": "single-stim", "stimulus": "<p id=\"stim\">8</p>", "internal_node_id": "0.0-35.0-2.0", "time_elapsed": 311898, "key_press": -1, "trial_index": 46}, "uniqueid": "MTK1369:3LUY3GC6307LMWPGBIZ3QBV0KX4P7O", "dateTime": 1515864813855}, {"current_trial": 47, "trialdata": {"rt": -1, "trial_type": "single-stim", "stimulus": "<p id=\"stim\">7</p>", "internal_node_id": "0.0-35.0-3.0", "time_elapsed": 312900, "key_press": -1, "trial_index": 47}, "uniqueid": "MTK1369:3LUY3GC6307LMWPGBIZ3QBV0KX4P7O", "dateTime": 1515864814857}, {"current_trial": 48, "trialdata": {"rt": -1, "trial_type": "single-stim", "stimulus": "<p id=\"stim\">6</p>", "internal_node_id": "0.0-35.0-4.0", "time_elapsed": 313903, "key_press": -1, "trial_index": 48}, "uniqueid": "MTK1369:3LUY3GC6307LMWPGBIZ3QBV0KX4P7O", "dateTime": 1515864815860}, {"current_trial": 49, "trialdata": {"rt": -1, "trial_type": "single-stim", "stimulus": "<p id=\"stim\">5</p>", "internal_node_id": "0.0-35.0-5.0", "time_elapsed": 314905, "key_press": -1, "trial_index": 49}, "uniqueid": "MTK1369:3LUY3GC6307LMWPGBIZ3QBV0KX4P7O", "dateTime": 1515864816862}, {"current_trial": 50, "trialdata": {"rt": -1, "trial_type": "single-stim", "stimulus": "<p id=\"stim\">4</p>", "internal_node_id": "0.0-35.0-6.0", "time_elapsed": 315906, "key_press": -1, "trial_index": 50}, "uniqueid": "MTK1369:3LUY3GC6307LMWPGBIZ3QBV0KX4P7O", "dateTime": 1515864817863}, {"current_trial": 51, "trialdata": {"rt": -1, "trial_type": "single-stim", "stimulus": "<p id=\"stim\">3</p>", "internal_node_id": "0.0-35.0-7.0", "time_elapsed": 316908, "key_press": -1, "trial_index": 51}, "uniqueid": "MTK1369:3LUY3GC6307LMWPGBIZ3QBV0KX4P7O", "dateTime": 1515864818865}, {"current_trial": 52, "trialdata": {"rt": -1, "trial_type": "single-stim", "stimulus": "<p id=\"stim\">2</p>", "internal_node_id": "0.0-35.0-8.0", "time_elapsed": 317908, "key_press": -1, "trial_index": 52}, "uniqueid": "MTK1369:3LUY3GC6307LMWPGBIZ3QBV0KX4P7O", "dateTime": 1515864819866}, {"current_trial": 53, "trialdata": {"rt": -1, "trial_type": "single-stim", "stimulus": "<p id=\"stim\">1</p>", "internal_node_id": "0.0-35.0-9.0", "time_elapsed": 318910, "key_press": -1, "trial_index": 53}, "uniqueid": "MTK1369:3LUY3GC6307LMWPGBIZ3QBV0KX4P7O", "dateTime": 1515864820867}, {"current_trial": 54, "trialdata": {"rt": -1, "trial_type": "single-stim", "stimulus": "<p id=\"stim\">+</p>", "internal_node_id": "0.0-36.0-0.0", "time_elapsed": 320411, "key_press": -1, "type": "FIXATION", "trial_index": 54}, "uniqueid": "MTK1369:3LUY3GC6307LMWPGBIZ3QBV0KX4P7O", "dateTime": 1515864822368}, {"current_trial": 55, "trialdata": {"rt": -1000, "trial_type": "single-audio", "word": "forehead", "stimulus": "/static/audio/wordpool/FOREHEAD.wav", "conditions": [18, 1200, "a", 18000], "internal_node_id": "0.0-37.0", "trial": 1, "time_elapsed": 322458, "serialpos": 0, "key_press": -1, "wordID": 591, "type": "PRES_AUD", "trial_index": 55}, "uniqueid": "MTK1369:3LUY3GC6307LMWPGBIZ3QBV0KX4P7O", "dateTime": 1515864824415}, {"current_trial": 56, "trialdata": {"rt": -1000, "trial_type": "single-audio", "word": "piston", "stimulus": "/static/audio/wordpool/PISTON.wav", "conditions": [18, 1200, "a", 18000], "internal_node_id": "0.0-38.0", "trial": 1, "time_elapsed": 324858, "serialpos": 1, "key_press": -1, "wordID": 1075, "type": "PRES_AUD", "trial_index": 56}, "uniqueid": "MTK1369:3LUY3GC6307LMWPGBIZ3QBV0KX4P7O", "dateTime": 1515864826815}, {"current_trial": 57, "trialdata": {"rt": -1000, "trial_type": "single-audio", "word": "chest", "stimulus": "/static/audio/wordpool/CHEST.wav", "conditions": [18, 1200, "a", 18000], "internal_node_id": "0.0-39.0", "trial": 1, "time_elapsed": 327265, "serialpos": 2, "key_press": -1, "wordID": 294, "type": "PRES_AUD", "trial_index": 57}, "uniqueid": "MTK1369:3LUY3GC6307LMWPGBIZ3QBV0KX4P7O", "dateTime": 1515864829222}, {"current_trial": 58, "trialdata": {"rt": -1000, "trial_type": "single-audio", "word": "canal", "stimulus": "/static/audio/wordpool/CANAL.wav", "conditions": [18, 1200, "a", 18000], "internal_node_id": "0.0-40.0", "trial": 1, "time_elapsed": 329315, "serialpos": 3, "key_press": -1, "wordID": 225, "type": "PRES_AUD", "trial_index": 58}, "uniqueid": "MTK1369:3LUY3GC6307LMWPGBIZ3QBV0KX4P7O", "dateTime": 1515864831272}, {"current_trial": 59, "trialdata": {"rt": -1000, "trial_type": "single-audio", "word": "victim", "stimulus": "/static/audio/wordpool/VICTIM.wav", "conditions": [18, 1200, "a", 18000], "internal_node_id": "0.0-41.0", "trial": 1, "time_elapsed": 331608, "serialpos": 4, "key_press": -1, "wordID": 1561, "type": "PRES_AUD", "trial_index": 59}, "uniqueid": "MTK1369:3LUY3GC6307LMWPGBIZ3QBV0KX4P7O", "dateTime": 1515864833565}, {"current_trial": 60, "trialdata": {"rt": -1000, "trial_type": "single-audio", "word": "clock", "stimulus": "/static/audio/wordpool/CLOCK.wav", "conditions": [18, 1200, "a", 18000], "internal_node_id": "0.0-42.0", "trial": 1, "time_elapsed": 333882, "serialpos": 5, "key_press": -1, "wordID": 324, "type": "PRES_AUD", "trial_index": 60}, "uniqueid": "MTK1369:3LUY3GC6307LMWPGBIZ3QBV0KX4P7O", "dateTime": 1515864835839}, {"current_trial": 61, "trialdata": {"rt": -1000, "trial_type": "single-audio", "word": "heart", "stimulus": "/static/audio/wordpool/HEART.wav", "conditions": [18, 1200, "a", 18000], "internal_node_id": "0.0-43.0", "trial": 1, "time_elapsed": 336248, "serialpos": 6, "key_press": -1, "wordID": 696, "type": "PRES_AUD", "trial_index": 61}, "uniqueid": "MTK1369:3LUY3GC6307LMWPGBIZ3QBV0KX4P7O", "dateTime": 1515864838205}, {"current_trial": 62, "trialdata": {"rt": -1000, "trial_type": "single-audio", "word": "elbow", "stimulus": "/static/audio/wordpool/ELBOW.wav", "conditions": [18, 1200, "a", 18000], "internal_node_id": "0.0-44.0", "trial": 1, "time_elapsed": 338458, "serialpos": 7, "key_press": -1, "wordID": 519, "type": "PRES_AUD", "trial_index": 62}, "uniqueid": "MTK1369:3LUY3GC6307LMWPGBIZ3QBV0KX4P7O", "dateTime": 1515864840415}, {"current_trial": 63, "trialdata": {"rt": -1000, "trial_type": "single-audio", "word": "scotch", "stimulus": "/static/audio/wordpool/SCOTCH.wav", "conditions": [18, 1200, "a", 18000], "internal_node_id": "0.0-45.0", "trial": 1, "time_elapsed": 340483, "serialpos": 8, "key_press": -1, "wordID": 1250, "type": "PRES_AUD", "trial_index": 63}, "uniqueid": "MTK1369:3LUY3GC6307LMWPGBIZ3QBV0KX4P7O", "dateTime": 1515864842440}, {"current_trial": 64, "trialdata": {"rt": -1000, "trial_type": "single-audio", "word": "ozone", "stimulus": "/static/audio/wordpool/OZONE.wav", "conditions": [18, 1200, "a", 18000], "internal_node_id": "0.0-46.0", "trial": 1, "time_elapsed": 342569, "serialpos": 9, "key_press": -1, "wordID": 995, "type": "PRES_AUD", "trial_index": 64}, "uniqueid": "MTK1369:3LUY3GC6307LMWPGBIZ3QBV0KX4P7O", "dateTime": 1515864844526}, {"current_trial": 65, "trialdata": {"rt": -1000, "trial_type": "single-audio", "word": "robot", "stimulus": "/static/audio/wordpool/ROBOT.wav", "conditions": [18, 1200, "a", 18000], "internal_node_id": "0.0-47.0", "trial": 1, "time_elapsed": 344869, "serialpos": 10, "key_press": -1, "wordID": 1199, "type": "PRES_AUD", "trial_index": 65}, "uniqueid": "MTK1369:3LUY3GC6307LMWPGBIZ3QBV0KX4P7O", "dateTime": 1515864846827}, {"current_trial": 66, "trialdata": {"rt": -1000, "trial_type": "single-audio", "word": "relish", "stimulus": "/static/audio/wordpool/RELISH.wav", "conditions": [18, 1200, "a", 18000], "internal_node_id": "0.0-48.0", "trial": 1, "time_elapsed": 347099, "serialpos": 11, "key_press": -1, "wordID": 1182, "type": "PRES_AUD", "trial_index": 66}, "uniqueid": "MTK1369:3LUY3GC6307LMWPGBIZ3QBV0KX4P7O", "dateTime": 1515864849056}, {"current_trial": 67, "trialdata": {"rt": -1000, "trial_type": "single-audio", "word": "swamp", "stimulus": "/static/audio/wordpool/SWAMP.wav", "conditions": [18, 1200, "a", 18000], "internal_node_id": "0.0-49.0", "trial": 1, "time_elapsed": 349201, "serialpos": 12, "key_press": -1, "wordID": 1415, "type": "PRES_AUD", "trial_index": 67}, "uniqueid": "MTK1369:3LUY3GC6307LMWPGBIZ3QBV0KX4P7O", "dateTime": 1515864851158}, {"current_trial": 68, "trialdata": {"rt": -1000, "trial_type": "single-audio", "word": "statue", "stimulus": "/static/audio/wordpool/STATUE.wav", "conditions": [18, 1200, "a", 18000], "internal_node_id": "0.0-50.0", "trial": 1, "time_elapsed": 351504, "serialpos": 13, "key_press": -1, "wordID": 1373, "type": "PRES_AUD", "trial_index": 68}, "uniqueid": "MTK1369:3LUY3GC6307LMWPGBIZ3QBV0KX4P7O", "dateTime": 1515864853463}, {"current_trial": 69, "trialdata": {"rt": -1000, "trial_type": "single-audio", "word": "student", "stimulus": "/static/audio/wordpool/STUDENT.wav", "conditions": [18, 1200, "a", 18000], "internal_node_id": "0.0-51.0", "trial": 1, "time_elapsed": 353629, "serialpos": 14, "key_press": -1, "wordID": 1394, "type": "PRES_AUD", "trial_index": 69}, "uniqueid": "MTK1369:3LUY3GC6307LMWPGBIZ3QBV0KX4P7O", "dateTime": 1515864855587}, {"current_trial": 70, "trialdata": {"rt": -1000, "trial_type": "single-audio", "word": "blouse", "stimulus": "/static/audio/wordpool/BLOUSE.wav", "conditions": [18, 1200, "a", 18000], "internal_node_id": "0.0-52.0", "trial": 1, "time_elapsed": 355833, "serialpos": 15, "key_press": -1, "wordID": 138, "type": "PRES_AUD", "trial_index": 70}, "uniqueid": "MTK1369:3LUY3GC6307LMWPGBIZ3QBV0KX4P7O", "dateTime": 1515864857790}, {"current_trial": 71, "trialdata": {"rt": -1000, "trial_type": "single-audio", "word": "monster", "stimulus": "/static/audio/wordpool/MONSTER.wav", "conditions": [18, 1200, "a", 18000], "internal_node_id": "0.0-53.0", "trial": 1, "time_elapsed": 358084, "serialpos": 16, "key_press": -1, "wordID": 911, "type": "PRES_AUD", "trial_index": 71}, "uniqueid": "MTK1369:3LUY3GC6307LMWPGBIZ3QBV0KX4P7O", "dateTime": 1515864860041}, {"current_trial": 72, "trialdata": {"rt": -1000, "trial_type": "single-audio", "word": "plaza", "stimulus": "/static/audio/wordpool/PLAZA.wav", "conditions": [18, 1200, "a", 18000], "internal_node_id": "0.0-54.0", "trial": 1, "time_elapsed": 360122, "serialpos": 17, "key_press": -1, "wordID": 1087, "type": "PRES_AUD", "trial_index": 72}, "uniqueid": "MTK1369:3LUY3GC6307LMWPGBIZ3QBV0KX4P7O", "dateTime": 1515864862080}, {"current_trial": 73, "trialdata": {"rt": -1, "trial_type": "single-stim", "stimulus": "", "internal_node_id": "0.0-55.0-0.0", "time_elapsed": 361498, "key_press": -1, "type": "PRE_RECALL_DELAY", "trial_index": 73}, "uniqueid": "MTK1369:3LUY3GC6307LMWPGBIZ3QBV0KX4P7O", "dateTime": 1515864863455}, {"current_trial": 74, "trialdata": {"rt": -1000, "trial_type": "single-audio", "stimulus": "/static/audio/400Hz.wav", "internal_node_id": "0.0-56.0", "time_elapsed": 361999, "key_press": -1, "type": "PRE_RECALL_ALERT", "trial_index": 74}, "uniqueid": "MTK1369:3LUY3GC6307LMWPGBIZ3QBV0KX4P7O", "dateTime": 1515864863956}, {"current_trial": 75, "trialdata": {"rt": [3020, 4252, 5847, 7358, 9622, 11034, 14376, 16610, 17500, 19320, 20784, 36677], "recwords": ["robot", "ozone", "relish", "plaza", "student", "swamp", "forehead", "elbow", "chest", "canal", "victim", "statue"], "key_times": [1437, 1573, 1756, 1902, 2012, 3020, 3421, 3521, 3612, 3706, 3916, 4252, 4600, 4669, 4752, 4971, 5081, 5367, 5464, 5590, 5847, 6162, 6375, 6515, 6804, 7087, 7358, 7734, 8166, 8330, 8432, 8592, 8717, 8818, 9622, 9953, 10144, 10322, 10590, 10643, 11034, 12152, 12261, 12317, 12466, 12611, 12840, 13017, 13106, 14376, 14923, 14981, 15161, 15262, 15442, 16146, 16326, 16610, 17032, 17118, 17189, 17311, 17382, 17500, 17890, 18015, 18103, 18190, 18346, 18444, 18895, 19320, 19937, 20086, 20157, 20348, 20409, 20490, 20784, 35453, 35539, 35671, 35763, 35902, 36002, 36677], "trial_type": "free-recall", "conditions": [18, 1200, "a", 18000], "internal_node_id": "0.0-57.0-0.0", "key_presses": [82, 79, 66, 79, 84, 13, 79, 90, 79, 78, 69, 13, 82, 69, 76, 73, 90, 8, 83, 72, 13, 80, 76, 65, 90, 65, 13, 83, 84, 85, 68, 69, 78, 84, 13, 83, 87, 65, 77, 80, 13, 70, 79, 82, 69, 72, 69, 65, 68, 13, 69, 76, 66, 79, 88, 8, 87, 13, 67, 72, 69, 83, 84, 13, 67, 65, 78, 65, 76, 76, 8, 13, 86, 73, 67, 84, 73, 77, 13, 83, 84, 65, 84, 85, 69, 13], "trial": 1, "time_elapsed": 422002, "type": "FREE_RECALL", "trial_index": 75}, "uniqueid": "MTK1369:3LUY3GC6307LMWPGBIZ3QBV0KX4P7O", "dateTime": 1515864923961}, {"current_trial": 76, "trialdata": {"rt": 9439, "trial_type": "text", "internal_node_id": "0.0-58.0", "time_elapsed": 433445, "key_press": 39, "type": "INSTRUCTIONS", "trial_index": 76}, "uniqueid": "MTK1369:3LUY3GC6307LMWPGBIZ3QBV0KX4P7O", "dateTime": 1515864935403}, {"current_trial": 77, "trialdata": {"rt": [2570, 4487, 6476, 8639], "trial_type": "math-distractor", "key_times": [1877, 1925, 2570, 4078, 4194, 4487, 6109, 6158, 6476, 8210, 8372, 8639, 11147, 11297], "responses": ["12", "16", "20", "15"], "num2": [1, 8, 7, 9, 9], "num3": [9, 7, 7, 2, 4], "conditions": [24, 800, "a", 12000], "internal_node_id": "0.0-59.0", "key_presses": [49, 50, 13, 49, 54, 13, 50, 48, 13, 49, 53, 13, 50, 48], "trial": 2, "time_elapsed": 446450, "type": "DISTRACTOR", "trial_index": 77, "num1": [2, 1, 6, 4, 7]}, "uniqueid": "MTK1369:3LUY3GC6307LMWPGBIZ3QBV0KX4P7O", "dateTime": 1515864948407}, {"current_trial": 78, "trialdata": {"rt": -1, "trial_type": "single-stim", "stimulus": "<p id=\"stim\">10</p>", "internal_node_id": "0.0-60.0-0.0", "time_elapsed": 449452, "key_press": -1, "trial_index": 78}, "uniqueid": "MTK1369:3LUY3GC6307LMWPGBIZ3QBV0KX4P7O", "dateTime": 1515864951409}, {"current_trial": 79, "trialdata": {"rt": -1, "trial_type": "single-stim", "stimulus": "<p id=\"stim\">9</p>", "internal_node_id": "0.0-60.0-1.0", "time_elapsed": 450453, "key_press": -1, "trial_index": 79}, "uniqueid": "MTK1369:3LUY3GC6307LMWPGBIZ3QBV0KX4P7O", "dateTime": 1515864952411}, {"current_trial": 80, "trialdata": {"rt": -1, "trial_type": "single-stim", "stimulus": "<p id=\"stim\">8</p>", "internal_node_id": "0.0-60.0-2.0", "time_elapsed": 451456, "key_press": -1, "trial_index": 80}, "uniqueid": "MTK1369:3LUY3GC6307LMWPGBIZ3QBV0KX4P7O", "dateTime": 1515864953413}, {"current_trial": 81, "trialdata": {"rt": -1, "trial_type": "single-stim", "stimulus": "<p id=\"stim\">7</p>", "internal_node_id": "0.0-60.0-3.0", "time_elapsed": 452457, "key_press": -1, "trial_index": 81}, "uniqueid": "MTK1369:3LUY3GC6307LMWPGBIZ3QBV0KX4P7O", "dateTime": 1515864954414}, {"current_trial": 82, "trialdata": {"rt": -1, "trial_type": "single-stim", "stimulus": "<p id=\"stim\">6</p>", "internal_node_id": "0.0-60.0-4.0", "time_elapsed": 453458, "key_press": -1, "trial_index": 82}, "uniqueid": "MTK1369:3LUY3GC6307LMWPGBIZ3QBV0KX4P7O", "dateTime": 1515864955415}, {"current_trial": 83, "trialdata": {"rt": -1, "trial_type": "single-stim", "stimulus": "<p id=\"stim\">5</p>", "internal_node_id": "0.0-60.0-5.0", "time_elapsed": 454459, "key_press": -1, "trial_index": 83}, "uniqueid": "MTK1369:3LUY3GC6307LMWPGBIZ3QBV0KX4P7O", "dateTime": 1515864956416}, {"current_trial": 84, "trialdata": {"rt": -1, "trial_type": "single-stim", "stimulus": "<p id=\"stim\">4</p>", "internal_node_id": "0.0-60.0-6.0", "time_elapsed": 455460, "key_press": -1, "trial_index": 84}, "uniqueid": "MTK1369:3LUY3GC6307LMWPGBIZ3QBV0KX4P7O", "dateTime": 1515864957417}, {"current_trial": 85, "trialdata": {"rt": -1, "trial_type": "single-stim", "stimulus": "<p id=\"stim\">3</p>", "internal_node_id": "0.0-60.0-7.0", "time_elapsed": 456461, "key_press": -1, "trial_index": 85}, "uniqueid": "MTK1369:3LUY3GC6307LMWPGBIZ3QBV0KX4P7O", "dateTime": 1515864958418}, {"current_trial": 86, "trialdata": {"rt": -1, "trial_type": "single-stim", "stimulus": "<p id=\"stim\">2</p>", "internal_node_id": "0.0-60.0-8.0", "time_elapsed": 457463, "key_press": -1, "trial_index": 86}, "uniqueid": "MTK1369:3LUY3GC6307LMWPGBIZ3QBV0KX4P7O", "dateTime": 1515864959420}, {"current_trial": 87, "trialdata": {"rt": -1, "trial_type": "single-stim", "stimulus": "<p id=\"stim\">1</p>", "internal_node_id": "0.0-60.0-9.0", "time_elapsed": 458465, "key_press": -1, "trial_index": 87}, "uniqueid": "MTK1369:3LUY3GC6307LMWPGBIZ3QBV0KX4P7O", "dateTime": 1515864960422}, {"current_trial": 88, "trialdata": {"rt": -1, "trial_type": "single-stim", "stimulus": "<p id=\"stim\">+</p>", "internal_node_id": "0.0-61.0-0.0", "time_elapsed": 459966, "key_press": -1, "type": "FIXATION", "trial_index": 88}, "uniqueid": "MTK1369:3LUY3GC6307LMWPGBIZ3QBV0KX4P7O", "dateTime": 1515864961923}, {"current_trial": 89, "trialdata": {"rt": -1000, "trial_type": "single-audio", "word": "pastry", "stimulus": "/static/audio/wordpool/PASTRY.wav", "conditions": [24, 800, "a", 12000], "internal_node_id": "0.0-62.0", "trial": 2, "time_elapsed": 461962, "serialpos": 0, "key_press": -1, "wordID": 1021, "type": "PRES_AUD", "trial_index": 89}, "uniqueid": "MTK1369:3LUY3GC6307LMWPGBIZ3QBV0KX4P7O", "dateTime": 1515864963919}, {"current_trial": 90, "trialdata": {"rt": -1000, "trial_type": "single-audio", "word": "mummy", "stimulus": "/static/audio/wordpool/MUMMY.wav", "conditions": [24, 800, "a", 12000], "internal_node_id": "0.0-63.0", "trial": 2, "time_elapsed": 463664, "serialpos": 1, "key_press": -1, "wordID": 931, "type": "PRES_AUD", "trial_index": 90}, "uniqueid": "MTK1369:3LUY3GC6307LMWPGBIZ3QBV0KX4P7O", "dateTime": 1515864965621}, {"current_trial": 91, "trialdata": {"rt": -1000, "trial_type": "single-audio", "word": "convict", "stimulus": "/static/audio/wordpool/CONVICT.wav", "conditions": [24, 800, "a", 12000], "internal_node_id": "0.0-64.0", "trial": 2, "time_elapsed": 465421, "serialpos": 2, "key_press": -1, "wordID": 370, "type": "PRES_AUD", "trial_index": 91}, "uniqueid": "MTK1369:3LUY3GC6307LMWPGBIZ3QBV0KX4P7O", "dateTime": 1515864967378}, {"current_trial": 92, "trialdata": {"rt": -1000, "trial_type": "single-audio", "word": "tombstone", "stimulus": "/static/audio/wordpool/TOMBSTONE.wav", "conditions": [24, 800, "a", 12000], "internal_node_id": "0.0-65.0", "trial": 2, "time_elapsed": 467432, "serialpos": 3, "key_press": -1, "wordID": 1477, "type": "PRES_AUD", "trial_index": 92}, "uniqueid": "MTK1369:3LUY3GC6307LMWPGBIZ3QBV0KX4P7O", "dateTime": 1515864969389}, {"current_trial": 93, "trialdata": {"rt": -1000, "trial_type": "single-audio", "word": "actress", "stimulus": "/static/audio/wordpool/ACTRESS.wav", "conditions": [24, 800, "a", 12000], "internal_node_id": "0.0-66.0", "trial": 2, "time_elapsed": 469092, "serialpos": 4, "key_press": -1, "wordID": 5, "type": "PRES_AUD", "trial_index": 93}, "uniqueid": "MTK1369:3LUY3GC6307LMWPGBIZ3QBV0KX4P7O", "dateTime": 1515864971049}, {"current_trial": 94, "trialdata": {"rt": -1000, "trial_type": "single-audio", "word": "sculpture", "stimulus": "/static/audio/wordpool/SCULPTURE.wav", "conditions": [24, 800, "a", 12000], "internal_node_id": "0.0-67.0", "trial": 2, "time_elapsed": 470842, "serialpos": 5, "key_press": -1, "wordID": 1257, "type": "PRES_AUD", "trial_index": 94}, "uniqueid": "MTK1369:3LUY3GC6307LMWPGBIZ3QBV0KX4P7O", "dateTime": 1515864972799}, {"current_trial": 95, "trialdata": {"rt": -1000, "trial_type": "single-audio", "word": "tutu", "stimulus": "/static/audio/wordpool/TUTU.wav", "conditions": [24, 800, "a", 12000], "internal_node_id": "0.0-68.0", "trial": 2, "time_elapsed": 472813, "serialpos": 6, "key_press": -1, "wordID": 1523, "type": "PRES_AUD", "trial_index": 95}, "uniqueid": "MTK1369:3LUY3GC6307LMWPGBIZ3QBV0KX4P7O", "dateTime": 1515864974770}, {"current_trial": 96, "trialdata": {"rt": -1000, "trial_type": "single-audio", "word": "trombone", "stimulus": "/static/audio/wordpool/TROMBONE.wav", "conditions": [24, 800, "a", 12000], "internal_node_id": "0.0-69.0", "trial": 2, "time_elapsed": 474712, "serialpos": 7, "key_press": -1, "wordID": 1507, "type": "PRES_AUD", "trial_index": 96}, "uniqueid": "MTK1369:3LUY3GC6307LMWPGBIZ3QBV0KX4P7O", "dateTime": 1515864976669}, {"current_trial": 97, "trialdata": {"rt": -1000, "trial_type": "single-audio", "word": "pebble", "stimulus": "/static/audio/wordpool/PEBBLE.wav", "conditions": [24, 800, "a", 12000], "internal_node_id": "0.0-70.0", "trial": 2, "time_elapsed": 476486, "serialpos": 8, "key_press": -1, "wordID": 1034, "type": "PRES_AUD", "trial_index": 97}, "uniqueid": "MTK1369:3LUY3GC6307LMWPGBIZ3QBV0KX4P7O", "dateTime": 1515864978443}, {"current_trial": 98, "trialdata": {"rt": -1000, "trial_type": "single-audio", "word": "crab", "stimulus": "/static/audio/wordpool/CRAB.wav", "conditions": [24, 800, "a", 12000], "internal_node_id": "0.0-71.0", "trial": 2, "time_elapsed": 478461, "serialpos": 9, "key_press": -1, "wordID": 396, "type": "PRES_AUD", "trial_index": 98}, "uniqueid": "MTK1369:3LUY3GC6307LMWPGBIZ3QBV0KX4P7O", "dateTime": 1515864980418}, {"current_trial": 99, "trialdata": {"rt": -1000, "trial_type": "single-audio", "word": "cod", "stimulus": "/static/audio/wordpool/COD.wav", "conditions": [24, 800, "a", 12000], "internal_node_id": "0.0-72.0", "trial": 2, "time_elapsed": 480295, "serialpos": 10, "key_press": -1, "wordID": 339, "type": "PRES_AUD", "trial_index": 99}, "uniqueid": "MTK1369:3LUY3GC6307LMWPGBIZ3QBV0KX4P7O", "dateTime": 1515864982252}, {"current_trial": 100, "trialdata": {"rt": -1000, "trial_type": "single-audio", "word": "actor", "stimulus": "/static/audio/wordpool/ACTOR.wav", "conditions": [24, 800, "a", 12000], "internal_node_id": "0.0-73.0", "trial": 2, "time_elapsed": 482227, "serialpos": 11, "key_press": -1, "wordID": 4, "type": "PRES_AUD", "trial_index": 100}, "uniqueid": "MTK1369:3LUY3GC6307LMWPGBIZ3QBV0KX4P7O", "dateTime": 1515864984184}, {"current_trial": 101, "trialdata": {"rt": -1000, "trial_type": "single-audio", "word": "trench", "stimulus": "/static/audio/wordpool/TRENCH.wav", "conditions": [24, 800, "a", 12000], "internal_node_id": "0.0-74.0", "trial": 2, "time_elapsed": 483975, "serialpos": 12, "key_press": -1, "wordID": 1502, "type": "PRES_AUD", "trial_index": 101}, "uniqueid": "MTK1369:3LUY3GC6307LMWPGBIZ3QBV0KX4P7O", "dateTime": 1515864985932}, {"current_trial": 102, "trialdata": {"rt": -1000, "trial_type": "single-audio", "word": "tunnel", "stimulus": "/static/audio/wordpool/TUNNEL.wav", "conditions": [24, 800, "a", 12000], "internal_node_id": "0.0-75.0", "trial": 2, "time_elapsed": 485952, "serialpos": 13, "key_press": -1, "wordID": 1518, "type": "PRES_AUD", "trial_index": 102}, "uniqueid": "MTK1369:3LUY3GC6307LMWPGBIZ3QBV0KX4P7O", "dateTime": 1515864987909}, {"current_trial": 103, "trialdata": {"rt": -1000, "trial_type": "single-audio", "word": "preacher", "stimulus": "/static/audio/wordpool/PREACHER.wav", "conditions": [24, 800, "a", 12000], "internal_node_id": "0.0-76.0", "trial": 2, "time_elapsed": 487589, "serialpos": 14, "key_press": -1, "wordID": 1118, "type": "PRES_AUD", "trial_index": 103}, "uniqueid": "MTK1369:3LUY3GC6307LMWPGBIZ3QBV0KX4P7O", "dateTime": 1515864989546}, {"current_trial": 104, "trialdata": {"rt": -1000, "trial_type": "single-audio", "word": "jello", "stimulus": "/static/audio/wordpool/JELLO.wav", "conditions": [24, 800, "a", 12000], "internal_node_id": "0.0-77.0", "trial": 2, "time_elapsed": 489437, "serialpos": 15, "key_press": -1, "wordID": 753, "type": "PRES_AUD", "trial_index": 104}, "uniqueid": "MTK1369:3LUY3GC6307LMWPGBIZ3QBV0KX4P7O", "dateTime": 1515864991394}, {"current_trial": 105, "trialdata": {"rt": -1000, "trial_type": "single-audio", "word": "wife", "stimulus": "/static/audio/wordpool/WIFE.wav", "conditions": [24, 800, "a", 12000], "internal_node_id": "0.0-78.0", "trial": 2, "time_elapsed": 491406, "serialpos": 16, "key_press": -1, "wordID": 1608, "type": "PRES_AUD", "trial_index": 105}, "uniqueid": "MTK1369:3LUY3GC6307LMWPGBIZ3QBV0KX4P7O", "dateTime": 1515864993363}, {"current_trial": 106, "trialdata": {"rt": -1000, "trial_type": "single-audio", "word": "gymnast", "stimulus": "/static/audio/wordpool/GYMNAST.wav", "conditions": [24, 800, "a", 12000], "internal_node_id": "0.0-79.0", "trial": 2, "time_elapsed": 493192, "serialpos": 17, "key_press": -1, "wordID": 674, "type": "PRES_AUD", "trial_index": 106}, "uniqueid": "MTK1369:3LUY3GC6307LMWPGBIZ3QBV0KX4P7O", "dateTime": 1515864995149}, {"current_trial": 107, "trialdata": {"rt": -1000, "trial_type": "single-audio", "word": "crown", "stimulus": "/static/audio/wordpool/CROWN.wav", "conditions": [24, 800, "a", 12000], "internal_node_id": "0.0-80.0", "trial": 2, "time_elapsed": 494987, "serialpos": 18, "key_press": -1, "wordID": 414, "type": "PRES_AUD", "trial_index": 107}, "uniqueid": "MTK1369:3LUY3GC6307LMWPGBIZ3QBV0KX4P7O", "dateTime": 1515864996944}, {"current_trial": 108, "trialdata": {"rt": -1000, "trial_type": "single-audio", "word": "patrol", "stimulus": "/static/audio/wordpool/PATROL.wav", "conditions": [24, 800, "a", 12000], "internal_node_id": "0.0-81.0", "trial": 2, "time_elapsed": 496617, "serialpos": 19, "key_press": -1, "wordID": 1026, "type": "PRES_AUD", "trial_index": 108}, "uniqueid": "MTK1369:3LUY3GC6307LMWPGBIZ3QBV0KX4P7O", "dateTime": 1515864998574}, {"current_trial": 109, "trialdata": {"rt": -1000, "trial_type": "single-audio", "word": "freckle", "stimulus": "/static/audio/wordpool/FRECKLE.wav", "conditions": [24, 800, "a", 12000], "internal_node_id": "0.0-82.0", "trial": 2, "time_elapsed": 498541, "serialpos": 20, "key_press": -1, "wordID": 601, "type": "PRES_AUD", "trial_index": 109}, "uniqueid": "MTK1369:3LUY3GC6307LMWPGBIZ3QBV0KX4P7O", "dateTime": 1515865000498}, {"current_trial": 110, "trialdata": {"rt": -1000, "trial_type": "single-audio", "word": "pimple", "stimulus": "/static/audio/wordpool/PIMPLE.wav", "conditions": [24, 800, "a", 12000], "internal_node_id": "0.0-83.0", "trial": 2, "time_elapsed": 500473, "serialpos": 21, "key_press": -1, "wordID": 1070, "type": "PRES_AUD", "trial_index": 110}, "uniqueid": "MTK1369:3LUY3GC6307LMWPGBIZ3QBV0KX4P7O", "dateTime": 1515865002430}, {"current_trial": 111, "trialdata": {"rt": -1000, "trial_type": "single-audio", "word": "robber", "stimulus": "/static/audio/wordpool/ROBBER.wav", "conditions": [24, 800, "a", 12000], "internal_node_id": "0.0-84.0", "trial": 2, "time_elapsed": 502171, "serialpos": 22, "key_press": -1, "wordID": 1196, "type": "PRES_AUD", "trial_index": 111}, "uniqueid": "MTK1369:3LUY3GC6307LMWPGBIZ3QBV0KX4P7O", "dateTime": 1515865004128}, {"current_trial": 112, "trialdata": {"rt": -1000, "trial_type": "single-audio", "word": "police", "stimulus": "/static/audio/wordpool/POLICE.wav", "conditions": [24, 800, "a", 12000], "internal_node_id": "0.0-85.0", "trial": 2, "time_elapsed": 503905, "serialpos": 23, "key_press": -1, "wordID": 1097, "type": "PRES_AUD", "trial_index": 112}, "uniqueid": "MTK1369:3LUY3GC6307LMWPGBIZ3QBV0KX4P7O", "dateTime": 1515865005862}, {"current_trial": 113, "trialdata": {"rt": -1, "trial_type": "single-stim", "stimulus": "", "internal_node_id": "0.0-86.0-0.0", "time_elapsed": 505261, "key_press": -1, "type": "PRE_RECALL_DELAY", "trial_index": 113}, "uniqueid": "MTK1369:3LUY3GC6307LMWPGBIZ3QBV0KX4P7O", "dateTime": 1515865007219}, {"current_trial": 114, "trialdata": {"rt": -1000, "trial_type": "single-audio", "stimulus": "/static/audio/400Hz.wav", "internal_node_id": "0.0-87.0", "time_elapsed": 505762, "key_press": -1, "type": "PRE_RECALL_ALERT", "trial_index": 114}, "uniqueid": "MTK1369:3LUY3GC6307LMWPGBIZ3QBV0KX4P7O", "dateTime": 1515865007719}, {"current_trial": 115, "trialdata": {"rt": [3284, 4150, 5301, 7124, 8775, 17461, 18786, 20438, 28910, 31284, 33341, 46579, 56503], "recwords": ["gymnast", "wife", "police", "crown", "mummy", "tombstone", "actor", "actress", "pebble", "tutu", "trombone", "zombie", "sculpture"], "key_times": [971, 1062, 1256, 1459, 1804, 2014, 2096, 2185, 2274, 2345, 2768, 2893, 3023, 3284, 3650, 3795, 3904, 4016, 4150, 4397, 4595, 4788, 4905, 5022, 5152, 5301, 5575, 6073, 6149, 6311, 6403, 6464, 6596, 7124, 7350, 7543, 7698, 7817, 7899, 8775, 13140, 13213, 13284, 13460, 13556, 13670, 13787, 13881, 13891, 14274, 14411, 14924, 14980, 17461, 17883, 17966, 18197, 18433, 18529, 18786, 19042, 19118, 19423, 19621, 19692, 19900, 20035, 20438, 26677, 26808, 27161, 27867, 28042, 28151, 28910, 29580, 29692, 29784, 30048, 30370, 30575, 31284, 31931, 32077, 32163, 32244, 32516, 32869, 32930, 33031, 33341, 41663, 41775, 41826, 42049, 42151, 42247, 46579, 54357, 54489, 54581, 54631, 54725, 55009, 55274, 55382, 55614, 55700, 55748, 56503], "trial_type": "free-recall", "conditions": [24, 800, "a", 12000], "internal_node_id": "0.0-88.0-0.0", "key_presses": [71, 89, 77, 65, 8, 78, 65, 83, 83, 84, 8, 8, 84, 13, 87, 73, 70, 69, 13, 80, 79, 76, 73, 67, 69, 13, 83, 8, 67, 82, 79, 87, 78, 13, 77, 85, 77, 77, 89, 13, 84, 79, 77, 66, 83, 84, 79, 78, 79, 8, 8, 78, 69, 13, 65, 67, 84, 79, 82, 13, 65, 67, 84, 82, 69, 83, 83, 13, 80, 69, 66, 66, 76, 69, 13, 84, 85, 84, 84, 8, 85, 13, 84, 82, 79, 77, 66, 79, 78, 69, 13, 90, 79, 77, 66, 73, 69, 13, 83, 67, 85, 76, 84, 8, 80, 84, 85, 82, 69, 13], "trial": 2, "time_elapsed": 565764, "type": "FREE_RECALL", "trial_index": 115}, "uniqueid": "MTK1369:3LUY3GC6307LMWPGBIZ3QBV0KX4P7O", "dateTime": 1515865067723}, {"current_trial": 116, "trialdata": {"rt": 1608, "trial_type": "text", "internal_node_id": "0.0-89.0", "time_elapsed": 569375, "key_press": 13, "type": "INSTRUCTIONS", "trial_index": 116}, "uniqueid": "MTK1369:3LUY3GC6307LMWPGBIZ3QBV0KX4P7O", "dateTime": 1515865071332}, {"current_trial": 117, "trialdata": {"rt": [2655, 5129, 6810, 8474, 10401], "trial_type": "math-distractor", "key_times": [2373, 2442, 2655, 4766, 4962, 5129, 6573, 6810, 8119, 8284, 8474, 10075, 10175, 10401], "responses": ["19", "24", "8", "14", "19"], "num2": [7, 8, 1, 4, 9, 4], "num3": [7, 7, 6, 6, 9, 9], "conditions": [24, 800, "a", 12000], "internal_node_id": "0.0-90.0", "key_presses": [49, 57, 13, 50, 52, 13, 56, 13, 49, 52, 13, 49, 57, 13], "trial": 3, "time_elapsed": 583377, "type": "DISTRACTOR", "trial_index": 117, "num1": [5, 9, 1, 4, 1, 9]}, "uniqueid": "MTK1369:3LUY3GC6307LMWPGBIZ3QBV0KX4P7O", "dateTime": 1515865085334}, {"current_trial": 118, "trialdata": {"rt": -1, "trial_type": "single-stim", "stimulus": "<p id=\"stim\">10</p>", "internal_node_id": "0.0-91.0-0.0", "time_elapsed": 586380, "key_press": -1, "trial_index": 118}, "uniqueid": "MTK1369:3LUY3GC6307LMWPGBIZ3QBV0KX4P7O", "dateTime": 1515865088337}, {"current_trial": 119, "trialdata": {"rt": -1, "trial_type": "single-stim", "stimulus": "<p id=\"stim\">9</p>", "internal_node_id": "0.0-91.0-1.0", "time_elapsed": 587381, "key_press": -1, "trial_index": 119}, "uniqueid": "MTK1369:3LUY3GC6307LMWPGBIZ3QBV0KX4P7O", "dateTime": 1515865089338}, {"current_trial": 120, "trialdata": {"rt": -1, "trial_type": "single-stim", "stimulus": "<p id=\"stim\">8</p>", "internal_node_id": "0.0-91.0-2.0", "time_elapsed": 588382, "key_press": -1, "trial_index": 120}, "uniqueid": "MTK1369:3LUY3GC6307LMWPGBIZ3QBV0KX4P7O", "dateTime": 1515865090339}, {"current_trial": 121, "trialdata": {"rt": -1, "trial_type": "single-stim", "stimulus": "<p id=\"stim\">7</p>", "internal_node_id": "0.0-91.0-3.0", "time_elapsed": 589383, "key_press": -1, "trial_index": 121}, "uniqueid": "MTK1369:3LUY3GC6307LMWPGBIZ3QBV0KX4P7O", "dateTime": 1515865091340}, {"current_trial": 122, "trialdata": {"rt": -1, "trial_type": "single-stim", "stimulus": "<p id=\"stim\">6</p>", "internal_node_id": "0.0-91.0-4.0", "time_elapsed": 590385, "key_press": -1, "trial_index": 122}, "uniqueid": "MTK1369:3LUY3GC6307LMWPGBIZ3QBV0KX4P7O", "dateTime": 1515865092342}, {"current_trial": 123, "trialdata": {"rt": -1, "trial_type": "single-stim", "stimulus": "<p id=\"stim\">5</p>", "internal_node_id": "0.0-91.0-5.0", "time_elapsed": 591386, "key_press": -1, "trial_index": 123}, "uniqueid": "MTK1369:3LUY3GC6307LMWPGBIZ3QBV0KX4P7O", "dateTime": 1515865093343}, {"current_trial": 124, "trialdata": {"rt": -1, "trial_type": "single-stim", "stimulus": "<p id=\"stim\">4</p>", "internal_node_id": "0.0-91.0-6.0", "time_elapsed": 592387, "key_press": -1, "trial_index": 124}, "uniqueid": "MTK1369:3LUY3GC6307LMWPGBIZ3QBV0KX4P7O", "dateTime": 1515865094344}, {"current_trial": 125, "trialdata": {"rt": -1, "trial_type": "single-stim", "stimulus": "<p id=\"stim\">3</p>", "internal_node_id": "0.0-91.0-7.0", "time_elapsed": 593388, "key_press": -1, "trial_index": 125}, "uniqueid": "MTK1369:3LUY3GC6307LMWPGBIZ3QBV0KX4P7O", "dateTime": 1515865095345}, {"current_trial": 126, "trialdata": {"rt": -1, "trial_type": "single-stim", "stimulus": "<p id=\"stim\">2</p>", "internal_node_id": "0.0-91.0-8.0", "time_elapsed": 594389, "key_press": -1, "trial_index": 126}, "uniqueid": "MTK1369:3LUY3GC6307LMWPGBIZ3QBV0KX4P7O", "dateTime": 1515865096346}, {"current_trial": 127, "trialdata": {"rt": -1, "trial_type": "single-stim", "stimulus": "<p id=\"stim\">1</p>", "internal_node_id": "0.0-91.0-9.0", "time_elapsed": 595390, "key_press": -1, "trial_index": 127}, "uniqueid": "MTK1369:3LUY3GC6307LMWPGBIZ3QBV0KX4P7O", "dateTime": 1515865097347}, {"current_trial": 128, "trialdata": {"rt": -1, "trial_type": "single-stim", "stimulus": "<p id=\"stim\">+</p>", "internal_node_id": "0.0-92.0-0.0", "time_elapsed": 596892, "key_press": -1, "type": "FIXATION", "trial_index": 128}, "uniqueid": "MTK1369:3LUY3GC6307LMWPGBIZ3QBV0KX4P7O", "dateTime": 1515865098849}, {"current_trial": 129, "trialdata": {"rt": -1000, "trial_type": "single-audio", "word": "diner", "stimulus": "/static/audio/wordpool/DINER.wav", "conditions": [24, 800, "a", 12000], "internal_node_id": "0.0-93.0", "trial": 3, "time_elapsed": 598877, "serialpos": 0, "key_press": -1, "wordID": 466, "type": "PRES_AUD", "trial_index": 129}, "uniqueid": "MTK1369:3LUY3GC6307LMWPGBIZ3QBV0KX4P7O", "dateTime": 1515865100835}, {"current_trial": 130, "trialdata": {"rt": -1000, "trial_type": "single-audio", "word": "lady", "stimulus": "/static/audio/wordpool/LADY.wav", "conditions": [24, 800, "a", 12000], "internal_node_id": "0.0-94.0", "trial": 3, "time_elapsed": 600776, "serialpos": 1, "key_press": -1, "wordID": 793, "type": "PRES_AUD", "trial_index": 130}, "uniqueid": "MTK1369:3LUY3GC6307LMWPGBIZ3QBV0KX4P7O", "dateTime": 1515865102733}, {"current_trial": 131, "trialdata": {"rt": -1000, "trial_type": "single-audio", "word": "panther", "stimulus": "/static/audio/wordpool/PANTHER.wav", "conditions": [24, 800, "a", 12000], "internal_node_id": "0.0-95.0", "trial": 3, "time_elapsed": 602773, "serialpos": 2, "key_press": -1, "wordID": 1008, "type": "PRES_AUD", "trial_index": 131}, "uniqueid": "MTK1369:3LUY3GC6307LMWPGBIZ3QBV0KX4P7O", "dateTime": 1515865104730}, {"current_trial": 132, "trialdata": {"rt": -1000, "trial_type": "single-audio", "word": "shortcake", "stimulus": "/static/audio/wordpool/SHORTCAKE.wav", "conditions": [24, 800, "a", 12000], "internal_node_id": "0.0-96.0", "trial": 3, "time_elapsed": 604385, "serialpos": 3, "key_press": -1, "wordID": 1291, "type": "PRES_AUD", "trial_index": 132}, "uniqueid": "MTK1369:3LUY3GC6307LMWPGBIZ3QBV0KX4P7O", "dateTime": 1515865106342}, {"current_trial": 133, "trialdata": {"rt": -1000, "trial_type": "single-audio", "word": "rebel", "stimulus": "/static/audio/wordpool/REBEL.wav", "conditions": [24, 800, "a", 12000], "internal_node_id": "0.0-97.0", "trial": 3, "time_elapsed": 606172, "serialpos": 4, "key_press": -1, "wordID": 1171, "type": "PRES_AUD", "trial_index": 133}, "uniqueid": "MTK1369:3LUY3GC6307LMWPGBIZ3QBV0KX4P7O", "dateTime": 1515865108129}, {"current_trial": 134, "trialdata": {"rt": -1000, "trial_type": "single-audio", "word": "switch", "stimulus": "/static/audio/wordpool/SWITCH.wav", "conditions": [24, 800, "a", 12000], "internal_node_id": "0.0-98.0", "trial": 3, "time_elapsed": 608061, "serialpos": 5, "key_press": -1, "wordID": 1421, "type": "PRES_AUD", "trial_index": 134}, "uniqueid": "MTK1369:3LUY3GC6307LMWPGBIZ3QBV0KX4P7O", "dateTime": 1515865110018}, {"current_trial": 135, "trialdata": {"rt": -1000, "trial_type": "single-audio", "word": "salt", "stimulus": "/static/audio/wordpool/SALT.wav", "conditions": [24, 800, "a", 12000], "internal_node_id": "0.0-99.0", "trial": 3, "time_elapsed": 609700, "serialpos": 6, "key_press": -1, "wordID": 1228, "type": "PRES_AUD", "trial_index": 135}, "uniqueid": "MTK1369:3LUY3GC6307LMWPGBIZ3QBV0KX4P7O", "dateTime": 1515865111657}, {"current_trial": 136, "trialdata": {"rt": -1000, "trial_type": "single-audio", "word": "stomach", "stimulus": "/static/audio/wordpool/STOMACH.wav", "conditions": [24, 800, "a", 12000], "internal_node_id": "0.0-100.0", "trial": 3, "time_elapsed": 611506, "serialpos": 7, "key_press": -1, "wordID": 1383, "type": "PRES_AUD", "trial_index": 136}, "uniqueid": "MTK1369:3LUY3GC6307LMWPGBIZ3QBV0KX4P7O", "dateTime": 1515865113463}, {"current_trial": 137, "trialdata": {"rt": -1000, "trial_type": "single-audio", "word": "grape", "stimulus": "/static/audio/wordpool/GRAPE.wav", "conditions": [24, 800, "a", 12000], "internal_node_id": "0.0-101.0", "trial": 3, "time_elapsed": 613233, "serialpos": 8, "key_press": -1, "wordID": 653, "type": "PRES_AUD", "trial_index": 137}, "uniqueid": "MTK1369:3LUY3GC6307LMWPGBIZ3QBV0KX4P7O", "dateTime": 1515865115190}, {"current_trial": 138, "trialdata": {"rt": -1000, "trial_type": "single-audio", "word": "apple", "stimulus": "/static/audio/wordpool/APPLE.wav", "conditions": [24, 800, "a", 12000], "internal_node_id": "0.0-102.0", "trial": 3, "time_elapsed": 615025, "serialpos": 9, "key_press": -1, "wordID": 32, "type": "PRES_AUD", "trial_index": 138}, "uniqueid": "MTK1369:3LUY3GC6307LMWPGBIZ3QBV0KX4P7O", "dateTime": 1515865116982}, {"current_trial": 139, "trialdata": {"rt": -1000, "trial_type": "single-audio", "word": "leopard", "stimulus": "/static/audio/wordpool/LEOPARD.wav", "conditions": [24, 800, "a", 12000], "internal_node_id": "0.0-103.0", "trial": 3, "time_elapsed": 616970, "serialpos": 10, "key_press": -1, "wordID": 811, "type": "PRES_AUD", "trial_index": 139}, "uniqueid": "MTK1369:3LUY3GC6307LMWPGBIZ3QBV0KX4P7O", "dateTime": 1515865118927}, {"current_trial": 140, "trialdata": {"rt": -1000, "trial_type": "single-audio", "word": "journal", "stimulus": "/static/audio/wordpool/JOURNAL.wav", "conditions": [24, 800, "a", 12000], "internal_node_id": "0.0-104.0", "trial": 3, "time_elapsed": 618811, "serialpos": 11, "key_press": -1, "wordID": 759, "type": "PRES_AUD", "trial_index": 140}, "uniqueid": "MTK1369:3LUY3GC6307LMWPGBIZ3QBV0KX4P7O", "dateTime": 1515865120768}, {"current_trial": 141, "trialdata": {"rt": -1000, "trial_type": "single-audio", "word": "flask", "stimulus": "/static/audio/wordpool/FLASK.wav", "conditions": [24, 800, "a", 12000], "internal_node_id": "0.0-105.0", "trial": 3, "time_elapsed": 620742, "serialpos": 12, "key_press": -1, "wordID": 575, "type": "PRES_AUD", "trial_index": 141}, "uniqueid": "MTK1369:3LUY3GC6307LMWPGBIZ3QBV0KX4P7O", "dateTime": 1515865122700}, {"current_trial": 142, "trialdata": {"rt": -1000, "trial_type": "single-audio", "word": "knife", "stimulus": "/static/audio/wordpool/KNIFE.wav", "conditions": [24, 800, "a", 12000], "internal_node_id": "0.0-106.0", "trial": 3, "time_elapsed": 622731, "serialpos": 13, "key_press": -1, "wordID": 784, "type": "PRES_AUD", "trial_index": 142}, "uniqueid": "MTK1369:3LUY3GC6307LMWPGBIZ3QBV0KX4P7O", "dateTime": 1515865124688}, {"current_trial": 143, "trialdata": {"rt": -1000, "trial_type": "single-audio", "word": "popcorn", "stimulus": "/static/audio/wordpool/POPCORN.wav", "conditions": [24, 800, "a", 12000], "internal_node_id": "0.0-107.0", "trial": 3, "time_elapsed": 624700, "serialpos": 14, "key_press": -1, "wordID": 1103, "type": "PRES_AUD", "trial_index": 143}, "uniqueid": "MTK1369:3LUY3GC6307LMWPGBIZ3QBV0KX4P7O", "dateTime": 1515865126657}, {"current_trial": 144, "trialdata": {"rt": -1000, "trial_type": "single-audio", "word": "candy", "stimulus": "/static/audio/wordpool/CANDY.wav", "conditions": [24, 800, "a", 12000], "internal_node_id": "0.0-108.0", "trial": 3, "time_elapsed": 626317, "serialpos": 15, "key_press": -1, "wordID": 229, "type": "PRES_AUD", "trial_index": 144}, "uniqueid": "MTK1369:3LUY3GC6307LMWPGBIZ3QBV0KX4P7O", "dateTime": 1515865128275}, {"current_trial": 145, "trialdata": {"rt": -1000, "trial_type": "single-audio", "word": "champagne", "stimulus": "/static/audio/wordpool/CHAMPAGNE.wav", "conditions": [24, 800, "a", 12000], "internal_node_id": "0.0-109.0", "trial": 3, "time_elapsed": 628162, "serialpos": 16, "key_press": -1, "wordID": 277, "type": "PRES_AUD", "trial_index": 145}, "uniqueid": "MTK1369:3LUY3GC6307LMWPGBIZ3QBV0KX4P7O", "dateTime": 1515865130119}, {"current_trial": 146, "trialdata": {"rt": -1000, "trial_type": "single-audio", "word": "rifle", "stimulus": "/static/audio/wordpool/RIFLE.wav", "conditions": [24, 800, "a", 12000], "internal_node_id": "0.0-110.0", "trial": 3, "time_elapsed": 630139, "serialpos": 17, "key_press": -1, "wordID": 1191, "type": "PRES_AUD", "trial_index": 146}, "uniqueid": "MTK1369:3LUY3GC6307LMWPGBIZ3QBV0KX4P7O", "dateTime": 1515865132096}, {"current_trial": 147, "trialdata": {"rt": -1000, "trial_type": "single-audio", "word": "bouquet", "stimulus": "/static/audio/wordpool/BOUQUET.wav", "conditions": [24, 800, "a", 12000], "internal_node_id": "0.0-111.0", "trial": 3, "time_elapsed": 631829, "serialpos": 18, "key_press": -1, "wordID": 156, "type": "PRES_AUD", "trial_index": 147}, "uniqueid": "MTK1369:3LUY3GC6307LMWPGBIZ3QBV0KX4P7O", "dateTime": 1515865133786}, {"current_trial": 148, "trialdata": {"rt": -1000, "trial_type": "single-audio", "word": "body", "stimulus": "/static/audio/wordpool/BODY.wav", "conditions": [24, 800, "a", 12000], "internal_node_id": "0.0-112.0", "trial": 3, "time_elapsed": 633791, "serialpos": 19, "key_press": -1, "wordID": 144, "type": "PRES_AUD", "trial_index": 148}, "uniqueid": "MTK1369:3LUY3GC6307LMWPGBIZ3QBV0KX4P7O", "dateTime": 1515865135748}, {"current_trial": 149, "trialdata": {"rt": -1000, "trial_type": "single-audio", "word": "beaker", "stimulus": "/static/audio/wordpool/BEAKER.wav", "conditions": [24, 800, "a", 12000], "internal_node_id": "0.0-113.0", "trial": 3, "time_elapsed": 635643, "serialpos": 20, "key_press": -1, "wordID": 103, "type": "PRES_AUD", "trial_index": 149}, "uniqueid": "MTK1369:3LUY3GC6307LMWPGBIZ3QBV0KX4P7O", "dateTime": 1515865137600}, {"current_trial": 150, "trialdata": {"rt": -1000, "trial_type": "single-audio", "word": "vagrant", "stimulus": "/static/audio/wordpool/VAGRANT.wav", "conditions": [24, 800, "a", 12000], "internal_node_id": "0.0-114.0", "trial": 3, "time_elapsed": 637643, "serialpos": 21, "key_press": -1, "wordID": 1543, "type": "PRES_AUD", "trial_index": 150}, "uniqueid": "MTK1369:3LUY3GC6307LMWPGBIZ3QBV0KX4P7O", "dateTime": 1515865139600}, {"current_trial": 151, "trialdata": {"rt": -1000, "trial_type": "single-audio", "word": "fruit", "stimulus": "/static/audio/wordpool/FRUIT.wav", "conditions": [24, 800, "a", 12000], "internal_node_id": "0.0-115.0", "trial": 3, "time_elapsed": 639628, "serialpos": 22, "key_press": -1, "wordID": 609, "type": "PRES_AUD", "trial_index": 151}, "uniqueid": "MTK1369:3LUY3GC6307LMWPGBIZ3QBV0KX4P7O", "dateTime": 1515865141585}, {"current_trial": 152, "trialdata": {"rt": -1000, "trial_type": "single-audio", "word": "cafe", "stimulus": "/static/audio/wordpool/CAFE.wav", "conditions": [24, 800, "a", 12000], "internal_node_id": "0.0-116.0", "trial": 3, "time_elapsed": 641326, "serialpos": 23, "key_press": -1, "wordID": 215, "type": "PRES_AUD", "trial_index": 152}, "uniqueid": "MTK1369:3LUY3GC6307LMWPGBIZ3QBV0KX4P7O", "dateTime": 1515865143283}, {"current_trial": 153, "trialdata": {"rt": -1, "trial_type": "single-stim", "stimulus": "", "internal_node_id": "0.0-117.0-0.0", "time_elapsed": 642643, "key_press": -1, "type": "PRE_RECALL_DELAY", "trial_index": 153}, "uniqueid": "MTK1369:3LUY3GC6307LMWPGBIZ3QBV0KX4P7O", "dateTime": 1515865144600}, {"current_trial": 154, "trialdata": {"rt": -1000, "trial_type": "single-audio", "stimulus": "/static/audio/400Hz.wav", "internal_node_id": "0.0-118.0", "time_elapsed": 643149, "key_press": -1, "type": "PRE_RECALL_ALERT", "trial_index": 154}, "uniqueid": "MTK1369:3LUY3GC6307LMWPGBIZ3QBV0KX4P7O", "dateTime": 1515865145106}, {"current_trial": 155, "trialdata": {"rt": [1633, 2805, 3890, 5548, 7564, 11736, 20694, 42545], "recwords": ["fruit", "cafe", "body", "beaker", "vagrant", "champagne", "candy", "fruit"], "key_times": [826, 1021, 1140, 1191, 1282, 1633, 1983, 2117, 2328, 2541, 2805, 3354, 3509, 3611, 3702, 3890, 4644, 4730, 4832, 4951, 5043, 5111, 5548, 6451, 6541, 6663, 6754, 6899, 7084, 7186, 7564, 8209, 8384, 8473, 8600, 8702, 8968, 9733, 9826, 9898, 11736, 18359, 18450, 18711, 18806, 18936, 20694, 41920, 42103, 42197, 42248, 42315, 42545], "trial_type": "free-recall", "conditions": [24, 800, "a", 12000], "internal_node_id": "0.0-119.0-0.0", "key_presses": [70, 82, 85, 73, 84, 13, 67, 65, 70, 69, 13, 66, 79, 68, 89, 13, 66, 69, 65, 75, 69, 82, 13, 86, 65, 71, 82, 65, 78, 84, 13, 67, 72, 65, 77, 80, 65, 71, 78, 69, 13, 67, 65, 78, 68, 89, 13, 70, 82, 85, 73, 84, 13], "trial": 3, "time_elapsed": 703151, "type": "FREE_RECALL", "trial_index": 155}, "uniqueid": "MTK1369:3LUY3GC6307LMWPGBIZ3QBV0KX4P7O", "dateTime": 1515865205111}, {"current_trial": 156, "trialdata": {"rt": 1387, "trial_type": "text", "internal_node_id": "0.0-120.0", "time_elapsed": 706542, "key_press": 13, "type": "INSTRUCTIONS", "trial_index": 156}, "uniqueid": "MTK1369:3LUY3GC6307LMWPGBIZ3QBV0KX4P7O", "dateTime": 1515865208499}, {"current_trial": 157, "trialdata": {"rt": [5716, 9392, 11298], "trial_type": "math-distractor", "key_times": [5091, 5284, 5716, 9064, 9142, 9392, 10727, 10925, 11298], "responses": ["23", "10", "21"], "num2": [6, 5, 7, 4], "num3": [9, 3, 7, 5], "conditions": [12, 1600, "a", 12000], "internal_node_id": "0.0-121.0", "key_presses": [50, 51, 13, 49, 48, 13, 50, 49, 13], "trial": 4, "time_elapsed": 720544, "type": "DISTRACTOR", "trial_index": 157, "num1": [8, 2, 7, 8]}, "uniqueid": "MTK1369:3LUY3GC6307LMWPGBIZ3QBV0KX4P7O", "dateTime": 1515865222501}, {"current_trial": 158, "trialdata": {"rt": -1, "trial_type": "single-stim", "stimulus": "<p id=\"stim\">10</p>", "internal_node_id": "0.0-122.0-0.0", "time_elapsed": 723548, "key_press": -1, "trial_index": 158}, "uniqueid": "MTK1369:3LUY3GC6307LMWPGBIZ3QBV0KX4P7O", "dateTime": 1515865225505}, {"current_trial": 159, "trialdata": {"rt": -1, "trial_type": "single-stim", "stimulus": "<p id=\"stim\">9</p>", "internal_node_id": "0.0-122.0-1.0", "time_elapsed": 724549, "key_press": -1, "trial_index": 159}, "uniqueid": "MTK1369:3LUY3GC6307LMWPGBIZ3QBV0KX4P7O", "dateTime": 1515865226506}, {"current_trial": 160, "trialdata": {"rt": -1, "trial_type": "single-stim", "stimulus": "<p id=\"stim\">8</p>", "internal_node_id": "0.0-122.0-2.0", "time_elapsed": 725550, "key_press": -1, "trial_index": 160}, "uniqueid": "MTK1369:3LUY3GC6307LMWPGBIZ3QBV0KX4P7O", "dateTime": 1515865227507}, {"current_trial": 161, "trialdata": {"rt": -1, "trial_type": "single-stim", "stimulus": "<p id=\"stim\">7</p>", "internal_node_id": "0.0-122.0-3.0", "time_elapsed": 726551, "key_press": -1, "trial_index": 161}, "uniqueid": "MTK1369:3LUY3GC6307LMWPGBIZ3QBV0KX4P7O", "dateTime": 1515865228509}, {"current_trial": 162, "trialdata": {"rt": -1, "trial_type": "single-stim", "stimulus": "<p id=\"stim\">6</p>", "internal_node_id": "0.0-122.0-4.0", "time_elapsed": 727553, "key_press": -1, "trial_index": 162}, "uniqueid": "MTK1369:3LUY3GC6307LMWPGBIZ3QBV0KX4P7O", "dateTime": 1515865229510}, {"current_trial": 163, "trialdata": {"rt": -1, "trial_type": "single-stim", "stimulus": "<p id=\"stim\">5</p>", "internal_node_id": "0.0-122.0-5.0", "time_elapsed": 728555, "key_press": -1, "trial_index": 163}, "uniqueid": "MTK1369:3LUY3GC6307LMWPGBIZ3QBV0KX4P7O", "dateTime": 1515865230512}, {"current_trial": 164, "trialdata": {"rt": -1, "trial_type": "single-stim", "stimulus": "<p id=\"stim\">4</p>", "internal_node_id": "0.0-122.0-6.0", "time_elapsed": 729555, "key_press": -1, "trial_index": 164}, "uniqueid": "MTK1369:3LUY3GC6307LMWPGBIZ3QBV0KX4P7O", "dateTime": 1515865231512}, {"current_trial": 165, "trialdata": {"rt": -1, "trial_type": "single-stim", "stimulus": "<p id=\"stim\">3</p>", "internal_node_id": "0.0-122.0-7.0", "time_elapsed": 730556, "key_press": -1, "trial_index": 165}, "uniqueid": "MTK1369:3LUY3GC6307LMWPGBIZ3QBV0KX4P7O", "dateTime": 1515865232513}, {"current_trial": 166, "trialdata": {"rt": -1, "trial_type": "single-stim", "stimulus": "<p id=\"stim\">2</p>", "internal_node_id": "0.0-122.0-8.0", "time_elapsed": 731558, "key_press": -1, "trial_index": 166}, "uniqueid": "MTK1369:3LUY3GC6307LMWPGBIZ3QBV0KX4P7O", "dateTime": 1515865233515}, {"current_trial": 167, "trialdata": {"rt": -1, "trial_type": "single-stim", "stimulus": "<p id=\"stim\">1</p>", "internal_node_id": "0.0-122.0-9.0", "time_elapsed": 732560, "key_press": -1, "trial_index": 167}, "uniqueid": "MTK1369:3LUY3GC6307LMWPGBIZ3QBV0KX4P7O", "dateTime": 1515865234517}, {"current_trial": 168, "trialdata": {"rt": -1, "trial_type": "single-stim", "stimulus": "<p id=\"stim\">+</p>", "internal_node_id": "0.0-123.0-0.0", "time_elapsed": 734061, "key_press": -1, "type": "FIXATION", "trial_index": 168}, "uniqueid": "MTK1369:3LUY3GC6307LMWPGBIZ3QBV0KX4P7O", "dateTime": 1515865236018}, {"current_trial": 169, "trialdata": {"rt": -1000, "trial_type": "single-audio", "word": "scarf", "stimulus": "/static/audio/wordpool/SCARF.wav", "conditions": [12, 1600, "a", 12000], "internal_node_id": "0.0-124.0", "trial": 4, "time_elapsed": 736774, "serialpos": 0, "key_press": -1, "wordID": 1245, "type": "PRES_AUD", "trial_index": 169}, "uniqueid": "MTK1369:3LUY3GC6307LMWPGBIZ3QBV0KX4P7O", "dateTime": 1515865238731}, {"current_trial": 170, "trialdata": {"rt": -1000, "trial_type": "single-audio", "word": "dress", "stimulus": "/static/audio/wordpool/DRESS.wav", "conditions": [12, 1600, "a", 12000], "internal_node_id": "0.0-125.0", "trial": 4, "time_elapsed": 739446, "serialpos": 1, "key_press": -1, "wordID": 494, "type": "PRES_AUD", "trial_index": 170}, "uniqueid": "MTK1369:3LUY3GC6307LMWPGBIZ3QBV0KX4P7O", "dateTime": 1515865241403}, {"current_trial": 171, "trialdata": {"rt": -1000, "trial_type": "single-audio", "word": "doughnut", "stimulus": "/static/audio/wordpool/DOUGHNUT.wav", "conditions": [12, 1600, "a", 12000], "internal_node_id": "0.0-126.0", "trial": 4, "time_elapsed": 742036, "serialpos": 2, "key_press": -1, "wordID": 489, "type": "PRES_AUD", "trial_index": 171}, "uniqueid": "MTK1369:3LUY3GC6307LMWPGBIZ3QBV0KX4P7O", "dateTime": 1515865243993}, {"current_trial": 172, "trialdata": {"rt": -1000, "trial_type": "single-audio", "word": "briefcase", "stimulus": "/static/audio/wordpool/BRIEFCASE.wav", "conditions": [12, 1600, "a", 12000], "internal_node_id": "0.0-127.0", "trial": 4, "time_elapsed": 744781, "serialpos": 3, "key_press": -1, "wordID": 174, "type": "PRES_AUD", "trial_index": 172}, "uniqueid": "MTK1369:3LUY3GC6307LMWPGBIZ3QBV0KX4P7O", "dateTime": 1515865246738}, {"current_trial": 173, "trialdata": {"rt": -1000, "trial_type": "single-audio", "word": "sponge", "stimulus": "/static/audio/wordpool/SPONGE.wav", "conditions": [12, 1600, "a", 12000], "internal_node_id": "0.0-128.0", "trial": 4, "time_elapsed": 747489, "serialpos": 4, "key_press": -1, "wordID": 1354, "type": "PRES_AUD", "trial_index": 173}, "uniqueid": "MTK1369:3LUY3GC6307LMWPGBIZ3QBV0KX4P7O", "dateTime": 1515865249446}, {"current_trial": 174, "trialdata": {"rt": -1000, "trial_type": "single-audio", "word": "grave", "stimulus": "/static/audio/wordpool/GRAVE.wav", "conditions": [12, 1600, "a", 12000], "internal_node_id": "0.0-129.0", "trial": 4, "time_elapsed": 750102, "serialpos": 5, "key_press": -1, "wordID": 657, "type": "PRES_AUD", "trial_index": 174}, "uniqueid": "MTK1369:3LUY3GC6307LMWPGBIZ3QBV0KX4P7O", "dateTime": 1515865252059}, {"current_trial": 175, "trialdata": {"rt": -1000, "trial_type": "single-audio", "word": "sword", "stimulus": "/static/audio/wordpool/SWORD.wav", "conditions": [12, 1600, "a", 12000], "internal_node_id": "0.0-130.0", "trial": 4, "time_elapsed": 752894, "serialpos": 6, "key_press": -1, "wordID": 1422, "type": "PRES_AUD", "trial_index": 175}, "uniqueid": "MTK1369:3LUY3GC6307LMWPGBIZ3QBV0KX4P7O", "dateTime": 1515865254851}, {"current_trial": 176, "trialdata": {"rt": -1000, "trial_type": "single-audio", "word": "salmon", "stimulus": "/static/audio/wordpool/SALMON.wav", "conditions": [12, 1600, "a", 12000], "internal_node_id": "0.0-131.0", "trial": 4, "time_elapsed": 755418, "serialpos": 7, "key_press": -1, "wordID": 1226, "type": "PRES_AUD", "trial_index": 176}, "uniqueid": "MTK1369:3LUY3GC6307LMWPGBIZ3QBV0KX4P7O", "dateTime": 1515865257375}, {"current_trial": 177, "trialdata": {"rt": -1000, "trial_type": "single-audio", "word": "bug", "stimulus": "/static/audio/wordpool/BUG.wav", "conditions": [12, 1600, "a", 12000], "internal_node_id": "0.0-132.0", "trial": 4, "time_elapsed": 757825, "serialpos": 8, "key_press": -1, "wordID": 186, "type": "PRES_AUD", "trial_index": 177}, "uniqueid": "MTK1369:3LUY3GC6307LMWPGBIZ3QBV0KX4P7O", "dateTime": 1515865259782}, {"current_trial": 178, "trialdata": {"rt": -1000, "trial_type": "single-audio", "word": "twister", "stimulus": "/static/audio/wordpool/TWISTER.wav", "conditions": [12, 1600, "a", 12000], "internal_node_id": "0.0-133.0", "trial": 4, "time_elapsed": 760402, "serialpos": 9, "key_press": -1, "wordID": 1529, "type": "PRES_AUD", "trial_index": 178}, "uniqueid": "MTK1369:3LUY3GC6307LMWPGBIZ3QBV0KX4P7O", "dateTime": 1515865262359}, {"current_trial": 179, "trialdata": {"rt": -1000, "trial_type": "single-audio", "word": "pizza", "stimulus": "/static/audio/wordpool/PIZZA.wav", "conditions": [12, 1600, "a", 12000], "internal_node_id": "0.0-134.0", "trial": 4, "time_elapsed": 763167, "serialpos": 10, "key_press": -1, "wordID": 1078, "type": "PRES_AUD", "trial_index": 179}, "uniqueid": "MTK1369:3LUY3GC6307LMWPGBIZ3QBV0KX4P7O", "dateTime": 1515865265125}, {"current_trial": 180, "trialdata": {"rt": -1000, "trial_type": "single-audio", "word": "machine", "stimulus": "/static/audio/wordpool/MACHINE.wav", "conditions": [12, 1600, "a", 12000], "internal_node_id": "0.0-135.0", "trial": 4, "time_elapsed": 765881, "serialpos": 11, "key_press": -1, "wordID": 851, "type": "PRES_AUD", "trial_index": 180}, "uniqueid": "MTK1369:3LUY3GC6307LMWPGBIZ3QBV0KX4P7O", "dateTime": 1515865267838}, {"current_trial": 181, "trialdata": {"rt": -1, "trial_type": "single-stim", "stimulus": "", "internal_node_id": "0.0-136.0-0.0", "time_elapsed": 767108, "key_press": -1, "type": "PRE_RECALL_DELAY", "trial_index": 181}, "uniqueid": "MTK1369:3LUY3GC6307LMWPGBIZ3QBV0KX4P7O", "dateTime": 1515865269065}, {"current_trial": 182, "trialdata": {"rt": -1000, "trial_type": "single-audio", "stimulus": "/static/audio/400Hz.wav", "internal_node_id": "0.0-137.0", "time_elapsed": 767608, "key_press": -1, "type": "PRE_RECALL_ALERT", "trial_index": 182}, "uniqueid": "MTK1369:3LUY3GC6307LMWPGBIZ3QBV0KX4P7O", "dateTime": 1515865269565}, {"current_trial": 183, "trialdata": {"rt": [2798, 5869, 9594, 11328, 14730, 19573, 29940], "recwords": ["scarf", "machine", "salmon", "grave", "donut", "twister", "dress"], "key_times": [1313, 1568, 1692, 1807, 1988, 2798, 4244, 4341, 4415, 4513, 4570, 4679, 4747, 5869, 6182, 6286, 6385, 6656, 7099, 7363, 9594, 10322, 10704, 10805, 10951, 11063, 11328, 13532, 13636, 13785, 14143, 14268, 14730, 17989, 18101, 18238, 18347, 18457, 18560, 18913, 19573, 29113, 29197, 29280, 29432, 29560, 29940], "trial_type": "free-recall", "conditions": [12, 1600, "a", 12000], "internal_node_id": "0.0-138.0-0.0", "key_presses": [83, 67, 65, 82, 70, 13, 77, 65, 67, 72, 73, 78, 69, 13, 83, 65, 76, 77, 79, 78, 13, 71, 82, 65, 86, 69, 13, 68, 79, 78, 85, 84, 13, 84, 87, 73, 83, 84, 69, 82, 13, 68, 82, 69, 83, 83, 13], "trial": 4, "time_elapsed": 827611, "type": "FREE_RECALL", "trial_index": 183}, "uniqueid": "MTK1369:3LUY3GC6307LMWPGBIZ3QBV0KX4P7O", "dateTime": 1515865329571}, {"current_trial": 184, "trialdata": {"rt": 1232, "trial_type": "text", "internal_node_id": "0.0-139.0", "time_elapsed": 830847, "key_press": 13, "type": "INSTRUCTIONS", "trial_index": 184}, "uniqueid": "MTK1369:3LUY3GC6307LMWPGBIZ3QBV0KX4P7O", "dateTime": 1515865332804}, {"current_trial": 185, "trialdata": {"rt": [2395, 6204, 7900, 10022, 12019, 13822, 15547, 19116, 20942, 22371], "trial_type": "math-distractor", "key_times": [2030, 2114, 2395, 4821, 4999, 6204, 7694, 7900, 9730, 9785, 10022, 11690, 11727, 12019, 13385, 13553, 13822, 15161, 15319, 15547, 17733, 17767, 18287, 18438, 18759, 18878, 19116, 20584, 20695, 20942, 22123, 22371, 23839, 23890], "responses": ["17", "24", "6", "20", "12", "17", "17", "18", "17", "7"], "num2": [7, 7, 2, 7, 7, 1, 3, 3, 3, 1, 8], "num3": [2, 9, 3, 4, 1, 8, 6, 9, 9, 5, 8], "conditions": [12, 800, "a", 24000], "internal_node_id": "0.0-140.0", "key_presses": [49, 55, 13, 50, 52, 13, 54, 13, 50, 48, 13, 49, 50, 13, 49, 55, 13, 49, 55, 13, 50, 56, 8, 8, 49, 56, 13, 49, 55, 13, 55, 13, 50, 51], "trial": 5, "time_elapsed": 856851, "type": "DISTRACTOR", "trial_index": 185, "num1": [8, 8, 1, 9, 4, 8, 8, 6, 5, 1, 7]}, "uniqueid": "MTK1369:3LUY3GC6307LMWPGBIZ3QBV0KX4P7O", "dateTime": 1515865358808}, {"current_trial": 186, "trialdata": {"rt": -1, "trial_type": "single-stim", "stimulus": "<p id=\"stim\">10</p>", "internal_node_id": "0.0-141.0-0.0", "time_elapsed": 859853, "key_press": -1, "trial_index": 186}, "uniqueid": "MTK1369:3LUY3GC6307LMWPGBIZ3QBV0KX4P7O", "dateTime": 1515865361810}, {"current_trial": 187, "trialdata": {"rt": -1, "trial_type": "single-stim", "stimulus": "<p id=\"stim\">9</p>", "internal_node_id": "0.0-141.0-1.0", "time_elapsed": 860854, "key_press": -1, "trial_index": 187}, "uniqueid": "MTK1369:3LUY3GC6307LMWPGBIZ3QBV0KX4P7O", "dateTime": 1515865362811}, {"current_trial": 188, "trialdata": {"rt": -1, "trial_type": "single-stim", "stimulus": "<p id=\"stim\">8</p>", "internal_node_id": "0.0-141.0-2.0", "time_elapsed": 861855, "key_press": -1, "trial_index": 188}, "uniqueid": "MTK1369:3LUY3GC6307LMWPGBIZ3QBV0KX4P7O", "dateTime": 1515865363813}, {"current_trial": 189, "trialdata": {"rt": -1, "trial_type": "single-stim", "stimulus": "<p id=\"stim\">7</p>", "internal_node_id": "0.0-141.0-3.0", "time_elapsed": 862856, "key_press": -1, "trial_index": 189}, "uniqueid": "MTK1369:3LUY3GC6307LMWPGBIZ3QBV0KX4P7O", "dateTime": 1515865364813}, {"current_trial": 190, "trialdata": {"rt": -1, "trial_type": "single-stim", "stimulus": "<p id=\"stim\">6</p>", "internal_node_id": "0.0-141.0-4.0", "time_elapsed": 863857, "key_press": -1, "trial_index": 190}, "uniqueid": "MTK1369:3LUY3GC6307LMWPGBIZ3QBV0KX4P7O", "dateTime": 1515865365814}, {"current_trial": 191, "trialdata": {"rt": -1, "trial_type": "single-stim", "stimulus": "<p id=\"stim\">5</p>", "internal_node_id": "0.0-141.0-5.0", "time_elapsed": 864858, "key_press": -1, "trial_index": 191}, "uniqueid": "MTK1369:3LUY3GC6307LMWPGBIZ3QBV0KX4P7O", "dateTime": 1515865366815}, {"current_trial": 192, "trialdata": {"rt": -1, "trial_type": "single-stim", "stimulus": "<p id=\"stim\">4</p>", "internal_node_id": "0.0-141.0-6.0", "time_elapsed": 865859, "key_press": -1, "trial_index": 192}, "uniqueid": "MTK1369:3LUY3GC6307LMWPGBIZ3QBV0KX4P7O", "dateTime": 1515865367816}, {"current_trial": 193, "trialdata": {"rt": -1, "trial_type": "single-stim", "stimulus": "<p id=\"stim\">3</p>", "internal_node_id": "0.0-141.0-7.0", "time_elapsed": 866861, "key_press": -1, "trial_index": 193}, "uniqueid": "MTK1369:3LUY3GC6307LMWPGBIZ3QBV0KX4P7O", "dateTime": 1515865368818}, {"current_trial": 194, "trialdata": {"rt": -1, "trial_type": "single-stim", "stimulus": "<p id=\"stim\">2</p>", "internal_node_id": "0.0-141.0-8.0", "time_elapsed": 867863, "key_press": -1, "trial_index": 194}, "uniqueid": "MTK1369:3LUY3GC6307LMWPGBIZ3QBV0KX4P7O", "dateTime": 1515865369820}, {"current_trial": 195, "trialdata": {"rt": -1, "trial_type": "single-stim", "stimulus": "<p id=\"stim\">1</p>", "internal_node_id": "0.0-141.0-9.0", "time_elapsed": 868865, "key_press": -1, "trial_index": 195}, "uniqueid": "MTK1369:3LUY3GC6307LMWPGBIZ3QBV0KX4P7O", "dateTime": 1515865370822}, {"current_trial": 196, "trialdata": {"rt": -1, "trial_type": "single-stim", "stimulus": "<p id=\"stim\">+</p>", "internal_node_id": "0.0-142.0-0.0", "time_elapsed": 870367, "key_press": -1, "type": "FIXATION", "trial_index": 196}, "uniqueid": "MTK1369:3LUY3GC6307LMWPGBIZ3QBV0KX4P7O", "dateTime": 1515865372324}, {"current_trial": 197, "trialdata": {"rt": -1000, "trial_type": "single-audio", "word": "boyfriend", "stimulus": "/static/audio/wordpool/BOYFRIEND.wav", "conditions": [12, 800, "a", 24000], "internal_node_id": "0.0-143.0", "trial": 5, "time_elapsed": 872332, "serialpos": 0, "key_press": -1, "wordID": 161, "type": "PRES_AUD", "trial_index": 197}, "uniqueid": "MTK1369:3LUY3GC6307LMWPGBIZ3QBV0KX4P7O", "dateTime": 1515865374289}, {"current_trial": 198, "trialdata": {"rt": -1000, "trial_type": "single-audio", "word": "nurse", "stimulus": "/static/audio/wordpool/NURSE.wav", "conditions": [12, 800, "a", 24000], "internal_node_id": "0.0-144.0", "trial": 5, "time_elapsed": 874262, "serialpos": 1, "key_press": -1, "wordID": 962, "type": "PRES_AUD", "trial_index": 198}, "uniqueid": "MTK1369:3LUY3GC6307LMWPGBIZ3QBV0KX4P7O", "dateTime": 1515865376219}, {"current_trial": 199, "trialdata": {"rt": -1000, "trial_type": "single-audio", "word": "flipper", "stimulus": "/static/audio/wordpool/FLIPPER.wav", "conditions": [12, 800, "a", 24000], "internal_node_id": "0.0-145.0", "trial": 5, "time_elapsed": 875947, "serialpos": 2, "key_press": -1, "wordID": 579, "type": "PRES_AUD", "trial_index": 199}, "uniqueid": "MTK1369:3LUY3GC6307LMWPGBIZ3QBV0KX4P7O", "dateTime": 1515865377904}, {"current_trial": 200, "trialdata": {"rt": -1000, "trial_type": "single-audio", "word": "gallon", "stimulus": "/static/audio/wordpool/GALLON.wav", "conditions": [12, 800, "a", 24000], "internal_node_id": "0.0-146.0", "trial": 5, "time_elapsed": 877771, "serialpos": 3, "key_press": -1, "wordID": 617, "type": "PRES_AUD", "trial_index": 200}, "uniqueid": "MTK1369:3LUY3GC6307LMWPGBIZ3QBV0KX4P7O", "dateTime": 1515865379728}, {"current_trial": 201, "trialdata": {"rt": -1000, "trial_type": "single-audio", "word": "garbage", "stimulus": "/static/audio/wordpool/GARBAGE.wav", "conditions": [12, 800, "a", 24000], "internal_node_id": "0.0-147.0", "trial": 5, "time_elapsed": 879747, "serialpos": 4, "key_press": -1, "wordID": 621, "type": "PRES_AUD", "trial_index": 201}, "uniqueid": "MTK1369:3LUY3GC6307LMWPGBIZ3QBV0KX4P7O", "dateTime": 1515865381704}, {"current_trial": 202, "trialdata": {"rt": -1000, "trial_type": "single-audio", "word": "blockade", "stimulus": "/static/audio/wordpool/BLOCKADE.wav", "conditions": [12, 800, "a", 24000], "internal_node_id": "0.0-148.0", "trial": 5, "time_elapsed": 881461, "serialpos": 5, "key_press": -1, "wordID": 136, "type": "PRES_AUD", "trial_index": 202}, "uniqueid": "MTK1369:3LUY3GC6307LMWPGBIZ3QBV0KX4P7O", "dateTime": 1515865383418}, {"current_trial": 203, "trialdata": {"rt": -1000, "trial_type": "single-audio", "word": "brook", "stimulus": "/static/audio/wordpool/BROOK.wav", "conditions": [12, 800, "a", 24000], "internal_node_id": "0.0-149.0", "trial": 5, "time_elapsed": 883116, "serialpos": 6, "key_press": -1, "wordID": 176, "type": "PRES_AUD", "trial_index": 203}, "uniqueid": "MTK1369:3LUY3GC6307LMWPGBIZ3QBV0KX4P7O", "dateTime": 1515865385073}, {"current_trial": 204, "trialdata": {"rt": -1000, "trial_type": "single-audio", "word": "slide", "stimulus": "/static/audio/wordpool/SLIDE.wav", "conditions": [12, 800, "a", 24000], "internal_node_id": "0.0-150.0", "trial": 5, "time_elapsed": 885067, "serialpos": 7, "key_press": -1, "wordID": 1325, "type": "PRES_AUD", "trial_index": 204}, "uniqueid": "MTK1369:3LUY3GC6307LMWPGBIZ3QBV0KX4P7O", "dateTime": 1515865387024}, {"current_trial": 205, "trialdata": {"rt": -1000, "trial_type": "single-audio", "word": "patient", "stimulus": "/static/audio/wordpool/PATIENT.wav", "conditions": [12, 800, "a", 24000], "internal_node_id": "0.0-151.0", "trial": 5, "time_elapsed": 886952, "serialpos": 8, "key_press": -1, "wordID": 1023, "type": "PRES_AUD", "trial_index": 205}, "uniqueid": "MTK1369:3LUY3GC6307LMWPGBIZ3QBV0KX4P7O", "dateTime": 1515865388910}, {"current_trial": 206, "trialdata": {"rt": -1000, "trial_type": "single-audio", "word": "parrot", "stimulus": "/static/audio/wordpool/PARROT.wav", "conditions": [12, 800, "a", 24000], "internal_node_id": "0.0-152.0", "trial": 5, "time_elapsed": 888626, "serialpos": 9, "key_press": -1, "wordID": 1014, "type": "PRES_AUD", "trial_index": 206}, "uniqueid": "MTK1369:3LUY3GC6307LMWPGBIZ3QBV0KX4P7O", "dateTime": 1515865390583}, {"current_trial": 207, "trialdata": {"rt": -1000, "trial_type": "single-audio", "word": "snail", "stimulus": "/static/audio/wordpool/SNAIL.wav", "conditions": [12, 800, "a", 24000], "internal_node_id": "0.0-153.0", "trial": 5, "time_elapsed": 890468, "serialpos": 10, "key_press": -1, "wordID": 1331, "type": "PRES_AUD", "trial_index": 207}, "uniqueid": "MTK1369:3LUY3GC6307LMWPGBIZ3QBV0KX4P7O", "dateTime": 1515865392425}, {"current_trial": 208, "trialdata": {"rt": -1000, "trial_type": "single-audio", "word": "tortoise", "stimulus": "/static/audio/wordpool/TORTOISE.wav", "conditions": [12, 800, "a", 24000], "internal_node_id": "0.0-154.0", "trial": 5, "time_elapsed": 892416, "serialpos": 11, "key_press": -1, "wordID": 1485, "type": "PRES_AUD", "trial_index": 208}, "uniqueid": "MTK1369:3LUY3GC6307LMWPGBIZ3QBV0KX4P7O", "dateTime": 1515865394373}, {"current_trial": 209, "trialdata": {"rt": -1, "trial_type": "single-stim", "stimulus": "", "internal_node_id": "0.0-155.0-0.0", "time_elapsed": 893751, "key_press": -1, "type": "PRE_RECALL_DELAY", "trial_index": 209}, "uniqueid": "MTK1369:3LUY3GC6307LMWPGBIZ3QBV0KX4P7O", "dateTime": 1515865395708}, {"current_trial": 210, "trialdata": {"rt": -1000, "trial_type": "single-audio", "stimulus": "/static/audio/400Hz.wav", "internal_node_id": "0.0-156.0", "time_elapsed": 894261, "key_press": -1, "type": "PRE_RECALL_ALERT", "trial_index": 210}, "uniqueid": "MTK1369:3LUY3GC6307LMWPGBIZ3QBV0KX4P7O", "dateTime": 1515865396218}, {"current_trial": 211, "trialdata": {"rt": [2587, 6542, 9431, 11159, 13378, 15566, 20816, 33696], "recwords": ["snail", "tortoise", "brook", "boyfriend", "nurse", "gallon", "slide", "garbage"], "key_times": [1934, 2084, 2198, 2251, 2315, 2587, 3214, 3338, 3436, 4031, 4577, 4635, 4879, 4983, 6542, 8555, 8735, 8822, 8954, 9095, 9431, 9834, 9976, 10147, 10274, 10434, 10545, 10619, 10748, 10829, 11159, 12586, 12700, 12748, 12962, 13033, 13378, 14756, 14891, 14975, 15104, 15266, 15332, 15566, 15919, 16079, 16140, 17381, 17549, 17704, 17907, 20314, 20359, 20468, 20540, 20687, 20816, 27869, 28770, 28826, 28945, 29122, 29238, 29744, 29878, 30049, 30142, 30369, 33696], "trial_type": "free-recall", "conditions": [12, 800, "a", 24000], "internal_node_id": "0.0-157.0-0.0", "key_presses": [83, 78, 65, 73, 76, 13, 84, 79, 82, 84, 79, 73, 83, 69, 13, 66, 82, 79, 79, 75, 13, 66, 79, 89, 70, 82, 73, 69, 78, 68, 13, 78, 85, 82, 83, 69, 13, 71, 65, 76, 76, 79, 78, 13, 71, 65, 82, 8, 8, 8, 8, 83, 76, 73, 68, 69, 13, 71, 65, 82, 66, 71, 69, 8, 8, 65, 71, 69, 13], "trial": 5, "time_elapsed": 954264, "type": "FREE_RECALL", "trial_index": 211}, "uniqueid": "MTK1369:3LUY3GC6307LMWPGBIZ3QBV0KX4P7O", "dateTime": 1515865456224}, {"current_trial": 212, "trialdata": {"rt": 1034, "trial_type": "text", "internal_node_id": "0.0-158.0", "time_elapsed": 957301, "key_press": 13, "type": "INSTRUCTIONS", "trial_index": 212}, "uniqueid": "MTK1369:3LUY3GC6307LMWPGBIZ3QBV0KX4P7O", "dateTime": 1515865459258}, {"current_trial": 213, "trialdata": {"rt": [2320, 4604, 6540, 8149, 9770, 12622, 14185, 15773, 18304, 20156, 22756], "trial_type": "math-distractor", "key_times": [1717, 1840, 2320, 4097, 4368, 4604, 6327, 6540, 7872, 7923, 8149, 9597, 9770, 10916, 10978, 11712, 12019, 12321, 12423, 12622, 14014, 14185, 15449, 15497, 15773, 17933, 17978, 18304, 19703, 19857, 20156, 22390, 22446, 22756], "responses": ["11", "13", "9", "12", "7", "13", "7", "19", "18", "14", "19"], "num2": [5, 4, 7, 1, 3, 5, 2, 9, 8, 7, 9, 5], "num3": [2, 4, 1, 8, 1, 1, 2, 9, 9, 6, 4, 1], "conditions": [12, 800, "a", 24000], "internal_node_id": "0.0-159.0", "key_presses": [49, 49, 13, 49, 51, 13, 57, 13, 49, 50, 13, 55, 13, 49, 50, 8, 52, 8, 51, 13, 55, 13, 49, 57, 13, 49, 56, 13, 49, 52, 13, 49, 57, 13], "trial": 6, "time_elapsed": 983305, "type": "DISTRACTOR", "trial_index": 213, "num1": [4, 5, 1, 3, 3, 7, 3, 1, 1, 1, 6, 7]}, "uniqueid": "MTK1369:3LUY3GC6307LMWPGBIZ3QBV0KX4P7O", "dateTime": 1515865485262}, {"current_trial": 214, "trialdata": {"rt": -1, "trial_type": "single-stim", "stimulus": "<p id=\"stim\">10</p>", "internal_node_id": "0.0-160.0-0.0", "time_elapsed": 986307, "key_press": -1, "trial_index": 214}, "uniqueid": "MTK1369:3LUY3GC6307LMWPGBIZ3QBV0KX4P7O", "dateTime": 1515865488264}, {"current_trial": 215, "trialdata": {"rt": -1, "trial_type": "single-stim", "stimulus": "<p id=\"stim\">9</p>", "internal_node_id": "0.0-160.0-1.0", "time_elapsed": 987309, "key_press": -1, "trial_index": 215}, "uniqueid": "MTK1369:3LUY3GC6307LMWPGBIZ3QBV0KX4P7O", "dateTime": 1515865489266}, {"current_trial": 216, "trialdata": {"rt": -1, "trial_type": "single-stim", "stimulus": "<p id=\"stim\">8</p>", "internal_node_id": "0.0-160.0-2.0", "time_elapsed": 988310, "key_press": -1, "trial_index": 216}, "uniqueid": "MTK1369:3LUY3GC6307LMWPGBIZ3QBV0KX4P7O", "dateTime": 1515865490267}, {"current_trial": 217, "trialdata": {"rt": -1, "trial_type": "single-stim", "stimulus": "<p id=\"stim\">7</p>", "internal_node_id": "0.0-160.0-3.0", "time_elapsed": 989312, "key_press": -1, "trial_index": 217}, "uniqueid": "MTK1369:3LUY3GC6307LMWPGBIZ3QBV0KX4P7O", "dateTime": 1515865491270}, {"current_trial": 218, "trialdata": {"rt": -1, "trial_type": "single-stim", "stimulus": "<p id=\"stim\">6</p>", "internal_node_id": "0.0-160.0-4.0", "time_elapsed": 990313, "key_press": -1, "trial_index": 218}, "uniqueid": "MTK1369:3LUY3GC6307LMWPGBIZ3QBV0KX4P7O", "dateTime": 1515865492271}, {"current_trial": 219, "trialdata": {"rt": -1, "trial_type": "single-stim", "stimulus": "<p id=\"stim\">5</p>", "internal_node_id": "0.0-160.0-5.0", "time_elapsed": 991314, "key_press": -1, "trial_index": 219}, "uniqueid": "MTK1369:3LUY3GC6307LMWPGBIZ3QBV0KX4P7O", "dateTime": 1515865493271}, {"current_trial": 220, "trialdata": {"rt": -1, "trial_type": "single-stim", "stimulus": "<p id=\"stim\">4</p>", "internal_node_id": "0.0-160.0-6.0", "time_elapsed": 992317, "key_press": -1, "trial_index": 220}, "uniqueid": "MTK1369:3LUY3GC6307LMWPGBIZ3QBV0KX4P7O", "dateTime": 1515865494274}, {"current_trial": 221, "trialdata": {"rt": -1, "trial_type": "single-stim", "stimulus": "<p id=\"stim\">3</p>", "internal_node_id": "0.0-160.0-7.0", "time_elapsed": 993317, "key_press": -1, "trial_index": 221}, "uniqueid": "MTK1369:3LUY3GC6307LMWPGBIZ3QBV0KX4P7O", "dateTime": 1515865495275}, {"current_trial": 222, "trialdata": {"rt": -1, "trial_type": "single-stim", "stimulus": "<p id=\"stim\">2</p>", "internal_node_id": "0.0-160.0-8.0", "time_elapsed": 994318, "key_press": -1, "trial_index": 222}, "uniqueid": "MTK1369:3LUY3GC6307LMWPGBIZ3QBV0KX4P7O", "dateTime": 1515865496275}, {"current_trial": 223, "trialdata": {"rt": -1, "trial_type": "single-stim", "stimulus": "<p id=\"stim\">1</p>", "internal_node_id": "0.0-160.0-9.0", "time_elapsed": 995320, "key_press": -1, "trial_index": 223}, "uniqueid": "MTK1369:3LUY3GC6307LMWPGBIZ3QBV0KX4P7O", "dateTime": 1515865497277}, {"current_trial": 224, "trialdata": {"rt": -1, "trial_type": "single-stim", "stimulus": "<p id=\"stim\">+</p>", "internal_node_id": "0.0-161.0-0.0", "time_elapsed": 996822, "key_press": -1, "type": "FIXATION", "trial_index": 224}, "uniqueid": "MTK1369:3LUY3GC6307LMWPGBIZ3QBV0KX4P7O", "dateTime": 1515865498779}, {"current_trial": 225, "trialdata": {"rt": -1000, "trial_type": "single-audio", "word": "valley", "stimulus": "/static/audio/wordpool/VALLEY.wav", "conditions": [12, 800, "a", 24000], "internal_node_id": "0.0-162.0", "trial": 6, "time_elapsed": 998647, "serialpos": 0, "key_press": -1, "wordID": 1544, "type": "PRES_AUD", "trial_index": 225}, "uniqueid": "MTK1369:3LUY3GC6307LMWPGBIZ3QBV0KX4P7O", "dateTime": 1515865500604}, {"current_trial": 226, "trialdata": {"rt": -1000, "trial_type": "single-audio", "word": "canyon", "stimulus": "/static/audio/wordpool/CANYON.wav", "conditions": [12, 800, "a", 24000], "internal_node_id": "0.0-163.0", "trial": 6, "time_elapsed": 1000311, "serialpos": 1, "key_press": -1, "wordID": 234, "type": "PRES_AUD", "trial_index": 226}, "uniqueid": "MTK1369:3LUY3GC6307LMWPGBIZ3QBV0KX4P7O", "dateTime": 1515865502268}, {"current_trial": 227, "trialdata": {"rt": -1000, "trial_type": "single-audio", "word": "garlic", "stimulus": "/static/audio/wordpool/GARLIC.wav", "conditions": [12, 800, "a", 24000], "internal_node_id": "0.0-164.0", "trial": 6, "time_elapsed": 1002125, "serialpos": 2, "key_press": -1, "wordID": 623, "type": "PRES_AUD", "trial_index": 227}, "uniqueid": "MTK1369:3LUY3GC6307LMWPGBIZ3QBV0KX4P7O", "dateTime": 1515865504082}, {"current_trial": 228, "trialdata": {"rt": -1000, "trial_type": "single-audio", "word": "picture", "stimulus": "/static/audio/wordpool/PICTURE.wav", "conditions": [12, 800, "a", 24000], "internal_node_id": "0.0-165.0", "trial": 6, "time_elapsed": 1003823, "serialpos": 3, "key_press": -1, "wordID": 1060, "type": "PRES_AUD", "trial_index": 228}, "uniqueid": "MTK1369:3LUY3GC6307LMWPGBIZ3QBV0KX4P7O", "dateTime": 1515865505780}, {"current_trial": 229, "trialdata": {"rt": -1000, "trial_type": "single-audio", "word": "hero", "stimulus": "/static/audio/wordpool/HERO.wav", "conditions": [12, 800, "a", 24000], "internal_node_id": "0.0-166.0", "trial": 6, "time_elapsed": 1005794, "serialpos": 4, "key_press": -1, "wordID": 705, "type": "PRES_AUD", "trial_index": 229}, "uniqueid": "MTK1369:3LUY3GC6307LMWPGBIZ3QBV0KX4P7O", "dateTime": 1515865507751}, {"current_trial": 230, "trialdata": {"rt": -1000, "trial_type": "single-audio", "word": "author", "stimulus": "/static/audio/wordpool/AUTHOR.wav", "conditions": [12, 800, "a", 24000], "internal_node_id": "0.0-167.0", "trial": 6, "time_elapsed": 1007437, "serialpos": 5, "key_press": -1, "wordID": 60, "type": "PRES_AUD", "trial_index": 230}, "uniqueid": "MTK1369:3LUY3GC6307LMWPGBIZ3QBV0KX4P7O", "dateTime": 1515865509394}, {"current_trial": 231, "trialdata": {"rt": -1000, "trial_type": "single-audio", "word": "portrait", "stimulus": "/static/audio/wordpool/PORTRAIT.wav", "conditions": [12, 800, "a", 24000], "internal_node_id": "0.0-168.0", "trial": 6, "time_elapsed": 1009382, "serialpos": 6, "key_press": -1, "wordID": 1110, "type": "PRES_AUD", "trial_index": 231}, "uniqueid": "MTK1369:3LUY3GC6307LMWPGBIZ3QBV0KX4P7O", "dateTime": 1515865511339}, {"current_trial": 232, "trialdata": {"rt": -1000, "trial_type": "single-audio", "word": "mustard", "stimulus": "/static/audio/wordpool/MUSTARD.wav", "conditions": [12, 800, "a", 24000], "internal_node_id": "0.0-169.0", "trial": 6, "time_elapsed": 1011208, "serialpos": 7, "key_press": -1, "wordID": 934, "type": "PRES_AUD", "trial_index": 232}, "uniqueid": "MTK1369:3LUY3GC6307LMWPGBIZ3QBV0KX4P7O", "dateTime": 1515865513165}, {"current_trial": 233, "trialdata": {"rt": -1000, "trial_type": "single-audio", "word": "honey", "stimulus": "/static/audio/wordpool/HONEY.wav", "conditions": [12, 800, "a", 24000], "internal_node_id": "0.0-170.0", "trial": 6, "time_elapsed": 1012983, "serialpos": 8, "key_press": -1, "wordID": 712, "type": "PRES_AUD", "trial_index": 233}, "uniqueid": "MTK1369:3LUY3GC6307LMWPGBIZ3QBV0KX4P7O", "dateTime": 1515865514940}, {"current_trial": 234, "trialdata": {"rt": -1000, "trial_type": "single-audio", "word": "gangster", "stimulus": "/static/audio/wordpool/GANGSTER.wav", "conditions": [12, 800, "a", 24000], "internal_node_id": "0.0-171.0", "trial": 6, "time_elapsed": 1014891, "serialpos": 9, "key_press": -1, "wordID": 619, "type": "PRES_AUD", "trial_index": 234}, "uniqueid": "MTK1369:3LUY3GC6307LMWPGBIZ3QBV0KX4P7O", "dateTime": 1515865516848}, {"current_trial": 235, "trialdata": {"rt": -1000, "trial_type": "single-audio", "word": "fragrance", "stimulus": "/static/audio/wordpool/FRAGRANCE.wav", "conditions": [12, 800, "a", 24000], "internal_node_id": "0.0-172.0", "trial": 6, "time_elapsed": 1016605, "serialpos": 10, "key_press": -1, "wordID": 598, "type": "PRES_AUD", "trial_index": 235}, "uniqueid": "MTK1369:3LUY3GC6307LMWPGBIZ3QBV0KX4P7O", "dateTime": 1515865518562}, {"current_trial": 236, "trialdata": {"rt": -1000, "trial_type": "single-audio", "word": "bison", "stimulus": "/static/audio/wordpool/BISON.wav", "conditions": [12, 800, "a", 24000], "internal_node_id": "0.0-173.0", "trial": 6, "time_elapsed": 1018227, "serialpos": 11, "key_press": -1, "wordID": 130, "type": "PRES_AUD", "trial_index": 236}, "uniqueid": "MTK1369:3LUY3GC6307LMWPGBIZ3QBV0KX4P7O", "dateTime": 1515865520184}, {"current_trial": 237, "trialdata": {"rt": -1, "trial_type": "single-stim", "stimulus": "", "internal_node_id": "0.0-174.0-0.0", "time_elapsed": 1019473, "key_press": -1, "type": "PRE_RECALL_DELAY", "trial_index": 237}, "uniqueid": "MTK1369:3LUY3GC6307LMWPGBIZ3QBV0KX4P7O", "dateTime": 1515865521430}, {"current_trial": 238, "trialdata": {"rt": -1000, "trial_type": "single-audio", "stimulus": "/static/audio/400Hz.wav", "internal_node_id": "0.0-175.0", "time_elapsed": 1019974, "key_press": -1, "type": "PRE_RECALL_ALERT", "trial_index": 238}, "uniqueid": "MTK1369:3LUY3GC6307LMWPGBIZ3QBV0KX4P7O", "dateTime": 1515865521931}, {"current_trial": 239, "trialdata": {"rt": [4879, 5808, 8324, 11170, 12585, 17724, 20963, 24817], "recwords": ["fragrance", "bison", "gangster", "valley", "canyon", "author", "portrait", "hero"], "key_times": [1509, 1918, 2183, 2284, 2438, 3195, 3393, 3500, 3652, 3692, 3845, 3956, 4008, 4879, 5168, 5269, 5369, 5493, 5556, 5808, 6577, 6714, 6813, 6905, 7347, 7565, 7732, 7791, 8324, 8776, 8885, 8994, 9177, 9307, 9404, 11170, 11668, 11775, 11861, 12030, 12221, 12284, 12585, 16652, 16787, 16920, 16990, 17069, 17173, 17724, 19444, 19541, 19607, 19765, 19917, 20026, 20151, 20372, 20963, 22951, 23246, 23360, 23624, 24817], "trial_type": "free-recall", "conditions": [12, 800, "a", 24000], "internal_node_id": "0.0-176.0-0.0", "key_presses": [70, 82, 65, 78, 71, 8, 8, 71, 82, 65, 78, 67, 69, 13, 66, 73, 83, 79, 78, 13, 71, 65, 78, 71, 83, 84, 69, 82, 13, 86, 65, 76, 76, 69, 89, 13, 67, 65, 78, 89, 79, 78, 13, 65, 85, 84, 72, 79, 82, 13, 80, 79, 82, 84, 82, 65, 73, 84, 13, 72, 69, 82, 79, 13], "trial": 6, "time_elapsed": 1079977, "type": "FREE_RECALL", "trial_index": 239}, "uniqueid": "MTK1369:3LUY3GC6307LMWPGBIZ3QBV0KX4P7O", "dateTime": 1515865581938}, {"current_trial": 240, "trialdata": {"rt": 1356, "trial_type": "text", "internal_node_id": "0.0-177.0", "time_elapsed": 1083339, "key_press": 13, "type": "INSTRUCTIONS", "trial_index": 240}, "uniqueid": "MTK1369:3LUY3GC6307LMWPGBIZ3QBV0KX4P7O", "dateTime": 1515865585296}, {"current_trial": 241, "trialdata": {"rt": [3961, 5733, 7935, 10579, 13412, 15621, 18079, 20455, 23138], "trial_type": "math-distractor", "key_times": [2357, 2562, 3961, 5302, 5488, 5733, 7557, 7785, 7935, 10048, 10196, 10579, 13042, 13257, 13412, 14878, 14946, 15621, 17495, 17724, 18079, 20070, 20222, 20455, 22630, 22780, 23138], "responses": ["13", "10", "16", "22", "15", "19", "13", "17", "22"], "num2": [3, 3, 9, 8, 5, 5, 2, 9, 9, 3], "num3": [9, 4, 3, 5, 9, 8, 8, 2, 8, 1], "conditions": [12, 1600, "a", 24000], "internal_node_id": "0.0-178.0", "key_presses": [49, 51, 13, 49, 48, 13, 49, 54, 13, 50, 50, 13, 49, 53, 13, 49, 57, 13, 49, 51, 13, 49, 55, 13, 50, 50, 13], "trial": 7, "time_elapsed": 1109342, "type": "DISTRACTOR", "trial_index": 241, "num1": [1, 3, 4, 9, 1, 6, 3, 6, 5, 7]}, "uniqueid": "MTK1369:3LUY3GC6307LMWPGBIZ3QBV0KX4P7O", "dateTime": 1515865611299}, {"current_trial": 242, "trialdata": {"rt": -1, "trial_type": "single-stim", "stimulus": "<p id=\"stim\">10</p>", "internal_node_id": "0.0-179.0-0.0", "time_elapsed": 1112345, "key_press": -1, "trial_index": 242}, "uniqueid": "MTK1369:3LUY3GC6307LMWPGBIZ3QBV0KX4P7O", "dateTime": 1515865614302}, {"current_trial": 243, "trialdata": {"rt": -1, "trial_type": "single-stim", "stimulus": "<p id=\"stim\">9</p>", "internal_node_id": "0.0-179.0-1.0", "time_elapsed": 1113346, "key_press": -1, "trial_index": 243}, "uniqueid": "MTK1369:3LUY3GC6307LMWPGBIZ3QBV0KX4P7O", "dateTime": 1515865615303}, {"current_trial": 24