{"assignmentId": "3Z4AIRP3C7KCKJC58TSBJEQQKXH1X6", "workerId": "MTK1654", "questiondata": {"origin": "United States", "strat-rehearsal": "88", "marital": "Married/Domestic Partnership", "education": "Bachelor's degree", "ethnicity": "Not Hispanic", "color_depth": 24, "distracted": "No", "wrote-notes": "No", "strat-other": "n/a", "screen_width": 1920, "avail_screen_width": 1920, "avail_screen_height": 1040, "strat-image": "74", "language": "English", "gender": "Female", "age": "46", "gender_other": "", "race": ["White"], "strat-categorize": "97", "pixel_depth": 24, "strat-spatial": "58", "strat-story": "9", "race_other": "", "screen_height": 1080}, "bonus": 0, "hitId": "3SSN80MU8CVC300XQ1TRZ9Q5BM4XK1", "counterbalance": 1782, "useragent": "Mozilla/5.0 (Windows NT 10.0; Win64; x64) AppleWebKit/537.36 (KHTML, like Gecko) Chrome/63.0.3239.132 Safari/537.36", "eventdata": [{"eventtype": "initialized", "interval": 0, "value": null, "timestamp": 1516121889573}, {"eventtype": "window_resize", "interval": 0, "value": [1920, 1033], "timestamp": 1516121889573}, {"eventtype": "focus", "interval": 212358, "value": "off", "timestamp": 1516122101931}, {"eventtype": "focus", "interval": 3977, "value": "on", "timestamp": 1516122105908}], "data": [{"current_trial": 0, "trialdata": {"rt": 197669, "trial_type": "text", "internal_node_id": "0.0-0.0", "time_elapsed": 197671, "key_press": 32, "type": "INSTRUCTIONS", "trial_index": 0}, "uniqueid": "MTK1654:3Z4AIRP3C7KCKJC58TSBJEQQKXH1X6", "dateTime": 1516122106986}, {"current_trial": 1, "trialdata": {"rt": 19789, "trial_type": "text", "internal_node_id": "0.0-1.0", "time_elapsed": 217462, "key_press": 32, "type": "INSTRUCTIONS", "trial_index": 1}, "uniqueid": "MTK1654:3Z4AIRP3C7KCKJC58TSBJEQQKXH1X6", "dateTime": 1516122126776}, {"current_trial": 2, "trialdata": {"rt": [58029], "trial_type": "audio-test", "responses": ["ocean"], "internal_node_id": "0.0-2.0", "time_elapsed": 275532, "type": "AUDIO_TEST", "trial_index": 2}, "uniqueid": "MTK1654:3Z4AIRP3C7KCKJC58TSBJEQQKXH1X6", "dateTime": 1516122184846}, {"current_trial": 3, "trialdata": {"rt": [13493], "trial_type": "audio-test", "responses": ["crystal"], "internal_node_id": "0.0-3.0", "time_elapsed": 289029, "type": "AUDIO_TEST", "trial_index": 3}, "uniqueid": "MTK1654:3Z4AIRP3C7KCKJC58TSBJEQQKXH1X6", "dateTime": 1516122198343}, {"current_trial": 4, "trialdata": {"rt": [12269], "trial_type": "audio-test", "responses": ["spice"], "internal_node_id": "0.0-4.0", "time_elapsed": 301302, "type": "AUDIO_TEST", "trial_index": 4}, "uniqueid": "MTK1654:3Z4AIRP3C7KCKJC58TSBJEQQKXH1X6", "dateTime": 1516122210616}, {"current_trial": 5, "trialdata": {"rt": 32427, "trial_type": "survey-text", "responses": "{\"Q0\":\"9:30\",\"Q1\":\"4:30\",\"Q2\":\"4\"}", "internal_node_id": "0.0-5.0", "time_elapsed": 334482, "type": "SLEEP_SURVEY", "trial_index": 5}, "uniqueid": "MTK1654:3Z4AIRP3C7KCKJC58TSBJEQQKXH1X6", "dateTime": 1516122243796}, {"current_trial": 6, "trialdata": {"rt": 66620, "trial_type": "text", "internal_node_id": "0.0-6.0", "time_elapsed": 402105, "key_press": 32, "type": "INSTRUCTIONS", "trial_index": 6}, "uniqueid": "MTK1654:3Z4AIRP3C7KCKJC58TSBJEQQKXH1X6", "dateTime": 1516122311420}, {"current_trial": 7, "trialdata": {"rt": 34111, "trial_type": "text", "internal_node_id": "0.0-7.0", "time_elapsed": 436719, "key_press": 32, "type": "INSTRUCTIONS", "trial_index": 7}, "uniqueid": "MTK1654:3Z4AIRP3C7KCKJC58TSBJEQQKXH1X6", "dateTime": 1516122346033}, {"current_trial": 8, "trialdata": {"rt": 25977, "trial_type": "text", "internal_node_id": "0.0-8.0", "time_elapsed": 463199, "key_press": 32, "type": "INSTRUCTIONS", "trial_index": 8}, "uniqueid": "MTK1654:3Z4AIRP3C7KCKJC58TSBJEQQKXH1X6", "dateTime": 1516122372513}, {"current_trial": 9, "trialdata": {"rt": [4806, 9127, 11230, 14558, 17077], "trial_type": "math-distractor", "key_times": [3638, 3710, 4806, 7856, 8022, 9127, 10775, 10862, 11230, 14045, 14158, 14558, 16686, 16774, 17077], "responses": ["13", "17", "12", "15", "13"], "num2": [2, 6, 5, 3, 5, 8], "num3": [6, 4, 3, 6, 7, 4], "conditions": [18, 1200, "a", 18000], "internal_node_id": "0.0-9.0", "key_presses": [97, 99, 13, 97, 103, 13, 97, 98, 13, 97, 101, 13, 97, 99, 13], "trial": 0, "time_elapsed": 482209, "type": "DISTRACTOR", "trial_index": 9, "num1": [5, 7, 4, 6, 1, 2]}, "uniqueid": "MTK1654:3Z4AIRP3C7KCKJC58TSBJEQQKXH1X6", "dateTime": 1516122391523}, {"current_trial": 10, "trialdata": {"rt": -1, "trial_type": "single-stim", "stimulus": "<p id=\"stim\">10</p>", "internal_node_id": "0.0-10.0-0.0", "time_elapsed": 485211, "key_press": -1, "trial_index": 10}, "uniqueid": "MTK1654:3Z4AIRP3C7KCKJC58TSBJEQQKXH1X6", "dateTime": 1516122394525}, {"current_trial": 11, "trialdata": {"rt": -1, "trial_type": "single-stim", "stimulus": "<p id=\"stim\">9</p>", "internal_node_id": "0.0-10.0-1.0", "time_elapsed": 486213, "key_press": -1, "trial_index": 11}, "uniqueid": "MTK1654:3Z4AIRP3C7KCKJC58TSBJEQQKXH1X6", "dateTime": 1516122395527}, {"current_trial": 12, "trialdata": {"rt": -1, "trial_type": "single-stim", "stimulus": "<p id=\"stim\">8</p>", "internal_node_id": "0.0-10.0-2.0", "time_elapsed": 487217, "key_press": -1, "trial_index": 12}, "uniqueid": "MTK1654:3Z4AIRP3C7KCKJC58TSBJEQQKXH1X6", "dateTime": 1516122396531}, {"current_trial": 13, "trialdata": {"rt": -1, "trial_type": "single-stim", "stimulus": "<p id=\"stim\">7</p>", "internal_node_id": "0.0-10.0-3.0", "time_elapsed": 488219, "key_press": -1, "trial_index": 13}, "uniqueid": "MTK1654:3Z4AIRP3C7KCKJC58TSBJEQQKXH1X6", "dateTime": 1516122397533}, {"current_trial": 14, "trialdata": {"rt": -1, "trial_type": "single-stim", "stimulus": "<p id=\"stim\">6</p>", "internal_node_id": "0.0-10.0-4.0", "time_elapsed": 489221, "key_press": -1, "trial_index": 14}, "uniqueid": "MTK1654:3Z4AIRP3C7KCKJC58TSBJEQQKXH1X6", "dateTime": 1516122398535}, {"current_trial": 15, "trialdata": {"rt": -1, "trial_type": "single-stim", "stimulus": "<p id=\"stim\">5</p>", "internal_node_id": "0.0-10.0-5.0", "time_elapsed": 490226, "key_press": -1, "trial_index": 15}, "uniqueid": "MTK1654:3Z4AIRP3C7KCKJC58TSBJEQQKXH1X6", "dateTime": 1516122399540}, {"current_trial": 16, "trialdata": {"rt": -1, "trial_type": "single-stim", "stimulus": "<p id=\"stim\">4</p>", "internal_node_id": "0.0-10.0-6.0", "time_elapsed": 491228, "key_press": -1, "trial_index": 16}, "uniqueid": "MTK1654:3Z4AIRP3C7KCKJC58TSBJEQQKXH1X6", "dateTime": 1516122400542}, {"current_trial": 17, "trialdata": {"rt": -1, "trial_type": "single-stim", "stimulus": "<p id=\"stim\">3</p>", "internal_node_id": "0.0-10.0-7.0", "time_elapsed": 492229, "key_press": -1, "trial_index": 17}, "uniqueid": "MTK1654:3Z4AIRP3C7KCKJC58TSBJEQQKXH1X6", "dateTime": 1516122401543}, {"current_trial": 18, "trialdata": {"rt": -1, "trial_type": "single-stim", "stimulus": "<p id=\"stim\">2</p>", "internal_node_id": "0.0-10.0-8.0", "time_elapsed": 493230, "key_press": -1, "trial_index": 18}, "uniqueid": "MTK1654:3Z4AIRP3C7KCKJC58TSBJEQQKXH1X6", "dateTime": 1516122402544}, {"current_trial": 19, "trialdata": {"rt": -1, "trial_type": "single-stim", "stimulus": "<p id=\"stim\">1</p>", "internal_node_id": "0.0-10.0-9.0", "time_elapsed": 494233, "key_press": -1, "trial_index": 19}, "uniqueid": "MTK1654:3Z4AIRP3C7KCKJC58TSBJEQQKXH1X6", "dateTime": 1516122403547}, {"current_trial": 20, "trialdata": {"rt": -1, "trial_type": "single-stim", "stimulus": "<p id=\"stim\">+</p>", "internal_node_id": "0.0-11.0-0.0", "time_elapsed": 495734, "key_press": -1, "type": "FIXATION", "trial_index": 20}, "uniqueid": "MTK1654:3Z4AIRP3C7KCKJC58TSBJEQQKXH1X6", "dateTime": 1516122405048}, {"current_trial": 21, "trialdata": {"rt": -1000, "trial_type": "single-audio", "word": "quail", "stimulus": "/static/audio/wordpool/QUAIL.wav", "conditions": [18, 1200, "a", 18000], "internal_node_id": "0.0-12.0", "trial": 0, "time_elapsed": 497828, "serialpos": 0, "key_press": -1, "wordID": 1146, "type": "PRES_AUD", "trial_index": 21}, "uniqueid": "MTK1654:3Z4AIRP3C7KCKJC58TSBJEQQKXH1X6", "dateTime": 1516122407142}, {"current_trial": 22, "trialdata": {"rt": -1000, "trial_type": "single-audio", "word": "poet", "stimulus": "/static/audio/wordpool/POET.wav", "conditions": [18, 1200, "a", 18000], "internal_node_id": "0.0-13.0", "trial": 0, "time_elapsed": 499835, "serialpos": 1, "key_press": -1, "wordID": 1094, "type": "PRES_AUD", "trial_index": 22}, "uniqueid": "MTK1654:3Z4AIRP3C7KCKJC58TSBJEQQKXH1X6", "dateTime": 1516122409149}, {"current_trial": 23, "trialdata": {"rt": -1000, "trial_type": "single-audio", "word": "tablet", "stimulus": "/static/audio/wordpool/TABLET.wav", "conditions": [18, 1200, "a", 18000], "internal_node_id": "0.0-14.0", "trial": 0, "time_elapsed": 502125, "serialpos": 2, "key_press": -1, "wordID": 1426, "type": "PRES_AUD", "trial_index": 23}, "uniqueid": "MTK1654:3Z4AIRP3C7KCKJC58TSBJEQQKXH1X6", "dateTime": 1516122411439}, {"current_trial": 24, "trialdata": {"rt": -1000, "trial_type": "single-audio", "word": "suspect", "stimulus": "/static/audio/wordpool/SUSPECT.wav", "conditions": [18, 1200, "a", 18000], "internal_node_id": "0.0-15.0", "trial": 0, "time_elapsed": 504222, "serialpos": 3, "key_press": -1, "wordID": 1414, "type": "PRES_AUD", "trial_index": 24}, "uniqueid": "MTK1654:3Z4AIRP3C7KCKJC58TSBJEQQKXH1X6", "dateTime": 1516122413536}, {"current_trial": 25, "trialdata": {"rt": -1000, "trial_type": "single-audio", "word": "space", "stimulus": "/static/audio/wordpool/SPACE.wav", "conditions": [18, 1200, "a", 18000], "internal_node_id": "0.0-16.0", "trial": 0, "time_elapsed": 506413, "serialpos": 4, "key_press": -1, "wordID": 1344, "type": "PRES_AUD", "trial_index": 25}, "uniqueid": "MTK1654:3Z4AIRP3C7KCKJC58TSBJEQQKXH1X6", "dateTime": 1516122415727}, {"current_trial": 26, "trialdata": {"rt": -1000, "trial_type": "single-audio", "word": "saddle", "stimulus": "/static/audio/wordpool/SADDLE.wav", "conditions": [18, 1200, "a", 18000], "internal_node_id": "0.0-17.0", "trial": 0, "time_elapsed": 508567, "serialpos": 5, "key_press": -1, "wordID": 1220, "type": "PRES_AUD", "trial_index": 26}, "uniqueid": "MTK1654:3Z4AIRP3C7KCKJC58TSBJEQQKXH1X6", "dateTime": 1516122417881}, {"current_trial": 27, "trialdata": {"rt": -1000, "trial_type": "single-audio", "word": "sister", "stimulus": "/static/audio/wordpool/SISTER.wav", "conditions": [18, 1200, "a", 18000], "internal_node_id": "0.0-18.0", "trial": 0, "time_elapsed": 510907, "serialpos": 6, "key_press": -1, "wordID": 1311, "type": "PRES_AUD", "trial_index": 27}, "uniqueid": "MTK1654:3Z4AIRP3C7KCKJC58TSBJEQQKXH1X6", "dateTime": 1516122420221}, {"current_trial": 28, "trialdata": {"rt": -1000, "trial_type": "single-audio", "word": "shortcake", "stimulus": "/static/audio/wordpool/SHORTCAKE.wav", "conditions": [18, 1200, "a", 18000], "internal_node_id": "0.0-19.0", "trial": 0, "time_elapsed": 513275, "serialpos": 7, "key_press": -1, "wordID": 1291, "type": "PRES_AUD", "trial_index": 28}, "uniqueid": "MTK1654:3Z4AIRP3C7KCKJC58TSBJEQQKXH1X6", "dateTime": 1516122422589}, {"current_trial": 29, "trialdata": {"rt": -1000, "trial_type": "single-audio", "word": "child", "stimulus": "/static/audio/wordpool/CHILD.wav", "conditions": [18, 1200, "a", 18000], "internal_node_id": "0.0-20.0", "trial": 0, "time_elapsed": 515522, "serialpos": 8, "key_press": -1, "wordID": 298, "type": "PRES_AUD", "trial_index": 29}, "uniqueid": "MTK1654:3Z4AIRP3C7KCKJC58TSBJEQQKXH1X6", "dateTime": 1516122424836}, {"current_trial": 30, "trialdata": {"rt": -1000, "trial_type": "single-audio", "word": "bacon", "stimulus": "/static/audio/wordpool/BACON.wav", "conditions": [18, 1200, "a", 18000], "internal_node_id": "0.0-21.0", "trial": 0, "time_elapsed": 517717, "serialpos": 9, "key_press": -1, "wordID": 66, "type": "PRES_AUD", "trial_index": 30}, "uniqueid": "MTK1654:3Z4AIRP3C7KCKJC58TSBJEQQKXH1X6", "dateTime": 1516122427031}, {"current_trial": 31, "trialdata": {"rt": -1000, "trial_type": "single-audio", "word": "dime", "stimulus": "/static/audio/wordpool/DIME.wav", "conditions": [18, 1200, "a", 18000], "internal_node_id": "0.0-22.0", "trial": 0, "time_elapsed": 519956, "serialpos": 10, "key_press": -1, "wordID": 465, "type": "PRES_AUD", "trial_index": 31}, "uniqueid": "MTK1654:3Z4AIRP3C7KCKJC58TSBJEQQKXH1X6", "dateTime": 1516122429270}, {"current_trial": 32, "trialdata": {"rt": -1000, "trial_type": "single-audio", "word": "mammal", "stimulus": "/static/audio/wordpool/MAMMAL.wav", "conditions": [18, 1200, "a", 18000], "internal_node_id": "0.0-23.0", "trial": 0, "time_elapsed": 522213, "serialpos": 11, "key_press": -1, "wordID": 860, "type": "PRES_AUD", "trial_index": 32}, "uniqueid": "MTK1654:3Z4AIRP3C7KCKJC58TSBJEQQKXH1X6", "dateTime": 1516122431528}, {"current_trial": 33, "trialdata": {"rt": -1000, "trial_type": "single-audio", "word": "report", "stimulus": "/static/audio/wordpool/REPORT.wav", "conditions": [18, 1200, "a", 18000], "internal_node_id": "0.0-24.0", "trial": 0, "time_elapsed": 524575, "serialpos": 12, "key_press": -1, "wordID": 1183, "type": "PRES_AUD", "trial_index": 33}, "uniqueid": "MTK1654:3Z4AIRP3C7KCKJC58TSBJEQQKXH1X6", "dateTime": 1516122433890}, {"current_trial": 34, "trialdata": {"rt": -1000, "trial_type": "single-audio", "word": "cashew", "stimulus": "/static/audio/wordpool/CASHEW.wav", "conditions": [18, 1200, "a", 18000], "internal_node_id": "0.0-25.0", "trial": 0, "time_elapsed": 526778, "serialpos": 13, "key_press": -1, "wordID": 252, "type": "PRES_AUD", "trial_index": 34}, "uniqueid": "MTK1654:3Z4AIRP3C7KCKJC58TSBJEQQKXH1X6", "dateTime": 1516122436092}, {"current_trial": 35, "trialdata": {"rt": -1000, "trial_type": "single-audio", "word": "bathtub", "stimulus": "/static/audio/wordpool/BATHTUB.wav", "conditions": [18, 1200, "a", 18000], "internal_node_id": "0.0-26.0", "trial": 0, "time_elapsed": 528997, "serialpos": 14, "key_press": -1, "wordID": 99, "type": "PRES_AUD", "trial_index": 35}, "uniqueid": "MTK1654:3Z4AIRP3C7KCKJC58TSBJEQQKXH1X6", "dateTime": 1516122438311}, {"current_trial": 36, "trialdata": {"rt": -1000, "trial_type": "single-audio", "word": "scissors", "stimulus": "/static/audio/wordpool/SCISSORS.wav", "conditions": [18, 1200, "a", 18000], "internal_node_id": "0.0-27.0", "trial": 0, "time_elapsed": 531363, "serialpos": 15, "key_press": -1, "wordID": 1249, "type": "PRES_AUD", "trial_index": 36}, "uniqueid": "MTK1654:3Z4AIRP3C7KCKJC58TSBJEQQKXH1X6", "dateTime": 1516122440677}, {"current_trial": 37, "trialdata": {"rt": -1000, "trial_type": "single-audio", "word": "slime", "stimulus": "/static/audio/wordpool/SLIME.wav", "conditions": [18, 1200, "a", 18000], "internal_node_id": "0.0-28.0", "trial": 0, "time_elapsed": 533520, "serialpos": 16, "key_press": -1, "wordID": 1326, "type": "PRES_AUD", "trial_index": 37}, "uniqueid": "MTK1654:3Z4AIRP3C7KCKJC58TSBJEQQKXH1X6", "dateTime": 1516122442834}, {"current_trial": 38, "trialdata": {"rt": -1000, "trial_type": "single-audio", "word": "glove", "stimulus": "/static/audio/wordpool/GLOVE.wav", "conditions": [18, 1200, "a", 18000], "internal_node_id": "0.0-29.0", "trial": 0, "time_elapsed": 535875, "serialpos": 17, "key_press": -1, "wordID": 641, "type": "PRES_AUD", "trial_index": 38}, "uniqueid": "MTK1654:3Z4AIRP3C7KCKJC58TSBJEQQKXH1X6", "dateTime": 1516122445189}, {"current_trial": 39, "trialdata": {"rt": -1, "trial_type": "single-stim", "stimulus": "", "internal_node_id": "0.0-30.0-0.0", "time_elapsed": 537193, "key_press": -1, "type": "PRE_RECALL_DELAY", "trial_index": 39}, "uniqueid": "MTK1654:3Z4AIRP3C7KCKJC58TSBJEQQKXH1X6", "dateTime": 1516122446507}, {"current_trial": 40, "trialdata": {"rt": -1000, "trial_type": "single-audio", "stimulus": "/static/audio/400Hz.wav", "internal_node_id": "0.0-31.0", "time_elapsed": 537695, "key_press": -1, "type": "PRE_RECALL_ALERT", "trial_index": 40}, "uniqueid": "MTK1654:3Z4AIRP3C7KCKJC58TSBJEQQKXH1X6", "dateTime": 1516122447009}, {"current_trial": 41, "trialdata": {"rt": [3357, 6190, 7757, 9404, 13805, 18965, 25582, 42613], "recwords": ["glove", "bathtub", "sister", "slime", "cashew", "scissors", "child", "poet"], "key_times": [1894, 2022, 2311, 2397, 2549, 3357, 4157, 4261, 4389, 4493, 5485, 5669, 5869, 6190, 6557, 6669, 6789, 7021, 7157, 7244, 7757, 8292, 8413, 8701, 8917, 9061, 9404, 10925, 11037, 11717, 12165, 12846, 12950, 13244, 13373, 13805, 17109, 17284, 17413, 17637, 17757, 17885, 18005, 18478, 18965, 24117, 24221, 24301, 24453, 24677, 25582, 41414, 41797, 42085, 42221, 42613], "trial_type": "free-recall", "conditions": [18, 1200, "a", 18000], "internal_node_id": "0.0-32.0-0.0", "key_presses": [71, 76, 79, 86, 69, 13, 66, 65, 84, 72, 84, 85, 66, 13, 83, 73, 83, 84, 69, 82, 13, 83, 76, 73, 77, 69, 13, 67, 72, 8, 65, 83, 72, 69, 87, 13, 83, 67, 73, 83, 83, 79, 82, 83, 13, 67, 72, 73, 76, 68, 13, 80, 79, 69, 84, 13], "trial": 0, "time_elapsed": 597698, "type": "FREE_RECALL", "trial_index": 41}, "uniqueid": "MTK1654:3Z4AIRP3C7KCKJC58TSBJEQQKXH1X6", "dateTime": 1516122507015}, {"current_trial": 42, "trialdata": {"rt": 2218, "trial_type": "text", "internal_node_id": "0.0-33.0", "time_elapsed": 601919, "key_press": 32, "type": "INSTRUCTIONS", "trial_index": 42}, "uniqueid": "MTK1654:3Z4AIRP3C7KCKJC58TSBJEQQKXH1X6", "dateTime": 1516122511234}, {"current_trial": 43, "trialdata": {"rt": [2953, 6312, 8672, 11864, 14360, 16544], "trial_type": "math-distractor", "key_times": [2482, 2577, 2953, 5800, 5889, 6312, 8298, 8481, 8672, 11514, 11626, 11864, 14121, 14360, 16129, 16241, 16544], "responses": ["15", "18", "17", "20", "8", "20"], "num2": [2, 6, 4, 7, 3, 8, 5], "num3": [7, 5, 9, 4, 3, 9, 1], "conditions": [18, 1200, "a", 18000], "internal_node_id": "0.0-34.0", "key_presses": [97, 101, 13, 97, 104, 13, 97, 103, 13, 98, 96, 13, 104, 13, 98, 96, 13], "trial": 1, "time_elapsed": 621925, "type": "DISTRACTOR", "trial_index": 43, "num1": [6, 7, 4, 9, 2, 3, 7]}, "uniqueid": "MTK1654:3Z4AIRP3C7KCKJC58TSBJEQQKXH1X6", "dateTime": 1516122531240}, {"current_trial": 44, "trialdata": {"rt": -1, "trial_type": "single-stim", "stimulus": "<p id=\"stim\">10</p>", "internal_node_id": "0.0-35.0-0.0", "time_elapsed": 624929, "key_press": -1, "trial_index": 44}, "uniqueid": "MTK1654:3Z4AIRP3C7KCKJC58TSBJEQQKXH1X6", "dateTime": 1516122534245}, {"current_trial": 45, "trialdata": {"rt": -1, "trial_type": "single-stim", "stimulus": "<p id=\"stim\">9</p>", "internal_node_id": "0.0-35.0-1.0", "time_elapsed": 625933, "key_press": -1, "trial_index": 45}, "uniqueid": "MTK1654:3Z4AIRP3C7KCKJC58TSBJEQQKXH1X6", "dateTime": 1516122535247}, {"current_trial": 46, "trialdata": {"rt": -1, "trial_type": "single-stim", "stimulus": "<p id=\"stim\">8</p>", "internal_node_id": "0.0-35.0-2.0", "time_elapsed": 626934, "key_press": -1, "trial_index": 46}, "uniqueid": "MTK1654:3Z4AIRP3C7KCKJC58TSBJEQQKXH1X6", "dateTime": 1516122536248}, {"current_trial": 47, "trialdata": {"rt": -1, "trial_type": "single-stim", "stimulus": "<p id=\"stim\">7</p>", "internal_node_id": "0.0-35.0-3.0", "time_elapsed": 627935, "key_press": -1, "trial_index": 47}, "uniqueid": "MTK1654:3Z4AIRP3C7KCKJC58TSBJEQQKXH1X6", "dateTime": 1516122537249}, {"current_trial": 48, "trialdata": {"rt": -1, "trial_type": "single-stim", "stimulus": "<p id=\"stim\">6</p>", "internal_node_id": "0.0-35.0-4.0", "time_elapsed": 628938, "key_press": -1, "trial_index": 48}, "uniqueid": "MTK1654:3Z4AIRP3C7KCKJC58TSBJEQQKXH1X6", "dateTime": 1516122538252}, {"current_trial": 49, "trialdata": {"rt": -1, "trial_type": "single-stim", "stimulus": "<p id=\"stim\">5</p>", "internal_node_id": "0.0-35.0-5.0", "time_elapsed": 629941, "key_press": -1, "trial_index": 49}, "uniqueid": "MTK1654:3Z4AIRP3C7KCKJC58TSBJEQQKXH1X6", "dateTime": 1516122539256}, {"current_trial": 50, "trialdata": {"rt": -1, "trial_type": "single-stim", "stimulus": "<p id=\"stim\">4</p>", "internal_node_id": "0.0-35.0-6.0", "time_elapsed": 630945, "key_press": -1, "trial_index": 50}, "uniqueid": "MTK1654:3Z4AIRP3C7KCKJC58TSBJEQQKXH1X6", "dateTime": 1516122540259}, {"current_trial": 51, "trialdata": {"rt": -1, "trial_type": "single-stim", "stimulus": "<p id=\"stim\">3</p>", "internal_node_id": "0.0-35.0-7.0", "time_elapsed": 631947, "key_press": -1, "trial_index": 51}, "uniqueid": "MTK1654:3Z4AIRP3C7KCKJC58TSBJEQQKXH1X6", "dateTime": 1516122541262}, {"current_trial": 52, "trialdata": {"rt": -1, "trial_type": "single-stim", "stimulus": "<p id=\"stim\">2</p>", "internal_node_id": "0.0-35.0-8.0", "time_elapsed": 632949, "key_press": -1, "trial_index": 52}, "uniqueid": "MTK1654:3Z4AIRP3C7KCKJC58TSBJEQQKXH1X6", "dateTime": 1516122542264}, {"current_trial": 53, "trialdata": {"rt": -1, "trial_type": "single-stim", "stimulus": "<p id=\"stim\">1</p>", "internal_node_id": "0.0-35.0-9.0", "time_elapsed": 633951, "key_press": -1, "trial_index": 53}, "uniqueid": "MTK1654:3Z4AIRP3C7KCKJC58TSBJEQQKXH1X6", "dateTime": 1516122543266}, {"current_trial": 54, "trialdata": {"rt": -1, "trial_type": "single-stim", "stimulus": "<p id=\"stim\">+</p>", "internal_node_id": "0.0-36.0-0.0", "time_elapsed": 635454, "key_press": -1, "type": "FIXATION", "trial_index": 54}, "uniqueid": "MTK1654:3Z4AIRP3C7KCKJC58TSBJEQQKXH1X6", "dateTime": 1516122544768}, {"current_trial": 55, "trialdata": {"rt": -1000, "trial_type": "single-audio", "word": "quarter", "stimulus": "/static/audio/wordpool/QUARTER.wav", "conditions": [18, 1200, "a", 18000], "internal_node_id": "0.0-37.0", "trial": 1, "time_elapsed": 637476, "serialpos": 0, "key_press": -1, "wordID": 1147, "type": "PRES_AUD", "trial_index": 55}, "uniqueid": "MTK1654:3Z4AIRP3C7KCKJC58TSBJEQQKXH1X6", "dateTime": 1516122546790}, {"current_trial": 56, "trialdata": {"rt": -1000, "trial_type": "single-audio", "word": "carrot", "stimulus": "/static/audio/wordpool/CARROT.wav", "conditions": [18, 1200, "a", 18000], "internal_node_id": "0.0-38.0", "trial": 1, "time_elapsed": 639720, "serialpos": 1, "key_press": -1, "wordID": 248, "type": "PRES_AUD", "trial_index": 56}, "uniqueid": "MTK1654:3Z4AIRP3C7KCKJC58TSBJEQQKXH1X6", "dateTime": 1516122549034}, {"current_trial": 57, "trialdata": {"rt": -1000, "trial_type": "single-audio", "word": "wagon", "stimulus": "/static/audio/wordpool/WAGON.wav", "conditions": [18, 1200, "a", 18000], "internal_node_id": "0.0-39.0", "trial": 1, "time_elapsed": 641850, "serialpos": 2, "key_press": -1, "wordID": 1577, "type": "PRES_AUD", "trial_index": 57}, "uniqueid": "MTK1654:3Z4AIRP3C7KCKJC58TSBJEQQKXH1X6", "dateTime": 1516122551164}, {"current_trial": 58, "trialdata": {"rt": -1000, "trial_type": "single-audio", "word": "foot", "stimulus": "/static/audio/wordpool/FOOT.wav", "conditions": [18, 1200, "a", 18000], "internal_node_id": "0.0-40.0", "trial": 1, "time_elapsed": 644050, "serialpos": 3, "key_press": -1, "wordID": 589, "type": "PRES_AUD", "trial_index": 58}, "uniqueid": "MTK1654:3Z4AIRP3C7KCKJC58TSBJEQQKXH1X6", "dateTime": 1516122553365}, {"current_trial": 59, "trialdata": {"rt": -1000, "trial_type": "single-audio", "word": "plaid", "stimulus": "/static/audio/wordpool/PLAID.wav", "conditions": [18, 1200, "a", 18000], "internal_node_id": "0.0-41.0", "trial": 1, "time_elapsed": 646151, "serialpos": 4, "key_press": -1, "wordID": 1079, "type": "PRES_AUD", "trial_index": 59}, "uniqueid": "MTK1654:3Z4AIRP3C7KCKJC58TSBJEQQKXH1X6", "dateTime": 1516122555465}, {"current_trial": 60, "trialdata": {"rt": -1000, "trial_type": "single-audio", "word": "hornet", "stimulus": "/static/audio/wordpool/HORNET.wav", "conditions": [18, 1200, "a", 18000], "internal_node_id": "0.0-42.0", "trial": 1, "time_elapsed": 648257, "serialpos": 5, "key_press": -1, "wordID": 717, "type": "PRES_AUD", "trial_index": 60}, "uniqueid": "MTK1654:3Z4AIRP3C7KCKJC58TSBJEQQKXH1X6", "dateTime": 1516122557571}, {"current_trial": 61, "trialdata": {"rt": -1000, "trial_type": "single-audio", "word": "blouse", "stimulus": "/static/audio/wordpool/BLOUSE.wav", "conditions": [18, 1200, "a", 18000], "internal_node_id": "0.0-43.0", "trial": 1, "time_elapsed": 650578, "serialpos": 6, "key_press": -1, "wordID": 138, "type": "PRES_AUD", "trial_index": 61}, "uniqueid": "MTK1654:3Z4AIRP3C7KCKJC58TSBJEQQKXH1X6", "dateTime": 1516122559892}, {"current_trial": 62, "trialdata": {"rt": -1000, "trial_type": "single-audio", "word": "toaster", "stimulus": "/static/audio/wordpool/TOASTER.wav", "conditions": [18, 1200, "a", 18000], "internal_node_id": "0.0-44.0", "trial": 1, "time_elapsed": 652853, "serialpos": 7, "key_press": -1, "wordID": 1471, "type": "PRES_AUD", "trial_index": 62}, "uniqueid": "MTK1654:3Z4AIRP3C7KCKJC58TSBJEQQKXH1X6", "dateTime": 1516122562168}, {"current_trial": 63, "trialdata": {"rt": -1000, "trial_type": "single-audio", "word": "camel", "stimulus": "/static/audio/wordpool/CAMEL.wav", "conditions": [18, 1200, "a", 18000], "internal_node_id": "0.0-45.0", "trial": 1, "time_elapsed": 654883, "serialpos": 8, "key_press": -1, "wordID": 222, "type": "PRES_AUD", "trial_index": 63}, "uniqueid": "MTK1654:3Z4AIRP3C7KCKJC58TSBJEQQKXH1X6", "dateTime": 1516122564197}, {"current_trial": 64, "trialdata": {"rt": -1000, "trial_type": "single-audio", "word": "river", "stimulus": "/static/audio/wordpool/RIVER.wav", "conditions": [18, 1200, "a", 18000], "internal_node_id": "0.0-46.0", "trial": 1, "time_elapsed": 657156, "serialpos": 9, "key_press": -1, "wordID": 1193, "type": "PRES_AUD", "trial_index": 64}, "uniqueid": "MTK1654:3Z4AIRP3C7KCKJC58TSBJEQQKXH1X6", "dateTime": 1516122566470}, {"current_trial": 65, "trialdata": {"rt": -1000, "trial_type": "single-audio", "word": "college", "stimulus": "/static/audio/wordpool/COLLEGE.wav", "conditions": [18, 1200, "a", 18000], "internal_node_id": "0.0-47.0", "trial": 1, "time_elapsed": 659328, "serialpos": 10, "key_press": -1, "wordID": 345, "type": "PRES_AUD", "trial_index": 65}, "uniqueid": "MTK1654:3Z4AIRP3C7KCKJC58TSBJEQQKXH1X6", "dateTime": 1516122568642}, {"current_trial": 66, "trialdata": {"rt": -1000, "trial_type": "single-audio", "word": "maple", "stimulus": "/static/audio/wordpool/MAPLE.wav", "conditions": [18, 1200, "a", 18000], "internal_node_id": "0.0-48.0", "trial": 1, "time_elapsed": 661391, "serialpos": 11, "key_press": -1, "wordID": 865, "type": "PRES_AUD", "trial_index": 66}, "uniqueid": "MTK1654:3Z4AIRP3C7KCKJC58TSBJEQQKXH1X6", "dateTime": 1516122570705}, {"current_trial": 67, "trialdata": {"rt": -1000, "trial_type": "single-audio", "word": "harp", "stimulus": "/static/audio/wordpool/HARP.wav", "conditions": [18, 1200, "a", 18000], "internal_node_id": "0.0-49.0", "trial": 1, "time_elapsed": 663770, "serialpos": 12, "key_press": -1, "wordID": 688, "type": "PRES_AUD", "trial_index": 67}, "uniqueid": "MTK1654:3Z4AIRP3C7KCKJC58TSBJEQQKXH1X6", "dateTime": 1516122573084}, {"current_trial": 68, "trialdata": {"rt": -1000, "trial_type": "single-audio", "word": "backbone", "stimulus": "/static/audio/wordpool/BACKBONE.wav", "conditions": [18, 1200, "a", 18000], "internal_node_id": "0.0-50.0", "trial": 1, "time_elapsed": 665994, "serialpos": 13, "key_press": -1, "wordID": 65, "type": "PRES_AUD", "trial_index": 68}, "uniqueid": "MTK1654:3Z4AIRP3C7KCKJC58TSBJEQQKXH1X6", "dateTime": 1516122575309}, {"current_trial": 69, "trialdata": {"rt": -1000, "trial_type": "single-audio", "word": "japan", "stimulus": "/static/audio/wordpool/JAPAN.wav", "conditions": [18, 1200, "a", 18000], "internal_node_id": "0.0-51.0", "trial": 1, "time_elapsed": 668267, "serialpos": 14, "key_press": -1, "wordID": 748, "type": "PRES_AUD", "trial_index": 69}, "uniqueid": "MTK1654:3Z4AIRP3C7KCKJC58TSBJEQQKXH1X6", "dateTime": 1516122577581}, {"current_trial": 70, "trialdata": {"rt": -1000, "trial_type": "single-audio", "word": "banquet", "stimulus": "/static/audio/wordpool/BANQUET.wav", "conditions": [18, 1200, "a", 18000], "internal_node_id": "0.0-52.0", "trial": 1, "time_elapsed": 670608, "serialpos": 15, "key_press": -1, "wordID": 85, "type": "PRES_AUD", "trial_index": 70}, "uniqueid": "MTK1654:3Z4AIRP3C7KCKJC58TSBJEQQKXH1X6", "dateTime": 1516122579923}, {"current_trial": 71, "trialdata": {"rt": -1000, "trial_type": "single-audio", "word": "award", "stimulus": "/static/audio/wordpool/AWARD.wav", "conditions": [18, 1200, "a", 18000], "internal_node_id": "0.0-53.0", "trial": 1, "time_elapsed": 672923, "serialpos": 16, "key_press": -1, "wordID": 62, "type": "PRES_AUD", "trial_index": 71}, "uniqueid": "MTK1654:3Z4AIRP3C7KCKJC58TSBJEQQKXH1X6", "dateTime": 1516122582238}, {"current_trial": 72, "trialdata": {"rt": -1000, "trial_type": "single-audio", "word": "lizard", "stimulus": "/static/audio/wordpool/LIZARD.wav", "conditions": [18, 1200, "a", 18000], "internal_node_id": "0.0-54.0", "trial": 1, "time_elapsed": 675054, "serialpos": 17, "key_press": -1, "wordID": 833, "type": "PRES_AUD", "trial_index": 72}, "uniqueid": "MTK1654:3Z4AIRP3C7KCKJC58TSBJEQQKXH1X6", "dateTime": 1516122584368}, {"current_trial": 73, "trialdata": {"rt": -1, "trial_type": "single-stim", "stimulus": "", "internal_node_id": "0.0-55.0-0.0", "time_elapsed": 676405, "key_press": -1, "type": "PRE_RECALL_DELAY", "trial_index": 73}, "uniqueid": "MTK1654:3Z4AIRP3C7KCKJC58TSBJEQQKXH1X6", "dateTime": 1516122585719}, {"current_trial": 74, "trialdata": {"rt": -1000, "trial_type": "single-audio", "stimulus": "/static/audio/400Hz.wav", "internal_node_id": "0.0-56.0", "time_elapsed": 676906, "key_press": -1, "type": "PRE_RECALL_ALERT", "trial_index": 74}, "uniqueid": "MTK1654:3Z4AIRP3C7KCKJC58TSBJEQQKXH1X6", "dateTime": 1516122586220}, {"current_trial": 75, "trialdata": {"rt": [2370, 3747, 5898, 7890, 10786, 26394, 46146, 50235], "recwords": ["lizard", "award", "banquet", "quarter", "river", "carrot", "foot", "camel"], "key_times": [1226, 1322, 1474, 1706, 1842, 2066, 2370, 2778, 2930, 3058, 3217, 3466, 3747, 4179, 4282, 4426, 4826, 4954, 5467, 5586, 5898, 6714, 6834, 6978, 7106, 7322, 7457, 7554, 7890, 10017, 10114, 10234, 10362, 10490, 10786, 25434, 25586, 25761, 25930, 26058, 26154, 26394, 45380, 45602, 45731, 45931, 46146, 49434, 49555, 49642, 49796, 49923, 50235], "trial_type": "free-recall", "conditions": [18, 1200, "a", 18000], "internal_node_id": "0.0-57.0-0.0", "key_presses": [76, 73, 90, 65, 82, 68, 13, 65, 87, 65, 82, 68, 13, 66, 65, 78, 81, 85, 69, 84, 13, 81, 85, 65, 82, 84, 69, 82, 13, 82, 73, 86, 69, 82, 13, 67, 65, 82, 82, 79, 84, 13, 70, 79, 79, 84, 13, 67, 65, 77, 69, 76, 13], "trial": 1, "time_elapsed": 736909, "type": "FREE_RECALL", "trial_index": 75}, "uniqueid": "MTK1654:3Z4AIRP3C7KCKJC58TSBJEQQKXH1X6", "dateTime": 1516122646228}, {"current_trial": 76, "trialdata": {"rt": 4098, "trial_type": "text", "internal_node_id": "0.0-58.0", "time_elapsed": 743014, "key_press": 32, "type": "INSTRUCTIONS", "trial_index": 76}, "uniqueid": "MTK1654:3Z4AIRP3C7KCKJC58TSBJEQQKXH1X6", "dateTime": 1516122652328}, {"current_trial": 77, "trialdata": {"rt": [3694, 7151, 10031, 11934, 13647, 15358, 17846, 19807, 21831], "trial_type": "math-distractor", "key_times": [3286, 3407, 3694, 6832, 6951, 7151, 9694, 9798, 10031, 11591, 11719, 11934, 13334, 13430, 13647, 14982, 15094, 15358, 17486, 17662, 17846, 19430, 19606, 19807, 21464, 21584, 21831], "responses": ["15", "20", "16", "10", "13", "10", "17", "17", "16"], "num2": [9, 9, 6, 7, 4, 3, 5, 9, 8, 3], "num3": [3, 5, 5, 2, 2, 6, 6, 7, 5, 9], "conditions": [24, 1600, "a", 24000], "internal_node_id": "0.0-59.0", "key_presses": [97, 101, 13, 98, 96, 13, 97, 102, 13, 97, 96, 13, 97, 99, 13, 97, 96, 13, 97, 103, 13, 97, 103, 13, 97, 102, 13], "trial": 2, "time_elapsed": 768017, "type": "DISTRACTOR", "trial_index": 77, "num1": [3, 6, 5, 1, 7, 1, 6, 1, 3, 9]}, "uniqueid": "MTK1654:3Z4AIRP3C7KCKJC58TSBJEQQKXH1X6", "dateTime": 1516122677331}, {"current_trial": 78, "trialdata": {"rt": -1, "trial_type": "single-stim", "stimulus": "<p id=\"stim\">10</p>", "internal_node_id": "0.0-60.0-0.0", "time_elapsed": 771020, "key_press": -1, "trial_index": 78}, "uniqueid": "MTK1654:3Z4AIRP3C7KCKJC58TSBJEQQKXH1X6", "dateTime": 1516122680335}, {"current_trial": 79, "trialdata": {"rt": -1, "trial_type": "single-stim", "stimulus": "<p id=\"stim\">9</p>", "internal_node_id": "0.0-60.0-1.0", "time_elapsed": 772024, "key_press": -1, "trial_index": 79}, "uniqueid": "MTK1654:3Z4AIRP3C7KCKJC58TSBJEQQKXH1X6", "dateTime": 1516122681338}, {"current_trial": 80, "trialdata": {"rt": -1, "trial_type": "single-stim", "stimulus": "<p id=\"stim\">8</p>", "internal_node_id": "0.0-60.0-2.0", "time_elapsed": 773026, "key_press": -1, "trial_index": 80}, "uniqueid": "MTK1654:3Z4AIRP3C7KCKJC58TSBJEQQKXH1X6", "dateTime": 1516122682340}, {"current_trial": 81, "trialdata": {"rt": -1, "trial_type": "single-stim", "stimulus": "<p id=\"stim\">7</p>", "internal_node_id": "0.0-60.0-3.0", "time_elapsed": 774027, "key_press": -1, "trial_index": 81}, "uniqueid": "MTK1654:3Z4AIRP3C7KCKJC58TSBJEQQKXH1X6", "dateTime": 1516122683342}, {"current_trial": 82, "trialdata": {"rt": -1, "trial_type": "single-stim", "stimulus": "<p id=\"stim\">6</p>", "internal_node_id": "0.0-60.0-4.0", "time_elapsed": 775030, "key_press": -1, "trial_index": 82}, "uniqueid": "MTK1654:3Z4AIRP3C7KCKJC58TSBJEQQKXH1X6", "dateTime": 1516122684345}, {"current_trial": 83, "trialdata": {"rt": -1, "trial_type": "single-stim", "stimulus": "<p id=\"stim\">5</p>", "internal_node_id": "0.0-60.0-5.0", "time_elapsed": 776032, "key_press": -1, "trial_index": 83}, "uniqueid": "MTK1654:3Z4AIRP3C7KCKJC58TSBJEQQKXH1X6", "dateTime": 1516122685346}, {"current_trial": 84, "trialdata": {"rt": -1, "trial_type": "single-stim", "stimulus": "<p id=\"stim\">4</p>", "internal_node_id": "0.0-60.0-6.0", "time_elapsed": 777034, "key_press": -1, "trial_index": 84}, "uniqueid": "MTK1654:3Z4AIRP3C7KCKJC58TSBJEQQKXH1X6", "dateTime": 1516122686348}, {"current_trial": 85, "trialdata": {"rt": -1, "trial_type": "single-stim", "stimulus": "<p id=\"stim\">3</p>", "internal_node_id": "0.0-60.0-7.0", "time_elapsed": 778035, "key_press": -1, "trial_index": 85}, "uniqueid": "MTK1654:3Z4AIRP3C7KCKJC58TSBJEQQKXH1X6", "dateTime": 1516122687349}, {"current_trial": 86, "trialdata": {"rt": -1, "trial_type": "single-stim", "stimulus": "<p id=\"stim\">2</p>", "internal_node_id": "0.0-60.0-8.0", "time_elapsed": 779037, "key_press": -1, "trial_index": 86}, "uniqueid": "MTK1654:3Z4AIRP3C7KCKJC58TSBJEQQKXH1X6", "dateTime": 1516122688351}, {"current_trial": 87, "trialdata": {"rt": -1, "trial_type": "single-stim", "stimulus": "<p id=\"stim\">1</p>", "internal_node_id": "0.0-60.0-9.0", "time_elapsed": 780038, "key_press": -1, "trial_index": 87}, "uniqueid": "MTK1654:3Z4AIRP3C7KCKJC58TSBJEQQKXH1X6", "dateTime": 1516122689352}, {"current_trial": 88, "trialdata": {"rt": -1, "trial_type": "single-stim", "stimulus": "<p id=\"stim\">+</p>", "internal_node_id": "0.0-61.0-0.0", "time_elapsed": 781540, "key_press": -1, "type": "FIXATION", "trial_index": 88}, "uniqueid": "MTK1654:3Z4AIRP3C7KCKJC58TSBJEQQKXH1X6", "dateTime": 1516122690854}, {"current_trial": 89, "trialdata": {"rt": -1000, "trial_type": "single-audio", "word": "garlic", "stimulus": "/static/audio/wordpool/GARLIC.wav", "conditions": [24, 1600, "a", 24000], "internal_node_id": "0.0-62.0", "trial": 2, "time_elapsed": 784065, "serialpos": 0, "key_press": -1, "wordID": 623, "type": "PRES_AUD", "trial_index": 89}, "uniqueid": "MTK1654:3Z4AIRP3C7KCKJC58TSBJEQQKXH1X6", "dateTime": 1516122693379}, {"current_trial": 90, "trialdata": {"rt": -1000, "trial_type": "single-audio", "word": "chest", "stimulus": "/static/audio/wordpool/CHEST.wav", "conditions": [24, 1600, "a", 24000], "internal_node_id": "0.0-63.0", "trial": 2, "time_elapsed": 786663, "serialpos": 1, "key_press": -1, "wordID": 294, "type": "PRES_AUD", "trial_index": 90}, "uniqueid": "MTK1654:3Z4AIRP3C7KCKJC58TSBJEQQKXH1X6", "dateTime": 1516122695977}, {"current_trial": 91, "trialdata": {"rt": -1000, "trial_type": "single-audio", "word": "rod", "stimulus": "/static/audio/wordpool/ROD.wav", "conditions": [24, 1600, "a", 24000], "internal_node_id": "0.0-64.0", "trial": 2, "time_elapsed": 789307, "serialpos": 2, "key_press": -1, "wordID": 1202, "type": "PRES_AUD", "trial_index": 91}, "uniqueid": "MTK1654:3Z4AIRP3C7KCKJC58TSBJEQQKXH1X6", "dateTime": 1516122698621}, {"current_trial": 92, "trialdata": {"rt": -1000, "trial_type": "single-audio", "word": "pigeon", "stimulus": "/static/audio/wordpool/PIGEON.wav", "conditions": [24, 1600, "a", 24000], "internal_node_id": "0.0-65.0", "trial": 2, "time_elapsed": 791936, "serialpos": 3, "key_press": -1, "wordID": 1064, "type": "PRES_AUD", "trial_index": 92}, "uniqueid": "MTK1654:3Z4AIRP3C7KCKJC58TSBJEQQKXH1X6", "dateTime": 1516122701250}, {"current_trial": 93, "trialdata": {"rt": -1000, "trial_type": "single-audio", "word": "cabbage", "stimulus": "/static/audio/wordpool/CABBAGE.wav", "conditions": [24, 1600, "a", 24000], "internal_node_id": "0.0-66.0", "trial": 2, "time_elapsed": 794602, "serialpos": 4, "key_press": -1, "wordID": 209, "type": "PRES_AUD", "trial_index": 93}, "uniqueid": "MTK1654:3Z4AIRP3C7KCKJC58TSBJEQQKXH1X6", "dateTime": 1516122703916}, {"current_trial": 94, "trialdata": {"rt": -1000, "trial_type": "single-audio", "word": "crown", "stimulus": "/static/audio/wordpool/CROWN.wav", "conditions": [24, 1600, "a", 24000], "internal_node_id": "0.0-67.0", "trial": 2, "time_elapsed": 797084, "serialpos": 5, "key_press": -1, "wordID": 414, "type": "PRES_AUD", "trial_index": 94}, "uniqueid": "MTK1654:3Z4AIRP3C7KCKJC58TSBJEQQKXH1X6", "dateTime": 1516122706398}, {"current_trial": 95, "trialdata": {"rt": -1000, "trial_type": "single-audio", "word": "neutron", "stimulus": "/static/audio/wordpool/NEUTRON.wav", "conditions": [24, 1600, "a", 24000], "internal_node_id": "0.0-68.0", "trial": 2, "time_elapsed": 799610, "serialpos": 6, "key_press": -1, "wordID": 946, "type": "PRES_AUD", "trial_index": 95}, "uniqueid": "MTK1654:3Z4AIRP3C7KCKJC58TSBJEQQKXH1X6", "dateTime": 1516122708924}, {"current_trial": 96, "trialdata": {"rt": -1000, "trial_type": "single-audio", "word": "church", "stimulus": "/static/audio/wordpool/CHURCH.wav", "conditions": [24, 1600, "a", 24000], "internal_node_id": "0.0-69.0", "trial": 2, "time_elapsed": 802244, "serialpos": 7, "key_press": -1, "wordID": 306, "type": "PRES_AUD", "trial_index": 96}, "uniqueid": "MTK1654:3Z4AIRP3C7KCKJC58TSBJEQQKXH1X6", "dateTime": 1516122711558}, {"current_trial": 97, "trialdata": {"rt": -1000, "trial_type": "single-audio", "word": "chapel", "stimulus": "/static/audio/wordpool/CHAPEL.wav", "conditions": [24, 1600, "a", 24000], "internal_node_id": "0.0-70.0", "trial": 2, "time_elapsed": 804789, "serialpos": 8, "key_press": -1, "wordID": 279, "type": "PRES_AUD", "trial_index": 97}, "uniqueid": "MTK1654:3Z4AIRP3C7KCKJC58TSBJEQQKXH1X6", "dateTime": 1516122714104}, {"current_trial": 98, "trialdata": {"rt": -1000, "trial_type": "single-audio", "word": "record", "stimulus": "/static/audio/wordpool/RECORD.wav", "conditions": [24, 1600, "a", 24000], "internal_node_id": "0.0-71.0", "trial": 2, "time_elapsed": 807212, "serialpos": 9, "key_press": -1, "wordID": 1175, "type": "PRES_AUD", "trial_index": 98}, "uniqueid": "MTK1654:3Z4AIRP3C7KCKJC58TSBJEQQKXH1X6", "dateTime": 1516122716526}, {"current_trial": 99, "trialdata": {"rt": -1000, "trial_type": "single-audio", "word": "sword", "stimulus": "/static/audio/wordpool/SWORD.wav", "conditions": [24, 1600, "a", 24000], "internal_node_id": "0.0-72.0", "trial": 2, "time_elapsed": 809673, "serialpos": 10, "key_press": -1, "wordID": 1422, "type": "PRES_AUD", "trial_index": 99}, "uniqueid": "MTK1654:3Z4AIRP3C7KCKJC58TSBJEQQKXH1X6", "dateTime": 1516122718987}, {"current_trial": 100, "trialdata": {"rt": -1000, "trial_type": "single-audio", "word": "umpire", "stimulus": "/static/audio/wordpool/UMPIRE.wav", "conditions": [24, 1600, "a", 24000], "internal_node_id": "0.0-73.0", "trial": 2, "time_elapsed": 812153, "serialpos": 11, "key_press": -1, "wordID": 1534, "type": "PRES_AUD", "trial_index": 100}, "uniqueid": "MTK1654:3Z4AIRP3C7KCKJC58TSBJEQQKXH1X6", "dateTime": 1516122721467}, {"current_trial": 101, "trialdata": {"rt": -1000, "trial_type": "single-audio", "word": "lover", "stimulus": "/static/audio/wordpool/LOVER.wav", "conditions": [24, 1600, "a", 24000], "internal_node_id": "0.0-74.0", "trial": 2, "time_elapsed": 814898, "serialpos": 12, "key_press": -1, "wordID": 845, "type": "PRES_AUD", "trial_index": 101}, "uniqueid": "MTK1654:3Z4AIRP3C7KCKJC58TSBJEQQKXH1X6", "dateTime": 1516122724212}, {"current_trial": 102, "trialdata": {"rt": -1000, "trial_type": "single-audio", "word": "boyfriend", "stimulus": "/static/audio/wordpool/BOYFRIEND.wav", "conditions": [24, 1600, "a", 24000], "internal_node_id": "0.0-75.0", "trial": 2, "time_elapsed": 817388, "serialpos": 13, "key_press": -1, "wordID": 161, "type": "PRES_AUD", "trial_index": 102}, "uniqueid": "MTK1654:3Z4AIRP3C7KCKJC58TSBJEQQKXH1X6", "dateTime": 1516122726702}, {"current_trial": 103, "trialdata": {"rt": -1000, "trial_type": "single-audio", "word": "actor", "stimulus": "/static/audio/wordpool/ACTOR.wav", "conditions": [24, 1600, "a", 24000], "internal_node_id": "0.0-76.0", "trial": 2, "time_elapsed": 819815, "serialpos": 14, "key_press": -1, "wordID": 4, "type": "PRES_AUD", "trial_index": 103}, "uniqueid": "MTK1654:3Z4AIRP3C7KCKJC58TSBJEQQKXH1X6", "dateTime": 1516122729129}, {"current_trial": 104, "trialdata": {"rt": -1000, "trial_type": "single-audio", "word": "parsley", "stimulus": "/static/audio/wordpool/PARSLEY.wav", "conditions": [24, 1600, "a", 24000], "internal_node_id": "0.0-77.0", "trial": 2, "time_elapsed": 822457, "serialpos": 15, "key_press": -1, "wordID": 1015, "type": "PRES_AUD", "trial_index": 104}, "uniqueid": "MTK1654:3Z4AIRP3C7KCKJC58TSBJEQQKXH1X6", "dateTime": 1516122731771}, {"current_trial": 105, "trialdata": {"rt": -1000, "trial_type": "single-audio", "word": "casket", "stimulus": "/static/audio/wordpool/CASKET.wav", "conditions": [24, 1600, "a", 24000], "internal_node_id": "0.0-78.0", "trial": 2, "time_elapsed": 825021, "serialpos": 16, "key_press": -1, "wordID": 254, "type": "PRES_AUD", "trial_index": 105}, "uniqueid": "MTK1654:3Z4AIRP3C7KCKJC58TSBJEQQKXH1X6", "dateTime": 1516122734335}, {"current_trial": 106, "trialdata": {"rt": -1000, "trial_type": "single-audio", "word": "friend", "stimulus": "/static/audio/wordpool/FRIEND.wav", "conditions": [24, 1600, "a", 24000], "internal_node_id": "0.0-79.0", "trial": 2, "time_elapsed": 827798, "serialpos": 17, "key_press": -1, "wordID": 605, "type": "PRES_AUD", "trial_index": 106}, "uniqueid": "MTK1654:3Z4AIRP3C7KCKJC58TSBJEQQKXH1X6", "dateTime": 1516122737112}, {"current_trial": 107, "trialdata": {"rt": -1000, "trial_type": "single-audio", "word": "gangster", "stimulus": "/static/audio/wordpool/GANGSTER.wav", "conditions": [24, 1600, "a", 24000], "internal_node_id": "0.0-80.0", "trial": 2, "time_elapsed": 830275, "serialpos": 18, "key_press": -1, "wordID": 619, "type": "PRES_AUD", "trial_index": 107}, "uniqueid": "MTK1654:3Z4AIRP3C7KCKJC58TSBJEQQKXH1X6", "dateTime": 1516122739589}, {"current_trial": 108, "trialdata": {"rt": -1000, "trial_type": "single-audio", "word": "tombstone", "stimulus": "/static/audio/wordpool/TOMBSTONE.wav", "conditions": [24, 1600, "a", 24000], "internal_node_id": "0.0-81.0", "trial": 2, "time_elapsed": 833036, "serialpos": 19, "key_press": -1, "wordID": 1477, "type": "PRES_AUD", "trial_index": 108}, "uniqueid": "MTK1654:3Z4AIRP3C7KCKJC58TSBJEQQKXH1X6", "dateTime": 1516122742350}, {"current_trial": 109, "trialdata": {"rt": -1000, "trial_type": "single-audio", "word": "stallion", "stimulus": "/static/audio/wordpool/STALLION.wav", "conditions": [24, 1600, "a", 24000], "internal_node_id": "0.0-82.0", "trial": 2, "time_elapsed": 835790, "serialpos": 20, "key_press": -1, "wordID": 1368, "type": "PRES_AUD", "trial_index": 109}, "uniqueid": "MTK1654:3Z4AIRP3C7KCKJC58TSBJEQQKXH1X6", "dateTime": 1516122745104}, {"current_trial": 110, "trialdata": {"rt": -1000, "trial_type": "single-audio", "word": "hawk", "stimulus": "/static/audio/wordpool/HAWK.wav", "conditions": [24, 1600, "a", 24000], "internal_node_id": "0.0-83.0", "trial": 2, "time_elapsed": 838201, "serialpos": 21, "key_press": -1, "wordID": 691, "type": "PRES_AUD", "trial_index": 110}, "uniqueid": "MTK1654:3Z4AIRP3C7KCKJC58TSBJEQQKXH1X6", "dateTime": 1516122747515}, {"current_trial": 111, "trialdata": {"rt": -1000, "trial_type": "single-audio", "word": "transplant", "stimulus": "/static/audio/wordpool/TRANSPLANT.wav", "conditions": [24, 1600, "a", 24000], "internal_node_id": "0.0-84.0", "trial": 2, "time_elapsed": 840800, "serialpos": 22, "key_press": -1, "wordID": 1495, "type": "PRES_AUD", "trial_index": 111}, "uniqueid": "MTK1654:3Z4AIRP3C7KCKJC58TSBJEQQKXH1X6", "dateTime": 1516122750114}, {"current_trial": 112, "trialdata": {"rt": -1000, "trial_type": "single-audio", "word": "valve", "stimulus": "/static/audio/wordpool/VALVE.wav", "conditions": [24, 1600, "a", 24000], "internal_node_id": "0.0-85.0", "trial": 2, "time_elapsed": 843572, "serialpos": 23, "key_press": -1, "wordID": 1545, "type": "PRES_AUD", "trial_index": 112}, "uniqueid": "MTK1654:3Z4AIRP3C7KCKJC58TSBJEQQKXH1X6", "dateTime": 1516122752886}, {"current_trial": 113, "trialdata": {"rt": -1, "trial_type": "single-stim", "stimulus": "", "internal_node_id": "0.0-86.0-0.0", "time_elapsed": 844823, "key_press": -1, "type": "PRE_RECALL_DELAY", "trial_index": 113}, "uniqueid": "MTK1654:3Z4AIRP3C7KCKJC58TSBJEQQKXH1X6", "dateTime": 1516122754137}, {"current_trial": 114, "trialdata": {"rt": -1000, "trial_type": "single-audio", "stimulus": "/static/audio/400Hz.wav", "internal_node_id": "0.0-87.0", "time_elapsed": 845324, "key_press": -1, "type": "PRE_RECALL_ALERT", "trial_index": 114}, "uniqueid": "MTK1654:3Z4AIRP3C7KCKJC58TSBJEQQKXH1X6", "dateTime": 1516122754638}, {"current_trial": 115, "trialdata": {"rt": [2079, 4615, 6312, 18912, 24904, 27081, 34832, 37736, 54624, 58000], "recwords": ["valve", "transplant", "casket", "hawk", "transplant", "valve", "church", "chapel", "umpire", "lover"], "key_times": [864, 992, 1056, 1376, 1520, 2079, 2592, 2752, 2865, 3175, 3320, 3713, 3864, 3976, 4120, 4263, 4615, 5256, 5367, 5480, 5616, 5768, 5929, 6312, 17968, 18080, 18224, 18568, 18912, 23104, 23264, 23376, 23553, 23672, 24168, 24320, 24407, 24536, 24657, 24904, 25296, 25447, 25489, 26024, 26168, 26327, 26464, 26816, 26944, 27081, 33866, 33970, 34137, 34226, 34442, 34545, 34832, 36681, 36808, 36889, 37144, 37328, 37472, 37736, 53489, 53697, 53865, 54064, 54345, 54483, 54624, 57351, 57520, 57568, 57720, 57824, 58000, 59288, 59481, 59657, 59815, 59920], "trial_type": "free-recall", "conditions": [24, 1600, "a", 24000], "internal_node_id": "0.0-88.0-0.0", "key_presses": [86, 65, 76, 86, 69, 13, 84, 82, 65, 78, 83, 80, 76, 65, 78, 84, 13, 67, 65, 83, 75, 69, 84, 13, 72, 65, 87, 75, 13, 84, 82, 65, 78, 83, 80, 76, 65, 78, 84, 13, 86, 76, 65, 8, 8, 65, 76, 86, 69, 13, 67, 72, 85, 82, 67, 72, 13, 67, 72, 65, 80, 69, 76, 13, 85, 77, 80, 73, 82, 69, 13, 76, 79, 86, 69, 82, 13, 65, 67, 84, 79, 82], "trial": 2, "time_elapsed": 905327, "type": "FREE_RECALL", "trial_index": 115}, "uniqueid": "MTK1654:3Z4AIRP3C7KCKJC58TSBJEQQKXH1X6", "dateTime": 1516122814643}, {"current_trial": 116, "trialdata": {"rt": 3596, "trial_type": "text", "internal_node_id": "0.0-89.0", "time_elapsed": 910926, "key_press": 32, "type": "INSTRUCTIONS", "trial_index": 116}, "uniqueid": "MTK1654:3Z4AIRP3C7KCKJC58TSBJEQQKXH1X6", "dateTime": 1516122820240}, {"current_trial": 117, "trialdata": {"rt": [2669, 4709, 7133, 8973, 11109], "trial_type": "math-distractor", "key_times": [2221, 2669, 4317, 4445, 4709, 6781, 6877, 7133, 8679, 8782, 8973, 10798, 10918, 11109], "responses": ["8", "10", "15", "15", "15"], "num2": [1, 3, 4, 4, 2, 2], "num3": [4, 2, 7, 5, 9, 8], "conditions": [12, 800, "a", 12000], "internal_node_id": "0.0-90.0", "key_presses": [104, 13, 97, 96, 13, 97, 101, 13, 97, 101, 13, 97, 101, 13], "trial": 3, "time_elapsed": 924930, "type": "DISTRACTOR", "trial_index": 117, "num1": [3, 5, 4, 6, 4, 6]}, "uniqueid": "MTK1654:3Z4AIRP3C7KCKJC58TSBJEQQKXH1X6", "dateTime": 1516122834244}, {"current_trial": 118, "trialdata": {"rt": -1, "trial_type": "single-stim", "stimulus": "<p id=\"stim\">10</p>", "internal_node_id": "0.0-91.0-0.0", "time_elapsed": 927935, "key_press": -1, "trial_index": 118}, "uniqueid": "MTK1654:3Z4AIRP3C7KCKJC58TSBJEQQKXH1X6", "dateTime": 1516122837249}, {"current_trial": 119, "trialdata": {"rt": -1, "trial_type": "single-stim", "stimulus": "<p id=\"stim\">9</p>", "internal_node_id": "0.0-91.0-1.0", "time_elapsed": 928937, "key_press": -1, "trial_index": 119}, "uniqueid": "MTK1654:3Z4AIRP3C7KCKJC58TSBJEQQKXH1X6", "dateTime": 1516122838251}, {"current_trial": 120, "trialdata": {"rt": -1, "trial_type": "single-stim", "stimulus": "<p id=\"stim\">8</p>", "internal_node_id": "0.0-91.0-2.0", "time_elapsed": 929940, "key_press": -1, "trial_index": 120}, "uniqueid": "MTK1654:3Z4AIRP3C7KCKJC58TSBJEQQKXH1X6", "dateTime": 1516122839254}, {"current_trial": 121, "trialdata": {"rt": -1, "trial_type": "single-stim", "stimulus": "<p id=\"stim\">7</p>", "internal_node_id": "0.0-91.0-3.0", "time_elapsed": 930941, "key_press": -1, "trial_index": 121}, "uniqueid": "MTK1654:3Z4AIRP3C7KCKJC58TSBJEQQKXH1X6", "dateTime": 1516122840255}, {"current_trial": 122, "trialdata": {"rt": -1, "trial_type": "single-stim", "stimulus": "<p id=\"stim\">6</p>", "internal_node_id": "0.0-91.0-4.0", "time_elapsed": 931944, "key_press": -1, "trial_index": 122}, "uniqueid": "MTK1654:3Z4AIRP3C7KCKJC58TSBJEQQKXH1X6", "dateTime": 1516122841258}, {"current_trial": 123, "trialdata": {"rt": -1, "trial_type": "single-stim", "stimulus": "<p id=\"stim\">5</p>", "internal_node_id": "0.0-91.0-5.0", "time_elapsed": 932945, "key_press": -1, "trial_index": 123}, "uniqueid": "MTK1654:3Z4AIRP3C7KCKJC58TSBJEQQKXH1X6", "dateTime": 1516122842259}, {"current_trial": 124, "trialdata": {"rt": -1, "trial_type": "single-stim", "stimulus": "<p id=\"stim\">4</p>", "internal_node_id": "0.0-91.0-6.0", "time_elapsed": 933946, "key_press": -1, "trial_index": 124}, "uniqueid": "MTK1654:3Z4AIRP3C7KCKJC58TSBJEQQKXH1X6", "dateTime": 1516122843260}, {"current_trial": 125, "trialdata": {"rt": -1, "trial_type": "single-stim", "stimulus": "<p id=\"stim\">3</p>", "internal_node_id": "0.0-91.0-7.0", "time_elapsed": 934948, "key_press": -1, "trial_index": 125}, "uniqueid": "MTK1654:3Z4AIRP3C7KCKJC58TSBJEQQKXH1X6", "dateTime": 1516122844262}, {"current_trial": 126, "trialdata": {"rt": -1, "trial_type": "single-stim", "stimulus": "<p id=\"stim\">2</p>", "internal_node_id": "0.0-91.0-8.0", "time_elapsed": 935949, "key_press": -1, "trial_index": 126}, "uniqueid": "MTK1654:3Z4AIRP3C7KCKJC58TSBJEQQKXH1X6", "dateTime": 1516122845263}, {"current_trial": 127, "trialdata": {"rt": -1, "trial_type": "single-stim", "stimulus": "<p id=\"stim\">1</p>", "internal_node_id": "0.0-91.0-9.0", "time_elapsed": 936951, "key_press": -1, "trial_index": 127}, "uniqueid": "MTK1654:3Z4AIRP3C7KCKJC58TSBJEQQKXH1X6", "dateTime": 1516122846265}, {"current_trial": 128, "trialdata": {"rt": -1, "trial_type": "single-stim", "stimulus": "<p id=\"stim\">+</p>", "internal_node_id": "0.0-92.0-0.0", "time_elapsed": 938454, "key_press": -1, "type": "FIXATION", "trial_index": 128}, "uniqueid": "MTK1654:3Z4AIRP3C7KCKJC58TSBJEQQKXH1X6", "dateTime": 1516122847768}, {"current_trial": 129, "trialdata": {"rt": -1000, "trial_type": "single-audio", "word": "branch", "stimulus": "/static/audio/wordpool/BRANCH.wav", "conditions": [12, 800, "a", 12000], "internal_node_id": "0.0-93.0", "trial": 3, "time_elapsed": 940450, "serialpos": 0, "key_press": -1, "wordID": 167, "type": "PRES_AUD", "trial_index": 129}, "uniqueid": "MTK1654:3Z4AIRP3C7KCKJC58TSBJEQQKXH1X6", "dateTime": 1516122849764}, {"current_trial": 130, "trialdata": {"rt": -1000, "trial_type": "single-audio", "word": "woman", "stimulus": "/static/audio/wordpool/WOMAN.wav", "conditions": [12, 800, "a", 12000], "internal_node_id": "0.0-94.0", "trial": 3, "time_elapsed": 942180, "serialpos": 1, "key_press": -1, "wordID": 1619, "type": "PRES_AUD", "trial_index": 130}, "uniqueid": "MTK1654:3Z4AIRP3C7KCKJC58TSBJEQQKXH1X6", "dateTime": 1516122851494}, {"current_trial": 131, "trialdata": {"rt": -1000, "trial_type": "single-audio", "word": "preacher", "stimulus": "/static/audio/wordpool/PREACHER.wav", "conditions": [12, 800, "a", 12000], "internal_node_id": "0.0-95.0", "trial": 3, "time_elapsed": 944045, "serialpos": 2, "key_press": -1, "wordID": 1118, "type": "PRES_AUD", "trial_index": 131}, "uniqueid": "MTK1654:3Z4AIRP3C7KCKJC58TSBJEQQKXH1X6", "dateTime": 1516122853360}, {"current_trial": 132, "trialdata": {"rt": -1000, "trial_type": "single-audio", "word": "crater", "stimulus": "/static/audio/wordpool/CRATER.wav", "conditions": [12, 800, "a", 12000], "internal_node_id": "0.0-96.0", "trial": 3, "time_elapsed": 945775, "serialpos": 3, "key_press": -1, "wordID": 399, "type": "PRES_AUD", "trial_index": 132}, "uniqueid": "MTK1654:3Z4AIRP3C7KCKJC58TSBJEQQKXH1X6", "dateTime": 1516122855089}, {"current_trial": 133, "trialdata": {"rt": -1000, "trial_type": "single-audio", "word": "gallon", "stimulus": "/static/audio/wordpool/GALLON.wav", "conditions": [12, 800, "a", 12000], "internal_node_id": "0.0-97.0", "trial": 3, "time_elapsed": 947585, "serialpos": 4, "key_press": -1, "wordID": 617, "type": "PRES_AUD", "trial_index": 133}, "uniqueid": "MTK1654:3Z4AIRP3C7KCKJC58TSBJEQQKXH1X6", "dateTime": 1516122856899}, {"current_trial": 134, "trialdata": {"rt": -1000, "trial_type": "single-audio", "word": "barrel", "stimulus": "/static/audio/wordpool/BARREL.wav", "conditions": [12, 800, "a", 12000], "internal_node_id": "0.0-98.0", "trial": 3, "time_elapsed": 949220, "serialpos": 5, "key_press": -1, "wordID": 90, "type": "PRES_AUD", "trial_index": 134}, "uniqueid": "MTK1654:3Z4AIRP3C7KCKJC58TSBJEQQKXH1X6", "dateTime": 1516122858534}, {"current_trial": 135, "trialdata": {"rt": -1000, "trial_type": "single-audio", "word": "machine", "stimulus": "/static/audio/wordpool/MACHINE.wav", "conditions": [12, 800, "a", 12000], "internal_node_id": "0.0-99.0", "trial": 3, "time_elapsed": 951215, "serialpos": 6, "key_press": -1, "wordID": 851, "type": "PRES_AUD", "trial_index": 135}, "uniqueid": "MTK1654:3Z4AIRP3C7KCKJC58TSBJEQQKXH1X6", "dateTime": 1516122860530}, {"current_trial": 136, "trialdata": {"rt": -1000, "trial_type": "single-audio", "word": "window", "stimulus": "/static/audio/wordpool/WINDOW.wav", "conditions": [12, 800, "a", 12000], "internal_node_id": "0.0-100.0", "trial": 3, "time_elapsed": 952972, "serialpos": 7, "key_press": -1, "wordID": 1610, "type": "PRES_AUD", "trial_index": 136}, "uniqueid": "MTK1654:3Z4AIRP3C7KCKJC58TSBJEQQKXH1X6", "dateTime": 1516122862286}, {"current_trial": 137, "trialdata": {"rt": -1000, "trial_type": "single-audio", "word": "lava", "stimulus": "/static/audio/wordpool/LAVA.wav", "conditions": [12, 800, "a", 12000], "internal_node_id": "0.0-101.0", "trial": 3, "time_elapsed": 954651, "serialpos": 8, "key_press": -1, "wordID": 803, "type": "PRES_AUD", "trial_index": 137}, "uniqueid": "MTK1654:3Z4AIRP3C7KCKJC58TSBJEQQKXH1X6", "dateTime": 1516122863965}, {"current_trial": 138, "trialdata": {"rt": -1000, "trial_type": "single-audio", "word": "stamp", "stimulus": "/static/audio/wordpool/STAMP.wav", "conditions": [12, 800, "a", 12000], "internal_node_id": "0.0-102.0", "trial": 3, "time_elapsed": 956570, "serialpos": 9, "key_press": -1, "wordID": 1369, "type": "PRES_AUD", "trial_index": 138}, "uniqueid": "MTK1654:3Z4AIRP3C7KCKJC58TSBJEQQKXH1X6", "dateTime": 1516122865884}, {"current_trial": 139, "trialdata": {"rt": -1000, "trial_type": "single-audio", "word": "atlas", "stimulus": "/static/audio/wordpool/ATLAS.wav", "conditions": [12, 800, "a", 12000], "internal_node_id": "0.0-103.0", "trial": 3, "time_elapsed": 958231, "serialpos": 10, "key_press": -1, "wordID": 52, "type": "PRES_AUD", "trial_index": 139}, "uniqueid": "MTK1654:3Z4AIRP3C7KCKJC58TSBJEQQKXH1X6", "dateTime": 1516122867545}, {"current_trial": 140, "trialdata": {"rt": -1000, "trial_type": "single-audio", "word": "hedge", "stimulus": "/static/audio/wordpool/HEDGE.wav", "conditions": [12, 800, "a", 12000], "internal_node_id": "0.0-104.0", "trial": 3, "time_elapsed": 960073, "serialpos": 11, "key_press": -1, "wordID": 698, "type": "PRES_AUD", "trial_index": 140}, "uniqueid": "MTK1654:3Z4AIRP3C7KCKJC58TSBJEQQKXH1X6", "dateTime": 1516122869387}, {"current_trial": 141, "trialdata": {"rt": -1, "trial_type": "single-stim", "stimulus": "", "internal_node_id": "0.0-105.0-0.0", "time_elapsed": 961368, "key_press": -1, "type": "PRE_RECALL_DELAY", "trial_index": 141}, "uniqueid": "MTK1654:3Z4AIRP3C7KCKJC58TSBJEQQKXH1X6", "dateTime": 1516122870682}, {"current_trial": 142, "trialdata": {"rt": -1000, "trial_type": "single-audio", "stimulus": "/static/audio/400Hz.wav", "internal_node_id": "0.0-106.0", "time_elapsed": 961870, "key_press": -1, "type": "PRE_RECALL_ALERT", "trial_index": 142}, "uniqueid": "MTK1654:3Z4AIRP3C7KCKJC58TSBJEQQKXH1X6", "dateTime": 1516122871184}, {"current_trial": 143, "trialdata": {"rt": [2734, 4166, 5981, 12342, 29925], "recwords": ["hedge", "lava", "stamp", "cabbage", "hedge"], "key_times": [1318, 1782, 2078, 2270, 2405, 2734, 3158, 3246, 3421, 3806, 4166, 4782, 4918, 5014, 5158, 5446, 5981, 11278, 11398, 11606, 11726, 11893, 11982, 12118, 12342, 28662, 28742, 29294, 29470, 29605, 29925], "trial_type": "free-recall", "conditions": [12, 800, "a", 12000], "internal_node_id": "0.0-107.0-0.0", "key_presses": [72, 69, 68, 71, 69, 13, 76, 65, 86, 65, 13, 83, 84, 65, 77, 80, 13, 67, 65, 66, 66, 65, 71, 69, 13, 72, 69, 68, 71, 69, 13], "trial": 3, "time_elapsed": 1021873, "type": "FREE_RECALL", "trial_index": 143}, "uniqueid": "MTK1654:3Z4AIRP3C7KCKJC58TSBJEQQKXH1X6", "dateTime": 1516122931190}, {"current_trial": 144, "trialdata": {"rt": 2496, "trial_type": "text", "internal_node_id": "0.0-108.0", "time_elapsed": 1026374, "key_press": 32, "type": "INSTRUCTIONS", "trial_index": 144}, "uniqueid": "MTK1654:3Z4AIRP3C7KCKJC58TSBJEQQKXH1X6", "dateTime": 1516122935688}, {"current_trial": 145, "trialdata": {"rt": [6621, 8461, 11709, 15117, 17469, 19302, 20853], "trial_type": "math-distractor", "key_times": [6213, 6381, 6621, 8085, 8213, 8461, 11317, 11460, 11709, 14333, 14829, 15117, 17189, 17278, 17469, 18789, 18909, 19302, 20525, 20621, 20853], "responses": ["22", "10", "23", "18", "12", "18", "13"], "num2": [9, 4, 8, 7, 1, 6, 9, 1], "num3": [8, 1, 7, 6, 3, 8, 3, 2], "conditions": [24, 800, "a", 24000], "internal_node_id": "0.0-109.0", "key_presses": [98, 98, 13, 97, 96, 13, 98, 99, 13, 97, 104, 13, 97, 98, 13, 97, 104, 13, 97, 99, 13], "trial": 4, "time_elapsed": 1052378, "type": "DISTRACTOR", "trial_index": 145, "num1": [5, 5, 8, 5, 8, 4, 1, 4]}, "uniqueid": "MTK1654:3Z4AIRP3C7KCKJC58TSBJEQQKXH1X6", "dateTime": 1516122961692}, {"current_trial": 146, "trialdata": {"rt": -1, "trial_type": "single-stim", "stimulus": "<p id=\"stim\">10</p>", "internal_node_id": "0.0-110.0-0.0", "time_elapsed": 1055381, "key_press": -1, "trial_index": 146}, "uniqueid": "MTK1654:3Z4AIRP3C7KCKJC58TSBJEQQKXH1X6", "dateTime": 1516122964695}, {"current_trial": 147, "trialdata": {"rt": -1, "trial_type": "single-stim", "stimulus": "<p id=\"stim\">9</p>", "internal_node_id": "0.0-110.0-1.0", "time_elapsed": 1056382, "key_press": -1, "trial_index": 147}, "uniqueid": "MTK1654:3Z4AIRP3C7KCKJC58TSBJEQQKXH1X6", "dateTime": 1516122965696}, {"current_trial": 148, "trialdata": {"rt": -1, "trial_type": "single-stim", "stimulus": "<p id=\"stim\">8</p>", "internal_node_id": "0.0-110.0-2.0", "time_elapsed": 1057383, "key_press": -1, "trial_index": 148}, "uniqueid": "MTK1654:3Z4AIRP3C7KCKJC58TSBJEQQKXH1X6", "dateTime": 1516122966697}, {"current_trial": 149, "trialdata": {"rt": -1, "trial_type": "single-stim", "stimulus": "<p id=\"stim\">7</p>", "internal_node_id": "0.0-110.0-3.0", "time_elapsed": 1058384, "key_press": -1, "trial_index": 149}, "uniqueid": "MTK1654:3Z4AIRP3C7KCKJC58TSBJEQQKXH1X6", "dateTime": 1516122967698}, {"current_trial": 150, "trialdata": {"rt": -1, "trial_type": "single-stim", "stimulus": "<p id=\"stim\">6</p>", "internal_node_id": "0.0-110.0-4.0", "time_elapsed": 1059385, "key_press": -1, "trial_index": 150}, "uniqueid": "MTK1654:3Z4AIRP3C7KCKJC58TSBJEQQKXH1X6", "dateTime": 1516122968699}, {"current_trial": 151, "trialdata": {"rt": -1, "trial_type": "single-stim", "stimulus": "<p id=\"stim\">5</p>", "internal_node_id": "0.0-110.0-5.0", "time_elapsed": 1060387, "key_press": -1, "trial_index": 151}, "uniqueid": "MTK1654:3Z4AIRP3C7KCKJC58TSBJEQQKXH1X6", "dateTime": 1516122969701}, {"current_trial": 152, "trialdata": {"rt": -1, "trial_type": "single-stim", "stimulus": "<p id=\"stim\">4</p>", "internal_node_id": "0.0-110.0-6.0", "time_elapsed": 1061388, "key_press": -1, "trial_index": 152}, "uniqueid": "MTK1654:3Z4AIRP3C7KCKJC58TSBJEQQKXH1X6", "dateTime": 1516122970702}, {"current_trial": 153, "trialdata": {"rt": -1, "trial_type": "single-stim", "stimulus": "<p id=\"stim\">3</p>", "internal_node_id": "0.0-110.0-7.0", "time_elapsed": 1062390, "key_press": -1, "trial_index": 153}, "uniqueid": "MTK1654:3Z4AIRP3C7KCKJC58TSBJEQQKXH1X6", "dateTime": 1516122971704}, {"current_trial": 154, "trialdata": {"rt": -1, "trial_type": "single-stim", "stimulus": "<p id=\"stim\">2</p>", "internal_node_id": "0.0-110.0-8.0", "time_elapsed": 1063391, "key_press": -1, "trial_index": 154}, "uniqueid": "MTK1654:3Z4AIRP3C7KCKJC58TSBJEQQKXH1X6", "dateTime": 1516122972705}, {"current_trial": 155, "trialdata": {"rt": -1, "trial_type": "single-stim", "stimulus": "<p id=\"stim\">1</p>", "internal_node_id": "0.0-110.0-9.0", "time_elapsed": 1064393, "key_press": -1, "trial_index": 155}, "uniqueid": "MTK1654:3Z4AIRP3C7KCKJC58TSBJEQQKXH1X6", "dateTime": 1516122973707}, {"current_trial": 156, "trialdata": {"rt": -1, "trial_type": "single-stim", "stimulus": "<p id=\"stim\">+</p>", "internal_node_id": "0.0-111.0-0.0", "time_elapsed": 1065896, "key_press": -1, "type": "FIXATION", "trial_index": 156}, "uniqueid": "MTK1654:3Z4AIRP3C7KCKJC58TSBJEQQKXH1X6", "dateTime": 1516122975211}, {"current_trial": 157, "trialdata": {"rt": -1000, "trial_type": "single-audio", "word": "kidney", "stimulus": "/static/audio/wordpool/KIDNEY.wav", "conditions": [24, 800, "a", 24000], "internal_node_id": "0.0-112.0", "trial": 4, "time_elapsed": 1067707, "serialpos": 0, "key_press": -1, "wordID": 775, "type": "PRES_AUD", "trial_index": 157}, "uniqueid": "MTK1654:3Z4AIRP3C7KCKJC58TSBJEQQKXH1X6", "dateTime": 1516122977021}, {"current_trial": 158, "trialdata": {"rt": -1000, "trial_type": "single-audio", "word": "pudding", "stimulus": "/static/audio/wordpool/PUDDING.wav", "conditions": [24, 800, "a", 24000], "internal_node_id": "0.0-113.0", "trial": 4, "time_elapsed": 1069581, "serialpos": 1, "key_press": -1, "wordID": 1138, "type": "PRES_AUD", "trial_index": 158}, "uniqueid": "MTK1654:3Z4AIRP3C7KCKJC58TSBJEQQKXH1X6", "dateTime": 1516122978895}, {"current_trial": 159, "trialdata": {"rt": -1000, "trial_type": "single-audio", "word": "fruit", "stimulus": "/static/audio/wordpool/FRUIT.wav", "conditions": [24, 800, "a", 24000], "internal_node_id": "0.0-114.0", "trial": 4, "time_elapsed": 1071199, "serialpos": 2, "key_press": -1, "wordID": 609, "type": "PRES_AUD", "trial_index": 159}, "uniqueid": "MTK1654:3Z4AIRP3C7KCKJC58TSBJEQQKXH1X6", "dateTime": 1516122980513}, {"current_trial": 160, "trialdata": {"rt": -1000, "trial_type": "single-audio", "word": "lion", "stimulus": "/static/audio/wordpool/LION.wav", "conditions": [24, 800, "a", 24000], "internal_node_id": "0.0-115.0", "trial": 4, "time_elapsed": 1073012, "serialpos": 3, "key_press": -1, "wordID": 826, "type": "PRES_AUD", "trial_index": 160}, "uniqueid": "MTK1654:3Z4AIRP3C7KCKJC58TSBJEQQKXH1X6", "dateTime": 1516122982326}, {"current_trial": 161, "trialdata": {"rt": -1000, "trial_type": "single-audio", "word": "swimmer", "stimulus": "/static/audio/wordpool/SWIMMER.wav", "conditions": [24, 800, "a", 24000], "internal_node_id": "0.0-116.0", "trial": 4, "time_elapsed": 1074938, "serialpos": 4, "key_press": -1, "wordID": 1419, "type": "PRES_AUD", "trial_index": 161}, "uniqueid": "MTK1654:3Z4AIRP3C7KCKJC58TSBJEQQKXH1X6", "dateTime": 1516122984252}, {"current_trial": 162, "trialdata": {"rt": -1000, "trial_type": "single-audio", "word": "diver", "stimulus": "/static/audio/wordpool/DIVER.wav", "conditions": [24, 800, "a", 24000], "internal_node_id": "0.0-117.0", "trial": 4, "time_elapsed": 1076542, "serialpos": 5, "key_press": -1, "wordID": 475, "type": "PRES_AUD", "trial_index": 162}, "uniqueid": "MTK1654:3Z4AIRP3C7KCKJC58TSBJEQQKXH1X6", "dateTime": 1516122985856}, {"current_trial": 163, "trialdata": {"rt": -1000, "trial_type": "single-audio", "word": "crevice", "stimulus": "/static/audio/wordpool/CREVICE.wav", "conditions": [24, 800, "a", 24000], "internal_node_id": "0.0-118.0", "trial": 4, "time_elapsed": 1078455, "serialpos": 6, "key_press": -1, "wordID": 404, "type": "PRES_AUD", "trial_index": 163}, "uniqueid": "MTK1654:3Z4AIRP3C7KCKJC58TSBJEQQKXH1X6", "dateTime": 1516122987769}, {"current_trial": 164, "trialdata": {"rt": -1000, "trial_type": "single-audio", "word": "heart", "stimulus": "/static/audio/wordpool/HEART.wav", "conditions": [24, 800, "a", 24000], "internal_node_id": "0.0-119.0", "trial": 4, "time_elapsed": 1080202, "serialpos": 7, "key_press": -1, "wordID": 696, "type": "PRES_AUD", "trial_index": 164}, "uniqueid": "MTK1654:3Z4AIRP3C7KCKJC58TSBJEQQKXH1X6", "dateTime": 1516122989516}, {"current_trial": 165, "trialdata": {"rt": -1000, "trial_type": "single-audio", "word": "scotch", "stimulus": "/static/audio/wordpool/SCOTCH.wav", "conditions": [24, 800, "a", 24000], "internal_node_id": "0.0-120.0", "trial": 4, "time_elapsed": 1081981, "serialpos": 8, "key_press": -1, "wordID": 1250, "type": "PRES_AUD", "trial_index": 165}, "uniqueid": "MTK1654:3Z4AIRP3C7KCKJC58TSBJEQQKXH1X6", "dateTime": 1516122991295}, {"current_trial": 166, "trialdata": {"rt": -1000, "trial_type": "single-audio", "word": "mummy", "stimulus": "/static/audio/wordpool/MUMMY.wav", "conditions": [24, 800, "a", 24000], "internal_node_id": "0.0-121.0", "trial": 4, "time_elapsed": 1083869, "serialpos": 9, "key_press": -1, "wordID": 931, "type": "PRES_AUD", "trial_index": 166}, "uniqueid": "MTK1654:3Z4AIRP3C7KCKJC58TSBJEQQKXH1X6", "dateTime": 1516122993183}, {"current_trial": 167, "trialdata": {"rt": -1000, "trial_type": "single-audio", "word": "cafe", "stimulus": "/static/audio/wordpool/CAFE.wav", "conditions": [24, 800, "a", 24000], "internal_node_id": "0.0-122.0", "trial": 4, "time_elapsed": 1085576, "serialpos": 10, "key_press": -1, "wordID": 215, "type": "PRES_AUD", "trial_index": 167}, "uniqueid": "MTK1654:3Z4AIRP3C7KCKJC58TSBJEQQKXH1X6", "dateTime": 1516122994890}, {"current_trial": 168, "trialdata": {"rt": -1000, "trial_type": "single-audio", "word": "marrow", "stimulus": "/static/audio/wordpool/MARROW.wav", "conditions": [24, 800, "a", 24000], "internal_node_id": "0.0-123.0", "trial": 4, "time_elapsed": 1087437, "serialpos": 11, "key_press": -1, "wordID": 871, "type": "PRES_AUD", "trial_index": 168}, "uniqueid": "MTK1654:3Z4AIRP3C7KCKJC58TSBJEQQKXH1X6", "dateTime": 1516122996751}, {"current_trial": 169, "trialdata": {"rt": -1000, "trial_type": "single-audio", "word": "stomach", "stimulus": "/static/audio/wordpool/STOMACH.wav", "conditions": [24, 800, "a", 24000], "internal_node_id": "0.0-124.0", "trial": 4, "time_elapsed": 1089198, "serialpos": 12, "key_press": -1, "wordID": 1383, "type": "PRES_AUD", "trial_index": 169}, "uniqueid": "MTK1654:3Z4AIRP3C7KCKJC58TSBJEQQKXH1X6", "dateTime": 1516122998512}, {"current_trial": 170, "trialdata": {"rt": -1000, "trial_type": "single-audio", "word": "helmet", "stimulus": "/static/audio/wordpool/HELMET.wav", "conditions": [24, 800, "a", 24000], "internal_node_id": "0.0-125.0", "trial": 4, "time_elapsed": 1090952, "serialpos": 13, "key_press": -1, "wordID": 701, "type": "PRES_AUD", "trial_index": 170}, "uniqueid": "MTK1654:3Z4AIRP3C7KCKJC58TSBJEQQKXH1X6", "dateTime": 1516123000266}, {"current_trial": 171, "trialdata": {"rt": -1000, "trial_type": "single-audio", "word": "bank", "stimulus": "/static/audio/wordpool/BANK.wav", "conditions": [24, 800, "a", 24000], "internal_node_id": "0.0-126.0", "trial": 4, "time_elapsed": 1092618, "serialpos": 14, "key_press": -1, "wordID": 82, "type": "PRES_AUD", "trial_index": 171}, "uniqueid": "MTK1654:3Z4AIRP3C7KCKJC58TSBJEQQKXH1X6", "dateTime": 1516123001932}, {"current_trial": 172, "trialdata": {"rt": -1000, "trial_type": "single-audio", "word": "ulcer", "stimulus": "/static/audio/wordpool/ULCER.wav", "conditions": [24, 800, "a", 24000], "internal_node_id": "0.0-127.0", "trial": 4, "time_elapsed": 1094488, "serialpos": 15, "key_press": -1, "wordID": 1532, "type": "PRES_AUD", "trial_index": 172}, "uniqueid": "MTK1654:3Z4AIRP3C7KCKJC58TSBJEQQKXH1X6", "dateTime": 1516123003802}, {"current_trial": 173, "trialdata": {"rt": -1000, "trial_type": "single-audio", "word": "police", "stimulus": "/static/audio/wordpool/POLICE.wav", "conditions": [24, 800, "a", 24000], "internal_node_id": "0.0-128.0", "trial": 4, "time_elapsed": 1096105, "serialpos": 16, "key_press": -1, "wordID": 1097, "type": "PRES_AUD", "trial_index": 173}, "uniqueid": "MTK1654:3Z4AIRP3C7KCKJC58TSBJEQQKXH1X6", "dateTime": 1516123005419}, {"current_trial": 174, "trialdata": {"rt": -1000, "trial_type": "single-audio", "word": "forest", "stimulus": "/static/audio/wordpool/FOREST.wav", "conditions": [24, 800, "a", 24000], "internal_node_id": "0.0-129.0", "trial": 4, "time_elapsed": 1097799, "serialpos": 17, "key_press": -1, "wordID": 592, "type": "PRES_AUD", "trial_index": 174}, "uniqueid": "MTK1654:3Z4AIRP3C7KCKJC58TSBJEQQKXH1X6", "dateTime": 1516123007114}, {"current_trial": 175, "trialdata": {"rt": -1000, "trial_type": "single-audio", "word": "ozone", "stimulus": "/static/audio/wordpool/OZONE.wav", "conditions": [24, 800, "a", 24000], "internal_node_id": "0.0-130.0", "trial": 4, "time_elapsed": 1099671, "serialpos": 18, "key_press": -1, "wordID": 995, "type": "PRES_AUD", "trial_index": 175}, "uniqueid": "MTK1654:3Z4AIRP3C7KCKJC58TSBJEQQKXH1X6", "dateTime": 1516123008985}, {"current_trial": 176, "trialdata": {"rt": -1000, "trial_type": "single-audio", "word": "cashier", "stimulus": "/static/audio/wordpool/CASHIER.wav", "conditions": [24, 800, "a", 24000], "internal_node_id": "0.0-131.0", "trial": 4, "time_elapsed": 1101478, "serialpos": 19, "key_press": -1, "wordID": 253, "type": "PRES_AUD", "trial_index": 176}, "uniqueid": "MTK1654:3Z4AIRP3C7KCKJC58TSBJEQQKXH1X6", "dateTime": 1516123010792}, {"current_trial": 177, "trialdata": {"rt": -1000, "trial_type": "single-audio", "word": "waitress", "stimulus": "/static/audio/wordpool/WAITRESS.wav", "conditions": [24, 800, "a", 24000], "internal_node_id": "0.0-132.0", "trial": 4, "time_elapsed": 1103380, "serialpos": 20, "key_press": -1, "wordID": 1580, "type": "PRES_AUD", "trial_index": 177}, "uniqueid": "MTK1654:3Z4AIRP3C7KCKJC58TSBJEQQKXH1X6", "dateTime": 1516123012695}, {"current_trial": 178, "trialdata": {"rt": -1000, "trial_type": "single-audio", "word": "plate", "stimulus": "/static/audio/wordpool/PLATE.wav", "conditions": [24, 800, "a", 24000], "internal_node_id": "0.0-133.0", "trial": 4, "time_elapsed": 1105303, "serialpos": 21, "key_press": -1, "wordID": 1085, "type": "PRES_AUD", "trial_index": 178}, "uniqueid": "MTK1654:3Z4AIRP3C7KCKJC58TSBJEQQKXH1X6", "dateTime": 1516123014617}, {"current_trial": 179, "trialdata": {"rt": -1000, "trial_type": "single-audio", "word": "smog", "stimulus": "/static/audio/wordpool/SMOG.wav", "conditions": [24, 800, "a", 24000], "internal_node_id": "0.0-134.0", "trial": 4, "time_elapsed": 1107218, "serialpos": 22, "key_press": -1, "wordID": 1329, "type": "PRES_AUD", "trial_index": 179}, "uniqueid": "MTK1654:3Z4AIRP3C7KCKJC58TSBJEQQKXH1X6", "dateTime": 1516123016532}, {"current_trial": 180, "trialdata": {"rt": -1000, "trial_type": "single-audio", "word": "leg", "stimulus": "/static/audio/wordpool/LEG.wav", "conditions": [24, 800, "a", 24000], "internal_node_id": "0.0-135.0", "trial": 4, "time_elapsed": 1109186, "serialpos": 23, "key_press": -1, "wordID": 808, "type": "PRES_AUD", "trial_index": 180}, "uniqueid": "MTK1654:3Z4AIRP3C7KCKJC58TSBJEQQKXH1X6", "dateTime": 1516123018500}, {"current_trial": 181, "trialdata": {"rt": -1, "trial_type": "single-stim", "stimulus": "", "internal_node_id": "0.0-136.0-0.0", "time_elapsed": 1110505, "key_press": -1, "type": "PRE_RECALL_DELAY", "trial_index": 181}, "uniqueid": "MTK1654:3Z4AIRP3C7KCKJC58TSBJEQQKXH1X6", "dateTime": 1516123019819}, {"current_trial": 182, "trialdata": {"rt": -1000, "trial_type": "single-audio", "stimulus": "/static/audio/400Hz.wav", "internal_node_id": "0.0-137.0", "time_elapsed": 1111006, "key_press": -1, "type": "PRE_RECALL_ALERT", "trial_index": 182}, "uniqueid": "MTK1654:3Z4AIRP3C7KCKJC58TSBJEQQKXH1X6", "dateTime": 1516123020320}, {"current_trial": 183, "trialdata": {"rt": [2085, 3462, 4958, 6814, 10719, 11726, 22942, 34125], "recwords": ["leg", "smog", "ozone", "cashier", "swimmer", "diver", "fruit", "heart"], "key_times": [1359, 1461, 1670, 2085, 2494, 2623, 3046, 3206, 3462, 3822, 3950, 4198, 4302, 4670, 4958, 5518, 5647, 5903, 6014, 6166, 6366, 6486, 6814, 8678, 8822, 9447, 9590, 9702, 9966, 10103, 10213, 10335, 10719, 11086, 11198, 11318, 11446, 11534, 11726, 21494, 22165, 22413, 22549, 22694, 22942, 33366, 33485, 33581, 33669, 33893, 34125], "trial_type": "free-recall", "conditions": [24, 800, "a", 24000], "internal_node_id": "0.0-138.0-0.0", "key_presses": [76, 69, 71, 13, 83, 77, 79, 71, 13, 79, 90, 79, 78, 69, 13, 67, 65, 83, 72, 73, 69, 82, 13, 83, 77, 8, 87, 73, 77, 77, 69, 82, 13, 68, 73, 86, 69, 82, 13, 70, 82, 85, 73, 84, 13, 72, 69, 65, 82, 84, 13], "trial": 4, "time_elapsed": 1171008, "type": "FREE_RECALL", "trial_index": 183}, "uniqueid": "MTK1654:3Z4AIRP3C7KCKJC58TSBJEQQKXH1X6", "dateTime": 1516123080324}, {"current_trial": 184, "trialdata": {"rt": 3394, "trial_type": "text", "internal_node_id": "0.0-139.0", "time_elapsed": 1176405, "key_press": 32, "type": "INSTRUCTIONS", "trial_index": 184}, "uniqueid": "MTK1654:3Z4AIRP3C7KCKJC58TSBJEQQKXH1X6", "dateTime": 1516123085719}, {"current_trial": 185, "trialdata": {"rt": [1613, 4533, 7437, 9989, 11756], "trial_type": "math-distractor", "key_times": [1253, 1342, 1613, 4132, 4319, 4533, 7047, 7166, 7437, 9565, 9685, 9989, 11373, 11501, 11756], "responses": ["15", "14", "15", "10", "15"], "num2": [4, 5, 6, 2, 4, 7], "num3": [5, 7, 5, 2, 3, 1], "conditions": [24, 1600, "a", 12000], "internal_node_id": "0.0-140.0", "key_presses": [97, 101, 13, 97, 100, 13, 97, 101, 13, 97, 96, 13, 97, 101, 13], "trial": 5, "time_elapsed": 1190408, "type": "DISTRACTOR", "trial_index": 185, "num1": [6, 2, 4, 6, 8, 3]}, "uniqueid": "MTK1654:3Z4AIRP3C7KCKJC58TSBJEQQKXH1X6", "dateTime": 1516123099722}, {"current_trial": 186, "trialdata": {"rt": -1, "trial_type": "single-stim", "stimulus": "<p id=\"stim\">10</p>", "internal_node_id": "0.0-141.0-0.0", "time_elapsed": 1193413, "key_press": -1, "trial_index": 186}, "uniqueid": "MTK1654:3Z4AIRP3C7KCKJC58TSBJEQQKXH1X6", "dateTime": 1516123102727}, {"current_trial": 187, "trialdata": {"rt": -1, "trial_type": "single-stim", "stimulus": "<p id=\"stim\">9</p>", "internal_node_id": "0.0-141.0-1.0", "time_elapsed": 1194415, "key_press": -1, "trial_index": 187}, "uniqueid": "MTK1654:3Z4AIRP3C7KCKJC58TSBJEQQKXH1X6", "dateTime": 1516123103729}, {"current_trial": 188, "trialdata": {"rt": -1, "trial_type": "single-stim", "stimulus": "<p id=\"stim\">8</p>", "internal_node_id": "0.0-141.0-2.0", "time_elapsed": 1195417, "key_press": -1, "trial_index": 188}, "uniqueid": "MTK1654:3Z4AIRP3C7KCKJC58TSBJEQQKXH1X6", "dateTime": 1516123104731}, {"current_trial": 189, "trialdata": {"rt": -1, "trial_type": "single-stim", "stimulus": "<p id=\"stim\">7</p>", "internal_node_id": "0.0-141.0-3.0", "time_elapsed": 1196420, "key_press": -1, "trial_index": 189}, "uniqueid": "MTK1654:3Z4AIRP3C7KCKJC58TSBJEQQKXH1X6", "dateTime": 1516123105734}, {"current_trial": 190, "trialdata": {"rt": -1, "trial_type": "single-stim", "stimulus": "<p id=\"stim\">6</p>", "internal_node_id": "0.0-141.0-4.0", "time_elapsed": 1197423, "key_press": -1, "trial_index": 190}, "uniqueid": "MTK1654:3Z4AIRP3C7KCKJC58TSBJEQQKXH1X6", "dateTime": 1516123106737}, {"current_trial": 191, "trialdata": {"rt": -1, "trial_type": "single-stim", "stimulus": "<p id=\"stim\">5</p>", "internal_node_id": "0.0-141.0-5.0", "time_elapsed": 1198424, "key_press": -1, "trial_index": 191}, "uniqueid": "MTK1654:3Z4AIRP3C7KCKJC58TSBJEQQKXH1X6", "dateTime": 1516123107738}, {"current_trial": 192, "trialdata": {"rt": -1, "trial_type": "single-stim", "stimulus": "<p id=\"stim\">4</p>", "internal_node_id": "0.0-141.0-6.0", "time_elapsed": 1199425, "key_press": -1, "trial_index": 192}, "uniqueid": "MTK1654:3Z4AIRP3C7KCKJC58TSBJEQQKXH1X6", "dateTime": 1516123108739}, {"current_trial": 193, "trialdata": {"rt": -1, "trial_type": "single-stim", "stimulus": "<p id=\"stim\">3</p>", "internal_node_id": "0.0-141.0-7.0", "time_elapsed": 1200427, "key_press": -1, "trial_index": 193}, "uniqueid": "MTK1654:3Z4AIRP3C7KCKJC58TSBJEQQKXH1X6", "dateTime": 1516123109741}, {"current_trial": 194, "trialdata": {"rt": -1, "trial_type": "single-stim", "stimulus": "<p id=\"stim\">2</p>", "internal_node_id": "0.0-141.0-8.0", "time_elapsed": 1201429, "key_press": -1, "trial_index": 194}, "uniqueid": "MTK1654:3Z4AIRP3C7KCKJC58TSBJEQQKXH1X6", "dateTime": 1516123110744}, {"current_trial": 195, "trialdata": {"rt": -1, "trial_type": "single-stim", "stimulus": "<p id=\"stim\">1</p>", "internal_node_id": "0.0-141.0-9.0", "time_elapsed": 1202431, "key_press": -1, "trial_index": 195}, "uniqueid": "MTK1654:3Z4AIRP3C7KCKJC58TSBJEQQKXH1X6", "dateTime": 1516123111745}, {"current_trial": 196, "trialdata": {"rt": -1, "trial_type": "single-stim", "stimulus": "<p id=\"stim\">+</p>", "internal_node_id": "0.0-142.0-0.0", "time_elapsed": 1203934, "key_press": -1, "type": "FIXATION", "trial_index": 196}, "uniqueid": "MTK1654:3Z4AIRP3C7KCKJC58TSBJEQQKXH1X6", "dateTime": 1516123113248}, {"current_trial": 197, "trialdata": {"rt": -1000, "trial_type": "single-audio", "word": "sparrow", "stimulus": "/static/audio/wordpool/SPARROW.wav", "conditions": [24, 1600, "a", 12000], "internal_node_id": "0.0-143.0", "trial": 5, "time_elapsed": 1206610, "serialpos": 0, "key_press": -1, "wordID": 1346, "type": "PRES_AUD", "trial_index": 197}, "uniqueid": "MTK1654:3Z4AIRP3C7KCKJC58TSBJEQQKXH1X6", "dateTime": 1516123115924}, {"current_trial": 198, "trialdata": {"rt": -1000, "trial_type": "single-audio", "word": "pliers", "stimulus": "/static/audio/wordpool/PLIERS.wav", "conditions": [24, 1600, "a", 12000], "internal_node_id": "0.0-144.0", "trial": 5, "time_elapsed": 1209052, "serialpos": 1, "key_press": -1, "wordID": 1088, "type": "PRES_AUD", "trial_index": 198}, "uniqueid": "MTK1654:3Z4AIRP3C7KCKJC58TSBJEQQKXH1X6", "dateTime": 1516123118366}, {"current_trial": 199, "trialdata": {"rt": -1000, "trial_type": "single-audio", "word": "headband", "stimulus": "/static/audio/wordpool/HEADBAND.wav", "conditions": [24, 1600, "a", 12000], "internal_node_id": "0.0-145.0", "trial": 5, "time_elapsed": 1211551, "serialpos": 2, "key_press": -1, "wordID": 695, "type": "PRES_AUD", "trial_index": 199}, "uniqueid": "MTK1654:3Z4AIRP3C7KCKJC58TSBJEQQKXH1X6", "dateTime": 1516123120865}, {"current_trial": 200, "trialdata": {"rt": -1000, "trial_type": "single-audio", "word": "blade", "stimulus": "/static/audio/wordpool/BLADE.wav", "conditions": [24, 1600, "a", 12000], "internal_node_id": "0.0-146.0", "trial": 5, "time_elapsed": 1214238, "serialpos": 3, "key_press": -1, "wordID": 133, "type": "PRES_AUD", "trial_index": 200}, "uniqueid": "MTK1654:3Z4AIRP3C7KCKJC58TSBJEQQKXH1X6", "dateTime": 1516123123552}, {"current_trial": 201, "trialdata": {"rt": -1000, "trial_type": "single-audio", "word": "knife", "stimulus": "/static/audio/wordpool/KNIFE.wav", "conditions": [24, 1600, "a", 12000], "internal_node_id": "0.0-147.0", "trial": 5, "time_elapsed": 1216714, "serialpos": 4, "key_press": -1, "wordID": 784, "type": "PRES_AUD", "trial_index": 201}, "uniqueid": "MTK1654:3Z4AIRP3C7KCKJC58TSBJEQQKXH1X6", "dateTime": 1516123126028}, {"current_trial": 202, "trialdata": {"rt": -1000, "trial_type": "single-audio", "word": "chauffeur", "stimulus": "/static/audio/wordpool/CHAUFFEUR.wav", "conditions": [24, 1600, "a", 12000], "internal_node_id": "0.0-148.0", "trial": 5, "time_elapsed": 1219317, "serialpos": 5, "key_press": -1, "wordID": 282, "type": "PRES_AUD", "trial_index": 202}, "uniqueid": "MTK1654:3Z4AIRP3C7KCKJC58TSBJEQQKXH1X6", "dateTime": 1516123128631}, {"current_trial": 203, "trialdata": {"rt": -1000, "trial_type": "single-audio", "word": "razor", "stimulus": "/static/audio/wordpool/RAZOR.wav", "conditions": [24, 1600, "a", 12000], "internal_node_id": "0.0-149.0", "trial": 5, "time_elapsed": 1222086, "serialpos": 6, "key_press": -1, "wordID": 1170, "type": "PRES_AUD", "trial_index": 203}, "uniqueid": "MTK1654:3Z4AIRP3C7KCKJC58TSBJEQQKXH1X6", "dateTime": 1516123131400}, {"current_trial": 204, "trialdata": {"rt": -1000, "trial_type": "single-audio", "word": "venus", "stimulus": "/static/audio/wordpool/VENUS.wav", "conditions": [24, 1600, "a", 12000], "internal_node_id": "0.0-150.0", "trial": 5, "time_elapsed": 1224591, "serialpos": 7, "key_press": -1, "wordID": 1556, "type": "PRES_AUD", "trial_index": 204}, "uniqueid": "MTK1654:3Z4AIRP3C7KCKJC58TSBJEQQKXH1X6", "dateTime": 1516123133905}, {"current_trial": 205, "trialdata": {"rt": -1000, "trial_type": "single-audio", "word": "rabbit", "stimulus": "/static/audio/wordpool/RABBIT.wav", "conditions": [24, 1600, "a", 12000], "internal_node_id": "0.0-151.0", "trial": 5, "time_elapsed": 1227008, "serialpos": 8, "key_press": -1, "wordID": 1151, "type": "PRES_AUD", "trial_index": 205}, "uniqueid": "MTK1654:3Z4AIRP3C7KCKJC58TSBJEQQKXH1X6", "dateTime": 1516123136322}, {"current_trial": 206, "trialdata": {"rt": -1000, "trial_type": "single-audio", "word": "tortoise", "stimulus": "/static/audio/wordpool/TORTOISE.wav", "conditions": [24, 1600, "a", 12000], "internal_node_id": "0.0-152.0", "trial": 5, "time_elapsed": 1229757, "serialpos": 9, "key_press": -1, "wordID": 1485, "type": "PRES_AUD", "trial_index": 206}, "uniqueid": "MTK1654:3Z4AIRP3C7KCKJC58TSBJEQQKXH1X6", "dateTime": 1516123139071}, {"current_trial": 207, "trialdata": {"rt": -1000, "trial_type": "single-audio", "word": "dolphin", "stimulus": "/static/audio/wordpool/DOLPHIN.wav", "conditions": [24, 1600, "a", 12000], "internal_node_id": "0.0-153.0", "trial": 5, "time_elapsed": 1232192, "serialpos": 10, "key_press": -1, "wordID": 482, "type": "PRES_AUD", "trial_index": 207}, "uniqueid": "MTK1654:3Z4AIRP3C7KCKJC58TSBJEQQKXH1X6", "dateTime": 1516123141506}, {"current_trial": 208, "trialdata": {"rt": -1000, "trial_type": "single-audio", "word": "shovel", "stimulus": "/static/audio/wordpool/SHOVEL.wav", "conditions": [24, 1600, "a", 12000], "internal_node_id": "0.0-154.0", "trial": 5, "time_elapsed": 1234906, "serialpos": 11, "key_press": -1, "wordID": 1294, "type": "PRES_AUD", "trial_index": 208}, "uniqueid": "MTK1654:3Z4AIRP3C7KCKJC58TSBJEQQKXH1X6", "dateTime": 1516123144220}, {"current_trial": 209, "trialdata": {"rt": -1000, "trial_type": "single-audio", "word": "sunrise", "stimulus": "/static/audio/wordpool/SUNRISE.wav", "conditions": [24, 1600, "a", 12000], "internal_node_id": "0.0-155.0", "trial": 5, "time_elapsed": 1237384, "serialpos": 12, "key_press": -1, "wordID": 1406, "type": "PRES_AUD", "trial_index": 209}, "uniqueid": "MTK1654:3Z4AIRP3C7KCKJC58TSBJEQQKXH1X6", "dateTime": 1516123146698}, {"current_trial": 210, "trialdata": {"rt": -1000, "trial_type": "single-audio", "word": "sunset", "stimulus": "/static/audio/wordpool/SUNSET.wav", "conditions": [24, 1600, "a", 12000], "internal_node_id": "0.0-156.0", "trial": 5, "time_elapsed": 1240115, "serialpos": 13, "key_press": -1, "wordID": 1407, "type": "PRES_AUD", "trial_index": 210}, "uniqueid": "MTK1654:3Z4AIRP3C7KCKJC58TSBJEQQKXH1X6", "dateTime": 1516123149429}, {"current_trial": 211, "trialdata": {"rt": -1000, "trial_type": "single-audio", "word": "flask", "stimulus": "/static/audio/wordpool/FLASK.wav", "conditions": [24, 1600, "a", 12000], "internal_node_id": "0.0-157.0", "trial": 5, "time_elapsed": 1242719, "serialpos": 14, "key_press": -1, "wordID": 575, "type": "PRES_AUD", "trial_index": 211}, "uniqueid": "MTK1654:3Z4AIRP3C7KCKJC58TSBJEQQKXH1X6", "dateTime": 1516123152033}, {"current_trial": 212, "trialdata": {"rt": -1000, "trial_type": "single-audio", "word": "wasp", "stimulus": "/static/audio/wordpool/WASP.wav", "conditions": [24, 1600, "a", 12000], "internal_node_id": "0.0-158.0", "trial": 5, "time_elapsed": 1245362, "serialpos": 15, "key_press": -1, "wordID": 1592, "type": "PRES_AUD", "trial_index": 212}, "uniqueid": "MTK1654:3Z4AIRP3C7KCKJC58TSBJEQQKXH1X6", "dateTime": 1516123154676}, {"current_trial": 213, "trialdata": {"rt": -1000, "trial_type": "single-audio", "word": "silk", "stimulus": "/static/audio/wordpool/SILK.wav", "conditions": [24, 1600, "a", 12000], "internal_node_id": "0.0-159.0", "trial": 5, "time_elapsed": 1247861, "serialpos": 16, "key_press": -1, "wordID": 1306, "type": "PRES_AUD", "trial_index": 213}, "uniqueid": "MTK1654:3Z4AIRP3C7KCKJC58TSBJEQQKXH1X6", "dateTime": 1516123157175}, {"current_trial": 214, "trialdata": {"rt": -1000, "trial_type": "single-audio", "word": "frame", "stimulus": "/static/audio/wordpool/FRAME.wav", "conditions": [24, 1600, "a", 12000], "internal_node_id": "0.0-160.0", "trial": 5, "time_elapsed": 1250273, "serialpos": 17, "key_press": -1, "wordID": 599, "type": "PRES_AUD", "trial_index": 214}, "uniqueid": "MTK1654:3Z4AIRP3C7KCKJC58TSBJEQQKXH1X6", "dateTime": 1516123159587}, {"current_trial": 215, "trialdata": {"rt": -1000, "trial_type": "single-audio", "word": "leopard", "stimulus": "/static/audio/wordpool/LEOPARD.wav", "conditions": [24, 1600, "a", 12000], "internal_node_id": "0.0-161.0", "trial": 5, "time_elapsed": 1252972, "serialpos": 18, "key_press": -1, "wordID": 811, "type": "PRES_AUD", "trial_index": 215}, "uniqueid": "MTK1654:3Z4AIRP3C7KCKJC58TSBJEQQKXH1X6", "dateTime": 1516123162286}, {"current_trial": 216, "trialdata": {"rt": -1000, "trial_type": "single-audio", "word": "velvet", "stimulus": "/static/audio/wordpool/VELVET.wav", "conditions": [24, 1600, "a", 12000], "internal_node_id": "0.0-162.0", "trial": 5, "time_elapsed": 1255591, "serialpos": 19, "key_press": -1, "wordID": 1554, "type": "PRES_AUD", "trial_index": 216}, "uniqueid": "MTK1654:3Z4AIRP3C7KCKJC58TSBJEQQKXH1X6", "dateTime": 1516123164905}, {"current_trial": 217, "trialdata": {"rt": -1000, "trial_type": "single-audio", "word": "puppy", "stimulus": "/static/audio/wordpool/PUPPY.wav", "conditions": [24, 1600, "a", 12000], "internal_node_id": "0.0-163.0", "trial": 5, "time_elapsed": 1258232, "serialpos": 20, "key_press": -1, "wordID": 1143, "type": "PRES_AUD", "trial_index": 217}, "uniqueid": "MTK1654:3Z4AIRP3C7KCKJC58TSBJEQQKXH1X6", "dateTime": 1516123167546}, {"current_trial": 218, "trialdata": {"rt": -1000, "trial_type": "single-audio", "word": "grape", "stimulus": "/static/audio/wordpool/GRAPE.wav", "conditions": [24, 1600, "a", 12000], "internal_node_id": "0.0-164.0", "trial": 5, "time_elapsed": 1260913, "serialpos": 21, "key_press": -1, "wordID": 653, "type": "PRES_AUD", "trial_index": 218}, "uniqueid": "MTK1654:3Z4AIRP3C7KCKJC58TSBJEQQKXH1X6", "dateTime": 1516123170227}, {"current_trial": 219, "trialdata": {"rt": -1000, "trial_type": "single-audio", "word": "baby", "stimulus": "/static/audio/wordpool/BABY.wav", "conditions": [24, 1600, "a", 12000], "internal_node_id": "0.0-165.0", "trial": 5, "time_elapsed": 1263409, "serialpos": 22, "key_press": -1, "wordID": 63, "type": "PRES_AUD", "trial_index": 219}, "uniqueid": "MTK1654:3Z4AIRP3C7KCKJC58TSBJEQQKXH1X6", "dateTime": 1516123172723}, {"current_trial": 220, "trialdata": {"rt": -1000, "trial_type": "single-audio", "word": "lettuce", "stimulus": "/static/audio/wordpool/LETTUCE.wav", "conditions": [24, 1600, "a", 12000], "internal_node_id": "0.0-166.0", "trial": 5, "time_elapsed": 1265988, "serialpos": 23, "key_press": -1, "wordID": 813, "type": "PRES_AUD", "trial_index": 220}, "uniqueid": "MTK1654:3Z4AIRP3C7KCKJC58TSBJEQQKXH1X6", "dateTime": 1516123175302}, {"current_trial": 221, "trialdata": {"rt": -1, "trial_type": "single-stim", "stimulus": "", "internal_node_id": "0.0-167.0-0.0", "time_elapsed": 1267292, "key_press": -1, "type": "PRE_RECALL_DELAY", "trial_index": 221}, "uniqueid": "MTK1654:3Z4AIRP3C7KCKJC58TSBJEQQKXH1X6", "dateTime": 1516123176606}, {"current_trial": 222, "trialdata": {"rt": -1000, "trial_type": "single-audio", "stimulus": "/static/audio/400Hz.wav", "internal_node_id": "0.0-168.0", "time_elapsed": 1267793, "key_press": -1, "type": "PRE_RECALL_ALERT", "trial_index": 222}, "uniqueid": "MTK1654:3Z4AIRP3C7KCKJC58TSBJEQQKXH1X6", "dateTime": 1516123177107}, {"current_trial": 223, "trialdata": {"rt": [3594, 5219, 6859, 10483, 13163, 14955, 22042, 24931, 39963, 42075, 50531], "recwords": ["lettuce", "baby", "puppy", "leopard", "sunrise", "sunset", "pliers", "shovel", "tortise", "rabbit", "lettuce"], "key_times": [1699, 1851, 2082, 2219, 2387, 2610, 2795, 3594, 4075, 4195, 4347, 4570, 5219, 5859, 6019, 6259, 6426, 6595, 6859, 7139, 7283, 7467, 7964, 8170, 8307, 8714, 8867, 9099, 10483, 10835, 10947, 11122, 11483, 11699, 12339, 12451, 12650, 12819, 13163, 13507, 13763, 13979, 14187, 14427, 14643, 14955, 19347, 19523, 19850, 19955, 20066, 20451, 22042, 23635, 23746, 23850, 24042, 24259, 24403, 24931, 37124, 37388, 37500, 37756, 37948, 38292, 38428, 39963, 40931, 41051, 41371, 41507, 41643, 41786, 42075, 49260, 49396, 49636, 49780, 49884, 50133, 50325, 50531], "trial_type": "free-recall", "conditions": [24, 1600, "a", 12000], "internal_node_id": "0.0-169.0-0.0", "key_presses": [76, 69, 84, 84, 85, 67, 69, 13, 66, 65, 66, 89, 13, 80, 85, 80, 80, 89, 13, 76, 69, 80, 8, 79, 80, 65, 82, 68, 13, 83, 85, 82, 8, 78, 82, 73, 83, 69, 13, 83, 85, 78, 83, 69, 84, 13, 80, 76, 73, 69, 82, 83, 13, 83, 72, 79, 86, 69, 76, 13, 84, 79, 82, 84, 73, 83, 69, 13, 82, 65, 66, 66, 73, 84, 13, 76, 69, 84, 84, 85, 67, 69, 13], "trial": 5, "time_elapsed": 1327796, "type": "FREE_RECALL", "trial_index": 223}, "uniqueid": "MTK1654:3Z4AIRP3C7KCKJC58TSBJEQQKXH1X6", "dateTime": 1516123237118}, {"current_trial": 224, "trialdata": {"rt": 4242, "trial_type": "text", "internal_node_id": "0.0-170.0", "time_elapsed": 1334048, "key_press": 32, "type": "INSTRUCTIONS", "trial_index": 224}, "uniqueid": "MTK1654:3Z4AIRP3C7KCKJC58TSBJEQQKXH1X6", "dateTime": 1516123243362}, {"current_trial": 225, "trialdata": {"rt": [2698, 5674, 7450, 9530, 11234, 15563, 17802, 19434, 21666, 23571], "trial_type": "math-distractor", "key_times": [2091, 2204, 2698, 5290, 5457, 5674, 7157, 7228, 7450, 9195, 9298, 9530, 10874, 10978, 11234, 15132, 15227, 15563, 17466, 17586, 17802, 19196, 19434, 21298, 21666, 23243, 23363, 23571], "responses": ["10", "11", "12", "10", "13", "21", "21", "9", "8", "13"], "num2": [5, 1, 4, 1, 1, 3, 8, 6, 1, 4, 3], "num3": [3, 4, 5, 2, 8, 9, 7, 1, 2, 7, 7], "conditions": [24, 1600, "a", 24000], "internal_node_id": "0.0-171.0", "key_presses": [97, 96, 13, 97, 97, 13, 97, 98, 13, 97, 96, 13, 97, 99, 13, 98, 97, 13, 98, 97, 13, 105, 13, 104, 13, 97, 99, 13], "trial": 6, "time_elapsed": 1360053, "type": "DISTRACTOR", "trial_index": 225, "num1": [2, 6, 3, 7, 4, 9, 6, 2, 5, 2, 1]}, "uniqueid": "MTK1654:3Z4AIRP3C7KCKJC58TSBJEQQKXH1X6", "dateTime": 1516123269367}, {"current_trial": 226, "trialdata": {"rt": -1, "trial_type": "single-stim", "stimulus": "<p id=\"stim\">10</p>", "internal_node_id": "0.0-172.0-0.0", "time_elapsed": 1363057, "key_press": -1, "trial_index": 226}, "uniqueid": "MTK1654:3Z4AIRP3C7KCKJC58TSBJEQQKXH1X6", "dateTime": 1516123272371}, {"current_trial": 227, "trialdata": {"rt": -1, "trial_type": "single-stim", "stimulus": "<p id=\"stim\">9</p>", "internal_node_id": "0.0-172.0-1.0", "time_elapsed": 1364059, "key_press": -1, "trial_index": 227}, "uniqueid": "MTK1654:3Z4AIRP3C7KCKJC58TSBJEQQKXH1X6", "dateTime": 1516123273374}, {"current_trial": 228, "trialdata": {"rt": -1, "trial_type": "single-stim", "stimulus": "<p id=\"stim\">8</p>", "internal_node_id": "0.0-172.0-2.0", "time_elapsed": 1365061, "key_press": -1, "trial_index": 228}, "uniqueid": "MTK1654:3Z4AIRP3C7KCKJC58TSBJEQQKXH1X6", "dateTime": 1516123274375}, {"current_trial": 229, "trialdata": {"rt": -1, "trial_type": "single-stim", "stimulus": "<p id=\"stim\">7</p>", "internal_node_id": "0.0-172.0-3.0", "time_elapsed": 1366062, "key_press": -1, "trial_index": 229}, "uniqueid": "MTK1654:3Z4AIRP3C7KCKJC58TSBJEQQKXH1X6", "dateTime": 1516123275376}, {"current_trial": 230, "trialdata": {"rt": -1, "trial_type": "single-stim", "stimulus": "<p id=\"stim\">6</p>", "internal_node_id": "0.0-172.0-4.0", "time_elapsed": 1367064, "key_press": -1, "trial_index": 230}, "uniqueid": "MTK1654:3Z4AIRP3C7KCKJC58TSBJEQQKXH1X6", "dateTime": 1516123276378}, {"current_trial": 231, "trialdata": {"rt": -1, "trial_type": "single-stim", "stimulus": "<p id=\"stim\">5</p>", "internal_node_id": "0.0-172.0-5.0", "time_elapsed": 1368065, "key_press": -1, "trial_index": 231}, "uniqueid": "MTK1654:3Z4AIRP3C7KCKJC58TSBJEQQKXH1X6", "dateTime": 1516123277379}, {"current_trial": 232, "trialdata": {"rt": -1, "trial_type": "single-stim", "stimulus": "<p id=\"stim\">4</p>", "internal_node_id": "0.0-172.0-6.0", "time_elapsed": 1369066, "key_press": -1, "trial_index": 232}, "uniqueid": "MTK1654:3Z4AIRP3C7KCKJC58TSBJEQQKXH1X6", "dateTime": 1516123278381}, {"current_trial": 233, "trialdata": {"rt": -1, "trial_type": "single-stim", "stimulus": "<p id=\"stim\">3</p>", "internal_node_id": "0.0-172.0-7.0", "time_elapsed": 1370069, "key_press": -1, "trial_index": 233}, "uniqueid": "MTK1654:3Z4AIRP3C7KCKJC58TSBJEQQKXH1X6", "dateTime": 1516123279383}, {"current_trial": 234, "trialdata": {"rt": -1, "trial_type": "single-stim", "stimulus": "<p id=\"stim\">2</p>", "internal_node_id": "0.0-172.0-8.0", "time_elapsed": 1371070, "key_press": -1, "trial_index": 234}, "uniqueid": "MTK1654:3Z4AIRP3C7KCKJC58TSBJEQQKXH1X6", "dateTime": 1516123280385}, {"current_trial": 235, "trialdata": {"rt": -1, "trial_type": "single-stim", "stimulus": "<p id=\"stim\">1</p>", "internal_node_id": "0.0-172.0-9.0", "time_elapsed": 1372071, "key_press": -1, "trial_index": 235}, "uniqueid": "MTK1654:3Z4AIRP3C7KCKJC58TSBJEQQKXH1X6", "dateTime": 1516123281386}, {"current_trial": 236, "trialdata": {"rt": -1, "trial_type": "single-stim", "stimulus": "<p id=\"stim\">+</p>", "internal_node_id": "0.0-173.0-0.0", "time_elapsed": 1373574, "key_press": -1, "type": "FIXATION", "trial_index": 236}, "uniqueid": "MTK1654:3Z4AIRP3C7KCKJC58TSBJEQQKXH1X6", "dateTime": 1516123282888}, {"current_trial": 237, "trialdata": {"rt": -1000, "trial_type": "single-audio", "word": "drink", "stimulus": "/static/audio/wordpool/DRINK.wav", "conditions": [24, 1600, "a", 24000], "internal_node_id": "0.0-174.0", "trial": 6, "time_elapsed": 1376211, "serialpos": 0, "key_press": -1, "wordID": 497, "type": "PRES_AUD", "trial_index": 237}, "uniqueid": "MTK1654:3Z4AIRP3C7KCKJC58TSBJEQQKXH1X6", "dateTime": 1516123285525}, {"current_trial": 238, "trialdata": {"rt": -1000, "trial_type": "single-audio", "word": "oyster", "stimulus": "/static/audio/wordpool/OYSTER.wav", "conditions": [24, 1600, "a", 24000], "internal_node_id": "0.0-175.0", "trial": 6, "time_elapsed": 1378977, "serialpos": 1, "key_press": -1, "wordID": 994, "type": "PRES_AUD", "trial_index": 238}, "uniqueid": "MTK1654:3Z4AIRP3C7KCKJC58TSBJEQQKXH1X6", "dateTime": 1516123288292}, {"current_trial": 239, "trialdata": {"rt": -1000, "trial_type": "single-audio", "word": "flag", "stimulus": "/static/audio/wordpool/FLAG.wav", "conditions": [24, 1600, "a", 24000], "internal_node_id": "0.0-176.0", "trial": 6, "time_elapsed": 1381662, "serialpos": 2, "key_press": -1, "wordID": 572, "type": "PRES_AUD", "trial_index": 239}, "uniqueid": "MTK1654:3Z4AIRP3C7KCKJC58TSBJEQQKXH1X6", "dateTime": 1516123290976}, {"current_trial": 240, "trialdata": {"rt": -1000, "trial_type": "single-audio", "word": "rebel", "stimulus": "/static/audio/wordpool/REBEL.wav", "conditions": [24, 1600, "a", 24000], "internal_node_id": "0.0-177.0", "trial": 6, "time_elapsed": 1384460, "serialpos": 3, "key_press": -1, "wordID": 1171, "type": "PRES_AUD", "trial_index": 240}, "uniqueid": "MTK1654:3Z4AIRP3C7KCKJC58TSBJEQQKXH1X6", "dateTime": 1516123293775}, {"current_trial": 241, "trialdata": {"rt": -1000, "trial_type": "single-audio", "word": "pebble", "stimulus": "/static/audio/wordpool/PEBBLE.wav", "conditions": [24, 1600, "a", 24000], "internal_node_id": "0.0-178.0", "trial": 6, "time_elapsed": 1386867, "serialpos": 4, "key_press": -1, "wordID": 1034, "type": "PRES_AUD", "trial_index": 241}, "uniqueid": "MTK1654:3Z4AIRP3C7KCKJC58TSBJEQQKXH1X6", "dateTime": 1516123296181}, {"current_trial": 242, "trialdata": {"rt": -1000, "trial_type": "single-audio", "word": "cod", "stimulus": "/static/audio/wordpool/COD.wav", "conditions": [24, 1600, "a", 24000], "internal_node_id": "0.0-179.0", "trial": 6, "time_elapsed": 1389273, "serialpos": 5, "key_press": -1, "wordID": 339, "type": "PRES_AUD", "trial_index": 242}, "uniqueid": "MTK1654:3Z4AIRP3C7KCKJC58TSBJEQQKXH1X6", "dateTime": 1516123298587}, {"current_trial": 243, "trialdata": {"rt": -1000, "trial_type": "single-audio", "word": "scallop", "stimulus": "/static/audio/wordpool/SCALLOP.wav", "conditions": [24, 1600, "a", 24000], "internal_node_id": "0.0-180.0", "trial": 6, "time_elapsed": 1392016, "serialpos": 6, "key_press": -1, "wordID": 1241, "type": "PRES_AUD", "trial_index": 243}, "uniqueid": "MTK1654:3Z4AIRP3C7KCKJC58TSBJEQQKXH1X6", "dateTime": 1516123301330}, {"current_trial": 244, "trialdata": {"rt": -1000, "trial_type": "single-audio", "word": "salmon", "stimulus": "/static/audio/wordpool/SALMON.wav", "conditions": [24, 1600, "a", 24000], "internal_node_id": "0.0-181.0", "trial": 6, "time_elapsed": 1394421, "serialpos": 7, "key_press": -1, "wordID": 1226, "type": "PRES_AUD", "trial_index": 244}, "uniqueid": "MTK1654:3Z4AIRP3C7KCKJC58TSBJEQQKXH1X6", "dateTime": 1516123303735}, {"current_trial": 245, "trialdata": {"rt": -1000, "trial_type": "single-audio", "word": "muffin", "stimulus": "/static/audio/wordpool/MUFFIN.wav", "conditions": [24, 1600, "a", 24000], "internal_node_id": "0.0-182.0", "trial": 6, "time_elapsed": 1396913, "serialpos": 8, "key_press": -1, "wordID": 928, "type": "PRES_AUD", "trial_index": 245}, "uniqueid": "MTK1654:3Z4AIRP3C7KCKJC58TSBJEQQKXH1X6", "dateTime": 1516123306227}, {"current_trial": 246, "trialdata": {"rt": -1000, "trial_type": "single-audio", "word": "luggage", "stimulus": "/static/audio/wordpool/LUGGAGE.wav", "conditions": [24, 1600, "a", 24000], "internal_node_id": "0.0-183.0", "trial": 6, "time_elapsed": 1399413, "serialpos": 9, "key_press": -1, "wordID": 846, "type": "PRES_AUD", "trial_index": 246}, "uniqueid": "MTK1654:3Z4AIRP3C7KCKJC58TSBJEQQKXH1X6", "dateTime": 1516123308727}, {"current_trial": 247, "trialdata": {"rt": -1000, "trial_type": "single-audio", "word": "pocket", "stimulus": "/static/audio/wordpool/POCKET.wav", "conditions": [24, 1600, "a", 24000], "internal_node_id": "0.0-184.0", "trial": 6, "time_elapsed": 1402075, "serialpos": 10, "key_press": -1, "wordID": 1092, "type": "PRES_AUD", "trial_index": 247}, "uniqueid": "MTK1654:3Z4AIRP3C7KCKJC58TSBJEQQKXH1X6", "dateTime": 1516123311389}, {"current_trial": 248, "trialdata": {"rt": -1000, "trial_type": "single-audio", "word": "lily", "stimulus": "/static/audio/wordpool/LILY.wav", "conditions": [24, 1600, "a", 24000], "internal_node_id": "0.0-185.0", "trial": 6, "time_elapsed": 1404680, "serialpos": 11, "key_press": -1, "wordID": 820, "type": "PRES_AUD", "trial_index": 248}, "uniqueid": "MTK1654:3Z4AIRP3C7KCKJC58TSBJEQQKXH1X6", "dateTime": 1516123313994}, {"current_trial": 249, "trialdata": {"rt": -1000, "trial_type": "single-audio", "word": "cabin", "stimulus": "/static/audio/wordpool/CABIN.wav", "conditions": [24, 1600, "a", 24000], "internal_node_id": "0.0-186.0", "trial": 6, "time_elapsed": 1407202, "serialpos": 12, "key_press": -1, "w