{"condition": 0, "counterbalance": 1800, "assignmentId": "3TS1AR6UQRL9VJ0MXF3YEHHWGN4F7O", "workerId": "MTK1287", "hitId": "3LVTFB9DE5PNSH32EWDK792J79HGQF", "currenttrial": 626, "bonus": 0, "data": [{"uniqueid": "MTK1287:3TS1AR6UQRL9VJ0MXF3YEHHWGN4F7O", "current_trial": 0, "dateTime": 1513536118931, "trialdata": {"rt": 1655, "key_press": 32, "type": "INSTRUCTIONS", "trial_type": "text", "trial_index": 0, "time_elapsed": 1663, "internal_node_id": "0.0-0.0"}}, {"uniqueid": "MTK1287:3TS1AR6UQRL9VJ0MXF3YEHHWGN4F7O", "current_trial": 1, "dateTime": 1513536132480, "trialdata": {"rt": 13545, "key_press": 32, "type": "INSTRUCTIONS", "trial_type": "text", "trial_index": 1, "time_elapsed": 15213, "internal_node_id": "0.0-1.0"}}, {"uniqueid": "MTK1287:3TS1AR6UQRL9VJ0MXF3YEHHWGN4F7O", "current_trial": 2, "dateTime": 1513536138166, "trialdata": {"rt": [5620], "responses": ["ocean"], "type": "AUDIO_TEST", "trial_type": "audio-test", "trial_index": 2, "time_elapsed": 20899, "internal_node_id": "0.0-2.0"}}, {"uniqueid": "MTK1287:3TS1AR6UQRL9VJ0MXF3YEHHWGN4F7O", "current_trial": 3, "dateTime": 1513536145044, "trialdata": {"rt": [6861], "responses": ["crystal"], "type": "AUDIO_TEST", "trial_type": "audio-test", "trial_index": 3, "time_elapsed": 27778, "internal_node_id": "0.0-3.0"}}, {"uniqueid": "MTK1287:3TS1AR6UQRL9VJ0MXF3YEHHWGN4F7O", "current_trial": 4, "dateTime": 1513536149767, "trialdata": {"rt": [4708], "responses": ["spice"], "type": "AUDIO_TEST", "trial_type": "audio-test", "trial_index": 4, "time_elapsed": 32501, "internal_node_id": "0.0-4.0"}}, {"uniqueid": "MTK1287:3TS1AR6UQRL9VJ0MXF3YEHHWGN4F7O", "current_trial": 5, "dateTime": 1513536171162, "trialdata": {"rt": 20637, "responses": "{\"Q0\":\"1 am\",\"Q1\":\"8am\",\"Q2\":\"4\\n4\"}", "type": "SLEEP_SURVEY", "trial_type": "survey-text", "trial_index": 5, "time_elapsed": 53896, "internal_node_id": "0.0-5.0"}}, {"uniqueid": "MTK1287:3TS1AR6UQRL9VJ0MXF3YEHHWGN4F7O", "current_trial": 6, "dateTime": 1513536217757, "trialdata": {"rt": 45591, "key_press": 32, "type": "INSTRUCTIONS", "trial_type": "text", "trial_index": 6, "time_elapsed": 100491, "internal_node_id": "0.0-6.0"}}, {"uniqueid": "MTK1287:3TS1AR6UQRL9VJ0MXF3YEHHWGN4F7O", "current_trial": 7, "dateTime": 1513536231779, "trialdata": {"rt": 13510, "key_press": 32, "type": "INSTRUCTIONS", "trial_type": "text", "trial_index": 7, "time_elapsed": 114513, "internal_node_id": "0.0-7.0"}}, {"uniqueid": "MTK1287:3TS1AR6UQRL9VJ0MXF3YEHHWGN4F7O", "current_trial": 8, "dateTime": 1513536243246, "trialdata": {"rt": 10918, "key_press": 32, "type": "INSTRUCTIONS", "trial_type": "text", "trial_index": 8, "time_elapsed": 125980, "internal_node_id": "0.0-8.0"}}, {"uniqueid": "MTK1287:3TS1AR6UQRL9VJ0MXF3YEHHWGN4F7O", "current_trial": 9, "dateTime": 1513536262260, "trialdata": {"rt": [4160, 7051, 10609, 12704, 15578], "responses": ["20", "15", "14", "14", "18"], "num1": [8, 4, 5, 2, 2, 6], "num2": [8, 7, 4, 8, 8, 4], "num3": [4, 4, 5, 4, 8, 7], "type": "DISTRACTOR", "conditions": [18, 1200, "v", 18000], "trial": 0, "trial_type": "math-distractor", "trial_index": 9, "time_elapsed": 144993, "internal_node_id": "0.0-9.0"}}, {"uniqueid": "MTK1287:3TS1AR6UQRL9VJ0MXF3YEHHWGN4F7O", "current_trial": 10, "dateTime": 1513536265288, "trialdata": {"rt": -1, "stimulus": "<p id=\"stim\">10</p>", "key_press": -1, "trial_type": "single-stim", "trial_index": 10, "time_elapsed": 148022, "internal_node_id": "0.0-10.0-0.0"}}, {"uniqueid": "MTK1287:3TS1AR6UQRL9VJ0MXF3YEHHWGN4F7O", "current_trial": 11, "dateTime": 1513536266291, "trialdata": {"rt": -1, "stimulus": "<p id=\"stim\">9</p>", "key_press": -1, "trial_type": "single-stim", "trial_index": 11, "time_elapsed": 149025, "internal_node_id": "0.0-10.0-1.0"}}, {"uniqueid": "MTK1287:3TS1AR6UQRL9VJ0MXF3YEHHWGN4F7O", "current_trial": 12, "dateTime": 1513536267293, "trialdata": {"rt": -1, "stimulus": "<p id=\"stim\">8</p>", "key_press": -1, "trial_type": "single-stim", "trial_index": 12, "time_elapsed": 150027, "internal_node_id": "0.0-10.0-2.0"}}, {"uniqueid": "MTK1287:3TS1AR6UQRL9VJ0MXF3YEHHWGN4F7O", "current_trial": 13, "dateTime": 1513536268296, "trialdata": {"rt": -1, "stimulus": "<p id=\"stim\">7</p>", "key_press": -1, "trial_type": "single-stim", "trial_index": 13, "time_elapsed": 151029, "internal_node_id": "0.0-10.0-3.0"}}, {"uniqueid": "MTK1287:3TS1AR6UQRL9VJ0MXF3YEHHWGN4F7O", "current_trial": 14, "dateTime": 1513536269299, "trialdata": {"rt": -1, "stimulus": "<p id=\"stim\">6</p>", "key_press": -1, "trial_type": "single-stim", "trial_index": 14, "time_elapsed": 152032, "internal_node_id": "0.0-10.0-4.0"}}, {"uniqueid": "MTK1287:3TS1AR6UQRL9VJ0MXF3YEHHWGN4F7O", "current_trial": 15, "dateTime": 1513536270302, "trialdata": {"rt": -1, "stimulus": "<p id=\"stim\">5</p>", "key_press": -1, "trial_type": "single-stim", "trial_index": 15, "time_elapsed": 153035, "internal_node_id": "0.0-10.0-5.0"}}, {"uniqueid": "MTK1287:3TS1AR6UQRL9VJ0MXF3YEHHWGN4F7O", "current_trial": 16, "dateTime": 1513536271305, "trialdata": {"rt": -1, "stimulus": "<p id=\"stim\">4</p>", "key_press": -1, "trial_type": "single-stim", "trial_index": 16, "time_elapsed": 154039, "internal_node_id": "0.0-10.0-6.0"}}, {"uniqueid": "MTK1287:3TS1AR6UQRL9VJ0MXF3YEHHWGN4F7O", "current_trial": 17, "dateTime": 1513536272310, "trialdata": {"rt": -1, "stimulus": "<p id=\"stim\">3</p>", "key_press": -1, "trial_type": "single-stim", "trial_index": 17, "time_elapsed": 155043, "internal_node_id": "0.0-10.0-7.0"}}, {"uniqueid": "MTK1287:3TS1AR6UQRL9VJ0MXF3YEHHWGN4F7O", "current_trial": 18, "dateTime": 1513536273312, "trialdata": {"rt": -1, "stimulus": "<p id=\"stim\">2</p>", "key_press": -1, "trial_type": "single-stim", "trial_index": 18, "time_elapsed": 156046, "internal_node_id": "0.0-10.0-8.0"}}, {"uniqueid": "MTK1287:3TS1AR6UQRL9VJ0MXF3YEHHWGN4F7O", "current_trial": 19, "dateTime": 1513536274314, "trialdata": {"rt": -1, "stimulus": "<p id=\"stim\">1</p>", "key_press": -1, "trial_type": "single-stim", "trial_index": 19, "time_elapsed": 157048, "internal_node_id": "0.0-10.0-9.0"}}, {"uniqueid": "MTK1287:3TS1AR6UQRL9VJ0MXF3YEHHWGN4F7O", "current_trial": 20, "dateTime": 1513536275817, "trialdata": {"rt": -1, "stimulus": "<p id=\"stim\">+</p>", "key_press": -1, "type": "FIXATION", "trial_type": "single-stim", "trial_index": 20, "time_elapsed": 158551, "internal_node_id": "0.0-11.0-0.0"}}, {"uniqueid": "MTK1287:3TS1AR6UQRL9VJ0MXF3YEHHWGN4F7O", "current_trial": 21, "dateTime": 1513536277020, "trialdata": {"rt": -1, "stimulus": "<p id=\"stim\">SLUG</p>", "key_press": -1, "type": "PRES_VIS", "word": "slug", "wordID": 1328, "conditions": [18, 1200, "v", 18000], "trial": 0, "serialpos": 0, "trial_type": "single-stim", "trial_index": 21, "time_elapsed": 159753, "internal_node_id": "0.0-12.0"}}, {"uniqueid": "MTK1287:3TS1AR6UQRL9VJ0MXF3YEHHWGN4F7O", "current_trial": 22, "dateTime": 1513536279367, "trialdata": {"rt": -1, "stimulus": "<p id=\"stim\">GARDEN</p>", "key_press": -1, "type": "PRES_VIS", "word": "garden", "wordID": 622, "conditions": [18, 1200, "v", 18000], "trial": 0, "serialpos": 1, "trial_type": "single-stim", "trial_index": 22, "time_elapsed": 162101, "internal_node_id": "0.0-13.0"}}, {"uniqueid": "MTK1287:3TS1AR6UQRL9VJ0MXF3YEHHWGN4F7O", "current_trial": 23, "dateTime": 1513536281739, "trialdata": {"rt": -1, "stimulus": "<p id=\"stim\">GOBLIN</p>", "key_press": -1, "type": "PRES_VIS", "word": "goblin", "wordID": 644, "conditions": [18, 1200, "v", 18000], "trial": 0, "serialpos": 2, "trial_type": "single-stim", "trial_index": 23, "time_elapsed": 164473, "internal_node_id": "0.0-14.0"}}, {"uniqueid": "MTK1287:3TS1AR6UQRL9VJ0MXF3YEHHWGN4F7O", "current_trial": 24, "dateTime": 1513536283852, "trialdata": {"rt": -1, "stimulus": "<p id=\"stim\">SWAMP</p>", "key_press": -1, "type": "PRES_VIS", "word": "swamp", "wordID": 1415, "conditions": [18, 1200, "v", 18000], "trial": 0, "serialpos": 3, "trial_type": "single-stim", "trial_index": 24, "time_elapsed": 166586, "internal_node_id": "0.0-15.0"}}, {"uniqueid": "MTK1287:3TS1AR6UQRL9VJ0MXF3YEHHWGN4F7O", "current_trial": 25, "dateTime": 1513536286071, "trialdata": {"rt": -1, "stimulus": "<p id=\"stim\">ICING</p>", "key_press": -1, "type": "PRES_VIS", "word": "icing", "wordID": 731, "conditions": [18, 1200, "v", 18000], "trial": 0, "serialpos": 4, "trial_type": "single-stim", "trial_index": 25, "time_elapsed": 168805, "internal_node_id": "0.0-16.0"}}, {"uniqueid": "MTK1287:3TS1AR6UQRL9VJ0MXF3YEHHWGN4F7O", "current_trial": 26, "dateTime": 1513536288296, "trialdata": {"rt": -1, "stimulus": "<p id=\"stim\">LOFT</p>", "key_press": -1, "type": "PRES_VIS", "word": "loft", "wordID": 839, "conditions": [18, 1200, "v", 18000], "trial": 0, "serialpos": 5, "trial_type": "single-stim", "trial_index": 26, "time_elapsed": 171030, "internal_node_id": "0.0-17.0"}}, {"uniqueid": "MTK1287:3TS1AR6UQRL9VJ0MXF3YEHHWGN4F7O", "current_trial": 27, "dateTime": 1513536290349, "trialdata": {"rt": -1, "stimulus": "<p id=\"stim\">LEOPARD</p>", "key_press": -1, "type": "PRES_VIS", "word": "leopard", "wordID": 811, "conditions": [18, 1200, "v", 18000], "trial": 0, "serialpos": 6, "trial_type": "single-stim", "trial_index": 27, "time_elapsed": 173083, "internal_node_id": "0.0-18.0"}}, {"uniqueid": "MTK1287:3TS1AR6UQRL9VJ0MXF3YEHHWGN4F7O", "current_trial": 28, "dateTime": 1513536292485, "trialdata": {"rt": -1, "stimulus": "<p id=\"stim\">MARKET</p>", "key_press": -1, "type": "PRES_VIS", "word": "market", "wordID": 870, "conditions": [18, 1200, "v", 18000], "trial": 0, "serialpos": 7, "trial_type": "single-stim", "trial_index": 28, "time_elapsed": 175218, "internal_node_id": "0.0-19.0"}}, {"uniqueid": "MTK1287:3TS1AR6UQRL9VJ0MXF3YEHHWGN4F7O", "current_trial": 29, "dateTime": 1513536294682, "trialdata": {"rt": -1, "stimulus": "<p id=\"stim\">BLUEPRINT</p>", "key_press": -1, "type": "PRES_VIS", "word": "blueprint", "wordID": 141, "conditions": [18, 1200, "v", 18000], "trial": 0, "serialpos": 8, "trial_type": "single-stim", "trial_index": 29, "time_elapsed": 177415, "internal_node_id": "0.0-20.0"}}, {"uniqueid": "MTK1287:3TS1AR6UQRL9VJ0MXF3YEHHWGN4F7O", "current_trial": 30, "dateTime": 1513536297024, "trialdata": {"rt": -1, "stimulus": "<p id=\"stim\">VALVE</p>", "key_press": -1, "type": "PRES_VIS", "word": "valve", "wordID": 1545, "conditions": [18, 1200, "v", 18000], "trial": 0, "serialpos": 9, "trial_type": "single-stim", "trial_index": 30, "time_elapsed": 179758, "internal_node_id": "0.0-21.0"}}, {"uniqueid": "MTK1287:3TS1AR6UQRL9VJ0MXF3YEHHWGN4F7O", "current_trial": 31, "dateTime": 1513536299031, "trialdata": {"rt": -1, "stimulus": "<p id=\"stim\">GANGSTER</p>", "key_press": -1, "type": "PRES_VIS", "word": "gangster", "wordID": 619, "conditions": [18, 1200, "v", 18000], "trial": 0, "serialpos": 10, "trial_type": "single-stim", "trial_index": 31, "time_elapsed": 181765, "internal_node_id": "0.0-22.0"}}, {"uniqueid": "MTK1287:3TS1AR6UQRL9VJ0MXF3YEHHWGN4F7O", "current_trial": 32, "dateTime": 1513536301239, "trialdata": {"rt": -1, "stimulus": "<p id=\"stim\">GROUND</p>", "key_press": -1, "type": "PRES_VIS", "word": "ground", "wordID": 665, "conditions": [18, 1200, "v", 18000], "trial": 0, "serialpos": 11, "trial_type": "single-stim", "trial_index": 32, "time_elapsed": 183973, "internal_node_id": "0.0-23.0"}}, {"uniqueid": "MTK1287:3TS1AR6UQRL9VJ0MXF3YEHHWGN4F7O", "current_trial": 33, "dateTime": 1513536303345, "trialdata": {"rt": -1, "stimulus": "<p id=\"stim\">TRANSPLANT</p>", "key_press": -1, "type": "PRES_VIS", "word": "transplant", "wordID": 1495, "conditions": [18, 1200, "v", 18000], "trial": 0, "serialpos": 12, "trial_type": "single-stim", "trial_index": 33, "time_elapsed": 186079, "internal_node_id": "0.0-24.0"}}, {"uniqueid": "MTK1287:3TS1AR6UQRL9VJ0MXF3YEHHWGN4F7O", "current_trial": 34, "dateTime": 1513536305519, "trialdata": {"rt": -1, "stimulus": "<p id=\"stim\">PUPPY</p>", "key_press": -1, "type": "PRES_VIS", "word": "puppy", "wordID": 1143, "conditions": [18, 1200, "v", 18000], "trial": 0, "serialpos": 13, "trial_type": "single-stim", "trial_index": 34, "time_elapsed": 188253, "internal_node_id": "0.0-25.0"}}, {"uniqueid": "MTK1287:3TS1AR6UQRL9VJ0MXF3YEHHWGN4F7O", "current_trial": 35, "dateTime": 1513536307617, "trialdata": {"rt": -1, "stimulus": "<p id=\"stim\">PORK</p>", "key_press": -1, "type": "PRES_VIS", "word": "pork", "wordID": 1107, "conditions": [18, 1200, "v", 18000], "trial": 0, "serialpos": 14, "trial_type": "single-stim", "trial_index": 35, "time_elapsed": 190350, "internal_node_id": "0.0-26.0"}}, {"uniqueid": "MTK1287:3TS1AR6UQRL9VJ0MXF3YEHHWGN4F7O", "current_trial": 36, "dateTime": 1513536309688, "trialdata": {"rt": -1, "stimulus": "<p id=\"stim\">PICNIC</p>", "key_press": -1, "type": "PRES_VIS", "word": "picnic", "wordID": 1059, "conditions": [18, 1200, "v", 18000], "trial": 0, "serialpos": 15, "trial_type": "single-stim", "trial_index": 36, "time_elapsed": 192422, "internal_node_id": "0.0-27.0"}}, {"uniqueid": "MTK1287:3TS1AR6UQRL9VJ0MXF3YEHHWGN4F7O", "current_trial": 37, "dateTime": 1513536311787, "trialdata": {"rt": -1, "stimulus": "<p id=\"stim\">PLAYGROUND</p>", "key_press": -1, "type": "PRES_VIS", "word": "playground", "wordID": 1086, "conditions": [18, 1200, "v", 18000], "trial": 0, "serialpos": 16, "trial_type": "single-stim", "trial_index": 37, "time_elapsed": 194520, "internal_node_id": "0.0-28.0"}}, {"uniqueid": "MTK1287:3TS1AR6UQRL9VJ0MXF3YEHHWGN4F7O", "current_trial": 38, "dateTime": 1513536313896, "trialdata": {"rt": -1, "stimulus": "<p id=\"stim\">SLIME</p>", "key_press": -1, "type": "PRES_VIS", "word": "slime", "wordID": 1326, "conditions": [18, 1200, "v", 18000], "trial": 0, "serialpos": 17, "trial_type": "single-stim", "trial_index": 38, "time_elapsed": 196629, "internal_node_id": "0.0-29.0"}}, {"uniqueid": "MTK1287:3TS1AR6UQRL9VJ0MXF3YEHHWGN4F7O", "current_trial": 39, "dateTime": 1513536316159, "trialdata": {"rt": -1, "stimulus": "", "key_press": -1, "type": "PRE_RECALL_DELAY", "trial_type": "single-stim", "trial_index": 39, "time_elapsed": 198892, "internal_node_id": "0.0-30.0-0.0"}}, {"uniqueid": "MTK1287:3TS1AR6UQRL9VJ0MXF3YEHHWGN4F7O", "current_trial": 40, "dateTime": 1513536316700, "trialdata": {"rt": -1000, "stimulus": "/static/audio/400Hz.wav", "key_press": -1, "type": "PRE_RECALL_ALERT", "trial_type": "single-audio", "trial_index": 40, "time_elapsed": 199434, "internal_node_id": "0.0-31.0"}}, {"uniqueid": "MTK1287:3TS1AR6UQRL9VJ0MXF3YEHHWGN4F7O", "current_trial": 41, "dateTime": 1513536376720, "trialdata": {"rt": [5897, 7774, 9565, 10703, 11948, 13631, 15550, 21458, 22559, 31467, 53333, 55099], "recwords": ["garden", "ground", "garden", "swamp", "slug", "pork", "playground", "slime", "loft", "valve", "swamp", "slug"], "type": "FREE_RECALL", "conditions": [18, 1200, "v", 18000], "trial": 0, "trial_type": "free-recall", "trial_index": 41, "time_elapsed": 259444, "internal_node_id": "0.0-32.0-0.0"}}, {"uniqueid": "MTK1287:3TS1AR6UQRL9VJ0MXF3YEHHWGN4F7O", "current_trial": 42, "dateTime": 1513536383734, "trialdata": {"rt": 5010, "key_press": 32, "type": "INSTRUCTIONS", "trial_type": "text", "trial_index": 42, "time_elapsed": 266468, "internal_node_id": "0.0-33.0"}}, {"uniqueid": "MTK1287:3TS1AR6UQRL9VJ0MXF3YEHHWGN4F7O", "current_trial": 43, "dateTime": 1513536403764, "trialdata": {"rt": [3320, 5413, 7272, 10274, 13905], "responses": ["10", "18", "14", "15", "15"], "num1": [3, 1, 1, 6, 4, 2], "num2": [2, 8, 4, 1, 4, 6], "num3": [5, 9, 9, 8, 7, 7], "type": "DISTRACTOR", "conditions": [18, 1200, "a", 18000], "trial": 1, "trial_type": "math-distractor", "trial_index": 43, "time_elapsed": 286497, "internal_node_id": "0.0-34.0"}}, {"uniqueid": "MTK1287:3TS1AR6UQRL9VJ0MXF3YEHHWGN4F7O", "current_trial": 44, "dateTime": 1513536406769, "trialdata": {"rt": -1, "stimulus": "<p id=\"stim\">10</p>", "key_press": -1, "trial_type": "single-stim", "trial_index": 44, "time_elapsed": 289502, "internal_node_id": "0.0-35.0-0.0"}}, {"uniqueid": "MTK1287:3TS1AR6UQRL9VJ0MXF3YEHHWGN4F7O", "current_trial": 45, "dateTime": 1513536407788, "trialdata": {"rt": -1, "stimulus": "<p id=\"stim\">9</p>", "key_press": -1, "trial_type": "single-stim", "trial_index": 45, "time_elapsed": 290521, "internal_node_id": "0.0-35.0-1.0"}}, {"uniqueid": "MTK1287:3TS1AR6UQRL9VJ0MXF3YEHHWGN4F7O", "current_trial": 46, "dateTime": 1513536408790, "trialdata": {"rt": -1, "stimulus": "<p id=\"stim\">8</p>", "key_press": -1, "trial_type": "single-stim", "trial_index": 46, "time_elapsed": 291524, "internal_node_id": "0.0-35.0-2.0"}}, {"uniqueid": "MTK1287:3TS1AR6UQRL9VJ0MXF3YEHHWGN4F7O", "current_trial": 47, "dateTime": 1513536409792, "trialdata": {"rt": -1, "stimulus": "<p id=\"stim\">7</p>", "key_press": -1, "trial_type": "single-stim", "trial_index": 47, "time_elapsed": 292526, "internal_node_id": "0.0-35.0-3.0"}}, {"uniqueid": "MTK1287:3TS1AR6UQRL9VJ0MXF3YEHHWGN4F7O", "current_trial": 48, "dateTime": 1513536410795, "trialdata": {"rt": -1, "stimulus": "<p id=\"stim\">6</p>", "key_press": -1, "trial_type": "single-stim", "trial_index": 48, "time_elapsed": 293528, "internal_node_id": "0.0-35.0-4.0"}}, {"uniqueid": "MTK1287:3TS1AR6UQRL9VJ0MXF3YEHHWGN4F7O", "current_trial": 49, "dateTime": 1513536411815, "trialdata": {"rt": -1, "stimulus": "<p id=\"stim\">5</p>", "key_press": -1, "trial_type": "single-stim", "trial_index": 49, "time_elapsed": 294549, "internal_node_id": "0.0-35.0-5.0"}}, {"uniqueid": "MTK1287:3TS1AR6UQRL9VJ0MXF3YEHHWGN4F7O", "current_trial": 50, "dateTime": 1513536412859, "trialdata": {"rt": -1, "stimulus": "<p id=\"stim\">4</p>", "key_press": -1, "trial_type": "single-stim", "trial_index": 50, "time_elapsed": 295592, "internal_node_id": "0.0-35.0-6.0"}}, {"uniqueid": "MTK1287:3TS1AR6UQRL9VJ0MXF3YEHHWGN4F7O", "current_trial": 51, "dateTime": 1513536413879, "trialdata": {"rt": -1, "stimulus": "<p id=\"stim\">3</p>", "key_press": -1, "trial_type": "single-stim", "trial_index": 51, "time_elapsed": 296612, "internal_node_id": "0.0-35.0-7.0"}}, {"uniqueid": "MTK1287:3TS1AR6UQRL9VJ0MXF3YEHHWGN4F7O", "current_trial": 52, "dateTime": 1513536414881, "trialdata": {"rt": -1, "stimulus": "<p id=\"stim\">2</p>", "key_press": -1, "trial_type": "single-stim", "trial_index": 52, "time_elapsed": 297615, "internal_node_id": "0.0-35.0-8.0"}}, {"uniqueid": "MTK1287:3TS1AR6UQRL9VJ0MXF3YEHHWGN4F7O", "current_trial": 53, "dateTime": 1513536415884, "trialdata": {"rt": -1, "stimulus": "<p id=\"stim\">1</p>", "key_press": -1, "trial_type": "single-stim", "trial_index": 53, "time_elapsed": 298618, "internal_node_id": "0.0-35.0-9.0"}}, {"uniqueid": "MTK1287:3TS1AR6UQRL9VJ0MXF3YEHHWGN4F7O", "current_trial": 54, "dateTime": 1513536417386, "trialdata": {"rt": -1, "stimulus": "<p id=\"stim\">+</p>", "key_press": -1, "type": "FIXATION", "trial_type": "single-stim", "trial_index": 54, "time_elapsed": 300120, "internal_node_id": "0.0-36.0-0.0"}}, {"uniqueid": "MTK1287:3TS1AR6UQRL9VJ0MXF3YEHHWGN4F7O", "current_trial": 55, "dateTime": 1513536419483, "trialdata": {"rt": -1000, "stimulus": "/static/audio/wordpool/LADY.wav", "key_press": -1, "type": "PRES_AUD", "word": "lady", "wordID": 793, "conditions": [18, 1200, "a", 18000], "trial": 1, "serialpos": 0, "trial_type": "single-audio", "trial_index": 55, "time_elapsed": 302217, "internal_node_id": "0.0-37.0"}}, {"uniqueid": "MTK1287:3TS1AR6UQRL9VJ0MXF3YEHHWGN4F7O", "current_trial": 56, "dateTime": 1513536421666, "trialdata": {"rt": -1000, "stimulus": "/static/audio/wordpool/EAGLE.wav", "key_press": -1, "type": "PRES_AUD", "word": "eagle", "wordID": 511, "conditions": [18, 1200, "a", 18000], "trial": 1, "serialpos": 1, "trial_type": "single-audio", "trial_index": 56, "time_elapsed": 304399, "internal_node_id": "0.0-38.0"}}, {"uniqueid": "MTK1287:3TS1AR6UQRL9VJ0MXF3YEHHWGN4F7O", "current_trial": 57, "dateTime": 1513536423758, "trialdata": {"rt": -1000, "stimulus": "/static/audio/wordpool/LAVA.wav", "key_press": -1, "type": "PRES_AUD", "word": "lava", "wordID": 803, "conditions": [18, 1200, "a", 18000], "trial": 1, "serialpos": 2, "trial_type": "single-audio", "trial_index": 57, "time_elapsed": 306492, "internal_node_id": "0.0-39.0"}}, {"uniqueid": "MTK1287:3TS1AR6UQRL9VJ0MXF3YEHHWGN4F7O", "current_trial": 58, "dateTime": 1513536425895, "trialdata": {"rt": -1000, "stimulus": "/static/audio/wordpool/GUITAR.wav", "key_press": -1, "type": "PRES_AUD", "word": "guitar", "wordID": 669, "conditions": [18, 1200, "a", 18000], "trial": 1, "serialpos": 3, "trial_type": "single-audio", "trial_index": 58, "time_elapsed": 308629, "internal_node_id": "0.0-40.0"}}, {"uniqueid": "MTK1287:3TS1AR6UQRL9VJ0MXF3YEHHWGN4F7O", "current_trial": 59, "dateTime": 1513536428026, "trialdata": {"rt": -1000, "stimulus": "/static/audio/wordpool/WARDROBE.wav", "key_press": -1, "type": "PRES_AUD", "word": "wardrobe", "wordID": 1586, "conditions": [18, 1200, "a", 18000], "trial": 1, "serialpos": 4, "trial_type": "single-audio", "trial_index": 59, "time_elapsed": 310759, "internal_node_id": "0.0-41.0"}}, {"uniqueid": "MTK1287:3TS1AR6UQRL9VJ0MXF3YEHHWGN4F7O", "current_trial": 60, "dateTime": 1513536430338, "trialdata": {"rt": -1000, "stimulus": "/static/audio/wordpool/SHOULDER.wav", "key_press": -1, "type": "PRES_AUD", "word": "shoulder", "wordID": 1293, "conditions": [18, 1200, "a", 18000], "trial": 1, "serialpos": 5, "trial_type": "single-audio", "trial_index": 60, "time_elapsed": 313072, "internal_node_id": "0.0-42.0"}}, {"uniqueid": "MTK1287:3TS1AR6UQRL9VJ0MXF3YEHHWGN4F7O", "current_trial": 61, "dateTime": 1513536432586, "trialdata": {"rt": -1000, "stimulus": "/static/audio/wordpool/PANTHER.wav", "key_press": -1, "type": "PRES_AUD", "word": "panther", "wordID": 1008, "conditions": [18, 1200, "a", 18000], "trial": 1, "serialpos": 6, "trial_type": "single-audio", "trial_index": 61, "time_elapsed": 315320, "internal_node_id": "0.0-43.0"}}, {"uniqueid": "MTK1287:3TS1AR6UQRL9VJ0MXF3YEHHWGN4F7O", "current_trial": 62, "dateTime": 1513536434869, "trialdata": {"rt": -1000, "stimulus": "/static/audio/wordpool/WHISTLE.wav", "key_press": -1, "type": "PRES_AUD", "word": "whistle", "wordID": 1605, "conditions": [18, 1200, "a", 18000], "trial": 1, "serialpos": 7, "trial_type": "single-audio", "trial_index": 62, "time_elapsed": 317603, "internal_node_id": "0.0-44.0"}}, {"uniqueid": "MTK1287:3TS1AR6UQRL9VJ0MXF3YEHHWGN4F7O", "current_trial": 63, "dateTime": 1513536437258, "trialdata": {"rt": -1000, "stimulus": "/static/audio/wordpool/LASER.wav", "key_press": -1, "type": "PRES_AUD", "word": "laser", "wordID": 800, "conditions": [18, 1200, "a", 18000], "trial": 1, "serialpos": 8, "trial_type": "single-audio", "trial_index": 63, "time_elapsed": 319991, "internal_node_id": "0.0-45.0"}}, {"uniqueid": "MTK1287:3TS1AR6UQRL9VJ0MXF3YEHHWGN4F7O", "current_trial": 64, "dateTime": 1513536439480, "trialdata": {"rt": -1000, "stimulus": "/static/audio/wordpool/SPACE.wav", "key_press": -1, "type": "PRES_AUD", "word": "space", "wordID": 1344, "conditions": [18, 1200, "a", 18000], "trial": 1, "serialpos": 9, "trial_type": "single-audio", "trial_index": 64, "time_elapsed": 322214, "internal_node_id": "0.0-46.0"}}, {"uniqueid": "MTK1287:3TS1AR6UQRL9VJ0MXF3YEHHWGN4F7O", "current_trial": 65, "dateTime": 1513536441635, "trialdata": {"rt": -1000, "stimulus": "/static/audio/wordpool/STALLION.wav", "key_press": -1, "type": "PRES_AUD", "word": "stallion", "wordID": 1368, "conditions": [18, 1200, "a", 18000], "trial": 1, "serialpos": 10, "trial_type": "single-audio", "trial_index": 65, "time_elapsed": 324369, "internal_node_id": "0.0-47.0"}}, {"uniqueid": "MTK1287:3TS1AR6UQRL9VJ0MXF3YEHHWGN4F7O", "current_trial": 66, "dateTime": 1513536443757, "trialdata": {"rt": -1000, "stimulus": "/static/audio/wordpool/FRUIT.wav", "key_press": -1, "type": "PRES_AUD", "word": "fruit", "wordID": 609, "conditions": [18, 1200, "a", 18000], "trial": 1, "serialpos": 11, "trial_type": "single-audio", "trial_index": 66, "time_elapsed": 326490, "internal_node_id": "0.0-48.0"}}, {"uniqueid": "MTK1287:3TS1AR6UQRL9VJ0MXF3YEHHWGN4F7O", "current_trial": 67, "dateTime": 1513536446120, "trialdata": {"rt": -1000, "stimulus": "/static/audio/wordpool/DANDRUFF.wav", "key_press": -1, "type": "PRES_AUD", "word": "dandruff", "wordID": 438, "conditions": [18, 1200, "a", 18000], "trial": 1, "serialpos": 12, "trial_type": "single-audio", "trial_index": 67, "time_elapsed": 328853, "internal_node_id": "0.0-49.0"}}, {"uniqueid": "MTK1287:3TS1AR6UQRL9VJ0MXF3YEHHWGN4F7O", "current_trial": 68, "dateTime": 1513536448218, "trialdata": {"rt": -1000, "stimulus": "/static/audio/wordpool/BRICK.wav", "key_press": -1, "type": "PRES_AUD", "word": "brick", "wordID": 171, "conditions": [18, 1200, "a", 18000], "trial": 1, "serialpos": 13, "trial_type": "single-audio", "trial_index": 68, "time_elapsed": 330952, "internal_node_id": "0.0-50.0"}}, {"uniqueid": "MTK1287:3TS1AR6UQRL9VJ0MXF3YEHHWGN4F7O", "current_trial": 69, "dateTime": 1513536450554, "trialdata": {"rt": -1000, "stimulus": "/static/audio/wordpool/BARLEY.wav", "key_press": -1, "type": "PRES_AUD", "word": "barley", "wordID": 87, "conditions": [18, 1200, "a", 18000], "trial": 1, "serialpos": 14, "trial_type": "single-audio", "trial_index": 69, "time_elapsed": 333287, "internal_node_id": "0.0-51.0"}}, {"uniqueid": "MTK1287:3TS1AR6UQRL9VJ0MXF3YEHHWGN4F7O", "current_trial": 70, "dateTime": 1513536452864, "trialdata": {"rt": -1000, "stimulus": "/static/audio/wordpool/PARENT.wav", "key_press": -1, "type": "PRES_AUD", "word": "parent", "wordID": 1012, "conditions": [18, 1200, "a", 18000], "trial": 1, "serialpos": 15, "trial_type": "single-audio", "trial_index": 70, "time_elapsed": 335598, "internal_node_id": "0.0-52.0"}}, {"uniqueid": "MTK1287:3TS1AR6UQRL9VJ0MXF3YEHHWGN4F7O", "current_trial": 71, "dateTime": 1513536454874, "trialdata": {"rt": -1000, "stimulus": "/static/audio/wordpool/COD.wav", "key_press": -1, "type": "PRES_AUD", "word": "cod", "wordID": 339, "conditions": [18, 1200, "a", 18000], "trial": 1, "serialpos": 16, "trial_type": "single-audio", "trial_index": 71, "time_elapsed": 337608, "internal_node_id": "0.0-53.0"}}, {"uniqueid": "MTK1287:3TS1AR6UQRL9VJ0MXF3YEHHWGN4F7O", "current_trial": 72, "dateTime": 1513536456953, "trialdata": {"rt": -1000, "stimulus": "/static/audio/wordpool/DINER.wav", "key_press": -1, "type": "PRES_AUD", "word": "diner", "wordID": 466, "conditions": [18, 1200, "a", 18000], "trial": 1, "serialpos": 17, "trial_type": "single-audio", "trial_index": 72, "time_elapsed": 339687, "internal_node_id": "0.0-54.0"}}, {"uniqueid": "MTK1287:3TS1AR6UQRL9VJ0MXF3YEHHWGN4F7O", "current_trial": 73, "dateTime": 1513536458214, "trialdata": {"rt": -1, "stimulus": "", "key_press": -1, "type": "PRE_RECALL_DELAY", "trial_type": "single-stim", "trial_index": 73, "time_elapsed": 340948, "internal_node_id": "0.0-55.0-0.0"}}, {"uniqueid": "MTK1287:3TS1AR6UQRL9VJ0MXF3YEHHWGN4F7O", "current_trial": 74, "dateTime": 1513536458717, "trialdata": {"rt": -1000, "stimulus": "/static/audio/400Hz.wav", "key_press": -1, "type": "PRE_RECALL_ALERT", "trial_type": "single-audio", "trial_index": 74, "time_elapsed": 341450, "internal_node_id": "0.0-56.0"}}, {"uniqueid": "MTK1287:3TS1AR6UQRL9VJ0MXF3YEHHWGN4F7O", "current_trial": 75, "dateTime": 1513536518731, "trialdata": {"rt": [3766, 6188, 8743, 11576, 16002, 18486, 22626, 25067, 27920, 30794, 34786, 38788, 50485], "recwords": ["lady", "eagle", "lava", "fruit", "space", "laser", "whistle", "diner", "parent", "guitar", "brick", "shoulder", "wardrobe"], "type": "FREE_RECALL", "conditions": [18, 1200, "a", 18000], "trial": 1, "trial_type": "free-recall", "trial_index": 75, "time_elapsed": 401459, "internal_node_id": "0.0-57.0-0.0"}}, {"uniqueid": "MTK1287:3TS1AR6UQRL9VJ0MXF3YEHHWGN4F7O", "current_trial": 76, "dateTime": 1513536524906, "trialdata": {"rt": 4153, "key_press": 32, "type": "INSTRUCTIONS", "trial_type": "text", "trial_index": 76, "time_elapsed": 407629, "internal_node_id": "0.0-58.0"}}, {"uniqueid": "MTK1287:3TS1AR6UQRL9VJ0MXF3YEHHWGN4F7O", "current_trial": 77, "dateTime": 1513536549916, "trialdata": {"rt": [4447, 7897, 10243, 13296, 16972, 18733, 20451], "responses": ["18", "19", "9", "16", "24", "13", "12"], "num1": [9, 8, 1, 2, 6, 2, 1, 8], "num2": [3, 3, 1, 8, 6, 8, 2, 9], "num3": [6, 8, 7, 6, 8, 3, 9, 7], "type": "DISTRACTOR", "conditions": [12, 800, "a", 24000], "trial": 2, "trial_type": "math-distractor", "trial_index": 77, "time_elapsed": 432650, "internal_node_id": "0.0-59.0"}}, {"uniqueid": "MTK1287:3TS1AR6UQRL9VJ0MXF3YEHHWGN4F7O", "current_trial": 78, "dateTime": 1513536552919, "trialdata": {"rt": -1, "stimulus": "<p id=\"stim\">10</p>", "key_press": -1, "trial_type": "single-stim", "trial_index": 78, "time_elapsed": 435653, "internal_node_id": "0.0-60.0-0.0"}}, {"uniqueid": "MTK1287:3TS1AR6UQRL9VJ0MXF3YEHHWGN4F7O", "current_trial": 79, "dateTime": 1513536553921, "trialdata": {"rt": -1, "stimulus": "<p id=\"stim\">9</p>", "key_press": -1, "trial_type": "single-stim", "trial_index": 79, "time_elapsed": 436655, "internal_node_id": "0.0-60.0-1.0"}}, {"uniqueid": "MTK1287:3TS1AR6UQRL9VJ0MXF3YEHHWGN4F7O", "current_trial": 80, "dateTime": 1513536554926, "trialdata": {"rt": -1, "stimulus": "<p id=\"stim\">8</p>", "key_press": -1, "trial_type": "single-stim", "trial_index": 80, "time_elapsed": 437659, "internal_node_id": "0.0-60.0-2.0"}}, {"uniqueid": "MTK1287:3TS1AR6UQRL9VJ0MXF3YEHHWGN4F7O", "current_trial": 81, "dateTime": 1513536555928, "trialdata": {"rt": -1, "stimulus": "<p id=\"stim\">7</p>", "key_press": -1, "trial_type": "single-stim", "trial_index": 81, "time_elapsed": 438662, "internal_node_id": "0.0-60.0-3.0"}}, {"uniqueid": "MTK1287:3TS1AR6UQRL9VJ0MXF3YEHHWGN4F7O", "current_trial": 82, "dateTime": 1513536556931, "trialdata": {"rt": -1, "stimulus": "<p id=\"stim\">6</p>", "key_press": -1, "trial_type": "single-stim", "trial_index": 82, "time_elapsed": 439664, "internal_node_id": "0.0-60.0-4.0"}}, {"uniqueid": "MTK1287:3TS1AR6UQRL9VJ0MXF3YEHHWGN4F7O", "current_trial": 83, "dateTime": 1513536557934, "trialdata": {"rt": -1, "stimulus": "<p id=\"stim\">5</p>", "key_press": -1, "trial_type": "single-stim", "trial_index": 83, "time_elapsed": 440668, "internal_node_id": "0.0-60.0-5.0"}}, {"uniqueid": "MTK1287:3TS1AR6UQRL9VJ0MXF3YEHHWGN4F7O", "current_trial": 84, "dateTime": 1513536558937, "trialdata": {"rt": -1, "stimulus": "<p id=\"stim\">4</p>", "key_press": -1, "trial_type": "single-stim", "trial_index": 84, "time_elapsed": 441671, "internal_node_id": "0.0-60.0-6.0"}}, {"uniqueid": "MTK1287:3TS1AR6UQRL9VJ0MXF3YEHHWGN4F7O", "current_trial": 85, "dateTime": 1513536559939, "trialdata": {"rt": -1, "stimulus": "<p id=\"stim\">3</p>", "key_press": -1, "trial_type": "single-stim", "trial_index": 85, "time_elapsed": 442673, "internal_node_id": "0.0-60.0-7.0"}}, {"uniqueid": "MTK1287:3TS1AR6UQRL9VJ0MXF3YEHHWGN4F7O", "current_trial": 86, "dateTime": 1513536560942, "trialdata": {"rt": -1, "stimulus": "<p id=\"stim\">2</p>", "key_press": -1, "trial_type": "single-stim", "trial_index": 86, "time_elapsed": 443676, "internal_node_id": "0.0-60.0-8.0"}}, {"uniqueid": "MTK1287:3TS1AR6UQRL9VJ0MXF3YEHHWGN4F7O", "current_trial": 87, "dateTime": 1513536561945, "trialdata": {"rt": -1, "stimulus": "<p id=\"stim\">1</p>", "key_press": -1, "trial_type": "single-stim", "trial_index": 87, "time_elapsed": 444679, "internal_node_id": "0.0-60.0-9.0"}}, {"uniqueid": "MTK1287:3TS1AR6UQRL9VJ0MXF3YEHHWGN4F7O", "current_trial": 88, "dateTime": 1513536563502, "trialdata": {"rt": -1, "stimulus": "<p id=\"stim\">+</p>", "key_press": -1, "type": "FIXATION", "trial_type": "single-stim", "trial_index": 88, "time_elapsed": 446235, "internal_node_id": "0.0-61.0-0.0"}}, {"uniqueid": "MTK1287:3TS1AR6UQRL9VJ0MXF3YEHHWGN4F7O", "current_trial": 89, "dateTime": 1513536565126, "trialdata": {"rt": -1000, "stimulus": "/static/audio/wordpool/POISON.wav", "key_press": -1, "type": "PRES_AUD", "word": "poison", "wordID": 1095, "conditions": [12, 800, "a", 24000], "trial": 2, "serialpos": 0, "trial_type": "single-audio", "trial_index": 89, "time_elapsed": 447860, "internal_node_id": "0.0-62.0"}}, {"uniqueid": "MTK1287:3TS1AR6UQRL9VJ0MXF3YEHHWGN4F7O", "current_trial": 90, "dateTime": 1513536567111, "trialdata": {"rt": -1000, "stimulus": "/static/audio/wordpool/PORTRAIT.wav", "key_press": -1, "type": "PRES_AUD", "word": "portrait", "wordID": 1110, "conditions": [12, 800, "a", 24000], "trial": 2, "serialpos": 1, "trial_type": "single-audio", "trial_index": 90, "time_elapsed": 449845, "internal_node_id": "0.0-63.0"}}, {"uniqueid": "MTK1287:3TS1AR6UQRL9VJ0MXF3YEHHWGN4F7O", "current_trial": 91, "dateTime": 1513536568746, "trialdata": {"rt": -1000, "stimulus": "/static/audio/wordpool/ROD.wav", "key_press": -1, "type": "PRES_AUD", "word": "rod", "wordID": 1202, "conditions": [12, 800, "a", 24000], "trial": 2, "serialpos": 2, "trial_type": "single-audio", "trial_index": 91, "time_elapsed": 451479, "internal_node_id": "0.0-64.0"}}, {"uniqueid": "MTK1287:3TS1AR6UQRL9VJ0MXF3YEHHWGN4F7O", "current_trial": 92, "dateTime": 1513536570704, "trialdata": {"rt": -1000, "stimulus": "/static/audio/wordpool/CRIB.wav", "key_press": -1, "type": "PRES_AUD", "word": "crib", "wordID": 406, "conditions": [12, 800, "a", 24000], "trial": 2, "serialpos": 3, "trial_type": "single-audio", "trial_index": 92, "time_elapsed": 453438, "internal_node_id": "0.0-65.0"}}, {"uniqueid": "MTK1287:3TS1AR6UQRL9VJ0MXF3YEHHWGN4F7O", "current_trial": 93, "dateTime": 1513536572395, "trialdata": {"rt": -1000, "stimulus": "/static/audio/wordpool/SADDLE.wav", "key_press": -1, "type": "PRES_AUD", "word": "saddle", "wordID": 1220, "conditions": [12, 800, "a", 24000], "trial": 2, "serialpos": 4, "trial_type": "single-audio", "trial_index": 93, "time_elapsed": 455129, "internal_node_id": "0.0-66.0"}}, {"uniqueid": "MTK1287:3TS1AR6UQRL9VJ0MXF3YEHHWGN4F7O", "current_trial": 94, "dateTime": 1513536574251, "trialdata": {"rt": -1000, "stimulus": "/static/audio/wordpool/LUGGAGE.wav", "key_press": -1, "type": "PRES_AUD", "word": "luggage", "wordID": 846, "conditions": [12, 800, "a", 24000], "trial": 2, "serialpos": 5, "trial_type": "single-audio", "trial_index": 94, "time_elapsed": 456985, "internal_node_id": "0.0-67.0"}}, {"uniqueid": "MTK1287:3TS1AR6UQRL9VJ0MXF3YEHHWGN4F7O", "current_trial": 95, "dateTime": 1513536576115, "trialdata": {"rt": -1000, "stimulus": "/static/audio/wordpool/TWEEZERS.wav", "key_press": -1, "type": "PRES_AUD", "word": "tweezers", "wordID": 1525, "conditions": [12, 800, "a", 24000], "trial": 2, "serialpos": 6, "trial_type": "single-audio", "trial_index": 95, "time_elapsed": 458849, "internal_node_id": "0.0-68.0"}}, {"uniqueid": "MTK1287:3TS1AR6UQRL9VJ0MXF3YEHHWGN4F7O", "current_trial": 96, "dateTime": 1513536577817, "trialdata": {"rt": -1000, "stimulus": "/static/audio/wordpool/SPOOL.wav", "key_press": -1, "type": "PRES_AUD", "word": "spool", "wordID": 1355, "conditions": [12, 800, "a", 24000], "trial": 2, "serialpos": 7, "trial_type": "single-audio", "trial_index": 96, "time_elapsed": 460551, "internal_node_id": "0.0-69.0"}}, {"uniqueid": "MTK1287:3TS1AR6UQRL9VJ0MXF3YEHHWGN4F7O", "current_trial": 97, "dateTime": 1513536579549, "trialdata": {"rt": -1000, "stimulus": "/static/audio/wordpool/COBRA.wav", "key_press": -1, "type": "PRES_AUD", "word": "cobra", "wordID": 335, "conditions": [12, 800, "a", 24000], "trial": 2, "serialpos": 8, "trial_type": "single-audio", "trial_index": 97, "time_elapsed": 462282, "internal_node_id": "0.0-70.0"}}, {"uniqueid": "MTK1287:3TS1AR6UQRL9VJ0MXF3YEHHWGN4F7O", "current_trial": 98, "dateTime": 1513536581284, "trialdata": {"rt": -1000, "stimulus": "/static/audio/wordpool/LIZARD.wav", "key_press": -1, "type": "PRES_AUD", "word": "lizard", "wordID": 833, "conditions": [12, 800, "a", 24000], "trial": 2, "serialpos": 9, "trial_type": "single-audio", "trial_index": 98, "time_elapsed": 464017, "internal_node_id": "0.0-71.0"}}, {"uniqueid": "MTK1287:3TS1AR6UQRL9VJ0MXF3YEHHWGN4F7O", "current_trial": 99, "dateTime": 1513536583198, "trialdata": {"rt": -1000, "stimulus": "/static/audio/wordpool/SNACK.wav", "key_press": -1, "type": "PRES_AUD", "word": "snack", "wordID": 1330, "conditions": [12, 800, "a", 24000], "trial": 2, "serialpos": 10, "trial_type": "single-audio", "trial_index": 99, "time_elapsed": 465932, "internal_node_id": "0.0-72.0"}}, {"uniqueid": "MTK1287:3TS1AR6UQRL9VJ0MXF3YEHHWGN4F7O", "current_trial": 100, "dateTime": 1513536585059, "trialdata": {"rt": -1000, "stimulus": "/static/audio/wordpool/FRANCE.wav", "key_press": -1, "type": "PRES_AUD", "word": "france", "wordID": 600, "conditions": [12, 800, "a", 24000], "trial": 2, "serialpos": 11, "trial_type": "single-audio", "trial_index": 100, "time_elapsed": 467793, "internal_node_id": "0.0-73.0"}}, {"uniqueid": "MTK1287:3TS1AR6UQRL9VJ0MXF3YEHHWGN4F7O", "current_trial": 101, "dateTime": 1513536586405, "trialdata": {"rt": -1, "stimulus": "", "key_press": -1, "type": "PRE_RECALL_DELAY", "trial_type": "single-stim", "trial_index": 101, "time_elapsed": 469139, "internal_node_id": "0.0-74.0-0.0"}}, {"uniqueid": "MTK1287:3TS1AR6UQRL9VJ0MXF3YEHHWGN4F7O", "current_trial": 102, "dateTime": 1513536586909, "trialdata": {"rt": -1000, "stimulus": "/static/audio/400Hz.wav", "key_press": -1, "type": "PRE_RECALL_ALERT", "trial_type": "single-audio", "trial_index": 102, "time_elapsed": 469642, "internal_node_id": "0.0-75.0"}}, {"uniqueid": "MTK1287:3TS1AR6UQRL9VJ0MXF3YEHHWGN4F7O", "current_trial": 103, "dateTime": 1513536646934, "trialdata": {"rt": [5195, 6436, 10165, 12006, 14550, 16951, 20944, 24385, 30348, 39121, 44617], "recwords": ["cobra", "lizard", "saddle", "luggage", "poison", "spool", "portrait", "france", "crib", "snake", "snack"], "type": "FREE_RECALL", "conditions": [12, 800, "a", 24000], "trial": 2, "trial_type": "free-recall", "trial_index": 103, "time_elapsed": 529651, "internal_node_id": "0.0-76.0-0.0"}}, {"uniqueid": "MTK1287:3TS1AR6UQRL9VJ0MXF3YEHHWGN4F7O", "current_trial": 104, "dateTime": 1513536655954, "trialdata": {"rt": 7017, "key_press": 32, "type": "INSTRUCTIONS", "trial_type": "text", "trial_index": 104, "time_elapsed": 538688, "internal_node_id": "0.0-77.0"}}, {"uniqueid": "MTK1287:3TS1AR6UQRL9VJ0MXF3YEHHWGN4F7O", "current_trial": 105, "dateTime": 1513536670015, "trialdata": {"rt": [6296, 7754, 10446], "responses": ["22", "13", "17"], "num1": [7, 1, 5, 9], "num2": [8, 3, 4, 7], "num3": [6, 9, 8, 4], "type": "DISTRACTOR", "conditions": [24, 1600, "a", 12000], "trial": 3, "trial_type": "math-distractor", "trial_index": 105, "time_elapsed": 552748, "internal_node_id": "0.0-78.0"}}, {"uniqueid": "MTK1287:3TS1AR6UQRL9VJ0MXF3YEHHWGN4F7O", "current_trial": 106, "dateTime": 1513536673042, "trialdata": {"rt": -1, "stimulus": "<p id=\"stim\">10</p>", "key_press": -1, "trial_type": "single-stim", "trial_index": 106, "time_elapsed": 555775, "internal_node_id": "0.0-79.0-0.0"}}, {"uniqueid": "MTK1287:3TS1AR6UQRL9VJ0MXF3YEHHWGN4F7O", "current_trial": 107, "dateTime": 1513536674085, "trialdata": {"rt": -1, "stimulus": "<p id=\"stim\">9</p>", "key_press": -1, "trial_type": "single-stim", "trial_index": 107, "time_elapsed": 556818, "internal_node_id": "0.0-79.0-1.0"}}, {"uniqueid": "MTK1287:3TS1AR6UQRL9VJ0MXF3YEHHWGN4F7O", "current_trial": 108, "dateTime": 1513536675087, "trialdata": {"rt": -1, "stimulus": "<p id=\"stim\">8</p>", "key_press": -1, "trial_type": "single-stim", "trial_index": 108, "time_elapsed": 557821, "internal_node_id": "0.0-79.0-2.0"}}, {"uniqueid": "MTK1287:3TS1AR6UQRL9VJ0MXF3YEHHWGN4F7O", "current_trial": 109, "dateTime": 1513536676090, "trialdata": {"rt": -1, "stimulus": "<p id=\"stim\">7</p>", "key_press": -1, "trial_type": "single-stim", "trial_index": 109, "time_elapsed": 558824, "internal_node_id": "0.0-79.0-3.0"}}, {"uniqueid": "MTK1287:3TS1AR6UQRL9VJ0MXF3YEHHWGN4F7O", "current_trial": 110, "dateTime": 1513536677092, "trialdata": {"rt": -1, "stimulus": "<p id=\"stim\">6</p>", "key_press": -1, "trial_type": "single-stim", "trial_index": 110, "time_elapsed": 559826, "internal_node_id": "0.0-79.0-4.0"}}, {"uniqueid": "MTK1287:3TS1AR6UQRL9VJ0MXF3YEHHWGN4F7O", "current_trial": 111, "dateTime": 1513536678093, "trialdata": {"rt": -1, "stimulus": "<p id=\"stim\">5</p>", "key_press": -1, "trial_type": "single-stim", "trial_index": 111, "time_elapsed": 560827, "internal_node_id": "0.0-79.0-5.0"}}, {"uniqueid": "MTK1287:3TS1AR6UQRL9VJ0MXF3YEHHWGN4F7O", "current_trial": 112, "dateTime": 1513536679096, "trialdata": {"rt": -1, "stimulus": "<p id=\"stim\">4</p>", "key_press": -1, "trial_type": "single-stim", "trial_index": 112, "time_elapsed": 561829, "internal_node_id": "0.0-79.0-6.0"}}, {"uniqueid": "MTK1287:3TS1AR6UQRL9VJ0MXF3YEHHWGN4F7O", "current_trial": 113, "dateTime": 1513536680100, "trialdata": {"rt": -1, "stimulus": "<p id=\"stim\">3</p>", "key_press": -1, "trial_type": "single-stim", "trial_index": 113, "time_elapsed": 562833, "internal_node_id": "0.0-79.0-7.0"}}, {"uniqueid": "MTK1287:3TS1AR6UQRL9VJ0MXF3YEHHWGN4F7O", "current_trial": 114, "dateTime": 1513536681101, "trialdata": {"rt": -1, "stimulus": "<p id=\"stim\">2</p>", "key_press": -1, "trial_type": "single-stim", "trial_index": 114, "time_elapsed": 563835, "internal_node_id": "0.0-79.0-8.0"}}, {"uniqueid": "MTK1287:3TS1AR6UQRL9VJ0MXF3YEHHWGN4F7O", "current_trial": 115, "dateTime": 1513536682105, "trialdata": {"rt": -1, "stimulus": "<p id=\"stim\">1</p>", "key_press": -1, "trial_type": "single-stim", "trial_index": 115, "time_elapsed": 564838, "internal_node_id": "0.0-79.0-9.0"}}, {"uniqueid": "MTK1287:3TS1AR6UQRL9VJ0MXF3YEHHWGN4F7O", "current_trial": 116, "dateTime": 1513536683608, "trialdata": {"rt": -1, "stimulus": "<p id=\"stim\">+</p>", "key_press": -1, "type": "FIXATION", "trial_type": "single-stim", "trial_index": 116, "time_elapsed": 566342, "internal_node_id": "0.0-80.0-0.0"}}, {"uniqueid": "MTK1287:3TS1AR6UQRL9VJ0MXF3YEHHWGN4F7O", "current_trial": 117, "dateTime": 1513536686237, "trialdata": {"rt": -1000, "stimulus": "/static/audio/wordpool/COUNTY.wav", "key_press": -1, "type": "PRES_AUD", "word": "county", "wordID": 388, "conditions": [24, 1600, "a", 12000], "trial": 3, "serialpos": 0, "trial_type": "single-audio", "trial_index": 117, "time_elapsed": 568971, "internal_node_id": "0.0-81.0"}}, {"uniqueid": "MTK1287:3TS1AR6UQRL9VJ0MXF3YEHHWGN4F7O", "current_trial": 118, "dateTime": 1513536689027, "trialdata": {"rt": -1000, "stimulus": "/static/audio/wordpool/BARREL.wav", "key_press": -1, "type": "PRES_AUD", "word": "barrel", "wordID": 90, "conditions": [24, 1600, "a", 12000], "trial": 3, "serialpos": 1, "trial_type": "single-audio", "trial_index": 118, "time_elapsed": 571761, "internal_node_id": "0.0-82.0"}}, {"uniqueid": "MTK1287:3TS1AR6UQRL9VJ0MXF3YEHHWGN4F7O", "current_trial": 119, "dateTime": 1513536691817, "trialdata": {"rt": -1000, "stimulus": "/static/audio/wordpool/DONKEY.wav", "key_press": -1, "type": "PRES_AUD", "word": "donkey", "wordID": 483, "conditions": [24, 1600, "a", 12000], "trial": 3, "serialpos": 2, "trial_type": "single-audio", "trial_index": 119, "time_elapsed": 574550, "internal_node_id": "0.0-83.0"}}, {"uniqueid": "MTK1287:3TS1AR6UQRL9VJ0MXF3YEHHWGN4F7O", "current_trial": 120, "dateTime": 1513536694520, "trialdata": {"rt": -1000, "stimulus": "/static/audio/wordpool/COIN.wav", "key_press": -1, "type": "PRES_AUD", "word": "coin", "wordID": 342, "conditions": [24, 1600, "a", 12000], "trial": 3, "serialpos": 3, "trial_type": "single-audio", "trial_index": 120, "time_elapsed": 577253, "internal_node_id": "0.0-84.0"}}, {"uniqueid": "MTK1287:3TS1AR6UQRL9VJ0MXF3YEHHWGN4F7O", "current_trial": 121, "dateTime": 1513536697263, "trialdata": {"rt": -1000, "stimulus": "/static/audio/wordpool/SHERIFF.wav", "key_press": -1, "type": "PRES_AUD", "word": "sheriff", "wordID": 1283, "conditions": [24, 1600, "a", 12000], "trial": 3, "serialpos": 4, "trial_type": "single-audio", "trial_index": 121, "time_elapsed": 579997, "internal_node_id": "0.0-85.0"}}, {"uniqueid": "MTK1287:3TS1AR6UQRL9VJ0MXF3YEHHWGN4F7O", "current_trial": 122, "dateTime": 1513536700058, "trialdata": {"rt": -1000, "stimulus": "/static/audio/wordpool/PIANO.wav", "key_press": -1, "type": "PRES_AUD", "word": "piano", "wordID": 1056, "conditions": [24, 1600, "a", 12000], "trial": 3, "serialpos": 5, "trial_type": "single-audio", "trial_index": 122, "time_elapsed": 582792, "internal_node_id": "0.0-86.0"}}, {"uniqueid": "MTK1287:3TS1AR6UQRL9VJ0MXF3YEHHWGN4F7O", "current_trial": 123, "dateTime": 1513536702550, "trialdata": {"rt": -1000, "stimulus": "/static/audio/wordpool/FIDDLE.wav", "key_press": -1, "type": "PRES_AUD", "word": "fiddle", "wordID": 560, "conditions": [24, 1600, "a", 12000], "trial": 3, "serialpos": 6, "trial_type": "single-audio", "trial_index": 123, "time_elapsed": 585283, "internal_node_id": "0.0-87.0"}}, {"uniqueid": "MTK1287:3TS1AR6UQRL9VJ0MXF3YEHHWGN4F7O", "current_trial": 124, "dateTime": 1513536705228, "trialdata": {"rt": -1000, "stimulus": "/static/audio/wordpool/BUCKET.wav", "key_press": -1, "type": "PRES_AUD", "word": "bucket", "wordID": 183, "conditions": [24, 1600, "a", 12000], "trial": 3, "serialpos": 7, "trial_type": "single-audio", "trial_index": 124, "time_elapsed": 587962, "internal_node_id": "0.0-88.0"}}, {"uniqueid": "MTK1287:3TS1AR6UQRL9VJ0MXF3YEHHWGN4F7O", "current_trial": 125, "dateTime": 1513536707769, "trialdata": {"rt": -1000, "stimulus": "/static/audio/wordpool/BADGE.wav", "key_press": -1, "type": "PRES_AUD", "word": "badge", "wordID": 67, "conditions": [24, 1600, "a", 12000], "trial": 3, "serialpos": 8, "trial_type": "single-audio", "trial_index": 125, "time_elapsed": 590502, "internal_node_id": "0.0-89.0"}}, {"uniqueid": "MTK1287:3TS1AR6UQRL9VJ0MXF3YEHHWGN4F7O", "current_trial": 126, "dateTime": 1513536710297, "trialdata": {"rt": -1000, "stimulus": "/static/audio/wordpool/PARSLEY.wav", "key_press": -1, "type": "PRES_AUD", "word": "parsley", "wordID": 1015, "conditions": [24, 1600, "a", 12000], "trial": 3, "serialpos": 9, "trial_type": "single-audio", "trial_index": 126, "time_elapsed": 593031, "internal_node_id": "0.0-90.0"}}, {"uniqueid": "MTK1287:3TS1AR6UQRL9VJ0MXF3YEHHWGN4F7O", "current_trial": 127, "dateTime": 1513536712817, "trialdata": {"rt": -1000, "stimulus": "/static/audio/wordpool/PASTA.wav", "key_press": -1, "type": "PRES_AUD", "word": "pasta", "wordID": 1020, "conditions": [24, 1600, "a", 12000], "trial": 3, "serialpos": 10, "trial_type": "single-audio", "trial_index": 127, "time_elapsed": 595551, "internal_node_id": "0.0-91.0"}}, {"uniqueid": "MTK1287:3TS1AR6UQRL9VJ0MXF3YEHHWGN4F7O", "current_trial": 128, "dateTime": 1513536715533, "trialdata": {"rt": -1000, "stimulus": "/static/audio/wordpool/SCARECROW.wav", "key_press": -1, "type": "PRES_AUD", "word": "scarecrow", "wordID": 1244, "conditions": [24, 1600, "a", 12000], "trial": 3, "serialpos": 11, "trial_type": "single-audio", "trial_index": 128, "time_elapsed": 598266, "internal_node_id": "0.0-92.0"}}, {"uniqueid": "MTK1287:3TS1AR6UQRL9VJ0MXF3YEHHWGN4F7O", "current_trial": 129, "dateTime": 1513536718224, "trialdata": {"rt": -1000, "stimulus": "/static/audio/wordpool/PUDDING.wav", "key_press": -1, "type": "PRES_AUD", "word": "pudding", "wordID": 1138, "conditions": [24, 1600, "a", 12000], "trial": 3, "serialpos": 12, "trial_type": "single-audio", "trial_index": 129, "time_elapsed": 600958, "internal_node_id": "0.0-93.0"}}, {"uniqueid": "MTK1287:3TS1AR6UQRL9VJ0MXF3YEHHWGN4F7O", "current_trial": 130, "dateTime": 1513536720675, "trialdata": {"rt": -1000, "stimulus": "/static/audio/wordpool/FUNGUS.wav", "key_press": -1, "type": "PRES_AUD", "word": "fungus", "wordID": 613, "conditions": [24, 1600, "a", 12000], "trial": 3, "serialpos": 13, "trial_type": "single-audio", "trial_index": 130, "time_elapsed": 603409, "internal_node_id": "0.0-94.0"}}, {"uniqueid": "MTK1287:3TS1AR6UQRL9VJ0MXF3YEHHWGN4F7O", "current_trial": 131, "dateTime": 1513536723259, "trialdata": {"rt": -1000, "stimulus": "/static/audio/wordpool/SIBLING.wav", "key_press": -1, "type": "PRES_AUD", "word": "sibling", "wordID": 1300, "conditions": [24, 1600, "a", 12000], "trial": 3, "serialpos": 14, "trial_type": "single-audio", "trial_index": 131, "time_elapsed": 605993, "internal_node_id": "0.0-95.0"}}, {"uniqueid": "MTK1287:3TS1AR6UQRL9VJ0MXF3YEHHWGN4F7O", "current_trial": 132, "dateTime": 1513536725870, "trialdata": {"rt": -1000, "stimulus": "/static/audio/wordpool/NOVEL.wav", "key_press": -1, "type": "PRES_AUD", "word": "novel", "wordID": 959, "conditions": [24, 1600, "a", 12000], "trial": 3, "serialpos": 15, "trial_type": "single-audio", "trial_index": 132, "time_elapsed": 608604, "internal_node_id": "0.0-96.0"}}, {"uniqueid": "MTK1287:3TS1AR6UQRL9VJ0MXF3YEHHWGN4F7O", "current_trial": 133, "dateTime": 1513536728383, "trialdata": {"rt": -1000, "stimulus": "/static/audio/wordpool/TURKEY.wav", "key_press": -1, "type": "PRES_AUD", "word": "turkey", "wordID": 1519, "conditions": [24, 1600, "a", 12000], "trial": 3, "serialpos": 16, "trial_type": "single-audio", "trial_index": 133, "time_elapsed": 611117, "internal_node_id": "0.0-97.0"}}, {"uniqueid": "MTK1287:3TS1AR6UQRL9VJ0MXF3YEHHWGN4F7O", "current_trial": 134, "dateTime": 1513536730968, "trialdata": {"rt": -1000, "stimulus": "/static/audio/wordpool/WASP.wav", "key_press": -1, "type": "PRES_AUD", "word": "wasp", "wordID": 1592, "conditions": [24, 1600, "a", 12000], "trial": 3, "serialpos": 17, "trial_type": "single-audio", "trial_index": 134, "time_elapsed": 613702, "internal_node_id": "0.0-98.0"}}, {"uniqueid": "MTK1287:3TS1AR6UQRL9VJ0MXF3YEHHWGN4F7O", "current_trial": 135, "dateTime": 1513536733481, "trialdata": {"rt": -1000, "stimulus": "/static/audio/wordpool/LEG.wav", "key_press": -1, "type": "PRES_AUD", "word": "leg", "wordID": 808, "conditions": [24, 1600, "a", 12000], "trial": 3, "serialpos": 18, "trial_type": "single-audio", "trial_index": 135, "time_elapsed": 616215, "internal_node_id": "0.0-99.0"}}, {"uniqueid": "MTK1287:3TS1AR6UQRL9VJ0MXF3YEHHWGN4F7O", "current_trial": 136, "dateTime": 1513536736233, "trialdata": {"rt": -1000, "stimulus": "/static/audio/wordpool/ARM.wav", "key_press": -1, "type": "PRES_AUD", "word": "arm", "wordID": 37, "conditions": [24, 1600, "a", 12000], "trial": 3, "serialpos": 19, "trial_type": "single-audio", "trial_index": 136, "time_elapsed": 618967, "internal_node_id": "0.0-100.0"}}, {"uniqueid": "MTK1287:3TS1AR6UQRL9VJ0MXF3YEHHWGN4F7O", "current_trial": 137, "dateTime": 1513536738866, "trialdata": {"rt": -1000, "stimulus": "/static/audio/wordpool/COFFEE.wav", "key_press": -1, "type": "PRES_AUD", "word": "coffee", "wordID": 340, "conditions": [24, 1600, "a", 12000], "trial": 3, "serialpos": 20, "trial_type": "single-audio", "trial_index": 137, "time_elapsed": 621600, "internal_node_id": "0.0-101.0"}}, {"uniqueid": "MTK1287:3TS1AR6UQRL9VJ0MXF3YEHHWGN4F7O", "current_trial": 138, "dateTime": 1513536741308, "trialdata": {"rt": -1000, "stimulus": "/static/audio/wordpool/BEAKER.wav", "key_press": -1, "type": "PRES_AUD", "word": "beaker", "wordID": 103, "conditions": [24, 1600, "a", 12000], "trial": 3, "serialpos": 21, "trial_type": "single-audio", "trial_index": 138, "time_elapsed": 624042, "internal_node_id": "0.0-102.0"}}, {"uniqueid": "MTK1287:3TS1AR6UQRL9VJ0MXF3YEHHWGN4F7O", "current_trial": 139, "dateTime": 1513536743763, "trialdata": {"rt": -1000, "stimulus": "/static/audio/wordpool/PLAID.wav", "key_press": -1, "type": "PRES_AUD", "word": "plaid", "wordID": 1079, "conditions": [24, 1600, "a", 12000], "trial": 3, "serialpos": 22, "trial_type": "single-audio", "trial_index": 139, "time_elapsed": 626497, "internal_node_id": "0.0-103.0"}}, {"uniqueid": "MTK1287:3TS1AR6UQRL9VJ0MXF3YEHHWGN4F7O", "current_trial": 140, "dateTime": 1513536746311, "trialdata": {"rt": -1000, "stimulus": "/static/audio/wordpool/BUNNY.wav", "key_press": -1, "type": "PRES_AUD", "word": "bunny", "wordID": 197, "conditions": [24, 1600, "a", 12000], "trial": 3, "serialpos": 23, "trial_type": "single-audio", "trial_index": 140, "time_elapsed": 629045, "internal_node_id": "0.0-104.0"}}, {"uniqueid": "MTK1287:3TS1AR6UQRL9VJ0MXF3YEHHWGN4F7O", "current_trial": 141, "dateTime": 1513536747583, "trialdata": {"rt": -1, "stimulus": "", "key_press": -1, "type": "PRE_RECALL_DELAY", "trial_type": "single-stim", "trial_index": 141, "time_elapsed": 630317, "internal_node_id": "0.0-105.0-0.0"}}, {"uniqueid": "MTK1287:3TS1AR6UQRL9VJ0MXF3YEHHWGN4F7O", "current_trial": 142, "dateTime": 1513536748086, "trialdata": {"rt": -1000, "stimulus": "/static/audio/400Hz.wav", "key_press": -1, "type": "PRE_RECALL_ALERT", "trial_type": "single-audio", "trial_index": 142, "time_elapsed": 630819, "internal_node_id": "0.0-106.0"}}, {"uniqueid": "MTK1287:3TS1AR6UQRL9VJ0MXF3YEHHWGN4F7O", "current_trial": 143, "dateTime": 1513536808101, "trialdata": {"rt": [3813, 5608, 8295, 9553, 13724, 15024, 18372, 19262, 23955, 26780, 29338, 34160, 35788, 36871, 40812, 44314, 45751, 56520], "recwords": ["pasta", "parsley", "arm", "leg", "donkey", "pudding", "flask", "fig", "county", "poem", "scarecrow", "piano", "fiddle", "violen", "bucket", "pig", "wasp", "horse"], "type": "FREE_RECALL", "conditions": [24, 1600, "a", 12000], "trial": 3, "trial_type": "free-recall", "trial_index": 143, "time_elapsed": 690826, "internal_node_id": "0.0-107.0-0.0"}}, {"uniqueid": "MTK1287:3TS1AR6UQRL9VJ0MXF3YEHHWGN4F7O", "current_trial": 144, "dateTime": 1513536813415, "trialdata": {"rt": 3311, "key_press": 32, "type": "INSTRUCTIONS", "trial_type": "text", "trial_index": 144, "time_elapsed": 696148, "internal_node_id": "0.0-108.0"}}, {"uniqueid": "MTK1287:3TS1AR6UQRL9VJ0MXF3YEHHWGN4F7O", "current_trial": 145, "dateTime": 1513536839423, "trialdata": {"rt": [2465, 5203, 7536, 8959, 12773, 16392, 18892, 22549], "responses": ["11", "17", "14", "15", "12", "6", "9", "6"], "num1": [9, 5, 7, 6, 4, 3, 4, 2, 7], "num2": [1, 3, 2, 4, 3, 1, 1, 1, 1], "num3": [1, 9, 5, 5, 5, 2, 4, 3, 4], "type": "DISTRACTOR", "conditions": [12, 800, "v", 24000], "trial": 4, "trial_type": "math-distractor", "trial_index": 145, "time_elapsed": 722156, "internal_node_id": "0.0-109.0"}}, {"uniqueid": "MTK1287:3TS1AR6UQRL9VJ0MXF3YEHHWGN4F7O", "current_trial": 146, "dateTime": 1513536842427, "trialdata": {"rt": -1, "stimulus": "<p id=\"stim\">10</p>", "key_press": -1, "trial_type": "single-stim", "trial_index": 146, "time_elapsed": 725161, "internal_node_id": "0.0-110.0-0.0"}}, {"uniqueid": "MTK1287:3TS1AR6UQRL9VJ0MXF3YEHHWGN4F7O", "current_trial": 147, "dateTime": 1513536843481, "trialdata": {"rt": -1, "stimulus": "<p id=\"stim\">9</p>", "key_press": -1, "trial_type": "single-stim", "trial_index": 147, "time_elapsed": 726214, "internal_node_id": "0.0-110.0-1.0"}}, {"uniqueid": "MTK1287:3TS1AR6UQRL9VJ0MXF3YEHHWGN4F7O", "current_trial": 148, "dateTime": 1513536844483, "trialdata": {"rt": -1, "stimulus": "<p id=\"stim\">8</p>", "key_press": -1, "trial_type": "single-stim", "trial_index": 148, "time_elapsed": 727217, "internal_node_id": "0.0-110.0-2.0"}}, {"uniqueid": "MTK1287:3TS1AR6UQRL9VJ0MXF3YEHHWGN4F7O", "current_trial": 149, "dateTime": 1513536845486, "trialdata": {"rt": -1, "stimulus": "<p id=\"stim\">7</p>", "key_press": -1, "trial_type": "single-stim", "trial_index": 149, "time_elapsed": 728220, "internal_node_id": "0.0-110.0-3.0"}}, {"uniqueid": "MTK1287:3TS1AR6UQRL9VJ0MXF3YEHHWGN4F7O", "current_trial": 150, "dateTime": 1513536846490, "trialdata": {"rt": -1, "stimulus": "<p id=\"stim\">6</p>", "key_press": -1, "trial_type": "single-stim", "trial_index": 150, "time_elapsed": 729223, "internal_node_id": "0.0-110.0-4.0"}}, {"uniqueid": "MTK1287:3TS1AR6UQRL9VJ0MXF3YEHHWGN4F7O", "current_trial": 151, "dateTime": 1513536847492, "trialdata": {"rt": -1, "stimulus": "<p id=\"stim\">5</p>", "key_press": -1, "trial_type": "single-stim", "trial_index": 151, "time_elapsed": 730226, "internal_node_id": "0.0-110.0-5.0"}}, {"uniqueid": "MTK1287:3TS1AR6UQRL9VJ0MXF3YEHHWGN4F7O", "current_trial": 152, "dateTime": 1513536848494, "trialdata": {"rt": -1, "stimulus": "<p id=\"stim\">4</p>", "key_press": -1, "trial_type": "single-stim", "trial_index": 152, "time_elapsed": 731227, "internal_node_id": "0.0-110.0-6.0"}}, {"uniqueid": "MTK1287:3TS1AR6UQRL9VJ0MXF3YEHHWGN4F7O", "current_trial": 153, "dateTime": 1513536849496, "trialdata": {"rt": -1, "stimulus": "<p id=\"stim\">3</p>", "key_press": -1, "trial_type": "single-stim", "trial_index": 153, "time_elapsed": 732229, "internal_node_id": "0.0-110.0-7.0"}}, {"uniqueid": "MTK1287:3TS1AR6UQRL9VJ0MXF3YEHHWGN4F7O", "current_trial": 154, "dateTime": 1513536850499, "trialdata": {"rt": -1, "stimulus": "<p id=\"stim\">2</p>", "key_press": -1, "trial_type": "single-stim", "trial_index": 154, "time_elapsed": 733233, "internal_node_id": "0.0-110.0-8.0"}}, {"uniqueid": "MTK1287:3TS1AR6UQRL9VJ0MXF3YEHHWGN4F7O", "current_trial": 155, "dateTime": 1513536851501, "trialdata": {"rt": -1, "stimulus": "<p id=\"stim\">1</p>", "key_press": -1, "trial_type": "single-stim", "trial_index": 155, "time_elapsed": 734235, "internal_node_id": "0.0-110.0-9.0"}}, {"uniqueid": "MTK1287:3TS1AR6UQRL9VJ0MXF3YEHHWGN4F7O", "current_trial": 156, "dateTime": 1513536853004, "trialdata": {"rt": -1, "stimulus": "<p id=\"stim\">+</p>", "key_press": -1, "type": "FIXATION", "trial_type": "single-stim", "trial_index": 156, "time_elapsed": 735738, "internal_node_id": "0.0-111.0-0.0"}}, {"uniqueid": "MTK1287:3TS1AR6UQRL9VJ0MXF3YEHHWGN4F7O", "current_trial": 157, "dateTime": 1513536853806, "trialdata": {"rt": -1, "stimulus": "<p id=\"stim\">ROBOT</p>", "key_press": -1, "type": "PRES_VIS", "word": "robot", "wordID": 1199, "conditions": [12, 800, "v", 24000], "trial": 4, "serialpos": 0, "trial_type": "single-stim", "trial_index": 157, "time_elapsed": 736540, "internal_node_id": "0.0-112.0"}}, {"uniqueid": "MTK1287:3TS1AR6UQRL9VJ0MXF3YEHHWGN4F7O", "current_trial": 158, "dateTime": 1513536855660, "trialdata": {"rt": -1, "stimulus": "<p id=\"stim\">CRAB</p>", "key_press": -1, "type": "PRES_VIS", "word": "crab", "wordID": 396, "conditions": [12, 800, "v", 24000], "trial": 4, "serialpos": 1, "trial_type": "single-stim", "trial_index": 158, "time_elapsed": 738394, "internal_node_id": "0.0-113.0"}}, {"uniqueid": "MTK1287:3TS1AR6UQRL9VJ0MXF3YEHHWGN4F7O", "current_trial": 159, "dateTime": 1513536857528, "trialdata": {"rt": -1, "stimulus": "<p id=\"stim\">SCALLOP</p>", "key_press": -1, "type": "PRES_VIS", "word": "scallop", "wordID": 1241, "conditions": [12, 800, "v", 24000], "trial": 4, "serialpos": 2, "trial_type": "single-stim", "trial_index": 159, "time_elapsed": 740262, "internal_node_id": "0.0-114.0"}}, {"uniqueid": "MTK1287:3TS1AR6UQRL9VJ0MXF3YEHHWGN4F7O", "current_trial": 160, "dateTime": 1513536859214, "trialdata": {"rt": -1, "stimulus": "<p id=\"stim\">NURSE</p>", "key_press": -1, "type": "PRES_VIS", "word": "nurse", "wordID": 962, "conditions": [12, 800, "v", 24000], "trial": 4, "serialpos": 3, "trial_type": "single-stim", "trial_index": 160, "time_elapsed": 741948, "internal_node_id": "0.0-115.0"}}, {"uniqueid": "MTK1287:3TS1AR6UQRL9VJ0MXF3YEHHWGN4F7O", "current_trial": 161, "dateTime": 1513536861069, "trialdata": {"rt": -1, "stimulus": "<p id=\"stim\">TURTLE</p>", "key_press": -1, "type": "PRES_VIS", "word": "turtle", "wordID": 1521, "conditions": [12, 800, "v", 24000], "trial": 4, "serialpos": 4, "trial_type": "single-stim", "trial_index": 161, "time_elapsed": 743802, "internal_node_id": "0.0-116.0"}}, {"uniqueid": "MTK1287:3TS1AR6UQRL9VJ0MXF3YEHHWGN4F7O", "current_trial": 162, "dateTime": 1513536863010, "trialdata": {"rt": -1, "stimulus": "<p id=\"stim\">HOOK</p>", "key_press": -1, "type": "PRES_VIS", "word": "hook", "wordID": 714, "conditions": [12, 800, "v", 24000], "trial": 4, "serialpos": 5, "trial_type": "single-stim", "trial_index": 162, "time_elapsed": 745743, "internal_node_id": "0.0-117.0"}}, {"uniqueid": "MTK1287:3TS1AR6UQRL9VJ0MXF3YEHHWGN4F7O", "current_trial": 163, "dateTime": 1513536864967, "trialdata": {"rt": -1, "stimulus": "<p id=\"stim\">MONSTER</p>", "key_press": -1, "type": "PRES_VIS", "word": "monster", "wordID": 911, "conditions": [12, 800, "v", 24000], "trial": 4, "serialpos": 6, "trial_type": "single-stim", "trial_index": 163, "time_elapsed": 747700, "internal_node_id": "0.0-118.0"}}, {"uniqueid": "MTK1287:3TS1AR6UQRL9VJ0MXF3YEHHWGN4F7O", "current_trial": 164, "dateTime": 1513536866696, "trialdata": {"rt": -1, "stimulus": "<p id=\"stim\">PATIENT</p>", "key_press": -1, "type": "PRES_VIS", "word": "patient", "wordID": 1023, "conditions": [12, 800, "v", 24000], "trial": 4, "serialpos": 7, "trial_type": "single-stim", "trial_index": 164, "time_elapsed": 749429, "internal_node_id": "0.0-119.0"}}, {"uniqueid": "MTK1287:3TS1AR6UQRL9VJ0MXF3YEHHWGN4F7O", "current_trial": 165, "dateTime": 1513536868309, "trialdata": {"rt": -1, "stimulus": "<p id=\"stim\">FREEZER</p>", "key_press": -1, "type": "PRES_VIS", "word": "freezer", "wordID": 603, "conditions": [12, 800, "v", 24000], "trial": 4, "serialpos": 8, "trial_type": "single-stim", "trial_index": 165, "time_elapsed": 751043, "internal_node_id": "0.0-120.0"}}, {"uniqueid": "MTK1287:3TS1AR6UQRL9VJ0MXF3YEHHWGN4F7O", "current_trial": 166, "dateTime": 1513536870157, "trialdata": {"rt": -1, "stimulus": "<p id=\"stim\">PASSAGE</p>", "key_press": -1, "type": "PRES_VIS", "word": "passage", "wordID": 1018, "conditions": [12, 800, "v", 24000], "trial": 4, "serialpos": 9, "trial_type": "single-stim", "trial_index": 166, "time_elapsed": 752891, "internal_node_id": "0.0-121.0"}}, {"uniqueid": "MTK1287:3TS1AR6UQRL9VJ0MXF3YEHHWGN4F7O", "current_trial": 167, "dateTime": 1513536871847, "trialdata": {"rt": -1, "stimulus": "<p id=\"stim\">LAPEL</p>", "key_press": -1, "type": "PRES_VIS", "word": "lapel", "wordID": 799, "conditions": [12, 800, "v", 24000], "trial": 4, "serialpos": 10, "trial_type": "single-stim", "trial_index": 167, "time_elapsed": 754581, "internal_node_id": "0.0-122.0"}}, {"uniqueid": "MTK1287:3TS1AR6UQRL9VJ0MXF3YEHHWGN4F7O", "current_trial": 168, "dateTime": 1513536873601, "trialdata": {"rt": -1, "stimulus": "<p id=\"stim\">BLADE</p>", "key_press": -1, "type": "PRES_VIS", "word": "blade", "wordID": 133, "conditions": [12, 800, "v", 24000], "trial": 4, "serialpos": 11, "trial_type": "single-stim", "trial_index": 168, "time_elapsed": 756335, "internal_node_id": "0.0-123.0"}}, {"uniqueid": "MTK1287:3TS1AR6UQRL9VJ0MXF3YEHHWGN4F7O", "current_trial": 169, "dateTime": 1513536875748, "trialdata": {"rt": -1, "stimulus": "", "key_press": -1, "type": "PRE_RECALL_DELAY", "trial_type": "single-stim", "trial_index": 169, "time_elapsed": 758478, "internal_node_id": "0.0-124.0-0.0"}}, {"uniqueid": "MTK1287:3TS1AR6UQRL9VJ0MXF3YEHHWGN4F7O", "current_trial": 170, "dateTime": 1513536876251, "trialdata": {"rt": -1000, "stimulus": "/static/audio/400Hz.wav", "key_press": -1, "type": "PRE_RECALL_ALERT", "trial_type": "single-audio", "trial_index": 170, "time_elapsed": 758985, "internal_node_id": "0.0-125.0"}}, {"uniqueid": "MTK1287:3TS1AR6UQRL9VJ0MXF3YEHHWGN4F7O", "current_trial": 171, "dateTime": 1513536936268, "trialdata": {"rt": [6939, 11041, 15850, 19939, 21804, 29525, 31925, 33051, 39052], "recwords": ["crab", "turtle", "blade", "freezer", "robot", "nurse", "hook", "hood", "glade"], "type": "FREE_RECALL", "conditions": [12, 800, "v", 24000], "trial": 4, "trial_type": "free-recall", "trial_index": 171, "time_elapsed": 818994, "internal_node_id": "0.0-126.0-0.0"}}, {"uniqueid": "MTK1287:3TS1AR6UQRL9VJ0MXF3YEHHWGN4F7O", "current_trial": 172, "dateTime": 1513536944809, "trialdata": {"rt": 6539, "key_press": 32, "type": "INSTRUCTIONS", "trial_type": "text", "trial_index": 172, "time_elapsed": 827543, "internal_node_id": "0.0-127.0"}}, {"uniqueid": "MTK1287:3TS1AR6UQRL9VJ0MXF3YEHHWGN4F7O", "current_trial": 173, "dateTime": 1513536970817, "trialdata": {"rt": [4665, 7554, 10682, 13570, 16571, 18313, 20418, 21847, 23526], "responses": ["19", "20", "16", "10", "16", "12", "14", "11", "12"], "num1": [2, 6, 8, 3, 5, 2, 8, 5, 6, 2], "num2": [8, 6, 4, 3, 3, 3, 5, 5, 4, 5], "num3": [9, 8, 4, 4, 8, 7, 1, 1, 2, 2], "type": "DISTRACTOR", "conditions": [12, 1600, "a", 24000], "trial": 5, "trial_type": "math-distractor", "trial_index": 173, "time_elapsed": 853551, "internal_node_id": "0.0-128.0"}}, {"uniqueid": "MTK1287:3TS1AR6UQRL9VJ0MXF3YEHHWGN4F7O", "current_trial": 174, "dateTime": 1513536973820, "trialdata": {"rt": -1, "stimulus": "<p id=\"stim\">10</p>", "key_press": -1, "trial_type": "single-stim", "trial_index": 174, "time_elapsed": 856554, "internal_node_id": "0.0-129.0-0.0"}}, {"uniqueid": "MTK1287:3TS1AR6UQRL9VJ0MXF3YEHHWGN4F7O", "current_trial": 175, "dateTime": 1513536974823, "trialdata": {"rt": -1, "stimulus": "<p id=\"stim\">9</p>", "key_press": -1, "trial_type": "single-stim", "trial_index": 175, "time_elapsed": 857556, "internal_node_id": "0.0-129.0-1.0"}}, {"uniqueid": "MTK1287:3TS1AR6UQRL9VJ0MXF3YEHHWGN4F7O", "current_trial": 176, "dateTime": 1513536975826, "trialdata": {"rt": -1, "stimulus": "<p id=\"stim\">8</p>", "key_press": -1, "trial_type": "single-stim", "trial_index": 176, "time_elapsed": 858560, "internal_node_id": "0.0-129.0-2.0"}}, {"uniqueid": "MTK1287:3TS1AR6UQRL9VJ0MXF3YEHHWGN4F7O", "current_trial": 177, "dateTime": 1513536976828, "trialdata": {"rt": -1, "stimulus": "<p id=\"stim\">7</p>", "key_press": -1, "trial_type": "single-stim", "trial_index": 177, "time_elapsed": 859562, "internal_node_id": "0.0-129.0-3.0"}}, {"uniqueid": "MTK1287:3TS1AR6UQRL9VJ0MXF3YEHHWGN4F7O", "current_trial": 178, "dateTime": 1513536977831, "trialdata": {"rt": -1, "stimulus": "<p id=\"stim\">6</p>", "key_press": -1, "trial_type": "single-stim", "trial_index": 178, "time_elapsed": 860565, "internal_node_id": "0.0-129.0-4.0"}}, {"uniqueid": "MTK1287:3TS1AR6UQRL9VJ0MXF3YEHHWGN4F7O", "current_trial": 179, "dateTime": 1513536978834, "trialdata": {"rt": -1, "stimulus": "<p id=\"stim\">5</p>", "key_press": -1, "trial_type": "single-stim", "trial_index": 179, "time_elapsed": 861568, "internal_node_id": "0.0-129.0-5.0"}}, {"uniqueid": "MTK1287:3TS1AR6UQRL9VJ0MXF3YEHHWGN4F7O", "current_trial": 180, "dateTime": 1513536979836, "trialdata": {"rt": -1, "stimulus": "<p id=\"stim\">4</p>", "key_press": -1, "trial_type": "single-stim", "trial_index": 180, "time_elapsed": 862570, "internal_node_id": "0.0-129.0-6.0"}}, {"uniqueid": "MTK1287:3TS1AR6UQRL9VJ0MXF3YEHHWGN4F7O", "current_trial": 181, "dateTime": 1513536980839, "trialdata": {"rt": -1, "stimulus": "<p id=\"stim\">3</p>", "key_press": -1, "trial_type": "single-stim", "trial_index": 181, "time_elapsed": 863572, "internal_node_id": "0.0-129.0-7.0"}}, {"uniqueid": "MTK1287:3TS1AR6UQRL9VJ0MXF3YEHHWGN4F7O", "current_trial": 182, "dateTime": 1513536981840, "trialdata": {"rt": -1, "stimulus": "<p id=\"stim\">2</p>", "key_press": -1, "trial_type": "single-stim", "trial_index": 182, "time_elapsed": 864574, "internal_node_id": "0.0-129.0-8.0"}}, {"uniqueid": "MTK1287:3TS1AR6UQRL9VJ0MXF3YEHHWGN4F7O", "current_trial": 183, "dateTime": 1513536982844, "trialdata": {"rt": -1, "stimulus": "<p id=\"stim\">1</p>", "key_press": -1, "trial_type": "single-stim", "trial_index": 183, "time_elapsed": 865578, "internal_node_id": "0.0-129.0-9.0"}}, {"uniqueid": "MTK1287:3TS1AR6UQRL9VJ0MXF3YEHHWGN4F7O", "current_trial": 184, "dateTime": 1513536984347, "trialdata": {"rt": -1, "stimulus": "<p id=\"stim\">+</p>", "key_press": -1, "type": "FIXATION", "trial_type": "single-stim", "trial_index": 184, "time_elapsed": 867081, "internal_node_id": "0.0-130.0-0.0"}}, {"uniqueid": "MTK1287:3TS1AR6UQRL9VJ0MXF3YEHHWGN4F7O", "current_trial": 185, "dateTime": 1513536986962, "trialdata": {"rt": -1000, "stimulus": "/static/audio/wordpool/FARMER.wav", "key_press": -1, "type": "PRES_AUD", "word": "farmer", "wordID": 552, "conditions": [12, 1600, "a", 24000], "trial": 5, "serialpos": 0, "trial_type": "single-audio", "trial_index": 185, "time_elapsed": 869696, "internal_node_id": "0.0-131.0"}}, {"uniqueid": "MTK1287:3TS1AR6UQRL9VJ0MXF3YEHHWGN4F7O", "current_trial": 186, "dateTime": 1513536989580, "trialdata": {"rt": -1000, "stimulus": "/static/audio/wordpool/SPARROW.wav", "key_press": -1, "type": "PRES_AUD", "word": "sparrow", "wordID": 1346, "conditions": [12, 1600, "a", 24000], "trial": 5, "serialpos": 1, "trial_type": "single-audio", "trial_index": 186, "time_elapsed": 872314, "internal_node_id": "0.0-132.0"}}, {"uniqueid": "MTK1287:3TS1AR6UQRL9VJ0MXF3YEHHWGN4F7O", "current_trial": 187, "dateTime": 1513536992119, "trialdata": {"rt": -1000, "stimulus": "/static/audio/wordpool/ROBIN.wav", "key_press": -1, "type": "PRES_AUD", "word": "robin", "wordID": 1198, "conditions": [12, 1600, "a", 24000], "trial": 5, "serialpos": 2, "trial_type": "single-audio", "trial_index": 187, "time_elapsed": 874841, "internal_node_id": "0.0-133.0"}}, {"uniqueid": "MTK1287:3TS1AR6UQRL9VJ0MXF3YEHHWGN4F7O", "current_trial": 188, "dateTime": 1513536994556, "trialdata": {"rt": -1000, "stimulus": "/static/audio/wordpool/CHIPMUNK.wav", "key_press": -1, "type": "PRES_AUD", "word": "chipmunk", "wordID": 303, "conditions": [12, 1600, "a", 24000], "trial": 5, "serialpos": 3, "trial_type": "single-audio", "trial_index": 188, "time_elapsed": 877290, "internal_node_id": "0.0-134.0"}}, {"uniqueid": "MTK1287:3TS1AR6UQRL9VJ0MXF3YEHHWGN4F7O", "current_trial": 189, "dateTime": 1513536997140, "trialdata": {"rt": -1000, "stimulus": "/static/audio/wordpool/KETCHUP.wav", "key_press": -1, "type": "PRES_AUD", "word": "ketchup", "wordID": 770, "conditions": [12, 1600, "a", 24000], "trial": 5, "serialpos": 4, "trial_type": "single-audio", "trial_index": 189, "time_elapsed": 879873, "internal_node_id": "0.0-135.0"}}, {"uniqueid": "MTK1287:3TS1AR6UQRL9VJ0MXF3YEHHWGN4F7O", "current_trial": 190, "dateTime": 1513536999613, "trialdata": {"rt": -1000, "stimulus": "/static/audio/wordpool/CONCERT.wav", "key_press": -1, "type": "PRES_AUD", "word": "concert", "wordID": 359, "conditions": [12, 1600, "a", 24000], "trial": 5, "serialpos": 5, "trial_type": "single-audio", "trial_index": 190, "time_elapsed": 882347, "internal_node_id": "0.0-136.0"}}, {"uniqueid": "MTK1287:3TS1AR6UQRL9VJ0MXF3YEHHWGN4F7O", "current_trial": 191, "dateTime": 1513537002241, "trialdata": {"rt": -1000, "stimulus": "/static/audio/wordpool/DANCER.wav", "key_press": -1, "type": "PRES_AUD", "word": "dancer", "wordID": 436, "conditions": [12, 1600, "a", 24000], "trial": 5, "serialpos": 6, "trial_type": "single-audio", "trial_index": 191, "time_elapsed": 884975, "internal_node_id": "0.0-137.0"}}, {"uniqueid": "MTK1287:3TS1AR6UQRL9VJ0MXF3YEHHWGN4F7O", "current_trial": 192, "dateTime": 1513537004777, "trialdata": {"rt": -1000, "stimulus": "/static/audio/wordpool/RABBIT.wav", "key_press": -1, "type": "PRES_AUD", "word": "rabbit", "wordID": 1151, "conditions": [12, 1600, "a", 24000], "trial": 5, "serialpos": 7, "trial_type": "single-audio", "trial_index": 192, "time_elapsed": 887511, "internal_node_id": "0.0-138.0"}}, {"uniqueid": "MTK1287:3TS1AR6UQRL9VJ0MXF3YEHHWGN4F7O", "current_trial": 193, "dateTime": 1513537007520, "trialdata": {"rt": -1000, "stimulus": "/static/audio/wordpool/PARTNER.wav", "key_press": -1, "type": "PRES_AUD", "word": "partner", "wordID": 1016, "conditions": [12, 1600, "a", 24000], "trial": 5, "serialpos": 8, "trial_type": "single-audio", "trial_index": 193, "time_elapsed": 890254, "internal_node_id": "0.0-139.0"}}, {"uniqueid": "MTK1287:3TS1AR6UQRL9VJ0MXF3YEHHWGN4F7O", "current_trial": 194, "dateTime": 1513537010314, "trialdata": {"rt": -1000, "stimulus": "/static/audio/wordpool/JUGGLER.wav", "key_press": -1, "type": "PRES_AUD", "word": "juggler", "wordID": 762, "conditions": [12, 1600, "a", 24000], "trial": 5, "serialpos": 9, "trial_type": "single-audio", "trial_index": 194, "time_elapsed": 893047, "internal_node_id": "0.0-140.0"}}, {"uniqueid": "MTK1287:3TS1AR6UQRL9VJ0MXF3YEHHWGN4F7O", "current_trial": 195, "dateTime": 1513537013025, "trialdata": {"rt": -1000, "stimulus": "/static/audio/wordpool/DOLPHIN.wav", "key_press": -1, "type": "PRES_AUD", "word": "dolphin", "wordID": 482, "conditions": [12, 1600, "a", 24000], "trial": 5, "serialpos": 10, "trial_type": "single-audio", "trial_index": 195, "time_elapsed": 895759, "internal_node_id": "0.0-141.0"}}, {"uniqueid": "MTK1287:3TS1AR6UQRL9VJ0MXF3YEHHWGN4F7O", "current_trial": 196, "dateTime": 1513537015429, "trialdata": {"rt": -1000, "stimulus": "/static/audio/wordpool/CHAUFFEUR.wav", "key_press": -1, "type": "PRES_AUD", "word": "chauffeur", "wordID": 282, "conditions": [12, 1600, "a", 24000], "trial": 5, "serialpos": 11, "trial_type": "single-audio", "trial_index": 196, "time_elapsed": 898163, "internal_node_id": "0.0-142.0"}}, {"uniqueid": "MTK1287:3TS1AR6UQRL9VJ0MXF3YEHHWGN4F7O", "current_trial": 197, "dateTime": 1513537016721, "trialdata": {"rt": -1, "stimulus": "", "key_press": -1, "type": "PRE_RECALL_DELAY", "trial_type": "single-stim", "trial_index": 197, "time_elapsed": 899454, "internal_node_id": "0.0-143.0-0.0"}}, {"uniqueid": "MTK1287:3TS1AR6UQRL9VJ0MXF3YEHHWGN4F7O", "current_trial": 198, "dateTime": 1513537017224, "trialdata": {"rt": -1000, "stimulus": "/static/audio/400Hz.wav", "key_press": -1, "type": "PRE_RECALL_ALERT", "trial_type": "single-audio", "trial_index": 198, "time_elapsed": 899958, "internal_node_id": "0.0-144.0"}}, {"uniqueid": "MTK1287:3TS1AR6UQRL9VJ0MXF3YEHHWGN4F7O", "current_trial": 199, "dateTime": 1513537077245, "trialdata": {"rt": [11841, 15132, 18909, 21371, 22425, 28168, 34412, 37917, 43472, 55541], "recwords": ["dance", "concert", "rabbit", "sparrow", "robin", "dolphin", "squirrel", "chipmunk", "judge", "walk"], "type": "FREE_RECALL", "conditions": [12, 1600, "a", 24000], "trial": 5, "trial_type": "free-recall", "trial_index": 199, "time_elapsed": 959965, "internal_node_id": "0.0-145.0-0.0"}}, {"uniqueid": "MTK1287:3TS1AR6UQRL9VJ0MXF3YEHHWGN4F7O", "current_trial": 200, "dateTime": 1513537094576, "trialdata": {"rt": 15328, "key_press": 32, "type": "INSTRUCTIONS", "trial_type": "text", "trial_index": 200, "time_elapsed": 977309, "internal_node_id": "0.0-146.0"}}, {"uniqueid": "MTK1287:3TS1AR6UQRL9VJ0MXF3YEHHWGN4F7O", "current_trial": 201, "dateTime": 1513537120583, "trialdata": {"rt": [5089, 10079, 13181, 14472, 16698, 19058], "responses": ["24", "24", "7", "7", "17", "11"], "num1": [6, 9, 3, 3, 2, 2, 8], "num2": [9, 6, 1, 3, 8, 2, 9], "num3": [9, 9, 3, 1, 7, 7, 5], "type": "DISTRACTOR", "conditions": [24, 800, "v", 24000], "trial": 6, "trial_type": "math-distractor", "trial_index": 201, "time_elapsed": 1003317, "internal_node_id": "0.0-147.0"}}, {"uniqueid": "MTK1287:3TS1AR6UQRL9VJ0MXF3YEHHWGN4F7O", "current_trial": 202, "dateTime": 1513537123587, "trialdata": {"rt": -1, "stimulus": "<p id=\"stim\">10</p>", "key_press": -1, "trial_type": "single-stim", "trial_index": 202, "time_elapsed": 1006321, "internal_node_id": "0.0-148.0-0.0"}}, {"uniqueid": "MTK1287:3TS1AR6UQRL9VJ0MXF3YEHHWGN4F7O", "current_trial": 203, "dateTime": 1513537124590, "trialdata": {"rt": -1, "stimulus": "<p id=\"stim\">9</p>", "key_press": -1, "trial_type": "single-stim", "trial_index": 203, "time_elapsed": 1007323, "internal_node_id": "0.0-148.0-1.0"}}, {"uniqueid": "MTK1287:3TS1AR6UQRL9VJ0MXF3YEHHWGN4F7O", "current_trial": 204, "dateTime": 1513537125593, "trialdata": {"rt": -1, "stimulus": "<p id=\"stim\">8</p>", "key_press": -1, "trial_type": "single-stim", "trial_index": 204, "time_elapsed": 1008327, "internal_node_id": "0.0-148.0-2.0"}}, {"uniqueid": "MTK1287:3TS1AR6UQRL9VJ0MXF3YEHHWGN4F7O", "current_trial": 205, "dateTime": 1513537126596, "trialdata": {"rt": -1, "stimulus": "<p id=\"stim\">7</p>", "key_press": -1, "trial_type": "single-stim", "trial_index": 205, "time_elapsed": 1009330, "internal_node_id": "0.0-148.0-3.0"}}, {"uniqueid": "MTK1287:3TS1AR6UQRL9VJ0MXF3YEHHWGN4F7O", "current_trial": 206, "dateTime": 1513537127600, "trialdata": {"rt": -1, "stimulus": "<p id=\"stim\">6</p>", "key_press": -1, "trial_type": "single-stim", "trial_index": 206, "time_elapsed": 1010333, "internal_node_id": "0.0-148.0-4.0"}}, {"uniqueid": "MTK1287:3TS1AR6UQRL9VJ0MXF3YEHHWGN4F7O", "current_trial": 207, "dateTime": 1513537128602, "trialdata": {"rt": -1, "stimulus": "<p id=\"stim\">5</p>", "key_press": -1, "trial_type": "single-stim", "trial_index": 207, "time_elapsed": 1011336, "internal_node_id": "0.0-148.0-5.0"}}, {"uniqueid": "MTK1287:3TS1AR6UQRL9VJ0MXF3YEHHWGN4F7O", "current_trial": 208, "dateTime": 1513537129605, "trialdata": {"rt": -1, "stimulus": "<p id=\"stim\">4</p>", "key_press": -1, "trial_type": "single-stim", "trial_index": 208, "time_elapsed": 1012339, "internal_node_id": "0.0-148.0-6.0"}}, {"uniqueid": "MTK1287:3TS1AR6UQRL9VJ0MXF3YEHHWGN4F7O", "current_trial": 209, "dateTime": 1513537130607, "trialdata": {"rt": -1, "stimulus": "<p id=\"stim\">3</p>", "key_press": -1, "trial_type": "single-stim", "trial_index": 209, "time_elapsed": 1013341, "internal_node_id": "0.0-148.0-7.0"}}, {"uniqueid": "MTK1287:3TS1AR6UQRL9VJ0MXF3YEHHWGN4F7O", "current_trial": 210, "dateTime": 1513537131609, "trialdata": {"rt": -1, "stimulus": "<p id=\"stim\">2</p>", "key_press": -1, "trial_type": "single-stim", "trial_index": 210, "time_elapsed": 1014343, "internal_node_id": "0.0-148.0-8.0"}}, {"uniqueid": "MTK1287:3TS1AR6UQRL9VJ0MXF3YEHHWGN4F7O", "current_trial": 211, "dateTime": 1513537132613, "trialdata": {"rt": -1, "stimulus": "<p id=\"stim\">1</p>", "key_press": -1, "trial_type": "single-stim", "trial_index": 211, "time_elapsed": 1015346, "internal_node_id": "0.0-148.0-9.0"}}, {"uniqueid": "MTK1287:3TS1AR6UQRL9VJ0MXF3YEHHWGN4F7O", "current_trial": 212, "dateTime": 1513537134116, "trialdata": {"rt": -1, "stimulus": "<p id=\"stim\">+</p>", "key_press": -1, "type": "FIXATION", "trial_type": "single-stim", "trial_index": 212, "time_elapsed": 1016850, "internal_node_id": "0.0-149.0-0.0"}}, {"uniqueid": "MTK1287:3TS1AR6UQRL9VJ0MXF3YEHHWGN4F7O", "current_trial": 213, "dateTime": 1513537134920, "trialdata": {"rt": -1, "stimulus": "<p id=\"stim\">QUEEN</p>", "key_press": -1, "type": "PRES_VIS", "word": "queen", "wordID": 1148, "conditions": [24, 800, "v", 24000], "trial": 6, "serialpos": 0, "trial_type": "single-stim", "trial_index": 213, "time_elapsed": 1017654, "internal_node_id": "0.0-150.0"}}, {"uniqueid": "MTK1287:3TS1AR6UQRL9VJ0MXF3YEHHWGN4F7O", "current_trial": 214, "dateTime": 1513537136801, "trialdata": {"rt": -1, "stimulus": "<p id=\"stim\">POPCORN</p>", "key_press": -1, "type": "PRES_VIS", "word": "popcorn", "wordID": 1103, "conditions": [24, 800, "v", 24000], "trial": 6, "serialpos": 1, "trial_type": "single-stim", "trial_index": 214, "time_elapsed": 1019535, "internal_node_id": "0.0-151.0"}}, {"uniqueid": "MTK1287:3TS1AR6UQRL9VJ0MXF3YEHHWGN4F7O", "current_trial": 215, "dateTime": 1513537138531, "trialdata": {"rt": -1, "stimulus": "<p id=\"stim\">SWORD</p>", "key_press": -1, "type": "PRES_VIS", "word": "sword", "wordID": 1422, "conditions": [24, 800, "v", 24000], "trial": 6, "serialpos": 2, "trial_type": "single-stim", "trial_index": 215, "time_elapsed": 1021264, "internal_node_id": "0.0-152.0"}}, {"uniqueid": "MTK1287:3TS1AR6UQRL9VJ0MXF3YEHHWGN4F7O", "current_trial": 216, "dateTime": 1513537140178, "trialdata": {"rt": -1, "stimulus": "<p id=\"stim\">BELLY</p>", "key_press": -1, "type": "PRES_VIS", "word": "belly", "wordID": 118, "conditions": [24, 800, "v", 24000], "trial": 6, "serialpos": 3, "trial_type": "single-stim", "trial_index": 216, "time_elapsed": 1022911, "internal_node_id": "0.0-153.0"}}, {"uniqueid": "MTK1287:3TS1AR6UQRL9VJ0MXF3YEHHWGN4F7O", "current_trial": 217, "dateTime": 1513537142006, "trialdata": {"rt": -1, "stimulus": "<p id=\"stim\">PRINCESS</p>", "key_press": -1, "type": "PRES_VIS", "word": "princess", "wordID": 1124, "conditions": [24, 800, "v", 24000], "trial": 6, "serialpos": 4, "trial_type": "single-stim", "trial_index": 217, "time_elapsed": 1024740, "internal_node_id": "0.0-154.0"}}, {"uniqueid": "MTK1287:3TS1AR6UQRL9VJ0MXF3YEHHWGN4F7O", "current_trial": 218, "dateTime": 1513537143784, "trialdata": {"rt": -1, "stimulus": "<p id=\"stim\">WAITRESS</p>", "key_press": -1, "type": "PRES_VIS", "word": "waitress", "wordID": 1580, "conditions": [24, 800, "v", 24000], "trial": 6, "serialpos": 5, "trial_type": "single-stim", "trial_index": 218, "time_elapsed": 1026518, "internal_node_id": "0.0-155.0"}}, {"uniqueid": "MTK1287:3TS1AR6UQRL9VJ0MXF3YEHHWGN4F7O", "current_trial": 219, "dateTime": 1513537145472, "trialdata": {"rt": -1, "stimulus": "<p id=\"stim\">DRUG</p>", "key_press": -1, "type": "PRES_VIS", "word": "drug", "wordID": 500, "conditions": [24, 800, "v", 24000], "trial": 6, "serialpos": 6, "trial_type": "single-stim", "trial_index": 219, "time_elapsed": 1028205, "internal_node_id": "0.0-156.0"}}, {"uniqueid": "MTK1287:3TS1AR6UQRL9VJ0MXF3YEHHWGN4F7O", "current_trial": 220, "dateTime": 1513537147421, "trialdata": {"rt": -1, "stimulus": "<p id=\"stim\">OYSTER</p>", "key_press": -1, "type": "PRES_VIS", "word": "oyster", "wordID": 994, "conditions": [24, 800, "v", 24000], "trial": 6, "serialpos": 7, "trial_type": "single-stim", "trial_index": 220, "time_elapsed": 1030155, "internal_node_id": "0.0-157.0"}}, {"uniqueid": "MTK1287:3TS1AR6UQRL9VJ0MXF3YEHHWGN4F7O", "current_trial": 221, "dateTime": 1513537149406, "trialdata": {"rt": -1, "stimulus": "<p id=\"stim\">SALMON</p>", "key_press": -1, "type": "PRES_VIS", "word": "salmon", "wordID": 1226, "conditions": [24, 800, "v", 24000], "trial": 6, "serialpos": 8, "trial_type": "single-stim", "trial_index": 221, "time_elapsed": 1032140, "internal_node_id": "0.0-158.0"}}, {"uniqueid": "MTK1287:3TS1AR6UQRL9VJ0MXF3YEHHWGN4F7O", "current_trial": 222, "dateTime": 1513537151333, "trialdata": {"rt": -1, "stimulus": "<p id=\"stim\">KNIFE</p>", "key_press": -1, "type": "PRES_VIS", "word": "knife", "wordID": 784, "conditions": [24, 800, "v", 24000], "trial": 6, "serialpos": 9, "trial_type": "single-stim", "trial_index": 222, "time_elapsed": 1034066, "internal_node_id": "0.0-159.0"}}, {"uniqueid": "MTK1287:3TS1AR6UQRL9VJ0MXF3YEHHWGN4F7O", "current_trial": 223, "dateTime": 1513537153308, "trialdata": {"rt": -1, "stimulus": "<p id=\"stim\">WRIST</p>", "key_press": -1, "type": "PRES_VIS", "word": "wrist", "wordID": 1625, "conditions": [24, 800, "v", 24000], "trial": 6, "serialpos": 10, "trial_type": "single-stim", "trial_index": 223, "time_elapsed": 1036041, "internal_node_id": "0.0-160.0"}}, {"uniqueid": "MTK1287:3TS1AR6UQRL9VJ0MXF3YEHHWGN4F7O", "current_trial": 224, "dateTime": 1513537154984, "trialdata": {"rt": -1, "stimulus": "<p id=\"stim\">STOMACH</p>", "key_press": -1, "type": "PRES_VIS", "word": "stomach", "wordID": 1383, "conditions": [24, 800, "v", 24000], "trial": 6, "serialpos": 11, "trial_type": "single-stim", "trial_index": 224, "time_elapsed": 1037718, "internal_node_id": "0.0-161.0"}}, {"uniqueid": "MTK1287:3TS1AR6UQRL9VJ0MXF3YEHHWGN4F7O", "current_trial": 225, "dateTime": 1513537156733, "trialdata": {"rt": -1, "stimulus": "<p id=\"stim\">KNAPSACK</p>", "key_press": -1, "type": "PRES_VIS", "word": "knapsack", "wordID": 782, "conditions": [24, 800, "v", 24000], "trial": 6, "serialpos": 12, "trial_type": "single-stim", "trial_index": 225, "time_elapsed": 1039467, "internal_node_id": "0.0-162.0"}}, {"uniqueid": "MTK1287:3TS1AR6UQRL9VJ0MXF3YEHHWGN4F7O", "current_trial": 226, "dateTime": 1513537158590, "trialdata": {"rt": -1, "stimulus": "<p id=\"stim\">DAUGHTER</p>", "key_press": -1, "type": "PRES_VIS", "word": "daughter", "wordID": 441, "conditions": [24, 800, "v", 24000], "trial": 6, "serialpos": 13, "trial_type": "single-stim", "trial_index": 226, "time_elapsed": 1041323, "internal_node_id": "0.0-163.0"}}, {"uniqueid": "MTK1287:3TS1AR6UQRL9VJ0MXF3YEHHWGN4F7O", "current_trial": 227, "dateTime": 1513537160616, "trialdata": {"rt": -1, "stimulus": "<p id=\"stim\">AUTHOR</p>", "key_press": -1, "type": "PRES_VIS", "word": "author", "wordID": 60, "conditions": [24, 800, "v", 24000], "trial": 6, "serialpos": 14, "trial_type": "single-stim", "trial_index": 227, "time_elapsed": 1043350, "internal_node_id": "0.0-164.0"}}, {"uniqueid": "MTK1287:3TS1AR6UQRL9VJ0MXF3YEHHWGN4F7O", "current_trial": 228, "dateTime": 1513537162353, "trialdata": {"rt": -1, "stimulus": "<p id=\"stim\">SPIDER</p>", "key_press": -1, "type": "PRES_VIS", "word": "spider", "wordID": 1350, "conditions": [24, 800, "v", 24000], "trial": 6, "serialpos": 15, "trial_type": "single-stim", "trial_index": 228, "time_elapsed": 1045086, "internal_node_id": "0.0-165.0"}}, {"uniqueid": "MTK1287:3TS1AR6UQRL9VJ0MXF3YEHHWGN4F7O", "current_trial": 229, "dateTime": 1513537164330, "trialdata": {"rt": -1, "stimulus": "<p id=\"stim\">CREATURE</p>", "key_press": -1, "type": "PRES_VIS", "word": "creature", "wordID": 402, "conditions": [24, 800, "v", 24000], "trial": 6, "serialpos": 16, "trial_type": "single-stim", "trial_index": 229, "time_elapsed": 1047063, "internal_node_id": "0.0-166.0"}}, {"uniqueid": "MTK1287:3TS1AR6UQRL9VJ0MXF3YEHHWGN4F7O", "current_trial": 230, "dateTime": 1513537166031, "trialdata": {"rt": -1, "stimulus": "<p id=\"stim\">AIRPLANE</p>", "key_press": -1, "type": "PRES_VIS", "word": "airplane", "wordID": 11, "conditions": [24, 800, "v", 24000], "trial": 6, "serialpos": 17, "trial_type": "single-stim", "trial_index": 230, "time_elapsed": 1048764, "internal_node_id": "0.0-167.0"}}, {"uniqueid": "MTK1287:3TS1AR6UQRL9VJ0MXF3YEHHWGN4F7O", "current_trial": 231, "dateTime": 1513537167685, "trialdata": {"rt": -1, "stimulus": "<p id=\"stim\">FLEET</p>", "key_press": -1, "type": "PRES_VIS", "word": "fleet", "wordID": 577, "conditions": [24, 800, "v", 24000], "trial": 6, "serialpos": 18, "trial_type": "single-stim", "trial_index": 231, "time_elapsed": 1050419, "internal_node_id": "0.0-168.0"}}, {"uniqueid": "MTK1287:3TS1AR6UQRL9VJ0MXF3YEHHWGN4F7O", "current_trial": 232, "dateTime": 1513537169619, "trialdata": {"rt": -1, "stimulus": "<p id=\"stim\">SISTER</p>", "key_press": -1, "type": "PRES_VIS", "word": "sister", "wordID": 1311, "conditions": [24, 800, "v", 24000], "trial": 6, "serialpos": 19, "trial_type": "single-stim", "trial_index": 232, "time_elapsed": 1052352, "internal_node_id": "0.0-169.0"}}, {"uniqueid": "MTK1287:3TS1AR6UQRL9VJ0MXF3YEHHWGN4F7O", "current_trial": 233, "dateTime": 1513537171464, "trialdata": {"rt": -1, "stimulus": "<p id=\"stim\">NAPKIN</p>", "key_press": -1, "type": "PRES_VIS", "word": "napkin", "wordID": 936, "conditions": [24, 800, "v", 24000], "trial": 6, "serialpos": 20, "trial_type": "single-stim", "trial_index": 233, "time_elapsed": 1054198, "internal_node_id": "0.0-170.0"}}, {"uniqueid": "MTK1287:3TS1AR6UQRL9VJ0MXF3YEHHWGN4F7O", "current_trial": 234, "dateTime": 1513537173460, "trialdata": {"rt": -1, "stimulus": "<p id=\"stim\">STAR</p>", "key_press": -1, "type": "PRES_VIS", "word": "star", "wordID": 1372, "conditions": [24, 800, "v", 24000], "trial": 6, "serialpos": 21, "trial_type": "single-stim", "trial_index": 234, "time_elapsed": 1056194, "internal_node_id": "0.0-171.0"}}, {"uniqueid": "MTK1287:3TS1AR6UQRL9VJ0MXF3YEHHWGN4F7O", "current_trial": 235, "dateTime": 1513537175328, "trialdata": {"rt": -1, "stimulus": "<p id=\"stim\">BLOUSE</p>", "key_press": -1, "type": "PRES_VIS", "word": "blouse", "wordID": 138, "conditions": [24, 800, "v", 24000], "trial": 6, "serialpos": 22, "trial_type": "single-stim", "trial_index": 235, "time_elapsed": 1058062, "internal_node_id": "0.0-172.0"}}, {"uniqueid": "MTK1287:3TS1AR6UQRL9VJ0MXF3YEHHWGN4F7O", "current_trial": 236, "dateTime": 1513537176935, "trialdata": {"rt": -1, "stimulus": "<p id=\"stim\">WOMAN</p>", "key_press": -1, "type": "PRES_VIS", "word": "woman", "wordID": 1619, "conditions": [24, 800, "v", 24000], "trial": 6, "serialpos": 23, "trial_type": "single-stim", "trial_index": 236, "time_elapsed": 1059669, "internal_node_id": "0.0-173.0"}}, {"uniqueid": "MTK1287:3TS1AR6UQRL9VJ0MXF3YEHHWGN4F7O", "current_trial": 237, "dateTime": 1513537179396, "trialdata": {"rt": -1, "stimulus": "", "key_press": -1, "type": "PRE_RECALL_DELAY", "trial_type": "single-stim", "trial_index": 237, "time_elapsed": 1062130, "internal_node_id": "0.0-174.0-0.0"}}, {"uniqueid": "MTK1287:3TS1AR6UQRL9VJ0MXF3YEHHWGN4F7O", "current_trial": 238, "dateTime": 1513537179960, "trialdata": {"rt": -1000, "stimulus": "/static/audio/400Hz.wav", "key_press": -1, "type": "PRE_RECALL_ALERT", "trial_type": "single-audio", "trial_index": 238, "time_elapsed": 1062694, "internal_node_id": "0.0-175.0"}}, {"uniqueid": "MTK1287:3TS1AR6UQRL9VJ0MXF3YEHHWGN4F7O", "current_trial": 239, "dateTime": 1513537239980, "trialdata": {"rt": [2412, 3862, 4757, 5741, 7412, 9150, 15097, 16350, 19709, 21402, 31868, 32961, 37147, 38377, 40382, 42686, 44033, 49132, 58114], "recwords": ["woman", "napkin", "star", "blouse", "queen", "princess", "sister", "daughter", "salmon", "oyster", "sword", "knife", "blade", "belly", "wrist", "airplane", "fleet", "popcorn", "author"], "type": "FREE_RECALL", "conditions": [24, 800, "v", 24000], "trial": 6, "trial_type": "free-recall", "trial_index": 239, "time_elapsed": 1122702, "internal_node_id": "0.0-176.0-0.0"}}, {"uniqueid": "MTK1287:3TS1AR6UQRL9VJ0MXF3YEHHWGN4F7O", "current_trial": 240, "dateTime": 1513537253044, "trialdata": {"rt": 11061, "key_press": 32, "type": "INSTRUCTIONS", "trial_type": "text", "trial_index": 240, "time_elapsed": 1135778, "internal_node_id": "0.0-177.0"}}, {"uniqueid": "MTK1287:3TS1AR6UQRL9VJ0MXF3YEHHWGN4F7O", "current_trial": 241, "dateTime": 1513537279063, "trialdata": {"rt": [1897, 4267, 7028, 9916, 11718, 13793, 15550, 18047, 21551], "responses": ["19", "15", "14", "18", "15", "19", "17", "12", "9"], "num1": [5, 1, 6, 3, 5, 5, 2, 4, 1, 5], "num2": [5, 6, 1, 6, 9, 5, 8, 7, 6, 3], "num3": [9, 8, 7, 9, 1, 9, 7, 1, 2, 9], "type": "DISTRACTOR", "conditions": [24, 1600, "v", 24000], "trial": 7, "trial_type": "math-distractor", "trial_index": 241, "time_elapsed": 1161797, "internal_node_id": "0.0-178.0"}}, {"uniqueid": "MTK1287:3TS1AR6UQRL9VJ0MXF3YEHHWGN4F7O", "current_trial": 242, "dateTime": 1513537282068, "trialdata": {"rt": -1, "stimulus": "<p id=\"stim\">10</p>", "key_press": -1, "trial_type": "single-stim", "trial_index": 242, "time_elapsed": 1164801, "internal_node_id": "0.0-179.0-0.0"}}, {"uniqueid": "MTK1287:3TS1AR6UQRL9VJ0MXF3YEHHWGN4F7O", "current_trial": 243, "dateTime": 1513537283070, "trialdata": {"rt": -1, "stimulus": "<p id=\"stim\">9</p>", "key_press": -1, "trial_type": "single-stim", "trial_index": 243, "time_elapsed": 1165804, "internal_node_id": "0.0-179.0-1.0"}}, {"uniqueid": "MTK1287:3TS1AR6UQRL9VJ0MXF3YEHHWGN4F7O", "current_trial": 244, "dateTime": 1513537284072, "trialdata": {"rt": -1, "stimulus": "<p id=\"stim\">8</p>", "key_press": -1, "trial_type": "single-stim", "trial_index": 244, "time_elapsed": 1166806, "internal_node_id": "0.0-179.0-2.0"}}, {"uniqueid": "MTK1287:3TS1AR6UQRL9VJ0MXF3YEHHWGN4F7O", "current_trial": 245, "dateTime": 1513537285074, "trialdata": {"rt": -1, "stimulus": "<p id=\"stim\">7</p>", "key_press": -1, "trial_type": "single-stim", "trial_index": 245, "time_elapsed": 1167808, "internal_node_id": "0.0-179.0-3.0"}}, {"uniqueid": "MTK1287:3TS1AR6UQRL9VJ0MXF3YEHHWGN4F7O", "current_trial": 246, "dateTime": 1513537286103, "trialdata": {"rt": -1, "stimulus": "<p id=\"stim\">6</p>", "key_press": -1, "trial_type": "single-stim", "trial_index": 246, "time_elapsed": 1168836, "internal_node_id": "0.0-179.0-4.0"}}, {"uniqueid": "MTK1287:3TS1AR6UQRL9VJ0MXF3YEHHWGN4F7O", "current_trial": 247, "dateTime": 1513537287110, "trialdata": {"rt": -1, "stimulus": "<p id=\"stim\">5</p>", "key_press": -1, "trial_type": "single-stim", "trial_index": 247, "time_elapsed": 1169844, "internal_node_id": "0.0-179.0-5.0"}}, {"uniqueid": "MTK1287:3TS1AR6UQRL9VJ0MXF3YEHHWGN4F7O", "current_trial": 248, "dateTime": 1513537288113, "trialdata": {"rt": -1, "stimulus": "<p id=\"stim\">4</p>", "key_press": -1, "trial_type": "single-stim", "trial_index": 248, "time_elapsed": 1170846, "internal_node_id": "0.0-179.0-6.0"}}, {"uniqueid": "MTK1287:3TS1AR6UQRL9VJ0MXF3YEHHWGN4F7O", "current_trial": 249, "dateTime": 1513537289115, "trialdata": {"rt": -1, "stimulus": "<p id=\"stim\">3</p>", "key_press": -1, "trial_type": "single-stim", "trial_index": 249, "time_elapsed": 1171849, "internal_node_id": "0.0-179.0-7.0"}}, {"uniqueid": "MTK1287:3TS1AR6UQRL9VJ0MXF3YEHHWGN4F7O", "current_trial": 250, "dateTime": 1513537290117, "trialdata": {"rt": -1, "stimulus": "<p id=\"stim\">2</p>", "key_press": -1, "trial_type": "single-stim", "trial_index": 250, "time_elapsed": 1172851, "internal_node_id": "0.0-179.0-8.0"}}, {"uniqueid": "MTK1287:3TS1AR6UQRL9VJ0MXF3YEHHWGN4F7O", "current_trial": 251, "dateTime": 1513537291119, "trialdata": {"rt": -1, "stimulus": "<p id=\"stim\">1</p>", "key_press": -1, "trial_type": "single-stim", "trial_index": 251, "time_elapsed": 1173853, "internal_node_id": "0.0-179.0-9.0"}}, {"uniqueid": "MTK1287:3TS1AR6UQRL9VJ0MXF3YEHHWGN4F7O", "current_trial": 252, "dateTime": 1513537292621, "trialdata": {"rt": -1, "stimulus": "<p id=\"stim\">+</p>", "key_press": -1, "type": "FIXATION", "trial_type": "single-stim", "trial_index": 252, "time_elapsed": 1175355, "internal_node_id": "0.0-180.0-0.0"}}, {"uniqueid": "MTK1287:3TS1AR6UQRL9VJ0MXF3YEHHWGN4F7O", "current_trial": 253, "dateTime": 1513537294232, "trialdata": {"rt": -1, "stimulus": "<p id=\"stim\">STUDENT</p>", "key_press": -1, "type": "PRES_VIS", "word": "student", "wordID": 1394, "conditions": [24, 1600, "v", 24000], "trial": 7, "serialpos": 0, "trial_type": "single-stim", "trial_index": 253, "time_elapsed": 1176965, "internal_node_id": "0.0-181.0"}}, {"uniqueid": "MTK1287:3TS1AR6UQRL9VJ0MXF3YEHHWGN4F7O", "current_trial": 254, "dateTime": 1513537296697, "trialdata": {"rt": -1, "stimulus": "<p id=\"stim\">COLLEGE</p>", "key_press": -1, "type": "PRES_VIS", "word": "college", "wordID": 345, "conditions": [24, 1600, "v", 24000], "trial": 7, "serialpos": 1, "trial_type": "single-stim", "trial_index": 254, "time_elapsed": 1179431, "internal_node_id": "0.0-182.0"}}, {"uniqueid": "MTK1287:3TS1AR6UQRL9VJ0MXF3YEHHWGN4F7O", "current_trial": 255, "dateTime": 1513537299270, "trialdata": {"rt": -1, "stimulus": "<p id=\"stim\">PEBBLE</p>", "key_press": -1, "type": "PRES_VIS", "word": "pebble", "wordID": 1034, "conditions": [24, 1600, "v", 24000], "trial": 7, "serialpos": 2, "trial_type": "single-stim", "trial_index": 255, "time_elapsed": 1182004, "internal_node_id": "0.0-183.0"}}, {"uniqueid": "MTK1287:3TS1AR6UQRL9VJ0MXF3YEHHWGN4F7O", "current_trial": 256, "dateTime": 1513537302036, "trialdata": {"rt": -1, "stimulus": "<p id=\"stim\">SNAIL</p>", "key_press": -1, "type": "PRES_VIS", "word": "snail", "wordID": 1331, "conditions": [24, 1600, "v", 24000], "trial": 7, "serialpos": 3, "trial_type": "single-stim", "trial_index": 256, "time_elapsed": 1184770, "internal_node_id": "0.0-184.0"}}, {"uniqueid": "MTK1287:3TS1AR6UQRL9VJ0MXF3YEHHWGN4F7O", "current_trial": 257, "dateTime": 1513537304606, "trialdata": {"rt": -1, "stimulus": "<p id=\"stim\">TART</p>", "key_press": -1, "type": "PRES_VIS", "word": "tart", "wordID": 1435, "conditions": [24, 1600, "v", 24000], "trial": 7, "serialpos": 4, "trial_type": "single-stim", "trial_index": 257, "time_elapsed": 1187339, "internal_node_id": "0.0-185.0"}}, {"uniqueid": "MTK1287:3TS1AR6UQRL9VJ0MXF3YEHHWGN4F7O", "current_trial": 258, "dateTime": 1513537307144, "trialdata": {"rt": -1, "stimulus": "<p id=\"stim\">FRIEND</p>", "key_press": -1, "type": "PRES_VIS", "word": "friend", "wordID": 605, "conditions": [24, 1600, "v", 24000], "trial": 7, "serialpos": 5, "trial_type": "single-stim", "trial_index": 258, "time_elapsed": 1189877, "internal_node_id": "0.0-186.0"}}, {"uniqueid": "MTK1287:3TS1AR6UQRL9VJ0MXF3YEHHWGN4F7O", "current_trial": 259, "dateTime": 1513537309797, "trialdata": {"rt": -1, "stimulus": "<p id=\"stim\">TRENCH</p>", "key_press": -1, "type": "PRES_VIS", "word": "trench", "wordID": 1502, "conditions": [24, 1600, "v", 24000], "trial": 7, "serialpos": 6, "trial_type": "single-stim", "trial_index": 259, "time_elapsed": 1192531, "internal_node_id": "0.0-187.0"}}, {"uniqueid": "MTK1287:3TS1AR6UQRL9VJ0MXF3YEHHWGN4F7O", "current_trial": 260, "dateTime": 1513537312535, "trialdata": {"rt": -1, "stimulus": "<p id=\"stim\">WORKER</p>", "key_press": -1, "type": "PRES_VIS", "word": "worker", "wordID": 1620, "conditions": [24, 1600, "v", 24000], "trial": 7, "serialpos": 7, "trial_type": "single-stim", "trial_index": 260, "time_elapsed": 1195269, "internal_node_id": "0.0-188.0"}}, {"uniqueid": "MTK1287:3TS1AR6UQRL9VJ0MXF3YEHHWGN4F7O", "current_trial": 261, "dateTime": 1513537314981, "trialdata": {"rt": -1, "stimulus": "<p id=\"stim\">RECORD</p>", "key_press": -1, "type": "PRES_VIS", "word": "record", "wordID": 1175, "conditions": [24, 1600, "v", 24000], "trial": 7, "serialpos": 8, "trial_type": "single-stim", "trial_index": 261, "time_elapsed": 1197715, "internal_node_id": "0.0-189.0"}}, {"uniqueid": "MTK1287:3TS1AR6UQRL9VJ0MXF3YEHHWGN4F7O", "current_trial": 262, "dateTime": 1513537317399, "trialdata": {"rt": -1, "stimulus": "<p id=\"stim\">UNCLE</p>", "key_press": -1, "type": "PRES_VIS", "word": "uncle", "wordID": 1535, "conditions": [24, 1600, "v", 24000], "trial": 7, "serialpos": 9, "trial_type": "single-stim", "trial_index": 262, "time_elapsed": 1200133, "internal_node_id": "0.0-190.0"}}, {"uniqueid": "MTK1287:3TS1AR6UQRL9VJ0MXF3YEHHWGN4F7O", "current_trial": 263, "dateTime": 1513537320138, "trialdata": {"rt": -1, "stimulus": "<p id=\"stim\">TRUCK</p>", "key_press": -1, "type": "PRES_VIS", "word": "truck", "wordID": 1511, "conditions": [24, 1600, "v", 24000], "trial": 7, "serialpos": 10, "trial_type": "single-stim", "trial_index": 263, "time_elapsed": 1202872, "internal_node_id": "0.0-191.0"}}, {"uniqueid": "MTK1287:3TS1AR6UQRL9VJ0MXF3YEHHWGN4F7O", "current_trial": 264, "dateTime": 1513537322633, "trialdata": {"rt": -1, "stimulus": "<p id=\"stim\">BUGGY</p>", "key_press": -1, "type": "PRES_VIS", "word": "buggy", "wordID": 187, "conditions": [24, 1600, "v", 24000], "trial": 7, "serialpos": 11, "trial_type": "single-stim", "trial_index": 264, "time_elapsed": 1205367, "internal_node_id": "0.0-192.0"}}, {"uniqueid": "MTK1287:3TS1AR6UQRL9VJ0MXF3YEHHWGN4F7O", "current_trial": 265, "dateTime": 1513537325126, "trialdata": {"rt": -1, "stimulus": "<p id=\"stim\">SUBWAY</p>", "key_press": -1, "type": "PRES_VIS", "word": "subway", "wordID": 1399, "conditions": [24, 1600, "v", 24000], "trial": 7, "serialpos": 12, "trial_type": "single-stim", "trial_index": 265, "time_elapsed": 1207860, "internal_node_id": "0.0-193.0"}}, {"uniqueid": "MTK1287:3TS1AR6UQRL9VJ0MXF3YEHHWGN4F7O", "current_trial": 266, "dateTime": 1513537327603, "trialdata": {"rt": -1, "stimulus": "<p id=\"stim\">FOX</p>", "key_press": -1, "type": "PRES_VIS", "word": "fox", "wordID": 597, "conditions": [24, 1600, "v", 24000], "trial": 7, "serialpos": 13, "trial_type": "single-stim", "trial_index": 266, "time_elapsed": 1210337, "internal_node_id": "0.0-194.0"}}, {"uniqueid": "MTK1287:3TS1AR6UQRL9VJ0MXF3YEHHWGN4F7O", "current_trial": 267, "dateTime": 1513537330062, "trialdata": {"rt": -1, "stimulus": "<p id=\"stim\">PIMPLE</p>", "key_press": -1, "type": "PRES_VIS", "word": "pimple", "wordID": 1070, "conditions": [24, 1600, "v", 24000], "trial": 7, "serialpos": 14, "trial_type": "single-stim", "trial_index": 267, "time_elapsed": 1212796, "internal_node_id": "0.0-195.0"}}, {"uniqueid": "MTK1287:3TS1AR6UQRL9VJ0MXF3YEHHWGN4F7O", "current_trial": 268, "dateTime": 1513537332465, "trialdata": {"rt": -1, "stimulus": "<p id=\"stim\">BREAST</p>", "key_press": -1, "type": "PRES_VIS", "word": "breast", "wordID": 170, "conditions": [24, 1600, "v", 24000], "trial": 7, "serialpos": 15, "trial_type": "single-stim", "trial_index": 268, "time_elapsed": 1215199, "internal_node_id": "0.0-196.0"}}, {"uniqueid": "MTK1287:3TS1AR6UQRL9VJ0MXF3YEHHWGN4F7O", "current_trial": 269, "dateTime": 1513537334904, "trialdata": {"rt": -1, "stimulus": "<p id=\"stim\">QUARTER</p>", "key_press": -1, "type": "PRES_VIS", "word": "quarter", "wordID": 1147, "conditions": [24, 1600, "v", 24000], "trial": 7, "serialpos": 16, "trial_type": "single-stim", "trial_index": 269, "time_elapsed": 1217637, "internal_node_id": "0.0-197.0"}}, {"uniqueid": "MTK1287:3TS1AR6UQRL9VJ0MXF3YEHHWGN4F7O", "current_trial": 270, "dateTime": 15135