{"assignmentId": "3IXQG4FA2U5NWLCZ7AFM9NHH02C9B2", "workerId": "MTK1936", "questiondata": {"origin": "United States", "strat-rehearsal": "13", "marital": "Married/Domestic Partnership", "education": "Some college", "ethnicity": "Not Hispanic", "color_depth": 24, "distracted": "No", "wrote-notes": "No", "strat-other": "I also tried to group them in my mind with by what they started with instead of the order they was done.", "screen_width": 1920, "avail_screen_width": 1920, "avail_screen_height": 1040, "strat-image": "56", "language": "English", "gender": "Male", "age": "33", "gender_other": "", "race": ["White"], "strat-categorize": "19", "pixel_depth": 24, "strat-spatial": "5", "strat-story": "5", "race_other": "", "screen_height": 1080}, "bonus": 0, "hitId": "3T5ZXGO9DEVNJYY74O19SGIPJYVZQ6", "counterbalance": 153, "useragent": "Mozilla/5.0 (Windows NT 10.0; Win64; x64) AppleWebKit/537.36 (KHTML, like Gecko) Chrome/63.0.3239.132 Safari/537.36", "eventdata": [{"eventtype": "initialized", "interval": 0, "value": null, "timestamp": 1516562209888}, {"eventtype": "window_resize", "interval": 0, "value": [1920, 1033], "timestamp": 1516562209888}, {"eventtype": "window_resize", "interval": 25744, "value": [1920, 989], "timestamp": 1516562235632}], "data": [{"current_trial": 0, "trialdata": {"rt": 2703, "trial_type": "text", "internal_node_id": "0.0-0.0", "time_elapsed": 2708, "key_press": 32, "type": "INSTRUCTIONS", "trial_index": 0}, "uniqueid": "MTK1936:3IXQG4FA2U5NWLCZ7AFM9NHH02C9B2", "dateTime": 1516562213205}, {"current_trial": 1, "trialdata": {"rt": 39098, "trial_type": "text", "internal_node_id": "0.0-1.0", "time_elapsed": 41811, "key_press": 120, "type": "INSTRUCTIONS", "trial_index": 1}, "uniqueid": "MTK1936:3IXQG4FA2U5NWLCZ7AFM9NHH02C9B2", "dateTime": 1516562252306}, {"current_trial": 2, "trialdata": {"rt": [157560], "trial_type": "audio-test", "responses": ["ocean"], "internal_node_id": "0.0-2.0", "time_elapsed": 199396, "type": "AUDIO_TEST", "trial_index": 2}, "uniqueid": "MTK1936:3IXQG4FA2U5NWLCZ7AFM9NHH02C9B2", "dateTime": 1516562409891}, {"current_trial": 3, "trialdata": {"rt": [5596], "trial_type": "audio-test", "responses": ["crystal"], "internal_node_id": "0.0-3.0", "time_elapsed": 205005, "type": "AUDIO_TEST", "trial_index": 3}, "uniqueid": "MTK1936:3IXQG4FA2U5NWLCZ7AFM9NHH02C9B2", "dateTime": 1516562415500}, {"current_trial": 4, "trialdata": {"rt": [5411], "trial_type": "audio-test", "responses": ["spice"], "internal_node_id": "0.0-4.0", "time_elapsed": 210427, "type": "AUDIO_TEST", "trial_index": 4}, "uniqueid": "MTK1936:3IXQG4FA2U5NWLCZ7AFM9NHH02C9B2", "dateTime": 1516562420922}, {"current_trial": 5, "trialdata": {"rt": 25923, "trial_type": "survey-text", "responses": "{\"Q0\":\"11:30pm\",\"Q1\":\"7:30am\",\"Q2\":\"5\"}", "internal_node_id": "0.0-5.0", "time_elapsed": 237106, "type": "SLEEP_SURVEY", "trial_index": 5}, "uniqueid": "MTK1936:3IXQG4FA2U5NWLCZ7AFM9NHH02C9B2", "dateTime": 1516562447602}, {"current_trial": 6, "trialdata": {"rt": 2306, "trial_type": "text", "internal_node_id": "0.0-6.0", "time_elapsed": 240415, "key_press": 179, "type": "INSTRUCTIONS", "trial_index": 6}, "uniqueid": "MTK1936:3IXQG4FA2U5NWLCZ7AFM9NHH02C9B2", "dateTime": 1516562450910}, {"current_trial": 7, "trialdata": {"rt": 61524, "trial_type": "text", "internal_node_id": "0.0-7.0", "time_elapsed": 302440, "key_press": 32, "type": "INSTRUCTIONS", "trial_index": 7}, "uniqueid": "MTK1936:3IXQG4FA2U5NWLCZ7AFM9NHH02C9B2", "dateTime": 1516562512936}, {"current_trial": 8, "trialdata": {"rt": 10460, "trial_type": "text", "internal_node_id": "0.0-8.0", "time_elapsed": 313402, "key_press": 32, "type": "INSTRUCTIONS", "trial_index": 8}, "uniqueid": "MTK1936:3IXQG4FA2U5NWLCZ7AFM9NHH02C9B2", "dateTime": 1516562523897}, {"current_trial": 9, "trialdata": {"rt": [6639, 9376, 10904, 13312, 15096, 17456], "trial_type": "math-distractor", "key_times": [5183, 5351, 5361, 6351, 6639, 8992, 9224, 9376, 10776, 10904, 13096, 13248, 13312, 14680, 14944, 15096, 17160, 17351, 17456], "responses": ["19", "18", "7", "11", "16", "15"], "num2": [3, 8, 1, 3, 4, 4, 5], "num3": [8, 8, 1, 6, 4, 8, 7], "conditions": [18, 1200, "v", 18000], "internal_node_id": "0.0-9.0", "key_presses": [97, 105, 106, 8, 13, 97, 104, 13, 103, 13, 97, 97, 13, 97, 102, 13, 97, 101, 13], "trial": 0, "time_elapsed": 332413, "type": "DISTRACTOR", "trial_index": 9, "num1": [8, 2, 5, 2, 8, 3, 9]}, "uniqueid": "MTK1936:3IXQG4FA2U5NWLCZ7AFM9NHH02C9B2", "dateTime": 1516562542908}, {"current_trial": 10, "trialdata": {"rt": -1, "trial_type": "single-stim", "stimulus": "<p id=\"stim\">10</p>", "internal_node_id": "0.0-10.0-0.0", "time_elapsed": 335415, "key_press": -1, "trial_index": 10}, "uniqueid": "MTK1936:3IXQG4FA2U5NWLCZ7AFM9NHH02C9B2", "dateTime": 1516562545911}, {"current_trial": 11, "trialdata": {"rt": -1, "trial_type": "single-stim", "stimulus": "<p id=\"stim\">9</p>", "internal_node_id": "0.0-10.0-1.0", "time_elapsed": 336417, "key_press": -1, "trial_index": 11}, "uniqueid": "MTK1936:3IXQG4FA2U5NWLCZ7AFM9NHH02C9B2", "dateTime": 1516562546912}, {"current_trial": 12, "trialdata": {"rt": -1, "trial_type": "single-stim", "stimulus": "<p id=\"stim\">8</p>", "internal_node_id": "0.0-10.0-2.0", "time_elapsed": 337418, "key_press": -1, "trial_index": 12}, "uniqueid": "MTK1936:3IXQG4FA2U5NWLCZ7AFM9NHH02C9B2", "dateTime": 1516562547914}, {"current_trial": 13, "trialdata": {"rt": -1, "trial_type": "single-stim", "stimulus": "<p id=\"stim\">7</p>", "internal_node_id": "0.0-10.0-3.0", "time_elapsed": 338420, "key_press": -1, "trial_index": 13}, "uniqueid": "MTK1936:3IXQG4FA2U5NWLCZ7AFM9NHH02C9B2", "dateTime": 1516562548915}, {"current_trial": 14, "trialdata": {"rt": -1, "trial_type": "single-stim", "stimulus": "<p id=\"stim\">6</p>", "internal_node_id": "0.0-10.0-4.0", "time_elapsed": 339421, "key_press": -1, "trial_index": 14}, "uniqueid": "MTK1936:3IXQG4FA2U5NWLCZ7AFM9NHH02C9B2", "dateTime": 1516562549916}, {"current_trial": 15, "trialdata": {"rt": -1, "trial_type": "single-stim", "stimulus": "<p id=\"stim\">5</p>", "internal_node_id": "0.0-10.0-5.0", "time_elapsed": 340422, "key_press": -1, "trial_index": 15}, "uniqueid": "MTK1936:3IXQG4FA2U5NWLCZ7AFM9NHH02C9B2", "dateTime": 1516562550917}, {"current_trial": 16, "trialdata": {"rt": -1, "trial_type": "single-stim", "stimulus": "<p id=\"stim\">4</p>", "internal_node_id": "0.0-10.0-6.0", "time_elapsed": 341423, "key_press": -1, "trial_index": 16}, "uniqueid": "MTK1936:3IXQG4FA2U5NWLCZ7AFM9NHH02C9B2", "dateTime": 1516562551918}, {"current_trial": 17, "trialdata": {"rt": -1, "trial_type": "single-stim", "stimulus": "<p id=\"stim\">3</p>", "internal_node_id": "0.0-10.0-7.0", "time_elapsed": 342426, "key_press": -1, "trial_index": 17}, "uniqueid": "MTK1936:3IXQG4FA2U5NWLCZ7AFM9NHH02C9B2", "dateTime": 1516562552921}, {"current_trial": 18, "trialdata": {"rt": -1, "trial_type": "single-stim", "stimulus": "<p id=\"stim\">2</p>", "internal_node_id": "0.0-10.0-8.0", "time_elapsed": 343427, "key_press": -1, "trial_index": 18}, "uniqueid": "MTK1936:3IXQG4FA2U5NWLCZ7AFM9NHH02C9B2", "dateTime": 1516562553922}, {"current_trial": 19, "trialdata": {"rt": -1, "trial_type": "single-stim", "stimulus": "<p id=\"stim\">1</p>", "internal_node_id": "0.0-10.0-9.0", "time_elapsed": 344428, "key_press": -1, "trial_index": 19}, "uniqueid": "MTK1936:3IXQG4FA2U5NWLCZ7AFM9NHH02C9B2", "dateTime": 1516562554923}, {"current_trial": 20, "trialdata": {"rt": -1, "trial_type": "single-stim", "stimulus": "<p id=\"stim\">+</p>", "internal_node_id": "0.0-11.0-0.0", "time_elapsed": 345930, "key_press": -1, "type": "FIXATION", "trial_index": 20}, "uniqueid": "MTK1936:3IXQG4FA2U5NWLCZ7AFM9NHH02C9B2", "dateTime": 1516562556425}, {"current_trial": 21, "trialdata": {"rt": -1, "trial_type": "single-stim", "word": "swimmer", "stimulus": "<p id=\"stim\">SWIMMER</p>", "conditions": [18, 1200, "v", 18000], "internal_node_id": "0.0-12.0", "trial": 0, "time_elapsed": 347132, "serialpos": 0, "key_press": -1, "wordID": 1419, "type": "PRES_VIS", "trial_index": 21}, "uniqueid": "MTK1936:3IXQG4FA2U5NWLCZ7AFM9NHH02C9B2", "dateTime": 1516562557627}, {"current_trial": 22, "trialdata": {"rt": -1, "trial_type": "single-stim", "word": "shirt", "stimulus": "<p id=\"stim\">SHIRT</p>", "conditions": [18, 1200, "v", 18000], "internal_node_id": "0.0-13.0", "trial": 0, "time_elapsed": 349386, "serialpos": 1, "key_press": -1, "wordID": 1286, "type": "PRES_VIS", "trial_index": 22}, "uniqueid": "MTK1936:3IXQG4FA2U5NWLCZ7AFM9NHH02C9B2", "dateTime": 1516562559881}, {"current_trial": 23, "trialdata": {"rt": -1, "trial_type": "single-stim", "word": "dust", "stimulus": "<p id=\"stim\">DUST</p>", "conditions": [18, 1200, "v", 18000], "internal_node_id": "0.0-14.0", "trial": 0, "time_elapsed": 351735, "serialpos": 2, "key_press": -1, "wordID": 507, "type": "PRES_VIS", "trial_index": 23}, "uniqueid": "MTK1936:3IXQG4FA2U5NWLCZ7AFM9NHH02C9B2", "dateTime": 1516562562230}, {"current_trial": 24, "trialdata": {"rt": -1, "trial_type": "single-stim", "word": "table", "stimulus": "<p id=\"stim\">TABLE</p>", "conditions": [18, 1200, "v", 18000], "internal_node_id": "0.0-15.0", "trial": 0, "time_elapsed": 354081, "serialpos": 3, "key_press": -1, "wordID": 1425, "type": "PRES_VIS", "trial_index": 24}, "uniqueid": "MTK1936:3IXQG4FA2U5NWLCZ7AFM9NHH02C9B2", "dateTime": 1516562564577}, {"current_trial": 25, "trialdata": {"rt": -1, "trial_type": "single-stim", "word": "queen", "stimulus": "<p id=\"stim\">QUEEN</p>", "conditions": [18, 1200, "v", 18000], "internal_node_id": "0.0-16.0", "trial": 0, "time_elapsed": 356248, "serialpos": 4, "key_press": -1, "wordID": 1148, "type": "PRES_VIS", "trial_index": 25}, "uniqueid": "MTK1936:3IXQG4FA2U5NWLCZ7AFM9NHH02C9B2", "dateTime": 1516562566743}, {"current_trial": 26, "trialdata": {"rt": -1, "trial_type": "single-stim", "word": "partner", "stimulus": "<p id=\"stim\">PARTNER</p>", "conditions": [18, 1200, "v", 18000], "internal_node_id": "0.0-17.0", "trial": 0, "time_elapsed": 358251, "serialpos": 5, "key_press": -1, "wordID": 1016, "type": "PRES_VIS", "trial_index": 26}, "uniqueid": "MTK1936:3IXQG4FA2U5NWLCZ7AFM9NHH02C9B2", "dateTime": 1516562568746}, {"current_trial": 27, "trialdata": {"rt": -1, "trial_type": "single-stim", "word": "uncle", "stimulus": "<p id=\"stim\">UNCLE</p>", "conditions": [18, 1200, "v", 18000], "internal_node_id": "0.0-18.0", "trial": 0, "time_elapsed": 360366, "serialpos": 6, "key_press": -1, "wordID": 1535, "type": "PRES_VIS", "trial_index": 27}, "uniqueid": "MTK1936:3IXQG4FA2U5NWLCZ7AFM9NHH02C9B2", "dateTime": 1516562570861}, {"current_trial": 28, "trialdata": {"rt": -1, "trial_type": "single-stim", "word": "dustpan", "stimulus": "<p id=\"stim\">DUSTPAN</p>", "conditions": [18, 1200, "v", 18000], "internal_node_id": "0.0-19.0", "trial": 0, "time_elapsed": 362718, "serialpos": 7, "key_press": -1, "wordID": 508, "type": "PRES_VIS", "trial_index": 28}, "uniqueid": "MTK1936:3IXQG4FA2U5NWLCZ7AFM9NHH02C9B2", "dateTime": 1516562573213}, {"current_trial": 29, "trialdata": {"rt": -1, "trial_type": "single-stim", "word": "star", "stimulus": "<p id=\"stim\">STAR</p>", "conditions": [18, 1200, "v", 18000], "internal_node_id": "0.0-20.0", "trial": 0, "time_elapsed": 365114, "serialpos": 8, "key_press": -1, "wordID": 1372, "type": "PRES_VIS", "trial_index": 29}, "uniqueid": "MTK1936:3IXQG4FA2U5NWLCZ7AFM9NHH02C9B2", "dateTime": 1516562575609}, {"current_trial": 30, "trialdata": {"rt": -1, "trial_type": "single-stim", "word": "velvet", "stimulus": "<p id=\"stim\">VELVET</p>", "conditions": [18, 1200, "v", 18000], "internal_node_id": "0.0-21.0", "trial": 0, "time_elapsed": 367246, "serialpos": 9, "key_press": -1, "wordID": 1554, "type": "PRES_VIS", "trial_index": 30}, "uniqueid": "MTK1936:3IXQG4FA2U5NWLCZ7AFM9NHH02C9B2", "dateTime": 1516562577741}, {"current_trial": 31, "trialdata": {"rt": -1, "trial_type": "single-stim", "word": "scribble", "stimulus": "<p id=\"stim\">SCRIBBLE</p>", "conditions": [18, 1200, "v", 18000], "internal_node_id": "0.0-22.0", "trial": 0, "time_elapsed": 369453, "serialpos": 10, "key_press": -1, "wordID": 1255, "type": "PRES_VIS", "trial_index": 31}, "uniqueid": "MTK1936:3IXQG4FA2U5NWLCZ7AFM9NHH02C9B2", "dateTime": 1516562579948}, {"current_trial": 32, "trialdata": {"rt": -1, "trial_type": "single-stim", "word": "spoon", "stimulus": "<p id=\"stim\">SPOON</p>", "conditions": [18, 1200, "v", 18000], "internal_node_id": "0.0-23.0", "trial": 0, "time_elapsed": 371738, "serialpos": 11, "key_press": -1, "wordID": 1356, "type": "PRES_VIS", "trial_index": 32}, "uniqueid": "MTK1936:3IXQG4FA2U5NWLCZ7AFM9NHH02C9B2", "dateTime": 1516562582233}, {"current_trial": 33, "trialdata": {"rt": -1, "trial_type": "single-stim", "word": "diver", "stimulus": "<p id=\"stim\">DIVER</p>", "conditions": [18, 1200, "v", 18000], "internal_node_id": "0.0-24.0", "trial": 0, "time_elapsed": 373880, "serialpos": 12, "key_press": -1, "wordID": 475, "type": "PRES_VIS", "trial_index": 33}, "uniqueid": "MTK1936:3IXQG4FA2U5NWLCZ7AFM9NHH02C9B2", "dateTime": 1516562584375}, {"current_trial": 34, "trialdata": {"rt": -1, "trial_type": "single-stim", "word": "peach", "stimulus": "<p id=\"stim\">PEACH</p>", "conditions": [18, 1200, "v", 18000], "internal_node_id": "0.0-25.0", "trial": 0, "time_elapsed": 376028, "serialpos": 13, "key_press": -1, "wordID": 1030, "type": "PRES_VIS", "trial_index": 34}, "uniqueid": "MTK1936:3IXQG4FA2U5NWLCZ7AFM9NHH02C9B2", "dateTime": 1516562586523}, {"current_trial": 35, "trialdata": {"rt": -1, "trial_type": "single-stim", "word": "icing", "stimulus": "<p id=\"stim\">ICING</p>", "conditions": [18, 1200, "v", 18000], "internal_node_id": "0.0-26.0", "trial": 0, "time_elapsed": 378333, "serialpos": 14, "key_press": -1, "wordID": 731, "type": "PRES_VIS", "trial_index": 35}, "uniqueid": "MTK1936:3IXQG4FA2U5NWLCZ7AFM9NHH02C9B2", "dateTime": 1516562588828}, {"current_trial": 36, "trialdata": {"rt": -1, "trial_type": "single-stim", "word": "possum", "stimulus": "<p id=\"stim\">POSSUM</p>", "conditions": [18, 1200, "v", 18000], "internal_node_id": "0.0-27.0", "trial": 0, "time_elapsed": 380688, "serialpos": 15, "key_press": -1, "wordID": 1111, "type": "PRES_VIS", "trial_index": 36}, "uniqueid": "MTK1936:3IXQG4FA2U5NWLCZ7AFM9NHH02C9B2", "dateTime": 1516562591183}, {"current_trial": 37, "trialdata": {"rt": -1, "trial_type": "single-stim", "word": "tortoise", "stimulus": "<p id=\"stim\">TORTOISE</p>", "conditions": [18, 1200, "v", 18000], "internal_node_id": "0.0-28.0", "trial": 0, "time_elapsed": 382757, "serialpos": 16, "key_press": -1, "wordID": 1485, "type": "PRES_VIS", "trial_index": 37}, "uniqueid": "MTK1936:3IXQG4FA2U5NWLCZ7AFM9NHH02C9B2", "dateTime": 1516562593252}, {"current_trial": 38, "trialdata": {"rt": -1, "trial_type": "single-stim", "word": "frame", "stimulus": "<p id=\"stim\">FRAME</p>", "conditions": [18, 1200, "v", 18000], "internal_node_id": "0.0-29.0", "trial": 0, "time_elapsed": 384942, "serialpos": 17, "key_press": -1, "wordID": 599, "type": "PRES_VIS", "trial_index": 38}, "uniqueid": "MTK1936:3IXQG4FA2U5NWLCZ7AFM9NHH02C9B2", "dateTime": 1516562595437}, {"current_trial": 39, "trialdata": {"rt": -1, "trial_type": "single-stim", "stimulus": "", "internal_node_id": "0.0-30.0-0.0", "time_elapsed": 387114, "key_press": -1, "type": "PRE_RECALL_DELAY", "trial_index": 39}, "uniqueid": "MTK1936:3IXQG4FA2U5NWLCZ7AFM9NHH02C9B2", "dateTime": 1516562597609}, {"current_trial": 40, "trialdata": {"rt": -1000, "trial_type": "single-audio", "stimulus": "/static/audio/400Hz.wav", "internal_node_id": "0.0-31.0", "time_elapsed": 387617, "key_press": -1, "type": "PRE_RECALL_ALERT", "trial_index": 40}, "uniqueid": "MTK1936:3IXQG4FA2U5NWLCZ7AFM9NHH02C9B2", "dateTime": 1516562598113}, {"current_trial": 41, "trialdata": {"rt": [6012, 9156, 10692, 13164, 16428, 19452, 26988, 30020, 32723, 35948, 38596, 41524, 44395, 48531, 51612, 54788], "recwords": ["swimmer", "dust", "table", "queen", "partner", "uncle", "dustpan", "star", "velvet", "scribble", "spoon", "diver", "peach", "icing", "possum", "tortise"], "key_times": [3165, 3268, 3500, 3900, 4244, 4452, 4604, 4764, 4876, 6012, 6964, 7372, 7596, 7780, 7876, 7996, 9156, 9372, 9604, 9692, 9916, 10044, 10692, 11316, 11524, 11996, 12300, 12492, 12636, 12796, 13164, 14788, 14948, 15148, 15612, 15820, 15956, 16076, 16428, 18164, 18308, 18596, 18708, 18868, 19452, 21380, 21588, 25364, 25564, 25716, 25916, 26148, 26236, 26324, 26524, 26628, 26732, 26988, 29308, 29436, 29660, 29748, 30020, 31453, 31636, 31756, 31908, 32100, 32212, 32723, 33611, 33787, 34091, 34411, 34635, 34788, 34948, 35124, 35948, 36692, 36812, 37068, 37196, 37348, 37388, 37876, 38068, 38220, 38596, 40524, 40668, 40820, 40988, 41076, 41524, 43387, 43571, 43644, 43940, 44115, 44395, 47916, 48027, 48139, 48219, 48403, 48531, 50147, 50363, 50611, 50980, 51116, 51340, 51612, 53300, 53452, 53596, 53852, 53964, 54188, 54284, 54788, 58940, 59068], "trial_type": "free-recall", "conditions": [18, 1200, "v", 18000], "internal_node_id": "0.0-32.0-0.0", "key_presses": [83, 87, 79, 8, 73, 77, 77, 69, 82, 13, 70, 8, 68, 85, 83, 84, 13, 84, 65, 66, 76, 69, 13, 81, 89, 8, 85, 69, 69, 78, 13, 80, 65, 82, 84, 78, 69, 82, 13, 85, 78, 67, 76, 69, 13, 80, 79, 8, 8, 8, 68, 85, 83, 84, 80, 65, 78, 13, 83, 84, 65, 82, 13, 86, 69, 76, 86, 69, 84, 13, 83, 67, 82, 73, 66, 66, 76, 69, 13, 83, 80, 79, 79, 79, 78, 8, 8, 78, 13, 68, 73, 86, 69, 82, 13, 80, 69, 65, 67, 72, 32, 73, 67, 73, 78, 71, 13, 80, 79, 83, 83, 85, 77, 13, 84, 79, 82, 84, 73, 83, 69, 13, 70, 82], "trial": 0, "time_elapsed": 447623, "type": "FREE_RECALL", "trial_index": 41}, "uniqueid": "MTK1936:3IXQG4FA2U5NWLCZ7AFM9NHH02C9B2", "dateTime": 1516562658124}, {"current_trial": 42, "trialdata": {"rt": 2219, "trial_type": "text", "internal_node_id": "0.0-33.0", "time_elapsed": 451849, "key_press": 13, "type": "INSTRUCTIONS", "trial_index": 42}, "uniqueid": "MTK1936:3IXQG4FA2U5NWLCZ7AFM9NHH02C9B2", "dateTime": 1516562662344}, {"current_trial": 43, "trialdata": {"rt": [3726, 5486, 7814, 9502, 11206, 13293, 14949, 16958], "trial_type": "math-distractor", "key_times": [3311, 3422, 3726, 5206, 5486, 7150, 7286, 7814, 9134, 9246, 9502, 10862, 11014, 11206, 12918, 13061, 13293, 14726, 14949, 16486, 16678, 16958], "responses": ["20", "6", "12", "18", "11", "10", "8", "19"], "num2": [5, 3, 5, 8, 3, 3, 3, 8, 2], "num3": [6, 2, 6, 8, 6, 2, 4, 3, 1], "conditions": [18, 1200, "v", 18000], "internal_node_id": "0.0-34.0", "key_presses": [98, 96, 13, 102, 13, 97, 98, 13, 97, 104, 13, 97, 97, 13, 97, 96, 13, 104, 13, 97, 105, 13], "trial": 1, "time_elapsed": 471852, "type": "DISTRACTOR", "trial_index": 43, "num1": [9, 1, 1, 2, 2, 5, 1, 8, 5]}, "uniqueid": "MTK1936:3IXQG4FA2U5NWLCZ7AFM9NHH02C9B2", "dateTime": 1516562682348}, {"current_trial": 44, "trialdata": {"rt": -1, "trial_type": "single-stim", "stimulus": "<p id=\"stim\">10</p>", "internal_node_id": "0.0-35.0-0.0", "time_elapsed": 474856, "key_press": -1, "trial_index": 44}, "uniqueid": "MTK1936:3IXQG4FA2U5NWLCZ7AFM9NHH02C9B2", "dateTime": 1516562685351}, {"current_trial": 45, "trialdata": {"rt": -1, "trial_type": "single-stim", "stimulus": "<p id=\"stim\">9</p>", "internal_node_id": "0.0-35.0-1.0", "time_elapsed": 475859, "key_press": -1, "trial_index": 45}, "uniqueid": "MTK1936:3IXQG4FA2U5NWLCZ7AFM9NHH02C9B2", "dateTime": 1516562686354}, {"current_trial": 46, "trialdata": {"rt": -1, "trial_type": "single-stim", "stimulus": "<p id=\"stim\">8</p>", "internal_node_id": "0.0-35.0-2.0", "time_elapsed": 476860, "key_press": -1, "trial_index": 46}, "uniqueid": "MTK1936:3IXQG4FA2U5NWLCZ7AFM9NHH02C9B2", "dateTime": 1516562687357}, {"current_trial": 47, "trialdata": {"rt": -1, "trial_type": "single-stim", "stimulus": "<p id=\"stim\">7</p>", "internal_node_id": "0.0-35.0-3.0", "time_elapsed": 477864, "key_press": -1, "trial_index": 47}, "uniqueid": "MTK1936:3IXQG4FA2U5NWLCZ7AFM9NHH02C9B2", "dateTime": 1516562688359}, {"current_trial": 48, "trialdata": {"rt": -1, "trial_type": "single-stim", "stimulus": "<p id=\"stim\">6</p>", "internal_node_id": "0.0-35.0-4.0", "time_elapsed": 478865, "key_press": -1, "trial_index": 48}, "uniqueid": "MTK1936:3IXQG4FA2U5NWLCZ7AFM9NHH02C9B2", "dateTime": 1516562689360}, {"current_trial": 49, "trialdata": {"rt": -1, "trial_type": "single-stim", "stimulus": "<p id=\"stim\">5</p>", "internal_node_id": "0.0-35.0-5.0", "time_elapsed": 479866, "key_press": -1, "trial_index": 49}, "uniqueid": "MTK1936:3IXQG4FA2U5NWLCZ7AFM9NHH02C9B2", "dateTime": 1516562690361}, {"current_trial": 50, "trialdata": {"rt": -1, "trial_type": "single-stim", "stimulus": "<p id=\"stim\">4</p>", "internal_node_id": "0.0-35.0-6.0", "time_elapsed": 480867, "key_press": -1, "trial_index": 50}, "uniqueid": "MTK1936:3IXQG4FA2U5NWLCZ7AFM9NHH02C9B2", "dateTime": 1516562691362}, {"current_trial": 51, "trialdata": {"rt": -1, "trial_type": "single-stim", "stimulus": "<p id=\"stim\">3</p>", "internal_node_id": "0.0-35.0-7.0", "time_elapsed": 481868, "key_press": -1, "trial_index": 51}, "uniqueid": "MTK1936:3IXQG4FA2U5NWLCZ7AFM9NHH02C9B2", "dateTime": 1516562692363}, {"current_trial": 52, "trialdata": {"rt": -1, "trial_type": "single-stim", "stimulus": "<p id=\"stim\">2</p>", "internal_node_id": "0.0-35.0-8.0", "time_elapsed": 482869, "key_press": -1, "trial_index": 52}, "uniqueid": "MTK1936:3IXQG4FA2U5NWLCZ7AFM9NHH02C9B2", "dateTime": 1516562693364}, {"current_trial": 53, "trialdata": {"rt": -1, "trial_type": "single-stim", "stimulus": "<p id=\"stim\">1</p>", "internal_node_id": "0.0-35.0-9.0", "time_elapsed": 483870, "key_press": -1, "trial_index": 53}, "uniqueid": "MTK1936:3IXQG4FA2U5NWLCZ7AFM9NHH02C9B2", "dateTime": 1516562694365}, {"current_trial": 54, "trialdata": {"rt": -1, "trial_type": "single-stim", "stimulus": "<p id=\"stim\">+</p>", "internal_node_id": "0.0-36.0-0.0", "time_elapsed": 485371, "key_press": -1, "type": "FIXATION", "trial_index": 54}, "uniqueid": "MTK1936:3IXQG4FA2U5NWLCZ7AFM9NHH02C9B2", "dateTime": 1516562695866}, {"current_trial": 55, "trialdata": {"rt": -1, "trial_type": "single-stim", "word": "hound", "stimulus": "<p id=\"stim\">HOUND</p>", "conditions": [18, 1200, "v", 18000], "internal_node_id": "0.0-37.0", "trial": 1, "time_elapsed": 486572, "serialpos": 0, "key_press": -1, "wordID": 723, "type": "PRES_VIS", "trial_index": 55}, "uniqueid": "MTK1936:3IXQG4FA2U5NWLCZ7AFM9NHH02C9B2", "dateTime": 1516562697067}, {"current_trial": 56, "trialdata": {"rt": -1, "trial_type": "single-stim", "word": "fiddle", "stimulus": "<p id=\"stim\">FIDDLE</p>", "conditions": [18, 1200, "v", 18000], "internal_node_id": "0.0-38.0", "trial": 1, "time_elapsed": 488811, "serialpos": 1, "key_press": -1, "wordID": 560, "type": "PRES_VIS", "trial_index": 56}, "uniqueid": "MTK1936:3IXQG4FA2U5NWLCZ7AFM9NHH02C9B2", "dateTime": 1516562699306}, {"current_trial": 57, "trialdata": {"rt": -1, "trial_type": "single-stim", "word": "drink", "stimulus": "<p id=\"stim\">DRINK</p>", "conditions": [18, 1200, "v", 18000], "internal_node_id": "0.0-39.0", "trial": 1, "time_elapsed": 490949, "serialpos": 2, "key_press": -1, "wordID": 497, "type": "PRES_VIS", "trial_index": 57}, "uniqueid": "MTK1936:3IXQG4FA2U5NWLCZ7AFM9NHH02C9B2", "dateTime": 1516562701444}, {"current_trial": 58, "trialdata": {"rt": -1, "trial_type": "single-stim", "word": "braces", "stimulus": "<p id=\"stim\">BRACES</p>", "conditions": [18, 1200, "v", 18000], "internal_node_id": "0.0-40.0", "trial": 1, "time_elapsed": 493283, "serialpos": 3, "key_press": -1, "wordID": 163, "type": "PRES_VIS", "trial_index": 58}, "uniqueid": "MTK1936:3IXQG4FA2U5NWLCZ7AFM9NHH02C9B2", "dateTime": 1516562703778}, {"current_trial": 59, "trialdata": {"rt": -1, "trial_type": "single-stim", "word": "spouse", "stimulus": "<p id=\"stim\">SPOUSE</p>", "conditions": [18, 1200, "v", 18000], "internal_node_id": "0.0-41.0", "trial": 1, "time_elapsed": 495306, "serialpos": 4, "key_press": -1, "wordID": 1357, "type": "PRES_VIS", "trial_index": 59}, "uniqueid": "MTK1936:3IXQG4FA2U5NWLCZ7AFM9NHH02C9B2", "dateTime": 1516562705801}, {"current_trial": 60, "trialdata": {"rt": -1, "trial_type": "single-stim", "word": "helmet", "stimulus": "<p id=\"stim\">HELMET</p>", "conditions": [18, 1200, "v", 18000], "internal_node_id": "0.0-42.0", "trial": 1, "time_elapsed": 497334, "serialpos": 5, "key_press": -1, "wordID": 701, "type": "PRES_VIS", "trial_index": 60}, "uniqueid": "MTK1936:3IXQG4FA2U5NWLCZ7AFM9NHH02C9B2", "dateTime": 1516562707829}, {"current_trial": 61, "trialdata": {"rt": -1, "trial_type": "single-stim", "word": "market", "stimulus": "<p id=\"stim\">MARKET</p>", "conditions": [18, 1200, "v", 18000], "internal_node_id": "0.0-43.0", "trial": 1, "time_elapsed": 499423, "serialpos": 6, "key_press": -1, "wordID": 870, "type": "PRES_VIS", "trial_index": 61}, "uniqueid": "MTK1936:3IXQG4FA2U5NWLCZ7AFM9NHH02C9B2", "dateTime": 1516562709918}, {"current_trial": 62, "trialdata": {"rt": -1, "trial_type": "single-stim", "word": "relish", "stimulus": "<p id=\"stim\">RELISH</p>", "conditions": [18, 1200, "v", 18000], "internal_node_id": "0.0-44.0", "trial": 1, "time_elapsed": 501543, "serialpos": 7, "key_press": -1, "wordID": 1182, "type": "PRES_VIS", "trial_index": 62}, "uniqueid": "MTK1936:3IXQG4FA2U5NWLCZ7AFM9NHH02C9B2", "dateTime": 1516562712039}, {"current_trial": 63, "trialdata": {"rt": -1, "trial_type": "single-stim", "word": "chemist", "stimulus": "<p id=\"stim\">CHEMIST</p>", "conditions": [18, 1200, "v", 18000], "internal_node_id": "0.0-45.0", "trial": 1, "time_elapsed": 503750, "serialpos": 8, "key_press": -1, "wordID": 291, "type": "PRES_VIS", "trial_index": 63}, "uniqueid": "MTK1936:3IXQG4FA2U5NWLCZ7AFM9NHH02C9B2", "dateTime": 1516562714245}, {"current_trial": 64, "trialdata": {"rt": -1, "trial_type": "single-stim", "word": "servant", "stimulus": "<p id=\"stim\">SERVANT</p>", "conditions": [18, 1200, "v", 18000], "internal_node_id": "0.0-46.0", "trial": 1, "time_elapsed": 506121, "serialpos": 9, "key_press": -1, "wordID": 1270, "type": "PRES_VIS", "trial_index": 64}, "uniqueid": "MTK1936:3IXQG4FA2U5NWLCZ7AFM9NHH02C9B2", "dateTime": 1516562716616}, {"current_trial": 65, "trialdata": {"rt": -1, "trial_type": "single-stim", "word": "outdoors", "stimulus": "<p id=\"stim\">OUTDOORS</p>", "conditions": [18, 1200, "v", 18000], "internal_node_id": "0.0-47.0", "trial": 1, "time_elapsed": 508315, "serialpos": 10, "key_press": -1, "wordID": 986, "type": "PRES_VIS", "trial_index": 65}, "uniqueid": "MTK1936:3IXQG4FA2U5NWLCZ7AFM9NHH02C9B2", "dateTime": 1516562718810}, {"current_trial": 66, "trialdata": {"rt": -1, "trial_type": "single-stim", "word": "scissors", "stimulus": "<p id=\"stim\">SCISSORS</p>", "conditions": [18, 1200, "v", 18000], "internal_node_id": "0.0-48.0", "trial": 1, "time_elapsed": 510536, "serialpos": 11, "key_press": -1, "wordID": 1249, "type": "PRES_VIS", "trial_index": 66}, "uniqueid": "MTK1936:3IXQG4FA2U5NWLCZ7AFM9NHH02C9B2", "dateTime": 1516562721031}, {"current_trial": 67, "trialdata": {"rt": -1, "trial_type": "single-stim", "word": "branch", "stimulus": "<p id=\"stim\">BRANCH</p>", "conditions": [18, 1200, "v", 18000], "internal_node_id": "0.0-49.0", "trial": 1, "time_elapsed": 512724, "serialpos": 12, "key_press": -1, "wordID": 167, "type": "PRES_VIS", "trial_index": 67}, "uniqueid": "MTK1936:3IXQG4FA2U5NWLCZ7AFM9NHH02C9B2", "dateTime": 1516562723219}, {"current_trial": 68, "trialdata": {"rt": -1, "trial_type": "single-stim", "word": "leopard", "stimulus": "<p id=\"stim\">LEOPARD</p>", "conditions": [18, 1200, "v", 18000], "internal_node_id": "0.0-50.0", "trial": 1, "time_elapsed": 515055, "serialpos": 13, "key_press": -1, "wordID": 811, "type": "PRES_VIS", "trial_index": 68}, "uniqueid": "MTK1936:3IXQG4FA2U5NWLCZ7AFM9NHH02C9B2", "dateTime": 1516562725554}, {"current_trial": 69, "trialdata": {"rt": -1, "trial_type": "single-stim", "word": "forest", "stimulus": "<p id=\"stim\">FOREST</p>", "conditions": [18, 1200, "v", 18000], "internal_node_id": "0.0-51.0", "trial": 1, "time_elapsed": 517073, "serialpos": 14, "key_press": -1, "wordID": 592, "type": "PRES_VIS", "trial_index": 69}, "uniqueid": "MTK1936:3IXQG4FA2U5NWLCZ7AFM9NHH02C9B2", "dateTime": 1516562727568}, {"current_trial": 70, "trialdata": {"rt": -1, "trial_type": "single-stim", "word": "cupboard", "stimulus": "<p id=\"stim\">CUPBOARD</p>", "conditions": [18, 1200, "v", 18000], "internal_node_id": "0.0-52.0", "trial": 1, "time_elapsed": 519409, "serialpos": 15, "key_press": -1, "wordID": 424, "type": "PRES_VIS", "trial_index": 70}, "uniqueid": "MTK1936:3IXQG4FA2U5NWLCZ7AFM9NHH02C9B2", "dateTime": 1516562729904}, {"current_trial": 71, "trialdata": {"rt": -1, "trial_type": "single-stim", "word": "termite", "stimulus": "<p id=\"stim\">TERMITE</p>", "conditions": [18, 1200, "v", 18000], "internal_node_id": "0.0-53.0", "trial": 1, "time_elapsed": 521575, "serialpos": 16, "key_press": -1, "wordID": 1450, "type": "PRES_VIS", "trial_index": 71}, "uniqueid": "MTK1936:3IXQG4FA2U5NWLCZ7AFM9NHH02C9B2", "dateTime": 1516562732070}, {"current_trial": 72, "trialdata": {"rt": -1, "trial_type": "single-stim", "word": "sponge", "stimulus": "<p id=\"stim\">SPONGE</p>", "conditions": [18, 1200, "v", 18000], "internal_node_id": "0.0-54.0", "trial": 1, "time_elapsed": 523577, "serialpos": 17, "key_press": -1, "wordID": 1354, "type": "PRES_VIS", "trial_index": 72}, "uniqueid": "MTK1936:3IXQG4FA2U5NWLCZ7AFM9NHH02C9B2", "dateTime": 1516562734072}, {"current_trial": 73, "trialdata": {"rt": -1, "trial_type": "single-stim", "stimulus": "", "internal_node_id": "0.0-55.0-0.0", "time_elapsed": 526042, "key_press": -1, "type": "PRE_RECALL_DELAY", "trial_index": 73}, "uniqueid": "MTK1936:3IXQG4FA2U5NWLCZ7AFM9NHH02C9B2", "dateTime": 1516562736537}, {"current_trial": 74, "trialdata": {"rt": -1000, "trial_type": "single-audio", "stimulus": "/static/audio/400Hz.wav", "internal_node_id": "0.0-56.0", "time_elapsed": 526545, "key_press": -1, "type": "PRE_RECALL_ALERT", "trial_index": 74}, "uniqueid": "MTK1936:3IXQG4FA2U5NWLCZ7AFM9NHH02C9B2", "dateTime": 1516562737040}, {"current_trial": 75, "trialdata": {"rt": [4572, 6380, 8476, 10948, 13012, 18772, 20532, 23748, 26605, 28765, 31245, 33877, 36004, 39741, 42535, 45677], "recwords": ["hound", "fiddle", "drink", "nraces", "spouse", "helmet", "market", "chemist", "servant", "outdoor", "scissors", "branch", "forest", "cupboard", "sponge", ""], "key_times": [1973, 2180, 2412, 2436, 2588, 2756, 3124, 3276, 3412, 3716, 3948, 4572, 5604, 5724, 5870, 6036, 6124, 6236, 6380, 7732, 7924, 8036, 8115, 8243, 8476, 9812, 9956, 10180, 10404, 10533, 10756, 10948, 11796, 12068, 12299, 12548, 12820, 12900, 13012, 14348, 14533, 14620, 15132, 15724, 15884, 16012, 16268, 16276, 17028, 17276, 17452, 17636, 17860, 18052, 18772, 19628, 19748, 19916, 20051, 20228, 20340, 20532, 21892, 22060, 22068, 22557, 22844, 22996, 23252, 23524, 23628, 23748, 25252, 25476, 25564, 25740, 25933, 26037, 26229, 26605, 27437, 27701, 27804, 28061, 28173, 28349, 28517, 28765, 29453, 29597, 30389, 30532, 30693, 30796, 31020, 31116, 31245, 32925, 33061, 33228, 33308, 33501, 33604, 33877, 35124, 35228, 35356, 35524, 35788, 35884, 36004, 36973, 37565, 37909, 37917, 38445, 39045, 39157, 39309, 39429, 39613, 39741, 41237, 41813, 41989, 42109, 42301, 42381, 42535, 45677], "trial_type": "free-recall", "conditions": [18, 1200, "v", 18000], "internal_node_id": "0.0-57.0-0.0", "key_presses": [72, 79, 85, 85, 78, 68, 8, 8, 8, 78, 68, 13, 70, 73, 68, 68, 76, 69, 13, 68, 82, 73, 78, 75, 13, 78, 82, 65, 67, 69, 83, 13, 83, 80, 79, 85, 83, 69, 13, 74, 69, 82, 8, 8, 8, 8, 72, 74, 8, 69, 76, 77, 69, 84, 13, 77, 65, 82, 75, 69, 84, 13, 67, 72, 74, 8, 69, 77, 73, 83, 84, 13, 83, 69, 82, 86, 65, 78, 84, 13, 79, 85, 84, 68, 79, 79, 82, 13, 83, 67, 73, 83, 83, 79, 82, 83, 13, 66, 82, 65, 78, 67, 72, 13, 70, 79, 82, 69, 83, 84, 13, 67, 85, 80, 219, 8, 66, 79, 65, 82, 68, 13, 83, 80, 79, 78, 71, 69, 13, 13], "trial": 1, "time_elapsed": 586552, "type": "FREE_RECALL", "trial_index": 75}, "uniqueid": "MTK1936:3IXQG4FA2U5NWLCZ7AFM9NHH02C9B2", "dateTime": 1516562797052}, {"current_trial": 76, "trialdata": {"rt": 13147, "trial_type": "text", "internal_node_id": "0.0-58.0", "time_elapsed": 601706, "key_press": 13, "type": "INSTRUCTIONS", "trial_index": 76}, "uniqueid": "MTK1936:3IXQG4FA2U5NWLCZ7AFM9NHH02C9B2", "dateTime": 1516562812201}, {"current_trial": 77, "trialdata": {"rt": [2021, 5420, 8556, 13052, 15781, 17437, 19205, 21533, 23380], "trial_type": "math-distractor", "key_times": [1389, 1549, 2021, 4348, 4469, 4470, 5268, 5420, 7940, 8028, 8556, 12085, 12180, 13052, 15245, 15405, 15781, 17037, 17165, 17437, 18853, 18997, 19205, 21196, 21365, 21533, 22789, 23092, 23380], "responses": ["11", "12", "17", "21", "18", "10", "10", "22", "13"], "num2": [7, 3, 7, 8, 6, 2, 4, 9, 1, 4], "num3": [3, 7, 2, 7, 7, 1, 5, 9, 6, 5], "conditions": [12, 1600, "v", 24000], "internal_node_id": "0.0-59.0", "key_presses": [97, 97, 13, 97, 98, 96, 8, 13, 97, 103, 13, 98, 97, 13, 97, 104, 13, 97, 96, 13, 97, 96, 13, 98, 98, 13, 97, 99, 13], "trial": 2, "time_elapsed": 626709, "type": "DISTRACTOR", "trial_index": 77, "num1": [1, 2, 8, 6, 5, 7, 1, 4, 6, 5]}, "uniqueid": "MTK1936:3IXQG4FA2U5NWLCZ7AFM9NHH02C9B2", "dateTime": 1516562837204}, {"current_trial": 78, "trialdata": {"rt": -1, "trial_type": "single-stim", "stimulus": "<p id=\"stim\">10</p>", "internal_node_id": "0.0-60.0-0.0", "time_elapsed": 629710, "key_press": -1, "trial_index": 78}, "uniqueid": "MTK1936:3IXQG4FA2U5NWLCZ7AFM9NHH02C9B2", "dateTime": 1516562840205}, {"current_trial": 79, "trialdata": {"rt": -1, "trial_type": "single-stim", "stimulus": "<p id=\"stim\">9</p>", "internal_node_id": "0.0-60.0-1.0", "time_elapsed": 630711, "key_press": -1, "trial_index": 79}, "uniqueid": "MTK1936:3IXQG4FA2U5NWLCZ7AFM9NHH02C9B2", "dateTime": 1516562841206}, {"current_trial": 80, "trialdata": {"rt": -1, "trial_type": "single-stim", "stimulus": "<p id=\"stim\">8</p>", "internal_node_id": "0.0-60.0-2.0", "time_elapsed": 631712, "key_press": -1, "trial_index": 80}, "uniqueid": "MTK1936:3IXQG4FA2U5NWLCZ7AFM9NHH02C9B2", "dateTime": 1516562842207}, {"current_trial": 81, "trialdata": {"rt": -1, "trial_type": "single-stim", "stimulus": "<p id=\"stim\">7</p>", "internal_node_id": "0.0-60.0-3.0", "time_elapsed": 632713, "key_press": -1, "trial_index": 81}, "uniqueid": "MTK1936:3IXQG4FA2U5NWLCZ7AFM9NHH02C9B2", "dateTime": 1516562843208}, {"current_trial": 82, "trialdata": {"rt": -1, "trial_type": "single-stim", "stimulus": "<p id=\"stim\">6</p>", "internal_node_id": "0.0-60.0-4.0", "time_elapsed": 633714, "key_press": -1, "trial_index": 82}, "uniqueid": "MTK1936:3IXQG4FA2U5NWLCZ7AFM9NHH02C9B2", "dateTime": 1516562844209}, {"current_trial": 83, "trialdata": {"rt": -1, "trial_type": "single-stim", "stimulus": "<p id=\"stim\">5</p>", "internal_node_id": "0.0-60.0-5.0", "time_elapsed": 634715, "key_press": -1, "trial_index": 83}, "uniqueid": "MTK1936:3IXQG4FA2U5NWLCZ7AFM9NHH02C9B2", "dateTime": 1516562845210}, {"current_trial": 84, "trialdata": {"rt": -1, "trial_type": "single-stim", "stimulus": "<p id=\"stim\">4</p>", "internal_node_id": "0.0-60.0-6.0", "time_elapsed": 635716, "key_press": -1, "trial_index": 84}, "uniqueid": "MTK1936:3IXQG4FA2U5NWLCZ7AFM9NHH02C9B2", "dateTime": 1516562846211}, {"current_trial": 85, "trialdata": {"rt": -1, "trial_type": "single-stim", "stimulus": "<p id=\"stim\">3</p>", "internal_node_id": "0.0-60.0-7.0", "time_elapsed": 636717, "key_press": -1, "trial_index": 85}, "uniqueid": "MTK1936:3IXQG4FA2U5NWLCZ7AFM9NHH02C9B2", "dateTime": 1516562847212}, {"current_trial": 86, "trialdata": {"rt": -1, "trial_type": "single-stim", "stimulus": "<p id=\"stim\">2</p>", "internal_node_id": "0.0-60.0-8.0", "time_elapsed": 637718, "key_press": -1, "trial_index": 86}, "uniqueid": "MTK1936:3IXQG4FA2U5NWLCZ7AFM9NHH02C9B2", "dateTime": 1516562848213}, {"current_trial": 87, "trialdata": {"rt": -1, "trial_type": "single-stim", "stimulus": "<p id=\"stim\">1</p>", "internal_node_id": "0.0-60.0-9.0", "time_elapsed": 638719, "key_press": -1, "trial_index": 87}, "uniqueid": "MTK1936:3IXQG4FA2U5NWLCZ7AFM9NHH02C9B2", "dateTime": 1516562849214}, {"current_trial": 88, "trialdata": {"rt": -1, "trial_type": "single-stim", "stimulus": "<p id=\"stim\">+</p>", "internal_node_id": "0.0-61.0-0.0", "time_elapsed": 640220, "key_press": -1, "type": "FIXATION", "trial_index": 88}, "uniqueid": "MTK1936:3IXQG4FA2U5NWLCZ7AFM9NHH02C9B2", "dateTime": 1516562850715}, {"current_trial": 89, "trialdata": {"rt": -1, "trial_type": "single-stim", "word": "compass", "stimulus": "<p id=\"stim\">COMPASS</p>", "conditions": [12, 1600, "v", 24000], "internal_node_id": "0.0-62.0", "trial": 2, "time_elapsed": 641822, "serialpos": 0, "key_press": -1, "wordID": 357, "type": "PRES_VIS", "trial_index": 89}, "uniqueid": "MTK1936:3IXQG4FA2U5NWLCZ7AFM9NHH02C9B2", "dateTime": 1516562852317}, {"current_trial": 90, "trialdata": {"rt": -1, "trial_type": "single-stim", "word": "brook", "stimulus": "<p id=\"stim\">BROOK</p>", "conditions": [12, 1600, "v", 24000], "internal_node_id": "0.0-63.0", "trial": 2, "time_elapsed": 644457, "serialpos": 1, "key_press": -1, "wordID": 176, "type": "PRES_VIS", "trial_index": 90}, "uniqueid": "MTK1936:3IXQG4FA2U5NWLCZ7AFM9NHH02C9B2", "dateTime": 1516562854952}, {"current_trial": 91, "trialdata": {"rt": -1, "trial_type": "single-stim", "word": "backbone", "stimulus": "<p id=\"stim\">BACKBONE</p>", "conditions": [12, 1600, "v", 24000], "internal_node_id": "0.0-64.0", "trial": 2, "time_elapsed": 647010, "serialpos": 2, "key_press": -1, "wordID": 65, "type": "PRES_VIS", "trial_index": 91}, "uniqueid": "MTK1936:3IXQG4FA2U5NWLCZ7AFM9NHH02C9B2", "dateTime": 1516562857505}, {"current_trial": 92, "trialdata": {"rt": -1, "trial_type": "single-stim", "word": "jelly", "stimulus": "<p id=\"stim\">JELLY</p>", "conditions": [12, 1600, "v", 24000], "internal_node_id": "0.0-65.0", "trial": 2, "time_elapsed": 649755, "serialpos": 3, "key_press": -1, "wordID": 754, "type": "PRES_VIS", "trial_index": 92}, "uniqueid": "MTK1936:3IXQG4FA2U5NWLCZ7AFM9NHH02C9B2", "dateTime": 1516562860250}, {"current_trial": 93, "trialdata": {"rt": -1, "trial_type": "single-stim", "word": "paper", "stimulus": "<p id=\"stim\">PAPER</p>", "conditions": [12, 1600, "v", 24000], "internal_node_id": "0.0-66.0", "trial": 2, "time_elapsed": 652175, "serialpos": 4, "key_press": -1, "wordID": 1010, "type": "PRES_VIS", "trial_index": 93}, "uniqueid": "MTK1936:3IXQG4FA2U5NWLCZ7AFM9NHH02C9B2", "dateTime": 1516562862670}, {"current_trial": 94, "trialdata": {"rt": -1, "trial_type": "single-stim", "word": "tourist", "stimulus": "<p id=\"stim\">TOURIST</p>", "conditions": [12, 1600, "v", 24000], "internal_node_id": "0.0-67.0", "trial": 2, "time_elapsed": 654656, "serialpos": 5, "key_press": -1, "wordID": 1487, "type": "PRES_VIS", "trial_index": 94}, "uniqueid": "MTK1936:3IXQG4FA2U5NWLCZ7AFM9NHH02C9B2", "dateTime": 1516562865151}, {"current_trial": 95, "trialdata": {"rt": -1, "trial_type": "single-stim", "word": "maple", "stimulus": "<p id=\"stim\">MAPLE</p>", "conditions": [12, 1600, "v", 24000], "internal_node_id": "0.0-68.0", "trial": 2, "time_elapsed": 657105, "serialpos": 6, "key_press": -1, "wordID": 865, "type": "PRES_VIS", "trial_index": 95}, "uniqueid": "MTK1936:3IXQG4FA2U5NWLCZ7AFM9NHH02C9B2", "dateTime": 1516562867600}, {"current_trial": 96, "trialdata": {"rt": -1, "trial_type": "single-stim", "word": "snake", "stimulus": "<p id=\"stim\">SNAKE</p>", "conditions": [12, 1600, "v", 24000], "internal_node_id": "0.0-69.0", "trial": 2, "time_elapsed": 659625, "serialpos": 7, "key_press": -1, "wordID": 1332, "type": "PRES_VIS", "trial_index": 96}, "uniqueid": "MTK1936:3IXQG4FA2U5NWLCZ7AFM9NHH02C9B2", "dateTime": 1516562870120}, {"current_trial": 97, "trialdata": {"rt": -1, "trial_type": "single-stim", "word": "banjo", "stimulus": "<p id=\"stim\">BANJO</p>", "conditions": [12, 1600, "v", 24000], "internal_node_id": "0.0-70.0", "trial": 2, "time_elapsed": 662300, "serialpos": 8, "key_press": -1, "wordID": 81, "type": "PRES_VIS", "trial_index": 97}, "uniqueid": "MTK1936:3IXQG4FA2U5NWLCZ7AFM9NHH02C9B2", "dateTime": 1516562872795}, {"current_trial": 98, "trialdata": {"rt": -1, "trial_type": "single-stim", "word": "piano", "stimulus": "<p id=\"stim\">PIANO</p>", "conditions": [12, 1600, "v", 24000], "internal_node_id": "0.0-71.0", "trial": 2, "time_elapsed": 664807, "serialpos": 9, "key_press": -1, "wordID": 1056, "type": "PRES_VIS", "trial_index": 98}, "uniqueid": "MTK1936:3IXQG4FA2U5NWLCZ7AFM9NHH02C9B2", "dateTime": 1516562875302}, {"current_trial": 99, "trialdata": {"rt": -1, "trial_type": "single-stim", "word": "river", "stimulus": "<p id=\"stim\">RIVER</p>", "conditions": [12, 1600, "v", 24000], "internal_node_id": "0.0-72.0", "trial": 2, "time_elapsed": 667380, "serialpos": 10, "key_press": -1, "wordID": 1193, "type": "PRES_VIS", "trial_index": 99}, "uniqueid": "MTK1936:3IXQG4FA2U5NWLCZ7AFM9NHH02C9B2", "dateTime": 1516562877875}, {"current_trial": 100, "trialdata": {"rt": -1, "trial_type": "single-stim", "word": "journal", "stimulus": "<p id=\"stim\">JOURNAL</p>", "conditions": [12, 1600, "v", 24000], "internal_node_id": "0.0-73.0", "trial": 2, "time_elapsed": 669926, "serialpos": 11, "key_press": -1, "wordID": 759, "type": "PRES_VIS", "trial_index": 100}, "uniqueid": "MTK1936:3IXQG4FA2U5NWLCZ7AFM9NHH02C9B2", "dateTime": 1516562880421}, {"current_trial": 101, "trialdata": {"rt": -1, "trial_type": "single-stim", "stimulus": "", "internal_node_id": "0.0-74.0-0.0", "time_elapsed": 671989, "key_press": -1, "type": "PRE_RECALL_DELAY", "trial_index": 101}, "uniqueid": "MTK1936:3IXQG4FA2U5NWLCZ7AFM9NHH02C9B2", "dateTime": 1516562882484}, {"current_trial": 102, "trialdata": {"rt": -1000, "trial_type": "single-audio", "stimulus": "/static/audio/400Hz.wav", "internal_node_id": "0.0-75.0", "time_elapsed": 672491, "key_press": -1, "type": "PRE_RECALL_ALERT", "trial_index": 102}, "uniqueid": "MTK1936:3IXQG4FA2U5NWLCZ7AFM9NHH02C9B2", "dateTime": 1516562882987}, {"current_trial": 103, "trialdata": {"rt": [4211, 7555, 10027, 12603, 15531, 18155, 20539, 22675, 25899, 28763, 30827, 33435, 53531], "recwords": ["compass", "brook", "backbone", "jelly", "paper", "tourist", "maple", "snake", "banjo", "piano", "river", "journal", ""], "key_times": [2908, 3243, 3323, 3515, 3643, 3780, 3915, 4211, 5459, 6051, 6211, 6299, 6523, 6747, 6883, 6955, 7555, 8427, 8683, 8923, 9059, 9603, 9707, 9803, 9907, 10027, 11699, 12043, 12131, 12299, 12443, 12603, 12612, 13443, 14995, 15099, 15171, 15371, 15467, 15531, 17155, 17243, 17459, 17587, 17715, 17835, 17931, 18155, 19739, 19883, 20155, 20251, 20371, 20539, 21987, 22163, 22275, 22403, 22515, 22675, 24076, 24307, 24387, 24603, 24611, 24699, 25171, 25331, 25587, 25899, 27091, 27355, 27483, 27539, 27779, 27786, 28315, 28763, 30099, 30307, 30482, 30683, 30763, 30827, 31554, 31722, 31915, 32042, 32170, 32330, 33122, 33435, 53531], "trial_type": "free-recall", "conditions": [12, 1600, "v", 24000], "internal_node_id": "0.0-76.0-0.0", "key_presses": [67, 79, 77, 80, 65, 83, 83, 13, 78, 8, 8, 66, 82, 79, 79, 75, 13, 66, 65, 67, 75, 66, 79, 78, 69, 13, 74, 69, 76, 76, 89, 13, 220, 8, 80, 65, 80, 69, 82, 13, 84, 79, 85, 82, 73, 83, 84, 13, 77, 65, 80, 76, 69, 13, 83, 78, 65, 75, 69, 13, 66, 65, 78, 74, 75, 79, 8, 8, 79, 13, 80, 73, 65, 78, 79, 80, 8, 13, 82, 73, 86, 69, 82, 13, 74, 79, 85, 82, 78, 65, 76, 13, 13], "trial": 2, "time_elapsed": 732497, "type": "FREE_RECALL", "trial_index": 103}, "uniqueid": "MTK1936:3IXQG4FA2U5NWLCZ7AFM9NHH02C9B2", "dateTime": 1516562942997}, {"current_trial": 104, "trialdata": {"rt": 1891, "trial_type": "text", "internal_node_id": "0.0-77.0", "time_elapsed": 736394, "key_press": 13, "type": "INSTRUCTIONS", "trial_index": 104}, "uniqueid": "MTK1936:3IXQG4FA2U5NWLCZ7AFM9NHH02C9B2", "dateTime": 1516562946889}, {"current_trial": 105, "trialdata": {"rt": [2356, 4284, 6099, 8012, 11739], "trial_type": "math-distractor", "key_times": [1564, 1716, 2356, 4100, 4236, 4284, 5731, 6099, 7779, 7883, 8012, 11459, 11619, 11739], "responses": ["19", "14", "7", "14", "22"], "num2": [8, 2, 1, 2, 9, 8], "num3": [8, 7, 3, 3, 6, 5], "conditions": [12, 1600, "v", 12000], "internal_node_id": "0.0-78.0", "key_presses": [97, 105, 13, 97, 100, 13, 103, 13, 97, 100, 13, 98, 98, 13], "trial": 3, "time_elapsed": 750398, "type": "DISTRACTOR", "trial_index": 105, "num1": [3, 5, 3, 9, 7, 8]}, "uniqueid": "MTK1936:3IXQG4FA2U5NWLCZ7AFM9NHH02C9B2", "dateTime": 1516562960893}, {"current_trial": 106, "trialdata": {"rt": -1, "trial_type": "single-stim", "stimulus": "<p id=\"stim\">10</p>", "internal_node_id": "0.0-79.0-0.0", "time_elapsed": 753399, "key_press": -1, "trial_index": 106}, "uniqueid": "MTK1936:3IXQG4FA2U5NWLCZ7AFM9NHH02C9B2", "dateTime": 1516562963895}, {"current_trial": 107, "trialdata": {"rt": -1, "trial_type": "single-stim", "stimulus": "<p id=\"stim\">9</p>", "internal_node_id": "0.0-79.0-1.0", "time_elapsed": 754401, "key_press": -1, "trial_index": 107}, "uniqueid": "MTK1936:3IXQG4FA2U5NWLCZ7AFM9NHH02C9B2", "dateTime": 1516562964896}, {"current_trial": 108, "trialdata": {"rt": -1, "trial_type": "single-stim", "stimulus": "<p id=\"stim\">8</p>", "internal_node_id": "0.0-79.0-2.0", "time_elapsed": 755403, "key_press": -1, "trial_index": 108}, "uniqueid": "MTK1936:3IXQG4FA2U5NWLCZ7AFM9NHH02C9B2", "dateTime": 1516562965898}, {"current_trial": 109, "trialdata": {"rt": -1, "trial_type": "single-stim", "stimulus": "<p id=\"stim\">7</p>", "internal_node_id": "0.0-79.0-3.0", "time_elapsed": 756404, "key_press": -1, "trial_index": 109}, "uniqueid": "MTK1936:3IXQG4FA2U5NWLCZ7AFM9NHH02C9B2", "dateTime": 1516562966899}, {"current_trial": 110, "trialdata": {"rt": -1, "trial_type": "single-stim", "stimulus": "<p id=\"stim\">6</p>", "internal_node_id": "0.0-79.0-4.0", "time_elapsed": 757405, "key_press": -1, "trial_index": 110}, "uniqueid": "MTK1936:3IXQG4FA2U5NWLCZ7AFM9NHH02C9B2", "dateTime": 1516562967900}, {"current_trial": 111, "trialdata": {"rt": -1, "trial_type": "single-stim", "stimulus": "<p id=\"stim\">5</p>", "internal_node_id": "0.0-79.0-5.0", "time_elapsed": 758407, "key_press": -1, "trial_index": 111}, "uniqueid": "MTK1936:3IXQG4FA2U5NWLCZ7AFM9NHH02C9B2", "dateTime": 1516562968902}, {"current_trial": 112, "trialdata": {"rt": -1, "trial_type": "single-stim", "stimulus": "<p id=\"stim\">4</p>", "internal_node_id": "0.0-79.0-6.0", "time_elapsed": 759408, "key_press": -1, "trial_index": 112}, "uniqueid": "MTK1936:3IXQG4FA2U5NWLCZ7AFM9NHH02C9B2", "dateTime": 1516562969903}, {"current_trial": 113, "trialdata": {"rt": -1, "trial_type": "single-stim", "stimulus": "<p id=\"stim\">3</p>", "internal_node_id": "0.0-79.0-7.0", "time_elapsed": 760409, "key_press": -1, "trial_index": 113}, "uniqueid": "MTK1936:3IXQG4FA2U5NWLCZ7AFM9NHH02C9B2", "dateTime": 1516562970904}, {"current_trial": 114, "trialdata": {"rt": -1, "trial_type": "single-stim", "stimulus": "<p id=\"stim\">2</p>", "internal_node_id": "0.0-79.0-8.0", "time_elapsed": 761410, "key_press": -1, "trial_index": 114}, "uniqueid": "MTK1936:3IXQG4FA2U5NWLCZ7AFM9NHH02C9B2", "dateTime": 1516562971905}, {"current_trial": 115, "trialdata": {"rt": -1, "trial_type": "single-stim", "stimulus": "<p id=\"stim\">1</p>", "internal_node_id": "0.0-79.0-9.0", "time_elapsed": 762412, "key_press": -1, "trial_index": 115}, "uniqueid": "MTK1936:3IXQG4FA2U5NWLCZ7AFM9NHH02C9B2", "dateTime": 1516562972907}, {"current_trial": 116, "trialdata": {"rt": -1, "trial_type": "single-stim", "stimulus": "<p id=\"stim\">+</p>", "internal_node_id": "0.0-80.0-0.0", "time_elapsed": 763913, "key_press": -1, "type": "FIXATION", "trial_index": 116}, "uniqueid": "MTK1936:3IXQG4FA2U5NWLCZ7AFM9NHH02C9B2", "dateTime": 1516562974408}, {"current_trial": 117, "trialdata": {"rt": -1, "trial_type": "single-stim", "word": "fragrance", "stimulus": "<p id=\"stim\">FRAGRANCE</p>", "conditions": [12, 1600, "v", 12000], "internal_node_id": "0.0-81.0", "trial": 3, "time_elapsed": 765514, "serialpos": 0, "key_press": -1, "wordID": 598, "type": "PRES_VIS", "trial_index": 117}, "uniqueid": "MTK1936:3IXQG4FA2U5NWLCZ7AFM9NHH02C9B2", "dateTime": 1516562976009}, {"current_trial": 118, "trialdata": {"rt": -1, "trial_type": "single-stim", "word": "flute", "stimulus": "<p id=\"stim\">FLUTE</p>", "conditions": [12, 1600, "v", 12000], "internal_node_id": "0.0-82.0", "trial": 3, "time_elapsed": 768207, "serialpos": 1, "key_press": -1, "wordID": 584, "type": "PRES_VIS", "trial_index": 118}, "uniqueid": "MTK1936:3IXQG4FA2U5NWLCZ7AFM9NHH02C9B2", "dateTime": 1516562978702}, {"current_trial": 119, "trialdata": {"rt": -1, "trial_type": "single-stim", "word": "contract", "stimulus": "<p id=\"stim\">CONTRACT</p>", "conditions": [12, 1600, "v", 12000], "internal_node_id": "0.0-83.0", "trial": 3, "time_elapsed": 770923, "serialpos": 2, "key_press": -1, "wordID": 367, "type": "PRES_VIS", "trial_index": 119}, "uniqueid": "MTK1936:3IXQG4FA2U5NWLCZ7AFM9NHH02C9B2", "dateTime": 1516562981418}, {"current_trial": 120, "trialdata": {"rt": -1, "trial_type": "single-stim", "word": "summit", "stimulus": "<p id=\"stim\">SUMMIT</p>", "conditions": [12, 1600, "v", 12000], "internal_node_id": "0.0-84.0", "trial": 3, "time_elapsed": 773546, "serialpos": 3, "key_press": -1, "wordID": 1404, "type": "PRES_VIS", "trial_index": 120}, "uniqueid": "MTK1936:3IXQG4FA2U5NWLCZ7AFM9NHH02C9B2", "dateTime": 1516562984041}, {"current_trial": 121, "trialdata": {"rt": -1, "trial_type": "single-stim", "word": "space", "stimulus": "<p id=\"stim\">SPACE</p>", "conditions": [12, 1600, "v", 12000], "internal_node_id": "0.0-85.0", "trial": 3, "time_elapsed": 776030, "serialpos": 4, "key_press": -1, "wordID": 1344, "type": "PRES_VIS", "trial_index": 121}, "uniqueid": "MTK1936:3IXQG4FA2U5NWLCZ7AFM9NHH02C9B2", "dateTime": 1516562986525}, {"current_trial": 122, "trialdata": {"rt": -1, "trial_type": "single-stim", "word": "county", "stimulus": "<p id=\"stim\">COUNTY</p>", "conditions": [12, 1600, "v", 12000], "internal_node_id": "0.0-86.0", "trial": 3, "time_elapsed": 778612, "serialpos": 5, "key_press": -1, "wordID": 388, "type": "PRES_VIS", "trial_index": 122}, "uniqueid": "MTK1936:3IXQG4FA2U5NWLCZ7AFM9NHH02C9B2", "dateTime": 1516562989107}, {"current_trial": 123, "trialdata": {"rt": -1, "trial_type": "single-stim", "word": "sheriff", "stimulus": "<p id=\"stim\">SHERIFF</p>", "conditions": [12, 1600, "v", 12000], "internal_node_id": "0.0-87.0", "trial": 3, "time_elapsed": 781189, "serialpos": 6, "key_press": -1, "wordID": 1283, "type": "PRES_VIS", "trial_index": 123}, "uniqueid": "MTK1936:3IXQG4FA2U5NWLCZ7AFM9NHH02C9B2", "dateTime": 1516562991684}, {"current_trial": 124, "trialdata": {"rt": -1, "trial_type": "single-stim", "word": "statue", "stimulus": "<p id=\"stim\">STATUE</p>", "conditions": [12, 1600, "v", 12000], "internal_node_id": "0.0-88.0", "trial": 3, "time_elapsed": 783809, "serialpos": 7, "key_press": -1, "wordID": 1373, "type": "PRES_VIS", "trial_index": 124}, "uniqueid": "MTK1936:3IXQG4FA2U5NWLCZ7AFM9NHH02C9B2", "dateTime": 1516562994304}, {"current_trial": 125, "trialdata": {"rt": -1, "trial_type": "single-stim", "word": "turtle", "stimulus": "<p id=\"stim\">TURTLE</p>", "conditions": [12, 1600, "v", 12000], "internal_node_id": "0.0-89.0", "trial": 3, "time_elapsed": 786561, "serialpos": 8, "key_press": -1, "wordID": 1521, "type": "PRES_VIS", "trial_index": 125}, "uniqueid": "MTK1936:3IXQG4FA2U5NWLCZ7AFM9NHH02C9B2", "dateTime": 1516562997056}, {"current_trial": 126, "trialdata": {"rt": -1, "trial_type": "single-stim", "word": "dolphin", "stimulus": "<p id=\"stim\">DOLPHIN</p>", "conditions": [12, 1600, "v", 12000], "internal_node_id": "0.0-90.0", "trial": 3, "time_elapsed": 789145, "serialpos": 9, "key_press": -1, "wordID": 482, "type": "PRES_VIS", "trial_index": 126}, "uniqueid": "MTK1936:3IXQG4FA2U5NWLCZ7AFM9NHH02C9B2", "dateTime": 1516562999640}, {"current_trial": 127, "trialdata": {"rt": -1, "trial_type": "single-stim", "word": "perfume", "stimulus": "<p id=\"stim\">PERFUME</p>", "conditions": [12, 1600, "v", 12000], "internal_node_id": "0.0-91.0", "trial": 3, "time_elapsed": 791704, "serialpos": 10, "key_press": -1, "wordID": 1048, "type": "PRES_VIS", "trial_index": 127}, "uniqueid": "MTK1936:3IXQG4FA2U5NWLCZ7AFM9NHH02C9B2", "dateTime": 1516563002199}, {"current_trial": 128, "trialdata": {"rt": -1, "trial_type": "single-stim", "word": "freezer", "stimulus": "<p id=\"stim\">FREEZER</p>", "conditions": [12, 1600, "v", 12000], "internal_node_id": "0.0-92.0", "trial": 3, "time_elapsed": 794369, "serialpos": 11, "key_press": -1, "wordID": 603, "type": "PRES_VIS", "trial_index": 128}, "uniqueid": "MTK1936:3IXQG4FA2U5NWLCZ7AFM9NHH02C9B2", "dateTime": 1516563004864}, {"current_trial": 129, "trialdata": {"rt": -1, "trial_type": "single-stim", "stimulus": "", "internal_node_id": "0.0-93.0-0.0", "time_elapsed": 796644, "key_press": -1, "type": "PRE_RECALL_DELAY", "trial_index": 129}, "uniqueid": "MTK1936:3IXQG4FA2U5NWLCZ7AFM9NHH02C9B2", "dateTime": 1516563007139}, {"current_trial": 130, "trialdata": {"rt": -1000, "trial_type": "single-audio", "stimulus": "/static/audio/400Hz.wav", "internal_node_id": "0.0-94.0", "time_elapsed": 797146, "key_press": -1, "type": "PRE_RECALL_ALERT", "trial_index": 130}, "uniqueid": "MTK1936:3IXQG4FA2U5NWLCZ7AFM9NHH02C9B2", "dateTime": 1516563007641}, {"current_trial": 131, "trialdata": {"rt": [5092, 7388, 12388, 14404, 16460, 18996, 20676, 22700, 25644, 31540, 33243, 35571], "recwords": ["frangrance", "flute", "contract", "summitt", "space", "county", "sheriff", "statue", "turtle", "dolphine", "perfume", "freezer"], "key_times": [2869, 3292, 3348, 3619, 3796, 4004, 4052, 4316, 4412, 4564, 4628, 5092, 6684, 6788, 7019, 7140, 7220, 7388, 8692, 10356, 10572, 10788, 10852, 11092, 11228, 11508, 12388, 13052, 13196, 13444, 13612, 13732, 13908, 14108, 14404, 15651, 15830, 15924, 16188, 16252, 16460, 17836, 17988, 18308, 18412, 18628, 18732, 18996, 19571, 19755, 19908, 19988, 20140, 20316, 20476, 20676, 21532, 21700, 21900, 22140, 22324, 22516, 22700, 24333, 24540, 24908, 25132, 25292, 25436, 25644, 27667, 27996, 28204, 28620, 28884, 29308, 29500, 29676, 29684, 30212, 30515, 30635, 31540, 32316, 32436, 32508, 32764, 32827, 32924, 33059, 33243, 34380, 34460, 34699, 34843, 35123, 35371, 35459, 35571], "trial_type": "free-recall", "conditions": [12, 1600, "v", 12000], "internal_node_id": "0.0-95.0-0.0", "key_presses": [20, 70, 82, 65, 78, 71, 82, 65, 78, 67, 69, 13, 70, 76, 85, 84, 69, 13, 67, 79, 78, 84, 82, 65, 67, 84, 13, 83, 85, 77, 77, 73, 84, 84, 13, 83, 80, 65, 67, 69, 13, 67, 79, 85, 78, 84, 89, 13, 83, 72, 69, 82, 73, 70, 70, 13, 83, 84, 65, 84, 85, 69, 13, 84, 85, 82, 84, 76, 69, 13, 68, 79, 76, 80, 74, 8, 72, 73, 79, 8, 78, 69, 13, 80, 69, 82, 70, 85, 77, 69, 13, 70, 82, 69, 69, 90, 69, 82, 13], "trial": 3, "time_elapsed": 857150, "type": "FREE_RECALL", "trial_index": 131}, "uniqueid": "MTK1936:3IXQG4FA2U5NWLCZ7AFM9NHH02C9B2", "dateTime": 1516563067652}, {"current_trial": 132, "trialdata": {"rt": 1515, "trial_type": "text", "internal_node_id": "0.0-96.0", "time_elapsed": 860673, "key_press": 32, "type": "INSTRUCTIONS", "trial_index": 132}, "uniqueid": "MTK1936:3IXQG4FA2U5NWLCZ7AFM9NHH02C9B2", "dateTime": 1516563071168}, {"current_trial": 133, "trialdata": {"rt": [4812, 8709, 11261, 13532, 15388, 18124, 21036, 23340], "trial_type": "math-distractor", "key_times": [2140, 3612, 4812, 8365, 8509, 8709, 10541, 10725, 11261, 13220, 13532, 14972, 15140, 15388, 17492, 17756, 18124, 20605, 20756, 21036, 23028, 23340], "responses": ["26", "22", "19", "7", "18", "23", "18", "8"], "num2": [9, 7, 8, 2, 6, 7, 5, 1, 5], "num3": [9, 7, 9, 4, 7, 9, 4, 3, 3], "conditions": [12, 800, "v", 24000], "internal_node_id": "0.0-97.0", "key_presses": [98, 102, 13, 98, 98, 13, 97, 105, 13, 103, 13, 97, 104, 13, 98, 99, 13, 97, 104, 13, 104, 13], "trial": 4, "time_elapsed": 886676, "type": "DISTRACTOR", "trial_index": 133, "num1": [8, 8, 2, 1, 5, 7, 9, 4, 6]}, "uniqueid": "MTK1936:3IXQG4FA2U5NWLCZ7AFM9NHH02C9B2", "dateTime": 1516563097171}, {"current_trial": 134, "trialdata": {"rt": -1, "trial_type": "single-stim", "stimulus": "<p id=\"stim\">10</p>", "internal_node_id": "0.0-98.0-0.0", "time_elapsed": 889679, "key_press": -1, "trial_index": 134}, "uniqueid": "MTK1936:3IXQG4FA2U5NWLCZ7AFM9NHH02C9B2", "dateTime": 1516563100174}, {"current_trial": 135, "trialdata": {"rt": -1, "trial_type": "single-stim", "stimulus": "<p id=\"stim\">9</p>", "internal_node_id": "0.0-98.0-1.0", "time_elapsed": 890681, "key_press": -1, "trial_index": 135}, "uniqueid": "MTK1936:3IXQG4FA2U5NWLCZ7AFM9NHH02C9B2", "dateTime": 1516563101176}, {"current_trial": 136, "trialdata": {"rt": -1, "trial_type": "single-stim", "stimulus": "<p id=\"stim\">8</p>", "internal_node_id": "0.0-98.0-2.0", "time_elapsed": 891682, "key_press": -1, "trial_index": 136}, "uniqueid": "MTK1936:3IXQG4FA2U5NWLCZ7AFM9NHH02C9B2", "dateTime": 1516563102177}, {"current_trial": 137, "trialdata": {"rt": -1, "trial_type": "single-stim", "stimulus": "<p id=\"stim\">7</p>", "internal_node_id": "0.0-98.0-3.0", "time_elapsed": 892683, "key_press": -1, "trial_index": 137}, "uniqueid": "MTK1936:3IXQG4FA2U5NWLCZ7AFM9NHH02C9B2", "dateTime": 1516563103178}, {"current_trial": 138, "trialdata": {"rt": -1, "trial_type": "single-stim", "stimulus": "<p id=\"stim\">6</p>", "internal_node_id": "0.0-98.0-4.0", "time_elapsed": 893684, "key_press": -1, "trial_index": 138}, "uniqueid": "MTK1936:3IXQG4FA2U5NWLCZ7AFM9NHH02C9B2", "dateTime": 1516563104179}, {"current_trial": 139, "trialdata": {"rt": -1, "trial_type": "single-stim", "stimulus": "<p id=\"stim\">5</p>", "internal_node_id": "0.0-98.0-5.0", "time_elapsed": 894686, "key_press": -1, "trial_index": 139}, "uniqueid": "MTK1936:3IXQG4FA2U5NWLCZ7AFM9NHH02C9B2", "dateTime": 1516563105181}, {"current_trial": 140, "trialdata": {"rt": -1, "trial_type": "single-stim", "stimulus": "<p id=\"stim\">4</p>", "internal_node_id": "0.0-98.0-6.0", "time_elapsed": 895687, "key_press": -1, "trial_index": 140}, "uniqueid": "MTK1936:3IXQG4FA2U5NWLCZ7AFM9NHH02C9B2", "dateTime": 1516563106182}, {"current_trial": 141, "trialdata": {"rt": -1, "trial_type": "single-stim", "stimulus": "<p id=\"stim\">3</p>", "internal_node_id": "0.0-98.0-7.0", "time_elapsed": 896688, "key_press": -1, "trial_index": 141}, "uniqueid": "MTK1936:3IXQG4FA2U5NWLCZ7AFM9NHH02C9B2", "dateTime": 1516563107183}, {"current_trial": 142, "trialdata": {"rt": -1, "trial_type": "single-stim", "stimulus": "<p id=\"stim\">2</p>", "internal_node_id": "0.0-98.0-8.0", "time_elapsed": 897689, "key_press": -1, "trial_index": 142}, "uniqueid": "MTK1936:3IXQG4FA2U5NWLCZ7AFM9NHH02C9B2", "dateTime": 1516563108184}, {"current_trial": 143, "trialdata": {"rt": -1, "trial_type": "single-stim", "stimulus": "<p id=\"stim\">1</p>", "internal_node_id": "0.0-98.0-9.0", "time_elapsed": 898691, "key_press": -1, "trial_index": 143}, "uniqueid": "MTK1936:3IXQG4FA2U5NWLCZ7AFM9NHH02C9B2", "dateTime": 1516563109186}, {"current_trial": 144, "trialdata": {"rt": -1, "trial_type": "single-stim", "stimulus": "<p id=\"stim\">+</p>", "internal_node_id": "0.0-99.0-0.0", "time_elapsed": 900192, "key_press": -1, "type": "FIXATION", "trial_index": 144}, "uniqueid": "MTK1936:3IXQG4FA2U5NWLCZ7AFM9NHH02C9B2", "dateTime": 1516563110687}, {"current_trial": 145, "trialdata": {"rt": -1, "trial_type": "single-stim", "word": "sandwich", "stimulus": "<p id=\"stim\">SANDWICH</p>", "conditions": [12, 800, "v", 24000], "internal_node_id": "0.0-100.0", "trial": 4, "time_elapsed": 900993, "serialpos": 0, "key_press": -1, "wordID": 1231, "type": "PRES_VIS", "trial_index": 145}, "uniqueid": "MTK1936:3IXQG4FA2U5NWLCZ7AFM9NHH02C9B2", "dateTime": 1516563111488}, {"current_trial": 146, "trialdata": {"rt": -1, "trial_type": "single-stim", "word": "worker", "stimulus": "<p id=\"stim\">WORKER</p>", "conditions": [12, 800, "v", 24000], "internal_node_id": "0.0-101.0", "trial": 4, "time_elapsed": 902931, "serialpos": 1, "key_press": -1, "wordID": 1620, "type": "PRES_VIS", "trial_index": 146}, "uniqueid": "MTK1936:3IXQG4FA2U5NWLCZ7AFM9NHH02C9B2", "dateTime": 1516563113426}, {"current_trial": 147, "trialdata": {"rt": -1, "trial_type": "single-stim", "word": "sausage", "stimulus": "<p id=\"stim\">SAUSAGE</p>", "conditions": [12, 800, "v", 24000], "internal_node_id": "0.0-102.0", "trial": 4, "time_elapsed": 904830, "serialpos": 2, "key_press": -1, "wordID": 1237, "type": "PRES_VIS", "trial_index": 147}, "uniqueid": "MTK1936:3IXQG4FA2U5NWLCZ7AFM9NHH02C9B2", "dateTime": 1516563115325}, {"current_trial": 148, "trialdata": {"rt": -1, "trial_type": "single-stim", "word": "pistol", "stimulus": "<p id=\"stim\">PISTOL</p>", "conditions": [12, 800, "v", 24000], "internal_node_id": "0.0-103.0", "trial": 4, "time_elapsed": 906828, "serialpos": 3, "key_press": -1, "wordID": 1074, "type": "PRES_VIS", "trial_index": 148}, "uniqueid": "MTK1936:3IXQG4FA2U5NWLCZ7AFM9NHH02C9B2", "dateTime": 1516563117323}, {"current_trial": 149, "trialdata": {"rt": -1, "trial_type": "single-stim", "word": "couch", "stimulus": "<p id=\"stim\">COUCH</p>", "conditions": [12, 800, "v", 24000], "internal_node_id": "0.0-104.0", "trial": 4, "time_elapsed": 908712, "serialpos": 4, "key_press": -1, "wordID": 385, "type": "PRES_VIS", "trial_index": 149}, "uniqueid": "MTK1936:3IXQG4FA2U5NWLCZ7AFM9NHH02C9B2", "dateTime": 1516563119207}, {"current_trial": 150, "trialdata": {"rt": -1, "trial_type": "single-stim", "word": "hand", "stimulus": "<p id=\"stim\">HAND</p>", "conditions": [12, 800, "v", 24000], "internal_node_id": "0.0-105.0", "trial": 4, "time_elapsed": 910611, "serialpos": 5, "key_press": -1, "wordID": 682, "type": "PRES_VIS", "trial_index": 150}, "uniqueid": "MTK1936:3IXQG4FA2U5NWLCZ7AFM9NHH02C9B2", "dateTime": 1516563121106}, {"current_trial": 151, "trialdata": {"rt": -1, "trial_type": "single-stim", "word": "costume", "stimulus": "<p id=\"stim\">COSTUME</p>", "conditions": [12, 800, "v", 24000], "internal_node_id": "0.0-106.0", "trial": 4, "time_elapsed": 912236, "serialpos": 6, "key_press": -1, "wordID": 382, "type": "PRES_VIS", "trial_index": 151}, "uniqueid": "MTK1936:3IXQG4FA2U5NWLCZ7AFM9NHH02C9B2", "dateTime": 1516563122731}, {"current_trial": 152, "trialdata": {"rt": -1, "trial_type": "single-stim", "word": "carrot", "stimulus": "<p id=\"stim\">CARROT</p>", "conditions": [12, 800, "v", 24000], "internal_node_id": "0.0-107.0", "trial": 4, "time_elapsed": 913855, "serialpos": 7, "key_press": -1, "wordID": 248, "type": "PRES_VIS", "trial_index": 152}, "uniqueid": "MTK1936:3IXQG4FA2U5NWLCZ7AFM9NHH02C9B2", "dateTime": 1516563124350}, {"current_trial": 153, "trialdata": {"rt": -1, "trial_type": "single-stim", "word": "slide", "stimulus": "<p id=\"stim\">SLIDE</p>", "conditions": [12, 800, "v", 24000], "internal_node_id": "0.0-108.0", "trial": 4, "time_elapsed": 915758, "serialpos": 8, "key_press": -1, "wordID": 1325, "type": "PRES_VIS", "trial_index": 153}, "uniqueid": "MTK1936:3IXQG4FA2U5NWLCZ7AFM9NHH02C9B2", "dateTime": 1516563126253}, {"current_trial": 154, "trialdata": {"rt": -1, "trial_type": "single-stim", "word": "wardrobe", "stimulus": "<p id=\"stim\">WARDROBE</p>", "conditions": [12, 800, "v", 24000], "internal_node_id": "0.0-109.0", "trial": 4, "time_elapsed": 917671, "serialpos": 9, "key_press": -1, "wordID": 1586, "type": "PRES_VIS", "trial_index": 154}, "uniqueid": "MTK1936:3IXQG4FA2U5NWLCZ7AFM9NHH02C9B2", "dateTime": 1516563128166}, {"current_trial": 155, "trialdata": {"rt": -1, "trial_type": "single-stim", "word": "grape", "stimulus": "<p id=\"stim\">GRAPE</p>", "conditions": [12, 800, "v", 24000], "internal_node_id": "0.0-110.0", "trial": 4, "time_elapsed": 919455, "serialpos": 10, "key_press": -1, "wordID": 653, "type": "PRES_VIS", "trial_index": 155}, "uniqueid": "MTK1936:3IXQG4FA2U5NWLCZ7AFM9NHH02C9B2", "dateTime": 1516563129950}, {"current_trial": 156, "trialdata": {"rt": -1, "trial_type": "single-stim", "word": "citrus", "stimulus": "<p id=\"stim\">CITRUS</p>", "conditions": [12, 800, "v", 24000], "internal_node_id": "0.0-111.0", "trial": 4, "time_elapsed": 921112, "serialpos": 11, "key_press": -1, "wordID": 312, "type": "PRES_VIS", "trial_index": 156}, "uniqueid": "MTK1936:3IXQG4FA2U5NWLCZ7AFM9NHH02C9B2", "dateTime": 1516563131608}, {"current_trial": 157, "trialdata": {"rt": -1, "trial_type": "single-stim", "stimulus": "", "internal_node_id": "0.0-112.0-0.0", "time_elapsed": 923249, "key_press": -1, "type": "PRE_RECALL_DELAY", "trial_index": 157}, "uniqueid": "MTK1936:3IXQG4FA2U5NWLCZ7AFM9NHH02C9B2", "dateTime": 1516563133744}, {"current_trial": 158, "trialdata": {"rt": -1000, "trial_type": "single-audio", "stimulus": "/static/audio/400Hz.wav", "internal_node_id": "0.0-113.0", "time_elapsed": 923750, "key_press": -1, "type": "PRE_RECALL_ALERT", "trial_index": 158}, "uniqueid": "MTK1936:3IXQG4FA2U5NWLCZ7AFM9NHH02C9B2", "dateTime": 1516563134245}, {"current_trial": 159, "trialdata": {"rt": [4768, 8121, 10825, 13457, 16584, 19569, 22409, 24240, 26825, 30952, 34168], "recwords": ["sandwich", "worker", "pistol", "couch", "hand", "costume", "carrot", "slide", "grape", "wardrobe", "citrus"], "key_times": [2553, 2609, 2817, 2961, 3081, 3337, 3761, 3849, 4768, 5272, 5810, 6161, 6425, 6569, 6705, 6785, 6905, 8121, 8825, 9633, 9833, 9937, 10081, 10249, 10825, 11737, 11745, 12193, 12489, 12777, 13024, 13128, 13457, 15361, 15545, 15609, 15865, 16584, 17273, 17553, 17785, 17793, 18625, 18793, 19041, 19201, 19337, 19569, 19577, 20344, 20873, 21249, 21513, 21649, 21761, 21873, 22409, 23361, 23497, 23721, 24001, 24096, 24240, 25937, 26025, 26305, 26433, 26641, 26825, 28120, 28681, 28841, 28905, 29353, 29617, 29857, 30217, 30544, 30688, 30952, 31889, 31897, 32305, 32465, 32625, 33033, 33224, 33330, 33569, 33704, 34048, 34168], "trial_type": "free-recall", "conditions": [12, 800, "v", 24000], "internal_node_id": "0.0-114.0-0.0", "key_presses": [83, 65, 78, 68, 87, 73, 67, 72, 13, 87, 82, 8, 79, 82, 75, 69, 82, 13, 80, 73, 83, 84, 79, 76, 13, 67, 86, 8, 79, 85, 67, 72, 13, 72, 65, 78, 68, 13, 67, 79, 83, 68, 8, 84, 85, 77, 69, 13, 220, 8, 67, 65, 82, 82, 79, 84, 13, 83, 76, 73, 68, 69, 13, 71, 82, 65, 80, 69, 32, 65, 8, 87, 65, 82, 68, 82, 79, 66, 69, 13, 86, 67, 8, 8, 8, 67, 73, 84, 82, 85, 83, 13], "trial": 4, "time_elapsed": 983754, "type": "FREE_RECALL", "trial_index": 159}, "uniqueid": "MTK1936:3IXQG4FA2U5NWLCZ7AFM9NHH02C9B2", "dateTime": 1516563194256}, {"current_trial": 160, "trialdata": {"rt": 1336, "trial_type": "text", "internal_node_id": "0.0-115.0", "time_elapsed": 987098, "key_press": 32, "type": "INSTRUCTIONS", "trial_index": 160}, "uniqueid": "MTK1936:3IXQG4FA2U5NWLCZ7AFM9NHH02C9B2", "dateTime": 1516563197593}, {"current_trial": 161, "trialdata": {"rt": [2228, 4396, 5924, 8021, 10341, 12773, 14500, 16716, 18972, 22228, 23756], "trial_type": "math-distractor", "key_times": [1948, 2228, 4004, 4125, 4396, 5580, 5668, 5924, 7420, 7660, 8021, 9797, 10005, 10341, 12333, 12533, 12773, 14116, 14244, 14500, 16364, 16462, 16716, 18093, 18292, 18972, 21596, 21732, 22228, 23364, 23500, 23756], "responses": ["9", "20", "12", "19", "18", "16", "14", "10", "12", "22", "11"], "num2": [1, 6, 5, 9, 4, 4, 7, 7, 2, 7, 1, 3], "num3": [6, 7, 2, 6, 6, 6, 4, 1, 8, 8, 9, 2], "conditions": [24, 800, "v", 24000], "internal_node_id": "0.0-116.0", "key_presses": [105, 13, 98, 96, 13, 97, 98, 13, 97, 105, 13, 97, 104, 13, 97, 102, 13, 97, 100, 13, 97, 96, 13, 97, 98, 13, 98, 98, 13, 97, 97, 13], "trial": 5, "time_elapsed": 1013101, "type": "DISTRACTOR", "trial_index": 161, "num1": [2, 7, 5, 4, 8, 6, 3, 2, 2, 7, 1, 9]}, "uniqueid": "MTK1936:3IXQG4FA2U5NWLCZ7AFM9NHH02C9B2", "dateTime": 1516563223596}, {"current_trial": 162, "trialdata": {"rt": -1, "trial_type": "single-stim", "stimulus": "<p id=\"stim\">10</p>", "internal_node_id": "0.0-117.0-0.0", "time_elapsed": 1016104, "key_press": -1, "trial_index": 162}, "uniqueid": "MTK1936:3IXQG4FA2U5NWLCZ7AFM9NHH02C9B2", "dateTime": 1516563226599}, {"current_trial": 163, "trialdata": {"rt": -1, "trial_type": "single-stim", "stimulus": "<p id=\"stim\">9</p>", "internal_node_id": "0.0-117.0-1.0", "time_elapsed": 1017105, "key_press": -1, "trial_index": 163}, "uniqueid": "MTK1936:3IXQG4FA2U5NWLCZ7AFM9NHH02C9B2", "dateTime": 1516563227600}, {"current_trial": 164, "trialdata": {"rt": -1, "trial_type": "single-stim", "stimulus": "<p id=\"stim\">8</p>", "internal_node_id": "0.0-117.0-2.0", "time_elapsed": 1018107, "key_press": -1, "trial_index": 164}, "uniqueid": "MTK1936:3IXQG4FA2U5NWLCZ7AFM9NHH02C9B2", "dateTime": 1516563228602}, {"current_trial": 165, "trialdata": {"rt": -1, "trial_type": "single-stim", "stimulus": "<p id=\"stim\">7</p>", "internal_node_id": "0.0-117.0-3.0", "time_elapsed": 1019108, "key_press": -1, "trial_index": 165}, "uniqueid": "MTK1936:3IXQG4FA2U5NWLCZ7AFM9NHH02C9B2", "dateTime": 1516563229603}, {"current_trial": 166, "trialdata": {"rt": -1, "trial_type": "single-stim", "stimulus": "<p id=\"stim\">6</p>", "internal_node_id": "0.0-117.0-4.0", "time_elapsed": 1020109, "key_press": -1, "trial_index": 166}, "uniqueid": "MTK1936:3IXQG4FA2U5NWLCZ7AFM9NHH02C9B2", "dateTime": 1516563230604}, {"current_trial": 167, "trialdata": {"rt": -1, "trial_type": "single-stim", "stimulus": "<p id=\"stim\">5</p>", "internal_node_id": "0.0-117.0-5.0", "time_elapsed": 1021110, "key_press": -1, "trial_index": 167}, "uniqueid": "MTK1936:3IXQG4FA2U5NWLCZ7AFM9NHH02C9B2", "dateTime": 1516563231605}, {"current_trial": 168, "trialdata": {"rt": -1, "trial_type": "single-stim", "stimulus": "<p id=\"stim\">4</p>", "internal_node_id": "0.0-117.0-6.0", "time_elapsed": 1022110, "key_press": -1, "trial_index": 168}, "uniqueid": "MTK1936:3IXQG4FA2U5NWLCZ7AFM9NHH02C9B2", "dateTime": 1516563232606}, {"current_trial": 169, "trialdata": {"rt": -1, "trial_type": "single-stim", "stimulus": "<p id=\"stim\">3</p>", "internal_node_id": "0.0-117.0-7.0", "time_elapsed": 1023112, "key_press": -1, "trial_index": 169}, "uniqueid": "MTK1936:3IXQG4FA2U5NWLCZ7AFM9NHH02C9B2", "dateTime": 1516563233607}, {"current_trial": 170, "trialdata": {"rt": -1, "trial_type": "single-stim", "stimulus": "<p id=\"stim\">2</p>", "internal_node_id": "0.0-117.0-8.0", "time_elapsed": 1024114, "key_press": -1, "trial_index": 170}, "uniqueid": "MTK1936:3IXQG4FA2U5NWLCZ7AFM9NHH02C9B2", "dateTime": 1516563234609}, {"current_trial": 171, "trialdata": {"rt": -1, "trial_type": "single-stim", "stimulus": "<p id=\"stim\">1</p>", "internal_node_id": "0.0-117.0-9.0", "time_elapsed": 1025115, "key_press": -1, "trial_index": 171}, "uniqueid": "MTK1936:3IXQG4FA2U5NWLCZ7AFM9NHH02C9B2", "dateTime": 1516563235610}, {"current_trial": 172, "trialdata": {"rt": -1, "trial_type": "single-stim", "stimulus": "<p id=\"stim\">+</p>", "internal_node_id": "0.0-118.0-0.0", "time_elapsed": 1026616, "key_press": -1, "type": "FIXATION", "trial_index": 172}, "uniqueid": "MTK1936:3IXQG4FA2U5NWLCZ7AFM9NHH02C9B2", "dateTime": 1516563237111}, {"current_trial": 173, "trialdata": {"rt": -1, "trial_type": "single-stim", "word": "server", "stimulus": "<p id=\"stim\">SERVER</p>", "conditions": [24, 800, "v", 24000], "internal_node_id": "0.0-119.0", "trial": 5, "time_elapsed": 1027417, "serialpos": 0, "key_press": -1, "wordID": 1271, "type": "PRES_VIS", "trial_index": 173}, "uniqueid": "MTK1936:3IXQG4FA2U5NWLCZ7AFM9NHH02C9B2", "dateTime": 1516563237912}, {"current_trial": 174, "trialdata": {"rt": -1, "trial_type": "single-stim", "word": "college", "stimulus": "<p id=\"stim\">COLLEGE</p>", "conditions": [24, 800, "v", 24000], "internal_node_id": "0.0-120.0", "trial": 5, "time_elapsed": 1029341, "serialpos": 1, "key_press": -1, "wordID": 345, "type": "PRES_VIS", "trial_index": 174}, "uniqueid": "MTK1936:3IXQG4FA2U5NWLCZ7AFM9NHH02C9B2", "dateTime": 1516563239836}, {"current_trial": 175, "trialdata": {"rt": -1, "trial_type": "single-stim", "word": "freckle", "stimulus": "<p id=\"stim\">FRECKLE</p>", "conditions": [24, 800, "v", 24000], "internal_node_id": "0.0-121.0", "trial": 5, "time_elapsed": 1031098, "serialpos": 2, "key_press": -1, "wordID": 601, "type": "PRES_VIS", "trial_index": 175}, "uniqueid": "MTK1936:3IXQG4FA2U5NWLCZ7AFM9NHH02C9B2", "dateTime": 1516563241594}, {"current_trial": 176, "trialdata": {"rt": -1, "trial_type": "single-stim", "word": "supper", "stimulus": "<p id=\"stim\">SUPPER</p>", "conditions": [24, 800, "v", 24000], "internal_node_id": "0.0-122.0", "trial": 5, "time_elapsed": 1032881, "serialpos": 3, "key_press": -1, "wordID": 1410, "type": "PRES_VIS", "trial_index": 176}, "uniqueid": "MTK1936:3IXQG4FA2U5NWLCZ7AFM9NHH02C9B2", "dateTime": 1516563243376}, {"current_trial": 177, "trialdata": {"rt": -1, "trial_type": "single-stim", "word": "spider", "stimulus": "<p id=\"stim\">SPIDER</p>", "conditions": [24, 800, "v", 24000], "internal_node_id": "0.0-123.0", "trial": 5, "time_elapsed": 1034541, "serialpos": 4, "key_press": -1, "wordID": 1350, "type": "PRES_VIS", "trial_index": 177}, "uniqueid": "MTK1936:3IXQG4FA2U5NWLCZ7AFM9NHH02C9B2", "dateTime": 1516563245036}, {"current_trial": 178, "trialdata": {"rt": -1, "trial_type": "single-stim", "word": "tutu", "stimulus": "<p id=\"stim\">TUTU</p>", "conditions": [24, 800, "v", 24000], "internal_node_id": "0.0-124.0", "trial": 5, "time_elapsed": 1036275, "serialpos": 5, "key_press": -1, "wordID": 1523, "type": "PRES_VIS", "trial_index": 178}, "uniqueid": "MTK1936:3IXQG4FA2U5NWLCZ7AFM9NHH02C9B2", "dateTime": 1516563246770}, {"current_trial": 179, "trialdata": {"rt": -1, "trial_type": "single-stim", "word": "garlic", "stimulus": "<p id=\"stim\">GARLIC</p>", "conditions": [24, 800, "v", 24000], "internal_node_id": "0.0-125.0", "trial": 5, "time_elapsed": 1038033, "serialpos": 6, "key_press": -1, "wordID": 623, "type": "PRES_VIS", "trial_index": 179}, "uniqueid": "MTK1936:3IXQG4FA2U5NWLCZ7AFM9NHH02C9B2", "dateTime": 1516563248528}, {"current_trial": 180, "trialdata": {"rt": -1, "trial_type": "single-stim", "word": "radish", "stimulus": "<p id=\"stim\">RADISH</p>", "conditions": [24, 800, "v", 24000], "internal_node_id": "0.0-126.0", "trial": 5, "time_elapsed": 1039950, "serialpos": 7, "key_press": -1, "wordID": 1157, "type": "PRES_VIS", "trial_index": 180}, "uniqueid": "MTK1936:3IXQG4FA2U5NWLCZ7AFM9NHH02C9B2", "dateTime": 1516563250445}, {"current_trial": 181, "trialdata": {"rt": -1, "trial_type": "single-stim", "word": "wasp", "stimulus": "<p id=\"stim\">WASP</p>", "conditions": [24, 800, "v", 24000], "internal_node_id": "0.0-127.0", "trial": 5, "time_elapsed": 1041853, "serialpos": 8, "key_press": -1, "wordID": 1592, "type": "PRES_VIS", "trial_index": 181}, "uniqueid": "MTK1936:3IXQG4FA2U5NWLCZ7AFM9NHH02C9B2", "dateTime": 1516563252348}, {"current_trial": 182, "trialdata": {"rt": -1, "trial_type": "single-stim", "word": "notebook", "stimulus": "<p id=\"stim\">NOTEBOOK</p>", "conditions": [24, 800, "v", 24000], "internal_node_id": "0.0-128.0", "trial": 5, "time_elapsed": 1043798, "serialpos": 9, "key_press": -1, "wordID": 958, "type": "PRES_VIS", "trial_index": 182}, "uniqueid": "MTK1936:3IXQG4FA2U5NWLCZ7AFM9NHH02C9B2", "dateTime": 1516563254293}, {"current_trial": 183, "trialdata": {"rt": -1, "trial_type": "single-stim", "word": "pocket", "stimulus": "<p id=\"stim\">POCKET</p>", "conditions": [24, 800, "v", 24000], "internal_node_id": "0.0-129.0", "trial": 5, "time_elapsed": 1045628, "serialpos": 10, "key_press": -1, "wordID": 1092, "type": "PRES_VIS", "trial_index": 183}, "uniqueid": "MTK1936:3IXQG4FA2U5NWLCZ7AFM9NHH02C9B2", "dateTime": 1516563256123}, {"current_trial": 184, "trialdata": {"rt": -1, "trial_type": "single-stim", "word": "ghetto", "stimulus": "<p id=\"stim\">GHETTO</p>", "conditions": [24, 800, "v", 24000], "internal_node_id": "0.0-130.0", "trial": 5, "time_elapsed": 1047389, "serialpos": 11, "key_press": -1, "wordID": 632, "type": "PRES_VIS", "trial_index": 184}, "uniqueid": "MTK1936:3IXQG4FA2U5NWLCZ7AFM9NHH02C9B2", "dateTime": 1516563257884}, {"current_trial": 185, "trialdata": {"rt": -1, "trial_type": "single-stim", "word": "driver", "stimulus": "<p id=\"stim\">DRIVER</p>", "conditions": [24, 800, "v", 24000], "internal_node_id": "0.0-131.0", "trial": 5, "time_elapsed": 1049372, "serialpos": 12, "key_press": -1, "wordID": 498, "type": "PRES_VIS", "trial_index": 185}, "uniqueid": "MTK1936:3IXQG4FA2U5NWLCZ7AFM9NHH02C9B2", "dateTime": 1516563259867}, {"current_trial": 186, "trialdata": {"rt": -1, "trial_type": "single-stim", "word": "hostess", "stimulus": "<p id=\"stim\">HOSTESS</p>", "conditions": [24, 800, "v", 24000], "internal_node_id": "0.0-132.0", "trial": 5, "time_elapsed": 1051186, "serialpos": 13, "key_press": -1, "wordID": 722, "type": "PRES_VIS", "trial_index": 186}, "uniqueid": "MTK1936:3IXQG4FA2U5NWLCZ7AFM9NHH02C9B2", "dateTime": 1516563261681}, {"current_trial": 187, "trialdata": {"rt": -1, "trial_type": "single-stim", "word": "machine", "stimulus": "<p id=\"stim\">MACHINE</p>", "conditions": [24, 800, "v", 24000], "internal_node_id": "0.0-133.0", "trial": 5, "time_elapsed": 1052990, "serialpos": 14, "key_press": -1, "wordID": 851, "type": "PRES_VIS", "trial_index": 187}, "uniqueid": "MTK1936:3IXQG4FA2U5NWLCZ7AFM9NHH02C9B2", "dateTime": 1516563263485}, {"current_trial": 188, "trialdata": {"rt": -1, "trial_type": "single-stim", "word": "heart", "stimulus": "<p id=\"stim\">HEART</p>", "conditions": [24, 800, "v", 24000], "internal_node_id": "0.0-134.0", "trial": 5, "time_elapsed": 1054852, "serialpos": 15, "key_press": -1, "wordID": 696, "type": "PRES_VIS", "trial_index": 188}, "uniqueid": "MTK1936:3IXQG4FA2U5NWLCZ7AFM9NHH02C9B2", "dateTime": 1516563265347}, {"current_trial": 189, "trialdata": {"rt": -1, "trial_type": "single-stim", "word": "hamper", "stimulus": "<p id=\"stim\">HAMPER</p>", "conditions": [24, 800, "v", 24000], "internal_node_id": "0.0-135.0", "trial": 5, "time_elapsed": 1056556, "serialpos": 16, "key_press": -1, "wordID": 681, "type": "PRES_VIS", "trial_index": 189}, "uniqueid": "MTK1936:3IXQG4FA2U5NWLCZ7AFM9NHH02C9B2", "dateTime": 1516563267051}, {"current_trial": 190, "trialdata": {"rt": -1, "trial_type": "single-stim", "word": "cowboy", "stimulus": "<p id=\"stim\">COWBOY</p>", "conditions": [24, 800, "v", 24000], "internal_node_id": "0.0-136.0", "trial": 5, "time_elapsed": 1058526, "serialpos": 17, "key_press": -1, "wordID": 394, "type": "PRES_VIS", "trial_index": 190}, "uniqueid": "MTK1936:3IXQG4FA2U5NWLCZ7AFM9NHH02C9B2", "dateTime": 1516563269021}, {"current_trial": 191, "trialdata": {"rt": -1, "trial_type": "single-stim", "word": "truck", "stimulus": "<p id=\"stim\">TRUCK</p>", "conditions": [24, 800, "v", 24000], "internal_node_id": "0.0-137.0", "trial": 5, "time_elapsed": 1060521, "serialpos": 18, "key_press": -1, "wordID": 1511, "type": "PRES_VIS", "trial_index": 191}, "uniqueid": "MTK1936:3IXQG4FA2U5NWLCZ7AFM9NHH02C9B2", "dateTime": 1516563271016}, {"current_trial": 192, "trialdata": {"rt": -1, "trial_type": "single-stim", "word": "daisy", "stimulus": "<p id=\"stim\">DAISY</p>", "conditions": [24, 800, "v", 24000], "internal_node_id": "0.0-138.0", "trial": 5, "time_elapsed": 1062387, "serialpos": 19, "key_press": -1, "wordID": 434, "type": "PRES_VIS", "trial_index": 192}, "uniqueid": "MTK1936:3IXQG4FA2U5NWLCZ7AFM9NHH02C9B2", "dateTime": 1516563272882}, {"current_trial": 193, "trialdata": {"rt": -1, "trial_type": "single-stim", "word": "necklace", "stimulus": "<p id=\"stim\">NECKLACE</p>", "conditions": [24, 800, "v", 24000], "internal_node_id": "0.0-139.0", "trial": 5, "time_elapsed": 1064215, "serialpos": 20, "key_press": -1, "wordID": 939, "type": "PRES_VIS", "trial_index": 193}, "uniqueid": "MTK1936:3IXQG4FA2U5NWLCZ7AFM9NHH02C9B2", "dateTime": 1516563274710}, {"current_trial": 194, "trialdata": {"rt": -1, "trial_type": "single-stim", "word": "student", "stimulus": "<p id=\"stim\">STUDENT</p>", "conditions": [24, 800, "v", 24000], "internal_node_id": "0.0-140.0", "trial": 5, "time_elapsed": 1066044, "serialpos": 21, "key_press": -1, "wordID": 1394, "type": "PRES_VIS", "trial_index": 194}, "uniqueid": "MTK1936:3IXQG4FA2U5NWLCZ7AFM9NHH02C9B2", "dateTime": 1516563276539}, {"current_trial": 195, "trialdata": {"rt": -1, "trial_type": "single-stim", "word": "teacher", "stimulus": "<p id=\"stim\">TEACHER</p>", "conditions": [24, 800, "v", 24000], "internal_node_id": "0.0-141.0", "trial": 5, "time_elapsed": 1067695, "serialpos": 22, "key_press": -1, "wordID": 1439, "type": "PRES_VIS", "trial_index": 195}, "uniqueid": "MTK1936:3IXQG4FA2U5NWLCZ7AFM9NHH02C9B2", "dateTime": 1516563278190}, {"current_trial": 196, "trialdata": {"rt": -1, "trial_type": "single-stim", "word": "turkey", "stimulus": "<p id=\"stim\">TURKEY</p>", "conditions": [24, 800, "v", 24000], "internal_node_id": "0.0-142.0", "trial": 5, "time_elapsed": 1069681, "serialpos": 23, "key_press": -1, "wordID": 1519, "type": "PRES_VIS", "trial_index": 196}, "uniqueid": "MTK1936:3IXQG4FA2U5NWLCZ7AFM9NHH02C9B2", "dateTime": 1516563280176}, {"current_trial": 197, "trialdata": {"rt": -1, "trial_type": "single-stim", "stimulus": "", "internal_node_id": "0.0-143.0-0.0", "time_elapsed": 1072249, "key_press": -1, "type": "PRE_RECALL_DELAY", "trial_index": 197}, "uniqueid": "MTK1936:3IXQG4FA2U5NWLCZ7AFM9NHH02C9B2", "dateTime": 1516563282746}, {"current_trial": 198, "trialdata": {"rt": -1000, "trial_type": "single-audio", "stimulus": "/static/audio/400Hz.wav", "internal_node_id": "0.0-144.0", "time_elapsed": 1072752, "key_press": -1, "type": "PRE_RECALL_ALERT", "trial_index": 198}, "uniqueid": "MTK1936:3IXQG4FA2U5NWLCZ7AFM9NHH02C9B2", "dateTime": 1516563283247}, {"current_trial": 199, "trialdata": {"rt": [4317, 6501, 8485, 10373, 13021, 15445, 18101, 20926, 24774, 31846, 35853, 37878, 39382, 41470, 44341, 46797, 48981, 50389], "recwords": ["server", "college", "freckle", "supper", "spider", "tutu", "garlic", "radish", "notebook", "drives", "hostess", "heart", "hamper", "truck", "daisy", "student", "teacher", "turkey"], "key_times": [2717, 2965, 3053, 3317, 3508, 3588, 4317, 5141, 5405, 5605, 5765, 5893, 6045, 6189, 6501, 7165, 7261, 7476, 7668, 7797, 8014, 8188, 8485, 9125, 9429, 9725, 9893, 10029, 10125, 10373, 11788, 12005, 12317, 12509, 12597, 12781, 13021, 13805, 13917, 14053, 15052, 15445, 17053, 17277, 17349, 17517, 17701, 17821, 18101, 19957, 20190, 20310, 20438, 20550, 20654, 20926, 23214, 23413, 23813, 23901, 24158, 24286, 24398, 24510, 24774, 30485, 30685, 30781, 30965, 31198, 31654, 31846, 32645, 32950, 33149, 33278, 33589, 33909, 34101, 35853, 37070, 37166, 37270, 37526, 37742, 37878, 38566, 38694, 38798, 39022, 39158, 39214, 39382, 40366, 40494, 40646, 40966, 41198, 41470, 42485, 42997, 43318, 43621, 43989, 44341, 45429, 45613, 46109, 46269, 46326, 46469, 46573, 46797, 47629, 48125, 48293, 48517, 48629, 48757, 48813, 48981, 49221, 49413, 49669, 49869, 50037, 50173, 50389], "trial_type": "free-recall", "conditions": [24, 800, "v", 24000], "internal_node_id": "0.0-145.0-0.0", "key_presses": [83, 69, 82, 86, 69, 82, 13, 67, 79, 76, 76, 69, 71, 69, 13, 70, 82, 69, 67, 75, 76, 69, 13, 83, 85, 80, 80, 69, 82, 13, 83, 80, 73, 68, 69, 82, 13, 84, 85, 84, 85, 13, 71, 65, 82, 76, 73, 67, 13, 82, 65, 68, 73, 83, 72, 13, 78, 79, 84, 69, 66, 79, 79, 75, 13, 68, 82, 73, 86, 69, 83, 13, 72, 79, 83, 84, 69, 83, 83, 13, 72, 69, 65, 82, 84, 13, 72, 65, 77, 80, 69, 82, 13, 84, 82, 85, 67, 75, 13, 68, 65, 73, 83, 89, 13, 83, 84, 85, 68, 69, 78, 84, 13, 84, 69, 65, 67, 72, 69, 82, 13, 84, 85, 82, 75, 69, 89, 13], "trial": 5, "time_elapsed": 1132757, "type": "FREE_RECALL", "trial_index": 199}, "uniqueid": "MTK1936:3IXQG4FA2U5NWLCZ7AFM9NHH02C9B2", "dateTime": 1516563343260}, {"current_trial": 200, "trialdata": {"rt": 14732, "trial_type": "text", "internal_node_id": "0.0-146.0", "time_elapsed": 1149498, "key_press": 32, "type": "INSTRUCTIONS", "trial_index": 200}, "uniqueid": "MTK1936:3IXQG4FA2U5NWLCZ7AFM9NHH02C9B2", "dateTime": 1516563359993}, {"current_trial": 201, "trialdata": {"rt": [3436, 5828, 7644, 11045], "trial_type": "math-distractor", "key_times": [3116, 3180, 3436, 5132, 5276, 5828, 7308, 7444, 7644, 10726, 10813, 11045], "responses": ["20", "14", "11", "20"], "num2": [7, 9, 2, 7, 6], "num3": [4, 3, 3, 8, 6], "conditions": [24, 1600, "v", 12000], "internal_node_id": "0.0-147.0", "key_presses": [98, 96, 13, 97, 100, 13, 97, 97, 13, 98, 96, 13], "trial": 6, "time_elapsed": 1163501, "type": "DISTRACTOR", "trial_index": 201, "num1": [9, 2, 6, 5, 4]}, "uniqueid": "MTK1936:3IXQG4FA2U5NWLCZ7AFM9NHH02C9B2", "dateTime": 1516563373997}, {"current_trial": 202, "trialdata": {"rt": -1, "trial_type": "single-stim", "stimulus": "<p id=\"stim\">10</p>", "internal_node_id": "0.0-148.0-0.0", "time_elapsed": 1166503, "key_press": -1, "trial_index": 202}, "uniqueid": "MTK1936:3IXQG4FA2U5NWLCZ7AFM9NHH02C9B2", "dateTime": 1516563376998}, {"current_trial": 203, "trialdata": {"rt": -1, "trial_type": "single-stim", "stimulus": "<p id=\"stim\">9</p>", "internal_node_id": "0.0-148.0-1.0", "time_elapsed": 1167504, "key_press": -1, "trial_index": 203}, "uniqueid": "MTK1936:3IXQG4FA2U5NWLCZ7AFM9NHH02C9B2", "dateTime": 1516563377999}, {"current_trial": 204, "trialdata": {"rt": -1, "trial_type": "single-stim", "stimulus": "<p id=\"stim\">8</p>", "internal_node_id": "0.0-148.0-2.0", "time_elapsed": 1168505, "key_press": -1, "trial_index": 204}, "uniqueid": "MTK1936:3IXQG4FA2U5NWLCZ7AFM9NHH02C9B2", "dateTime": 1516563379000}, {"current_trial": 205, "trialdata": {"rt": -1, "trial_type": "single-stim", "stimulus": "<p id=\"stim\">7</p>", "internal_node_id": "0.0-148.0-3.0", "time_elapsed": 1169506, "key_press": -1, "trial_index": 205}, "uniqueid": "MTK1936:3IXQG4FA2U5NWLCZ7AFM9NHH02C9B2", "dateTime": 1516563380001}, {"current_trial": 206, "trialdata": {"rt": -1, "trial_type": "single-stim", "stimulus": "<p id=\"stim\">6</p>", "internal_node_id": "0.0-148.0-4.0", "time_elapsed": 1170508, "key_press": -1, "trial_index": 206}, "uniqueid": "MTK1936:3IXQG4FA2U5NWLCZ7AFM9NHH02C9B2", "dateTime": 1516563381003}, {"current_trial": 207, "trialdata": {"rt": -1, "trial_type": "single-stim", "stimulus": "<p id=\"stim\">5</p>", "internal_node_id": "0.0-148.0-5.0", "time_elapsed": 1171509, "key_press": -1, "trial_index": 207}, "uniqueid": "MTK1936:3IXQG4FA2U5NWLCZ7AFM9NHH02C9B2", "dateTime": 1516563382004}, {"current_trial": 208, "trialdata": {"rt": -1, "trial_type": "single-stim", "stimulus": "<p id=\"stim\">4</p>", "internal_node_id": "0.0-148.0-6.0", "time_elapsed": 1172510, "key_press": -1, "trial_index": 208}, "uniqueid": "MTK1936:3IXQG4FA2U5NWLCZ7AFM9NHH02C9B2", "dateTime": 1516563383005}, {"current_trial": 209, "trialdata": {"rt": -1, "trial_type": "single-stim", "stimulus": "<p id=\"stim\">3</p>", "internal_node_id": "0.0-148.0-7.0", "time_elapsed": 1173511, "key_press": -1, "trial_index": 209}, "uniqueid": "MTK1936:3IXQG4FA2U5NWLCZ7AFM9NHH02C9B2", "dateTime": 1516563384006}, {"current_trial": 210, "trialdata": {"rt": -1, "trial_type": "single-stim", "stimulus": "<p id=\"stim\">2</p>", "internal_node_id": "0.0-148.0-8.0", "time_elapsed": 1174513, "key_press": -1, "trial_index": 210}, "uniqueid": "MTK1936:3IXQG4FA2U5NWLCZ7AFM9NHH02C9B2", "dateTime": 1516563385008}, {"current_trial": 211, "trialdata": {"rt": -1, "trial_type": "single-stim", "stimulus": "<p id=\"stim\">1</p>", "internal_node_id": "0.0-148.0-9.0", "time_elapsed": 1175514, "key_press": -1, "trial_index": 211}, "uniqueid": "MTK1936:3IXQG4FA2U5NWLCZ7AFM9NHH02C9B2", "dateTime": 1516563386009}, {"current_trial": 212, "trialdata": {"rt": -1, "trial_type": "single-stim", "stimulus": "<p id=\"stim\">+</p>", "internal_node_id": "0.0-149.0-0.0", "time_elapsed": 1177015, "key_press": -1, "type": "FIXATION", "trial_index": 212}, "uniqueid": "MTK1936:3IXQG4FA2U5NWLCZ7AFM9NHH02C9B2", "dateTime": 1516563387510}, {"current_trial": 213, "trialdata": {"rt": -1, "trial_type": "single-stim", "word": "basement", "stimulus": "<p id=\"stim\">BASEMENT</p>", "conditions": [24, 1600, "v", 12000], "internal_node_id": "0.0-150.0", "trial": 6, "time_elapsed": 1178616, "serialpos": 0, "key_press": -1, "wordID": 93, "type": "PRES_VIS", "trial_index": 213}, "uniqueid": "MTK1936:3IXQG4FA2U5NWLCZ7AFM9NHH02C9B2", "dateTime": 1516563389111}, {"current_trial": 214, "trialdata": {"rt": -1, "trial_type": "single-stim", "word": "woman", "stimulus": "<p id=\"stim\">WOMAN</p>", "conditions": [24, 1600, "v", 12000], "internal_node_id": "0.0-151.0", "trial": 6, "time_elapsed": 1181386, "serialpos": 1, "key_press": -1, "wordID": 1619, "type": "PRES_VIS", "trial_index": 214}, "uniqueid": "MTK1936:3IXQG4FA2U5NWLCZ7AFM9NHH02C9B2", "dateTime": 1516563391881}, {"current_trial": 215, "trialdata": {"rt": -1, "trial_type": "single-stim", "word": "banker", "stimulus": "<p id=\"stim\">BANKER</p>", "conditions": [24, 1600, "v", 12000], "internal_node_id": "0.0-152.0", "trial": 6, "time_elapsed": 1183930, "serialpos": 2, "key_press": -1, "wordID": 83, "type": "PRES_VIS", "trial_index": 215}, "uniqueid": "MTK1936:3IXQG4FA2U5NWLCZ7AFM9NHH02C9B2", "dateTime": 1516563394425}, {"current_trial": 216, "trialdata": {"rt": -1, "trial_type": "single-stim", "word": "bank", "stimulus": "<p id=\"stim\">BANK</p>", "conditions": [24, 1600, "v", 12000], "internal_node_id": "0.0-153.0", "trial": 6, "time_elapsed": 1186360, "serialpos": 3, "key_press": -1, "wordID": 82, "type": "PRES_VIS", "trial_index": 216}, "uniqueid": "MTK1936:3IXQG4FA2U5NWLCZ7AFM9NHH02C9B2", "dateTime": 1516563396855}, {"current_trial": 217, "trialdata": {"rt": -1, "trial_type": "single-stim", "word": "pigeon", "stimulus": "<p id=\"stim\">PIGEON</p>", "conditions": [24, 1600, "v", 12000], "internal_node_id": "0.0-154.0", "trial": 6, "time_elapsed": 1189132, "serialpos": 4, "key_press": -1, "wordID": 1064, "type": "PRES_VIS", "trial_index": 217}, "uniqueid": "MTK1936:3IXQG4FA2U5NWLCZ7AFM9NHH02C9B2", "dateTime": 1516563399627}, {"current_trial": 218, "trialdata": {"rt": -1, "trial_type": "single-stim", "word": "casket", "stimulus": "<p id=\"stim\">CASKET</p>", "conditions": [24, 1600, "v", 12000], "internal_node_id": "0.0-155.0", "trial": 6, "time_elapsed": 1191661, "serialpos": 5, "key_press": -1, "wordID": 254, "type": "PRES_VIS", "trial_index": 218}, "uniqueid": "MTK1936:3IXQG4FA2U5NWLCZ7AFM9NHH02C9B2", "dateTime": 1516563402156}, {"current_trial": 219, "trialdata": {"rt": -1, "trial_type": "single-stim", "word": "cellar", "stimulus": "<p id=\"stim\">CELLAR</p>", "conditions": [24, 1600, "v", 12000], "internal_node_id": "0.0-156.0", "trial": 6, "time_elapsed": 1194086, "serialpos": 6, "key_press": -1, "wordID": 266, "type": "PRES_VIS", "trial_index": 219}, "uniqueid": "MTK1936:3IXQG4FA2U5NWLCZ7AFM9NHH02C9B2", "dateTime": 1516563404581}, {"current_trial": 220, "trialdata": {"rt": -1, "trial_type": "single-stim", "word": "skirt", "stimulus": "<p id=\"stim\">SKIRT</p>", "conditions": [24, 1600, "v", 12000], "internal_node_id": "0.0-157.0", "trial": 6, "time_elapsed": 1196838, "serialpos": 7, "key_press": -1, "wordID": 1318, "type": "PRES_VIS", "trial_index": 220}, "uniqueid": "MTK1936:3IXQG4FA2U5NWLCZ7AFM9NHH02C9B2", "dateTime": 1516563407333}, {"current_trial": 221, "trialdata": {"rt": -1, "trial_type": "single-stim", "word": "fruit", "stimulus": "<p id=\"stim\">FRUIT</p>", "conditions": [24, 1600, "v", 12000], "internal_node_id": "0.0-158.0", "trial": 6, "time_elapsed": 1199585, "serialpos": 8, "key_press": -1, "wordID": 609, "type": "PRES_VIS", "trial_index": 221}, "uniqueid": "MTK1936:3IXQG4FA2U5NWLCZ7AFM9NHH02C9B2", "dateTime": 1516563410080}, {"current_trial": 222, "trialdata": {"rt": -1, "trial_type": "single-stim", "word": "peanut", "stimulus": "<p id=\"stim\">PEANUT</p>", "conditions": [24, 1600, "v", 12000], "internal_node_id": "0.0-159.0", "trial": 6, "time_elapsed": 1202169, "serialpos": 9, "key_press": -1, "wordID": 1031, "type": "PRES_VIS", "trial_index": 222}, "uniqueid": "MTK1936:3IXQG4FA2U5NWLCZ7AFM9NHH02C9B2", "dateTime": 1516563412664}, {"current_trial": 223, "trialdata": {"rt": -1, "trial_type": "single-stim", "word": "suspect", "stimulus": "<p id=\"stim\">SUSPECT</p>", "conditions": [24, 1600, "v", 12000], "internal_node_id": "0.0-160.0", "trial": 6, "time_elapsed": 1204958, "serialpos": 10, "key_press": -1, "wordID": 1414, "type": "PRES_VIS", "trial_index": 223}, "uniqueid": "MTK1936:3IXQG4FA2U5NWLCZ7AFM9NHH02C9B2", "dateTime": 1516563415453}, {"current_trial": 224, "trialdata": {"rt": -1, "trial_type": "single-stim", "word": "shark", "stimulus": "<p id=\"stim\">SHARK</p>", "conditions": [24, 1600, "v", 12000], "internal_node_id": "0.0-161.0", "trial": 6, "time_elapsed": 1207494, "serialpos": 11, "key_press": -1, "wordID": 1274, "type": "PRES_VIS", "trial_index": 224}, "uniqueid": "MTK1936:3IXQG4FA2U5NWLCZ7AFM9NHH02C9B2", "dateTime": 1516563417989}, {"current_trial": 225, "trialdata": {"rt": -1, "trial_type": "single-stim", "word": "antler", "stimulus": "<p id=\"stim\">ANTLER</p>", "conditions": [24, 1600, "v", 12000], "internal_node_id": "0.0-162.0", "trial": 6, "time_elapsed": 1209928, "serialpos": 12, "key_press": -1, "wordID": 28, "type": "PRES_VIS", "trial_index": 225}, "uniqueid": "MTK1936:3IXQG4FA2U5NWLCZ7AFM9NHH02C9B2", "dateTime": 1516563420423}, {"current_trial": 226, "trialdata": {"rt": -1, "trial_type": "single-stim", "word": "flask", "stimulus": "<p id=\"stim\">FLASK</p>", "conditions": [24, 1600, "v", 12000], "internal_node_id": "0.0-163.0", "trial": 6, "time_elapsed": 1212381, "serialpos": 13, "key_press": -1, "wordID": 575, "type": "PRES_VIS", "trial_index": 226}, "uniqueid": "MTK1936:3IXQG4FA2U5NWLCZ7AFM9NHH02C9B2", "dateTime": 1516563422876}, {"current_trial": 227, "trialdata": {"rt": -1, "trial_type": "single-stim", "word": "beaker", "stimulus": "<p id=\"stim\">BEAKER</p>", "conditions": [24, 1600, "v", 12000], "internal_node_id": "0.0-164.0", "trial": 6, "time_elapsed": 1215150, "serialpos": 14, "key_press": -1, "wordID": 103, "type": "PRES_VIS", "trial_index": 227}, "uniqueid": "MTK1936:3IXQG4FA2U5NWLCZ7AFM9NHH02C9B2", "dateTime": 1516563425645}, {"current_trial": 228, "trialdata": {"rt": -1, "trial_type": "single-stim", "word": "chauffeur", "stimulus": "<p id=\"stim\">CHAUFFEUR</p>", "conditions": [24, 1600, "v", 12000], "internal_node_id": "0.0-165.0", "trial": 6, "time_elapsed": 1217777, "serialpos": 15, "key_press": -1, "wordID": 282, "type": "PRES_VIS", "trial_index": 228}, "uniqueid": "MTK1936:3IXQG4FA2U5NWLCZ7AFM9NHH02C9B2", "dateTime": 1516563428273}, {"current_trial": 229, "trialdata": {"rt": -1, "trial_type": "single-stim", "word": "cigar", "stimulus": "<p id=\"stim\">CIGAR</p>", "conditions": [24, 1600, "v", 12000], "internal_node_id": "0.0-166.0", "trial": 6, "time_elapsed": 1220228, "serialpos": 16, "key_press": -1, "wordID": 307, "type": "PRES_VIS", "trial_index": 229}, "uniqueid": "MTK1936:3IXQG4FA2U5NWLCZ7AFM9NHH02C9B2", "dateTime": 1516563430723}, {"current_trial": 230, "trialdata": {"rt": -1, "trial_type": "single-stim", "word": "sword", "stimulus": "<p id=\"stim\">SWORD</p>", "conditions": [24, 1600, "v", 12000], "internal_node_id": "0.0-167.0", "trial": 6, "time_elapsed": 1222865, "serialpos": 17, "key_press": -1, "wordID": 1422, "type": "PRES_VIS", "trial_index": 230}, "uniqueid": "MTK1936:3IXQG4FA2U5NWLCZ7AFM9NHH02C9B2", "dateTime": 1516563433360}, {"current_trial": 231, "trialdata": {"rt": -1, "trial_type": "single-stim", "word": "lettuce", "stimulus": "<p id=\"stim\">LETTUCE</p>", "conditions": [24, 1600, "v", 12000], "internal_node_id": "0.0-168.0", "trial": 6, "time_elapsed": 1225364, "serialpos": 18, "key_press": -1, "wordID": 813, "type": "PRES_VIS", "trial_index": 231}, "uniqueid": "MTK1936:3IXQG4FA2U5NWLCZ7AFM9NHH02C9B2", "dateTime": 1516563435859}, {"current_trial": 232, "trialdata": {"rt": -1, "trial_type": "single-stim", "word": "farmer", "stimulus": "<p id=\"stim\">FARMER</p>", "conditions": [24, 1600, "v", 12000], "internal_node_id": "0.0-169.0", "trial": 6, "time_elapsed": 1228077, "serialpos": 19, "key_press": -1, "wordID": 552, "type": "PRES_VIS", "trial_index": 232}, "uniqueid": "MTK1936:3IXQG4FA2U5NWLCZ7AFM9NHH02C9B2", "dateTime": 1516563438572}, {"current_trial": 233, "trialdata": {"rt": -1, "trial_type": "single-stim", "word": "knife", "stimulus": "<p id=\"stim\">KNIFE</p>", "conditions": [24, 1600, "v", 12000], "internal_node_id": "0.0-170.0", "trial": 6, "time_elapsed": 1230850, "serialpos": 20, "key_press": -1, "wordID": 784, "type": "PRES_VIS", "trial_index": 233}, "uniqueid": "MTK1936:3IXQG4FA2U5NWLCZ7AFM9NHH02C9B2", "dateTime": 1516563441345}, {"current_trial": 234, "trialdata": {"rt": -1, "trial_type": "single-stim", "word": "rooster", "stimulus": "<p id=\"stim\">ROOSTER</p>", "conditions": [24, 1600, "v", 12000], "internal_node_id": "0.0-171.0", "trial": 6, "time_elapsed": 1233512, "serialpos": 21, "key_press": -1, "wordID": 1208, "type": "PRES_VIS", "trial_index": 234}, "uniqueid": "MTK1936:3IXQG4FA2U5NWLCZ7AFM9NHH02C9B2", "dateTime": 1516563444007}, {"current_trial": 235, "trialdata": {"rt": -1, "trial_type": "single-stim", "word": "zipper", "stimulus": "<p id=\"stim\">ZIPPER</p>", "conditions": [24, 1600, "v", 12000], "internal_node_id": "0.0-172.0", "trial": 6, "time_elapsed": 1235987, "serialpos": 22, "key_press": -1, "wordID": 1635, "type": "PRES_VIS", "trial_index": 235}, "uniqueid": "MTK1936:3IXQG4FA2U5NWLCZ7AFM9NHH02C9B2", "dateTime": 1516563446482}, {"current_trial": 236, "trialdata": {"rt": -1, "trial_type": "single-stim", "word": "umpire", "stimulus": "<p id=\"stim\">UMPIRE</p>", "conditions": [24, 1600, "v", 12000], "internal_node_id": "0.0-173.0", "trial": 6, "time_elapsed": 1238745, "serialpos": 23, "key_press": -1, "wordID": 1534, "type": "PRES_VIS", "trial_index": 236}, "uniqueid": "MTK1936:3IXQG4FA2U5NWLCZ7AFM9NHH02C9B2", "dateTime": 1516563449240}, {"current_trial": 237, "trialdata": {"rt": -1, "trial_type": "single-stim", "stimulus": "", "internal_node_id": "0.0-174.0-0.0", "time_elapsed": 1241028, "key_press": -1, "type": "PRE_RECALL_DELAY", "trial_index": 237}, "uniqueid": "MTK1936:3IXQG4FA2U5NWLCZ7AFM9NHH02C9B2", "dateTime": 1516563451523}, {"current_trial": 238, "trialdata": {"rt": -1000, "trial_type": "single-audio", "stimulus": "/static/audio/400Hz.wav", "internal_node_id": "0.0-175.0", "time_elapsed": 1241530, "key_press": -1, "type": "PRE_RECALL_ALERT", "trial_index": 238}, "uniqueid": "MTK1936:3IXQG4FA2U5NWLCZ7AFM9NHH02C9B2", "dateTime": 1516563452025}, {"current_trial": 239, "trialdata": {"rt": [6364, 8620, 10668, 12380, 16396, 18100, 21076, 22435, 25100, 26955, 33788, 35683, 38563, 41571, 44155, 47244, 49603, 51107, 53587, 56763, 58299], "recwords": ["basement", "woman", "banker", "bank", "pigeon", "casket", "cellar", "skirt", "fruit", "peanut", "fruit", "skirt", "shark", "antler", "flask", "beaker", "cigar", "sword", "lettuce", "farmer", "knife"], "key_times": [2852, 3059, 3147, 3380, 3499, 3507, 3691, 4828, 5004, 5420, 5684, 5828, 6364, 7755, 7915, 8099, 8251, 8363, 8620, 9644, 9980, 10108, 10172, 10380, 10444, 10668, 11139, 11148, 11611, 11763, 11955, 12043, 12380, 13988, 14212, 14788, 14955, 15267, 15531, 16396, 16580, 16908, 17004, 17604, 17780, 17892, 18100, 19291, 19644, 19835, 19995, 20100, 20324, 21076, 21468, 21804, 22004, 22148, 22251, 22435, 24333, 24444, 24572, 24636, 24804, 25100, 25892, 26075, 26172, 26444, 26556, 26738, 26955, 28284, 28396, 28596, 28684, 28860, 33788, 34980, 35115, 35315, 35395, 35475, 35683, 37403, 37675, 37811, 37995, 38222, 38563, 39883, 40075, 40523, 40995, 41155, 41323, 41571, 43120, 43368, 43370, 43555, 43611, 43683, 43803, 44155, 44843, 45692, 46084, 46236, 46340, 46724, 46908, 47004, 47244, 48716, 48868, 49035, 49276, 49411, 49603, 50141, 50283, 50627, 50771, 50996, 51107, 52372, 52563, 52859, 52987, 53099, 53323, 53443, 53587, 55283, 55587, 55708, 55827, 55939, 56019, 56763, 57531, 57651, 57827, 58059, 58131, 58299, 59195, 59371, 59523, 59643, 59731, 59923], "trial_type": "free-recall", "conditions": [24, 1600, "v", 12000], "internal_node_id": "0.0-176.0-0.0", "key_presses": [66, 65, 83, 69, 77, 78, 69, 8, 8, 69, 78, 84, 13, 87, 79, 77, 65, 78, 13, 66, 65, 78, 75, 69, 82, 13, 66, 78, 8, 65, 78, 75, 13, 80, 73, 71, 69, 79, 78, 13, 67, 65, 83, 75, 69, 84, 13, 67, 69, 76, 76, 65, 82, 13, 83, 75, 73, 82, 84, 13, 70, 82, 85, 73, 84, 13, 80, 69, 65, 78, 85, 84, 13, 70, 82, 85, 73, 84, 1