{"condition": 0, "counterbalance": 1206, "assignmentId": "39ZSFO5CA93RYWYETDNU37N8HW8JU5", "workerId": "MTK1140", "hitId": "3OREP8RUT2I0OB1DVEGUCK7KL77GBQ", "currenttrial": 626, "bonus": 0, "data": [{"uniqueid": "MTK1140:39ZSFO5CA93RYWYETDNU37N8HW8JU5", "current_trial": 0, "dateTime": 1513194651744, "trialdata": {"rt": 1361, "key_press": 32, "type": "INSTRUCTIONS", "trial_type": "text", "trial_index": 0, "time_elapsed": 1367, "internal_node_id": "0.0-0.0"}}, {"uniqueid": "MTK1140:39ZSFO5CA93RYWYETDNU37N8HW8JU5", "current_trial": 1, "dateTime": 1513194657711, "trialdata": {"rt": 5963, "key_press": 32, "type": "INSTRUCTIONS", "trial_type": "text", "trial_index": 1, "time_elapsed": 7336, "internal_node_id": "0.0-1.0"}}, {"uniqueid": "MTK1140:39ZSFO5CA93RYWYETDNU37N8HW8JU5", "current_trial": 2, "dateTime": 1513194664042, "trialdata": {"rt": [6258], "responses": ["ocean"], "type": "AUDIO_TEST", "trial_type": "audio-test", "trial_index": 2, "time_elapsed": 13667, "internal_node_id": "0.0-2.0"}}, {"uniqueid": "MTK1140:39ZSFO5CA93RYWYETDNU37N8HW8JU5", "current_trial": 3, "dateTime": 1513194669993, "trialdata": {"rt": [5926], "responses": ["crystal"], "type": "AUDIO_TEST", "trial_type": "audio-test", "trial_index": 3, "time_elapsed": 19618, "internal_node_id": "0.0-3.0"}}, {"uniqueid": "MTK1140:39ZSFO5CA93RYWYETDNU37N8HW8JU5", "current_trial": 4, "dateTime": 1513194686328, "trialdata": {"rt": [9467, 16326], "responses": ["spite", "spice"], "type": "AUDIO_TEST", "trial_type": "audio-test", "trial_index": 4, "time_elapsed": 35953, "internal_node_id": "0.0-4.0"}}, {"uniqueid": "MTK1140:39ZSFO5CA93RYWYETDNU37N8HW8JU5", "current_trial": 5, "dateTime": 1513194699227, "trialdata": {"rt": 12144, "responses": "{\"Q0\":\"10 pm\",\"Q1\":\"7 am\",\"Q2\":\"4\"}", "type": "SLEEP_SURVEY", "trial_type": "survey-text", "trial_index": 5, "time_elapsed": 48852, "internal_node_id": "0.0-5.0"}}, {"uniqueid": "MTK1140:39ZSFO5CA93RYWYETDNU37N8HW8JU5", "current_trial": 6, "dateTime": 1513194734291, "trialdata": {"rt": 34060, "key_press": 32, "type": "INSTRUCTIONS", "trial_type": "text", "trial_index": 6, "time_elapsed": 83916, "internal_node_id": "0.0-6.0"}}, {"uniqueid": "MTK1140:39ZSFO5CA93RYWYETDNU37N8HW8JU5", "current_trial": 7, "dateTime": 1513194740703, "trialdata": {"rt": 5910, "key_press": 32, "type": "INSTRUCTIONS", "trial_type": "text", "trial_index": 7, "time_elapsed": 90328, "internal_node_id": "0.0-7.0"}}, {"uniqueid": "MTK1140:39ZSFO5CA93RYWYETDNU37N8HW8JU5", "current_trial": 8, "dateTime": 1513194744977, "trialdata": {"rt": 3771, "key_press": 32, "type": "INSTRUCTIONS", "trial_type": "text", "trial_index": 8, "time_elapsed": 94602, "internal_node_id": "0.0-8.0"}}, {"uniqueid": "MTK1140:39ZSFO5CA93RYWYETDNU37N8HW8JU5", "current_trial": 9, "dateTime": 1513194764006, "trialdata": {"rt": [2037, 16865], "responses": ["9", "22"], "num1": [1, 5, 3], "num2": [7, 8, 7], "num3": [1, 9, 7], "type": "DISTRACTOR", "conditions": [18, 1200, "a", 18000], "trial": 0, "trial_type": "math-distractor", "trial_index": 9, "time_elapsed": 113631, "internal_node_id": "0.0-9.0"}}, {"uniqueid": "MTK1140:39ZSFO5CA93RYWYETDNU37N8HW8JU5", "current_trial": 10, "dateTime": 1513194767011, "trialdata": {"rt": -1, "stimulus": "<p id=\"stim\">10</p>", "key_press": -1, "trial_type": "single-stim", "trial_index": 10, "time_elapsed": 116635, "internal_node_id": "0.0-10.0-0.0"}}, {"uniqueid": "MTK1140:39ZSFO5CA93RYWYETDNU37N8HW8JU5", "current_trial": 11, "dateTime": 1513194768014, "trialdata": {"rt": -1, "stimulus": "<p id=\"stim\">9</p>", "key_press": -1, "trial_type": "single-stim", "trial_index": 11, "time_elapsed": 117639, "internal_node_id": "0.0-10.0-1.0"}}, {"uniqueid": "MTK1140:39ZSFO5CA93RYWYETDNU37N8HW8JU5", "current_trial": 12, "dateTime": 1513194769016, "trialdata": {"rt": -1, "stimulus": "<p id=\"stim\">8</p>", "key_press": -1, "trial_type": "single-stim", "trial_index": 12, "time_elapsed": 118641, "internal_node_id": "0.0-10.0-2.0"}}, {"uniqueid": "MTK1140:39ZSFO5CA93RYWYETDNU37N8HW8JU5", "current_trial": 13, "dateTime": 1513194770018, "trialdata": {"rt": -1, "stimulus": "<p id=\"stim\">7</p>", "key_press": -1, "trial_type": "single-stim", "trial_index": 13, "time_elapsed": 119643, "internal_node_id": "0.0-10.0-3.0"}}, {"uniqueid": "MTK1140:39ZSFO5CA93RYWYETDNU37N8HW8JU5", "current_trial": 14, "dateTime": 1513194771021, "trialdata": {"rt": -1, "stimulus": "<p id=\"stim\">6</p>", "key_press": -1, "trial_type": "single-stim", "trial_index": 14, "time_elapsed": 120646, "internal_node_id": "0.0-10.0-4.0"}}, {"uniqueid": "MTK1140:39ZSFO5CA93RYWYETDNU37N8HW8JU5", "current_trial": 15, "dateTime": 1513194772030, "trialdata": {"rt": -1, "stimulus": "<p id=\"stim\">5</p>", "key_press": -1, "trial_type": "single-stim", "trial_index": 15, "time_elapsed": 121655, "internal_node_id": "0.0-10.0-5.0"}}, {"uniqueid": "MTK1140:39ZSFO5CA93RYWYETDNU37N8HW8JU5", "current_trial": 16, "dateTime": 1513194773032, "trialdata": {"rt": -1, "stimulus": "<p id=\"stim\">4</p>", "key_press": -1, "trial_type": "single-stim", "trial_index": 16, "time_elapsed": 122657, "internal_node_id": "0.0-10.0-6.0"}}, {"uniqueid": "MTK1140:39ZSFO5CA93RYWYETDNU37N8HW8JU5", "current_trial": 17, "dateTime": 1513194774036, "trialdata": {"rt": -1, "stimulus": "<p id=\"stim\">3</p>", "key_press": -1, "trial_type": "single-stim", "trial_index": 17, "time_elapsed": 123661, "internal_node_id": "0.0-10.0-7.0"}}, {"uniqueid": "MTK1140:39ZSFO5CA93RYWYETDNU37N8HW8JU5", "current_trial": 18, "dateTime": 1513194775039, "trialdata": {"rt": -1, "stimulus": "<p id=\"stim\">2</p>", "key_press": -1, "trial_type": "single-stim", "trial_index": 18, "time_elapsed": 124664, "internal_node_id": "0.0-10.0-8.0"}}, {"uniqueid": "MTK1140:39ZSFO5CA93RYWYETDNU37N8HW8JU5", "current_trial": 19, "dateTime": 1513194776042, "trialdata": {"rt": -1, "stimulus": "<p id=\"stim\">1</p>", "key_press": -1, "trial_type": "single-stim", "trial_index": 19, "time_elapsed": 125667, "internal_node_id": "0.0-10.0-9.0"}}, {"uniqueid": "MTK1140:39ZSFO5CA93RYWYETDNU37N8HW8JU5", "current_trial": 20, "dateTime": 1513194777545, "trialdata": {"rt": -1, "stimulus": "<p id=\"stim\">+</p>", "key_press": -1, "type": "FIXATION", "trial_type": "single-stim", "trial_index": 20, "time_elapsed": 127169, "internal_node_id": "0.0-11.0-0.0"}}, {"uniqueid": "MTK1140:39ZSFO5CA93RYWYETDNU37N8HW8JU5", "current_trial": 21, "dateTime": 1513194779892, "trialdata": {"rt": -1000, "stimulus": "/static/audio/wordpool/HONEY.wav", "key_press": -1, "type": "PRES_AUD", "word": "honey", "wordID": 712, "conditions": [18, 1200, "a", 18000], "trial": 0, "serialpos": 0, "trial_type": "single-audio", "trial_index": 21, "time_elapsed": 129517, "internal_node_id": "0.0-12.0"}}, {"uniqueid": "MTK1140:39ZSFO5CA93RYWYETDNU37N8HW8JU5", "current_trial": 22, "dateTime": 1513194781963, "trialdata": {"rt": -1000, "stimulus": "/static/audio/wordpool/OFFICE.wav", "key_press": -1, "type": "PRES_AUD", "word": "office", "wordID": 971, "conditions": [18, 1200, "a", 18000], "trial": 0, "serialpos": 1, "trial_type": "single-audio", "trial_index": 22, "time_elapsed": 131588, "internal_node_id": "0.0-13.0"}}, {"uniqueid": "MTK1140:39ZSFO5CA93RYWYETDNU37N8HW8JU5", "current_trial": 23, "dateTime": 1513194784157, "trialdata": {"rt": -1000, "stimulus": "/static/audio/wordpool/DASHBOARD.wav", "key_press": -1, "type": "PRES_AUD", "word": "dashboard", "wordID": 440, "conditions": [18, 1200, "a", 18000], "trial": 0, "serialpos": 2, "trial_type": "single-audio", "trial_index": 23, "time_elapsed": 133782, "internal_node_id": "0.0-14.0"}}, {"uniqueid": "MTK1140:39ZSFO5CA93RYWYETDNU37N8HW8JU5", "current_trial": 24, "dateTime": 1513194786322, "trialdata": {"rt": -1000, "stimulus": "/static/audio/wordpool/THREAD.wav", "key_press": -1, "type": "PRES_AUD", "word": "thread", "wordID": 1459, "conditions": [18, 1200, "a", 18000], "trial": 0, "serialpos": 3, "trial_type": "single-audio", "trial_index": 24, "time_elapsed": 135946, "internal_node_id": "0.0-15.0"}}, {"uniqueid": "MTK1140:39ZSFO5CA93RYWYETDNU37N8HW8JU5", "current_trial": 25, "dateTime": 1513194788373, "trialdata": {"rt": -1000, "stimulus": "/static/audio/wordpool/FLUTE.wav", "key_press": -1, "type": "PRES_AUD", "word": "flute", "wordID": 584, "conditions": [18, 1200, "a", 18000], "trial": 0, "serialpos": 4, "trial_type": "single-audio", "trial_index": 25, "time_elapsed": 137998, "internal_node_id": "0.0-16.0"}}, {"uniqueid": "MTK1140:39ZSFO5CA93RYWYETDNU37N8HW8JU5", "current_trial": 26, "dateTime": 1513194790685, "trialdata": {"rt": -1000, "stimulus": "/static/audio/wordpool/TYPIST.wav", "key_press": -1, "type": "PRES_AUD", "word": "typist", "wordID": 1531, "conditions": [18, 1200, "a", 18000], "trial": 0, "serialpos": 5, "trial_type": "single-audio", "trial_index": 26, "time_elapsed": 140310, "internal_node_id": "0.0-17.0"}}, {"uniqueid": "MTK1140:39ZSFO5CA93RYWYETDNU37N8HW8JU5", "current_trial": 27, "dateTime": 1513194792969, "trialdata": {"rt": -1000, "stimulus": "/static/audio/wordpool/SIBLING.wav", "key_press": -1, "type": "PRES_AUD", "word": "sibling", "wordID": 1300, "conditions": [18, 1200, "a", 18000], "trial": 0, "serialpos": 6, "trial_type": "single-audio", "trial_index": 27, "time_elapsed": 142594, "internal_node_id": "0.0-18.0"}}, {"uniqueid": "MTK1140:39ZSFO5CA93RYWYETDNU37N8HW8JU5", "current_trial": 28, "dateTime": 1513194795129, "trialdata": {"rt": -1000, "stimulus": "/static/audio/wordpool/SUITCASE.wav", "key_press": -1, "type": "PRES_AUD", "word": "suitcase", "wordID": 1402, "conditions": [18, 1200, "a", 18000], "trial": 0, "serialpos": 7, "trial_type": "single-audio", "trial_index": 28, "time_elapsed": 144754, "internal_node_id": "0.0-19.0"}}, {"uniqueid": "MTK1140:39ZSFO5CA93RYWYETDNU37N8HW8JU5", "current_trial": 29, "dateTime": 1513194797326, "trialdata": {"rt": -1000, "stimulus": "/static/audio/wordpool/STOVE.wav", "key_press": -1, "type": "PRES_AUD", "word": "stove", "wordID": 1387, "conditions": [18, 1200, "a", 18000], "trial": 0, "serialpos": 8, "trial_type": "single-audio", "trial_index": 29, "time_elapsed": 146950, "internal_node_id": "0.0-20.0"}}, {"uniqueid": "MTK1140:39ZSFO5CA93RYWYETDNU37N8HW8JU5", "current_trial": 30, "dateTime": 1513194799426, "trialdata": {"rt": -1000, "stimulus": "/static/audio/wordpool/VICTIM.wav", "key_press": -1, "type": "PRES_AUD", "word": "victim", "wordID": 1561, "conditions": [18, 1200, "a", 18000], "trial": 0, "serialpos": 9, "trial_type": "single-audio", "trial_index": 30, "time_elapsed": 149051, "internal_node_id": "0.0-21.0"}}, {"uniqueid": "MTK1140:39ZSFO5CA93RYWYETDNU37N8HW8JU5", "current_trial": 31, "dateTime": 1513194801504, "trialdata": {"rt": -1000, "stimulus": "/static/audio/wordpool/SUPPER.wav", "key_press": -1, "type": "PRES_AUD", "word": "supper", "wordID": 1410, "conditions": [18, 1200, "a", 18000], "trial": 0, "serialpos": 10, "trial_type": "single-audio", "trial_index": 31, "time_elapsed": 151129, "internal_node_id": "0.0-22.0"}}, {"uniqueid": "MTK1140:39ZSFO5CA93RYWYETDNU37N8HW8JU5", "current_trial": 32, "dateTime": 1513194803846, "trialdata": {"rt": -1000, "stimulus": "/static/audio/wordpool/SLUG.wav", "key_press": -1, "type": "PRES_AUD", "word": "slug", "wordID": 1328, "conditions": [18, 1200, "a", 18000], "trial": 0, "serialpos": 11, "trial_type": "single-audio", "trial_index": 32, "time_elapsed": 153471, "internal_node_id": "0.0-23.0"}}, {"uniqueid": "MTK1140:39ZSFO5CA93RYWYETDNU37N8HW8JU5", "current_trial": 33, "dateTime": 1513194806197, "trialdata": {"rt": -1000, "stimulus": "/static/audio/wordpool/POCKET.wav", "key_press": -1, "type": "PRES_AUD", "word": "pocket", "wordID": 1092, "conditions": [18, 1200, "a", 18000], "trial": 0, "serialpos": 12, "trial_type": "single-audio", "trial_index": 33, "time_elapsed": 155821, "internal_node_id": "0.0-24.0"}}, {"uniqueid": "MTK1140:39ZSFO5CA93RYWYETDNU37N8HW8JU5", "current_trial": 34, "dateTime": 1513194808444, "trialdata": {"rt": -1000, "stimulus": "/static/audio/wordpool/MARS.wav", "key_press": -1, "type": "PRES_AUD", "word": "mars", "wordID": 872, "conditions": [18, 1200, "a", 18000], "trial": 0, "serialpos": 13, "trial_type": "single-audio", "trial_index": 34, "time_elapsed": 158069, "internal_node_id": "0.0-25.0"}}, {"uniqueid": "MTK1140:39ZSFO5CA93RYWYETDNU37N8HW8JU5", "current_trial": 35, "dateTime": 1513194810477, "trialdata": {"rt": -1000, "stimulus": "/static/audio/wordpool/WHISKERS.wav", "key_press": -1, "type": "PRES_AUD", "word": "whiskers", "wordID": 1604, "conditions": [18, 1200, "a", 18000], "trial": 0, "serialpos": 14, "trial_type": "single-audio", "trial_index": 35, "time_elapsed": 160101, "internal_node_id": "0.0-26.0"}}, {"uniqueid": "MTK1140:39ZSFO5CA93RYWYETDNU37N8HW8JU5", "current_trial": 36, "dateTime": 1513194812528, "trialdata": {"rt": -1000, "stimulus": "/static/audio/wordpool/GYMNAST.wav", "key_press": -1, "type": "PRES_AUD", "word": "gymnast", "wordID": 674, "conditions": [18, 1200, "a", 18000], "trial": 0, "serialpos": 15, "trial_type": "single-audio", "trial_index": 36, "time_elapsed": 162153, "internal_node_id": "0.0-27.0"}}, {"uniqueid": "MTK1140:39ZSFO5CA93RYWYETDNU37N8HW8JU5", "current_trial": 37, "dateTime": 1513194814624, "trialdata": {"rt": -1000, "stimulus": "/static/audio/wordpool/CROWN.wav", "key_press": -1, "type": "PRES_AUD", "word": "crown", "wordID": 414, "conditions": [18, 1200, "a", 18000], "trial": 0, "serialpos": 16, "trial_type": "single-audio", "trial_index": 37, "time_elapsed": 164248, "internal_node_id": "0.0-28.0"}}, {"uniqueid": "MTK1140:39ZSFO5CA93RYWYETDNU37N8HW8JU5", "current_trial": 38, "dateTime": 1513194816700, "trialdata": {"rt": -1000, "stimulus": "/static/audio/wordpool/COSTUME.wav", "key_press": -1, "type": "PRES_AUD", "word": "costume", "wordID": 382, "conditions": [18, 1200, "a", 18000], "trial": 0, "serialpos": 17, "trial_type": "single-audio", "trial_index": 38, "time_elapsed": 166324, "internal_node_id": "0.0-29.0"}}, {"uniqueid": "MTK1140:39ZSFO5CA93RYWYETDNU37N8HW8JU5", "current_trial": 39, "dateTime": 1513194817953, "trialdata": {"rt": -1, "stimulus": "", "key_press": -1, "type": "PRE_RECALL_DELAY", "trial_type": "single-stim", "trial_index": 39, "time_elapsed": 167577, "internal_node_id": "0.0-30.0-0.0"}}, {"uniqueid": "MTK1140:39ZSFO5CA93RYWYETDNU37N8HW8JU5", "current_trial": 40, "dateTime": 1513194818455, "trialdata": {"rt": -1000, "stimulus": "/static/audio/400Hz.wav", "key_press": -1, "type": "PRE_RECALL_ALERT", "trial_type": "single-audio", "trial_index": 40, "time_elapsed": 168079, "internal_node_id": "0.0-31.0"}}, {"uniqueid": "MTK1140:39ZSFO5CA93RYWYETDNU37N8HW8JU5", "current_trial": 41, "dateTime": 1513194878474, "trialdata": {"rt": [2779, 3782, 5896, 7455, 13404, 15254, 18086, 23449, 29818, 33272, 50255, 51994, 52375], "recwords": ["costume", "crown", "whiskers", "stove", "gymnast", "office", "crown", "spice", "spoon", "", "", "", ""], "type": "FREE_RECALL", "conditions": [18, 1200, "a", 18000], "trial": 0, "trial_type": "free-recall", "trial_index": 41, "time_elapsed": 228088, "internal_node_id": "0.0-32.0-0.0"}}, {"uniqueid": "MTK1140:39ZSFO5CA93RYWYETDNU37N8HW8JU5", "current_trial": 42, "dateTime": 1513194904402, "trialdata": {"rt": 23925, "key_press": 32, "type": "INSTRUCTIONS", "trial_type": "text", "trial_index": 42, "time_elapsed": 254027, "internal_node_id": "0.0-33.0"}}, {"uniqueid": "MTK1140:39ZSFO5CA93RYWYETDNU37N8HW8JU5", "current_trial": 43, "dateTime": 1513194924409, "trialdata": {"rt": [3428, 5068, 6564, 8813, 10709, 12226, 14343, 17795], "responses": ["15", "14", "15", "12", "11", "11", "10", "14"], "num1": [5, 8, 1, 9, 2, 4, 2, 2, 6], "num2": [4, 2, 9, 2, 5, 5, 6, 5, 4], "num3": [6, 4, 5, 1, 4, 2, 2, 7, 7], "type": "DISTRACTOR", "conditions": [18, 1200, "v", 18000], "trial": 1, "trial_type": "math-distractor", "trial_index": 43, "time_elapsed": 274034, "internal_node_id": "0.0-34.0"}}, {"uniqueid": "MTK1140:39ZSFO5CA93RYWYETDNU37N8HW8JU5", "current_trial": 44, "dateTime": 1513194927414, "trialdata": {"rt": -1, "stimulus": "<p id=\"stim\">10</p>", "key_press": -1, "trial_type": "single-stim", "trial_index": 44, "time_elapsed": 277038, "internal_node_id": "0.0-35.0-0.0"}}, {"uniqueid": "MTK1140:39ZSFO5CA93RYWYETDNU37N8HW8JU5", "current_trial": 45, "dateTime": 1513194928419, "trialdata": {"rt": -1, "stimulus": "<p id=\"stim\">9</p>", "key_press": -1, "trial_type": "single-stim", "trial_index": 45, "time_elapsed": 278043, "internal_node_id": "0.0-35.0-1.0"}}, {"uniqueid": "MTK1140:39ZSFO5CA93RYWYETDNU37N8HW8JU5", "current_trial": 46, "dateTime": 1513194929422, "trialdata": {"rt": -1, "stimulus": "<p id=\"stim\">8</p>", "key_press": -1, "trial_type": "single-stim", "trial_index": 46, "time_elapsed": 279047, "internal_node_id": "0.0-35.0-2.0"}}, {"uniqueid": "MTK1140:39ZSFO5CA93RYWYETDNU37N8HW8JU5", "current_trial": 47, "dateTime": 1513194930426, "trialdata": {"rt": -1, "stimulus": "<p id=\"stim\">7</p>", "key_press": -1, "trial_type": "single-stim", "trial_index": 47, "time_elapsed": 280050, "internal_node_id": "0.0-35.0-3.0"}}, {"uniqueid": "MTK1140:39ZSFO5CA93RYWYETDNU37N8HW8JU5", "current_trial": 48, "dateTime": 1513194931428, "trialdata": {"rt": -1, "stimulus": "<p id=\"stim\">6</p>", "key_press": -1, "trial_type": "single-stim", "trial_index": 48, "time_elapsed": 281053, "internal_node_id": "0.0-35.0-4.0"}}, {"uniqueid": "MTK1140:39ZSFO5CA93RYWYETDNU37N8HW8JU5", "current_trial": 49, "dateTime": 1513194932431, "trialdata": {"rt": -1, "stimulus": "<p id=\"stim\">5</p>", "key_press": -1, "trial_type": "single-stim", "trial_index": 49, "time_elapsed": 282056, "internal_node_id": "0.0-35.0-5.0"}}, {"uniqueid": "MTK1140:39ZSFO5CA93RYWYETDNU37N8HW8JU5", "current_trial": 50, "dateTime": 1513194933434, "trialdata": {"rt": -1, "stimulus": "<p id=\"stim\">4</p>", "key_press": -1, "trial_type": "single-stim", "trial_index": 50, "time_elapsed": 283058, "internal_node_id": "0.0-35.0-6.0"}}, {"uniqueid": "MTK1140:39ZSFO5CA93RYWYETDNU37N8HW8JU5", "current_trial": 51, "dateTime": 1513194934439, "trialdata": {"rt": -1, "stimulus": "<p id=\"stim\">3</p>", "key_press": -1, "trial_type": "single-stim", "trial_index": 51, "time_elapsed": 284064, "internal_node_id": "0.0-35.0-7.0"}}, {"uniqueid": "MTK1140:39ZSFO5CA93RYWYETDNU37N8HW8JU5", "current_trial": 52, "dateTime": 1513194935446, "trialdata": {"rt": -1, "stimulus": "<p id=\"stim\">2</p>", "key_press": -1, "trial_type": "single-stim", "trial_index": 52, "time_elapsed": 285067, "internal_node_id": "0.0-35.0-8.0"}}, {"uniqueid": "MTK1140:39ZSFO5CA93RYWYETDNU37N8HW8JU5", "current_trial": 53, "dateTime": 1513194936450, "trialdata": {"rt": -1, "stimulus": "<p id=\"stim\">1</p>", "key_press": -1, "trial_type": "single-stim", "trial_index": 53, "time_elapsed": 286074, "internal_node_id": "0.0-35.0-9.0"}}, {"uniqueid": "MTK1140:39ZSFO5CA93RYWYETDNU37N8HW8JU5", "current_trial": 54, "dateTime": 1513194937953, "trialdata": {"rt": -1, "stimulus": "<p id=\"stim\">+</p>", "key_press": -1, "type": "FIXATION", "trial_type": "single-stim", "trial_index": 54, "time_elapsed": 287577, "internal_node_id": "0.0-36.0-0.0"}}, {"uniqueid": "MTK1140:39ZSFO5CA93RYWYETDNU37N8HW8JU5", "current_trial": 55, "dateTime": 1513194939160, "trialdata": {"rt": -1, "stimulus": "<p id=\"stim\">COUNTRY</p>", "key_press": -1, "type": "PRES_VIS", "word": "country", "wordID": 387, "conditions": [18, 1200, "v", 18000], "trial": 1, "serialpos": 0, "trial_type": "single-stim", "trial_index": 55, "time_elapsed": 288785, "internal_node_id": "0.0-37.0"}}, {"uniqueid": "MTK1140:39ZSFO5CA93RYWYETDNU37N8HW8JU5", "current_trial": 56, "dateTime": 1513194941422, "trialdata": {"rt": -1, "stimulus": "<p id=\"stim\">BIKE</p>", "key_press": -1, "type": "PRES_VIS", "word": "bike", "wordID": 124, "conditions": [18, 1200, "v", 18000], "trial": 1, "serialpos": 1, "trial_type": "single-stim", "trial_index": 56, "time_elapsed": 291047, "internal_node_id": "0.0-38.0"}}, {"uniqueid": "MTK1140:39ZSFO5CA93RYWYETDNU37N8HW8JU5", "current_trial": 57, "dateTime": 1513194943612, "trialdata": {"rt": -1, "stimulus": "<p id=\"stim\">COLLEGE</p>", "key_press": -1, "type": "PRES_VIS", "word": "college", "wordID": 345, "conditions": [18, 1200, "v", 18000], "trial": 1, "serialpos": 2, "trial_type": "single-stim", "trial_index": 57, "time_elapsed": 293237, "internal_node_id": "0.0-39.0"}}, {"uniqueid": "MTK1140:39ZSFO5CA93RYWYETDNU37N8HW8JU5", "current_trial": 58, "dateTime": 1513194945938, "trialdata": {"rt": -1, "stimulus": "<p id=\"stim\">LEADER</p>", "key_press": -1, "type": "PRES_VIS", "word": "leader", "wordID": 806, "conditions": [18, 1200, "v", 18000], "trial": 1, "serialpos": 3, "trial_type": "single-stim", "trial_index": 58, "time_elapsed": 295563, "internal_node_id": "0.0-40.0"}}, {"uniqueid": "MTK1140:39ZSFO5CA93RYWYETDNU37N8HW8JU5", "current_trial": 59, "dateTime": 1513194947958, "trialdata": {"rt": -1, "stimulus": "<p id=\"stim\">MISSILE</p>", "key_press": -1, "type": "PRES_VIS", "word": "missile", "wordID": 899, "conditions": [18, 1200, "v", 18000], "trial": 1, "serialpos": 4, "trial_type": "single-stim", "trial_index": 59, "time_elapsed": 297583, "internal_node_id": "0.0-41.0"}}, {"uniqueid": "MTK1140:39ZSFO5CA93RYWYETDNU37N8HW8JU5", "current_trial": 60, "dateTime": 1513194950236, "trialdata": {"rt": -1, "stimulus": "<p id=\"stim\">CATTLE</p>", "key_press": -1, "type": "PRES_VIS", "word": "cattle", "wordID": 260, "conditions": [18, 1200, "v", 18000], "trial": 1, "serialpos": 5, "trial_type": "single-stim", "trial_index": 60, "time_elapsed": 299860, "internal_node_id": "0.0-42.0"}}, {"uniqueid": "MTK1140:39ZSFO5CA93RYWYETDNU37N8HW8JU5", "current_trial": 61, "dateTime": 1513194952628, "trialdata": {"rt": -1, "stimulus": "<p id=\"stim\">MONSTER</p>", "key_press": -1, "type": "PRES_VIS", "word": "monster", "wordID": 911, "conditions": [18, 1200, "v", 18000], "trial": 1, "serialpos": 6, "trial_type": "single-stim", "trial_index": 61, "time_elapsed": 302253, "internal_node_id": "0.0-43.0"}}, {"uniqueid": "MTK1140:39ZSFO5CA93RYWYETDNU37N8HW8JU5", "current_trial": 62, "dateTime": 1513194955021, "trialdata": {"rt": -1, "stimulus": "<p id=\"stim\">BADGE</p>", "key_press": -1, "type": "PRES_VIS", "word": "badge", "wordID": 67, "conditions": [18, 1200, "v", 18000], "trial": 1, "serialpos": 7, "trial_type": "single-stim", "trial_index": 62, "time_elapsed": 304646, "internal_node_id": "0.0-44.0"}}, {"uniqueid": "MTK1140:39ZSFO5CA93RYWYETDNU37N8HW8JU5", "current_trial": 63, "dateTime": 1513194957199, "trialdata": {"rt": -1, "stimulus": "<p id=\"stim\">GARLIC</p>", "key_press": -1, "type": "PRES_VIS", "word": "garlic", "wordID": 623, "conditions": [18, 1200, "v", 18000], "trial": 1, "serialpos": 8, "trial_type": "single-stim", "trial_index": 63, "time_elapsed": 306823, "internal_node_id": "0.0-45.0"}}, {"uniqueid": "MTK1140:39ZSFO5CA93RYWYETDNU37N8HW8JU5", "current_trial": 64, "dateTime": 1513194959398, "trialdata": {"rt": -1, "stimulus": "<p id=\"stim\">ROBBER</p>", "key_press": -1, "type": "PRES_VIS", "word": "robber", "wordID": 1196, "conditions": [18, 1200, "v", 18000], "trial": 1, "serialpos": 9, "trial_type": "single-stim", "trial_index": 64, "time_elapsed": 309023, "internal_node_id": "0.0-46.0"}}, {"uniqueid": "MTK1140:39ZSFO5CA93RYWYETDNU37N8HW8JU5", "current_trial": 65, "dateTime": 1513194961503, "trialdata": {"rt": -1, "stimulus": "<p id=\"stim\">INFANT</p>", "key_press": -1, "type": "PRES_VIS", "word": "infant", "wordID": 736, "conditions": [18, 1200, "v", 18000], "trial": 1, "serialpos": 10, "trial_type": "single-stim", "trial_index": 65, "time_elapsed": 311128, "internal_node_id": "0.0-47.0"}}, {"uniqueid": "MTK1140:39ZSFO5CA93RYWYETDNU37N8HW8JU5", "current_trial": 66, "dateTime": 1513194963589, "trialdata": {"rt": -1, "stimulus": "<p id=\"stim\">LEG</p>", "key_press": -1, "type": "PRES_VIS", "word": "leg", "wordID": 808, "conditions": [18, 1200, "v", 18000], "trial": 1, "serialpos": 11, "trial_type": "single-stim", "trial_index": 66, "time_elapsed": 313214, "internal_node_id": "0.0-48.0"}}, {"uniqueid": "MTK1140:39ZSFO5CA93RYWYETDNU37N8HW8JU5", "current_trial": 67, "dateTime": 1513194965866, "trialdata": {"rt": -1, "stimulus": "<p id=\"stim\">HANDBAG</p>", "key_press": -1, "type": "PRES_VIS", "word": "handbag", "wordID": 683, "conditions": [18, 1200, "v", 18000], "trial": 1, "serialpos": 12, "trial_type": "single-stim", "trial_index": 67, "time_elapsed": 315490, "internal_node_id": "0.0-49.0"}}, {"uniqueid": "MTK1140:39ZSFO5CA93RYWYETDNU37N8HW8JU5", "current_trial": 68, "dateTime": 1513194967900, "trialdata": {"rt": -1, "stimulus": "<p id=\"stim\">NURSE</p>", "key_press": -1, "type": "PRES_VIS", "word": "nurse", "wordID": 962, "conditions": [18, 1200, "v", 18000], "trial": 1, "serialpos": 13, "trial_type": "single-stim", "trial_index": 68, "time_elapsed": 317519, "internal_node_id": "0.0-50.0"}}, {"uniqueid": "MTK1140:39ZSFO5CA93RYWYETDNU37N8HW8JU5", "current_trial": 69, "dateTime": 1513194970225, "trialdata": {"rt": -1, "stimulus": "<p id=\"stim\">GARDEN</p>", "key_press": -1, "type": "PRES_VIS", "word": "garden", "wordID": 622, "conditions": [18, 1200, "v", 18000], "trial": 1, "serialpos": 14, "trial_type": "single-stim", "trial_index": 69, "time_elapsed": 319850, "internal_node_id": "0.0-51.0"}}, {"uniqueid": "MTK1140:39ZSFO5CA93RYWYETDNU37N8HW8JU5", "current_trial": 70, "dateTime": 1513194972612, "trialdata": {"rt": -1, "stimulus": "<p id=\"stim\">SCALPEL</p>", "key_press": -1, "type": "PRES_VIS", "word": "scalpel", "wordID": 1242, "conditions": [18, 1200, "v", 18000], "trial": 1, "serialpos": 15, "trial_type": "single-stim", "trial_index": 70, "time_elapsed": 322236, "internal_node_id": "0.0-52.0"}}, {"uniqueid": "MTK1140:39ZSFO5CA93RYWYETDNU37N8HW8JU5", "current_trial": 71, "dateTime": 1513194974853, "trialdata": {"rt": -1, "stimulus": "<p id=\"stim\">SNACK</p>", "key_press": -1, "type": "PRES_VIS", "word": "snack", "wordID": 1330, "conditions": [18, 1200, "v", 18000], "trial": 1, "serialpos": 16, "trial_type": "single-stim", "trial_index": 71, "time_elapsed": 324478, "internal_node_id": "0.0-53.0"}}, {"uniqueid": "MTK1140:39ZSFO5CA93RYWYETDNU37N8HW8JU5", "current_trial": 72, "dateTime": 1513194976939, "trialdata": {"rt": -1, "stimulus": "<p id=\"stim\">PICNIC</p>", "key_press": -1, "type": "PRES_VIS", "word": "picnic", "wordID": 1059, "conditions": [18, 1200, "v", 18000], "trial": 1, "serialpos": 17, "trial_type": "single-stim", "trial_index": 72, "time_elapsed": 326564, "internal_node_id": "0.0-54.0"}}, {"uniqueid": "MTK1140:39ZSFO5CA93RYWYETDNU37N8HW8JU5", "current_trial": 73, "dateTime": 1513194979430, "trialdata": {"rt": -1, "stimulus": "", "key_press": -1, "type": "PRE_RECALL_DELAY", "trial_type": "single-stim", "trial_index": 73, "time_elapsed": 329055, "internal_node_id": "0.0-55.0-0.0"}}, {"uniqueid": "MTK1140:39ZSFO5CA93RYWYETDNU37N8HW8JU5", "current_trial": 74, "dateTime": 1513194979932, "trialdata": {"rt": -1000, "stimulus": "/static/audio/400Hz.wav", "key_press": -1, "type": "PRE_RECALL_ALERT", "trial_type": "single-audio", "trial_index": 74, "time_elapsed": 329556, "internal_node_id": "0.0-56.0"}}, {"uniqueid": "MTK1140:39ZSFO5CA93RYWYETDNU37N8HW8JU5", "current_trial": 75, "dateTime": 1513195039942, "trialdata": {"rt": [1886, 6843, 11685, 20943, 29183, 42503], "recwords": ["snack", "bike", "scapel", "cuddle", "bike", "country"], "type": "FREE_RECALL", "conditions": [18, 1200, "v", 18000], "trial": 1, "trial_type": "free-recall", "trial_index": 75, "time_elapsed": 389561, "internal_node_id": "0.0-57.0-0.0"}}, {"uniqueid": "MTK1140:39ZSFO5CA93RYWYETDNU37N8HW8JU5", "current_trial": 76, "dateTime": 1513195043691, "trialdata": {"rt": 1732, "key_press": 32, "type": "INSTRUCTIONS", "trial_type": "text", "trial_index": 76, "time_elapsed": 393302, "internal_node_id": "0.0-58.0"}}, {"uniqueid": "MTK1140:39ZSFO5CA93RYWYETDNU37N8HW8JU5", "current_trial": 77, "dateTime": 1513195068698, "trialdata": {"rt": [2956, 7048, 8633, 11330, 13128, 16783, 19169, 21153], "responses": ["16", "23", "19", "15", "7", "10", "8", "7"], "num1": [6, 7, 8, 8, 2, 2, 1, 2, 4], "num2": [4, 9, 2, 1, 4, 5, 3, 1, 4], "num3": [6, 6, 9, 6, 1, 3, 4, 4, 5], "type": "DISTRACTOR", "conditions": [24, 1600, "v", 24000], "trial": 2, "trial_type": "math-distractor", "trial_index": 77, "time_elapsed": 418323, "internal_node_id": "0.0-59.0"}}, {"uniqueid": "MTK1140:39ZSFO5CA93RYWYETDNU37N8HW8JU5", "current_trial": 78, "dateTime": 1513195071703, "trialdata": {"rt": -1, "stimulus": "<p id=\"stim\">10</p>", "key_press": -1, "trial_type": "single-stim", "trial_index": 78, "time_elapsed": 421327, "internal_node_id": "0.0-60.0-0.0"}}, {"uniqueid": "MTK1140:39ZSFO5CA93RYWYETDNU37N8HW8JU5", "current_trial": 79, "dateTime": 1513195072708, "trialdata": {"rt": -1, "stimulus": "<p id=\"stim\">9</p>", "key_press": -1, "trial_type": "single-stim", "trial_index": 79, "time_elapsed": 422332, "internal_node_id": "0.0-60.0-1.0"}}, {"uniqueid": "MTK1140:39ZSFO5CA93RYWYETDNU37N8HW8JU5", "current_trial": 80, "dateTime": 1513195073711, "trialdata": {"rt": -1, "stimulus": "<p id=\"stim\">8</p>", "key_press": -1, "trial_type": "single-stim", "trial_index": 80, "time_elapsed": 423335, "internal_node_id": "0.0-60.0-2.0"}}, {"uniqueid": "MTK1140:39ZSFO5CA93RYWYETDNU37N8HW8JU5", "current_trial": 81, "dateTime": 1513195074713, "trialdata": {"rt": -1, "stimulus": "<p id=\"stim\">7</p>", "key_press": -1, "trial_type": "single-stim", "trial_index": 81, "time_elapsed": 424338, "internal_node_id": "0.0-60.0-3.0"}}, {"uniqueid": "MTK1140:39ZSFO5CA93RYWYETDNU37N8HW8JU5", "current_trial": 82, "dateTime": 1513195075715, "trialdata": {"rt": -1, "stimulus": "<p id=\"stim\">6</p>", "key_press": -1, "trial_type": "single-stim", "trial_index": 82, "time_elapsed": 425340, "internal_node_id": "0.0-60.0-4.0"}}, {"uniqueid": "MTK1140:39ZSFO5CA93RYWYETDNU37N8HW8JU5", "current_trial": 83, "dateTime": 1513195076721, "trialdata": {"rt": -1, "stimulus": "<p id=\"stim\">5</p>", "key_press": -1, "trial_type": "single-stim", "trial_index": 83, "time_elapsed": 426346, "internal_node_id": "0.0-60.0-5.0"}}, {"uniqueid": "MTK1140:39ZSFO5CA93RYWYETDNU37N8HW8JU5", "current_trial": 84, "dateTime": 1513195077724, "trialdata": {"rt": -1, "stimulus": "<p id=\"stim\">4</p>", "key_press": -1, "trial_type": "single-stim", "trial_index": 84, "time_elapsed": 427349, "internal_node_id": "0.0-60.0-6.0"}}, {"uniqueid": "MTK1140:39ZSFO5CA93RYWYETDNU37N8HW8JU5", "current_trial": 85, "dateTime": 1513195078727, "trialdata": {"rt": -1, "stimulus": "<p id=\"stim\">3</p>", "key_press": -1, "trial_type": "single-stim", "trial_index": 85, "time_elapsed": 428352, "internal_node_id": "0.0-60.0-7.0"}}, {"uniqueid": "MTK1140:39ZSFO5CA93RYWYETDNU37N8HW8JU5", "current_trial": 86, "dateTime": 1513195079729, "trialdata": {"rt": -1, "stimulus": "<p id=\"stim\">2</p>", "key_press": -1, "trial_type": "single-stim", "trial_index": 86, "time_elapsed": 429354, "internal_node_id": "0.0-60.0-8.0"}}, {"uniqueid": "MTK1140:39ZSFO5CA93RYWYETDNU37N8HW8JU5", "current_trial": 87, "dateTime": 1513195080732, "trialdata": {"rt": -1, "stimulus": "<p id=\"stim\">1</p>", "key_press": -1, "trial_type": "single-stim", "trial_index": 87, "time_elapsed": 430357, "internal_node_id": "0.0-60.0-9.0"}}, {"uniqueid": "MTK1140:39ZSFO5CA93RYWYETDNU37N8HW8JU5", "current_trial": 88, "dateTime": 1513195082234, "trialdata": {"rt": -1, "stimulus": "<p id=\"stim\">+</p>", "key_press": -1, "type": "FIXATION", "trial_type": "single-stim", "trial_index": 88, "time_elapsed": 431859, "internal_node_id": "0.0-61.0-0.0"}}, {"uniqueid": "MTK1140:39ZSFO5CA93RYWYETDNU37N8HW8JU5", "current_trial": 89, "dateTime": 1513195083835, "trialdata": {"rt": -1, "stimulus": "<p id=\"stim\">BASEMENT</p>", "key_press": -1, "type": "PRES_VIS", "word": "basement", "wordID": 93, "conditions": [24, 1600, "v", 24000], "trial": 2, "serialpos": 0, "trial_type": "single-stim", "trial_index": 89, "time_elapsed": 433460, "internal_node_id": "0.0-62.0"}}, {"uniqueid": "MTK1140:39ZSFO5CA93RYWYETDNU37N8HW8JU5", "current_trial": 90, "dateTime": 1513195086355, "trialdata": {"rt": -1, "stimulus": "<p id=\"stim\">PEBBLE</p>", "key_press": -1, "type": "PRES_VIS", "word": "pebble", "wordID": 1034, "conditions": [24, 1600, "v", 24000], "trial": 2, "serialpos": 1, "trial_type": "single-stim", "trial_index": 90, "time_elapsed": 435980, "internal_node_id": "0.0-63.0"}}, {"uniqueid": "MTK1140:39ZSFO5CA93RYWYETDNU37N8HW8JU5", "current_trial": 91, "dateTime": 1513195089154, "trialdata": {"rt": -1, "stimulus": "<p id=\"stim\">CHEST</p>", "key_press": -1, "type": "PRES_VIS", "word": "chest", "wordID": 294, "conditions": [24, 1600, "v", 24000], "trial": 2, "serialpos": 2, "trial_type": "single-stim", "trial_index": 91, "time_elapsed": 438779, "internal_node_id": "0.0-64.0"}}, {"uniqueid": "MTK1140:39ZSFO5CA93RYWYETDNU37N8HW8JU5", "current_trial": 92, "dateTime": 1513195091936, "trialdata": {"rt": -1, "stimulus": "<p id=\"stim\">WARDROBE</p>", "key_press": -1, "type": "PRES_VIS", "word": "wardrobe", "wordID": 1586, "conditions": [24, 1600, "v", 24000], "trial": 2, "serialpos": 3, "trial_type": "single-stim", "trial_index": 92, "time_elapsed": 441557, "internal_node_id": "0.0-65.0"}}, {"uniqueid": "MTK1140:39ZSFO5CA93RYWYETDNU37N8HW8JU5", "current_trial": 93, "dateTime": 1513195094490, "trialdata": {"rt": -1, "stimulus": "<p id=\"stim\">ELBOW</p>", "key_press": -1, "type": "PRES_VIS", "word": "elbow", "wordID": 519, "conditions": [24, 1600, "v", 24000], "trial": 2, "serialpos": 4, "trial_type": "single-stim", "trial_index": 93, "time_elapsed": 444114, "internal_node_id": "0.0-66.0"}}, {"uniqueid": "MTK1140:39ZSFO5CA93RYWYETDNU37N8HW8JU5", "current_trial": 94, "dateTime": 1513195097256, "trialdata": {"rt": -1, "stimulus": "<p id=\"stim\">TUNNEL</p>", "key_press": -1, "type": "PRES_VIS", "word": "tunnel", "wordID": 1518, "conditions": [24, 1600, "v", 24000], "trial": 2, "serialpos": 5, "trial_type": "single-stim", "trial_index": 94, "time_elapsed": 446880, "internal_node_id": "0.0-67.0"}}, {"uniqueid": "MTK1140:39ZSFO5CA93RYWYETDNU37N8HW8JU5", "current_trial": 95, "dateTime": 1513195099897, "trialdata": {"rt": -1, "stimulus": "<p id=\"stim\">MAMMAL</p>", "key_press": -1, "type": "PRES_VIS", "word": "mammal", "wordID": 860, "conditions": [24, 1600, "v", 24000], "trial": 2, "serialpos": 6, "trial_type": "single-stim", "trial_index": 95, "time_elapsed": 449522, "internal_node_id": "0.0-68.0"}}, {"uniqueid": "MTK1140:39ZSFO5CA93RYWYETDNU37N8HW8JU5", "current_trial": 96, "dateTime": 1513195102447, "trialdata": {"rt": -1, "stimulus": "<p id=\"stim\">CYCLONE</p>", "key_press": -1, "type": "PRES_VIS", "word": "cyclone", "wordID": 430, "conditions": [24, 1600, "v", 24000], "trial": 2, "serialpos": 7, "trial_type": "single-stim", "trial_index": 96, "time_elapsed": 452072, "internal_node_id": "0.0-69.0"}}, {"uniqueid": "MTK1140:39ZSFO5CA93RYWYETDNU37N8HW8JU5", "current_trial": 97, "dateTime": 1513195104966, "trialdata": {"rt": -1, "stimulus": "<p id=\"stim\">CELLAR</p>", "key_press": -1, "type": "PRES_VIS", "word": "cellar", "wordID": 266, "conditions": [24, 1600, "v", 24000], "trial": 2, "serialpos": 8, "trial_type": "single-stim", "trial_index": 97, "time_elapsed": 454591, "internal_node_id": "0.0-70.0"}}, {"uniqueid": "MTK1140:39ZSFO5CA93RYWYETDNU37N8HW8JU5", "current_trial": 98, "dateTime": 1513195107722, "trialdata": {"rt": -1, "stimulus": "<p id=\"stim\">RABBIT</p>", "key_press": -1, "type": "PRES_VIS", "word": "rabbit", "wordID": 1151, "conditions": [24, 1600, "v", 24000], "trial": 2, "serialpos": 9, "trial_type": "single-stim", "trial_index": 98, "time_elapsed": 457347, "internal_node_id": "0.0-71.0"}}, {"uniqueid": "MTK1140:39ZSFO5CA93RYWYETDNU37N8HW8JU5", "current_trial": 99, "dateTime": 1513195110490, "trialdata": {"rt": -1, "stimulus": "<p id=\"stim\">SHRUB</p>", "key_press": -1, "type": "PRES_VIS", "word": "shrub", "wordID": 1298, "conditions": [24, 1600, "v", 24000], "trial": 2, "serialpos": 10, "trial_type": "single-stim", "trial_index": 99, "time_elapsed": 460115, "internal_node_id": "0.0-72.0"}}, {"uniqueid": "MTK1140:39ZSFO5CA93RYWYETDNU37N8HW8JU5", "current_trial": 100, "dateTime": 1513195113088, "trialdata": {"rt": -1, "stimulus": "<p id=\"stim\">LILY</p>", "key_press": -1, "type": "PRES_VIS", "word": "lily", "wordID": 820, "conditions": [24, 1600, "v", 24000], "trial": 2, "serialpos": 11, "trial_type": "single-stim", "trial_index": 100, "time_elapsed": 462713, "internal_node_id": "0.0-73.0"}}, {"uniqueid": "MTK1140:39ZSFO5CA93RYWYETDNU37N8HW8JU5", "current_trial": 101, "dateTime": 1513195115614, "trialdata": {"rt": -1, "stimulus": "<p id=\"stim\">ROBIN</p>", "key_press": -1, "type": "PRES_VIS", "word": "robin", "wordID": 1198, "conditions": [24, 1600, "v", 24000], "trial": 2, "serialpos": 12, "trial_type": "single-stim", "trial_index": 101, "time_elapsed": 465239, "internal_node_id": "0.0-74.0"}}, {"uniqueid": "MTK1140:39ZSFO5CA93RYWYETDNU37N8HW8JU5", "current_trial": 102, "dateTime": 1513195118034, "trialdata": {"rt": -1, "stimulus": "<p id=\"stim\">DENIM</p>", "key_press": -1, "type": "PRES_VIS", "word": "denim", "wordID": 445, "conditions": [24, 1600, "v", 24000], "trial": 2, "serialpos": 13, "trial_type": "single-stim", "trial_index": 102, "time_elapsed": 467659, "internal_node_id": "0.0-75.0"}}, {"uniqueid": "MTK1140:39ZSFO5CA93RYWYETDNU37N8HW8JU5", "current_trial": 103, "dateTime": 1513195120722, "trialdata": {"rt": -1, "stimulus": "<p id=\"stim\">SUNRISE</p>", "key_press": -1, "type": "PRES_VIS", "word": "sunrise", "wordID": 1406, "conditions": [24, 1600, "v", 24000], "trial": 2, "serialpos": 14, "trial_type": "single-stim", "trial_index": 103, "time_elapsed": 470347, "internal_node_id": "0.0-76.0"}}, {"uniqueid": "MTK1140:39ZSFO5CA93RYWYETDNU37N8HW8JU5", "current_trial": 104, "dateTime": 1513195123204, "trialdata": {"rt": -1, "stimulus": "<p id=\"stim\">BATHTUB</p>", "key_press": -1, "type": "PRES_VIS", "word": "bathtub", "wordID": 99, "conditions": [24, 1600, "v", 24000], "trial": 2, "serialpos": 15, "trial_type": "single-stim", "trial_index": 104, "time_elapsed": 472829, "internal_node_id": "0.0-77.0"}}, {"uniqueid": "MTK1140:39ZSFO5CA93RYWYETDNU37N8HW8JU5", "current_trial": 105, "dateTime": 1513195125774, "trialdata": {"rt": -1, "stimulus": "<p id=\"stim\">FOX</p>", "key_press": -1, "type": "PRES_VIS", "word": "fox", "wordID": 597, "conditions": [24, 1600, "v", 24000], "trial": 2, "serialpos": 16, "trial_type": "single-stim", "trial_index": 105, "time_elapsed": 475399, "internal_node_id": "0.0-78.0"}}, {"uniqueid": "MTK1140:39ZSFO5CA93RYWYETDNU37N8HW8JU5", "current_trial": 106, "dateTime": 1513195128388, "trialdata": {"rt": -1, "stimulus": "<p id=\"stim\">MISTER</p>", "key_press": -1, "type": "PRES_VIS", "word": "mister", "wordID": 900, "conditions": [24, 1600, "v", 24000], "trial": 2, "serialpos": 17, "trial_type": "single-stim", "trial_index": 106, "time_elapsed": 478013, "internal_node_id": "0.0-79.0"}}, {"uniqueid": "MTK1140:39ZSFO5CA93RYWYETDNU37N8HW8JU5", "current_trial": 107, "dateTime": 1513195130818, "trialdata": {"rt": -1, "stimulus": "<p id=\"stim\">PARROT</p>", "key_press": -1, "type": "PRES_VIS", "word": "parrot", "wordID": 1014, "conditions": [24, 1600, "v", 24000], "trial": 2, "serialpos": 18, "trial_type": "single-stim", "trial_index": 107, "time_elapsed": 480443, "internal_node_id": "0.0-80.0"}}, {"uniqueid": "MTK1140:39ZSFO5CA93RYWYETDNU37N8HW8JU5", "current_trial": 108, "dateTime": 1513195133481, "trialdata": {"rt": -1, "stimulus": "<p id=\"stim\">PADDLE</p>", "key_press": -1, "type": "PRES_VIS", "word": "paddle", "wordID": 999, "conditions": [24, 1600, "v", 24000], "trial": 2, "serialpos": 19, "trial_type": "single-stim", "trial_index": 108, "time_elapsed": 483106, "internal_node_id": "0.0-81.0"}}, {"uniqueid": "MTK1140:39ZSFO5CA93RYWYETDNU37N8HW8JU5", "current_trial": 109, "dateTime": 1513195135988, "trialdata": {"rt": -1, "stimulus": "<p id=\"stim\">BRIEFCASE</p>", "key_press": -1, "type": "PRES_VIS", "word": "briefcase", "wordID": 174, "conditions": [24, 1600, "v", 24000], "trial": 2, "serialpos": 20, "trial_type": "single-stim", "trial_index": 109, "time_elapsed": 485612, "internal_node_id": "0.0-82.0"}}, {"uniqueid": "MTK1140:39ZSFO5CA93RYWYETDNU37N8HW8JU5", "current_trial": 110, "dateTime": 1513195138791, "trialdata": {"rt": -1, "stimulus": "<p id=\"stim\">KNAPSACK</p>", "key_press": -1, "type": "PRES_VIS", "word": "knapsack", "wordID": 782, "conditions": [24, 1600, "v", 24000], "trial": 2, "serialpos": 21, "trial_type": "single-stim", "trial_index": 110, "time_elapsed": 488416, "internal_node_id": "0.0-83.0"}}, {"uniqueid": "MTK1140:39ZSFO5CA93RYWYETDNU37N8HW8JU5", "current_trial": 111, "dateTime": 1513195141232, "trialdata": {"rt": -1, "stimulus": "<p id=\"stim\">MAILMAN</p>", "key_press": -1, "type": "PRES_VIS", "word": "mailman", "wordID": 857, "conditions": [24, 1600, "v", 24000], "trial": 2, "serialpos": 22, "trial_type": "single-stim", "trial_index": 111, "time_elapsed": 490856, "internal_node_id": "0.0-84.0"}}, {"uniqueid": "MTK1140:39ZSFO5CA93RYWYETDNU37N8HW8JU5", "current_trial": 112, "dateTime": 1513195143956, "trialdata": {"rt": -1, "stimulus": "<p id=\"stim\">SKIRT</p>", "key_press": -1, "type": "PRES_VIS", "word": "skirt", "wordID": 1318, "conditions": [24, 1600, "v", 24000], "trial": 2, "serialpos": 23, "trial_type": "single-stim", "trial_index": 112, "time_elapsed": 493581, "internal_node_id": "0.0-85.0"}}, {"uniqueid": "MTK1140:39ZSFO5CA93RYWYETDNU37N8HW8JU5", "current_trial": 113, "dateTime": 1513195146327, "trialdata": {"rt": -1, "stimulus": "", "key_press": -1, "type": "PRE_RECALL_DELAY", "trial_type": "single-stim", "trial_index": 113, "time_elapsed": 495951, "internal_node_id": "0.0-86.0-0.0"}}, {"uniqueid": "MTK1140:39ZSFO5CA93RYWYETDNU37N8HW8JU5", "current_trial": 114, "dateTime": 1513195146829, "trialdata": {"rt": -1000, "stimulus": "/static/audio/400Hz.wav", "key_press": -1, "type": "PRE_RECALL_ALERT", "trial_type": "single-audio", "trial_index": 114, "time_elapsed": 496454, "internal_node_id": "0.0-87.0"}}, {"uniqueid": "MTK1140:39ZSFO5CA93RYWYETDNU37N8HW8JU5", "current_trial": 115, "dateTime": 1513195206840, "trialdata": {"rt": [1330, 2474, 4148, 7336, 8453, 11320, 48419, 54274], "recwords": ["skirt", "puddle", "basment", "knapsack", "lily", "puddle", "flower", "skirt"], "type": "FREE_RECALL", "conditions": [24, 1600, "v", 24000], "trial": 2, "trial_type": "free-recall", "trial_index": 115, "time_elapsed": 556460, "internal_node_id": "0.0-88.0-0.0"}}, {"uniqueid": "MTK1140:39ZSFO5CA93RYWYETDNU37N8HW8JU5", "current_trial": 116, "dateTime": 1513195210094, "trialdata": {"rt": 1253, "key_press": 32, "type": "INSTRUCTIONS", "trial_type": "text", "trial_index": 116, "time_elapsed": 559719, "internal_node_id": "0.0-89.0"}}, {"uniqueid": "MTK1140:39ZSFO5CA93RYWYETDNU37N8HW8JU5", "current_trial": 117, "dateTime": 1513195236099, "trialdata": {"rt": [2012, 3286, 5834, 9657, 11385, 13026, 15328, 17468, 23061], "responses": ["10", "10", "12", "24", "7", "15", "19", "20", "21"], "num1": [1, 2, 2, 8, 3, 5, 4, 8, 8, 3], "num2": [4, 7, 5, 6, 2, 8, 7, 5, 6, 6], "num3": [5, 1, 5, 9, 2, 2, 8, 7, 7, 8], "type": "DISTRACTOR", "conditions": [12, 800, "a", 24000], "trial": 3, "trial_type": "math-distractor", "trial_index": 117, "time_elapsed": 585724, "internal_node_id": "0.0-90.0"}}, {"uniqueid": "MTK1140:39ZSFO5CA93RYWYETDNU37N8HW8JU5", "current_trial": 118, "dateTime": 1513195239102, "trialdata": {"rt": -1, "stimulus": "<p id=\"stim\">10</p>", "key_press": -1, "trial_type": "single-stim", "trial_index": 118, "time_elapsed": 588727, "internal_node_id": "0.0-91.0-0.0"}}, {"uniqueid": "MTK1140:39ZSFO5CA93RYWYETDNU37N8HW8JU5", "current_trial": 119, "dateTime": 1513195240107, "trialdata": {"rt": -1, "stimulus": "<p id=\"stim\">9</p>", "key_press": -1, "trial_type": "single-stim", "trial_index": 119, "time_elapsed": 589732, "internal_node_id": "0.0-91.0-1.0"}}, {"uniqueid": "MTK1140:39ZSFO5CA93RYWYETDNU37N8HW8JU5", "current_trial": 120, "dateTime": 1513195241112, "trialdata": {"rt": -1, "stimulus": "<p id=\"stim\">8</p>", "key_press": -1, "trial_type": "single-stim", "trial_index": 120, "time_elapsed": 590737, "internal_node_id": "0.0-91.0-2.0"}}, {"uniqueid": "MTK1140:39ZSFO5CA93RYWYETDNU37N8HW8JU5", "current_trial": 121, "dateTime": 1513195242115, "trialdata": {"rt": -1, "stimulus": "<p id=\"stim\">7</p>", "key_press": -1, "trial_type": "single-stim", "trial_index": 121, "time_elapsed": 591740, "internal_node_id": "0.0-91.0-3.0"}}, {"uniqueid": "MTK1140:39ZSFO5CA93RYWYETDNU37N8HW8JU5", "current_trial": 122, "dateTime": 1513195243118, "trialdata": {"rt": -1, "stimulus": "<p id=\"stim\">6</p>", "key_press": -1, "trial_type": "single-stim", "trial_index": 122, "time_elapsed": 592742, "internal_node_id": "0.0-91.0-4.0"}}, {"uniqueid": "MTK1140:39ZSFO5CA93RYWYETDNU37N8HW8JU5", "current_trial": 123, "dateTime": 1513195244120, "trialdata": {"rt": -1, "stimulus": "<p id=\"stim\">5</p>", "key_press": -1, "trial_type": "single-stim", "trial_index": 123, "time_elapsed": 593745, "internal_node_id": "0.0-91.0-5.0"}}, {"uniqueid": "MTK1140:39ZSFO5CA93RYWYETDNU37N8HW8JU5", "current_trial": 124, "dateTime": 1513195245124, "trialdata": {"rt": -1, "stimulus": "<p id=\"stim\">4</p>", "key_press": -1, "trial_type": "single-stim", "trial_index": 124, "time_elapsed": 594748, "internal_node_id": "0.0-91.0-6.0"}}, {"uniqueid": "MTK1140:39ZSFO5CA93RYWYETDNU37N8HW8JU5", "current_trial": 125, "dateTime": 1513195246136, "trialdata": {"rt": -1, "stimulus": "<p id=\"stim\">3</p>", "key_press": -1, "trial_type": "single-stim", "trial_index": 125, "time_elapsed": 595760, "internal_node_id": "0.0-91.0-7.0"}}, {"uniqueid": "MTK1140:39ZSFO5CA93RYWYETDNU37N8HW8JU5", "current_trial": 126, "dateTime": 1513195247137, "trialdata": {"rt": -1, "stimulus": "<p id=\"stim\">2</p>", "key_press": -1, "trial_type": "single-stim", "trial_index": 126, "time_elapsed": 596762, "internal_node_id": "0.0-91.0-8.0"}}, {"uniqueid": "MTK1140:39ZSFO5CA93RYWYETDNU37N8HW8JU5", "current_trial": 127, "dateTime": 1513195248139, "trialdata": {"rt": -1, "stimulus": "<p id=\"stim\">1</p>", "key_press": -1, "trial_type": "single-stim", "trial_index": 127, "time_elapsed": 597764, "internal_node_id": "0.0-91.0-9.0"}}, {"uniqueid": "MTK1140:39ZSFO5CA93RYWYETDNU37N8HW8JU5", "current_trial": 128, "dateTime": 1513195249641, "trialdata": {"rt": -1, "stimulus": "<p id=\"stim\">+</p>", "key_press": -1, "type": "FIXATION", "trial_type": "single-stim", "trial_index": 128, "time_elapsed": 599266, "internal_node_id": "0.0-92.0-0.0"}}, {"uniqueid": "MTK1140:39ZSFO5CA93RYWYETDNU37N8HW8JU5", "current_trial": 129, "dateTime": 1513195251487, "trialdata": {"rt": -1000, "stimulus": "/static/audio/wordpool/TOASTER.wav", "key_press": -1, "type": "PRES_AUD", "word": "toaster", "wordID": 1471, "conditions": [12, 800, "a", 24000], "trial": 3, "serialpos": 0, "trial_type": "single-audio", "trial_index": 129, "time_elapsed": 601112, "internal_node_id": "0.0-93.0"}}, {"uniqueid": "MTK1140:39ZSFO5CA93RYWYETDNU37N8HW8JU5", "current_trial": 130, "dateTime": 1513195253414, "trialdata": {"rt": -1000, "stimulus": "/static/audio/wordpool/DRESSER.wav", "key_press": -1, "type": "PRES_AUD", "word": "dresser", "wordID": 495, "conditions": [12, 800, "a", 24000], "trial": 3, "serialpos": 1, "trial_type": "single-audio", "trial_index": 130, "time_elapsed": 603038, "internal_node_id": "0.0-94.0"}}, {"uniqueid": "MTK1140:39ZSFO5CA93RYWYETDNU37N8HW8JU5", "current_trial": 131, "dateTime": 1513195255122, "trialdata": {"rt": -1000, "stimulus": "/static/audio/wordpool/COD.wav", "key_press": -1, "type": "PRES_AUD", "word": "cod", "wordID": 339, "conditions": [12, 800, "a", 24000], "trial": 3, "serialpos": 2, "trial_type": "single-audio", "trial_index": 131, "time_elapsed": 604747, "internal_node_id": "0.0-95.0"}}, {"uniqueid": "MTK1140:39ZSFO5CA93RYWYETDNU37N8HW8JU5", "current_trial": 132, "dateTime": 1513195256883, "trialdata": {"rt": -1000, "stimulus": "/static/audio/wordpool/SALMON.wav", "key_press": -1, "type": "PRES_AUD", "word": "salmon", "wordID": 1226, "conditions": [12, 800, "a", 24000], "trial": 3, "serialpos": 3, "trial_type": "single-audio", "trial_index": 132, "time_elapsed": 606508, "internal_node_id": "0.0-96.0"}}, {"uniqueid": "MTK1140:39ZSFO5CA93RYWYETDNU37N8HW8JU5", "current_trial": 133, "dateTime": 1513195258557, "trialdata": {"rt": -1000, "stimulus": "/static/audio/wordpool/CUPBOARD.wav", "key_press": -1, "type": "PRES_AUD", "word": "cupboard", "wordID": 424, "conditions": [12, 800, "a", 24000], "trial": 3, "serialpos": 4, "trial_type": "single-audio", "trial_index": 133, "time_elapsed": 608181, "internal_node_id": "0.0-97.0"}}, {"uniqueid": "MTK1140:39ZSFO5CA93RYWYETDNU37N8HW8JU5", "current_trial": 134, "dateTime": 1513195260166, "trialdata": {"rt": -1000, "stimulus": "/static/audio/wordpool/BEAST.wav", "key_press": -1, "type": "PRES_AUD", "word": "beast", "wordID": 107, "conditions": [12, 800, "a", 24000], "trial": 3, "serialpos": 5, "trial_type": "single-audio", "trial_index": 134, "time_elapsed": 609791, "internal_node_id": "0.0-98.0"}}, {"uniqueid": "MTK1140:39ZSFO5CA93RYWYETDNU37N8HW8JU5", "current_trial": 135, "dateTime": 1513195262085, "trialdata": {"rt": -1000, "stimulus": "/static/audio/wordpool/BLOUSE.wav", "key_press": -1, "type": "PRES_AUD", "word": "blouse", "wordID": 138, "conditions": [12, 800, "a", 24000], "trial": 3, "serialpos": 6, "trial_type": "single-audio", "trial_index": 135, "time_elapsed": 611709, "internal_node_id": "0.0-99.0"}}, {"uniqueid": "MTK1140:39ZSFO5CA93RYWYETDNU37N8HW8JU5", "current_trial": 136, "dateTime": 1513195263979, "trialdata": {"rt": -1000, "stimulus": "/static/audio/wordpool/PISTON.wav", "key_press": -1, "type": "PRES_AUD", "word": "piston", "wordID": 1075, "conditions": [12, 800, "a", 24000], "trial": 3, "serialpos": 7, "trial_type": "single-audio", "trial_index": 136, "time_elapsed": 613604, "internal_node_id": "0.0-100.0"}}, {"uniqueid": "MTK1140:39ZSFO5CA93RYWYETDNU37N8HW8JU5", "current_trial": 137, "dateTime": 1513195265924, "trialdata": {"rt": -1000, "stimulus": "/static/audio/wordpool/MILK.wav", "key_press": -1, "type": "PRES_AUD", "word": "milk", "wordID": 894, "conditions": [12, 800, "a", 24000], "trial": 3, "serialpos": 8, "trial_type": "single-audio", "trial_index": 137, "time_elapsed": 615549, "internal_node_id": "0.0-101.0"}}, {"uniqueid": "MTK1140:39ZSFO5CA93RYWYETDNU37N8HW8JU5", "current_trial": 138, "dateTime": 1513195267664, "trialdata": {"rt": -1000, "stimulus": "/static/audio/wordpool/QUAIL.wav", "key_press": -1, "type": "PRES_AUD", "word": "quail", "wordID": 1146, "conditions": [12, 800, "a", 24000], "trial": 3, "serialpos": 9, "trial_type": "single-audio", "trial_index": 138, "time_elapsed": 617288, "internal_node_id": "0.0-102.0"}}, {"uniqueid": "MTK1140:39ZSFO5CA93RYWYETDNU37N8HW8JU5", "current_trial": 139, "dateTime": 1513195269369, "trialdata": {"rt": -1000, "stimulus": "/static/audio/wordpool/COOKBOOK.wav", "key_press": -1, "type": "PRES_AUD", "word": "cookbook", "wordID": 372, "conditions": [12, 800, "a", 24000], "trial": 3, "serialpos": 10, "trial_type": "single-audio", "trial_index": 139, "time_elapsed": 618994, "internal_node_id": "0.0-103.0"}}, {"uniqueid": "MTK1140:39ZSFO5CA93RYWYETDNU37N8HW8JU5", "current_trial": 140, "dateTime": 1513195271360, "trialdata": {"rt": -1000, "stimulus": "/static/audio/wordpool/PORK.wav", "key_press": -1, "type": "PRES_AUD", "word": "pork", "wordID": 1107, "conditions": [12, 800, "a", 24000], "trial": 3, "serialpos": 11, "trial_type": "single-audio", "trial_index": 140, "time_elapsed": 620985, "internal_node_id": "0.0-104.0"}}, {"uniqueid": "MTK1140:39ZSFO5CA93RYWYETDNU37N8HW8JU5", "current_trial": 141, "dateTime": 1513195272638, "trialdata": {"rt": -1, "stimulus": "", "key_press": -1, "type": "PRE_RECALL_DELAY", "trial_type": "single-stim", "trial_index": 141, "time_elapsed": 622262, "internal_node_id": "0.0-105.0-0.0"}}, {"uniqueid": "MTK1140:39ZSFO5CA93RYWYETDNU37N8HW8JU5", "current_trial": 142, "dateTime": 1513195273140, "trialdata": {"rt": -1000, "stimulus": "/static/audio/400Hz.wav", "key_press": -1, "type": "PRE_RECALL_ALERT", "trial_type": "single-audio", "trial_index": 142, "time_elapsed": 622765, "internal_node_id": "0.0-106.0"}}, {"uniqueid": "MTK1140:39ZSFO5CA93RYWYETDNU37N8HW8JU5", "current_trial": 143, "dateTime": 1513195333150, "trialdata": {"rt": [1937, 4477, 6038, 14682, 20815, 29619], "recwords": ["quail", "cookbook", "cork", "cpd", "cupboard", "mail"], "type": "FREE_RECALL", "conditions": [12, 800, "a", 24000], "trial": 3, "trial_type": "free-recall", "trial_index": 143, "time_elapsed": 682771, "internal_node_id": "0.0-107.0-0.0"}}, {"uniqueid": "MTK1140:39ZSFO5CA93RYWYETDNU37N8HW8JU5", "current_trial": 144, "dateTime": 1513195337354, "trialdata": {"rt": 2202, "key_press": 32, "type": "INSTRUCTIONS", "trial_type": "text", "trial_index": 144, "time_elapsed": 686979, "internal_node_id": "0.0-108.0"}}, {"uniqueid": "MTK1140:39ZSFO5CA93RYWYETDNU37N8HW8JU5", "current_trial": 145, "dateTime": 1513195363362, "trialdata": {"rt": [2054, 3726, 6655, 8055, 10238, 12274, 14751, 17293, 19491, 23269], "responses": ["9", "8", "16", "12", "17", "14", "23", "21", "17", "24"], "num1": [6, 6, 9, 9, 1, 1, 8, 9, 2, 7, 5], "num2": [2, 1, 2, 1, 8, 6, 9, 9, 9, 9, 7], "num3": [1, 1, 5, 1, 8, 7, 6, 3, 6, 8, 9], "type": "DISTRACTOR", "conditions": [24, 1600, "a", 24000], "trial": 4, "trial_type": "math-distractor", "trial_index": 145, "time_elapsed": 712987, "internal_node_id": "0.0-109.0"}}, {"uniqueid": "MTK1140:39ZSFO5CA93RYWYETDNU37N8HW8JU5", "current_trial": 146, "dateTime": 1513195366365, "trialdata": {"rt": -1, "stimulus": "<p id=\"stim\">10</p>", "key_press": -1, "trial_type": "single-stim", "trial_index": 146, "time_elapsed": 715990, "internal_node_id": "0.0-110.0-0.0"}}, {"uniqueid": "MTK1140:39ZSFO5CA93RYWYETDNU37N8HW8JU5", "current_trial": 147, "dateTime": 1513195367372, "trialdata": {"rt": -1, "stimulus": "<p id=\"stim\">9</p>", "key_press": -1, "trial_type": "single-stim", "trial_index": 147, "time_elapsed": 716995, "internal_node_id": "0.0-110.0-1.0"}}, {"uniqueid": "MTK1140:39ZSFO5CA93RYWYETDNU37N8HW8JU5", "current_trial": 148, "dateTime": 1513195368376, "trialdata": {"rt": -1, "stimulus": "<p id=\"stim\">8</p>", "key_press": -1, "trial_type": "single-stim", "trial_index": 148, "time_elapsed": 718001, "internal_node_id": "0.0-110.0-2.0"}}, {"uniqueid": "MTK1140:39ZSFO5CA93RYWYETDNU37N8HW8JU5", "current_trial": 149, "dateTime": 1513195369379, "trialdata": {"rt": -1, "stimulus": "<p id=\"stim\">7</p>", "key_press": -1, "trial_type": "single-stim", "trial_index": 149, "time_elapsed": 719004, "internal_node_id": "0.0-110.0-3.0"}}, {"uniqueid": "MTK1140:39ZSFO5CA93RYWYETDNU37N8HW8JU5", "current_trial": 150, "dateTime": 1513195370381, "trialdata": {"rt": -1, "stimulus": "<p id=\"stim\">6</p>", "key_press": -1, "trial_type": "single-stim", "trial_index": 150, "time_elapsed": 720006, "internal_node_id": "0.0-110.0-4.0"}}, {"uniqueid": "MTK1140:39ZSFO5CA93RYWYETDNU37N8HW8JU5", "current_trial": 151, "dateTime": 1513195371385, "trialdata": {"rt": -1, "stimulus": "<p id=\"stim\">5</p>", "key_press": -1, "trial_type": "single-stim", "trial_index": 151, "time_elapsed": 721009, "internal_node_id": "0.0-110.0-5.0"}}, {"uniqueid": "MTK1140:39ZSFO5CA93RYWYETDNU37N8HW8JU5", "current_trial": 152, "dateTime": 1513195372388, "trialdata": {"rt": -1, "stimulus": "<p id=\"stim\">4</p>", "key_press": -1, "trial_type": "single-stim", "trial_index": 152, "time_elapsed": 722012, "internal_node_id": "0.0-110.0-6.0"}}, {"uniqueid": "MTK1140:39ZSFO5CA93RYWYETDNU37N8HW8JU5", "current_trial": 153, "dateTime": 1513195373392, "trialdata": {"rt": -1, "stimulus": "<p id=\"stim\">3</p>", "key_press": -1, "trial_type": "single-stim", "trial_index": 153, "time_elapsed": 723016, "internal_node_id": "0.0-110.0-7.0"}}, {"uniqueid": "MTK1140:39ZSFO5CA93RYWYETDNU37N8HW8JU5", "current_trial": 154, "dateTime": 1513195374397, "trialdata": {"rt": -1, "stimulus": "<p id=\"stim\">2</p>", "key_press": -1, "trial_type": "single-stim", "trial_index": 154, "time_elapsed": 724020, "internal_node_id": "0.0-110.0-8.0"}}, {"uniqueid": "MTK1140:39ZSFO5CA93RYWYETDNU37N8HW8JU5", "current_trial": 155, "dateTime": 1513195375402, "trialdata": {"rt": -1, "stimulus": "<p id=\"stim\">1</p>", "key_press": -1, "trial_type": "single-stim", "trial_index": 155, "time_elapsed": 725027, "internal_node_id": "0.0-110.0-9.0"}}, {"uniqueid": "MTK1140:39ZSFO5CA93RYWYETDNU37N8HW8JU5", "current_trial": 156, "dateTime": 1513195376905, "trialdata": {"rt": -1, "stimulus": "<p id=\"stim\">+</p>", "key_press": -1, "type": "FIXATION", "trial_type": "single-stim", "trial_index": 156, "time_elapsed": 726530, "internal_node_id": "0.0-111.0-0.0"}}, {"uniqueid": "MTK1140:39ZSFO5CA93RYWYETDNU37N8HW8JU5", "current_trial": 157, "dateTime": 1513195379377, "trialdata": {"rt": -1000, "stimulus": "/static/audio/wordpool/SILK.wav", "key_press": -1, "type": "PRES_AUD", "word": "silk", "wordID": 1306, "conditions": [24, 1600, "a", 24000], "trial": 4, "serialpos": 0, "trial_type": "single-audio", "trial_index": 157, "time_elapsed": 729001, "internal_node_id": "0.0-112.0"}}, {"uniqueid": "MTK1140:39ZSFO5CA93RYWYETDNU37N8HW8JU5", "current_trial": 158, "dateTime": 1513195381836, "trialdata": {"rt": -1000, "stimulus": "/static/audio/wordpool/PRINCESS.wav", "key_press": -1, "type": "PRES_AUD", "word": "princess", "wordID": 1124, "conditions": [24, 1600, "a", 24000], "trial": 4, "serialpos": 1, "trial_type": "single-audio", "trial_index": 158, "time_elapsed": 731461, "internal_node_id": "0.0-113.0"}}, {"uniqueid": "MTK1140:39ZSFO5CA93RYWYETDNU37N8HW8JU5", "current_trial": 159, "dateTime": 1513195384553, "trialdata": {"rt": -1000, "stimulus": "/static/audio/wordpool/QUEEN.wav", "key_press": -1, "type": "PRES_AUD", "word": "queen", "wordID": 1148, "conditions": [24, 1600, "a", 24000], "trial": 4, "serialpos": 2, "trial_type": "single-audio", "trial_index": 159, "time_elapsed": 734178, "internal_node_id": "0.0-114.0"}}, {"uniqueid": "MTK1140:39ZSFO5CA93RYWYETDNU37N8HW8JU5", "current_trial": 160, "dateTime": 1513195387310, "trialdata": {"rt": -1000, "stimulus": "/static/audio/wordpool/FOREHEAD.wav", "key_press": -1, "type": "PRES_AUD", "word": "forehead", "wordID": 591, "conditions": [24, 1600, "a", 24000], "trial": 4, "serialpos": 3, "trial_type": "single-audio", "trial_index": 160, "time_elapsed": 736934, "internal_node_id": "0.0-115.0"}}, {"uniqueid": "MTK1140:39ZSFO5CA93RYWYETDNU37N8HW8JU5", "current_trial": 161, "dateTime": 1513195390079, "trialdata": {"rt": -1000, "stimulus": "/static/audio/wordpool/FLASK.wav", "key_press": -1, "type": "PRES_AUD", "word": "flask", "wordID": 575, "conditions": [24, 1600, "a", 24000], "trial": 4, "serialpos": 4, "trial_type": "single-audio", "trial_index": 161, "time_elapsed": 739704, "internal_node_id": "0.0-116.0"}}, {"uniqueid": "MTK1140:39ZSFO5CA93RYWYETDNU37N8HW8JU5", "current_trial": 162, "dateTime": 1513195392817, "trialdata": {"rt": -1000, "stimulus": "/static/audio/wordpool/WIFE.wav", "key_press": -1, "type": "PRES_AUD", "word": "wife", "wordID": 1608, "conditions": [24, 1600, "a", 24000], "trial": 4, "serialpos": 5, "trial_type": "single-audio", "trial_index": 162, "time_elapsed": 742442, "internal_node_id": "0.0-117.0"}}, {"uniqueid": "MTK1140:39ZSFO5CA93RYWYETDNU37N8HW8JU5", "current_trial": 163, "dateTime": 1513195395291, "trialdata": {"rt": -1000, "stimulus": "/static/audio/wordpool/MOTOR.wav", "key_press": -1, "type": "PRES_AUD", "word": "motor", "wordID": 921, "conditions": [24, 1600, "a", 24000], "trial": 4, "serialpos": 6, "trial_type": "single-audio", "trial_index": 163, "time_elapsed": 744916, "internal_node_id": "0.0-118.0"}}, {"uniqueid": "MTK1140:39ZSFO5CA93RYWYETDNU37N8HW8JU5", "current_trial": 164, "dateTime": 1513195397928, "trialdata": {"rt": -1000, "stimulus": "/static/audio/wordpool/MOTEL.wav", "key_press": -1, "type": "PRES_AUD", "word": "motel", "wordID": 918, "conditions": [24, 1600, "a", 24000], "trial": 4, "serialpos": 7, "trial_type": "single-audio", "trial_index": 164, "time_elapsed": 747553, "internal_node_id": "0.0-119.0"}}, {"uniqueid": "MTK1140:39ZSFO5CA93RYWYETDNU37N8HW8JU5", "current_trial": 165, "dateTime": 1513195400416, "trialdata": {"rt": -1000, "stimulus": "/static/audio/wordpool/SERVANT.wav", "key_press": -1, "type": "PRES_AUD", "word": "servant", "wordID": 1270, "conditions": [24, 1600, "a", 24000], "trial": 4, "serialpos": 8, "trial_type": "single-audio", "trial_index": 165, "time_elapsed": 750041, "internal_node_id": "0.0-120.0"}}, {"uniqueid": "MTK1140:39ZSFO5CA93RYWYETDNU37N8HW8JU5", "current_trial": 166, "dateTime": 1513195403105, "trialdata": {"rt": -1000, "stimulus": "/static/audio/wordpool/LIVER.wav", "key_press": -1, "type": "PRES_AUD", "word": "liver", "wordID": 832, "conditions": [24, 1600, "a", 24000], "trial": 4, "serialpos": 9, "trial_type": "single-audio", "trial_index": 166, "time_elapsed": 752729, "internal_node_id": "0.0-121.0"}}, {"uniqueid": "MTK1140:39ZSFO5CA93RYWYETDNU37N8HW8JU5", "current_trial": 167, "dateTime": 1513195405530, "trialdata": {"rt": -1000, "stimulus": "/static/audio/wordpool/TWEEZERS.wav", "key_press": -1, "type": "PRES_AUD", "word": "tweezers", "wordID": 1525, "conditions": [24, 1600, "a", 24000], "trial": 4, "serialpos": 10, "trial_type": "single-audio", "trial_index": 167, "time_elapsed": 755155, "internal_node_id": "0.0-122.0"}}, {"uniqueid": "MTK1140:39ZSFO5CA93RYWYETDNU37N8HW8JU5", "current_trial": 168, "dateTime": 1513195408301, "trialdata": {"rt": -1000, "stimulus": "/static/audio/wordpool/SPOUSE.wav", "key_press": -1, "type": "PRES_AUD", "word": "spouse", "wordID": 1357, "conditions": [24, 1600, "a", 24000], "trial": 4, "serialpos": 11, "trial_type": "single-audio", "trial_index": 168, "time_elapsed": 757926, "internal_node_id": "0.0-123.0"}}, {"uniqueid": "MTK1140:39ZSFO5CA93RYWYETDNU37N8HW8JU5", "current_trial": 169, "dateTime": 1513195410899, "trialdata": {"rt": -1000, "stimulus": "/static/audio/wordpool/PATROL.wav", "key_press": -1, "type": "PRES_AUD", "word": "patrol", "wordID": 1026, "conditions": [24, 1600, "a", 24000], "trial": 4, "serialpos": 12, "trial_type": "single-audio", "trial_index": 169, "time_elapsed": 760524, "internal_node_id": "0.0-124.0"}}, {"uniqueid": "MTK1140:39ZSFO5CA93RYWYETDNU37N8HW8JU5", "current_trial": 170, "dateTime": 1513195413350, "trialdata": {"rt": -1000, "stimulus": "/static/audio/wordpool/SHOVEL.wav", "key_press": -1, "type": "PRES_AUD", "word": "shovel", "wordID": 1294, "conditions": [24, 1600, "a", 24000], "trial": 4, "serialpos": 13, "trial_type": "single-audio", "trial_index": 170, "time_elapsed": 762975, "internal_node_id": "0.0-125.0"}}, {"uniqueid": "MTK1140:39ZSFO5CA93RYWYETDNU37N8HW8JU5", "current_trial": 171, "dateTime": 1513195415917, "trialdata": {"rt": -1000, "stimulus": "/static/audio/wordpool/DONKEY.wav", "key_press": -1, "type": "PRES_AUD", "word": "donkey", "wordID": 483, "conditions": [24, 1600, "a", 24000], "trial": 4, "serialpos": 14, "trial_type": "single-audio", "trial_index": 171, "time_elapsed": 765541, "internal_node_id": "0.0-126.0"}}, {"uniqueid": "MTK1140:39ZSFO5CA93RYWYETDNU37N8HW8JU5", "current_trial": 172, "dateTime": 1513195418644, "trialdata": {"rt": -1000, "stimulus": "/static/audio/wordpool/BRICK.wav", "key_press": -1, "type": "PRES_AUD", "word": "brick", "wordID": 171, "conditions": [24, 1600, "a", 24000], "trial": 4, "serialpos": 15, "trial_type": "single-audio", "trial_index": 172, "time_elapsed": 768268, "internal_node_id": "0.0-127.0"}}, {"uniqueid": "MTK1140:39ZSFO5CA93RYWYETDNU37N8HW8JU5", "current_trial": 173, "dateTime": 1513195421095, "trialdata": {"rt": -1000, "stimulus": "/static/audio/wordpool/PERFUME.wav", "key_press": -1, "type": "PRES_AUD", "word": "perfume", "wordID": 1048, "conditions": [24, 1600, "a", 24000], "trial": 4, "serialpos": 16, "trial_type": "single-audio", "trial_index": 173, "time_elapsed": 770719, "internal_node_id": "0.0-128.0"}}, {"uniqueid": "MTK1140:39ZSFO5CA93RYWYETDNU37N8HW8JU5", "current_trial": 174, "dateTime": 1513195423678, "trialdata": {"rt": -1000, "stimulus": "/static/audio/wordpool/FRAGRANCE.wav", "key_press": -1, "type": "PRES_AUD", "word": "fragrance", "wordID": 598, "conditions": [24, 1600, "a", 24000], "trial": 4, "serialpos": 17, "trial_type": "single-audio", "trial_index": 174, "time_elapsed": 773303, "internal_node_id": "0.0-129.0"}}, {"uniqueid": "MTK1140:39ZSFO5CA93RYWYETDNU37N8HW8JU5", "current_trial": 175, "dateTime": 1513195426332, "trialdata": {"rt": -1000, "stimulus": "/static/audio/wordpool/STATUE.wav", "key_press": -1, "type": "PRES_AUD", "word": "statue", "wordID": 1373, "conditions": [24, 1600, "a", 24000], "trial": 4, "serialpos": 18, "trial_type": "single-audio", "trial_index": 175, "time_elapsed": 775956, "internal_node_id": "0.0-130.0"}}, {"uniqueid": "MTK1140:39ZSFO5CA93RYWYETDNU37N8HW8JU5", "current_trial": 176, "dateTime": 1513195428918, "trialdata": {"rt": -1000, "stimulus": "/static/audio/wordpool/DANCER.wav", "key_press": -1, "type": "PRES_AUD", "word": "dancer", "wordID": 436, "conditions": [24, 1600, "a", 24000], "trial": 4, "serialpos": 19, "trial_type": "single-audio", "trial_index": 176, "time_elapsed": 778543, "internal_node_id": "0.0-131.0"}}, {"uniqueid": "MTK1140:39ZSFO5CA93RYWYETDNU37N8HW8JU5", "current_trial": 177, "dateTime": 1513195431493, "trialdata": {"rt": -1000, "stimulus": "/static/audio/wordpool/EYELASH.wav", "key_press": -1, "type": "PRES_AUD", "word": "eyelash", "wordID": 545, "conditions": [24, 1600, "a", 24000], "trial": 4, "serialpos": 20, "trial_type": "single-audio", "trial_index": 177, "time_elapsed": 781118, "internal_node_id": "0.0-132.0"}}, {"uniqueid": "MTK1140:39ZSFO5CA93RYWYETDNU37N8HW8JU5", "current_trial": 178, "dateTime": 1513195434270, "trialdata": {"rt": -1000, "stimulus": "/static/audio/wordpool/ANTLER.wav", "key_press": -1, "type": "PRES_AUD", "word": "antler", "wordID": 28, "conditions": [24, 1600, "a", 24000], "trial": 4, "serialpos": 21, "trial_type": "single-audio", "trial_index": 178, "time_elapsed": 783895, "internal_node_id": "0.0-133.0"}}, {"uniqueid": "MTK1140:39ZSFO5CA93RYWYETDNU37N8HW8JU5", "current_trial": 179, "dateTime": 1513195436776, "trialdata": {"rt": -1000, "stimulus": "/static/audio/wordpool/AIRPORT.wav", "key_press": -1, "type": "PRES_AUD", "word": "airport", "wordID": 12, "conditions": [24, 1600, "a", 24000], "trial": 4, "serialpos": 22, "trial_type": "single-audio", "trial_index": 179, "time_elapsed": 786401, "internal_node_id": "0.0-134.0"}}, {"uniqueid": "MTK1140:39ZSFO5CA93RYWYETDNU37N8HW8JU5", "current_trial": 180, "dateTime": 1513195439419, "trialdata": {"rt": -1000, "stimulus": "/static/audio/wordpool/POLICE.wav", "key_press": -1, "type": "PRES_AUD", "word": "police", "wordID": 1097, "conditions": [24, 1600, "a", 24000], "trial": 4, "serialpos": 23, "trial_type": "single-audio", "trial_index": 180, "time_elapsed": 789043, "internal_node_id": "0.0-135.0"}}, {"uniqueid": "MTK1140:39ZSFO5CA93RYWYETDNU37N8HW8JU5", "current_trial": 181, "dateTime": 1513195440801, "trialdata": {"rt": -1, "stimulus": "", "key_press": -1, "type": "PRE_RECALL_DELAY", "trial_type": "single-stim", "trial_index": 181, "time_elapsed": 790425, "internal_node_id": "0.0-136.0-0.0"}}, {"uniqueid": "MTK1140:39ZSFO5CA93RYWYETDNU37N8HW8JU5", "current_trial": 182, "dateTime": 1513195441302, "trialdata": {"rt": -1000, "stimulus": "/static/audio/400Hz.wav", "key_press": -1, "type": "PRE_RECALL_ALERT", "trial_type": "single-audio", "trial_index": 182, "time_elapsed": 790927, "internal_node_id": "0.0-137.0"}}, {"uniqueid": "MTK1140:39ZSFO5CA93RYWYETDNU37N8HW8JU5", "current_trial": 183, "dateTime": 1513195501311, "trialdata": {"rt": [1567, 3290, 5707, 7087, 9817, 11584, 12596, 14643, 16884], "recwords": ["police", "eyelash", "airport", "forehead", "tweezers", "princess", "queen", "spouse", "patrol"], "type": "FREE_RECALL", "conditions": [24, 1600, "a", 24000], "trial": 4, "trial_type": "free-recall", "trial_index": 183, "time_elapsed": 850932, "internal_node_id": "0.0-138.0-0.0"}}, {"uniqueid": "MTK1140:39ZSFO5CA93RYWYETDNU37N8HW8JU5", "current_trial": 184, "dateTime": 1513195504766, "trialdata": {"rt": 1452, "key_press": 32, "type": "INSTRUCTIONS", "trial_type": "text", "trial_index": 184, "time_elapsed": 854391, "internal_node_id": "0.0-139.0"}}, {"uniqueid": "MTK1140:39ZSFO5CA93RYWYETDNU37N8HW8JU5", "current_trial": 185, "dateTime": 1513195530773, "trialdata": {"rt": [2620, 4026, 7085, 8801, 11737, 14188, 16866, 18537, 20464, 22020], "responses": ["11", "16", "21", "7", "17", "19", "25", "16", "13", "13"], "num1": [4, 2, 7, 1, 3, 2, 9, 8, 5, 2, 9], "num2": [2, 8, 9, 2, 8, 9, 7, 6, 6, 3, 2], "num3": [5, 6, 5, 4, 6, 8, 9, 2, 2, 8, 2], "type": "DISTRACTOR", "conditions": [24, 800, "a", 24000], "trial": 5, "trial_type": "math-distractor", "trial_index": 185, "time_elapsed": 880398, "internal_node_id": "0.0-140.0"}}, {"uniqueid": "MTK1140:39ZSFO5CA93RYWYETDNU37N8HW8JU5", "current_trial": 186, "dateTime": 1513195533780, "trialdata": {"rt": -1, "stimulus": "<p id=\"stim\">10</p>", "key_press": -1, "trial_type": "single-stim", "trial_index": 186, "time_elapsed": 883404, "internal_node_id": "0.0-141.0-0.0"}}, {"uniqueid": "MTK1140:39ZSFO5CA93RYWYETDNU37N8HW8JU5", "current_trial": 187, "dateTime": 1513195534784, "trialdata": {"rt": -1, "stimulus": "<p id=\"stim\">9</p>", "key_press": -1, "trial_type": "single-stim", "trial_index": 187, "time_elapsed": 884408, "internal_node_id": "0.0-141.0-1.0"}}, {"uniqueid": "MTK1140:39ZSFO5CA93RYWYETDNU37N8HW8JU5", "current_trial": 188, "dateTime": 1513195535786, "trialdata": {"rt": -1, "stimulus": "<p id=\"stim\">8</p>", "key_press": -1, "trial_type": "single-stim", "trial_index": 188, "time_elapsed": 885411, "internal_node_id": "0.0-141.0-2.0"}}, {"uniqueid": "MTK1140:39ZSFO5CA93RYWYETDNU37N8HW8JU5", "current_trial": 189, "dateTime": 1513195536789, "trialdata": {"rt": -1, "stimulus": "<p id=\"stim\">7</p>", "key_press": -1, "trial_type": "single-stim", "trial_index": 189, "time_elapsed": 886413, "internal_node_id": "0.0-141.0-3.0"}}, {"uniqueid": "MTK1140:39ZSFO5CA93RYWYETDNU37N8HW8JU5", "current_trial": 190, "dateTime": 1513195537792, "trialdata": {"rt": -1, "stimulus": "<p id=\"stim\">6</p>", "key_press": -1, "trial_type": "single-stim", "trial_index": 190, "time_elapsed": 887416, "internal_node_id": "0.0-141.0-4.0"}}, {"uniqueid": "MTK1140:39ZSFO5CA93RYWYETDNU37N8HW8JU5", "current_trial": 191, "dateTime": 1513195538795, "trialdata": {"rt": -1, "stimulus": "<p id=\"stim\">5</p>", "key_press": -1, "trial_type": "single-stim", "trial_index": 191, "time_elapsed": 888420, "internal_node_id": "0.0-141.0-5.0"}}, {"uniqueid": "MTK1140:39ZSFO5CA93RYWYETDNU37N8HW8JU5", "current_trial": 192, "dateTime": 1513195539799, "trialdata": {"rt": -1, "stimulus": "<p id=\"stim\">4</p>", "key_press": -1, "trial_type": "single-stim", "trial_index": 192, "time_elapsed": 889423, "internal_node_id": "0.0-141.0-6.0"}}, {"uniqueid": "MTK1140:39ZSFO5CA93RYWYETDNU37N8HW8JU5", "current_trial": 193, "dateTime": 1513195540802, "trialdata": {"rt": -1, "stimulus": "<p id=\"stim\">3</p>", "key_press": -1, "trial_type": "single-stim", "trial_index": 193, "time_elapsed": 890426, "internal_node_id": "0.0-141.0-7.0"}}, {"uniqueid": "MTK1140:39ZSFO5CA93RYWYETDNU37N8HW8JU5", "current_trial": 194, "dateTime": 1513195541805, "trialdata": {"rt": -1, "stimulus": "<p id=\"stim\">2</p>", "key_press": -1, "trial_type": "single-stim", "trial_index": 194, "time_elapsed": 891430, "internal_node_id": "0.0-141.0-8.0"}}, {"uniqueid": "MTK1140:39ZSFO5CA93RYWYETDNU37N8HW8JU5", "current_trial": 195, "dateTime": 1513195542809, "trialdata": {"rt": -1, "stimulus": "<p id=\"stim\">1</p>", "key_press": -1, "trial_type": "single-stim", "trial_index": 195, "time_elapsed": 892433, "internal_node_id": "0.0-141.0-9.0"}}, {"uniqueid": "MTK1140:39ZSFO5CA93RYWYETDNU37N8HW8JU5", "current_trial": 196, "dateTime": 1513195544313, "trialdata": {"rt": -1, "stimulus": "<p id=\"stim\">+</p>", "key_press": -1, "type": "FIXATION", "trial_type": "single-stim", "trial_index": 196, "time_elapsed": 893938, "internal_node_id": "0.0-142.0-0.0"}}, {"uniqueid": "MTK1140:39ZSFO5CA93RYWYETDNU37N8HW8JU5", "current_trial": 197, "dateTime": 1513195546174, "trialdata": {"rt": -1000, "stimulus": "/static/audio/wordpool/BROTHER.wav", "key_press": -1, "type": "PRES_AUD", "word": "brother", "wordID": 178, "conditions": [24, 800, "a", 24000], "trial": 5, "serialpos": 0, "trial_type": "single-audio", "trial_index": 197, "time_elapsed": 895799, "internal_node_id": "0.0-143.0"}}, {"uniqueid": "MTK1140:39ZSFO5CA93RYWYETDNU37N8HW8JU5", "current_trial": 198, "dateTime": 1513195547971, "trialdata": {"rt": -1000, "stimulus": "/static/audio/wordpool/SODA.wav", "key_press": -1, "type": "PRES_AUD", "word": "soda", "wordID": 1340, "conditions": [24, 800, "a", 24000], "trial": 5, "serialpos": 1, "trial_type": "single-audio", "trial_index": 198, "time_elapsed": 897596, "internal_node_id": "0.0-144.0"}}, {"uniqueid": "MTK1140:39ZSFO5CA93RYWYETDNU37N8HW8JU5", "current_trial": 199, "dateTime": 1513195549963, "trialdata": {"rt": -1000, "stimulus": "/static/audio/wordpool/LIZARD.wav", "key_press": -1, "type": "PRES_AUD", "word": "lizard", "wordID": 833, "conditions": [24, 800, "a", 24000], "trial": 5, "serialpos": 2, "trial_type": "single-audio", "trial_index": 199, "time_elapsed": 899588, "internal_node_id": "0.0-145.0"}}, {"uniqueid": "MTK1140:39ZSFO5CA93RYWYETDNU37N8HW8JU5", "current_trial": 200, "dateTime": 1513195551921, "trialdata": {"rt": -1000, "stimulus": "/static/audio/wordpool/PENGUIN.wav", "key_press": -1, "type": "PRES_AUD", "word": "penguin", "wordID": 1043, "conditions": [24, 800, "a", 24000], "trial": 5, "serialpos": 3, "trial_type": "single-audio", "trial_index": 200, "time_elapsed": 901546, "internal_node_id": "0.0-146.0"}}, {"uniqueid": "MTK1140:39ZSFO5CA93RYWYETDNU37N8HW8JU5", "current_trial": 201, "dateTime": 1513195553561, "trialdata": {"rt": -1000, "stimulus": "/static/audio/wordpool/FRUIT.wav", "key_press": -1, "type": "PRES_AUD", "word": "fruit", "wordID": 609, "conditions": [24, 800, "a", 24000], "trial": 5, "serialpos": 4, "trial_type": "single-audio", "trial_index": 201, "time_elapsed": 903185, "internal_node_id": "0.0-147.0"}}, {"uniqueid": "MTK1140:39ZSFO5CA93RYWYETDNU37N8HW8JU5", "current_trial": 202, "dateTime": 1513195555402, "trialdata": {"rt": -1000, "stimulus": "/static/audio/wordpool/TRIBE.wav", "key_press": -1, "type": "PRES_AUD", "word": "tribe", "wordID": 1504, "conditions": [24, 800, "a", 24000], "trial": 5, "serialpos": 5, "trial_type": "single-audio", "trial_index": 202, "time_elapsed": 905027, "internal_node_id": "0.0-148.0"}}, {"uniqueid": "MTK1140:39ZSFO5CA93RYWYETDNU37N8HW8JU5", "current_trial": 203, "dateTime": 1513195557216, "trialdata": {"rt": -1000, "stimulus": "/static/audio/wordpool/GARBAGE.wav", "key_press": -1, "type": "PRES_AUD", "word": "garbage", "wordID": 621, "conditions": [24, 800, "a", 24000], "trial": 5, "serialpos": 6, "trial_type": "single-audio", "trial_index": 203, "time_elapsed": 906841, "internal_node_id": "0.0-149.0"}}, {"uniqueid": "MTK1140:39ZSFO5CA93RYWYETDNU37N8HW8JU5", "current_trial": 204, "dateTime": 1513195559116, "trialdata": {"rt": -1000, "stimulus": "/static/audio/wordpool/BUGGY.wav", "key_press": -1, "type": "PRES_AUD", "word": "buggy", "wordID": 187, "conditions": [24, 800, "a", 24000], "trial": 5, "serialpos": 7, "trial_type": "single-audio", "trial_index": 204, "time_elapsed": 908741, "internal_node_id": "0.0-150.0"}}, {"uniqueid": "MTK1140:39ZSFO5CA93RYWYETDNU37N8HW8JU5", "current_trial": 205, "dateTime": 1513195560766, "trialdata": {"rt": -1000, "stimulus": "/static/audio/wordpool/JELLY.wav", "key_press": -1, "type": "PRES_AUD", "word": "jelly", "wordID": 754, "conditions": [24, 800, "a", 24000], "trial": 5, "serialpos": 8, "trial_type": "single-audio", "trial_index": 205, "time_elapsed": 910391, "internal_node_id": "0.0-151.0"}}, {"uniqueid": "MTK1140:39ZSFO5CA93RYWYETDNU37N8HW8JU5", "current_trial": 206, "dateTime": 1513195562666, "trialdata": {"rt": -1000, "stimulus": "/static/audio/wordpool/BACKBONE.wav", "key_press": -1, "type": "PRES_AUD", "word": "backbone", "wordID": 65, "conditions": [24, 800, "a", 24000], "trial": 5, "serialpos": 9, "trial_type": "single-audio", "trial_index": 206, "time_elapsed": 912290, "internal_node_id": "0.0-152.0"}}, {"uniqueid": "MTK1140:39ZSFO5CA93RYWYETDNU37N8HW8JU5", "current_trial": 207, "dateTime": 1513195564581, "trialdata": {"rt": -1000, "stimulus": "/static/audio/wordpool/COUSIN.wav", "key_press": -1, "type": "PRES_AUD", "word": "cousin", "wordID": 391, "conditions": [24, 800, "a", 24000], "trial": 5, "serialpos": 10, "trial_type": "single-audio", "trial_index": 207, "time_elapsed": 914206, "internal_node_id": "0.0-153.0"}}, {"uniqueid": "MTK1140:39ZSFO5CA93RYWYETDNU37N8HW8JU5", "current_trial": 208, "dateTime": 1513195566337, "trialdata": {"rt": -1000, "stimulus": "/static/audio/wordpool/SEAFOOD.wav", "key_press": -1, "type": "PRES_AUD", "word": "seafood", "wordID": 1259, "conditions": [24, 800, "a", 24000], "trial": 5, "serialpos": 11, "trial_type": "single-audio", "trial_index": 208, "time_elapsed": 915961, "internal_node_id": "0.0-154.0"}}, {"uniqueid": "MTK1140:39ZSFO5CA93RYWYETDNU37N8HW8JU5", "current_trial": 209, "dateTime": 1513195567959, "trialdata": {"rt": -1000, "stimulus": "/static/audio/wordpool/SPOOL.wav", "key_press": -1, "type": "PRES_AUD", "word": "spool", "wordID": 1355, "conditions": [24, 800, "a", 24000], "trial": 5, "serialpos": 12, "trial_type": "single-audio", "trial_index": 209, "time_elapsed": 917583, "internal_node_id": "0.0-155.0"}}, {"uniqueid": "MTK1140:39ZSFO5CA93RYWYETDNU37N8HW8JU5", "current_trial": 210, "dateTime": 1513195569634, "trialdata": {"rt": -1000, "stimulus": "/static/audio/wordpool/ROD.wav", "key_press": -1, "type": "PRES_AUD", "word": "rod", "wordID": 1202, "conditions": [24, 800, "a", 24000], "trial": 5, "serialpos": 13, "trial_type": "single-audio", "trial_index": 210, "time_elapsed": 919258, "internal_node_id": "0.0-156.0"}}, {"uniqueid": "MTK1140:39ZSFO5CA93RYWYETDNU37N8HW8JU5", "current_trial": 211, "dateTime": 1513195571442, "trialdata": {"rt": -1000, "stimulus": "/static/audio/wordpool/BARLEY.wav", "key_press": -1, "type": "PRES_AUD", "word": "barley", "wordID": 87, "conditions": [24, 800, "a", 24000], "trial": 5, "serialpos": 14, "trial_type": "single-audio", "trial_index": 211, "time_elapsed": 921066, "internal_node_id": "0.0-157.0"}}, {"uniqueid": "MTK1140:39ZSFO5CA93RYWYETDNU37N8HW8JU5", "current_trial": 212, "dateTime": 1513195573342, "trialdata": {"rt": -1000, "stimulus": "/static/audio/wordpool/WAITRESS.wav", "key_press": -1, "type": "PRES_AUD", "word": "waitress", "wordID": 1580, "conditions": [24, 800, "a", 24000], "trial": 5, "serialpos": 15, "trial_type": "single-audio", "trial_index": 212, "time_elapsed": 922967, "internal_node_id": "0.0-158.0"}}, {"uniqueid": "MTK1140:39ZSFO5CA93RYWYETDNU37N8HW8JU5", "current_trial": 213, "dateTime": 1513195575202, "trialdata": {"rt": -1000, "stimulus": "/static/audio/wordpool/UNCLE.wav", "key_press": -1, "type": "PRES_AUD", "word": "uncle", "wordID": 1535, "conditions": [24, 800, "a", 24000], "trial": 5, "serialpos": 16, "trial_type": "single-audio", "trial_index": 213, "time_elapsed": 924826, "internal_node_id": "0.0-159.0"}}, {"uniqueid": "MTK1140:39ZSFO5CA93RYWYETDNU37N8HW8JU5", "current_trial": 214, "dateTime": 1513195576817, "trialdata": {"rt": -1000, "stimulus": "/static/audio/wordpool/FOOTBALL.wav", "key_press": -1, "type": "PRES_AUD", "word": "football", "wordID": 590, "conditions": [24, 800, "a", 24000], "trial": 5, "serialpos": 17, "trial_type": "single-audio", "trial_index": 214, "time_elapsed": 926442, "internal_node_id": "0.0-160.0"}}, {"uniqueid": "MTK1140:39ZSFO5CA93RYWYETDNU37N8HW8JU5", "current_trial": 215, "dateTime": 1513195578769, "trialdata": {"rt": -1000, "stimulus": "/static/audio/wordpool/GRAPE.wav", "key_press": -1, "type": "PRES_AUD", "word": "grape", "wordID": 653, "conditions": [24, 800, "a", 24000], "trial": 5, "serialpos": 18, "trial_type": "single-audio", "trial_index": 215, "time_elapsed": 928393, "internal_node_id": "0.0-161.0"}}, {"uniqueid": "MTK1140:39ZSFO5CA93RYWYETDNU37N8HW8JU5", "current_trial": 216, "dateTime": 1513195580540, "trialdata": {"rt": -1000, "stimulus": "/static/audio/wordpool/BEAKER.wav", "key_press": -1, "type": "PRES_AUD", "word": "beaker", "wordID": 103, "conditions": [24, 800, "a", 24000], "trial": 5, "serialpos": 19, "trial_type": "single-audio", "trial_index": 216, "time_elapsed": 930165, "internal_node_id": "0.0-162.0"}}, {"uniqueid": "MTK1140:39ZSFO5CA93RYWYETDNU37N8HW8JU5", "current_trial": 217, "dateTime": 1513195582484, "trialdata": {"rt": -1000, "stimulus": "/static/audio/wordpool/COBRA.wav", "key_press": -1, "type": "PRES_AUD", "word": "cobra", "wordID": 335, "conditions": [24, 800, "a", 24000], "trial": 5, "serialpos": 20, "trial_type": "single-audio", "trial_index": 217, "time_elapsed": 932109, "internal_node_id": "0.0-163.0"}}, {"uniqueid": "MTK1140:39ZSFO5CA93RYWYETDNU37N8HW8JU5", "current_trial": 218, "dateTime": 1513195584293, "trialdata": {"rt": -1000, "stimulus": "/static/audio/wordpool/STAPLE.wav", "key_press": -1, "type": "PRES_AUD", "word": "staple", "wordID": 1370, "conditions": [24, 800, "a", 24000], "trial": 5, "serialpos": 21, "trial_type": "single-audio", "trial_index": 218, "time_elapsed": 933918, "internal_node_id": "0.0-164.0"}}, {"uniqueid": "MTK1140:39ZSFO5CA93RYWYETDNU37N8HW8JU5", "current_trial": 219, "dateTime": 1513195586196, "trialdata": {"rt": -1000, "stimulus": "/static/audio/wordpool/SWIMMER.wav", "key_press": -1, "type": "PRES_AUD", "word": "swimmer", "wordID": 1419, "conditions": [24, 800, "a", 24000], "trial": 5, "serialpos": 22, "trial_type": "single-audio", "trial_index": 219, "time_elapsed": 935820, "internal_node_id": "0.0-165.0"}}, {"uniqueid": "MTK1140:39ZSFO5CA93RYWYETDNU37N8HW8JU5", "current_trial": 220, "dateTime": 1513195587913, "trialdata": {"rt": -1000, "stimulus": "/static/audio/wordpool/RADISH.wav", "key_press": -1, "type": "PRES_AUD", "word": "radish", "wordID": 1157, "conditions": [24, 800, "a", 24000], "trial": 5, "serialpos": 23, "trial_type": "single-audio", "trial_index": 220, "time_elapsed": 937537, "internal_node_id": "0.0-166.0"}}, {"uniqueid": "MTK1140:39ZSFO5CA93RYWYETDNU37N8HW8JU5", "current_trial": 221, "dateTime": 1513195589163, "trialdata": {"rt": -1, "stimulus": "", "key_press": -1, "type": "PRE_RECALL_DELAY", "trial_type": "single-stim", "trial_index": 221, "time_elapsed": 938788, "internal_node_id": "0.0-167.0-0.0"}}, {"uniqueid": "MTK1140:39ZSFO5CA93RYWYETDNU37N8HW8JU5", "current_trial": 222, "dateTime": 1513195589665, "trialdata": {"rt": -1000, "stimulus": "/static/audio/400Hz.wav", "key_press": -1, "type": "PRE_RECALL_ALERT", "trial_type": "single-audio", "trial_index": 222, "time_elapsed": 939290, "internal_node_id": "0.0-168.0"}}, {"uniqueid": "MTK1140:39ZSFO5CA93RYWYETDNU37N8HW8JU5", "current_trial": 223, "dateTime": 1513195649685, "trialdata": {"rt": [2247, 3570, 4918, 8101, 9428, 11352, 12568, 13758, 19157, 21079, 28711], "recwords": ["staple", "swimmer", "radish", "brother", "uncle", "seafood", "barley", "waiter", "lizard", "garbage", "buggy"], "type": "FREE_RECALL", "conditions": [24, 800, "a", 24000], "trial": 5, "trial_type": "free-recall", "trial_index": 223, "time_elapsed": 999295, "internal_node_id": "0.0-169.0-0.0"}}, {"uniqueid": "MTK1140:39ZSFO5CA93RYWYETDNU37N8HW8JU5", "current_trial": 224, "dateTime": 1513195656575, "trialdata": {"rt": 4888, "key_press": 32, "type": "INSTRUCTIONS", "trial_type": "text", "trial_index": 224, "time_elapsed": 1006200, "internal_node_id": "0.0-170.0"}}, {"uniqueid": "MTK1140:39ZSFO5CA93RYWYETDNU37N8HW8JU5", "current_trial": 225, "dateTime": 1513195682579, "trialdata": {"rt": [1828, 4913, 6746, 8571, 11872, 13725, 16329, 18181, 19893, 21470, 23378], "responses": ["12", "21", "19", "15", "19", "18", "21", "9", "6", "18", "14"], "num1": [6, 9, 9, 5, 8, 5, 8, 1, 1, 4, 7, 9], "num2": [5, 9, 6, 2, 8, 6, 9, 4, 4, 6, 4, 9], "num3": [1, 3, 4, 8, 3, 7, 4, 4, 1, 8, 3, 9], "type": "DISTRACTOR", "conditions": [12, 1600, "a", 24000], "trial": 6, "trial_type": "math-distractor", "trial_index": 225, "time_elapsed": 1032204, "internal_node_id": "0.0-171.0"}}, {"uniqueid": "MTK1140:39ZSFO5CA93RYWYETDNU37N8HW8JU5", "current_trial": 226, "dateTime": 1513195685582, "trialdata": {"rt": -1, "stimulus": "<p id=\"stim\">10</p>", "key_press": -1, "trial_type": "single-stim", "trial_index": 226, "time_elapsed": 1035207, "internal_node_id": "0.0-172.0-0.0"}}, {"uniqueid": "MTK1140:39ZSFO5CA93RYWYETDNU37N8HW8JU5", "current_trial": 227, "dateTime": 1513195686584, "trialdata": {"rt": -1, "stimulus": "<p id=\"stim\">9</p>", "key_press": -1, "trial_type": "single-stim", "trial_index": 227, "time_elapsed": 1036209, "internal_node_id": "0.0-172.0-1.0"}}, {"uniqueid": "MTK1140:39ZSFO5CA93RYWYETDNU37N8HW8JU5", "current_trial": 228, "dateTime": 1513195687589, "trialdata": {"rt": -1, "stimulus": "<p id=\"stim\">8</p>", "key_press": -1, "trial_type": "single-stim", "trial_index": 228, "time_elapsed": 1037213, "internal_node_id": "0.0-172.0-2.0"}}, {"uniqueid": "MTK1140:39ZSFO5CA93RYWYETDNU37N8HW8JU5", "current_trial": 229, "dateTime": 1513195688592, "trialdata": {"rt": -1, "stimulus": "<p id=\"stim\">7</p>", "key_press": -1, "trial_type": "single-stim", "trial_index": 229, "time_elapsed": 1038217, "internal_node_id": "0.0-172.0-3.0"}}, {"uniqueid": "MTK1140:39ZSFO5CA93RYWYETDNU37N8HW8JU5", "current_trial": 230, "dateTime": 1513195689595, "trialdata": {"rt": -1, "stimulus": "<p id=\"stim\">6</p>", "key_press": -1, "trial_type": "single-stim", "trial_index": 230, "time_elapsed": 1039220, "internal_node_id": "0.0-172.0-4.0"}}, {"uniqueid": "MTK1140:39ZSFO5CA93RYWYETDNU37N8HW8JU5", "current_trial": 231, "dateTime": 1513195690598, "trialdata": {"rt": -1, "stimulus": "<p id=\"stim\">5</p>", "key_press": -1, "trial_type": "single-stim", "trial_index": 231, "time_elapsed": 1040223, "internal_node_id": "0.0-172.0-5.0"}}, {"uniqueid": "MTK1140:39ZSFO5CA93RYWYETDNU37N8HW8JU5", "current_trial": 232, "dateTime": 1513195691600, "trialdata": {"rt": -1, "stimulus": "<p id=\"stim\">4</p>", "key_press": -1, "trial_type": "single-stim", "trial_index": 232, "time_elapsed": 1041225, "internal_node_id": "0.0-172.0-6.0"}}, {"uniqueid": "MTK1140:39ZSFO5CA93RYWYETDNU37N8HW8JU5", "current_trial": 233, "dateTime": 1513195692602, "trialdata": {"rt": -1, "stimulus": "<p id=\"stim\">3</p>", "key_press": -1, "trial_type": "single-stim", "trial_index": 233, "time_elapsed": 1042227, "internal_node_id": "0.0-172.0-7.0"}}, {"uniqueid": "MTK1140:39ZSFO5CA93RYWYETDNU37N8HW8JU5", "current_trial": 234, "dateTime": 1513195693604, "trialdata": {"rt": -1, "stimulus": "<p id=\"stim\">2</p>", "key_press": -1, "trial_type": "single-stim", "trial_index": 234, "time_elapsed": 1043229, "internal_node_id": "0.0-172.0-8.0"}}, {"uniqueid": "MTK1140:39ZSFO5CA93RYWYETDNU37N8HW8JU5", "current_trial": 235, "dateTime": 1513195694606, "trialdata": {"rt": -1, "stimulus": "<p id=\"stim\">1</p>", "key_press": -1, "trial_type": "single-stim", "trial_index": 235, "time_elapsed": 1044231, "internal_node_id": "0.0-172.0-9.0"}}, {"uniqueid": "MTK1140:39ZSFO5CA93RYWYETDNU37N8HW8JU5", "current_trial": 236, "dateTime": 1513195696110, "trialdata": {"rt": -1, "stimulus": "<p id=\"stim\">+</p>", "key_press": -1, "type": "FIXATION", "trial_type": "single-stim", "trial_index": 236, "time_elapsed": 1045734, "internal_node_id": "0.0-173.0-0.0"}}, {"uniqueid": "MTK1140:39ZSFO5CA93RYWYETDNU37N8HW8JU5", "current_trial": 237, "dateTime": 1513195698854, "trialdata": {"rt": -1000, "stimulus": "/static/audio/wordpool/OUTDOORS.wav", "key_press": -1, "type": "PRES_AUD", "word": "outdoors", "wordID": 986, "conditions": [12, 1600, "a", 24000], "trial": 6, "serialpos": 0, "trial_type": "single-audio", "trial_index": 237, "time_elapsed": 1048478, "internal_node_id": "0.0-174.0"}}, {"uniqueid": "MTK1140:39ZSFO5CA93RYWYETDNU37N8HW8JU5", "current_trial": 238, "dateTime": 1513195701419, "trialdata": {"rt": -1000, "stimulus": "/static/audio/wordpool/TOMBSTONE.wav", "key_press": -1, "type": "PRES_AUD", "word": "tombstone", "wordID": 1477, "conditions": [12, 1600, "a", 24000], "trial": 6, "serialpos": 1, "trial_type": "single-audio", "trial_index": 238, "time_elapsed": 1051044, "internal_node_id": "0.0-175.0"}}, {"uniqueid": "MTK1140:39ZSFO5CA93RYWYETDNU37N8HW8JU5", "current_trial": 239, "dateTime": 1513195704083, "trialdata": {"rt": -1000, "stimulus": "/static/audio/wordpool/CASKET.wav", "key_press": -1, "type": "PRES_AUD", "word": "casket", "wordID": 254, "conditions": [12, 1600, "a", 24000], "trial": 6, "serialpos": 2, "trial_type": "single-audio", "trial_index": 239, "time_elapsed": 1053707, "internal_node_id": "0.0-176.0"}}, {"uniqueid": "MTK1140:39ZSFO5CA93RYWYETDNU37N8HW8JU5", "current_trial": 240, "dateTime": 1513195706848, "trialdata": {"rt": -1000, "stimulus": "/static/audio/wordpool/RIFLE.wav", "key_press": -1, "type": "PRES_AUD", "word": "rifle", "wordID": 1191, "conditions": [12, 1600, "a", 24000], "trial": 6, "serialpos": 3, "trial_type": "single-audio", "trial_index": 240, "time_elapsed": 1056473, "internal_node_id": "0.0-177.0"}}, {"uniqueid": "MTK1140:39ZSFO5CA93RYWYETDNU37N8HW8JU5", "current_trial": 241, "dateTime": 1513195709328, "trialdata": {"rt": -1000, "stimulus": "/static/audio/wordpool/MATTRESS.wav", "key_press": -1, "type": "PRES_AUD", "word": "mattress", "wordID": 878, "conditions": [12, 1600, "a", 24000], "trial": 6, "serialpos": 4, "trial_type": "single-audio", "trial_index": 241, "time_elapsed": 1058953, "internal_node_id": "0.0-178.0"}}, {"uniqueid": "MTK1140:39ZSFO5CA93RYWYETDNU37N8HW8JU5", "current_trial": 242, "dateTime": 1513195712077, "trialdata": {"rt": -1000, "stimulus": "/static/audio/wordpool/ACTRESS.wav", "key_press": -1, "type": "PRES_AUD", "word": "actress", "wordID": 5, "conditions": [12, 1600, "a", 24000], "trial": 6, "serialpos": 5, "trial_type": "single-audio", "trial_index": 242, "time_elapsed": 1061702, "internal_node_id": "0.0-179.0"}}, {"uniqueid": "MTK1140:39ZSFO5CA93RYWYETDNU37N8HW8JU5", "current_trial": 243, "dateTime": 1513195714521, "trialdata": {"rt": -1000, "stimulus": "/static/audio/wordpool/BUREAU.wav", "key_press": -1, "type": "PRES_AUD", "word": "bureau", "wordID": 198, "conditions": [12, 1600, "a", 24000], "trial": 6, "serialpos": 6, "trial_type": "single-audio", "trial_index": 243, "time_elapsed": 1064146, "internal_node_id": "0.0-180.0"}}, {"uniqueid": "MTK1140:39ZSFO5CA93RYWYETDNU37N8HW8JU5", "current_trial": 244, "dateTime": 1513195716979, "trialdata": {"rt": -1000, "stimulus": "/static/audio/wordpool/COUNTY.wav", "key_press": -1, "type": "PRES_AUD", "word": "county", "wordID": 388, "conditions": [12, 1600, "a", 24000], "trial": 6, "serialpos": 7, "trial_type": "single-audio", "trial_index": 244, "time_elapsed": 1066603, "internal_node_id": "0.0-181.0"}}, {"uniqueid": "MTK1140:39ZSFO5CA93RYWYETDNU37N8HW8JU5", "current_trial": 245, "dateTime": 1513195719630, "trialdata": {"rt": -1000, "stimulus": "/static/audio/wordpool/DORM.wav", "key_press": -1, "type": "PRES_AUD", "word": "dorm", "wordID": 487, "conditions": [12, 1600, "a", 24000], "trial": 6, "serialpos": 8, "trial_type": "single-audio", "trial_index": 245, "time_elapsed": 1069255, "internal_node_id": "0.0-182.0"}}, {"uniqueid": "MTK1140:39ZSFO5CA93RYWYETDNU37N8HW8JU5", "current_trial": 246, "dateTime": 1513195722433, "trialdata": {"rt": -1000, "stimulus": "/static/audio/wordpool/COUCH.wav", "key_press": -1, "type": "PRES_AUD", "word": "couch", "wordID": 385, "conditions": [12, 1600, "a", 24000], "trial": 6, "serialpos": 9, "trial_type": "single-audio", "trial_index": 246, "time_elapsed": 1072055, "internal_node_id": "0.0-183.0"}}, {"uniqueid": "MTK1140:39ZSFO5CA93RYWYETDNU37N8HW8JU5", "current_trial": 247, "dateTime": 1513195725087, "trialdata": {"rt": -1000, "stimulus": "/static/audio/wordpool/BROOK.wav", "key_press": -1, "type": "PRES_AUD", "word": "brook", "wordID": 176, "conditions": [12, 1600, "a", 24000], "trial": 6, "serialpos": 10, "trial_type": "single-audio", "trial_index": 247, "time_elapsed": 1074711, "internal_node_id": "0.0-184.0"}}, {"uniqueid": "MTK1140:39ZSFO5CA93RYWYETDNU37N8HW8JU5", "current_trial": 248, "dateTime": 1513195727665, "trialdata": {"rt": -1000, "stimulus": "/static/audio/wordpool/MUMMY.wav", "key_press": -1, "type": "PRES_AUD", "word": "mummy", "wordID": 931, "conditions": [12, 1600, "a", 24000], "trial": 6, "serialpos": 11, "trial_type": "single-audio", "trial_index": 248, "time_elapsed": 1077289, "internal_node_id": "0.0-185.0"}}, {"uniqueid": "MTK1140:39ZSFO5CA93RYWYETDNU37N8HW8JU5", "current_trial": 249, "dateTime": 1513195728893, "trialdata": {"rt": -1, "stimulus": "", "key_press": -1, "type": "PRE_RECALL_DELAY", "trial_type": "single-stim", "trial_index": 249, "time_elapsed": 1078518, "internal_node_id": "0.0-186.0-0.0"}}, {"uniqueid": "MTK1140:39ZSFO5CA93RYWYETDNU37N8HW8JU5", "current_trial": 250, "dateTime": 1513195729401, "trialdata": {"rt": -1000, "stimulus": "/static/audio/400Hz.wav", "key_press": -1, "type": "PRE_RECALL_ALERT", "trial_type": "single-audio", "trial_index": 250, "time_elapsed": 1079026, "internal_node_id": "0.0-187.0"}}, {"uniqueid": "MTK1140:39ZSFO5CA93RYWYETDNU37N8HW8JU5", "current_trial": 251, "dateTime": 1513195789420, "trialdata": {"rt": [1702, 2507, 3417, 6936, 10178, 13492, 15783, 23566, 56866], "recwords": ["mummy", "dorm", "couch", "tombstone", "outdoors", "brook", "mummy", "frighten", "actress"], "type": "FREE_RECALL", "conditions": [12, 1600, "a", 24000], "trial": 6, "trial_type": "free-recall", "trial_index": 251, "time_elapsed": 1139032, "internal_node_id": "0.0-188.0-0.0"}}, {"uniqueid": "MTK1140:39ZSFO5CA93RYWYETDNU37N8HW8JU5", "current_trial": 252, "dateTime": 1513195792225, "trialdata": {"rt": 801, "key_press": 32, "type": "INSTRUCTIONS", "trial_type": "text", "trial_index": 252, "time_elapsed": 1141850, "internal_node_id": "0.0-189.0"}}, {"uniqueid": "MTK1140:39ZSFO5CA93RYWYETDNU37N8HW8JU5", "current_trial": 253, "dateTime": 1513195818234, "trialdata": {"rt": [2557, 4227, 7832, 12439, 14643, 16320, 18195, 20277, 23824], "responses": ["17", "9", "25", "20", "17", "18", "10", "18", "13"], "num1": [7, 1, 7, 7, 5, 5, 6, 4, 7, 4], "num2": [6, 3, 9, 4, 3, 4, 3, 5, 2, 9], "num3": [4, 5, 9, 9, 9, 9, 1, 9, 4, 8], "type": "DISTRACTOR", "conditions": [12, 1600, "v", 24000], "trial": 7, "trial_type": "math-distractor", "trial_index": 253, "time_elapsed": 1167859, "internal_node_id": "0.0-190.0"}}, {"uniqueid": "MTK1140:39ZSFO5CA93RYWYETDNU37N8HW8JU5", "current_trial": 254, "dateTime": 1513195821238, "trialdata": {"rt": -1, "stimulus": "<p id=\"stim\">10</p>", "key_press": -1, "trial_type": "single-stim", "trial_index": 254, "time_elapsed": 1170863, "internal_node_id": "0.0-191.0-0.0"}}, {"uniqueid": "MTK1140:39ZSFO5CA93RYWYETDNU37N8HW8JU5", "current_trial": 255, "dateTime": 1513195822242, "trialdata": {"rt": -1, "stimulus": "<p id=\"stim\">9</p>", "key_press": -1, "trial_type": "single-stim", "trial_index": 255, "time_elapsed": 1171866, "internal_node_id": "0.0-191.0-1.0"}}, {"uniqueid": "MTK1140:39ZSFO5CA93RYWYETDNU37N8HW8JU5", "current_trial": 256, "dateTime": 1513195823245, "trialdata": {"rt": -1, "stimulus": "<p id=\"stim\">8</p>", "key_press": -1, "trial_type": "single-stim", "trial_index": 256, "time_elapsed": 1172869, "internal_node_id": "0.0-191.0-2.0"}}, {"uniqueid": "MTK1140:39ZSFO5CA93RYWYETDNU37N8HW8JU5", "current_trial": 257, "dateTime": 1513195824247, "trialdata": {"rt": -1, "stimulus": "<p id=\"stim\">7</p>", "key_press": -1, "trial_type": "single-stim", "trial_index": 257, "time_elapsed": 1173871, "internal_node_id": "0.0-191.0-3.0"}}, {"uniqueid": "MTK1140:39ZSFO5CA93RYWYETDNU37N8HW8JU5", "current_trial": 258, "dateTime": 1513195825249, "trialdata": {"rt": -1, "stimulus": "<p id=\"stim\">6</p>", "key_press": -1, "trial_type": "single-stim", "trial_index": 258, "time_elapsed": 1174874, "internal_node_id": "0.0-191.0-4.0"}}, {"uniqueid": "MTK1140:39ZSFO5CA93RYWYETDNU37N8HW8JU5", "current_trial": 259, "dateTime": 1513195826251, "trialdata": {"rt": -1, "stimulus": "<p id=\"stim\">5</p>", "key_press": -1, "trial_type": "single-stim", "trial_index": 259, "time_elapsed": 1175876, "internal_node_id": "0.0-191.0-5.0"}}, {"uniqueid": "MTK1140:39ZSFO5CA93RYWYETDNU37N8HW8JU5", "current_trial": 260, "dateTime": 1513195827256, "trialdata": {"rt": -1, "stimulus": "<p id=\"stim\">4</p>", "key_press": -1, "trial_type": "single-stim", "trial_index": 260, "time_elapsed": 1176878, "internal_node_id": "0.0-191.0-6.0"}}, {"uniqueid": "MTK1140:39ZSFO5CA93RYWYETDNU37N8HW8JU5", "current_trial": 261, "dateTime": 1513195828259, "trialdata": {"rt": -1, "stimulus": "<p id=\"stim\">3</p>", "key_press": -1, "trial_type": "single-stim", "trial_index": 261, "time_elapsed": 1177884, "internal_node_id": "0.0-191.0-7.0"}}, {"uniqueid": "MTK1140:39ZSFO5CA93RYWYETDNU37N8HW8JU5", "current_trial": 262, "dateTime": 1513195829261, "trialdata": {"rt": -1, "stimulus": "<p id=\"stim\">2</p>", "key_press": -1, "trial_type": "single-stim", "trial_index": 262, "time_elapsed": 1178886, "internal_node_id": "0.0-191.0-8.0"}}, {"uniqueid": "MTK1140:39ZSFO5CA93RYWYETDNU37N8HW8JU5", "current_trial": 263, "dateTime": 1513195830263, "trialdata": {"rt": -1, "stimulus": "<p id=\"stim\">1</p>", "key_press": -1, "trial_type": "single-stim", "trial_index": 263, "time_elapsed": 1179888, "internal_node_id": "0.0-191.0-9.0"}}, {"uniqueid": "MTK1140:39ZSFO5CA93RYWYETDNU37N8HW8JU5", "current_trial": 264, "dateTime": 1513195831766, "trialdata": {"rt": -1, "stimulus": "<p id=\"stim\">+</p>", "key_press": -1, "type": "FIXATION", "trial_type": "single-stim", "trial_index": 264, "time_elapsed": 1181390, "internal_node_id": "0.0-192.0-0.0"}}, {"uniqueid": "MTK1140:39ZSFO5CA93RYWYETDNU37N8HW8JU5", "current_trial": 265, "dateTime": 1513195833371, "trialdata": {"rt": -1, "stimulus": "<p id=\"stim\">OMELET</p>", "key_press": -1, "type": "PRES_VIS", "word": "omelet", "wordID": 975, "conditions": [12, 1600, "v", 24000], "trial": 7, "serialpos": 0, "trial_type": "single-stim", "trial_index": 265, "time_elapsed": 1182995, "internal_node_id": "0.0-193.0"}}, {"uniqueid": "MTK1140:39ZSFO5CA93RYWYETDNU37N8HW8JU5", "current_trial": 266, "dateTime": 1513195836126, "trialdata": {"rt": -1, "stimulus": "<p id=\"stim\">CABIN</p>", "key_press": -1, "type": "PRES_VIS", "word": "cabin", "wordID": 210, "conditions": [12, 1600, "v", 24000], "trial": 7, "serialpos": 1, "trial_type": "single-stim", "trial_index": 266, "time_elapsed": 1185750, "internal_node_id": "0.0-194.0"}}, {"uniqueid": "MTK1140:39ZSFO5CA93RYWYETDNU37N8HW8JU5", "current_trial": 267, "dateTime": 1513195838860, "trialdata": {"rt": -1, "stimulus": "<p id=\"stim\">BABY</p>", "key_press": -1, "type": "PRES_VIS", "word": "baby", "wordID": 63, "conditions": [12, 1600, "v", 24000], "trial": 7, "serialpos": 2, "trial_type": "single-stim", "trial_index": 267, "time_elapsed": 1188484, "internal_node_id": "0.0-195.0"}}, {"uniqueid": "MTK1140:39ZSFO5CA93RYWYETDNU37N8HW8JU5", "current_trial": 268, "dateTime": 1513195841316, "trialdata": {"rt": -1, "stimulus": "<p id=\"stim\">CHILD</p>", "key_press": -1, "type": "PRES_VIS", "word": "child", "wordID": 298, "conditions": [12, 1600, "v", 24000], "trial": 7, "serialpos": 3, "trial_type": "single-stim", "trial_index": 268, "time_elapsed": 1190941, "internal_node_id": "0.0-196.0"}}, {"uniqueid": "MTK1140:39ZSFO5CA93RYWYETDNU37N8HW8JU5", "current_trial": 269, "dateTime": 1513195843945, "trialdata": {"rt": -1, "stimulus": "<p id=\"stim\">RAFT</p>", "key_press": -1, "type": "PRES_VIS", "word": "raft", "wordID": 1158, "conditions": [12, 1600, "v", 24000], "trial": 7, "serialpos": 4, "trial_type": "single-stim", "trial_index": 269, "time_elapsed": 1193570, "internal_node_id": "0.0-197.0