{"assignmentId": "3JBT3HLQF99466VMUDRMHVOZWD5PZG", "workerId": "MTK1955", "questiondata": {"origin": "United States", "strat-rehearsal": "93", "marital": "Married/Domestic Partnership", "education": "Some graduate education", "ethnicity": "Not Hispanic", "color_depth": 24, "distracted": "No", "wrote-notes": "No", "strat-other": "", "screen_width": 1366, "avail_screen_width": 1366, "avail_screen_height": 728, "strat-image": "16", "language": "english", "gender": "Male", "age": "42", "gender_other": "", "race": ["White"], "strat-categorize": "97", "pixel_depth": 24, "strat-spatial": "1", "strat-story": "83", "race_other": "", "screen_height": 768}, "bonus": 0, "hitId": "382GHPVPHSYF904GLKZNLCC58BT34A", "counterbalance": 748, "useragent": "Mozilla/5.0 (Windows NT 10.0; Win64; x64) AppleWebKit/537.36 (KHTML, like Gecko) Chrome/63.0.3239.132 Safari/537.36", "eventdata": [{"eventtype": "initialized", "interval": 0, "value": null, "timestamp": 1516636284147}, {"eventtype": "window_resize", "interval": 0, "value": [1366, 721], "timestamp": 1516636284147}, {"eventtype": "focus", "interval": 624221, "value": "off", "timestamp": 1516636908368}, {"eventtype": "focus", "interval": 4070, "value": "on", "timestamp": 1516636912438}, {"eventtype": "focus", "interval": 1, "value": "on", "timestamp": 1516636912439}, {"eventtype": "focus", "interval": 2039986, "value": "off", "timestamp": 1516638952425}, {"eventtype": "focus", "interval": 25739, "value": "on", "timestamp": 1516638978164}], "data": [{"current_trial": 0, "trialdata": {"rt": 1946, "trial_type": "text", "internal_node_id": "0.0-0.0", "time_elapsed": 1951, "key_press": 32, "type": "INSTRUCTIONS", "trial_index": 0}, "uniqueid": "MTK1955:3JBT3HLQF99466VMUDRMHVOZWD5PZG", "dateTime": 1516636286373}, {"current_trial": 1, "trialdata": {"rt": 39573, "trial_type": "text", "internal_node_id": "0.0-1.0", "time_elapsed": 41526, "key_press": 32, "type": "INSTRUCTIONS", "trial_index": 1}, "uniqueid": "MTK1955:3JBT3HLQF99466VMUDRMHVOZWD5PZG", "dateTime": 1516636325949}, {"current_trial": 2, "trialdata": {"rt": [10617], "trial_type": "audio-test", "responses": ["ocean"], "internal_node_id": "0.0-2.0", "time_elapsed": 52154, "type": "AUDIO_TEST", "trial_index": 2}, "uniqueid": "MTK1955:3JBT3HLQF99466VMUDRMHVOZWD5PZG", "dateTime": 1516636336576}, {"current_trial": 3, "trialdata": {"rt": [5864], "trial_type": "audio-test", "responses": ["crystal"], "internal_node_id": "0.0-3.0", "time_elapsed": 58023, "type": "AUDIO_TEST", "trial_index": 3}, "uniqueid": "MTK1955:3JBT3HLQF99466VMUDRMHVOZWD5PZG", "dateTime": 1516636342445}, {"current_trial": 4, "trialdata": {"rt": [4829], "trial_type": "audio-test", "responses": ["spice"], "internal_node_id": "0.0-4.0", "time_elapsed": 62857, "type": "AUDIO_TEST", "trial_index": 4}, "uniqueid": "MTK1955:3JBT3HLQF99466VMUDRMHVOZWD5PZG", "dateTime": 1516636347279}, {"current_trial": 5, "trialdata": {"rt": 16575, "trial_type": "survey-text", "responses": "{\"Q0\":\"12:30\",\"Q1\":\"5:45\",\"Q2\":\"4\"}", "internal_node_id": "0.0-5.0", "time_elapsed": 80184, "type": "SLEEP_SURVEY", "trial_index": 5}, "uniqueid": "MTK1955:3JBT3HLQF99466VMUDRMHVOZWD5PZG", "dateTime": 1516636364607}, {"current_trial": 6, "trialdata": {"rt": 32827, "trial_type": "text", "internal_node_id": "0.0-6.0", "time_elapsed": 114178, "key_press": 32, "type": "INSTRUCTIONS", "trial_index": 6}, "uniqueid": "MTK1955:3JBT3HLQF99466VMUDRMHVOZWD5PZG", "dateTime": 1516636398600}, {"current_trial": 7, "trialdata": {"rt": 17243, "trial_type": "text", "internal_node_id": "0.0-7.0", "time_elapsed": 131924, "key_press": 32, "type": "INSTRUCTIONS", "trial_index": 7}, "uniqueid": "MTK1955:3JBT3HLQF99466VMUDRMHVOZWD5PZG", "dateTime": 1516636416346}, {"current_trial": 8, "trialdata": {"rt": 11026, "trial_type": "text", "internal_node_id": "0.0-8.0", "time_elapsed": 143453, "key_press": 32, "type": "INSTRUCTIONS", "trial_index": 8}, "uniqueid": "MTK1955:3JBT3HLQF99466VMUDRMHVOZWD5PZG", "dateTime": 1516636427875}, {"current_trial": 9, "trialdata": {"rt": [5039, 11152, 13586, 16012], "trial_type": "math-distractor", "key_times": [3831, 4028, 5039, 10465, 10629, 11152, 12938, 13148, 13586, 15487, 15661, 16012, 17724], "responses": ["16", "22", "18", "14"], "num2": [6, 5, 8, 7, 1], "num3": [1, 9, 8, 5, 2], "conditions": [18, 1200, "v", 18000], "internal_node_id": "0.0-9.0", "key_presses": [97, 102, 13, 98, 98, 13, 97, 104, 13, 97, 100, 13, 103], "trial": 0, "time_elapsed": 162464, "type": "DISTRACTOR", "trial_index": 9, "num1": [9, 7, 2, 2, 4]}, "uniqueid": "MTK1955:3JBT3HLQF99466VMUDRMHVOZWD5PZG", "dateTime": 1516636446886}, {"current_trial": 10, "trialdata": {"rt": -1, "trial_type": "single-stim", "stimulus": "<p id=\"stim\">10</p>", "internal_node_id": "0.0-10.0-0.0", "time_elapsed": 165469, "key_press": -1, "trial_index": 10}, "uniqueid": "MTK1955:3JBT3HLQF99466VMUDRMHVOZWD5PZG", "dateTime": 1516636449891}, {"current_trial": 11, "trialdata": {"rt": -1, "trial_type": "single-stim", "stimulus": "<p id=\"stim\">9</p>", "internal_node_id": "0.0-10.0-1.0", "time_elapsed": 166471, "key_press": -1, "trial_index": 11}, "uniqueid": "MTK1955:3JBT3HLQF99466VMUDRMHVOZWD5PZG", "dateTime": 1516636450893}, {"current_trial": 12, "trialdata": {"rt": -1, "trial_type": "single-stim", "stimulus": "<p id=\"stim\">8</p>", "internal_node_id": "0.0-10.0-2.0", "time_elapsed": 167474, "key_press": -1, "trial_index": 12}, "uniqueid": "MTK1955:3JBT3HLQF99466VMUDRMHVOZWD5PZG", "dateTime": 1516636451896}, {"current_trial": 13, "trialdata": {"rt": -1, "trial_type": "single-stim", "stimulus": "<p id=\"stim\">7</p>", "internal_node_id": "0.0-10.0-3.0", "time_elapsed": 168475, "key_press": -1, "trial_index": 13}, "uniqueid": "MTK1955:3JBT3HLQF99466VMUDRMHVOZWD5PZG", "dateTime": 1516636452897}, {"current_trial": 14, "trialdata": {"rt": -1, "trial_type": "single-stim", "stimulus": "<p id=\"stim\">6</p>", "internal_node_id": "0.0-10.0-4.0", "time_elapsed": 169478, "key_press": -1, "trial_index": 14}, "uniqueid": "MTK1955:3JBT3HLQF99466VMUDRMHVOZWD5PZG", "dateTime": 1516636453900}, {"current_trial": 15, "trialdata": {"rt": -1, "trial_type": "single-stim", "stimulus": "<p id=\"stim\">5</p>", "internal_node_id": "0.0-10.0-5.0", "time_elapsed": 170480, "key_press": -1, "trial_index": 15}, "uniqueid": "MTK1955:3JBT3HLQF99466VMUDRMHVOZWD5PZG", "dateTime": 1516636454902}, {"current_trial": 16, "trialdata": {"rt": -1, "trial_type": "single-stim", "stimulus": "<p id=\"stim\">4</p>", "internal_node_id": "0.0-10.0-6.0", "time_elapsed": 171482, "key_press": -1, "trial_index": 16}, "uniqueid": "MTK1955:3JBT3HLQF99466VMUDRMHVOZWD5PZG", "dateTime": 1516636455904}, {"current_trial": 17, "trialdata": {"rt": -1, "trial_type": "single-stim", "stimulus": "<p id=\"stim\">3</p>", "internal_node_id": "0.0-10.0-7.0", "time_elapsed": 172485, "key_press": -1, "trial_index": 17}, "uniqueid": "MTK1955:3JBT3HLQF99466VMUDRMHVOZWD5PZG", "dateTime": 1516636456907}, {"current_trial": 18, "trialdata": {"rt": -1, "trial_type": "single-stim", "stimulus": "<p id=\"stim\">2</p>", "internal_node_id": "0.0-10.0-8.0", "time_elapsed": 173487, "key_press": -1, "trial_index": 18}, "uniqueid": "MTK1955:3JBT3HLQF99466VMUDRMHVOZWD5PZG", "dateTime": 1516636457909}, {"current_trial": 19, "trialdata": {"rt": -1, "trial_type": "single-stim", "stimulus": "<p id=\"stim\">1</p>", "internal_node_id": "0.0-10.0-9.0", "time_elapsed": 174488, "key_press": -1, "trial_index": 19}, "uniqueid": "MTK1955:3JBT3HLQF99466VMUDRMHVOZWD5PZG", "dateTime": 1516636458911}, {"current_trial": 20, "trialdata": {"rt": -1, "trial_type": "single-stim", "stimulus": "<p id=\"stim\">+</p>", "internal_node_id": "0.0-11.0-0.0", "time_elapsed": 175990, "key_press": -1, "type": "FIXATION", "trial_index": 20}, "uniqueid": "MTK1955:3JBT3HLQF99466VMUDRMHVOZWD5PZG", "dateTime": 1516636460412}, {"current_trial": 21, "trialdata": {"rt": -1, "trial_type": "single-stim", "word": "bacon", "stimulus": "<p id=\"stim\">BACON</p>", "conditions": [18, 1200, "v", 18000], "internal_node_id": "0.0-12.0", "trial": 0, "time_elapsed": 177192, "serialpos": 0, "key_press": -1, "wordID": 66, "type": "PRES_VIS", "trial_index": 21}, "uniqueid": "MTK1955:3JBT3HLQF99466VMUDRMHVOZWD5PZG", "dateTime": 1516636461614}, {"current_trial": 22, "trialdata": {"rt": -1, "trial_type": "single-stim", "word": "grave", "stimulus": "<p id=\"stim\">GRAVE</p>", "conditions": [18, 1200, "v", 18000], "internal_node_id": "0.0-13.0", "trial": 0, "time_elapsed": 179404, "serialpos": 1, "key_press": -1, "wordID": 657, "type": "PRES_VIS", "trial_index": 22}, "uniqueid": "MTK1955:3JBT3HLQF99466VMUDRMHVOZWD5PZG", "dateTime": 1516636463826}, {"current_trial": 23, "trialdata": {"rt": -1, "trial_type": "single-stim", "word": "rabbit", "stimulus": "<p id=\"stim\">RABBIT</p>", "conditions": [18, 1200, "v", 18000], "internal_node_id": "0.0-14.0", "trial": 0, "time_elapsed": 181720, "serialpos": 2, "key_press": -1, "wordID": 1151, "type": "PRES_VIS", "trial_index": 23}, "uniqueid": "MTK1955:3JBT3HLQF99466VMUDRMHVOZWD5PZG", "dateTime": 1516636466142}, {"current_trial": 24, "trialdata": {"rt": -1, "trial_type": "single-stim", "word": "penguin", "stimulus": "<p id=\"stim\">PENGUIN</p>", "conditions": [18, 1200, "v", 18000], "internal_node_id": "0.0-15.0", "trial": 0, "time_elapsed": 184117, "serialpos": 3, "key_press": -1, "wordID": 1043, "type": "PRES_VIS", "trial_index": 24}, "uniqueid": "MTK1955:3JBT3HLQF99466VMUDRMHVOZWD5PZG", "dateTime": 1516636468540}, {"current_trial": 25, "trialdata": {"rt": -1, "trial_type": "single-stim", "word": "worker", "stimulus": "<p id=\"stim\">WORKER</p>", "conditions": [18, 1200, "v", 18000], "internal_node_id": "0.0-16.0", "trial": 0, "time_elapsed": 186364, "serialpos": 4, "key_press": -1, "wordID": 1620, "type": "PRES_VIS", "trial_index": 25}, "uniqueid": "MTK1955:3JBT3HLQF99466VMUDRMHVOZWD5PZG", "dateTime": 1516636470786}, {"current_trial": 26, "trialdata": {"rt": -1, "trial_type": "single-stim", "word": "scotch", "stimulus": "<p id=\"stim\">SCOTCH</p>", "conditions": [18, 1200, "v", 18000], "internal_node_id": "0.0-17.0", "trial": 0, "time_elapsed": 188482, "serialpos": 5, "key_press": -1, "wordID": 1250, "type": "PRES_VIS", "trial_index": 26}, "uniqueid": "MTK1955:3JBT3HLQF99466VMUDRMHVOZWD5PZG", "dateTime": 1516636472904}, {"current_trial": 27, "trialdata": {"rt": -1, "trial_type": "single-stim", "word": "gazelle", "stimulus": "<p id=\"stim\">GAZELLE</p>", "conditions": [18, 1200, "v", 18000], "internal_node_id": "0.0-18.0", "trial": 0, "time_elapsed": 190668, "serialpos": 6, "key_press": -1, "wordID": 627, "type": "PRES_VIS", "trial_index": 27}, "uniqueid": "MTK1955:3JBT3HLQF99466VMUDRMHVOZWD5PZG", "dateTime": 1516636475090}, {"current_trial": 28, "trialdata": {"rt": -1, "trial_type": "single-stim", "word": "sidewalk", "stimulus": "<p id=\"stim\">SIDEWALK</p>", "conditions": [18, 1200, "v", 18000], "internal_node_id": "0.0-19.0", "trial": 0, "time_elapsed": 192833, "serialpos": 7, "key_press": -1, "wordID": 1302, "type": "PRES_VIS", "trial_index": 28}, "uniqueid": "MTK1955:3JBT3HLQF99466VMUDRMHVOZWD5PZG", "dateTime": 1516636477255}, {"current_trial": 29, "trialdata": {"rt": -1, "trial_type": "single-stim", "word": "monster", "stimulus": "<p id=\"stim\">MONSTER</p>", "conditions": [18, 1200, "v", 18000], "internal_node_id": "0.0-20.0", "trial": 0, "time_elapsed": 194917, "serialpos": 8, "key_press": -1, "wordID": 911, "type": "PRES_VIS", "trial_index": 29}, "uniqueid": "MTK1955:3JBT3HLQF99466VMUDRMHVOZWD5PZG", "dateTime": 1516636479339}, {"current_trial": 30, "trialdata": {"rt": -1, "trial_type": "single-stim", "word": "cyclone", "stimulus": "<p id=\"stim\">CYCLONE</p>", "conditions": [18, 1200, "v", 18000], "internal_node_id": "0.0-21.0", "trial": 0, "time_elapsed": 197184, "serialpos": 9, "key_press": -1, "wordID": 430, "type": "PRES_VIS", "trial_index": 30}, "uniqueid": "MTK1955:3JBT3HLQF99466VMUDRMHVOZWD5PZG", "dateTime": 1516636481606}, {"current_trial": 31, "trialdata": {"rt": -1, "trial_type": "single-stim", "word": "notebook", "stimulus": "<p id=\"stim\">NOTEBOOK</p>", "conditions": [18, 1200, "v", 18000], "internal_node_id": "0.0-22.0", "trial": 0, "time_elapsed": 199508, "serialpos": 10, "key_press": -1, "wordID": 958, "type": "PRES_VIS", "trial_index": 31}, "uniqueid": "MTK1955:3JBT3HLQF99466VMUDRMHVOZWD5PZG", "dateTime": 1516636483930}, {"current_trial": 32, "trialdata": {"rt": -1, "trial_type": "single-stim", "word": "cowboy", "stimulus": "<p id=\"stim\">COWBOY</p>", "conditions": [18, 1200, "v", 18000], "internal_node_id": "0.0-23.0", "trial": 0, "time_elapsed": 201654, "serialpos": 11, "key_press": -1, "wordID": 394, "type": "PRES_VIS", "trial_index": 32}, "uniqueid": "MTK1955:3JBT3HLQF99466VMUDRMHVOZWD5PZG", "dateTime": 1516636486076}, {"current_trial": 33, "trialdata": {"rt": -1, "trial_type": "single-stim", "word": "atom", "stimulus": "<p id=\"stim\">ATOM</p>", "conditions": [18, 1200, "v", 18000], "internal_node_id": "0.0-24.0", "trial": 0, "time_elapsed": 203830, "serialpos": 12, "key_press": -1, "wordID": 54, "type": "PRES_VIS", "trial_index": 33}, "uniqueid": "MTK1955:3JBT3HLQF99466VMUDRMHVOZWD5PZG", "dateTime": 1516636488252}, {"current_trial": 34, "trialdata": {"rt": -1, "trial_type": "single-stim", "word": "proton", "stimulus": "<p id=\"stim\">PROTON</p>", "conditions": [18, 1200, "v", 18000], "internal_node_id": "0.0-25.0", "trial": 0, "time_elapsed": 205880, "serialpos": 13, "key_press": -1, "wordID": 1131, "type": "PRES_VIS", "trial_index": 34}, "uniqueid": "MTK1955:3JBT3HLQF99466VMUDRMHVOZWD5PZG", "dateTime": 1516636490302}, {"current_trial": 35, "trialdata": {"rt": -1, "trial_type": "single-stim", "word": "shelter", "stimulus": "<p id=\"stim\">SHELTER</p>", "conditions": [18, 1200, "v", 18000], "internal_node_id": "0.0-26.0", "trial": 0, "time_elapsed": 208106, "serialpos": 14, "key_press": -1, "wordID": 1281, "type": "PRES_VIS", "trial_index": 35}, "uniqueid": "MTK1955:3JBT3HLQF99466VMUDRMHVOZWD5PZG", "dateTime": 1516636492528}, {"current_trial": 36, "trialdata": {"rt": -1, "trial_type": "single-stim", "word": "mummy", "stimulus": "<p id=\"stim\">MUMMY</p>", "conditions": [18, 1200, "v", 18000], "internal_node_id": "0.0-27.0", "trial": 0, "time_elapsed": 210185, "serialpos": 15, "key_press": -1, "wordID": 931, "type": "PRES_VIS", "trial_index": 36}, "uniqueid": "MTK1955:3JBT3HLQF99466VMUDRMHVOZWD5PZG", "dateTime": 1516636494607}, {"current_trial": 37, "trialdata": {"rt": -1, "trial_type": "single-stim", "word": "zipper", "stimulus": "<p id=\"stim\">ZIPPER</p>", "conditions": [18, 1200, "v", 18000], "internal_node_id": "0.0-28.0", "trial": 0, "time_elapsed": 212266, "serialpos": 16, "key_press": -1, "wordID": 1635, "type": "PRES_VIS", "trial_index": 37}, "uniqueid": "MTK1955:3JBT3HLQF99466VMUDRMHVOZWD5PZG", "dateTime": 1516636496688}, {"current_trial": 38, "trialdata": {"rt": -1, "trial_type": "single-stim", "word": "fox", "stimulus": "<p id=\"stim\">FOX</p>", "conditions": [18, 1200, "v", 18000], "internal_node_id": "0.0-29.0", "trial": 0, "time_elapsed": 214472, "serialpos": 17, "key_press": -1, "wordID": 597, "type": "PRES_VIS", "trial_index": 38}, "uniqueid": "MTK1955:3JBT3HLQF99466VMUDRMHVOZWD5PZG", "dateTime": 1516636498894}, {"current_trial": 39, "trialdata": {"rt": -1, "trial_type": "single-stim", "stimulus": "", "internal_node_id": "0.0-30.0-0.0", "time_elapsed": 216933, "key_press": -1, "type": "PRE_RECALL_DELAY", "trial_index": 39}, "uniqueid": "MTK1955:3JBT3HLQF99466VMUDRMHVOZWD5PZG", "dateTime": 1516636501355}, {"current_trial": 40, "trialdata": {"rt": -1000, "trial_type": "single-audio", "stimulus": "/static/audio/400Hz.wav", "internal_node_id": "0.0-31.0", "time_elapsed": 217436, "key_press": -1, "type": "PRE_RECALL_ALERT", "trial_index": 40}, "uniqueid": "MTK1955:3JBT3HLQF99466VMUDRMHVOZWD5PZG", "dateTime": 1516636501858}, {"current_trial": 41, "trialdata": {"rt": [2615, 4442, 6439, 9195, 11580, 13984, 22804, 49000], "recwords": ["bacon", "grave", "atom", "proton", "worker", "zipper", "cyclone", "prton"], "key_times": [1504, 1613, 1917, 2057, 2275, 2615, 3368, 3550, 3697, 3850, 3992, 4442, 5127, 5278, 5547, 5753, 6439, 7110, 7295, 7505, 7802, 8108, 8369, 9195, 10137, 10318, 10503, 10705, 10921, 11214, 11580, 12327, 12510, 12752, 12919, 13110, 13363, 13984, 20542, 20683, 20808, 20986, 21166, 21385, 21584, 22804, 47547, 47708, 48136, 48322, 48513, 49000], "trial_type": "free-recall", "conditions": [18, 1200, "v", 18000], "internal_node_id": "0.0-32.0-0.0", "key_presses": [66, 65, 67, 79, 78, 13, 71, 82, 65, 86, 69, 13, 65, 84, 79, 77, 13, 80, 82, 79, 84, 79, 78, 13, 87, 79, 82, 75, 69, 82, 13, 90, 73, 80, 80, 69, 82, 13, 67, 89, 67, 76, 79, 78, 69, 13, 80, 82, 84, 79, 78, 13], "trial": 0, "time_elapsed": 277440, "type": "FREE_RECALL", "trial_index": 41}, "uniqueid": "MTK1955:3JBT3HLQF99466VMUDRMHVOZWD5PZG", "dateTime": 1516636561864}, {"current_trial": 42, "trialdata": {"rt": 1966, "trial_type": "text", "internal_node_id": "0.0-33.0", "time_elapsed": 281410, "key_press": 32, "type": "INSTRUCTIONS", "trial_index": 42}, "uniqueid": "MTK1955:3JBT3HLQF99466VMUDRMHVOZWD5PZG", "dateTime": 1516636565832}, {"current_trial": 43, "trialdata": {"rt": [2571, 5374, 7597, 9299, 11125, 13017, 14801, 17358], "trial_type": "math-distractor", "key_times": [1993, 2194, 2571, 4786, 4990, 5374, 7165, 7305, 7597, 8886, 9039, 9299, 10721, 10892, 11125, 12572, 13017, 14391, 14525, 14801, 16888, 17063, 17358], "responses": ["17", "18", "11", "16", "13", "7", "12", "18"], "num2": [9, 3, 4, 5, 6, 1, 2, 3, 1], "num3": [5, 6, 4, 5, 2, 5, 8, 6, 7], "conditions": [18, 1200, "v", 18000], "internal_node_id": "0.0-34.0", "key_presses": [97, 103, 13, 97, 104, 13, 97, 97, 13, 97, 102, 13, 97, 99, 13, 103, 13, 97, 98, 13, 97, 104, 13], "trial": 1, "time_elapsed": 301455, "type": "DISTRACTOR", "trial_index": 43, "num1": [3, 9, 3, 6, 5, 1, 2, 9, 4]}, "uniqueid": "MTK1955:3JBT3HLQF99466VMUDRMHVOZWD5PZG", "dateTime": 1516636585877}, {"current_trial": 44, "trialdata": {"rt": -1, "trial_type": "single-stim", "stimulus": "<p id=\"stim\">10</p>", "internal_node_id": "0.0-35.0-0.0", "time_elapsed": 304460, "key_press": -1, "trial_index": 44}, "uniqueid": "MTK1955:3JBT3HLQF99466VMUDRMHVOZWD5PZG", "dateTime": 1516636588882}, {"current_trial": 45, "trialdata": {"rt": -1, "trial_type": "single-stim", "stimulus": "<p id=\"stim\">9</p>", "internal_node_id": "0.0-35.0-1.0", "time_elapsed": 305462, "key_press": -1, "trial_index": 45}, "uniqueid": "MTK1955:3JBT3HLQF99466VMUDRMHVOZWD5PZG", "dateTime": 1516636589884}, {"current_trial": 46, "trialdata": {"rt": -1, "trial_type": "single-stim", "stimulus": "<p id=\"stim\">8</p>", "internal_node_id": "0.0-35.0-2.0", "time_elapsed": 306464, "key_press": -1, "trial_index": 46}, "uniqueid": "MTK1955:3JBT3HLQF99466VMUDRMHVOZWD5PZG", "dateTime": 1516636590886}, {"current_trial": 47, "trialdata": {"rt": -1, "trial_type": "single-stim", "stimulus": "<p id=\"stim\">7</p>", "internal_node_id": "0.0-35.0-3.0", "time_elapsed": 307465, "key_press": -1, "trial_index": 47}, "uniqueid": "MTK1955:3JBT3HLQF99466VMUDRMHVOZWD5PZG", "dateTime": 1516636591887}, {"current_trial": 48, "trialdata": {"rt": -1, "trial_type": "single-stim", "stimulus": "<p id=\"stim\">6</p>", "internal_node_id": "0.0-35.0-4.0", "time_elapsed": 308467, "key_press": -1, "trial_index": 48}, "uniqueid": "MTK1955:3JBT3HLQF99466VMUDRMHVOZWD5PZG", "dateTime": 1516636592889}, {"current_trial": 49, "trialdata": {"rt": -1, "trial_type": "single-stim", "stimulus": "<p id=\"stim\">5</p>", "internal_node_id": "0.0-35.0-5.0", "time_elapsed": 309468, "key_press": -1, "trial_index": 49}, "uniqueid": "MTK1955:3JBT3HLQF99466VMUDRMHVOZWD5PZG", "dateTime": 1516636593890}, {"current_trial": 50, "trialdata": {"rt": -1, "trial_type": "single-stim", "stimulus": "<p id=\"stim\">4</p>", "internal_node_id": "0.0-35.0-6.0", "time_elapsed": 310470, "key_press": -1, "trial_index": 50}, "uniqueid": "MTK1955:3JBT3HLQF99466VMUDRMHVOZWD5PZG", "dateTime": 1516636594892}, {"current_trial": 51, "trialdata": {"rt": -1, "trial_type": "single-stim", "stimulus": "<p id=\"stim\">3</p>", "internal_node_id": "0.0-35.0-7.0", "time_elapsed": 311548, "key_press": -1, "trial_index": 51}, "uniqueid": "MTK1955:3JBT3HLQF99466VMUDRMHVOZWD5PZG", "dateTime": 1516636595970}, {"current_trial": 52, "trialdata": {"rt": -1, "trial_type": "single-stim", "stimulus": "<p id=\"stim\">2</p>", "internal_node_id": "0.0-35.0-8.0", "time_elapsed": 312554, "key_press": -1, "trial_index": 52}, "uniqueid": "MTK1955:3JBT3HLQF99466VMUDRMHVOZWD5PZG", "dateTime": 1516636596976}, {"current_trial": 53, "trialdata": {"rt": -1, "trial_type": "single-stim", "stimulus": "<p id=\"stim\">1</p>", "internal_node_id": "0.0-35.0-9.0", "time_elapsed": 313555, "key_press": -1, "trial_index": 53}, "uniqueid": "MTK1955:3JBT3HLQF99466VMUDRMHVOZWD5PZG", "dateTime": 1516636597978}, {"current_trial": 54, "trialdata": {"rt": -1, "trial_type": "single-stim", "stimulus": "<p id=\"stim\">+</p>", "internal_node_id": "0.0-36.0-0.0", "time_elapsed": 315058, "key_press": -1, "type": "FIXATION", "trial_index": 54}, "uniqueid": "MTK1955:3JBT3HLQF99466VMUDRMHVOZWD5PZG", "dateTime": 1516636599481}, {"current_trial": 55, "trialdata": {"rt": -1, "trial_type": "single-stim", "word": "kitchen", "stimulus": "<p id=\"stim\">KITCHEN</p>", "conditions": [18, 1200, "v", 18000], "internal_node_id": "0.0-37.0", "trial": 1, "time_elapsed": 316493, "serialpos": 0, "key_press": -1, "wordID": 777, "type": "PRES_VIS", "trial_index": 55}, "uniqueid": "MTK1955:3JBT3HLQF99466VMUDRMHVOZWD5PZG", "dateTime": 1516636600915}, {"current_trial": 56, "trialdata": {"rt": -1, "trial_type": "single-stim", "word": "outlaw", "stimulus": "<p id=\"stim\">OUTLAW</p>", "conditions": [18, 1200, "v", 18000], "internal_node_id": "0.0-38.0", "trial": 1, "time_elapsed": 318847, "serialpos": 1, "key_press": -1, "wordID": 988, "type": "PRES_VIS", "trial_index": 56}, "uniqueid": "MTK1955:3JBT3HLQF99466VMUDRMHVOZWD5PZG", "dateTime": 1516636603269}, {"current_trial": 57, "trialdata": {"rt": -1, "trial_type": "single-stim", "word": "costume", "stimulus": "<p id=\"stim\">COSTUME</p>", "conditions": [18, 1200, "v", 18000], "internal_node_id": "0.0-39.0", "trial": 1, "time_elapsed": 321056, "serialpos": 2, "key_press": -1, "wordID": 382, "type": "PRES_VIS", "trial_index": 57}, "uniqueid": "MTK1955:3JBT3HLQF99466VMUDRMHVOZWD5PZG", "dateTime": 1516636605479}, {"current_trial": 58, "trialdata": {"rt": -1, "trial_type": "single-stim", "word": "daughter", "stimulus": "<p id=\"stim\">DAUGHTER</p>", "conditions": [18, 1200, "v", 18000], "internal_node_id": "0.0-40.0", "trial": 1, "time_elapsed": 323400, "serialpos": 3, "key_press": -1, "wordID": 441, "type": "PRES_VIS", "trial_index": 58}, "uniqueid": "MTK1955:3JBT3HLQF99466VMUDRMHVOZWD5PZG", "dateTime": 1516636607822}, {"current_trial": 59, "trialdata": {"rt": -1, "trial_type": "single-stim", "word": "sandwich", "stimulus": "<p id=\"stim\">SANDWICH</p>", "conditions": [18, 1200, "v", 18000], "internal_node_id": "0.0-41.0", "trial": 1, "time_elapsed": 325410, "serialpos": 4, "key_press": -1, "wordID": 1231, "type": "PRES_VIS", "trial_index": 59}, "uniqueid": "MTK1955:3JBT3HLQF99466VMUDRMHVOZWD5PZG", "dateTime": 1516636609832}, {"current_trial": 60, "trialdata": {"rt": -1, "trial_type": "single-stim", "word": "icing", "stimulus": "<p id=\"stim\">ICING</p>", "conditions": [18, 1200, "v", 18000], "internal_node_id": "0.0-42.0", "trial": 1, "time_elapsed": 327454, "serialpos": 5, "key_press": -1, "wordID": 731, "type": "PRES_VIS", "trial_index": 60}, "uniqueid": "MTK1955:3JBT3HLQF99466VMUDRMHVOZWD5PZG", "dateTime": 1516636611876}, {"current_trial": 61, "trialdata": {"rt": -1, "trial_type": "single-stim", "word": "cottage", "stimulus": "<p id=\"stim\">COTTAGE</p>", "conditions": [18, 1200, "v", 18000], "internal_node_id": "0.0-43.0", "trial": 1, "time_elapsed": 329635, "serialpos": 6, "key_press": -1, "wordID": 383, "type": "PRES_VIS", "trial_index": 61}, "uniqueid": "MTK1955:3JBT3HLQF99466VMUDRMHVOZWD5PZG", "dateTime": 1516636614057}, {"current_trial": 62, "trialdata": {"rt": -1, "trial_type": "single-stim", "word": "diner", "stimulus": "<p id=\"stim\">DINER</p>", "conditions": [18, 1200, "v", 18000], "internal_node_id": "0.0-44.0", "trial": 1, "time_elapsed": 331892, "serialpos": 7, "key_press": -1, "wordID": 466, "type": "PRES_VIS", "trial_index": 62}, "uniqueid": "MTK1955:3JBT3HLQF99466VMUDRMHVOZWD5PZG", "dateTime": 1516636616314}, {"current_trial": 63, "trialdata": {"rt": -1, "trial_type": "single-stim", "word": "passage", "stimulus": "<p id=\"stim\">PASSAGE</p>", "conditions": [18, 1200, "v", 18000], "internal_node_id": "0.0-45.0", "trial": 1, "time_elapsed": 334144, "serialpos": 8, "key_press": -1, "wordID": 1018, "type": "PRES_VIS", "trial_index": 63}, "uniqueid": "MTK1955:3JBT3HLQF99466VMUDRMHVOZWD5PZG", "dateTime": 1516636618566}, {"current_trial": 64, "trialdata": {"rt": -1, "trial_type": "single-stim", "word": "body", "stimulus": "<p id=\"stim\">BODY</p>", "conditions": [18, 1200, "v", 18000], "internal_node_id": "0.0-46.0", "trial": 1, "time_elapsed": 336460, "serialpos": 9, "key_press": -1, "wordID": 144, "type": "PRES_VIS", "trial_index": 64}, "uniqueid": "MTK1955:3JBT3HLQF99466VMUDRMHVOZWD5PZG", "dateTime": 1516636620882}, {"current_trial": 65, "trialdata": {"rt": -1, "trial_type": "single-stim", "word": "curtain", "stimulus": "<p id=\"stim\">CURTAIN</p>", "conditions": [18, 1200, "v", 18000], "internal_node_id": "0.0-47.0", "trial": 1, "time_elapsed": 338529, "serialpos": 10, "key_press": -1, "wordID": 426, "type": "PRES_VIS", "trial_index": 65}, "uniqueid": "MTK1955:3JBT3HLQF99466VMUDRMHVOZWD5PZG", "dateTime": 1516636622951}, {"current_trial": 66, "trialdata": {"rt": -1, "trial_type": "single-stim", "word": "antler", "stimulus": "<p id=\"stim\">ANTLER</p>", "conditions": [18, 1200, "v", 18000], "internal_node_id": "0.0-48.0", "trial": 1, "time_elapsed": 340681, "serialpos": 11, "key_press": -1, "wordID": 28, "type": "PRES_VIS", "trial_index": 66}, "uniqueid": "MTK1955:3JBT3HLQF99466VMUDRMHVOZWD5PZG", "dateTime": 1516636625103}, {"current_trial": 67, "trialdata": {"rt": -1, "trial_type": "single-stim", "word": "hound", "stimulus": "<p id=\"stim\">HOUND</p>", "conditions": [18, 1200, "v", 18000], "internal_node_id": "0.0-49.0", "trial": 1, "time_elapsed": 342899, "serialpos": 12, "key_press": -1, "wordID": 723, "type": "PRES_VIS", "trial_index": 67}, "uniqueid": "MTK1955:3JBT3HLQF99466VMUDRMHVOZWD5PZG", "dateTime": 1516636627322}, {"current_trial": 68, "trialdata": {"rt": -1, "trial_type": "single-stim", "word": "college", "stimulus": "<p id=\"stim\">COLLEGE</p>", "conditions": [18, 1200, "v", 18000], "internal_node_id": "0.0-50.0", "trial": 1, "time_elapsed": 344960, "serialpos": 13, "key_press": -1, "wordID": 345, "type": "PRES_VIS", "trial_index": 68}, "uniqueid": "MTK1955:3JBT3HLQF99466VMUDRMHVOZWD5PZG", "dateTime": 1516636629382}, {"current_trial": 69, "trialdata": {"rt": -1, "trial_type": "single-stim", "word": "brother", "stimulus": "<p id=\"stim\">BROTHER</p>", "conditions": [18, 1200, "v", 18000], "internal_node_id": "0.0-51.0", "trial": 1, "time_elapsed": 347147, "serialpos": 14, "key_press": -1, "wordID": 178, "type": "PRES_VIS", "trial_index": 69}, "uniqueid": "MTK1955:3JBT3HLQF99466VMUDRMHVOZWD5PZG", "dateTime": 1516636631569}, {"current_trial": 70, "trialdata": {"rt": -1, "trial_type": "single-stim", "word": "garden", "stimulus": "<p id=\"stim\">GARDEN</p>", "conditions": [18, 1200, "v", 18000], "internal_node_id": "0.0-52.0", "trial": 1, "time_elapsed": 349377, "serialpos": 15, "key_press": -1, "wordID": 622, "type": "PRES_VIS", "trial_index": 70}, "uniqueid": "MTK1955:3JBT3HLQF99466VMUDRMHVOZWD5PZG", "dateTime": 1516636633800}, {"current_trial": 71, "trialdata": {"rt": -1, "trial_type": "single-stim", "word": "beast", "stimulus": "<p id=\"stim\">BEAST</p>", "conditions": [18, 1200, "v", 18000], "internal_node_id": "0.0-53.0", "trial": 1, "time_elapsed": 351428, "serialpos": 16, "key_press": -1, "wordID": 107, "type": "PRES_VIS", "trial_index": 71}, "uniqueid": "MTK1955:3JBT3HLQF99466VMUDRMHVOZWD5PZG", "dateTime": 1516636635850}, {"current_trial": 72, "trialdata": {"rt": -1, "trial_type": "single-stim", "word": "church", "stimulus": "<p id=\"stim\">CHURCH</p>", "conditions": [18, 1200, "v", 18000], "internal_node_id": "0.0-54.0", "trial": 1, "time_elapsed": 353700, "serialpos": 17, "key_press": -1, "wordID": 306, "type": "PRES_VIS", "trial_index": 72}, "uniqueid": "MTK1955:3JBT3HLQF99466VMUDRMHVOZWD5PZG", "dateTime": 1516636638122}, {"current_trial": 73, "trialdata": {"rt": -1, "trial_type": "single-stim", "stimulus": "", "internal_node_id": "0.0-55.0-0.0", "time_elapsed": 355962, "key_press": -1, "type": "PRE_RECALL_DELAY", "trial_index": 73}, "uniqueid": "MTK1955:3JBT3HLQF99466VMUDRMHVOZWD5PZG", "dateTime": 1516636640384}, {"current_trial": 74, "trialdata": {"rt": -1000, "trial_type": "single-audio", "stimulus": "/static/audio/400Hz.wav", "internal_node_id": "0.0-56.0", "time_elapsed": 356625, "key_press": -1, "type": "PRE_RECALL_ALERT", "trial_index": 74}, "uniqueid": "MTK1955:3JBT3HLQF99466VMUDRMHVOZWD5PZG", "dateTime": 1516636641047}, {"current_trial": 75, "trialdata": {"rt": [5679, 8579, 14095, 17657, 20418, 24171, 27198, 30557, 37229, 41928, 52952], "recwords": ["kitchen", "outlaw", "costume", "beast", "diner", "church", "antler", "college", "diner", "cottage", "antler"], "key_times": [4294, 4432, 4715, 4873, 5006, 5159, 5273, 5679, 6801, 7017, 7273, 7575, 7745, 8056, 8579, 9974, 10120, 10286, 10403, 11080, 11489, 12345, 12864, 13232, 13382, 13511, 14095, 16128, 16228, 16455, 16666, 16832, 17657, 19427, 19760, 19763, 19876, 20116, 20418, 20849, 21009, 21170, 21421, 21792, 22068, 24171, 24767, 24815, 25021, 25337, 25536, 25750, 27198, 27855, 28016, 28189, 28315, 28483, 28651, 28831, 30557, 36142, 36302, 36490, 36653, 36811, 37229, 40416, 40545, 40809, 40948, 41091, 41222, 41370, 41928, 49344, 49472, 49733, 50043, 50190, 50388, 51623, 52149, 52952], "trial_type": "free-recall", "conditions": [18, 1200, "v", 18000], "internal_node_id": "0.0-57.0-0.0", "key_presses": [75, 73, 84, 67, 72, 69, 78, 13, 79, 85, 84, 76, 65, 87, 13, 67, 79, 83, 89, 8, 84, 73, 8, 85, 77, 69, 13, 66, 69, 65, 83, 84, 13, 68, 73, 78, 69, 82, 13, 67, 72, 85, 82, 67, 72, 13, 65, 78, 84, 76, 69, 82, 13, 67, 79, 76, 76, 69, 71, 69, 13, 68, 73, 78, 69, 82, 13, 67, 79, 84, 84, 65, 71, 69, 13, 65, 78, 84, 76, 69, 84, 8, 82, 13], "trial": 1, "time_elapsed": 416628, "type": "FREE_RECALL", "trial_index": 75}, "uniqueid": "MTK1955:3JBT3HLQF99466VMUDRMHVOZWD5PZG", "dateTime": 1516636701052}, {"current_trial": 76, "trialdata": {"rt": 2948, "trial_type": "text", "internal_node_id": "0.0-58.0", "time_elapsed": 421580, "key_press": 32, "type": "INSTRUCTIONS", "trial_index": 76}, "uniqueid": "MTK1955:3JBT3HLQF99466VMUDRMHVOZWD5PZG", "dateTime": 1516636706002}, {"current_trial": 77, "trialdata": {"rt": [3787, 5704, 7723, 9574, 11538], "trial_type": "math-distractor", "key_times": [3171, 3367, 3787, 5327, 5469, 5704, 7342, 7497, 7723, 9185, 9336, 9574, 11144, 11295, 11538], "responses": ["19", "12", "10", "15", "15"], "num2": [9, 1, 4, 5, 7, 5], "num3": [6, 4, 1, 3, 6, 7], "conditions": [24, 800, "v", 12000], "internal_node_id": "0.0-59.0", "key_presses": [97, 105, 13, 97, 98, 13, 97, 96, 13, 97, 101, 13, 97, 101, 13], "trial": 2, "time_elapsed": 434584, "type": "DISTRACTOR", "trial_index": 77, "num1": [4, 7, 5, 7, 2, 6]}, "uniqueid": "MTK1955:3JBT3HLQF99466VMUDRMHVOZWD5PZG", "dateTime": 1516636719007}, {"current_trial": 78, "trialdata": {"rt": -1, "trial_type": "single-stim", "stimulus": "<p id=\"stim\">10</p>", "internal_node_id": "0.0-60.0-0.0", "time_elapsed": 437738, "key_press": -1, "trial_index": 78}, "uniqueid": "MTK1955:3JBT3HLQF99466VMUDRMHVOZWD5PZG", "dateTime": 1516636722161}, {"current_trial": 79, "trialdata": {"rt": -1, "trial_type": "single-stim", "stimulus": "<p id=\"stim\">9</p>", "internal_node_id": "0.0-60.0-1.0", "time_elapsed": 438742, "key_press": -1, "trial_index": 79}, "uniqueid": "MTK1955:3JBT3HLQF99466VMUDRMHVOZWD5PZG", "dateTime": 1516636723164}, {"current_trial": 80, "trialdata": {"rt": -1, "trial_type": "single-stim", "stimulus": "<p id=\"stim\">8</p>", "internal_node_id": "0.0-60.0-2.0", "time_elapsed": 439744, "key_press": -1, "trial_index": 80}, "uniqueid": "MTK1955:3JBT3HLQF99466VMUDRMHVOZWD5PZG", "dateTime": 1516636724166}, {"current_trial": 81, "trialdata": {"rt": -1, "trial_type": "single-stim", "stimulus": "<p id=\"stim\">7</p>", "internal_node_id": "0.0-60.0-3.0", "time_elapsed": 440746, "key_press": -1, "trial_index": 81}, "uniqueid": "MTK1955:3JBT3HLQF99466VMUDRMHVOZWD5PZG", "dateTime": 1516636725168}, {"current_trial": 82, "trialdata": {"rt": -1, "trial_type": "single-stim", "stimulus": "<p id=\"stim\">6</p>", "internal_node_id": "0.0-60.0-4.0", "time_elapsed": 441749, "key_press": -1, "trial_index": 82}, "uniqueid": "MTK1955:3JBT3HLQF99466VMUDRMHVOZWD5PZG", "dateTime": 1516636726171}, {"current_trial": 83, "trialdata": {"rt": -1, "trial_type": "single-stim", "stimulus": "<p id=\"stim\">5</p>", "internal_node_id": "0.0-60.0-5.0", "time_elapsed": 442752, "key_press": -1, "trial_index": 83}, "uniqueid": "MTK1955:3JBT3HLQF99466VMUDRMHVOZWD5PZG", "dateTime": 1516636727174}, {"current_trial": 84, "trialdata": {"rt": -1, "trial_type": "single-stim", "stimulus": "<p id=\"stim\">4</p>", "internal_node_id": "0.0-60.0-6.0", "time_elapsed": 443753, "key_press": -1, "trial_index": 84}, "uniqueid": "MTK1955:3JBT3HLQF99466VMUDRMHVOZWD5PZG", "dateTime": 1516636728175}, {"current_trial": 85, "trialdata": {"rt": -1, "trial_type": "single-stim", "stimulus": "<p id=\"stim\">3</p>", "internal_node_id": "0.0-60.0-7.0", "time_elapsed": 444755, "key_press": -1, "trial_index": 85}, "uniqueid": "MTK1955:3JBT3HLQF99466VMUDRMHVOZWD5PZG", "dateTime": 1516636729177}, {"current_trial": 86, "trialdata": {"rt": -1, "trial_type": "single-stim", "stimulus": "<p id=\"stim\">2</p>", "internal_node_id": "0.0-60.0-8.0", "time_elapsed": 445756, "key_press": -1, "trial_index": 86}, "uniqueid": "MTK1955:3JBT3HLQF99466VMUDRMHVOZWD5PZG", "dateTime": 1516636730178}, {"current_trial": 87, "trialdata": {"rt": -1, "trial_type": "single-stim", "stimulus": "<p id=\"stim\">1</p>", "internal_node_id": "0.0-60.0-9.0", "time_elapsed": 446757, "key_press": -1, "trial_index": 87}, "uniqueid": "MTK1955:3JBT3HLQF99466VMUDRMHVOZWD5PZG", "dateTime": 1516636731179}, {"current_trial": 88, "trialdata": {"rt": -1, "trial_type": "single-stim", "stimulus": "<p id=\"stim\">+</p>", "internal_node_id": "0.0-61.0-0.0", "time_elapsed": 448259, "key_press": -1, "type": "FIXATION", "trial_index": 88}, "uniqueid": "MTK1955:3JBT3HLQF99466VMUDRMHVOZWD5PZG", "dateTime": 1516636732681}, {"current_trial": 89, "trialdata": {"rt": -1, "trial_type": "single-stim", "word": "salad", "stimulus": "<p id=\"stim\">SALAD</p>", "conditions": [24, 800, "v", 12000], "internal_node_id": "0.0-62.0", "trial": 2, "time_elapsed": 449062, "serialpos": 0, "key_press": -1, "wordID": 1223, "type": "PRES_VIS", "trial_index": 89}, "uniqueid": "MTK1955:3JBT3HLQF99466VMUDRMHVOZWD5PZG", "dateTime": 1516636733484}, {"current_trial": 90, "trialdata": {"rt": -1, "trial_type": "single-stim", "word": "custard", "stimulus": "<p id=\"stim\">CUSTARD</p>", "conditions": [24, 800, "v", 12000], "internal_node_id": "0.0-63.0", "trial": 2, "time_elapsed": 450971, "serialpos": 1, "key_press": -1, "wordID": 428, "type": "PRES_VIS", "trial_index": 90}, "uniqueid": "MTK1955:3JBT3HLQF99466VMUDRMHVOZWD5PZG", "dateTime": 1516636735393}, {"current_trial": 91, "trialdata": {"rt": -1, "trial_type": "single-stim", "word": "typist", "stimulus": "<p id=\"stim\">TYPIST</p>", "conditions": [24, 800, "v", 12000], "internal_node_id": "0.0-64.0", "trial": 2, "time_elapsed": 452902, "serialpos": 2, "key_press": -1, "wordID": 1531, "type": "PRES_VIS", "trial_index": 91}, "uniqueid": "MTK1955:3JBT3HLQF99466VMUDRMHVOZWD5PZG", "dateTime": 1516636737324}, {"current_trial": 92, "trialdata": {"rt": -1, "trial_type": "single-stim", "word": "cross", "stimulus": "<p id=\"stim\">CROSS</p>", "conditions": [24, 800, "v", 12000], "internal_node_id": "0.0-65.0", "trial": 2, "time_elapsed": 454599, "serialpos": 3, "key_press": -1, "wordID": 412, "type": "PRES_VIS", "trial_index": 92}, "uniqueid": "MTK1955:3JBT3HLQF99466VMUDRMHVOZWD5PZG", "dateTime": 1516636739021}, {"current_trial": 93, "trialdata": {"rt": -1, "trial_type": "single-stim", "word": "fleet", "stimulus": "<p id=\"stim\">FLEET</p>", "conditions": [24, 800, "v", 12000], "internal_node_id": "0.0-66.0", "trial": 2, "time_elapsed": 456362, "serialpos": 4, "key_press": -1, "wordID": 577, "type": "PRES_VIS", "trial_index": 93}, "uniqueid": "MTK1955:3JBT3HLQF99466VMUDRMHVOZWD5PZG", "dateTime": 1516636740784}, {"current_trial": 94, "trialdata": {"rt": -1, "trial_type": "single-stim", "word": "puddle", "stimulus": "<p id=\"stim\">PUDDLE</p>", "conditions": [24, 800, "v", 12000], "internal_node_id": "0.0-67.0", "trial": 2, "time_elapsed": 458197, "serialpos": 5, "key_press": -1, "wordID": 1139, "type": "PRES_VIS", "trial_index": 94}, "uniqueid": "MTK1955:3JBT3HLQF99466VMUDRMHVOZWD5PZG", "dateTime": 1516636742619}, {"current_trial": 95, "trialdata": {"rt": -1, "trial_type": "single-stim", "word": "flower", "stimulus": "<p id=\"stim\">FLOWER</p>", "conditions": [24, 800, "v", 12000], "internal_node_id": "0.0-68.0", "trial": 2, "time_elapsed": 460014, "serialpos": 6, "key_press": -1, "wordID": 583, "type": "PRES_VIS", "trial_index": 95}, "uniqueid": "MTK1955:3JBT3HLQF99466VMUDRMHVOZWD5PZG", "dateTime": 1516636744436}, {"current_trial": 96, "trialdata": {"rt": -1, "trial_type": "single-stim", "word": "fruit", "stimulus": "<p id=\"stim\">FRUIT</p>", "conditions": [24, 800, "v", 12000], "internal_node_id": "0.0-69.0", "trial": 2, "time_elapsed": 461782, "serialpos": 7, "key_press": -1, "wordID": 609, "type": "PRES_VIS", "trial_index": 96}, "uniqueid": "MTK1955:3JBT3HLQF99466VMUDRMHVOZWD5PZG", "dateTime": 1516636746205}, {"current_trial": 97, "trialdata": {"rt": -1, "trial_type": "single-stim", "word": "lizard", "stimulus": "<p id=\"stim\">LIZARD</p>", "conditions": [24, 800, "v", 12000], "internal_node_id": "0.0-70.0", "trial": 2, "time_elapsed": 463556, "serialpos": 8, "key_press": -1, "wordID": 833, "type": "PRES_VIS", "trial_index": 97}, "uniqueid": "MTK1955:3JBT3HLQF99466VMUDRMHVOZWD5PZG", "dateTime": 1516636747979}, {"current_trial": 98, "trialdata": {"rt": -1, "trial_type": "single-stim", "word": "pasta", "stimulus": "<p id=\"stim\">PASTA</p>", "conditions": [24, 800, "v", 12000], "internal_node_id": "0.0-71.0", "trial": 2, "time_elapsed": 465500, "serialpos": 9, "key_press": -1, "wordID": 1020, "type": "PRES_VIS", "trial_index": 98}, "uniqueid": "MTK1955:3JBT3HLQF99466VMUDRMHVOZWD5PZG", "dateTime": 1516636749922}, {"current_trial": 99, "trialdata": {"rt": -1, "trial_type": "single-stim", "word": "washer", "stimulus": "<p id=\"stim\">WASHER</p>", "conditions": [24, 800, "v", 12000], "internal_node_id": "0.0-72.0", "trial": 2, "time_elapsed": 467336, "serialpos": 10, "key_press": -1, "wordID": 1591, "type": "PRES_VIS", "trial_index": 99}, "uniqueid": "MTK1955:3JBT3HLQF99466VMUDRMHVOZWD5PZG", "dateTime": 1516636751759}, {"current_trial": 100, "trialdata": {"rt": -1, "trial_type": "single-stim", "word": "playground", "stimulus": "<p id=\"stim\">PLAYGROUND</p>", "conditions": [24, 800, "v", 12000], "internal_node_id": "0.0-73.0", "trial": 2, "time_elapsed": 469018, "serialpos": 11, "key_press": -1, "wordID": 1086, "type": "PRES_VIS", "trial_index": 100}, "uniqueid": "MTK1955:3JBT3HLQF99466VMUDRMHVOZWD5PZG", "dateTime": 1516636753440}, {"current_trial": 101, "trialdata": {"rt": -1, "trial_type": "single-stim", "word": "nightgown", "stimulus": "<p id=\"stim\">NIGHTGOWN</p>", "conditions": [24, 800, "v", 12000], "internal_node_id": "0.0-74.0", "trial": 2, "time_elapsed": 470929, "serialpos": 12, "key_press": -1, "wordID": 952, "type": "PRES_VIS", "trial_index": 101}, "uniqueid": "MTK1955:3JBT3HLQF99466VMUDRMHVOZWD5PZG", "dateTime": 1516636755351}, {"current_trial": 102, "trialdata": {"rt": -1, "trial_type": "single-stim", "word": "queen", "stimulus": "<p id=\"stim\">QUEEN</p>", "conditions": [24, 800, "v", 12000], "internal_node_id": "0.0-75.0", "trial": 2, "time_elapsed": 472765, "serialpos": 13, "key_press": -1, "wordID": 1148, "type": "PRES_VIS", "trial_index": 102}, "uniqueid": "MTK1955:3JBT3HLQF99466VMUDRMHVOZWD5PZG", "dateTime": 1516636757187}, {"current_trial": 103, "trialdata": {"rt": -1, "trial_type": "single-stim", "word": "gavel", "stimulus": "<p id=\"stim\">GAVEL</p>", "conditions": [24, 800, "v", 12000], "internal_node_id": "0.0-76.0", "trial": 2, "time_elapsed": 474554, "serialpos": 14, "key_press": -1, "wordID": 626, "type": "PRES_VIS", "trial_index": 103}, "uniqueid": "MTK1955:3JBT3HLQF99466VMUDRMHVOZWD5PZG", "dateTime": 1516636758976}, {"current_trial": 104, "trialdata": {"rt": -1, "trial_type": "single-stim", "word": "seal", "stimulus": "<p id=\"stim\">SEAL</p>", "conditions": [24, 800, "v", 12000], "internal_node_id": "0.0-77.0", "trial": 2, "time_elapsed": 476404, "serialpos": 15, "key_press": -1, "wordID": 1261, "type": "PRES_VIS", "trial_index": 104}, "uniqueid": "MTK1955:3JBT3HLQF99466VMUDRMHVOZWD5PZG", "dateTime": 1516636760826}, {"current_trial": 105, "trialdata": {"rt": -1, "trial_type": "single-stim", "word": "cookbook", "stimulus": "<p id=\"stim\">COOKBOOK</p>", "conditions": [24, 800, "v", 12000], "internal_node_id": "0.0-78.0", "trial": 2, "time_elapsed": 478096, "serialpos": 16, "key_press": -1, "wordID": 372, "type": "PRES_VIS", "trial_index": 105}, "uniqueid": "MTK1955:3JBT3HLQF99466VMUDRMHVOZWD5PZG", "dateTime": 1516636762518}, {"current_trial": 106, "trialdata": {"rt": -1, "trial_type": "single-stim", "word": "crayon", "stimulus": "<p id=\"stim\">CRAYON</p>", "conditions": [24, 800, "v", 12000], "internal_node_id": "0.0-79.0", "trial": 2, "time_elapsed": 479997, "serialpos": 17, "key_press": -1, "wordID": 400, "type": "PRES_VIS", "trial_index": 106}, "uniqueid": "MTK1955:3JBT3HLQF99466VMUDRMHVOZWD5PZG", "dateTime": 1516636764420}, {"current_trial": 107, "trialdata": {"rt": -1, "trial_type": "single-stim", "word": "dolphin", "stimulus": "<p id=\"stim\">DOLPHIN</p>", "conditions": [24, 800, "v", 12000], "internal_node_id": "0.0-80.0", "trial": 2, "time_elapsed": 481841, "serialpos": 18, "key_press": -1, "wordID": 482, "type": "PRES_VIS", "trial_index": 107}, "uniqueid": "MTK1955:3JBT3HLQF99466VMUDRMHVOZWD5PZG", "dateTime": 1516636766263}, {"current_trial": 108, "trialdata": {"rt": -1, "trial_type": "single-stim", "word": "kidney", "stimulus": "<p id=\"stim\">KIDNEY</p>", "conditions": [24, 800, "v", 12000], "internal_node_id": "0.0-81.0", "trial": 2, "time_elapsed": 483621, "serialpos": 19, "key_press": -1, "wordID": 775, "type": "PRES_VIS", "trial_index": 108}, "uniqueid": "MTK1955:3JBT3HLQF99466VMUDRMHVOZWD5PZG", "dateTime": 1516636768043}, {"current_trial": 109, "trialdata": {"rt": -1, "trial_type": "single-stim", "word": "liver", "stimulus": "<p id=\"stim\">LIVER</p>", "conditions": [24, 800, "v", 12000], "internal_node_id": "0.0-82.0", "trial": 2, "time_elapsed": 485503, "serialpos": 20, "key_press": -1, "wordID": 832, "type": "PRES_VIS", "trial_index": 109}, "uniqueid": "MTK1955:3JBT3HLQF99466VMUDRMHVOZWD5PZG", "dateTime": 1516636769925}, {"current_trial": 110, "trialdata": {"rt": -1, "trial_type": "single-stim", "word": "princess", "stimulus": "<p id=\"stim\">PRINCESS</p>", "conditions": [24, 800, "v", 12000], "internal_node_id": "0.0-83.0", "trial": 2, "time_elapsed": 487377, "serialpos": 21, "key_press": -1, "wordID": 1124, "type": "PRES_VIS", "trial_index": 110}, "uniqueid": "MTK1955:3JBT3HLQF99466VMUDRMHVOZWD5PZG", "dateTime": 1516636771799}, {"current_trial": 111, "trialdata": {"rt": -1, "trial_type": "single-stim", "word": "jungle", "stimulus": "<p id=\"stim\">JUNGLE</p>", "conditions": [24, 800, "v", 12000], "internal_node_id": "0.0-84.0", "trial": 2, "time_elapsed": 489168, "serialpos": 22, "key_press": -1, "wordID": 763, "type": "PRES_VIS", "trial_index": 111}, "uniqueid": "MTK1955:3JBT3HLQF99466VMUDRMHVOZWD5PZG", "dateTime": 1516636773590}, {"current_trial": 112, "trialdata": {"rt": -1, "trial_type": "single-stim", "word": "space", "stimulus": "<p id=\"stim\">SPACE</p>", "conditions": [24, 800, "v", 12000], "internal_node_id": "0.0-85.0", "trial": 2, "time_elapsed": 490800, "serialpos": 23, "key_press": -1, "wordID": 1344, "type": "PRES_VIS", "trial_index": 112}, "uniqueid": "MTK1955:3JBT3HLQF99466VMUDRMHVOZWD5PZG", "dateTime": 1516636775223}, {"current_trial": 113, "trialdata": {"rt": -1, "trial_type": "single-stim", "stimulus": "", "internal_node_id": "0.0-86.0-0.0", "time_elapsed": 493363, "key_press": -1, "type": "PRE_RECALL_DELAY", "trial_index": 113}, "uniqueid": "MTK1955:3JBT3HLQF99466VMUDRMHVOZWD5PZG", "dateTime": 1516636777785}, {"current_trial": 114, "trialdata": {"rt": -1000, "trial_type": "single-audio", "stimulus": "/static/audio/400Hz.wav", "internal_node_id": "0.0-87.0", "time_elapsed": 493865, "key_press": -1, "type": "PRE_RECALL_ALERT", "trial_index": 114}, "uniqueid": "MTK1955:3JBT3HLQF99466VMUDRMHVOZWD5PZG", "dateTime": 1516636778287}, {"current_trial": 115, "trialdata": {"rt": [3732, 6700, 8113, 9728, 11807, 20859, 22493, 25703, 29107, 31054, 35913, 38482, 42246], "recwords": ["space", "fruit", "pasta", "salad", "custard", "playground", "fruit", "seal", "dolphin", "space", "puddle", "typist", "custard"], "key_times": [1663, 1849, 1984, 2224, 2377, 3732, 5401, 5632, 5944, 6078, 6313, 6700, 7102, 7247, 7578, 7588, 7752, 8113, 8568, 8769, 8884, 9057, 9298, 9728, 10509, 10647, 10792, 10939, 11093, 11243, 11422, 11807, 18336, 18470, 18651, 18777, 18951, 19128, 19645, 19906, 20097, 20287, 20859, 21292, 21473, 21652, 21790, 22034, 22493, 24788, 24952, 25228, 25384, 25703, 26514, 26647, 26806, 26980, 27237, 27429, 27776, 29107, 29444, 29587, 29917, 30224, 30485, 31054, 33099, 33377, 33607, 33760, 33918, 34064, 35913, 36642, 36802, 37294, 37540, 37774, 37920, 38482, 39603, 39738, 40089, 40246, 40381, 40824, 41203, 42246], "trial_type": "free-recall", "conditions": [24, 800, "v", 12000], "internal_node_id": "0.0-88.0-0.0", "key_presses": [83, 80, 65, 67, 69, 13, 70, 82, 85, 73, 84, 13, 80, 65, 83, 84, 65, 13, 83, 65, 76, 65, 68, 13, 67, 85, 83, 84, 65, 82, 68, 13, 80, 76, 65, 89, 71, 82, 79, 85, 78, 68, 13, 70, 82, 85, 73, 84, 13, 83, 69, 65, 76, 13, 68, 79, 76, 80, 72, 73, 78, 13, 83, 80, 65, 67, 69, 13, 80, 85, 68, 68, 76, 69, 13, 84, 89, 80, 73, 83, 84, 13, 67, 85, 83, 84, 65, 82, 68, 13], "trial": 2, "time_elapsed": 553869, "type": "FREE_RECALL", "trial_index": 115}, "uniqueid": "MTK1955:3JBT3HLQF99466VMUDRMHVOZWD5PZG", "dateTime": 1516636838295}, {"current_trial": 116, "trialdata": {"rt": 1642, "trial_type": "text", "internal_node_id": "0.0-89.0", "time_elapsed": 557517, "key_press": 32, "type": "INSTRUCTIONS", "trial_index": 116}, "uniqueid": "MTK1955:3JBT3HLQF99466VMUDRMHVOZWD5PZG", "dateTime": 1516636841939}, {"current_trial": 117, "trialdata": {"rt": [2098, 4258, 5930, 7957, 9655, 11619, 13465, 15414, 17945, 19774, 21575], "trial_type": "math-distractor", "key_times": [1476, 1609, 2098, 3852, 4020, 4258, 5558, 5722, 5930, 7559, 7715, 7957, 9283, 9449, 9655, 11095, 11274, 11619, 13090, 13214, 13465, 14998, 15169, 15414, 17558, 17721, 17945, 19495, 19774, 21193, 21575, 23592], "responses": ["15", "13", "13", "16", "16", "19", "20", "19", "16", "9", "9"], "num2": [4, 4, 2, 7, 5, 3, 7, 6, 9, 4, 2, 8], "num3": [5, 7, 7, 7, 4, 8, 7, 9, 1, 3, 5, 3], "conditions": [12, 800, "v", 24000], "internal_node_id": "0.0-90.0", "key_presses": [97, 101, 13, 97, 99, 13, 97, 99, 13, 97, 102, 13, 97, 102, 13, 97, 105, 13, 98, 96, 13, 97, 105, 13, 97, 102, 13, 105, 13, 105, 13, 97], "trial": 3, "time_elapsed": 583529, "type": "DISTRACTOR", "trial_index": 117, "num1": [6, 2, 4, 2, 7, 8, 6, 4, 6, 2, 2, 8]}, "uniqueid": "MTK1955:3JBT3HLQF99466VMUDRMHVOZWD5PZG", "dateTime": 1516636867951}, {"current_trial": 118, "trialdata": {"rt": -1, "trial_type": "single-stim", "stimulus": "<p id=\"stim\">10</p>", "internal_node_id": "0.0-91.0-0.0", "time_elapsed": 586532, "key_press": -1, "trial_index": 118}, "uniqueid": "MTK1955:3JBT3HLQF99466VMUDRMHVOZWD5PZG", "dateTime": 1516636870954}, {"current_trial": 119, "trialdata": {"rt": -1, "trial_type": "single-stim", "stimulus": "<p id=\"stim\">9</p>", "internal_node_id": "0.0-91.0-1.0", "time_elapsed": 587534, "key_press": -1, "trial_index": 119}, "uniqueid": "MTK1955:3JBT3HLQF99466VMUDRMHVOZWD5PZG", "dateTime": 1516636871956}, {"current_trial": 120, "trialdata": {"rt": -1, "trial_type": "single-stim", "stimulus": "<p id=\"stim\">8</p>", "internal_node_id": "0.0-91.0-2.0", "time_elapsed": 588535, "key_press": -1, "trial_index": 120}, "uniqueid": "MTK1955:3JBT3HLQF99466VMUDRMHVOZWD5PZG", "dateTime": 1516636872957}, {"current_trial": 121, "trialdata": {"rt": -1, "trial_type": "single-stim", "stimulus": "<p id=\"stim\">7</p>", "internal_node_id": "0.0-91.0-3.0", "time_elapsed": 589538, "key_press": -1, "trial_index": 121}, "uniqueid": "MTK1955:3JBT3HLQF99466VMUDRMHVOZWD5PZG", "dateTime": 1516636873961}, {"current_trial": 122, "trialdata": {"rt": -1, "trial_type": "single-stim", "stimulus": "<p id=\"stim\">6</p>", "internal_node_id": "0.0-91.0-4.0", "time_elapsed": 590540, "key_press": -1, "trial_index": 122}, "uniqueid": "MTK1955:3JBT3HLQF99466VMUDRMHVOZWD5PZG", "dateTime": 1516636874962}, {"current_trial": 123, "trialdata": {"rt": -1, "trial_type": "single-stim", "stimulus": "<p id=\"stim\">5</p>", "internal_node_id": "0.0-91.0-5.0", "time_elapsed": 591543, "key_press": -1, "trial_index": 123}, "uniqueid": "MTK1955:3JBT3HLQF99466VMUDRMHVOZWD5PZG", "dateTime": 1516636875965}, {"current_trial": 124, "trialdata": {"rt": -1, "trial_type": "single-stim", "stimulus": "<p id=\"stim\">4</p>", "internal_node_id": "0.0-91.0-6.0", "time_elapsed": 592545, "key_press": -1, "trial_index": 124}, "uniqueid": "MTK1955:3JBT3HLQF99466VMUDRMHVOZWD5PZG", "dateTime": 1516636876967}, {"current_trial": 125, "trialdata": {"rt": -1, "trial_type": "single-stim", "stimulus": "<p id=\"stim\">3</p>", "internal_node_id": "0.0-91.0-7.0", "time_elapsed": 593546, "key_press": -1, "trial_index": 125}, "uniqueid": "MTK1955:3JBT3HLQF99466VMUDRMHVOZWD5PZG", "dateTime": 1516636877968}, {"current_trial": 126, "trialdata": {"rt": -1, "trial_type": "single-stim", "stimulus": "<p id=\"stim\">2</p>", "internal_node_id": "0.0-91.0-8.0", "time_elapsed": 594548, "key_press": -1, "trial_index": 126}, "uniqueid": "MTK1955:3JBT3HLQF99466VMUDRMHVOZWD5PZG", "dateTime": 1516636878971}, {"current_trial": 127, "trialdata": {"rt": -1, "trial_type": "single-stim", "stimulus": "<p id=\"stim\">1</p>", "internal_node_id": "0.0-91.0-9.0", "time_elapsed": 595550, "key_press": -1, "trial_index": 127}, "uniqueid": "MTK1955:3JBT3HLQF99466VMUDRMHVOZWD5PZG", "dateTime": 1516636879973}, {"current_trial": 128, "trialdata": {"rt": -1, "trial_type": "single-stim", "stimulus": "<p id=\"stim\">+</p>", "internal_node_id": "0.0-92.0-0.0", "time_elapsed": 597054, "key_press": -1, "type": "FIXATION", "trial_index": 128}, "uniqueid": "MTK1955:3JBT3HLQF99466VMUDRMHVOZWD5PZG", "dateTime": 1516636881476}, {"current_trial": 129, "trialdata": {"rt": -1, "trial_type": "single-stim", "word": "robber", "stimulus": "<p id=\"stim\">ROBBER</p>", "conditions": [12, 800, "v", 24000], "internal_node_id": "0.0-93.0", "trial": 3, "time_elapsed": 597856, "serialpos": 0, "key_press": -1, "wordID": 1196, "type": "PRES_VIS", "trial_index": 129}, "uniqueid": "MTK1955:3JBT3HLQF99466VMUDRMHVOZWD5PZG", "dateTime": 1516636882278}, {"current_trial": 130, "trialdata": {"rt": -1, "trial_type": "single-stim", "word": "banjo", "stimulus": "<p id=\"stim\">BANJO</p>", "conditions": [12, 800, "v", 24000], "internal_node_id": "0.0-94.0", "trial": 3, "time_elapsed": 599821, "serialpos": 1, "key_press": -1, "wordID": 81, "type": "PRES_VIS", "trial_index": 130}, "uniqueid": "MTK1955:3JBT3HLQF99466VMUDRMHVOZWD5PZG", "dateTime": 1516636884243}, {"current_trial": 131, "trialdata": {"rt": -1, "trial_type": "single-stim", "word": "dashboard", "stimulus": "<p id=\"stim\">DASHBOARD</p>", "conditions": [12, 800, "v", 24000], "internal_node_id": "0.0-95.0", "trial": 3, "time_elapsed": 601632, "serialpos": 2, "key_press": -1, "wordID": 440, "type": "PRES_VIS", "trial_index": 131}, "uniqueid": "MTK1955:3JBT3HLQF99466VMUDRMHVOZWD5PZG", "dateTime": 1516636886054}, {"current_trial": 132, "trialdata": {"rt": -1, "trial_type": "single-stim", "word": "captive", "stimulus": "<p id=\"stim\">CAPTIVE</p>", "conditions": [12, 800, "v", 24000], "internal_node_id": "0.0-96.0", "trial": 3, "time_elapsed": 603396, "serialpos": 3, "key_press": -1, "wordID": 239, "type": "PRES_VIS", "trial_index": 132}, "uniqueid": "MTK1955:3JBT3HLQF99466VMUDRMHVOZWD5PZG", "dateTime": 1516636887818}, {"current_trial": 133, "trialdata": {"rt": -1, "trial_type": "single-stim", "word": "smog", "stimulus": "<p id=\"stim\">SMOG</p>", "conditions": [12, 800, "v", 24000], "internal_node_id": "0.0-97.0", "trial": 3, "time_elapsed": 605011, "serialpos": 4, "key_press": -1, "wordID": 1329, "type": "PRES_VIS", "trial_index": 133}, "uniqueid": "MTK1955:3JBT3HLQF99466VMUDRMHVOZWD5PZG", "dateTime": 1516636889437}, {"current_trial": 134, "trialdata": {"rt": -1, "trial_type": "single-stim", "word": "tuba", "stimulus": "<p id=\"stim\">TUBA</p>", "conditions": [12, 800, "v", 24000], "internal_node_id": "0.0-98.0", "trial": 3, "time_elapsed": 606826, "serialpos": 5, "key_press": -1, "wordID": 1514, "type": "PRES_VIS", "trial_index": 134}, "uniqueid": "MTK1955:3JBT3HLQF99466VMUDRMHVOZWD5PZG", "dateTime": 1516636891248}, {"current_trial": 135, "trialdata": {"rt": -1, "trial_type": "single-stim", "word": "frame", "stimulus": "<p id=\"stim\">FRAME</p>", "conditions": [12, 800, "v", 24000], "internal_node_id": "0.0-99.0", "trial": 3, "time_elapsed": 608430, "serialpos": 6, "key_press": -1, "wordID": 599, "type": "PRES_VIS", "trial_index": 135}, "uniqueid": "MTK1955:3JBT3HLQF99466VMUDRMHVOZWD5PZG", "dateTime": 1516636892852}, {"current_trial": 136, "trialdata": {"rt": -1, "trial_type": "single-stim", "word": "handbag", "stimulus": "<p id=\"stim\">HANDBAG</p>", "conditions": [12, 800, "v", 24000], "internal_node_id": "0.0-100.0", "trial": 3, "time_elapsed": 610208, "serialpos": 7, "key_press": -1, "wordID": 683, "type": "PRES_VIS", "trial_index": 136}, "uniqueid": "MTK1955:3JBT3HLQF99466VMUDRMHVOZWD5PZG", "dateTime": 1516636894630}, {"current_trial": 137, "trialdata": {"rt": -1, "trial_type": "single-stim", "word": "chauffeur", "stimulus": "<p id=\"stim\">CHAUFFEUR</p>", "conditions": [12, 800, "v", 24000], "internal_node_id": "0.0-101.0", "trial": 3, "time_elapsed": 611924, "serialpos": 8, "key_press": -1, "wordID": 282, "type": "PRES_VIS", "trial_index": 137}, "uniqueid": "MTK1955:3JBT3HLQF99466VMUDRMHVOZWD5PZG", "dateTime": 1516636896346}, {"current_trial": 138, "trialdata": {"rt": -1, "trial_type": "single-stim", "word": "trombone", "stimulus": "<p id=\"stim\">TROMBONE</p>", "conditions": [12, 800, "v", 24000], "internal_node_id": "0.0-102.0", "trial": 3, "time_elapsed": 613841, "serialpos": 9, "key_press": -1, "wordID": 1507, "type": "PRES_VIS", "trial_index": 138}, "uniqueid": "MTK1955:3JBT3HLQF99466VMUDRMHVOZWD5PZG", "dateTime": 1516636898263}, {"current_trial": 139, "trialdata": {"rt": -1, "trial_type": "single-stim", "word": "harp", "stimulus": "<p id=\"stim\">HARP</p>", "conditions": [12, 800, "v", 24000], "internal_node_id": "0.0-103.0", "trial": 3, "time_elapsed": 615622, "serialpos": 10, "key_press": -1, "wordID": 688, "type": "PRES_VIS", "trial_index": 139}, "uniqueid": "MTK1955:3JBT3HLQF99466VMUDRMHVOZWD5PZG", "dateTime": 1516636900044}, {"current_trial": 140, "trialdata": {"rt": -1, "trial_type": "single-stim", "word": "lake", "stimulus": "<p id=\"stim\">LAKE</p>", "conditions": [12, 800, "v", 24000], "internal_node_id": "0.0-104.0", "trial": 3, "time_elapsed": 617592, "serialpos": 11, "key_press": -1, "wordID": 795, "type": "PRES_VIS", "trial_index": 140}, "uniqueid": "MTK1955:3JBT3HLQF99466VMUDRMHVOZWD5PZG", "dateTime": 1516636902014}, {"current_trial": 141, "trialdata": {"rt": -1, "trial_type": "single-stim", "stimulus": "", "internal_node_id": "0.0-105.0-0.0", "time_elapsed": 619911, "key_press": -1, "type": "PRE_RECALL_DELAY", "trial_index": 141}, "uniqueid": "MTK1955:3JBT3HLQF99466VMUDRMHVOZWD5PZG", "dateTime": 1516636904333}, {"current_trial": 142, "trialdata": {"rt": -1000, "trial_type": "single-audio", "stimulus": "/static/audio/400Hz.wav", "internal_node_id": "0.0-106.0", "time_elapsed": 620537, "key_press": -1, "type": "PRE_RECALL_ALERT", "trial_index": 142}, "uniqueid": "MTK1955:3JBT3HLQF99466VMUDRMHVOZWD5PZG", "dateTime": 1516636904959}, {"current_trial": 143, "trialdata": {"rt": [8943, 11761, 13851, 16001, 18838, 21772, 25873, 29550, 34100], "recwords": ["lake", "trombone", "tuba", "harp", "robber", "frame", "smog", "dashboard", "chauffeur"], "key_times": [1601, 1781, 1974, 2148, 3406, 8943, 9862, 10018, 10216, 10432, 10716, 11010, 11171, 11328, 11761, 12617, 12835, 13069, 13415, 13851, 14474, 14653, 14798, 15288, 16001, 17320, 17565, 17911, 18051, 18170, 18373, 18838, 20372, 20633, 21078, 21253, 21417, 21772, 23167, 23340, 23538, 23890, 24471, 25008, 25873, 26443, 26703, 26968, 27196, 27627, 27925, 28261, 29023, 29274, 29550, 30395, 30638, 31024, 31181, 31781, 31975, 32183, 32773, 32992, 34100], "trial_type": "free-recall", "conditions": [12, 800, "v", 24000], "internal_node_id": "0.0-107.0-0.0", "key_presses": [76, 65, 75, 69, 9, 13, 84, 82, 79, 77, 66, 79, 78, 69, 13, 84, 85, 66, 65, 13, 72, 65, 82, 80, 13, 82, 79, 66, 66, 69, 82, 13, 70, 82, 65, 77, 69, 13, 83, 77, 79, 72, 8, 71, 13, 68, 65, 83, 72, 66, 79, 65, 82, 68, 13, 67, 72, 65, 85, 70, 70, 69, 85, 82, 13], "trial": 3, "time_elapsed": 680542, "type": "FREE_RECALL", "trial_index": 143}, "uniqueid": "MTK1955:3JBT3HLQF99466VMUDRMHVOZWD5PZG", "dateTime": 1516636964972}, {"current_trial": 144, "trialdata": {"rt": 1674, "trial_type": "text", "internal_node_id": "0.0-108.0", "time_elapsed": 684227, "key_press": 32, "type": "INSTRUCTIONS", "trial_index": 144}, "uniqueid": "MTK1955:3JBT3HLQF99466VMUDRMHVOZWD5PZG", "dateTime": 1516636968649}, {"current_trial": 145, "trialdata": {"rt": [2853, 4609, 6207, 11660, 13830, 15770, 17292, 20424, 23209], "trial_type": "math-distractor", "key_times": [2366, 2550, 2853, 4315, 4609, 5768, 5955, 6207, 7639, 7817, 8969, 9121, 9988, 10144, 10980, 11301, 11660, 13245, 13462, 13830, 15328, 15476, 15770, 16887, 17027, 17292, 20014, 20043, 20424, 22724, 22904, 23209], "responses": ["19", "7", "16", "14", "17", "11", "11", "17", "15"], "num2": [8, 2, 5, 4, 6, 1, 5, 5, 7, 5], "num3": [2, 4, 6, 7, 3, 6, 5, 3, 4, 7], "conditions": [24, 800, "v", 24000], "internal_node_id": "0.0-109.0", "key_presses": [97, 105, 13, 103, 13, 97, 102, 13, 97, 103, 8, 8, 97, 103, 8, 100, 13, 97, 103, 13, 97, 97, 13, 97, 97, 13, 97, 103, 13, 97, 101, 13], "trial": 4, "time_elapsed": 710387, "type": "DISTRACTOR", "trial_index": 145, "num1": [9, 1, 5, 3, 8, 4, 1, 8, 4, 7]}, "uniqueid": "MTK1955:3JBT3HLQF99466VMUDRMHVOZWD5PZG", "dateTime": 1516636994809}, {"current_trial": 146, "trialdata": {"rt": -1, "trial_type": "single-stim", "stimulus": "<p id=\"stim\">10</p>", "internal_node_id": "0.0-110.0-0.0", "time_elapsed": 713391, "key_press": -1, "trial_index": 146}, "uniqueid": "MTK1955:3JBT3HLQF99466VMUDRMHVOZWD5PZG", "dateTime": 1516636997813}, {"current_trial": 147, "trialdata": {"rt": -1, "trial_type": "single-stim", "stimulus": "<p id=\"stim\">9</p>", "internal_node_id": "0.0-110.0-1.0", "time_elapsed": 714393, "key_press": -1, "trial_index": 147}, "uniqueid": "MTK1955:3JBT3HLQF99466VMUDRMHVOZWD5PZG", "dateTime": 1516636998816}, {"current_trial": 148, "trialdata": {"rt": -1, "trial_type": "single-stim", "stimulus": "<p id=\"stim\">8</p>", "internal_node_id": "0.0-110.0-2.0", "time_elapsed": 715395, "key_press": -1, "trial_index": 148}, "uniqueid": "MTK1955:3JBT3HLQF99466VMUDRMHVOZWD5PZG", "dateTime": 1516636999818}, {"current_trial": 149, "trialdata": {"rt": -1, "trial_type": "single-stim", "stimulus": "<p id=\"stim\">7</p>", "internal_node_id": "0.0-110.0-3.0", "time_elapsed": 716413, "key_press": -1, "trial_index": 149}, "uniqueid": "MTK1955:3JBT3HLQF99466VMUDRMHVOZWD5PZG", "dateTime": 1516637000835}, {"current_trial": 150, "trialdata": {"rt": -1, "trial_type": "single-stim", "stimulus": "<p id=\"stim\">6</p>", "internal_node_id": "0.0-110.0-4.0", "time_elapsed": 717417, "key_press": -1, "trial_index": 150}, "uniqueid": "MTK1955:3JBT3HLQF99466VMUDRMHVOZWD5PZG", "dateTime": 1516637001839}, {"current_trial": 151, "trialdata": {"rt": -1, "trial_type": "single-stim", "stimulus": "<p id=\"stim\">5</p>", "internal_node_id": "0.0-110.0-5.0", "time_elapsed": 718420, "key_press": -1, "trial_index": 151}, "uniqueid": "MTK1955:3JBT3HLQF99466VMUDRMHVOZWD5PZG", "dateTime": 1516637002843}, {"current_trial": 152, "trialdata": {"rt": -1, "trial_type": "single-stim", "stimulus": "<p id=\"stim\">4</p>", "internal_node_id": "0.0-110.0-6.0", "time_elapsed": 719422, "key_press": -1, "trial_index": 152}, "uniqueid": "MTK1955:3JBT3HLQF99466VMUDRMHVOZWD5PZG", "dateTime": 1516637003844}, {"current_trial": 153, "trialdata": {"rt": -1, "trial_type": "single-stim", "stimulus": "<p id=\"stim\">3</p>", "internal_node_id": "0.0-110.0-7.0", "time_elapsed": 720424, "key_press": -1, "trial_index": 153}, "uniqueid": "MTK1955:3JBT3HLQF99466VMUDRMHVOZWD5PZG", "dateTime": 1516637004846}, {"current_trial": 154, "trialdata": {"rt": -1, "trial_type": "single-stim", "stimulus": "<p id=\"stim\">2</p>", "internal_node_id": "0.0-110.0-8.0", "time_elapsed": 721452, "key_press": -1, "trial_index": 154}, "uniqueid": "MTK1955:3JBT3HLQF99466VMUDRMHVOZWD5PZG", "dateTime": 1516637005874}, {"current_trial": 155, "trialdata": {"rt": -1, "trial_type": "single-stim", "stimulus": "<p id=\"stim\">1</p>", "internal_node_id": "0.0-110.0-9.0", "time_elapsed": 722454, "key_press": -1, "trial_index": 155}, "uniqueid": "MTK1955:3JBT3HLQF99466VMUDRMHVOZWD5PZG", "dateTime": 1516637006877}, {"current_trial": 156, "trialdata": {"rt": -1, "trial_type": "single-stim", "stimulus": "<p id=\"stim\">+</p>", "internal_node_id": "0.0-111.0-0.0", "time_elapsed": 723956, "key_press": -1, "type": "FIXATION", "trial_index": 156}, "uniqueid": "MTK1955:3JBT3HLQF99466VMUDRMHVOZWD5PZG", "dateTime": 1516637008379}, {"current_trial": 157, "trialdata": {"rt": -1, "trial_type": "single-stim", "word": "sword", "stimulus": "<p id=\"stim\">SWORD</p>", "conditions": [24, 800, "v", 24000], "internal_node_id": "0.0-112.0", "trial": 4, "time_elapsed": 724759, "serialpos": 0, "key_press": -1, "wordID": 1422, "type": "PRES_VIS", "trial_index": 157}, "uniqueid": "MTK1955:3JBT3HLQF99466VMUDRMHVOZWD5PZG", "dateTime": 1516637009181}, {"current_trial": 158, "trialdata": {"rt": -1, "trial_type": "single-stim", "word": "patrol", "stimulus": "<p id=\"stim\">PATROL</p>", "conditions": [24, 800, "v", 24000], "internal_node_id": "0.0-113.0", "trial": 4, "time_elapsed": 726519, "serialpos": 1, "key_press": -1, "wordID": 1026, "type": "PRES_VIS", "trial_index": 158}, "uniqueid": "MTK1955:3JBT3HLQF99466VMUDRMHVOZWD5PZG", "dateTime": 1516637010946}, {"current_trial": 159, "trialdata": {"rt": -1, "trial_type": "single-stim", "word": "beaker", "stimulus": "<p id=\"stim\">BEAKER</p>", "conditions": [24, 800, "v", 24000], "internal_node_id": "0.0-114.0", "trial": 4, "time_elapsed": 728504, "serialpos": 2, "key_press": -1, "wordID": 103, "type": "PRES_VIS", "trial_index": 159}, "uniqueid": "MTK1955:3JBT3HLQF99466VMUDRMHVOZWD5PZG", "dateTime": 1516637012926}, {"current_trial": 160, "trialdata": {"rt": -1, "trial_type": "single-stim", "word": "judge", "stimulus": "<p id=\"stim\">JUDGE</p>", "conditions": [24, 800, "v", 24000], "internal_node_id": "0.0-115.0", "trial": 4, "time_elapsed": 730319, "serialpos": 3, "key_press": -1, "wordID": 760, "type": "PRES_VIS", "trial_index": 160}, "uniqueid": "MTK1955:3JBT3HLQF99466VMUDRMHVOZWD5PZG", "dateTime": 1516637014742}, {"current_trial": 161, "trialdata": {"rt": -1, "trial_type": "single-stim", "word": "chest", "stimulus": "<p id=\"stim\">CHEST</p>", "conditions": [24, 800, "v", 24000], "internal_node_id": "0.0-116.0", "trial": 4, "time_elapsed": 732159, "serialpos": 4, "key_press": -1, "wordID": 294, "type": "PRES_VIS", "trial_index": 161}, "uniqueid": "MTK1955:3JBT3HLQF99466VMUDRMHVOZWD5PZG", "dateTime": 1516637016581}, {"current_trial": 162, "trialdata": {"rt": -1, "trial_type": "single-stim", "word": "forehead", "stimulus": "<p id=\"stim\">FOREHEAD</p>", "conditions": [24, 800, "v", 24000], "internal_node_id": "0.0-117.0", "trial": 4, "time_elapsed": 734026, "serialpos": 5, "key_press": -1, "wordID": 591, "type": "PRES_VIS", "trial_index": 162}, "uniqueid": "MTK1955:3JBT3HLQF99466VMUDRMHVOZWD5PZG", "dateTime": 1516637018449}, {"current_trial": 163, "trialdata": {"rt": -1, "trial_type": "single-stim", "word": "sphinx", "stimulus": "<p id=\"stim\">SPHINX</p>", "conditions": [24, 800, "v", 24000], "internal_node_id": "0.0-118.0", "trial": 4, "time_elapsed": 735802, "serialpos": 6, "key_press": -1, "wordID": 1348, "type": "PRES_VIS", "trial_index": 163}, "uniqueid": "MTK1955:3JBT3HLQF99466VMUDRMHVOZWD5PZG", "dateTime": 1516637020224}, {"current_trial": 164, "trialdata": {"rt": -1, "trial_type": "single-stim", "word": "country", "stimulus": "<p id=\"stim\">COUNTRY</p>", "conditions": [24, 800, "v", 24000], "internal_node_id": "0.0-119.0", "trial": 4, "time_elapsed": 737463, "serialpos": 7, "key_press": -1, "wordID": 387, "type": "PRES_VIS", "trial_index": 164}, "uniqueid": "MTK1955:3JBT3HLQF99466VMUDRMHVOZWD5PZG", "dateTime": 1516637021885}, {"current_trial": 165, "trialdata": {"rt": -1, "trial_type": "single-stim", "word": "tweezers", "stimulus": "<p id=\"stim\">TWEEZERS</p>", "conditions": [24, 800, "v", 24000], "internal_node_id": "0.0-120.0", "trial": 4, "time_elapsed": 739159, "serialpos": 8, "key_press": -1, "wordID": 1525, "type": "PRES_VIS", "trial_index": 165}, "uniqueid": "MTK1955:3JBT3HLQF99466VMUDRMHVOZWD5PZG", "dateTime": 1516637023581}, {"current_trial": 166, "trialdata": {"rt": -1, "trial_type": "single-stim", "word": "knife", "stimulus": "<p id=\"stim\">KNIFE</p>", "conditions": [24, 800, "v", 24000], "internal_node_id": "0.0-121.0", "trial": 4, "time_elapsed": 740946, "serialpos": 9, "key_press": -1, "wordID": 784, "type": "PRES_VIS", "trial_index": 166}, "uniqueid": "MTK1955:3JBT3HLQF99466VMUDRMHVOZWD5PZG", "dateTime": 1516637025368}, {"current_trial": 167, "trialdata": {"rt": -1, "trial_type": "single-stim", "word": "world", "stimulus": "<p id=\"stim\">WORLD</p>", "conditions": [24, 800, "v", 24000], "internal_node_id": "0.0-122.0", "trial": 4, "time_elapsed": 742777, "serialpos": 10, "key_press": -1, "wordID": 1621, "type": "PRES_VIS", "trial_index": 167}, "uniqueid": "MTK1955:3JBT3HLQF99466VMUDRMHVOZWD5PZG", "dateTime": 1516637027199}, {"current_trial": 168, "trialdata": {"rt": -1, "trial_type": "single-stim", "word": "beaver", "stimulus": "<p id=\"stim\">BEAVER</p>", "conditions": [24, 800, "v", 24000], "internal_node_id": "0.0-123.0", "trial": 4, "time_elapsed": 744580, "serialpos": 11, "key_press": -1, "wordID": 108, "type": "PRES_VIS", "trial_index": 168}, "uniqueid": "MTK1955:3JBT3HLQF99466VMUDRMHVOZWD5PZG", "dateTime": 1516637029003}, {"current_trial": 169, "trialdata": {"rt": -1, "trial_type": "single-stim", "word": "survey", "stimulus": "<p id=\"stim\">SURVEY</p>", "conditions": [24, 800, "v", 24000], "internal_node_id": "0.0-124.0", "trial": 4, "time_elapsed": 746350, "serialpos": 12, "key_press": -1, "wordID": 1413, "type": "PRES_VIS", "trial_index": 169}, "uniqueid": "MTK1955:3JBT3HLQF99466VMUDRMHVOZWD5PZG", "dateTime": 1516637030772}, {"current_trial": 170, "trialdata": {"rt": -1, "trial_type": "single-stim", "word": "cocktail", "stimulus": "<p id=\"stim\">COCKTAIL</p>", "conditions": [24, 800, "v", 24000], "internal_node_id": "0.0-125.0", "trial": 4, "time_elapsed": 748201, "serialpos": 13, "key_press": -1, "wordID": 337, "type": "PRES_VIS", "trial_index": 170}, "uniqueid": "MTK1955:3JBT3HLQF99466VMUDRMHVOZWD5PZG", "dateTime": 1516637032623}, {"current_trial": 171, "trialdata": {"rt": -1, "trial_type": "single-stim", "word": "popcorn", "stimulus": "<p id=\"stim\">POPCORN</p>", "conditions": [24, 800, "v", 24000], "internal_node_id": "0.0-126.0", "trial": 4, "time_elapsed": 749995, "serialpos": 14, "key_press": -1, "wordID": 1103, "type": "PRES_VIS", "trial_index": 171}, "uniqueid": "MTK1955:3JBT3HLQF99466VMUDRMHVOZWD5PZG", "dateTime": 1516637034418}, {"current_trial": 172, "trialdata": {"rt": -1, "trial_type": "single-stim", "word": "snack", "stimulus": "<p id=\"stim\">SNACK</p>", "conditions": [24, 800, "v", 24000], "internal_node_id": "0.0-127.0", "trial": 4, "time_elapsed": 751865, "serialpos": 15, "key_press": -1, "wordID": 1330, "type": "PRES_VIS", "trial_index": 172}, "uniqueid": "MTK1955:3JBT3HLQF99466VMUDRMHVOZWD5PZG", "dateTime": 1516637036287}, {"current_trial": 173, "trialdata": {"rt": -1, "trial_type": "single-stim", "word": "shelf", "stimulus": "<p id=\"stim\">SHELF</p>", "conditions": [24, 800, "v", 24000], "internal_node_id": "0.0-128.0", "trial": 4, "time_elapsed": 753592, "serialpos": 16, "key_press": -1, "wordID": 1279, "type": "PRES_VIS", "trial_index": 173}, "uniqueid": "MTK1955:3JBT3HLQF99466VMUDRMHVOZWD5PZG", "dateTime": 1516637038015}, {"current_trial": 174, "trialdata": {"rt": -1, "trial_type": "single-stim", "word": "novel", "stimulus": "<p id=\"stim\">NOVEL</p>", "conditions": [24, 800, "v", 24000], "internal_node_id": "0.0-129.0", "trial": 4, "time_elapsed": 755204, "serialpos": 17, "key_press": -1, "wordID": 959, "type": "PRES_VIS", "trial_index": 174}, "uniqueid": "MTK1955:3JBT3HLQF99466VMUDRMHVOZWD5PZG", "dateTime": 1516637039626}, {"current_trial": 175, "trialdata": {"rt": -1, "trial_type": "single-stim", "word": "yacht", "stimulus": "<p id=\"stim\">YACHT</p>", "conditions": [24, 800, "v", 24000], "internal_node_id": "0.0-130.0", "trial": 4, "time_elapsed": 756942, "serialpos": 18, "key_press": -1, "wordID": 1628, "type": "PRES_VIS", "trial_index": 175}, "uniqueid": "MTK1955:3JBT3HLQF99466VMUDRMHVOZWD5PZG", "dateTime": 1516637041364}, {"current_trial": 176, "trialdata": {"rt": -1, "trial_type": "single-stim", "word": "lettuce", "stimulus": "<p id=\"stim\">LETTUCE</p>", "conditions": [24, 800, "v", 24000], "internal_node_id": "0.0-131.0", "trial": 4, "time_elapsed": 758809, "serialpos": 19, "key_press": -1, "wordID": 813, "type": "PRES_VIS", "trial_index": 176}, "uniqueid": "MTK1955:3JBT3HLQF99466VMUDRMHVOZWD5PZG", "dateTime": 1516637043231}, {"current_trial": 177, "trialdata": {"rt": -1, "trial_type": "single-stim", "word": "report", "stimulus": "<p id=\"stim\">REPORT</p>", "conditions": [24, 800, "v", 24000], "internal_node_id": "0.0-132.0", "trial": 4, "time_elapsed": 760692, "serialpos": 20, "key_press": -1, "wordID": 1183, "type": "PRES_VIS", "trial_index": 177}, "uniqueid": "MTK1955:3JBT3HLQF99466VMUDRMHVOZWD5PZG", "dateTime": 1516637045114}, {"current_trial": 178, "trialdata": {"rt": -1, "trial_type": "single-stim", "word": "peach", "stimulus": "<p id=\"stim\">PEACH</p>", "conditions": [24, 800, "v", 24000], "internal_node_id": "0.0-133.0", "trial": 4, "time_elapsed": 762565, "serialpos": 21, "key_press": -1, "wordID": 1030, "type": "PRES_VIS", "trial_index": 178}, "uniqueid": "MTK1955:3JBT3HLQF99466VMUDRMHVOZWD5PZG", "dateTime": 1516637046987}, {"current_trial": 179, "trialdata": {"rt": -1, "trial_type": "single-stim", "word": "fragrance", "stimulus": "<p id=\"stim\">FRAGRANCE</p>", "conditions": [24, 800, "v", 24000], "internal_node_id": "0.0-134.0", "trial": 4, "time_elapsed": 764399, "serialpos": 22, "key_press": -1, "wordID": 598, "type": "PRES_VIS", "trial_index": 179}, "uniqueid": "MTK1955:3JBT3HLQF99466VMUDRMHVOZWD5PZG", "dateTime": 1516637048821}, {"current_trial": 180, "trialdata": {"rt": -1, "trial_type": "single-stim", "word": "sunrise", "stimulus": "<p id=\"stim\">SUNRISE</p>", "conditions": [24, 800, "v", 24000], "internal_node_id": "0.0-135.0", "trial": 4, "time_elapsed": 766495, "serialpos": 23, "key_press": -1, "wordID": 1406, "type": "PRES_VIS", "trial_index": 180}, "uniqueid": "MTK1955:3JBT3HLQF99466VMUDRMHVOZWD5PZG", "dateTime": 1516637050917}, {"current_trial": 181, "trialdata": {"rt": -1, "trial_type": "single-stim", "stimulus": "", "internal_node_id": "0.0-136.0-0.0", "time_elapsed": 768682, "key_press": -1, "type": "PRE_RECALL_DELAY", "trial_index": 181}, "uniqueid": "MTK1955:3JBT3HLQF99466VMUDRMHVOZWD5PZG", "dateTime": 1516637053104}, {"current_trial": 182, "trialdata": {"rt": -1000, "trial_type": "single-audio", "stimulus": "/static/audio/400Hz.wav", "internal_node_id": "0.0-137.0", "time_elapsed": 769185, "key_press": -1, "type": "PRE_RECALL_ALERT", "trial_index": 182}, "uniqueid": "MTK1955:3JBT3HLQF99466VMUDRMHVOZWD5PZG", "dateTime": 1516637053607}, {"current_trial": 183, "trialdata": {"rt": [4169, 9145, 13153, 14730, 18643, 22738, 25993, 29801, 33850, 36740, 42226, 46762, 54011], "recwords": ["sunrise", "beaver", "tweezers", "novel", "novel", "sphinx", "patrol", "judge", "survey", "beaker", "beaver", "award", "patrol"], "key_times": [2533, 2674, 2824, 3069, 3270, 3481, 3700, 4169, 5847, 5958, 5966, 6156, 7247, 7382, 8174, 8321, 8501, 8609, 9145, 9716, 9881, 10601, 10789, 11036, 11201, 11669, 12181, 12289, 12691, 13153, 13744, 13935, 14239, 14480, 14728, 14730, 16257, 16491, 17373, 17481, 17733, 18643, 20996, 21119, 21413, 21651, 21937, 22214, 22738, 24124, 24327, 24559, 24758, 25279, 25503, 25993, 28354, 28527, 28959, 29128, 29258, 29801, 32250, 32285, 32459, 32674, 32891, 33045, 33850, 34916, 35051, 35280, 35503, 35732, 35946, 36740, 40036, 40194, 40433, 40977, 41146, 41322, 42226, 44588, 44830, 45049, 45346, 45532, 46762, 52259, 52432, 52621, 52855, 53092, 53293, 54011], "trial_type": "free-recall", "conditions": [24, 800, "v", 24000], "internal_node_id": "0.0-138.0-0.0", "key_presses": [83, 85, 78, 82, 73, 83, 69, 13, 66, 69, 82, 65, 8, 8, 65, 86, 69, 82, 13, 84, 69, 8, 87, 69, 69, 90, 69, 82, 83, 13, 78, 79, 86, 69, 76, 186, 78, 79, 86, 69, 76, 13, 83, 80, 72, 73, 78, 88, 13, 80, 65, 84, 82, 79, 76, 13, 74, 85, 68, 71, 69, 13, 83, 85, 82, 86, 69, 89, 13, 66, 69, 65, 75, 69, 82, 13, 66, 69, 65, 86, 69, 82, 13, 65, 87, 65, 82, 68, 13, 80, 65, 84, 82, 79, 76, 13], "trial": 4, "time_elapsed": 829190, "type": "FREE_RECALL", "trial_index": 183}, "uniqueid": "MTK1955:3JBT3HLQF99466VMUDRMHVOZWD5PZG", "dateTime": 1516637113615}, {"current_trial": 184, "trialdata": {"rt": 2643, "trial_type": "text", "internal_node_id": "0.0-139.0", "time_elapsed": 834107, "key_press": 32, "type": "INSTRUCTIONS", "trial_index": 184}, "uniqueid": "MTK1955:3JBT3HLQF99466VMUDRMHVOZWD5PZG", "dateTime": 1516637118529}, {"current_trial": 185, "trialdata": {"rt": [4660, 6642, 8854, 13200, 15293, 17880, 21875], "trial_type": "math-distractor", "key_times": [4142, 4346, 4660, 6231, 6401, 6642, 8430, 8604, 8854, 12795, 12945, 13200, 14854, 15033, 15293, 17374, 17547, 17880, 21409, 21594, 21875, 23999], "responses": ["24", "16", "16", "21", "16", "17", "18"], "num2": [8, 2, 5, 5, 5, 7, 7, 9], "num3": [7, 7, 4, 7, 8, 8, 2, 5], "conditions": [12, 1600, "v", 24000], "internal_node_id": "0.0-140.0", "key_presses": [98, 100, 13, 97, 102, 13, 97, 102, 13, 98, 97, 13, 97, 102, 13, 97, 103, 13, 97, 104, 13, 97], "trial": 5, "time_elapsed": 860135, "type": "DISTRACTOR", "trial_index": 185, "num1": [9, 7, 7, 9, 3, 2, 8, 4]}, "uniqueid": "MTK1955:3JBT3HLQF99466VMUDRMHVOZWD5PZG", "dateTime": 1516637144557}, {"current_trial": 186, "trialdata": {"rt": -1, "trial_type": "single-stim", "stimulus": "<p id=\"stim\">10</p>", "internal_node_id": "0.0-141.0-0.0", "time_elapsed": 863139, "key_press": -1, "trial_index": 186}, "uniqueid": "MTK1955:3JBT3HLQF99466VMUDRMHVOZWD5PZG", "dateTime": 1516637147561}, {"current_trial": 187, "trialdata": {"rt": -1, "trial_type": "single-stim", "stimulus": "<p id=\"stim\">9</p>", "internal_node_id": "0.0-141.0-1.0", "time_elapsed": 864142, "key_press": -1, "trial_index": 187}, "uniqueid": "MTK1955:3JBT3HLQF99466VMUDRMHVOZWD5PZG", "dateTime": 1516637148564}, {"current_trial": 188, "trialdata": {"rt": -1, "trial_type": "single-stim", "stimulus": "<p id=\"stim\">8</p>", "internal_node_id": "0.0-141.0-2.0", "time_elapsed": 865144, "key_press": -1, "trial_index": 188}, "uniqueid": "MTK1955:3JBT3HLQF99466VMUDRMHVOZWD5PZG", "dateTime": 1516637149567}, {"current_trial": 189, "trialdata": {"rt": -1, "trial_type": "single-stim", "stimulus": "<p id=\"stim\">7</p>", "internal_node_id": "0.0-141.0-3.0", "time_elapsed": 866147, "key_press": -1, "trial_index": 189}, "uniqueid": "MTK1955:3JBT3HLQF99466VMUDRMHVOZWD5PZG", "dateTime": 1516637150569}, {"current_trial": 190, "trialdata": {"rt": -1, "trial_type": "single-stim", "stimulus": "<p id=\"stim\">6</p>", "internal_node_id": "0.0-141.0-4.0", "time_elapsed": 867148, "key_press": -1, "trial_index": 190}, "uniqueid": "MTK1955:3JBT3HLQF99466VMUDRMHVOZWD5PZG", "dateTime": 1516637151571}, {"current_trial": 191, "trialdata": {"rt": -1, "trial_type": "single-stim", "stimulus": "<p id=\"stim\">5</p>", "internal_node_id": "0.0-141.0-5.0", "time_elapsed": 868152, "key_press": -1, "trial_index": 191}, "uniqueid": "MTK1955:3JBT3HLQF99466VMUDRMHVOZWD5PZG", "dateTime": 1516637152574}, {"current_trial": 192, "trialdata": {"rt": -1, "trial_type": "single-stim", "stimulus": "<p id=\"stim\">4</p>", "internal_node_id": "0.0-141.0-6.0", "time_elapsed": 869155, "key_press": -1, "trial_index": 192}, "uniqueid": "MTK1955:3JBT3HLQF99466VMUDRMHVOZWD5PZG", "dateTime": 1516637153577}, {"current_trial": 193, "trialdata": {"rt": -1, "trial_type": "single-stim", "stimulus": "<p id=\"stim\">3</p>", "internal_node_id": "0.0-141.0-7.0", "time_elapsed": 870156, "key_press": -1, "trial_index": 193}, "uniqueid": "MTK1955:3JBT3HLQF99466VMUDRMHVOZWD5PZG", "dateTime": 1516637154578}, {"current_trial": 194, "trialdata": {"rt": -1, "trial_type": "single-stim", "stimulus": "<p id=\"stim\">2</p>", "internal_node_id": "0.0-141.0-8.0", "time_elapsed": 871158, "key_press": -1, "trial_index": 194}, "uniqueid": "MTK1955:3JBT3HLQF99466VMUDRMHVOZWD5PZG", "dateTime": 1516637155580}, {"current_trial": 195, "trialdata": {"rt": -1, "trial_type": "single-stim", "stimulus": "<p id=\"stim\">1</p>", "internal_node_id": "0.0-141.0-9.0", "time_elapsed": 872159, "key_press": -1, "trial_index": 195}, "uniqueid": "MTK1955:3JBT3HLQF99466VMUDRMHVOZWD5PZG", "dateTime": 1516637156581}, {"current_trial": 196, "trialdata": {"rt": -1, "trial_type": "single-stim", "stimulus": "<p id=\"stim\">+</p>", "internal_node_id": "0.0-142.0-0.0", "time_elapsed": 873661, "key_press": -1, "type": "FIXATION", "trial_index": 196}, "uniqueid": "MTK1955:3JBT3HLQF99466VMUDRMHVOZWD5PZG", "dateTime": 1516637158083}, {"current_trial": 197, "trialdata": {"rt": -1, "trial_type": "single-stim", "word": "actor", "stimulus": "<p id=\"stim\">ACTOR</p>", "conditions": [12, 1600, "v", 24000], "internal_node_id": "0.0-143.0", "trial": 5, "time_elapsed": 875263, "serialpos": 0, "key_press": -1, "wordID": 4, "type": "PRES_VIS", "trial_index": 197}, "uniqueid": "MTK1955:3JBT3HLQF99466VMUDRMHVOZWD5PZG", "dateTime": 1516637159685}, {"current_trial": 198, "trialdata": {"rt": -1, "trial_type": "single-stim", "word": "inmate", "stimulus": "<p id=\"stim\">INMATE</p>", "conditions": [12, 1600, "v", 24000], "internal_node_id": "0.0-144.0", "trial": 5, "time_elapsed": 878019, "serialpos": 1, "key_press": -1, "wordID": 737, "type": "PRES_VIS", "trial_index": 198}, "uniqueid": "MTK1955:3JBT3HLQF99466VMUDRMHVOZWD5PZG", "dateTime": 1516637162441}, {"current_trial": 199, "trialdata": {"rt": -1, "trial_type": "single-stim", "word": "county", "stimulus": "<p id=\"stim\">COUNTY</p>", "conditions": [12, 1600, "v", 24000], "internal_node_id": "0.0-145.0", "trial": 5, "time_elapsed": 880524, "serialpos": 2, "key_press": -1, "wordID": 388, "type": "PRES_VIS", "trial_index": 199}, "uniqueid": "MTK1955:3JBT3HLQF99466VMUDRMHVOZWD5PZG", "dateTime": 1516637164947}, {"current_trial": 200, "trialdata": {"rt": -1, "trial_type": "single-stim", "word": "flask", "stimulus": "<p id=\"stim\">FLASK</p>", "conditions": [12, 1600, "v", 24000], "internal_node_id": "0.0-146.0", "trial": 5, "time_elapsed": 883210, "serialpos": 3, "key_press": -1, "wordID": 575, "type": "PRES_VIS", "trial_index": 200}, "uniqueid": "MTK1955:3JBT3HLQF99466VMUDRMHVOZWD5PZG", "dateTime": 1516637167632}, {"current_trial": 201, "trialdata": {"rt": -1, "trial_type": "single-stim", "word": "actress", "stimulus": "<p id=\"stim\">ACTRESS</p>", "conditions": [12, 1600, "v", 24000], "internal_node_id": "0.0-147.0", "trial": 5, "time_elapsed": 886008, "serialpos": 4, "key_press": -1, "wordID": 5, "type": "PRES_VIS", "trial_index": 201}, "uniqueid": "MTK1955:3JBT3HLQF99466VMUDRMHVOZWD5PZG", "dateTime": 1516637170430}, {"current_trial": 202, "trialdata": {"rt": -1, "trial_type": "single-stim", "word": "valve", "stimulus": "<p id=\"stim\">VALVE</p>", "conditions": [12, 1600, "v", 24000], "internal_node_id": "0.0-148.0", "trial": 5, "time_elapsed": 888494, "serialpos": 5, "key_press": -1, "wordID": 1545, "type": "PRES_VIS", "trial_index": 202}, "uniqueid": "MTK1955:3JBT3HLQF99466VMUDRMHVOZWD5PZG", "dateTime": 1516637172916}, {"current_trial": 203, "trialdata": {"rt": -1, "trial_type": "single-stim", "word": "piston", "stimulus": "<p id=\"stim\">PISTON</p>", "conditions": [12, 1600, "v", 24000], "internal_node_id": "0.0-149.0", "trial": 5, "time_elapsed": 891136, "serialpos": 6, "key_press": -1, "wordID": 1075, "type": "PRES_VIS", "trial_index": 203}, "uniqueid": "MTK1955:3JBT3HLQF99466VMUDRMHVOZWD5PZG", "dateTime": 1516637175558}, {"current_trial": 204, "trialdata": {"rt": -1, "trial_type": "single-stim", "word": "server", "stimulus": "<p id=\"stim\">SERVER</p>", "conditions": [12, 1600, "v", 24000], "internal_node_id": "0.0-150.0", "trial": 5, "time_elapsed": 893560, "serialpos": 7, "key_press": -1, "wordID": 1271, "type": "PRES_VIS", "trial_index": 204}, "uniqueid": "MTK1955:3JBT3HLQF99466VMUDRMHVOZWD5PZG", "dateTime": 1516637177982}, {"current_trial": 205, "trialdata": {"rt": -1, "trial_type": "single-stim", "word": "cashew", "stimulus": "<p id=\"stim\">CASHEW</p>", "conditions": [12, 1600, "v", 24000], "internal_node_id": "0.0-151.0", "trial": 5, "time_elapsed": 896153, "serialpos": 8, "key_press": -1, "wordID": 252, "type": "PRES_VIS", "trial_index": 205}, "uniqueid": "MTK1955:3JBT3HLQF99466VMUDRMHVOZWD5PZG", "dateTime": 1516637180575}, {"current_trial": 206, "trialdata": {"rt": -1, "trial_type": "single-stim", "word": "match", "stimulus": "<p id=\"stim\">MATCH</p>", "conditions": [12, 1600, "v", 24000], "internal_node_id": "0.0-152.0", "trial": 5, "time_elapsed": 898799, "serialpos": 9, "key_press": -1, "wordID": 877, "type": "PRES_VIS", "trial_index": 206}, "uniqueid": "MTK1955:3JBT3HLQF99466VMUDRMHVOZWD5PZG", "dateTime": 1516637183221}, {"current_trial": 207, "trialdata": {"rt": -1, "trial_type": "single-stim", "word": "comet", "stimulus": "<p id=\"stim\">COMET</p>", "conditions": [12, 1600, "v", 24000], "internal_node_id": "0.0-153.0", "trial": 5, "time_elapsed": 901460, "serialpos": 10, "key_press": -1, "wordID": 352, "type": "PRES_VIS", "trial_index": 207}, "uniqueid": "MTK1955:3JBT3HLQF99466VMUDRMHVOZWD5PZG", "dateTime": 1516637185882}, {"current_trial": 208, "trialdata": {"rt": -1, "trial_type": "single-stim", "word": "swamp", "stimulus": "<p id=\"stim\">SWAMP</p>", "conditions": [12, 1600, "v", 24000], "internal_node_id": "0.0-154.0", "trial": 5, "time_elapsed": 904249, "serialpos": 11, "key_press": -1, "wordID": 1415, "type": "PRES_VIS", "trial_index": 208}, "uniqueid": "MTK1955:3JBT3HLQF99466VMUDRMHVOZWD5PZG", "dateTime": 1516637188671}, {"current_trial": 209, "trialdata": {"rt": -1, "trial_type": "single-stim", "stimulus": "", "internal_node_id": "0.0-155.0-0.0", "time_elapsed": 906622, "key_press": -1, "type": "PRE_RECALL_DELAY", "trial_index": 209}, "uniqueid": "MTK1955:3JBT3HLQF99466VMUDRMHVOZWD5PZG", "dateTime": 1516637191044}, {"current_trial": 210, "trialdata": {"rt": -1000, "trial_type": "single-audio", "stimulus": "/static/audio/400Hz.wav", "internal_node_id": "0.0-156.0", "time_elapsed": 907124, "key_press": -1, "type": "PRE_RECALL_ALERT", "trial_index": 210}, "uniqueid": "MTK1955:3JBT3HLQF99466VMUDRMHVOZWD5PZG", "dateTime": 1516637191546}, {"current_trial": 211, "trialdata": {"rt": [3470, 5598, 8446, 12857, 15185, 20471, 24894, 27811], "recwords": ["comet", "cashew", "piston", "actor", "piston", "flash", "valve", "inmate"], "key_times": [2155, 2314, 2479, 2670, 2813, 3470, 4292, 4561, 4785, 4928, 5058, 5237, 5598, 6898, 7137, 7297, 7448, 7709, 7933, 8446, 11262, 11561, 11688, 12013, 12197, 12857, 13650, 13904, 14236, 14237, 14456, 14662, 15185, 17472, 17650, 19432, 19710, 19873, 20471, 21265, 21418, 21576, 21948, 22114, 24894, 26538, 26716, 26886, 27034, 27235, 27414, 27811], "trial_type": "free-recall", "conditions": [12, 1600, "v", 24000], "internal_node_id": "0.0-157.0-0.0", "key_presses": [67, 79, 77, 69, 84, 13, 67, 65, 83, 72, 69, 87, 13, 80, 73, 83, 84, 79, 78, 13, 65, 67, 84, 79, 82, 13, 80, 73, 83, 84, 79, 78, 13, 70, 76, 65, 83, 72, 13, 86, 65, 76, 86, 69, 13, 73, 78, 77, 65, 84, 69, 13], "trial": 5, "time_elapsed": 967129, "type": "FREE_RECALL", "trial_index": 211}, "uniqueid": "MTK1955:3JBT3HLQF99466VMUDRMHVOZWD5PZG", "dateTime": 1516637251559}, {"current_trial": 212, "trialdata": {"rt": 31888, "trial_type": "text", "internal_node_id": "0.0-158.0", "time_elapsed": 1001028, "key_press": 32, "type": "INSTRUCTIONS", "trial_index": 212}, "uniqueid": "MTK1955:3JBT3HLQF99466VMUDRMHVOZWD5PZG", "dateTime": 1516637285450}, {"current_trial": 213, "trialdata": {"rt": [2403, 4247, 6645, 9713, 11649], "trial_type": "math-distractor", "key_times": [1888, 2077, 2403, 3818, 3999, 4247, 6366, 6645, 9320, 9469, 9713, 11263, 11395, 11649], "responses": ["17", "13", "7", "20", "21"], "num2": [2, 4, 2, 4, 9, 5], "num3": [7, 1, 2, 7, 9, 6], "conditions": [24, 800, "v", 12000], "internal_node_id": "0.0-159.0", "key_presses": [97, 103, 13, 97, 99, 13, 103, 13, 98, 96, 13, 98, 97, 13], "trial": 6, "time_elapsed": 1015035, "type": "DISTRACTOR", "trial_index": 213, "num1": [8, 8, 3, 9, 3, 4]}, "uniqueid": "MTK1955:3JBT3HLQF99466VMUDRMHVOZWD5PZG", "dateTime": 1516637299457}, {"current_trial": 214, "trialdata": {"rt": -1, "trial_type": "single-stim", "stimulus": "<p id=\"stim\">10</p>", "internal_node_id": "0.0-160.0-0.0", "time_elapsed": 1018038, "key_press": -1, "trial_index": 214}, "uniqueid": "MTK1955:3JBT3HLQF99466VMUDRMHVOZWD5PZG", "dateTime": 1516637302460}, {"current_trial": 215, "trialdata": {"rt": -1, "trial_type": "single-stim", "stimulus": "<p id=\"stim\">9</p>", "internal_node_id": "0.0-160.0-1.0", "time_elapsed": 1019039, "key_press": -1, "trial_index": 215}, "uniqueid": "MTK1955:3JBT3HLQF99466VMUDRMHVOZWD5PZG", "dateTime": 1516637303461}, {"current_trial": 216, "trialdata": {"rt": -1, "trial_type": "single-stim", "stimulus": "<p id=\"stim\">8</p>", "internal_node_id": "0.0-160.0-2.0", "time_elapsed": 1020041, "key_press": -1, "trial_index": 216}, "uniqueid": "MTK1955:3JBT3HLQF99466VMUDRMHVOZWD5PZG", "dateTime": 1516637304463}, {"current_trial": 217, "trialdata": {"rt": -1, "trial_type": "single-stim", "stimulus": "<p id=\"stim\">7</p>", "internal_node_id": "0.0-160.0-3.0", "time_elapsed": 1021044, "key_press": -1, "trial_index": 217}, "uniqueid": "MTK1955:3JBT3HLQF99466VMUDRMHVOZWD5PZG", "dateTime": 1516637305466}, {"current_trial": 218, "trialdata": {"rt": -1, "trial_type": "single-stim", "stimulus": "<p id=\"stim\">6</p>", "internal_node_id": "0.0-160.0-4.0", "time_elapsed": 1022047, "key_press": -1, "trial_index": 218}, "uniqueid": "MTK1955:3JBT3HLQF99466VMUDRMHVOZWD5PZG", "dateTime": 1516637306469}, {"current_trial": 219, "trialdata": {"rt": -1, "trial_type": "single-stim", "stimulus": "<p id=\"stim\">5</p>", "internal_node_id": "0.0-160.0-5.0", "time_elapsed": 1023049, "key_press": -1, "trial_index": 219}, "uniqueid": "MTK1955:3JBT3HLQF99466VMUDRMHVOZWD5PZG", "dateTime": 1516637307471}, {"current_trial": 220, "trialdata": {"rt": -1, "trial_type": "single-stim", "stimulus": "<p id=\"stim\">4</p>", "internal_node_id": "0.0-160.0-6.0", "time_elapsed": 1024053, "key_press": -1, "trial_index": 220}, "uniqueid": "MTK1955:3JBT3HLQF99466VMUDRMHVOZWD5PZG", "dateTime": 1516637308475}, {"current_trial": 221, "trialdata": {"rt": -1, "trial_type": "single-stim", "stimulus": "<p id=\"stim\">3</p>", "internal_node_id": "0.0-160.0-7.0", "time_elapsed": 1025054, "key_press": -1, "trial_index": 221}, "uniqueid": "MTK1955:3JBT3HLQF99466VMUDRMHVOZWD5PZG", "dateTime": 1516637309476}, {"current_trial": 222, "trialdata": {"rt": -1, "trial_type": "single-stim", "stimulus": "<p id=\"stim\">2</p>", "internal_node_id": "0.0-160.0-8.0", "time_elapsed": 1026056, "key_press": -1, "trial_index": 222}, "uniqueid": "MTK1955:3JBT3HLQF99466VMUDRMHVOZWD5PZG", "dateTime": 1516637310478}, {"current_trial": 223, "trialdata": {"rt": -1, "trial_type": "single-stim", "stimulus": "<p id=\"stim\">1</p>", "internal_node_id": "0.0-160.0-9.0", "time_elapsed": 1027059, "key_press": -1, "trial_index": 223}, "uniqueid": "MTK1955:3JBT3HLQF99466VMUDRMHVOZWD5PZG", "dateTime": 1516637311481}, {"current_trial": 224, "trialdata": {"rt": -1, "trial_type": "single-stim", "stimulus": "<p id=\"stim\">+</p>", "internal_node_id": "0.0-161.0-0.0", "time_elapsed": 1028561, "key_press": -1, "type": "FIXATION", "trial_index": 224}, "uniqueid": "MTK1955:3JBT3HLQF99466VMUDRMHVOZWD5PZG", "dateTime": 1516637312983}, {"current_trial": 225, "trialdata": {"rt": -1, "trial_type": "single-stim", "word": "sparrow", "stimulus": "<p id=\"stim\">SPARROW</p>", "conditions": [24, 800, "v", 12000], "internal_node_id": "0.0-162.0", "trial": 6, "time_elapsed": 1029363, "serialpos": 0, "key_press": -1, "wordID": 1346, "type": "PRES_VIS", "trial_index": 225}, "uniqueid": "MTK1955:3JBT3HLQF99466VMUDRMHVOZWD5PZG", "dateTime": 1516637313785}, {"current_trial": 226, "trialdata": {"rt": -1, "trial_type": "single-stim", "word": "robin", "stimulus": "<p id=\"stim\">ROBIN</p>", "conditions": [24, 800, "v", 12000], "internal_node_id": "0.0-163.0", "trial": 6, "time_elapsed": 1031207, "serialpos": 1, "key_press": -1, "wordID": 1198, "type": "PRES_VIS", "trial_index": 226}, "uniqueid": "MTK1955:3JBT3HLQF99466VMUDRMHVOZWD5PZG", "dateTime": 1516637315629}, {"current_trial": 227, "trialdata": {"rt": -1, "trial_type": "single-stim", "word": "stove", "stimulus": "<p id=\"stim\">STOVE</p>", "conditions": [24, 800, "v", 12000], "internal_node_id": "0.0-164.0", "trial": 6, "time_elapsed": 1033000, "serialpos": 2, "key_press": -1, "wordID": 1387, "type": "PRES_VIS", "trial_index": 227}, "uniqueid": "MTK1955:3JBT3HLQF99466VMUDRMHVOZWD5PZG", "dateTime": 1516637317422}, {"current_trial": 228, "trialdata": {"rt": -1, "trial_type": "single-stim", "word": "plaid", "stimulus": "<p id=\"stim\">PLAID</p>", "conditions": [24, 800, "v", 12000], "internal_node_id": "0.0-165.0", "trial": 6, "time_elapsed": 1034604, "serialpos": 3, "key_press": -1, "wordID": 1079, "type": "PRES_VIS", "trial_index": 228}, "uniqueid": "MTK1955:3JBT3HLQF99466VMUDRMHVOZWD5PZG", "dateTime": 1516637319026}, {"current_trial": 229, "trialdata": {"rt": -1, "trial_type": "single-stim", "word": "venus", "stimulus": "<p id=\"stim\">VENUS</p>", "conditions": [24, 800, "v", 12000], "internal_node_id": "0.0-166.0", "trial": 6, "time_elapsed": 1036473, "serialpos": 4, "key_press": -1, "wordID": 1556, "type": "PRES_VIS", "trial_index": 229}, "uniqueid": "MTK1955:3JBT3HLQF99466VMUDRMHVOZWD5PZG", "dateTime": 1516637320895}, {"current_trial": 230, "trialdata": {"rt": -1, "trial_type": "single-stim", "word": "toaster", "stimulus": "<p id=\"stim\">TOASTER</p>", "conditions": [24, 800, "v", 12000], "internal_node_id": "0.0-167.0", "trial": 6, "time_elapsed": 1038114, "serialpos": 5, "key_press": -1, "wordID": 1471, "type": "PRES_VIS", "trial_index": 230}, "uniqueid": "MTK1955:3JBT3HLQF99466VMUDRMHVOZWD5PZG", "dateTime": 1516637322537}, {"current_trial": 231, "trialdata": {"rt": -1, "trial_type": "single-stim", "word": "puppy", "stimulus": "<p id=\"stim\">PUPPY</p>", "conditions": [24, 800, "v", 12000], "internal_node_id": "0.0-168.0", "trial": 6, "time_elapsed": 1039783, "serialpos": 6, "key_press": -1, "wordID": 1143, "type": "PRES_VIS", "trial_index": 231}, "uniqueid": "MTK1955:3JBT3HLQF99466VMUDRMHVOZWD5PZG", "dateTime": 1516637324205}, {"current_trial": 232, "trialdata": {"rt": -1, "trial_type": "single-stim", "word": "tutu", "stimulus": "<p id=\"stim\">TUTU</p>", "conditions": [24, 800, "v", 12000], "internal_node_id": "0.0-169.0", "trial": 6, "time_elapsed": 1041558, "serialpos": 7, "key_press": -1, "wordID": 1523, "type": "PRES_VIS", "trial_index": 232}, "uniqueid": "MTK1955:3JBT3HLQF99466VMUDRMHVOZWD5PZG", "dateTime": 1516637325980}, {"current_trial": 233, "trialdata": {"rt": -1, "trial_type": "single-stim", "word": "france", "stimulus": "<p id=\"stim\">FRANCE</p>", "conditions": [24, 800, "v", 12000], "internal_node_id": "0.0-170.0", "trial": 6, "time_elapsed": 1043340, "serialpos": 8, "key_press": -1, "wordID": 600, "type": "PRES_VIS", "trial_index": 233}, "uniqueid": "MTK1955:3JBT3HLQF99466VMUDRMHVOZWD5PZG", "dateTime": 1516637327762}, {"current_trial": 234, "trialdata": {"rt": -1, "trial_type": "single-stim", "word": "subway", "stimulus": "<p id=\"stim\">SUBWAY</p>", "conditions": [24, 800, "v", 12000], "internal_node_id": "0.0-171.0", "trial": 6, "time_elapsed": 1045323, "serialpos": 9, "key_press": -1, "wordID": 1399, "type": "PRES_VIS", "trial_index": 234}, "uniqueid": "MTK1955:3JBT3HLQF99466VMUDRMHVOZWD5PZG", "dateTime": 1516637329745}, {"current_trial": 235, "trialdata": {"rt": -1, "trial_type": "single-stim", "word": "dust", "stimulus": "<p id=\"stim\">DUST</p>", "conditions": [24, 800, "v", 12000], "internal_node_id": "0.0-172.0", "trial": 6, "time_elapsed": 1047235, "serialpos": 10, "key_press": -1, "wordID": 507, "type": "PRES_VIS", "trial_index": 235}, "uniqueid": "MTK1955:3JBT3HLQF99466VMUDRMHVOZWD5PZG", "dateTime": 1516637331657}, {"current_trial": 236, "trialdata": {"rt": -1, "trial_type": "single-stim", "word": "cafe", "stimulus": "<p id=\"stim\">CAFE</p>", "conditions": [24, 800, "v", 12000], "internal_node_id": "0.0-173.0", "trial": 6, "time_elapsed": 1048846, "serialpos": 11, "key_press": -1, "wordID": 215, "type": "PRES_VIS", "trial_index": 236}, "uniqueid": "MTK1955:3JBT3HLQF99466VMUDRMHVOZWD5PZG", "dateTime": 1516637333269}, {"current_trial": 237, "trialdata": {"rt": -1, "trial_type": "single-stim", "word": "rust", "stimulus": "<p id=\"stim\">RUST</p>", "conditions": [24, 800, "v", 12000], "internal_node_id": "0.0-174.0", "trial": 6, "time_elapsed": 1050686, "serialpos": 12, "key_press": -1, "wordID": 1218, "type": "PRES_VIS", "trial_index": 237}, "uniqueid": "MTK1955:3JBT3HLQF99466VMUDRMHVOZWD5PZG", "dateTime": 1516637335109}, {"current_trial": 238, "trialdata": {"rt": -1, "trial_type": "single-stim", "word": "doughnut", "stimulus": "<p id=\"stim\">DOUGHNUT</p>", "conditions": [24, 800, "v", 12000], "internal_node_id": "0.0-175.0", "trial": 6, "time_elapsed": 1052440, "serialpos": 13, "key_press": -1, "wordID": 489, "type": "PRES_VIS", "trial_index": 238}, "uniqueid": "MTK1955:3JBT3HLQF99466VMUDRMHVOZWD5PZG", "dateTime": 1516637336863}, {"current_trial": 239, "trialdata": {"rt": -1, "trial_type": "single-stim", "word": "peanut", "stimulus": "<p id=\"stim\">PEANUT</p>", "conditions": [24, 800, "v", 12000], "internal_node_id": "0.0-176.0", "trial": 6, "time_elapsed": 1054066, "serialpos": 14, "key_press": -1, "wordID": 1031, "type": "PRES_VIS", "trial_index": 239}, "uniqueid": "MTK1955:3JBT3HLQF99466VMUDRMHVOZWD5PZG", "dateTime": 1516637338488}, {"current_trial": 240, "trialdata": {"rt": -1, "trial_type": "single-stim", "word": "dime", "stimulus": "<p id=\"stim\">DIME</p>", "conditions": [24, 800, "v", 12000], "internal_node_id": "0.0-177.0", "trial": 6, "time_elapsed": 1055920, "serialpos": 15, "key_press": -1, "wordID": 465, "type": "PRES_VIS", "trial_index": 240}, "uniqueid": "MTK1955:3JBT3HLQF99466VMUDRMHVOZWD5PZG", "dateTime": 1516637340342}, {"current_trial": 241, "trialdata": {"rt": -1, "trial_type": "single-stim", "word": "message", "stimulus": "<p id=\"stim\">MESSAGE</p>", "conditions": [24, 800, "v", 12000], "internal_node_id": "0.0-178.0", "trial": 6, "time_elapsed": 1057568, "serialpos": 16, "key_press": -1, "wordID": 887, "type": "PRES_VIS", "trial_index": 241}, "uniqueid": "MTK1955:3JBT3HLQF99466VMUDRMHVOZWD5PZG", "dateTime": 1516637341990}, {"current_trial": 242, "trialdata": {"rt": -1, "trial_type": "single-stim", "word": "sculpture", "stimulus": "<p id=\"stim\">SCULPTURE</p>", "conditions": [24, 800, "v", 12000], "internal_node_id": "0.0-179.0", "trial": 6, "time_elapsed": 1059531, "serialpos": 17, "key_press": -1, "wordID": 1257, "type": "PRES_VIS", "trial_index": 242}, "uniqueid": "MTK1955:3JBT3HLQF99466VMUDRMHVOZWD5PZG", "dateTime": 1516637343953}, {"current_trial": 243, "trialdata": {"rt": -1, "trial_type": "single-stim", "word": "pigment", "stimulus": "<p id=\"stim\">PIGMENT</p>", "conditions": [24, 800, "v", 12000], "internal_node_id": "0.0-180.0", "trial": 6, "time_elapsed": 1061487, "serialpos": 18, "key_press": -1, "wordID": 1065, "type": "PRES_VIS", "trial_index": 243}, "uniqueid": "MTK1955:3JBT3HLQF99466VMUDRMHVOZWD5PZG", "dateTime": 1516637345909}, {"current_trial": 244, "trialdata": {"rt": -1, "trial_type": "single-stim", "word": "slope", "stimulus": "<p id=\"stim\">SLOPE</p>", "conditions": [24, 800, "v", 12000], "internal_node_id": "0.0-181.0", "trial": 6, "time_elapsed": 1063513, "serialpos": 19, "key_press": -1, "wordID": 1327, "type": "PRES_VIS", "trial_index": 244}, "uniqueid": "MTK1955:3JBT3HLQF99466VMUDRMHVOZWD5PZG", "dateTime": 1516637347935}, {"current_trial": 245, "trialdata": {"rt": -1, "trial_type": "single-stim", "word": "nurse", "stimulus": "<p id=\"stim\">NURSE</p>", "conditions": [24, 800, "v", 12000], "internal_node_id": "0.0-182.0", "trial": 6, "time_elapsed": 1065514, "serialpos": 20, "key_press": -1, "wordID": 962, "type": "PRES_VIS", "trial_index": 245}, "uniqueid": "MTK1955:3JBT3HLQF99466VMUDRMHVOZWD5PZG", "dateTime": 1516637349937}, {"current_trial": 246, "trialdata": {"rt": -1, "trial_type": "single-stim", "word": "patient", "stimulus": "<p id=\"stim\">PATIENT</p>", "conditions": [24, 800, "v", 12000], "internal_node_id": "0.0-183.0", "trial": 6, "time_elapsed": 1067248, "serialpos": 21, "key_press": -1, "wordID": 1023, "type": "PRES_VIS", "trial_index": 246}, "uniqueid": "MTK1955:3JBT3HLQF99466VMUDRMHVOZWD5PZG", "dateTime": 1516637351670}, {"current_trial": 247, "trialdata": {"rt": -1, "trial_type": "single-stim", "word": "mildew", "stimulus": "<p id=\"stim\">MILDEW</p>", "conditions": [24, 800, "v", 12000], "internal_node_id": "0.0-184.0", "trial": 6, "time_elapsed": 1069143, "serialpos": 22, "key_press": -1, "wordID": 892, "type": "PRES_VIS", "trial_index": 247}, "uniqueid": "MTK1955:3JBT3HLQF99466VMUDRMHVOZWD5PZG", "dateTime": 1516637353565}, {"current_trial": 248, "trialdata": {"rt": -1, "trial_type": "single-stim", "word": "muffin", "stimulus": "<p id=\"stim\">MUFFIN</p>", "conditions": [24, 800, "v", 12000], "internal_node_id": "0.0-185.0", "trial": 6, "time_elapsed": 1070959, "serialpos": 23, "key_press": -1, "wordID": 928, "type": "PRES_VIS", "trial_index": 248}, "uniqueid": "MTK1955:3JBT3HLQF99466VMUDRMHVOZWD5PZG", "dateTime": 1516637355382}, {"current_trial": 249, "trialdata": {"rt": -1, "trial_type": "single-stim", "stimulus": "", "internal_node_id": "0.0-186.0-0.0", "time_elapsed": 1073466, "key_press": -1, "type": "PRE_RECALL_DELAY", "trial_index": 249}, "uniqueid": "MTK1955:3JBT3HLQF99466VMUDRMHVOZWD5PZG", "dateTime": 1516637357889}, {"current_trial": 250, "trialdata": 