{"assignmentId": "3C8HJ7UOP81YL3Y92XZU0RU4PUNZMT", "workerId": "MTK1612", "questiondata": {"origin": "United States", "strat-rehearsal": "2", "marital": "Married/Domestic Partnership", "education": "Some college", "ethnicity": "Not Hispanic", "color_depth": 24, "distracted": "No", "wrote-notes": "No", "strat-other": "I closed my eyes and repeated and tried to visualize each word. ", "screen_width": 1536, "avail_screen_width": 1536, "avail_screen_height": 824, "strat-image": "85", "language": "english", "gender": "Female", "age": "33", "gender_other": "", "race": ["White"], "strat-categorize": "35", "pixel_depth": 24, "strat-spatial": "5", "strat-story": "6", "race_other": "", "screen_height": 864}, "bonus": 0, "hitId": "31YWE12TE0JO8LTD774IV4LJ5YS7XL", "counterbalance": 1570, "useragent": "Mozilla/5.0 (Windows NT 10.0; Win64; x64) AppleWebKit/537.36 (KHTML, like Gecko) Chrome/63.0.3239.132 Safari/537.36", "eventdata": [{"eventtype": "initialized", "interval": 0, "value": null, "timestamp": 1516046481819}, {"eventtype": "window_resize", "interval": 0, "value": [1540, 816], "timestamp": 1516046481819}, {"eventtype": "focus", "interval": 107984, "value": "off", "timestamp": 1516046589803}, {"eventtype": "focus", "interval": 2342, "value": "on", "timestamp": 1516046592145}, {"eventtype": "window_resize", "interval": 20251, "value": [1536, 774], "timestamp": 1516046612396}, {"eventtype": "focus", "interval": 1834945, "value": "off", "timestamp": 1516048447341}, {"eventtype": "focus", "interval": 3252, "value": "on", "timestamp": 1516048450593}, {"eventtype": "focus", "interval": 1121539, "value": "off", "timestamp": 1516049572132}, {"eventtype": "focus", "interval": 2665, "value": "on", "timestamp": 1516049574797}], "data": [{"current_trial": 0, "trialdata": {"rt": 3063, "trial_type": "text", "internal_node_id": "0.0-0.0", "time_elapsed": 3068, "key_press": 32, "type": "INSTRUCTIONS", "trial_index": 0}, "uniqueid": "MTK1612:3C8HJ7UOP81YL3Y92XZU0RU4PUNZMT", "dateTime": 1516046491203}, {"current_trial": 1, "trialdata": {"rt": 102523, "trial_type": "text", "internal_node_id": "0.0-1.0", "time_elapsed": 105594, "key_press": 32, "type": "INSTRUCTIONS", "trial_index": 1}, "uniqueid": "MTK1612:3C8HJ7UOP81YL3Y92XZU0RU4PUNZMT", "dateTime": 1516046593728}, {"current_trial": 2, "trialdata": {"rt": [6402], "trial_type": "audio-test", "responses": ["ocean"], "internal_node_id": "0.0-2.0", "time_elapsed": 112009, "type": "AUDIO_TEST", "trial_index": 2}, "uniqueid": "MTK1612:3C8HJ7UOP81YL3Y92XZU0RU4PUNZMT", "dateTime": 1516046600143}, {"current_trial": 3, "trialdata": {"rt": [4911], "trial_type": "audio-test", "responses": ["crystal"], "internal_node_id": "0.0-3.0", "time_elapsed": 116923, "type": "AUDIO_TEST", "trial_index": 3}, "uniqueid": "MTK1612:3C8HJ7UOP81YL3Y92XZU0RU4PUNZMT", "dateTime": 1516046605057}, {"current_trial": 4, "trialdata": {"rt": [4836], "trial_type": "audio-test", "responses": ["spice"], "internal_node_id": "0.0-4.0", "time_elapsed": 121761, "type": "AUDIO_TEST", "trial_index": 4}, "uniqueid": "MTK1612:3C8HJ7UOP81YL3Y92XZU0RU4PUNZMT", "dateTime": 1516046609896}, {"current_trial": 5, "trialdata": {"rt": 28500, "trial_type": "survey-text", "responses": "{\"Q0\":\"2 AM\",\"Q1\":\"10:11 AM\",\"Q2\":\"\"}", "internal_node_id": "0.0-5.0", "time_elapsed": 151018, "type": "SLEEP_SURVEY", "trial_index": 5}, "uniqueid": "MTK1612:3C8HJ7UOP81YL3Y92XZU0RU4PUNZMT", "dateTime": 1516046639152}, {"current_trial": 6, "trialdata": {"rt": 43410, "trial_type": "text", "internal_node_id": "0.0-6.0", "time_elapsed": 195431, "key_press": 32, "type": "INSTRUCTIONS", "trial_index": 6}, "uniqueid": "MTK1612:3C8HJ7UOP81YL3Y92XZU0RU4PUNZMT", "dateTime": 1516046683565}, {"current_trial": 7, "trialdata": {"rt": 11524, "trial_type": "text", "internal_node_id": "0.0-7.0", "time_elapsed": 207457, "key_press": 32, "type": "INSTRUCTIONS", "trial_index": 7}, "uniqueid": "MTK1612:3C8HJ7UOP81YL3Y92XZU0RU4PUNZMT", "dateTime": 1516046695591}, {"current_trial": 8, "trialdata": {"rt": 4891, "trial_type": "text", "internal_node_id": "0.0-8.0", "time_elapsed": 212850, "key_press": 32, "type": "INSTRUCTIONS", "trial_index": 8}, "uniqueid": "MTK1612:3C8HJ7UOP81YL3Y92XZU0RU4PUNZMT", "dateTime": 1516046700984}, {"current_trial": 9, "trialdata": {"rt": [2647, 4851, 7355, 9053, 11263, 14014, 16326], "trial_type": "math-distractor", "key_times": [2344, 2647, 4493, 4714, 4851, 7040, 7128, 7355, 8784, 8940, 9053, 10894, 11120, 11263, 13702, 13871, 14014, 15944, 16182, 16326], "responses": ["8", "14", "10", "12", "14", "24", "14"], "num2": [5, 2, 1, 1, 8, 6, 4, 9], "num3": [1, 4, 3, 2, 3, 9, 8, 2], "conditions": [18, 1200, "a", 18000], "internal_node_id": "0.0-9.0", "key_presses": [56, 13, 49, 52, 13, 49, 48, 13, 49, 50, 13, 49, 52, 13, 50, 52, 13, 49, 52, 13], "trial": 0, "time_elapsed": 231864, "type": "DISTRACTOR", "trial_index": 9, "num1": [2, 8, 6, 9, 3, 9, 2, 3]}, "uniqueid": "MTK1612:3C8HJ7UOP81YL3Y92XZU0RU4PUNZMT", "dateTime": 1516046719998}, {"current_trial": 10, "trialdata": {"rt": -1, "trial_type": "single-stim", "stimulus": "<p id=\"stim\">10</p>", "internal_node_id": "0.0-10.0-0.0", "time_elapsed": 234870, "key_press": -1, "trial_index": 10}, "uniqueid": "MTK1612:3C8HJ7UOP81YL3Y92XZU0RU4PUNZMT", "dateTime": 1516046723004}, {"current_trial": 11, "trialdata": {"rt": -1, "trial_type": "single-stim", "stimulus": "<p id=\"stim\">9</p>", "internal_node_id": "0.0-10.0-1.0", "time_elapsed": 235873, "key_press": -1, "trial_index": 11}, "uniqueid": "MTK1612:3C8HJ7UOP81YL3Y92XZU0RU4PUNZMT", "dateTime": 1516046724007}, {"current_trial": 12, "trialdata": {"rt": -1, "trial_type": "single-stim", "stimulus": "<p id=\"stim\">8</p>", "internal_node_id": "0.0-10.0-2.0", "time_elapsed": 236876, "key_press": -1, "trial_index": 12}, "uniqueid": "MTK1612:3C8HJ7UOP81YL3Y92XZU0RU4PUNZMT", "dateTime": 1516046725011}, {"current_trial": 13, "trialdata": {"rt": -1, "trial_type": "single-stim", "stimulus": "<p id=\"stim\">7</p>", "internal_node_id": "0.0-10.0-3.0", "time_elapsed": 237881, "key_press": -1, "trial_index": 13}, "uniqueid": "MTK1612:3C8HJ7UOP81YL3Y92XZU0RU4PUNZMT", "dateTime": 1516046726015}, {"current_trial": 14, "trialdata": {"rt": -1, "trial_type": "single-stim", "stimulus": "<p id=\"stim\">6</p>", "internal_node_id": "0.0-10.0-4.0", "time_elapsed": 238883, "key_press": -1, "trial_index": 14}, "uniqueid": "MTK1612:3C8HJ7UOP81YL3Y92XZU0RU4PUNZMT", "dateTime": 1516046727017}, {"current_trial": 15, "trialdata": {"rt": -1, "trial_type": "single-stim", "stimulus": "<p id=\"stim\">5</p>", "internal_node_id": "0.0-10.0-5.0", "time_elapsed": 239885, "key_press": -1, "trial_index": 15}, "uniqueid": "MTK1612:3C8HJ7UOP81YL3Y92XZU0RU4PUNZMT", "dateTime": 1516046728019}, {"current_trial": 16, "trialdata": {"rt": -1, "trial_type": "single-stim", "stimulus": "<p id=\"stim\">4</p>", "internal_node_id": "0.0-10.0-6.0", "time_elapsed": 240887, "key_press": -1, "trial_index": 16}, "uniqueid": "MTK1612:3C8HJ7UOP81YL3Y92XZU0RU4PUNZMT", "dateTime": 1516046729021}, {"current_trial": 17, "trialdata": {"rt": -1, "trial_type": "single-stim", "stimulus": "<p id=\"stim\">3</p>", "internal_node_id": "0.0-10.0-7.0", "time_elapsed": 241889, "key_press": -1, "trial_index": 17}, "uniqueid": "MTK1612:3C8HJ7UOP81YL3Y92XZU0RU4PUNZMT", "dateTime": 1516046730023}, {"current_trial": 18, "trialdata": {"rt": -1, "trial_type": "single-stim", "stimulus": "<p id=\"stim\">2</p>", "internal_node_id": "0.0-10.0-8.0", "time_elapsed": 242893, "key_press": -1, "trial_index": 18}, "uniqueid": "MTK1612:3C8HJ7UOP81YL3Y92XZU0RU4PUNZMT", "dateTime": 1516046731027}, {"current_trial": 19, "trialdata": {"rt": -1, "trial_type": "single-stim", "stimulus": "<p id=\"stim\">1</p>", "internal_node_id": "0.0-10.0-9.0", "time_elapsed": 243898, "key_press": -1, "trial_index": 19}, "uniqueid": "MTK1612:3C8HJ7UOP81YL3Y92XZU0RU4PUNZMT", "dateTime": 1516046732032}, {"current_trial": 20, "trialdata": {"rt": -1, "trial_type": "single-stim", "stimulus": "<p id=\"stim\">+</p>", "internal_node_id": "0.0-11.0-0.0", "time_elapsed": 245400, "key_press": -1, "type": "FIXATION", "trial_index": 20}, "uniqueid": "MTK1612:3C8HJ7UOP81YL3Y92XZU0RU4PUNZMT", "dateTime": 1516046733535}, {"current_trial": 21, "trialdata": {"rt": -1000, "trial_type": "single-audio", "word": "cottage", "stimulus": "/static/audio/wordpool/COTTAGE.wav", "conditions": [18, 1200, "a", 18000], "internal_node_id": "0.0-12.0", "trial": 0, "time_elapsed": 247633, "serialpos": 0, "key_press": -1, "wordID": 383, "type": "PRES_AUD", "trial_index": 21}, "uniqueid": "MTK1612:3C8HJ7UOP81YL3Y92XZU0RU4PUNZMT", "dateTime": 1516046735767}, {"current_trial": 22, "trialdata": {"rt": -1000, "trial_type": "single-audio", "word": "notebook", "stimulus": "/static/audio/wordpool/NOTEBOOK.wav", "conditions": [18, 1200, "a", 18000], "internal_node_id": "0.0-13.0", "trial": 0, "time_elapsed": 249668, "serialpos": 1, "key_press": -1, "wordID": 958, "type": "PRES_AUD", "trial_index": 22}, "uniqueid": "MTK1612:3C8HJ7UOP81YL3Y92XZU0RU4PUNZMT", "dateTime": 1516046737802}, {"current_trial": 23, "trialdata": {"rt": -1000, "trial_type": "single-audio", "word": "empire", "stimulus": "/static/audio/wordpool/EMPIRE.wav", "conditions": [18, 1200, "a", 18000], "internal_node_id": "0.0-14.0", "trial": 0, "time_elapsed": 251717, "serialpos": 2, "key_press": -1, "wordID": 529, "type": "PRES_AUD", "trial_index": 23}, "uniqueid": "MTK1612:3C8HJ7UOP81YL3Y92XZU0RU4PUNZMT", "dateTime": 1516046739851}, {"current_trial": 24, "trialdata": {"rt": -1000, "trial_type": "single-audio", "word": "farmer", "stimulus": "/static/audio/wordpool/FARMER.wav", "conditions": [18, 1200, "a", 18000], "internal_node_id": "0.0-15.0", "trial": 0, "time_elapsed": 254044, "serialpos": 3, "key_press": -1, "wordID": 552, "type": "PRES_AUD", "trial_index": 24}, "uniqueid": "MTK1612:3C8HJ7UOP81YL3Y92XZU0RU4PUNZMT", "dateTime": 1516046742179}, {"current_trial": 25, "trialdata": {"rt": -1000, "trial_type": "single-audio", "word": "trout", "stimulus": "/static/audio/wordpool/TROUT.wav", "conditions": [18, 1200, "a", 18000], "internal_node_id": "0.0-16.0", "trial": 0, "time_elapsed": 256324, "serialpos": 4, "key_press": -1, "wordID": 1510, "type": "PRES_AUD", "trial_index": 25}, "uniqueid": "MTK1612:3C8HJ7UOP81YL3Y92XZU0RU4PUNZMT", "dateTime": 1516046744458}, {"current_trial": 26, "trialdata": {"rt": -1000, "trial_type": "single-audio", "word": "blade", "stimulus": "/static/audio/wordpool/BLADE.wav", "conditions": [18, 1200, "a", 18000], "internal_node_id": "0.0-17.0", "trial": 0, "time_elapsed": 258609, "serialpos": 5, "key_press": -1, "wordID": 133, "type": "PRES_AUD", "trial_index": 26}, "uniqueid": "MTK1612:3C8HJ7UOP81YL3Y92XZU0RU4PUNZMT", "dateTime": 1516046746743}, {"current_trial": 27, "trialdata": {"rt": -1000, "trial_type": "single-audio", "word": "rabbit", "stimulus": "/static/audio/wordpool/RABBIT.wav", "conditions": [18, 1200, "a", 18000], "internal_node_id": "0.0-18.0", "trial": 0, "time_elapsed": 260730, "serialpos": 6, "key_press": -1, "wordID": 1151, "type": "PRES_AUD", "trial_index": 27}, "uniqueid": "MTK1612:3C8HJ7UOP81YL3Y92XZU0RU4PUNZMT", "dateTime": 1516046748864}, {"current_trial": 28, "trialdata": {"rt": -1000, "trial_type": "single-audio", "word": "captive", "stimulus": "/static/audio/wordpool/CAPTIVE.wav", "conditions": [18, 1200, "a", 18000], "internal_node_id": "0.0-19.0", "trial": 0, "time_elapsed": 263034, "serialpos": 7, "key_press": -1, "wordID": 239, "type": "PRES_AUD", "trial_index": 28}, "uniqueid": "MTK1612:3C8HJ7UOP81YL3Y92XZU0RU4PUNZMT", "dateTime": 1516046751168}, {"current_trial": 29, "trialdata": {"rt": -1000, "trial_type": "single-audio", "word": "pastry", "stimulus": "/static/audio/wordpool/PASTRY.wav", "conditions": [18, 1200, "a", 18000], "internal_node_id": "0.0-20.0", "trial": 0, "time_elapsed": 265162, "serialpos": 8, "key_press": -1, "wordID": 1021, "type": "PRES_AUD", "trial_index": 29}, "uniqueid": "MTK1612:3C8HJ7UOP81YL3Y92XZU0RU4PUNZMT", "dateTime": 1516046753296}, {"current_trial": 30, "trialdata": {"rt": -1000, "trial_type": "single-audio", "word": "female", "stimulus": "/static/audio/wordpool/FEMALE.wav", "conditions": [18, 1200, "a", 18000], "internal_node_id": "0.0-21.0", "trial": 0, "time_elapsed": 267323, "serialpos": 9, "key_press": -1, "wordID": 558, "type": "PRES_AUD", "trial_index": 30}, "uniqueid": "MTK1612:3C8HJ7UOP81YL3Y92XZU0RU4PUNZMT", "dateTime": 1516046755457}, {"current_trial": 31, "trialdata": {"rt": -1000, "trial_type": "single-audio", "word": "balloon", "stimulus": "/static/audio/wordpool/BALLOON.wav", "conditions": [18, 1200, "a", 18000], "internal_node_id": "0.0-22.0", "trial": 0, "time_elapsed": 269331, "serialpos": 10, "key_press": -1, "wordID": 74, "type": "PRES_AUD", "trial_index": 31}, "uniqueid": "MTK1612:3C8HJ7UOP81YL3Y92XZU0RU4PUNZMT", "dateTime": 1516046757465}, {"current_trial": 32, "trialdata": {"rt": -1000, "trial_type": "single-audio", "word": "hawk", "stimulus": "/static/audio/wordpool/HAWK.wav", "conditions": [18, 1200, "a", 18000], "internal_node_id": "0.0-23.0", "trial": 0, "time_elapsed": 271452, "serialpos": 11, "key_press": -1, "wordID": 691, "type": "PRES_AUD", "trial_index": 32}, "uniqueid": "MTK1612:3C8HJ7UOP81YL3Y92XZU0RU4PUNZMT", "dateTime": 1516046759586}, {"current_trial": 33, "trialdata": {"rt": -1000, "trial_type": "single-audio", "word": "convict", "stimulus": "/static/audio/wordpool/CONVICT.wav", "conditions": [18, 1200, "a", 18000], "internal_node_id": "0.0-24.0", "trial": 0, "time_elapsed": 273609, "serialpos": 12, "key_press": -1, "wordID": 370, "type": "PRES_AUD", "trial_index": 33}, "uniqueid": "MTK1612:3C8HJ7UOP81YL3Y92XZU0RU4PUNZMT", "dateTime": 1516046761743}, {"current_trial": 34, "trialdata": {"rt": -1000, "trial_type": "single-audio", "word": "poison", "stimulus": "/static/audio/wordpool/POISON.wav", "conditions": [18, 1200, "a", 18000], "internal_node_id": "0.0-25.0", "trial": 0, "time_elapsed": 275981, "serialpos": 13, "key_press": -1, "wordID": 1095, "type": "PRES_AUD", "trial_index": 34}, "uniqueid": "MTK1612:3C8HJ7UOP81YL3Y92XZU0RU4PUNZMT", "dateTime": 1516046764115}, {"current_trial": 35, "trialdata": {"rt": -1000, "trial_type": "single-audio", "word": "lover", "stimulus": "/static/audio/wordpool/LOVER.wav", "conditions": [18, 1200, "a", 18000], "internal_node_id": "0.0-26.0", "trial": 0, "time_elapsed": 278368, "serialpos": 14, "key_press": -1, "wordID": 845, "type": "PRES_AUD", "trial_index": 35}, "uniqueid": "MTK1612:3C8HJ7UOP81YL3Y92XZU0RU4PUNZMT", "dateTime": 1516046766502}, {"current_trial": 36, "trialdata": {"rt": -1000, "trial_type": "single-audio", "word": "label", "stimulus": "/static/audio/wordpool/LABEL.wav", "conditions": [18, 1200, "a", 18000], "internal_node_id": "0.0-27.0", "trial": 0, "time_elapsed": 280499, "serialpos": 15, "key_press": -1, "wordID": 789, "type": "PRES_AUD", "trial_index": 36}, "uniqueid": "MTK1612:3C8HJ7UOP81YL3Y92XZU0RU4PUNZMT", "dateTime": 1516046768633}, {"current_trial": 37, "trialdata": {"rt": -1000, "trial_type": "single-audio", "word": "servant", "stimulus": "/static/audio/wordpool/SERVANT.wav", "conditions": [18, 1200, "a", 18000], "internal_node_id": "0.0-28.0", "trial": 0, "time_elapsed": 282652, "serialpos": 16, "key_press": -1, "wordID": 1270, "type": "PRES_AUD", "trial_index": 37}, "uniqueid": "MTK1612:3C8HJ7UOP81YL3Y92XZU0RU4PUNZMT", "dateTime": 1516046770787}, {"current_trial": 38, "trialdata": {"rt": -1000, "trial_type": "single-audio", "word": "boyfriend", "stimulus": "/static/audio/wordpool/BOYFRIEND.wav", "conditions": [18, 1200, "a", 18000], "internal_node_id": "0.0-29.0", "trial": 0, "time_elapsed": 284686, "serialpos": 17, "key_press": -1, "wordID": 161, "type": "PRES_AUD", "trial_index": 38}, "uniqueid": "MTK1612:3C8HJ7UOP81YL3Y92XZU0RU4PUNZMT", "dateTime": 1516046772820}, {"current_trial": 39, "trialdata": {"rt": -1, "trial_type": "single-stim", "stimulus": "", "internal_node_id": "0.0-30.0-0.0", "time_elapsed": 285999, "key_press": -1, "type": "PRE_RECALL_DELAY", "trial_index": 39}, "uniqueid": "MTK1612:3C8HJ7UOP81YL3Y92XZU0RU4PUNZMT", "dateTime": 1516046774133}, {"current_trial": 40, "trialdata": {"rt": -1000, "trial_type": "single-audio", "stimulus": "/static/audio/400Hz.wav", "internal_node_id": "0.0-31.0", "time_elapsed": 286501, "key_press": -1, "type": "PRE_RECALL_ALERT", "trial_index": 40}, "uniqueid": "MTK1612:3C8HJ7UOP81YL3Y92XZU0RU4PUNZMT", "dateTime": 1516046774635}, {"current_trial": 41, "trialdata": {"rt": [2873, 4594, 6164, 8362, 9777, 17868, 22281, 44952], "recwords": ["boyfriend", "servant", "cottage", "hawk", "blade", "notebook", "lover", ""], "key_times": [1426, 1576, 1833, 1992, 2159, 2267, 2388, 2522, 2659, 2873, 3436, 3622, 3790, 4011, 4157, 4284, 4433, 4594, 5100, 5244, 5384, 5498, 5718, 5826, 5931, 6164, 7548, 7663, 7878, 8058, 8362, 9032, 9194, 9292, 9460, 9620, 9777, 16244, 16455, 16714, 16862, 17124, 17267, 17398, 17590, 17868, 21539, 21742, 21859, 22003, 22132, 22281, 44952], "trial_type": "free-recall", "conditions": [18, 1200, "a", 18000], "internal_node_id": "0.0-32.0-0.0", "key_presses": [66, 79, 89, 70, 82, 73, 69, 78, 68, 32, 83, 69, 82, 86, 65, 78, 84, 32, 67, 79, 84, 84, 65, 71, 69, 32, 72, 65, 87, 75, 32, 66, 76, 65, 68, 69, 32, 78, 79, 84, 69, 66, 79, 79, 75, 32, 76, 79, 86, 69, 82, 32, 13], "trial": 0, "time_elapsed": 346507, "type": "FREE_RECALL", "trial_index": 41}, "uniqueid": "MTK1612:3C8HJ7UOP81YL3Y92XZU0RU4PUNZMT", "dateTime": 1516046834644}, {"current_trial": 42, "trialdata": {"rt": 1317, "trial_type": "text", "internal_node_id": "0.0-33.0", "time_elapsed": 349831, "key_press": 32, "type": "INSTRUCTIONS", "trial_index": 42}, "uniqueid": "MTK1612:3C8HJ7UOP81YL3Y92XZU0RU4PUNZMT", "dateTime": 1516046837965}, {"current_trial": 43, "trialdata": {"rt": [2191, 4106, 5991, 8009, 10342, 12478, 14116, 16015], "trial_type": "math-distractor", "key_times": [1852, 1998, 2191, 3783, 3910, 4106, 5618, 5749, 5991, 7751, 7881, 8009, 9968, 10135, 10342, 12041, 12358, 12478, 13807, 14015, 14116, 15735, 15856, 16015, 17709], "responses": ["19", "10", "16", "11", "17", "15", "14", "12"], "num2": [4, 4, 8, 2, 6, 4, 4, 4, 8], "num3": [9, 3, 6, 2, 4, 7, 8, 5, 8], "conditions": [18, 1200, "a", 18000], "internal_node_id": "0.0-34.0", "key_presses": [49, 57, 13, 49, 48, 13, 49, 54, 13, 49, 49, 13, 49, 55, 13, 49, 53, 13, 49, 52, 13, 49, 50, 13, 49], "trial": 1, "time_elapsed": 369836, "type": "DISTRACTOR", "trial_index": 43, "num1": [6, 6, 2, 7, 7, 4, 2, 3, 1]}, "uniqueid": "MTK1612:3C8HJ7UOP81YL3Y92XZU0RU4PUNZMT", "dateTime": 1516046857970}, {"current_trial": 44, "trialdata": {"rt": -1, "trial_type": "single-stim", "stimulus": "<p id=\"stim\">10</p>", "internal_node_id": "0.0-35.0-0.0", "time_elapsed": 372843, "key_press": -1, "trial_index": 44}, "uniqueid": "MTK1612:3C8HJ7UOP81YL3Y92XZU0RU4PUNZMT", "dateTime": 1516046860977}, {"current_trial": 45, "trialdata": {"rt": -1, "trial_type": "single-stim", "stimulus": "<p id=\"stim\">9</p>", "internal_node_id": "0.0-35.0-1.0", "time_elapsed": 373847, "key_press": -1, "trial_index": 45}, "uniqueid": "MTK1612:3C8HJ7UOP81YL3Y92XZU0RU4PUNZMT", "dateTime": 1516046861981}, {"current_trial": 46, "trialdata": {"rt": -1, "trial_type": "single-stim", "stimulus": "<p id=\"stim\">8</p>", "internal_node_id": "0.0-35.0-2.0", "time_elapsed": 374850, "key_press": -1, "trial_index": 46}, "uniqueid": "MTK1612:3C8HJ7UOP81YL3Y92XZU0RU4PUNZMT", "dateTime": 1516046862984}, {"current_trial": 47, "trialdata": {"rt": -1, "trial_type": "single-stim", "stimulus": "<p id=\"stim\">7</p>", "internal_node_id": "0.0-35.0-3.0", "time_elapsed": 375852, "key_press": -1, "trial_index": 47}, "uniqueid": "MTK1612:3C8HJ7UOP81YL3Y92XZU0RU4PUNZMT", "dateTime": 1516046863986}, {"current_trial": 48, "trialdata": {"rt": -1, "trial_type": "single-stim", "stimulus": "<p id=\"stim\">6</p>", "internal_node_id": "0.0-35.0-4.0", "time_elapsed": 376854, "key_press": -1, "trial_index": 48}, "uniqueid": "MTK1612:3C8HJ7UOP81YL3Y92XZU0RU4PUNZMT", "dateTime": 1516046864988}, {"current_trial": 49, "trialdata": {"rt": -1, "trial_type": "single-stim", "stimulus": "<p id=\"stim\">5</p>", "internal_node_id": "0.0-35.0-5.0", "time_elapsed": 377858, "key_press": -1, "trial_index": 49}, "uniqueid": "MTK1612:3C8HJ7UOP81YL3Y92XZU0RU4PUNZMT", "dateTime": 1516046865993}, {"current_trial": 50, "trialdata": {"rt": -1, "trial_type": "single-stim", "stimulus": "<p id=\"stim\">4</p>", "internal_node_id": "0.0-35.0-6.0", "time_elapsed": 378860, "key_press": -1, "trial_index": 50}, "uniqueid": "MTK1612:3C8HJ7UOP81YL3Y92XZU0RU4PUNZMT", "dateTime": 1516046866994}, {"current_trial": 51, "trialdata": {"rt": -1, "trial_type": "single-stim", "stimulus": "<p id=\"stim\">3</p>", "internal_node_id": "0.0-35.0-7.0", "time_elapsed": 379862, "key_press": -1, "trial_index": 51}, "uniqueid": "MTK1612:3C8HJ7UOP81YL3Y92XZU0RU4PUNZMT", "dateTime": 1516046867996}, {"current_trial": 52, "trialdata": {"rt": -1, "trial_type": "single-stim", "stimulus": "<p id=\"stim\">2</p>", "internal_node_id": "0.0-35.0-8.0", "time_elapsed": 380867, "key_press": -1, "trial_index": 52}, "uniqueid": "MTK1612:3C8HJ7UOP81YL3Y92XZU0RU4PUNZMT", "dateTime": 1516046869001}, {"current_trial": 53, "trialdata": {"rt": -1, "trial_type": "single-stim", "stimulus": "<p id=\"stim\">1</p>", "internal_node_id": "0.0-35.0-9.0", "time_elapsed": 381871, "key_press": -1, "trial_index": 53}, "uniqueid": "MTK1612:3C8HJ7UOP81YL3Y92XZU0RU4PUNZMT", "dateTime": 1516046870006}, {"current_trial": 54, "trialdata": {"rt": -1, "trial_type": "single-stim", "stimulus": "<p id=\"stim\">+</p>", "internal_node_id": "0.0-36.0-0.0", "time_elapsed": 383376, "key_press": -1, "type": "FIXATION", "trial_index": 54}, "uniqueid": "MTK1612:3C8HJ7UOP81YL3Y92XZU0RU4PUNZMT", "dateTime": 1516046871510}, {"current_trial": 55, "trialdata": {"rt": -1000, "trial_type": "single-audio", "word": "permit", "stimulus": "/static/audio/wordpool/PERMIT.wav", "conditions": [18, 1200, "a", 18000], "internal_node_id": "0.0-37.0", "trial": 1, "time_elapsed": 385725, "serialpos": 0, "key_press": -1, "wordID": 1050, "type": "PRES_AUD", "trial_index": 55}, "uniqueid": "MTK1612:3C8HJ7UOP81YL3Y92XZU0RU4PUNZMT", "dateTime": 1516046873859}, {"current_trial": 56, "trialdata": {"rt": 1219.9999999999704, "trial_type": "single-audio", "word": "iceberg", "stimulus": "/static/audio/wordpool/ICEBERG.wav", "conditions": [18, 1200, "a", 18000], "internal_node_id": "0.0-38.0", "trial": 1, "time_elapsed": 387869, "serialpos": 1, "key_press": 175, "wordID": 730, "type": "PRES_AUD", "trial_index": 56}, "uniqueid": "MTK1612:3C8HJ7UOP81YL3Y92XZU0RU4PUNZMT", "dateTime": 1516046876003}, {"current_trial": 57, "trialdata": {"rt": 19.99999999998181, "trial_type": "single-audio", "word": "statue", "stimulus": "/static/audio/wordpool/STATUE.wav", "conditions": [18, 1200, "a", 18000], "internal_node_id": "0.0-39.0", "trial": 1, "time_elapsed": 389896, "serialpos": 2, "key_press": 175, "wordID": 1373, "type": "PRES_AUD", "trial_index": 57}, "uniqueid": "MTK1612:3C8HJ7UOP81YL3Y92XZU0RU4PUNZMT", "dateTime": 1516046878030}, {"current_trial": 58, "trialdata": {"rt": -1000, "trial_type": "single-audio", "word": "island", "stimulus": "/static/audio/wordpool/ISLAND.wav", "conditions": [18, 1200, "a", 18000], "internal_node_id": "0.0-40.0", "trial": 1, "time_elapsed": 391981, "serialpos": 3, "key_press": -1, "wordID": 744, "type": "PRES_AUD", "trial_index": 58}, "uniqueid": "MTK1612:3C8HJ7UOP81YL3Y92XZU0RU4PUNZMT", "dateTime": 1516046880115}, {"current_trial": 59, "trialdata": {"rt": -1000, "trial_type": "single-audio", "word": "racket", "stimulus": "/static/audio/wordpool/RACKET.wav", "conditions": [18, 1200, "a", 18000], "internal_node_id": "0.0-41.0", "trial": 1, "time_elapsed": 394094, "serialpos": 4, "key_press": -1, "wordID": 1154, "type": "PRES_AUD", "trial_index": 59}, "uniqueid": "MTK1612:3C8HJ7UOP81YL3Y92XZU0RU4PUNZMT", "dateTime": 1516046882228}, {"current_trial": 60, "trialdata": {"rt": -1000, "trial_type": "single-audio", "word": "cashier", "stimulus": "/static/audio/wordpool/CASHIER.wav", "conditions": [18, 1200, "a", 18000], "internal_node_id": "0.0-42.0", "trial": 1, "time_elapsed": 396272, "serialpos": 5, "key_press": -1, "wordID": 253, "type": "PRES_AUD", "trial_index": 60}, "uniqueid": "MTK1612:3C8HJ7UOP81YL3Y92XZU0RU4PUNZMT", "dateTime": 1516046884406}, {"current_trial": 61, "trialdata": {"rt": -1000, "trial_type": "single-audio", "word": "cloud", "stimulus": "/static/audio/wordpool/CLOUD.wav", "conditions": [18, 1200, "a", 18000], "internal_node_id": "0.0-43.0", "trial": 1, "time_elapsed": 398365, "serialpos": 6, "key_press": -1, "wordID": 327, "type": "PRES_AUD", "trial_index": 61}, "uniqueid": "MTK1612:3C8HJ7UOP81YL3Y92XZU0RU4PUNZMT", "dateTime": 1516046886499}, {"current_trial": 62, "trialdata": {"rt": -1000, "trial_type": "single-audio", "word": "atlas", "stimulus": "/static/audio/wordpool/ATLAS.wav", "conditions": [18, 1200, "a", 18000], "internal_node_id": "0.0-44.0", "trial": 1, "time_elapsed": 400467, "serialpos": 7, "key_press": -1, "wordID": 52, "type": "PRES_AUD", "trial_index": 62}, "uniqueid": "MTK1612:3C8HJ7UOP81YL3Y92XZU0RU4PUNZMT", "dateTime": 1516046888601}, {"current_trial": 63, "trialdata": {"rt": -1000, "trial_type": "single-audio", "word": "chest", "stimulus": "/static/audio/wordpool/CHEST.wav", "conditions": [18, 1200, "a", 18000], "internal_node_id": "0.0-45.0", "trial": 1, "time_elapsed": 402599, "serialpos": 8, "key_press": -1, "wordID": 294, "type": "PRES_AUD", "trial_index": 63}, "uniqueid": "MTK1612:3C8HJ7UOP81YL3Y92XZU0RU4PUNZMT", "dateTime": 1516046890733}, {"current_trial": 64, "trialdata": {"rt": -1000, "trial_type": "single-audio", "word": "snack", "stimulus": "/static/audio/wordpool/SNACK.wav", "conditions": [18, 1200, "a", 18000], "internal_node_id": "0.0-46.0", "trial": 1, "time_elapsed": 404626, "serialpos": 9, "key_press": -1, "wordID": 1330, "type": "PRES_AUD", "trial_index": 64}, "uniqueid": "MTK1612:3C8HJ7UOP81YL3Y92XZU0RU4PUNZMT", "dateTime": 1516046892760}, {"current_trial": 65, "trialdata": {"rt": -1000, "trial_type": "single-audio", "word": "skirt", "stimulus": "/static/audio/wordpool/SKIRT.wav", "conditions": [18, 1200, "a", 18000], "internal_node_id": "0.0-47.0", "trial": 1, "time_elapsed": 406721, "serialpos": 10, "key_press": -1, "wordID": 1318, "type": "PRES_AUD", "trial_index": 65}, "uniqueid": "MTK1612:3C8HJ7UOP81YL3Y92XZU0RU4PUNZMT", "dateTime": 1516046894855}, {"current_trial": 66, "trialdata": {"rt": -1000, "trial_type": "single-audio", "word": "pluto", "stimulus": "/static/audio/wordpool/PLUTO.wav", "conditions": [18, 1200, "a", 18000], "internal_node_id": "0.0-48.0", "trial": 1, "time_elapsed": 408865, "serialpos": 11, "key_press": -1, "wordID": 1091, "type": "PRES_AUD", "trial_index": 66}, "uniqueid": "MTK1612:3C8HJ7UOP81YL3Y92XZU0RU4PUNZMT", "dateTime": 1516046896999}, {"current_trial": 67, "trialdata": {"rt": -1000, "trial_type": "single-audio", "word": "dentist", "stimulus": "/static/audio/wordpool/DENTIST.wav", "conditions": [18, 1200, "a", 18000], "internal_node_id": "0.0-49.0", "trial": 1, "time_elapsed": 411057, "serialpos": 12, "key_press": -1, "wordID": 446, "type": "PRES_AUD", "trial_index": 67}, "uniqueid": "MTK1612:3C8HJ7UOP81YL3Y92XZU0RU4PUNZMT", "dateTime": 1516046899191}, {"current_trial": 68, "trialdata": {"rt": -1000, "trial_type": "single-audio", "word": "toaster", "stimulus": "/static/audio/wordpool/TOASTER.wav", "conditions": [18, 1200, "a", 18000], "internal_node_id": "0.0-50.0", "trial": 1, "time_elapsed": 413228, "serialpos": 13, "key_press": -1, "wordID": 1471, "type": "PRES_AUD", "trial_index": 68}, "uniqueid": "MTK1612:3C8HJ7UOP81YL3Y92XZU0RU4PUNZMT", "dateTime": 1516046901366}, {"current_trial": 69, "trialdata": {"rt": -1000, "trial_type": "single-audio", "word": "sibling", "stimulus": "/static/audio/wordpool/SIBLING.wav", "conditions": [18, 1200, "a", 18000], "internal_node_id": "0.0-51.0", "trial": 1, "time_elapsed": 415276, "serialpos": 14, "key_press": -1, "wordID": 1300, "type": "PRES_AUD", "trial_index": 69}, "uniqueid": "MTK1612:3C8HJ7UOP81YL3Y92XZU0RU4PUNZMT", "dateTime": 1516046903410}, {"current_trial": 70, "trialdata": {"rt": -1000, "trial_type": "single-audio", "word": "grave", "stimulus": "/static/audio/wordpool/GRAVE.wav", "conditions": [18, 1200, "a", 18000], "internal_node_id": "0.0-52.0", "trial": 1, "time_elapsed": 417548, "serialpos": 15, "key_press": -1, "wordID": 657, "type": "PRES_AUD", "trial_index": 70}, "uniqueid": "MTK1612:3C8HJ7UOP81YL3Y92XZU0RU4PUNZMT", "dateTime": 1516046905682}, {"current_trial": 71, "trialdata": {"rt": -1000, "trial_type": "single-audio", "word": "woman", "stimulus": "/static/audio/wordpool/WOMAN.wav", "conditions": [18, 1200, "a", 18000], "internal_node_id": "0.0-53.0", "trial": 1, "time_elapsed": 419743, "serialpos": 16, "key_press": -1, "wordID": 1619, "type": "PRES_AUD", "trial_index": 71}, "uniqueid": "MTK1612:3C8HJ7UOP81YL3Y92XZU0RU4PUNZMT", "dateTime": 1516046907877}, {"current_trial": 72, "trialdata": {"rt": -1000, "trial_type": "single-audio", "word": "quarter", "stimulus": "/static/audio/wordpool/QUARTER.wav", "conditions": [18, 1200, "a", 18000], "internal_node_id": "0.0-54.0", "trial": 1, "time_elapsed": 421835, "serialpos": 17, "key_press": -1, "wordID": 1147, "type": "PRES_AUD", "trial_index": 72}, "uniqueid": "MTK1612:3C8HJ7UOP81YL3Y92XZU0RU4PUNZMT", "dateTime": 1516046909969}, {"current_trial": 73, "trialdata": {"rt": -1, "trial_type": "single-stim", "stimulus": "", "internal_node_id": "0.0-55.0-0.0", "time_elapsed": 423211, "key_press": -1, "type": "PRE_RECALL_DELAY", "trial_index": 73}, "uniqueid": "MTK1612:3C8HJ7UOP81YL3Y92XZU0RU4PUNZMT", "dateTime": 1516046911345}, {"current_trial": 74, "trialdata": {"rt": -1000, "trial_type": "single-audio", "stimulus": "/static/audio/400Hz.wav", "internal_node_id": "0.0-56.0", "time_elapsed": 423715, "key_press": -1, "type": "PRE_RECALL_ALERT", "trial_index": 74}, "uniqueid": "MTK1612:3C8HJ7UOP81YL3Y92XZU0RU4PUNZMT", "dateTime": 1516046911849}, {"current_trial": 75, "trialdata": {"rt": [2893, 4431, 5601, 6993, 8712, 10146, 19744], "recwords": ["quarter", "grave", "woman", "skirt", "sibling", "cloud", "quarter"], "key_times": [1472, 1775, 1918, 2188, 2381, 2492, 2642, 2893, 3579, 3683, 3865, 4016, 4141, 4431, 4703, 4833, 4984, 5173, 5302, 5601, 6167, 6349, 6515, 6627, 6772, 6993, 7491, 7705, 7902, 8057, 8268, 8425, 8565, 8712, 9268, 9429, 9635, 9802, 9972, 10146, 18616, 18762, 18892, 19119, 19326, 19465, 19591, 19744], "trial_type": "free-recall", "conditions": [18, 1200, "a", 18000], "internal_node_id": "0.0-57.0-0.0", "key_presses": [81, 85, 65, 82, 84, 69, 82, 32, 71, 82, 65, 86, 69, 32, 87, 79, 77, 65, 78, 32, 83, 75, 73, 82, 84, 32, 83, 73, 66, 76, 73, 78, 71, 32, 67, 76, 79, 85, 68, 32, 81, 85, 65, 82, 84, 69, 82, 32], "trial": 1, "time_elapsed": 483719, "type": "FREE_RECALL", "trial_index": 75}, "uniqueid": "MTK1612:3C8HJ7UOP81YL3Y92XZU0RU4PUNZMT", "dateTime": 1516046971855}, {"current_trial": 76, "trialdata": {"rt": 1918, "trial_type": "text", "internal_node_id": "0.0-58.0", "time_elapsed": 487641, "key_press": 32, "type": "INSTRUCTIONS", "trial_index": 76}, "uniqueid": "MTK1612:3C8HJ7UOP81YL3Y92XZU0RU4PUNZMT", "dateTime": 1516046975775}, {"current_trial": 77, "trialdata": {"rt": [3042, 5979, 8703, 10236, 14593, 16255, 17904, 20324, 22186, 23944], "trial_type": "math-distractor", "key_times": [2623, 2822, 3042, 5646, 5767, 5979, 8273, 8559, 8703, 9926, 10108, 10236, 14125, 14453, 14593, 15837, 16029, 16255, 17490, 17749, 17904, 19853, 20130, 20324, 21970, 22186, 23461, 23707, 23944], "responses": ["23", "19", "15", "13", "26", "18", "15", "10", "9", "17"], "num2": [9, 9, 2, 5, 9, 3, 1, 3, 1, 1, 1], "num3": [7, 8, 9, 5, 9, 8, 6, 4, 4, 7, 8], "conditions": [12, 800, "a", 24000], "internal_node_id": "0.0-59.0", "key_presses": [50, 51, 13, 49, 57, 13, 49, 53, 13, 49, 51, 13, 50, 54, 13, 49, 56, 13, 49, 53, 13, 49, 48, 13, 57, 13, 49, 55, 13], "trial": 2, "time_elapsed": 512644, "type": "DISTRACTOR", "trial_index": 77, "num1": [7, 2, 4, 3, 8, 7, 8, 3, 4, 9, 8]}, "uniqueid": "MTK1612:3C8HJ7UOP81YL3Y92XZU0RU4PUNZMT", "dateTime": 1516047000778}, {"current_trial": 78, "trialdata": {"rt": -1, "trial_type": "single-stim", "stimulus": "<p id=\"stim\">10</p>", "internal_node_id": "0.0-60.0-0.0", "time_elapsed": 515646, "key_press": -1, "trial_index": 78}, "uniqueid": "MTK1612:3C8HJ7UOP81YL3Y92XZU0RU4PUNZMT", "dateTime": 1516047003781}, {"current_trial": 79, "trialdata": {"rt": -1, "trial_type": "single-stim", "stimulus": "<p id=\"stim\">9</p>", "internal_node_id": "0.0-60.0-1.0", "time_elapsed": 516648, "key_press": -1, "trial_index": 79}, "uniqueid": "MTK1612:3C8HJ7UOP81YL3Y92XZU0RU4PUNZMT", "dateTime": 1516047004782}, {"current_trial": 80, "trialdata": {"rt": -1, "trial_type": "single-stim", "stimulus": "<p id=\"stim\">8</p>", "internal_node_id": "0.0-60.0-2.0", "time_elapsed": 517649, "key_press": -1, "trial_index": 80}, "uniqueid": "MTK1612:3C8HJ7UOP81YL3Y92XZU0RU4PUNZMT", "dateTime": 1516047005783}, {"current_trial": 81, "trialdata": {"rt": -1, "trial_type": "single-stim", "stimulus": "<p id=\"stim\">7</p>", "internal_node_id": "0.0-60.0-3.0", "time_elapsed": 518652, "key_press": -1, "trial_index": 81}, "uniqueid": "MTK1612:3C8HJ7UOP81YL3Y92XZU0RU4PUNZMT", "dateTime": 1516047006786}, {"current_trial": 82, "trialdata": {"rt": -1, "trial_type": "single-stim", "stimulus": "<p id=\"stim\">6</p>", "internal_node_id": "0.0-60.0-4.0", "time_elapsed": 519654, "key_press": -1, "trial_index": 82}, "uniqueid": "MTK1612:3C8HJ7UOP81YL3Y92XZU0RU4PUNZMT", "dateTime": 1516047007788}, {"current_trial": 83, "trialdata": {"rt": -1, "trial_type": "single-stim", "stimulus": "<p id=\"stim\">5</p>", "internal_node_id": "0.0-60.0-5.0", "time_elapsed": 520655, "key_press": -1, "trial_index": 83}, "uniqueid": "MTK1612:3C8HJ7UOP81YL3Y92XZU0RU4PUNZMT", "dateTime": 1516047008790}, {"current_trial": 84, "trialdata": {"rt": -1, "trial_type": "single-stim", "stimulus": "<p id=\"stim\">4</p>", "internal_node_id": "0.0-60.0-6.0", "time_elapsed": 521657, "key_press": -1, "trial_index": 84}, "uniqueid": "MTK1612:3C8HJ7UOP81YL3Y92XZU0RU4PUNZMT", "dateTime": 1516047009791}, {"current_trial": 85, "trialdata": {"rt": -1, "trial_type": "single-stim", "stimulus": "<p id=\"stim\">3</p>", "internal_node_id": "0.0-60.0-7.0", "time_elapsed": 522659, "key_press": -1, "trial_index": 85}, "uniqueid": "MTK1612:3C8HJ7UOP81YL3Y92XZU0RU4PUNZMT", "dateTime": 1516047010793}, {"current_trial": 86, "trialdata": {"rt": -1, "trial_type": "single-stim", "stimulus": "<p id=\"stim\">2</p>", "internal_node_id": "0.0-60.0-8.0", "time_elapsed": 523661, "key_press": -1, "trial_index": 86}, "uniqueid": "MTK1612:3C8HJ7UOP81YL3Y92XZU0RU4PUNZMT", "dateTime": 1516047011795}, {"current_trial": 87, "trialdata": {"rt": -1, "trial_type": "single-stim", "stimulus": "<p id=\"stim\">1</p>", "internal_node_id": "0.0-60.0-9.0", "time_elapsed": 524662, "key_press": -1, "trial_index": 87}, "uniqueid": "MTK1612:3C8HJ7UOP81YL3Y92XZU0RU4PUNZMT", "dateTime": 1516047012796}, {"current_trial": 88, "trialdata": {"rt": -1, "trial_type": "single-stim", "stimulus": "<p id=\"stim\">+</p>", "internal_node_id": "0.0-61.0-0.0", "time_elapsed": 526164, "key_press": -1, "type": "FIXATION", "trial_index": 88}, "uniqueid": "MTK1612:3C8HJ7UOP81YL3Y92XZU0RU4PUNZMT", "dateTime": 1516047014299}, {"current_trial": 89, "trialdata": {"rt": -1000, "trial_type": "single-audio", "word": "europe", "stimulus": "/static/audio/wordpool/EUROPE.wav", "conditions": [12, 800, "a", 24000], "internal_node_id": "0.0-62.0", "trial": 2, "time_elapsed": 528141, "serialpos": 0, "key_press": -1, "wordID": 540, "type": "PRES_AUD", "trial_index": 89}, "uniqueid": "MTK1612:3C8HJ7UOP81YL3Y92XZU0RU4PUNZMT", "dateTime": 1516047016276}, {"current_trial": 90, "trialdata": {"rt": -1000, "trial_type": "single-audio", "word": "student", "stimulus": "/static/audio/wordpool/STUDENT.wav", "conditions": [12, 800, "a", 24000], "internal_node_id": "0.0-63.0", "trial": 2, "time_elapsed": 529982, "serialpos": 1, "key_press": -1, "wordID": 1394, "type": "PRES_AUD", "trial_index": 90}, "uniqueid": "MTK1612:3C8HJ7UOP81YL3Y92XZU0RU4PUNZMT", "dateTime": 1516047018117}, {"current_trial": 91, "trialdata": {"rt": -1000, "trial_type": "single-audio", "word": "dorm", "stimulus": "/static/audio/wordpool/DORM.wav", "conditions": [12, 800, "a", 24000], "internal_node_id": "0.0-64.0", "trial": 2, "time_elapsed": 531860, "serialpos": 2, "key_press": -1, "wordID": 487, "type": "PRES_AUD", "trial_index": 91}, "uniqueid": "MTK1612:3C8HJ7UOP81YL3Y92XZU0RU4PUNZMT", "dateTime": 1516047019994}, {"current_trial": 92, "trialdata": {"rt": -1000, "trial_type": "single-audio", "word": "supper", "stimulus": "/static/audio/wordpool/SUPPER.wav", "conditions": [12, 800, "a", 24000], "internal_node_id": "0.0-65.0", "trial": 2, "time_elapsed": 533611, "serialpos": 3, "key_press": -1, "wordID": 1410, "type": "PRES_AUD", "trial_index": 92}, "uniqueid": "MTK1612:3C8HJ7UOP81YL3Y92XZU0RU4PUNZMT", "dateTime": 1516047021745}, {"current_trial": 93, "trialdata": {"rt": -1000, "trial_type": "single-audio", "word": "forehead", "stimulus": "/static/audio/wordpool/FOREHEAD.wav", "conditions": [12, 800, "a", 24000], "internal_node_id": "0.0-66.0", "trial": 2, "time_elapsed": 535550, "serialpos": 4, "key_press": -1, "wordID": 591, "type": "PRES_AUD", "trial_index": 93}, "uniqueid": "MTK1612:3C8HJ7UOP81YL3Y92XZU0RU4PUNZMT", "dateTime": 1516047023685}, {"current_trial": 94, "trialdata": {"rt": -1000, "trial_type": "single-audio", "word": "shark", "stimulus": "/static/audio/wordpool/SHARK.wav", "conditions": [12, 800, "a", 24000], "internal_node_id": "0.0-67.0", "trial": 2, "time_elapsed": 537236, "serialpos": 5, "key_press": -1, "wordID": 1274, "type": "PRES_AUD", "trial_index": 94}, "uniqueid": "MTK1612:3C8HJ7UOP81YL3Y92XZU0RU4PUNZMT", "dateTime": 1516047025371}, {"current_trial": 95, "trialdata": {"rt": -1000, "trial_type": "single-audio", "word": "cobra", "stimulus": "/static/audio/wordpool/COBRA.wav", "conditions": [12, 800, "a", 24000], "internal_node_id": "0.0-68.0", "trial": 2, "time_elapsed": 539030, "serialpos": 6, "key_press": -1, "wordID": 335, "type": "PRES_AUD", "trial_index": 95}, "uniqueid": "MTK1612:3C8HJ7UOP81YL3Y92XZU0RU4PUNZMT", "dateTime": 1516047027164}, {"current_trial": 96, "trialdata": {"rt": -1000, "trial_type": "single-audio", "word": "banquet", "stimulus": "/static/audio/wordpool/BANQUET.wav", "conditions": [12, 800, "a", 24000], "internal_node_id": "0.0-69.0", "trial": 2, "time_elapsed": 540852, "serialpos": 7, "key_press": -1, "wordID": 85, "type": "PRES_AUD", "trial_index": 96}, "uniqueid": "MTK1612:3C8HJ7UOP81YL3Y92XZU0RU4PUNZMT", "dateTime": 1516047028986}, {"current_trial": 97, "trialdata": {"rt": -1000, "trial_type": "single-audio", "word": "pocket", "stimulus": "/static/audio/wordpool/POCKET.wav", "conditions": [12, 800, "a", 24000], "internal_node_id": "0.0-70.0", "trial": 2, "time_elapsed": 542677, "serialpos": 8, "key_press": -1, "wordID": 1092, "type": "PRES_AUD", "trial_index": 97}, "uniqueid": "MTK1612:3C8HJ7UOP81YL3Y92XZU0RU4PUNZMT", "dateTime": 1516047030811}, {"current_trial": 98, "trialdata": {"rt": -1000, "trial_type": "single-audio", "word": "spool", "stimulus": "/static/audio/wordpool/SPOOL.wav", "conditions": [12, 800, "a", 24000], "internal_node_id": "0.0-71.0", "trial": 2, "time_elapsed": 544326, "serialpos": 9, "key_press": -1, "wordID": 1355, "type": "PRES_AUD", "trial_index": 98}, "uniqueid": "MTK1612:3C8HJ7UOP81YL3Y92XZU0RU4PUNZMT", "dateTime": 1516047032460}, {"current_trial": 99, "trialdata": {"rt": -1000, "trial_type": "single-audio", "word": "shirt", "stimulus": "/static/audio/wordpool/SHIRT.wav", "conditions": [12, 800, "a", 24000], "internal_node_id": "0.0-72.0", "trial": 2, "time_elapsed": 546324, "serialpos": 10, "key_press": -1, "wordID": 1286, "type": "PRES_AUD", "trial_index": 99}, "uniqueid": "MTK1612:3C8HJ7UOP81YL3Y92XZU0RU4PUNZMT", "dateTime": 1516047034458}, {"current_trial": 100, "trialdata": {"rt": -1000, "trial_type": "single-audio", "word": "slope", "stimulus": "/static/audio/wordpool/SLOPE.wav", "conditions": [12, 800, "a", 24000], "internal_node_id": "0.0-73.0", "trial": 2, "time_elapsed": 548102, "serialpos": 11, "key_press": -1, "wordID": 1327, "type": "PRES_AUD", "trial_index": 100}, "uniqueid": "MTK1612:3C8HJ7UOP81YL3Y92XZU0RU4PUNZMT", "dateTime": 1516047036236}, {"current_trial": 101, "trialdata": {"rt": -1, "trial_type": "single-stim", "stimulus": "", "internal_node_id": "0.0-74.0-0.0", "time_elapsed": 549436, "key_press": -1, "type": "PRE_RECALL_DELAY", "trial_index": 101}, "uniqueid": "MTK1612:3C8HJ7UOP81YL3Y92XZU0RU4PUNZMT", "dateTime": 1516047037570}, {"current_trial": 102, "trialdata": {"rt": -1000, "trial_type": "single-audio", "stimulus": "/static/audio/400Hz.wav", "internal_node_id": "0.0-75.0", "time_elapsed": 549938, "key_press": -1, "type": "PRE_RECALL_ALERT", "trial_index": 102}, "uniqueid": "MTK1612:3C8HJ7UOP81YL3Y92XZU0RU4PUNZMT", "dateTime": 1516047038072}, {"current_trial": 103, "trialdata": {"rt": [2987, 4683, 6292, 7451, 12795, 26678, 36179], "recwords": ["slope", "shirt", "pocket", "europe", "forehead", "student", "atlas"], "key_times": [1190, 1504, 1668, 1895, 2432, 2987, 3554, 3805, 3935, 4086, 4229, 4683, 5332, 5511, 5694, 5847, 5948, 6133, 6292, 6606, 6764, 6877, 7027, 7192, 7293, 7451, 11587, 11767, 11898, 12073, 12256, 12357, 12524, 12652, 12795, 25565, 25817, 25981, 26139, 26252, 26377, 26484, 26678, 35121, 35350, 35570, 35682, 35808, 36179], "trial_type": "free-recall", "conditions": [12, 800, "a", 24000], "internal_node_id": "0.0-76.0-0.0", "key_presses": [83, 76, 79, 80, 69, 32, 83, 72, 73, 82, 84, 32, 80, 79, 67, 75, 69, 84, 32, 69, 85, 82, 79, 80, 69, 32, 70, 79, 82, 69, 72, 69, 65, 68, 32, 83, 84, 85, 68, 69, 78, 84, 13, 65, 84, 76, 65, 83, 32], "trial": 2, "time_elapsed": 609942, "type": "FREE_RECALL", "trial_index": 103}, "uniqueid": "MTK1612:3C8HJ7UOP81YL3Y92XZU0RU4PUNZMT", "dateTime": 1516047098080}, {"current_trial": 104, "trialdata": {"rt": 2460, "trial_type": "text", "internal_node_id": "0.0-77.0", "time_elapsed": 614407, "key_press": 32, "type": "INSTRUCTIONS", "trial_index": 104}, "uniqueid": "MTK1612:3C8HJ7UOP81YL3Y92XZU0RU4PUNZMT", "dateTime": 1516047102541}, {"current_trial": 105, "trialdata": {"rt": [1702, 3523, 6601, 8847, 11038], "trial_type": "math-distractor", "key_times": [1389, 1549, 1702, 3076, 3408, 3523, 6168, 6315, 6601, 8538, 8708, 8847, 10727, 10905, 11038], "responses": ["13", "16", "17", "14", "14"], "num2": [7, 2, 5, 4, 8, 8], "num3": [3, 7, 3, 8, 2, 7], "conditions": [12, 1600, "a", 12000], "internal_node_id": "0.0-78.0", "key_presses": [49, 51, 13, 49, 54, 13, 49, 55, 13, 49, 52, 13, 49, 52, 13], "trial": 3, "time_elapsed": 628411, "type": "DISTRACTOR", "trial_index": 105, "num1": [7, 7, 9, 2, 4, 4]}, "uniqueid": "MTK1612:3C8HJ7UOP81YL3Y92XZU0RU4PUNZMT", "dateTime": 1516047116545}, {"current_trial": 106, "trialdata": {"rt": -1, "trial_type": "single-stim", "stimulus": "<p id=\"stim\">10</p>", "internal_node_id": "0.0-79.0-0.0", "time_elapsed": 631413, "key_press": -1, "trial_index": 106}, "uniqueid": "MTK1612:3C8HJ7UOP81YL3Y92XZU0RU4PUNZMT", "dateTime": 1516047119547}, {"current_trial": 107, "trialdata": {"rt": -1, "trial_type": "single-stim", "stimulus": "<p id=\"stim\">9</p>", "internal_node_id": "0.0-79.0-1.0", "time_elapsed": 632415, "key_press": -1, "trial_index": 107}, "uniqueid": "MTK1612:3C8HJ7UOP81YL3Y92XZU0RU4PUNZMT", "dateTime": 1516047120549}, {"current_trial": 108, "trialdata": {"rt": -1, "trial_type": "single-stim", "stimulus": "<p id=\"stim\">8</p>", "internal_node_id": "0.0-79.0-2.0", "time_elapsed": 633416, "key_press": -1, "trial_index": 108}, "uniqueid": "MTK1612:3C8HJ7UOP81YL3Y92XZU0RU4PUNZMT", "dateTime": 1516047121551}, {"current_trial": 109, "trialdata": {"rt": -1, "trial_type": "single-stim", "stimulus": "<p id=\"stim\">7</p>", "internal_node_id": "0.0-79.0-3.0", "time_elapsed": 634419, "key_press": -1, "trial_index": 109}, "uniqueid": "MTK1612:3C8HJ7UOP81YL3Y92XZU0RU4PUNZMT", "dateTime": 1516047122553}, {"current_trial": 110, "trialdata": {"rt": -1, "trial_type": "single-stim", "stimulus": "<p id=\"stim\">6</p>", "internal_node_id": "0.0-79.0-4.0", "time_elapsed": 635420, "key_press": -1, "trial_index": 110}, "uniqueid": "MTK1612:3C8HJ7UOP81YL3Y92XZU0RU4PUNZMT", "dateTime": 1516047123554}, {"current_trial": 111, "trialdata": {"rt": -1, "trial_type": "single-stim", "stimulus": "<p id=\"stim\">5</p>", "internal_node_id": "0.0-79.0-5.0", "time_elapsed": 636422, "key_press": -1, "trial_index": 111}, "uniqueid": "MTK1612:3C8HJ7UOP81YL3Y92XZU0RU4PUNZMT", "dateTime": 1516047124556}, {"current_trial": 112, "trialdata": {"rt": -1, "trial_type": "single-stim", "stimulus": "<p id=\"stim\">4</p>", "internal_node_id": "0.0-79.0-6.0", "time_elapsed": 637423, "key_press": -1, "trial_index": 112}, "uniqueid": "MTK1612:3C8HJ7UOP81YL3Y92XZU0RU4PUNZMT", "dateTime": 1516047125558}, {"current_trial": 113, "trialdata": {"rt": -1, "trial_type": "single-stim", "stimulus": "<p id=\"stim\">3</p>", "internal_node_id": "0.0-79.0-7.0", "time_elapsed": 638425, "key_press": -1, "trial_index": 113}, "uniqueid": "MTK1612:3C8HJ7UOP81YL3Y92XZU0RU4PUNZMT", "dateTime": 1516047126559}, {"current_trial": 114, "trialdata": {"rt": -1, "trial_type": "single-stim", "stimulus": "<p id=\"stim\">2</p>", "internal_node_id": "0.0-79.0-8.0", "time_elapsed": 639426, "key_press": -1, "trial_index": 114}, "uniqueid": "MTK1612:3C8HJ7UOP81YL3Y92XZU0RU4PUNZMT", "dateTime": 1516047127561}, {"current_trial": 115, "trialdata": {"rt": -1, "trial_type": "single-stim", "stimulus": "<p id=\"stim\">1</p>", "internal_node_id": "0.0-79.0-9.0", "time_elapsed": 640428, "key_press": -1, "trial_index": 115}, "uniqueid": "MTK1612:3C8HJ7UOP81YL3Y92XZU0RU4PUNZMT", "dateTime": 1516047128562}, {"current_trial": 116, "trialdata": {"rt": -1, "trial_type": "single-stim", "stimulus": "<p id=\"stim\">+</p>", "internal_node_id": "0.0-80.0-0.0", "time_elapsed": 641929, "key_press": -1, "type": "FIXATION", "trial_index": 116}, "uniqueid": "MTK1612:3C8HJ7UOP81YL3Y92XZU0RU4PUNZMT", "dateTime": 1516047130063}, {"current_trial": 117, "trialdata": {"rt": -1000, "trial_type": "single-audio", "word": "venus", "stimulus": "/static/audio/wordpool/VENUS.wav", "conditions": [12, 1600, "a", 12000], "internal_node_id": "0.0-81.0", "trial": 3, "time_elapsed": 644562, "serialpos": 0, "key_press": -1, "wordID": 1556, "type": "PRES_AUD", "trial_index": 117}, "uniqueid": "MTK1612:3C8HJ7UOP81YL3Y92XZU0RU4PUNZMT", "dateTime": 1516047132696}, {"current_trial": 118, "trialdata": {"rt": -1000, "trial_type": "single-audio", "word": "chipmunk", "stimulus": "/static/audio/wordpool/CHIPMUNK.wav", "conditions": [12, 1600, "a", 12000], "internal_node_id": "0.0-82.0", "trial": 3, "time_elapsed": 647168, "serialpos": 1, "key_press": -1, "wordID": 303, "type": "PRES_AUD", "trial_index": 118}, "uniqueid": "MTK1612:3C8HJ7UOP81YL3Y92XZU0RU4PUNZMT", "dateTime": 1516047135303}, {"current_trial": 119, "trialdata": {"rt": -1000, "trial_type": "single-audio", "word": "waitress", "stimulus": "/static/audio/wordpool/WAITRESS.wav", "conditions": [12, 1600, "a", 12000], "internal_node_id": "0.0-83.0", "trial": 3, "time_elapsed": 649816, "serialpos": 2, "key_press": -1, "wordID": 1580, "type": "PRES_AUD", "trial_index": 119}, "uniqueid": "MTK1612:3C8HJ7UOP81YL3Y92XZU0RU4PUNZMT", "dateTime": 1516047137950}, {"current_trial": 120, "trialdata": {"rt": -1000, "trial_type": "single-audio", "word": "breast", "stimulus": "/static/audio/wordpool/BREAST.wav", "conditions": [12, 1600, "a", 12000], "internal_node_id": "0.0-84.0", "trial": 3, "time_elapsed": 652242, "serialpos": 3, "key_press": -1, "wordID": 170, "type": "PRES_AUD", "trial_index": 120}, "uniqueid": "MTK1612:3C8HJ7UOP81YL3Y92XZU0RU4PUNZMT", "dateTime": 1516047140376}, {"current_trial": 121, "trialdata": {"rt": -1000, "trial_type": "single-audio", "word": "gavel", "stimulus": "/static/audio/wordpool/GAVEL.wav", "conditions": [12, 1600, "a", 12000], "internal_node_id": "0.0-85.0", "trial": 3, "time_elapsed": 654818, "serialpos": 4, "key_press": -1, "wordID": 626, "type": "PRES_AUD", "trial_index": 121}, "uniqueid": "MTK1612:3C8HJ7UOP81YL3Y92XZU0RU4PUNZMT", "dateTime": 1516047142952}, {"current_trial": 122, "trialdata": {"rt": -1000, "trial_type": "single-audio", "word": "banjo", "stimulus": "/static/audio/wordpool/BANJO.wav", "conditions": [12, 1600, "a", 12000], "internal_node_id": "0.0-86.0", "trial": 3, "time_elapsed": 657232, "serialpos": 5, "key_press": -1, "wordID": 81, "type": "PRES_AUD", "trial_index": 122}, "uniqueid": "MTK1612:3C8HJ7UOP81YL3Y92XZU0RU4PUNZMT", "dateTime": 1516047145366}, {"current_trial": 123, "trialdata": {"rt": -1000, "trial_type": "single-audio", "word": "fiddle", "stimulus": "/static/audio/wordpool/FIDDLE.wav", "conditions": [12, 1600, "a", 12000], "internal_node_id": "0.0-87.0", "trial": 3, "time_elapsed": 659971, "serialpos": 6, "key_press": -1, "wordID": 560, "type": "PRES_AUD", "trial_index": 123}, "uniqueid": "MTK1612:3C8HJ7UOP81YL3Y92XZU0RU4PUNZMT", "dateTime": 1516047148105}, {"current_trial": 124, "trialdata": {"rt": -1000, "trial_type": "single-audio", "word": "clock", "stimulus": "/static/audio/wordpool/CLOCK.wav", "conditions": [12, 1600, "a", 12000], "internal_node_id": "0.0-88.0", "trial": 3, "time_elapsed": 662536, "serialpos": 7, "key_press": -1, "wordID": 324, "type": "PRES_AUD", "trial_index": 124}, "uniqueid": "MTK1612:3C8HJ7UOP81YL3Y92XZU0RU4PUNZMT", "dateTime": 1516047150670}, {"current_trial": 125, "trialdata": {"rt": -1000, "trial_type": "single-audio", "word": "seal", "stimulus": "/static/audio/wordpool/SEAL.wav", "conditions": [12, 1600, "a", 12000], "internal_node_id": "0.0-89.0", "trial": 3, "time_elapsed": 665217, "serialpos": 8, "key_press": -1, "wordID": 1261, "type": "PRES_AUD", "trial_index": 125}, "uniqueid": "MTK1612:3C8HJ7UOP81YL3Y92XZU0RU4PUNZMT", "dateTime": 1516047153352}, {"current_trial": 126, "trialdata": {"rt": -1000, "trial_type": "single-audio", "word": "thief", "stimulus": "/static/audio/wordpool/THIEF.wav", "conditions": [12, 1600, "a", 12000], "internal_node_id": "0.0-90.0", "trial": 3, "time_elapsed": 667768, "serialpos": 9, "key_press": -1, "wordID": 1455, "type": "PRES_AUD", "trial_index": 126}, "uniqueid": "MTK1612:3C8HJ7UOP81YL3Y92XZU0RU4PUNZMT", "dateTime": 1516047155902}, {"current_trial": 127, "trialdata": {"rt": -1000, "trial_type": "single-audio", "word": "diner", "stimulus": "/static/audio/wordpool/DINER.wav", "conditions": [12, 1600, "a", 12000], "internal_node_id": "0.0-91.0", "trial": 3, "time_elapsed": 670244, "serialpos": 10, "key_press": -1, "wordID": 466, "type": "PRES_AUD", "trial_index": 127}, "uniqueid": "MTK1612:3C8HJ7UOP81YL3Y92XZU0RU4PUNZMT", "dateTime": 1516047158378}, {"current_trial": 128, "trialdata": {"rt": -1000, "trial_type": "single-audio", "word": "cook", "stimulus": "/static/audio/wordpool/COOK.wav", "conditions": [12, 1600, "a", 12000], "internal_node_id": "0.0-92.0", "trial": 3, "time_elapsed": 672848, "serialpos": 11, "key_press": -1, "wordID": 371, "type": "PRES_AUD", "trial_index": 128}, "uniqueid": "MTK1612:3C8HJ7UOP81YL3Y92XZU0RU4PUNZMT", "dateTime": 1516047160983}, {"current_trial": 129, "trialdata": {"rt": -1, "trial_type": "single-stim", "stimulus": "", "internal_node_id": "0.0-93.0-0.0", "time_elapsed": 674071, "key_press": -1, "type": "PRE_RECALL_DELAY", "trial_index": 129}, "uniqueid": "MTK1612:3C8HJ7UOP81YL3Y92XZU0RU4PUNZMT", "dateTime": 1516047162206}, {"current_trial": 130, "trialdata": {"rt": -1000, "trial_type": "single-audio", "stimulus": "/static/audio/400Hz.wav", "internal_node_id": "0.0-94.0", "time_elapsed": 674573, "key_press": -1, "type": "PRE_RECALL_ALERT", "trial_index": 130}, "uniqueid": "MTK1612:3C8HJ7UOP81YL3Y92XZU0RU4PUNZMT", "dateTime": 1516047162708}, {"current_trial": 131, "trialdata": {"rt": [1655, 2891, 4369, 7865, 9332, 14314, 17320, 19632, 24085, 29138, 30463], "recwords": ["diner", "cook", "theives", "banjo", "fiddle", "seal", "chipmunk", "breast", "venus", "diner", "cook"], "key_times": [886, 1044, 1197, 1329, 1475, 1655, 2138, 2342, 2467, 2629, 2891, 3389, 3503, 3632, 3747, 3874, 4024, 4221, 4369, 6674, 6840, 7051, 7363, 7627, 7865, 8489, 8666, 8806, 8950, 9081, 9164, 9332, 13397, 13666, 13959, 14094, 14314, 15577, 15738, 15928, 16155, 16491, 16728, 16894, 17065, 17320, 18375, 18489, 18627, 18986, 19182, 19449, 19632, 23344, 23478, 23667, 23794, 23906, 24085, 28368, 28573, 28725, 28844, 28996, 29138, 29754, 29974, 30121, 30245, 30463], "trial_type": "free-recall", "conditions": [12, 1600, "a", 12000], "internal_node_id": "0.0-95.0-0.0", "key_presses": [68, 73, 78, 69, 82, 13, 67, 79, 79, 75, 13, 84, 72, 69, 73, 86, 69, 83, 13, 66, 65, 78, 74, 79, 13, 70, 73, 68, 68, 76, 69, 13, 83, 69, 65, 76, 13, 67, 72, 73, 80, 77, 85, 78, 75, 13, 66, 82, 69, 65, 83, 84, 13, 86, 69, 78, 85, 83, 13, 68, 73, 78, 69, 82, 13, 67, 79, 79, 75, 13], "trial": 3, "time_elapsed": 734577, "type": "FREE_RECALL", "trial_index": 131}, "uniqueid": "MTK1612:3C8HJ7UOP81YL3Y92XZU0RU4PUNZMT", "dateTime": 1516047222716}, {"current_trial": 132, "trialdata": {"rt": 1332, "trial_type": "text", "internal_node_id": "0.0-96.0", "time_elapsed": 737915, "key_press": 32, "type": "INSTRUCTIONS", "trial_index": 132}, "uniqueid": "MTK1612:3C8HJ7UOP81YL3Y92XZU0RU4PUNZMT", "dateTime": 1516047226049}, {"current_trial": 133, "trialdata": {"rt": [3906, 5380, 9063], "trial_type": "math-distractor", "key_times": [3282, 3400, 3906, 5016, 5227, 5380, 8725, 8868, 9063, 11155, 11305, 11745, 11897], "responses": ["20", "13", "24"], "num2": [8, 7, 8, 3], "num3": [6, 3, 9, 9], "conditions": [24, 800, "a", 12000], "internal_node_id": "0.0-97.0", "key_presses": [50, 48, 13, 49, 51, 13, 50, 52, 13, 49, 49, 8, 8], "trial": 4, "time_elapsed": 751920, "type": "DISTRACTOR", "trial_index": 133, "num1": [6, 3, 7, 9]}, "uniqueid": "MTK1612:3C8HJ7UOP81YL3Y92XZU0RU4PUNZMT", "dateTime": 1516047240054}, {"current_trial": 134, "trialdata": {"rt": -1, "trial_type": "single-stim", "stimulus": "<p id=\"stim\">10</p>", "internal_node_id": "0.0-98.0-0.0", "time_elapsed": 754921, "key_press": -1, "trial_index": 134}, "uniqueid": "MTK1612:3C8HJ7UOP81YL3Y92XZU0RU4PUNZMT", "dateTime": 1516047243055}, {"current_trial": 135, "trialdata": {"rt": -1, "trial_type": "single-stim", "stimulus": "<p id=\"stim\">9</p>", "internal_node_id": "0.0-98.0-1.0", "time_elapsed": 755923, "key_press": -1, "trial_index": 135}, "uniqueid": "MTK1612:3C8HJ7UOP81YL3Y92XZU0RU4PUNZMT", "dateTime": 1516047244057}, {"current_trial": 136, "trialdata": {"rt": -1, "trial_type": "single-stim", "stimulus": "<p id=\"stim\">8</p>", "internal_node_id": "0.0-98.0-2.0", "time_elapsed": 756925, "key_press": -1, "trial_index": 136}, "uniqueid": "MTK1612:3C8HJ7UOP81YL3Y92XZU0RU4PUNZMT", "dateTime": 1516047245059}, {"current_trial": 137, "trialdata": {"rt": -1, "trial_type": "single-stim", "stimulus": "<p id=\"stim\">7</p>", "internal_node_id": "0.0-98.0-3.0", "time_elapsed": 757927, "key_press": -1, "trial_index": 137}, "uniqueid": "MTK1612:3C8HJ7UOP81YL3Y92XZU0RU4PUNZMT", "dateTime": 1516047246062}, {"current_trial": 138, "trialdata": {"rt": -1, "trial_type": "single-stim", "stimulus": "<p id=\"stim\">6</p>", "internal_node_id": "0.0-98.0-4.0", "time_elapsed": 758929, "key_press": -1, "trial_index": 138}, "uniqueid": "MTK1612:3C8HJ7UOP81YL3Y92XZU0RU4PUNZMT", "dateTime": 1516047247063}, {"current_trial": 139, "trialdata": {"rt": -1, "trial_type": "single-stim", "stimulus": "<p id=\"stim\">5</p>", "internal_node_id": "0.0-98.0-5.0", "time_elapsed": 759930, "key_press": -1, "trial_index": 139}, "uniqueid": "MTK1612:3C8HJ7UOP81YL3Y92XZU0RU4PUNZMT", "dateTime": 1516047248064}, {"current_trial": 140, "trialdata": {"rt": -1, "trial_type": "single-stim", "stimulus": "<p id=\"stim\">4</p>", "internal_node_id": "0.0-98.0-6.0", "time_elapsed": 760933, "key_press": -1, "trial_index": 140}, "uniqueid": "MTK1612:3C8HJ7UOP81YL3Y92XZU0RU4PUNZMT", "dateTime": 1516047249067}, {"current_trial": 141, "trialdata": {"rt": -1, "trial_type": "single-stim", "stimulus": "<p id=\"stim\">3</p>", "internal_node_id": "0.0-98.0-7.0", "time_elapsed": 761934, "key_press": -1, "trial_index": 141}, "uniqueid": "MTK1612:3C8HJ7UOP81YL3Y92XZU0RU4PUNZMT", "dateTime": 1516047250068}, {"current_trial": 142, "trialdata": {"rt": -1, "trial_type": "single-stim", "stimulus": "<p id=\"stim\">2</p>", "internal_node_id": "0.0-98.0-8.0", "time_elapsed": 762936, "key_press": -1, "trial_index": 142}, "uniqueid": "MTK1612:3C8HJ7UOP81YL3Y92XZU0RU4PUNZMT", "dateTime": 1516047251070}, {"current_trial": 143, "trialdata": {"rt": -1, "trial_type": "single-stim", "stimulus": "<p id=\"stim\">1</p>", "internal_node_id": "0.0-98.0-9.0", "time_elapsed": 763938, "key_press": -1, "trial_index": 143}, "uniqueid": "MTK1612:3C8HJ7UOP81YL3Y92XZU0RU4PUNZMT", "dateTime": 1516047252072}, {"current_trial": 144, "trialdata": {"rt": -1, "trial_type": "single-stim", "stimulus": "<p id=\"stim\">+</p>", "internal_node_id": "0.0-99.0-0.0", "time_elapsed": 765439, "key_press": -1, "type": "FIXATION", "trial_index": 144}, "uniqueid": "MTK1612:3C8HJ7UOP81YL3Y92XZU0RU4PUNZMT", "dateTime": 1516047253573}, {"current_trial": 145, "trialdata": {"rt": -1000, "trial_type": "single-audio", "word": "dandruff", "stimulus": "/static/audio/wordpool/DANDRUFF.wav", "conditions": [24, 800, "a", 12000], "internal_node_id": "0.0-100.0", "trial": 4, "time_elapsed": 767050, "serialpos": 0, "key_press": -1, "wordID": 438, "type": "PRES_AUD", "trial_index": 145}, "uniqueid": "MTK1612:3C8HJ7UOP81YL3Y92XZU0RU4PUNZMT", "dateTime": 1516047255184}, {"current_trial": 146, "trialdata": {"rt": -1000, "trial_type": "single-audio", "word": "stamp", "stimulus": "/static/audio/wordpool/STAMP.wav", "conditions": [24, 800, "a", 12000], "internal_node_id": "0.0-101.0", "trial": 4, "time_elapsed": 768843, "serialpos": 1, "key_press": -1, "wordID": 1369, "type": "PRES_AUD", "trial_index": 146}, "uniqueid": "MTK1612:3C8HJ7UOP81YL3Y92XZU0RU4PUNZMT", "dateTime": 1516047256977}, {"current_trial": 147, "trialdata": {"rt": -1000, "trial_type": "single-audio", "word": "globe", "stimulus": "/static/audio/wordpool/GLOBE.wav", "conditions": [24, 800, "a", 12000], "internal_node_id": "0.0-102.0", "trial": 4, "time_elapsed": 770551, "serialpos": 2, "key_press": -1, "wordID": 640, "type": "PRES_AUD", "trial_index": 147}, "uniqueid": "MTK1612:3C8HJ7UOP81YL3Y92XZU0RU4PUNZMT", "dateTime": 1516047258685}, {"current_trial": 148, "trialdata": {"rt": -1000, "trial_type": "single-audio", "word": "panther", "stimulus": "/static/audio/wordpool/PANTHER.wav", "conditions": [24, 800, "a", 12000], "internal_node_id": "0.0-103.0", "trial": 4, "time_elapsed": 772166, "serialpos": 3, "key_press": -1, "wordID": 1008, "type": "PRES_AUD", "trial_index": 148}, "uniqueid": "MTK1612:3C8HJ7UOP81YL3Y92XZU0RU4PUNZMT", "dateTime": 1516047260300}, {"current_trial": 149, "trialdata": {"rt": -1000, "trial_type": "single-audio", "word": "leg", "stimulus": "/static/audio/wordpool/LEG.wav", "conditions": [24, 800, "a", 12000], "internal_node_id": "0.0-104.0", "trial": 4, "time_elapsed": 773989, "serialpos": 4, "key_press": -1, "wordID": 808, "type": "PRES_AUD", "trial_index": 149}, "uniqueid": "MTK1612:3C8HJ7UOP81YL3Y92XZU0RU4PUNZMT", "dateTime": 1516047262123}, {"current_trial": 150, "trialdata": {"rt": -1000, "trial_type": "single-audio", "word": "elbow", "stimulus": "/static/audio/wordpool/ELBOW.wav", "conditions": [24, 800, "a", 12000], "internal_node_id": "0.0-105.0", "trial": 4, "time_elapsed": 775920, "serialpos": 5, "key_press": -1, "wordID": 519, "type": "PRES_AUD", "trial_index": 150}, "uniqueid": "MTK1612:3C8HJ7UOP81YL3Y92XZU0RU4PUNZMT", "dateTime": 1516047264054}, {"current_trial": 151, "trialdata": {"rt": -1000, "trial_type": "single-audio", "word": "daisy", "stimulus": "/static/audio/wordpool/DAISY.wav", "conditions": [24, 800, "a", 12000], "internal_node_id": "0.0-106.0", "trial": 4, "time_elapsed": 777904, "serialpos": 6, "key_press": -1, "wordID": 434, "type": "PRES_AUD", "trial_index": 151}, "uniqueid": "MTK1612:3C8HJ7UOP81YL3Y92XZU0RU4PUNZMT", "dateTime": 1516047266038}, {"current_trial": 152, "trialdata": {"rt": -1000, "trial_type": "single-audio", "word": "sculpture", "stimulus": "/static/audio/wordpool/SCULPTURE.wav", "conditions": [24, 800, "a", 12000], "internal_node_id": "0.0-107.0", "trial": 4, "time_elapsed": 779842, "serialpos": 7, "key_press": -1, "wordID": 1257, "type": "PRES_AUD", "trial_index": 152}, "uniqueid": "MTK1612:3C8HJ7UOP81YL3Y92XZU0RU4PUNZMT", "dateTime": 1516047267977}, {"current_trial": 153, "trialdata": {"rt": -1000, "trial_type": "single-audio", "word": "plaster", "stimulus": "/static/audio/wordpool/PLASTER.wav", "conditions": [24, 800, "a", 12000], "internal_node_id": "0.0-108.0", "trial": 4, "time_elapsed": 781805, "serialpos": 8, "key_press": -1, "wordID": 1084, "type": "PRES_AUD", "trial_index": 153}, "uniqueid": "MTK1612:3C8HJ7UOP81YL3Y92XZU0RU4PUNZMT", "dateTime": 1516047269940}, {"current_trial": 154, "trialdata": {"rt": -1000, "trial_type": "single-audio", "word": "world", "stimulus": "/static/audio/wordpool/WORLD.wav", "conditions": [24, 800, "a", 12000], "internal_node_id": "0.0-109.0", "trial": 4, "time_elapsed": 783596, "serialpos": 9, "key_press": -1, "wordID": 1621, "type": "PRES_AUD", "trial_index": 154}, "uniqueid": "MTK1612:3C8HJ7UOP81YL3Y92XZU0RU4PUNZMT", "dateTime": 1516047271730}, {"current_trial": 155, "trialdata": {"rt": -1000, "trial_type": "single-audio", "word": "creature", "stimulus": "/static/audio/wordpool/CREATURE.wav", "conditions": [24, 800, "a", 12000], "internal_node_id": "0.0-110.0", "trial": 4, "time_elapsed": 785287, "serialpos": 10, "key_press": -1, "wordID": 402, "type": "PRES_AUD", "trial_index": 155}, "uniqueid": "MTK1612:3C8HJ7UOP81YL3Y92XZU0RU4PUNZMT", "dateTime": 1516047273421}, {"current_trial": 156, "trialdata": {"rt": -1000, "trial_type": "single-audio", "word": "trench", "stimulus": "/static/audio/wordpool/TRENCH.wav", "conditions": [24, 800, "a", 12000], "internal_node_id": "0.0-111.0", "trial": 4, "time_elapsed": 786981, "serialpos": 11, "key_press": -1, "wordID": 1502, "type": "PRES_AUD", "trial_index": 156}, "uniqueid": "MTK1612:3C8HJ7UOP81YL3Y92XZU0RU4PUNZMT", "dateTime": 1516047275115}, {"current_trial": 157, "trialdata": {"rt": -1000, "trial_type": "single-audio", "word": "daughter", "stimulus": "/static/audio/wordpool/DAUGHTER.wav", "conditions": [24, 800, "a", 12000], "internal_node_id": "0.0-112.0", "trial": 4, "time_elapsed": 788888, "serialpos": 12, "key_press": -1, "wordID": 441, "type": "PRES_AUD", "trial_index": 157}, "uniqueid": "MTK1612:3C8HJ7UOP81YL3Y92XZU0RU4PUNZMT", "dateTime": 1516047277022}, {"current_trial": 158, "trialdata": {"rt": -1000, "trial_type": "single-audio", "word": "goblin", "stimulus": "/static/audio/wordpool/GOBLIN.wav", "conditions": [24, 800, "a", 12000], "internal_node_id": "0.0-113.0", "trial": 4, "time_elapsed": 790659, "serialpos": 13, "key_press": -1, "wordID": 644, "type": "PRES_AUD", "trial_index": 158}, "uniqueid": "MTK1612:3C8HJ7UOP81YL3Y92XZU0RU4PUNZMT", "dateTime": 1516047278793}, {"current_trial": 159, "trialdata": {"rt": -1000, "trial_type": "single-audio", "word": "dragon", "stimulus": "/static/audio/wordpool/DRAGON.wav", "conditions": [24, 800, "a", 12000], "internal_node_id": "0.0-114.0", "trial": 4, "time_elapsed": 792437, "serialpos": 14, "key_press": -1, "wordID": 491, "type": "PRES_AUD", "trial_index": 159}, "uniqueid": "MTK1612:3C8HJ7UOP81YL3Y92XZU0RU4PUNZMT", "dateTime": 1516047280571}, {"current_trial": 160, "trialdata": {"rt": -1000, "trial_type": "single-audio", "word": "diver", "stimulus": "/static/audio/wordpool/DIVER.wav", "conditions": [24, 800, "a", 12000], "internal_node_id": "0.0-115.0", "trial": 4, "time_elapsed": 794130, "serialpos": 15, "key_press": -1, "wordID": 475, "type": "PRES_AUD", "trial_index": 160}, "uniqueid": "MTK1612:3C8HJ7UOP81YL3Y92XZU0RU4PUNZMT", "dateTime": 1516047282265}, {"current_trial": 161, "trialdata": {"rt": -1000, "trial_type": "single-audio", "word": "crayon", "stimulus": "/static/audio/wordpool/CRAYON.wav", "conditions": [24, 800, "a", 12000], "internal_node_id": "0.0-116.0", "trial": 4, "time_elapsed": 795956, "serialpos": 16, "key_press": -1, "wordID": 400, "type": "PRES_AUD", "trial_index": 161}, "uniqueid": "MTK1612:3C8HJ7UOP81YL3Y92XZU0RU4PUNZMT", "dateTime": 1516047284090}, {"current_trial": 162, "trialdata": {"rt": -1000, "trial_type": "single-audio", "word": "highway", "stimulus": "/static/audio/wordpool/HIGHWAY.wav", "conditions": [24, 800, "a", 12000], "internal_node_id": "0.0-117.0", "trial": 4, "time_elapsed": 797629, "serialpos": 17, "key_press": -1, "wordID": 706, "type": "PRES_AUD", "trial_index": 162}, "uniqueid": "MTK1612:3C8HJ7UOP81YL3Y92XZU0RU4PUNZMT", "dateTime": 1516047285763}, {"current_trial": 163, "trialdata": {"rt": -1000, "trial_type": "single-audio", "word": "college", "stimulus": "/static/audio/wordpool/COLLEGE.wav", "conditions": [24, 800, "a", 12000], "internal_node_id": "0.0-118.0", "trial": 4, "time_elapsed": 799615, "serialpos": 18, "key_press": -1, "wordID": 345, "type": "PRES_AUD", "trial_index": 163}, "uniqueid": "MTK1612:3C8HJ7UOP81YL3Y92XZU0RU4PUNZMT", "dateTime": 1516047287749}, {"current_trial": 164, "trialdata": {"rt": -1000, "trial_type": "single-audio", "word": "puppy", "stimulus": "/static/audio/wordpool/PUPPY.wav", "conditions": [24, 800, "a", 12000], "internal_node_id": "0.0-119.0", "trial": 4, "time_elapsed": 801572, "serialpos": 19, "key_press": -1, "wordID": 1143, "type": "PRES_AUD", "trial_index": 164}, "uniqueid": "MTK1612:3C8HJ7UOP81YL3Y92XZU0RU4PUNZMT", "dateTime": 1516047289706}, {"current_trial": 165, "trialdata": {"rt": -1000, "trial_type": "single-audio", "word": "widow", "stimulus": "/static/audio/wordpool/WIDOW.wav", "conditions": [24, 800, "a", 12000], "internal_node_id": "0.0-120.0", "trial": 4, "time_elapsed": 803179, "serialpos": 20, "key_press": -1, "wordID": 1607, "type": "PRES_AUD", "trial_index": 165}, "uniqueid": "MTK1612:3C8HJ7UOP81YL3Y92XZU0RU4PUNZMT", "dateTime": 1516047291313}, {"current_trial": 166, "trialdata": {"rt": -1000, "trial_type": "single-audio", "word": "tablet", "stimulus": "/static/audio/wordpool/TABLET.wav", "conditions": [24, 800, "a", 12000], "internal_node_id": "0.0-121.0", "trial": 4, "time_elapsed": 804905, "serialpos": 21, "key_press": -1, "wordID": 1426, "type": "PRES_AUD", "trial_index": 166}, "uniqueid": "MTK1612:3C8HJ7UOP81YL3Y92XZU0RU4PUNZMT", "dateTime": 1516047293039}, {"current_trial": 167, "trialdata": {"rt": -1000, "trial_type": "single-audio", "word": "friend", "stimulus": "/static/audio/wordpool/FRIEND.wav", "conditions": [24, 800, "a", 12000], "internal_node_id": "0.0-122.0", "trial": 4, "time_elapsed": 806849, "serialpos": 22, "key_press": -1, "wordID": 605, "type": "PRES_AUD", "trial_index": 167}, "uniqueid": "MTK1612:3C8HJ7UOP81YL3Y92XZU0RU4PUNZMT", "dateTime": 1516047294983}, {"current_trial": 168, "trialdata": {"rt": -1000, "trial_type": "single-audio", "word": "church", "stimulus": "/static/audio/wordpool/CHURCH.wav", "conditions": [24, 800, "a", 12000], "internal_node_id": "0.0-123.0", "trial": 4, "time_elapsed": 808602, "serialpos": 23, "key_press": -1, "wordID": 306, "type": "PRES_AUD", "trial_index": 168}, "uniqueid": "MTK1612:3C8HJ7UOP81YL3Y92XZU0RU4PUNZMT", "dateTime": 1516047296736}, {"current_trial": 169, "trialdata": {"rt": -1, "trial_type": "single-stim", "stimulus": "", "internal_node_id": "0.0-124.0-0.0", "time_elapsed": 809858, "key_press": -1, "type": "PRE_RECALL_DELAY", "trial_index": 169}, "uniqueid": "MTK1612:3C8HJ7UOP81YL3Y92XZU0RU4PUNZMT", "dateTime": 1516047297992}, {"current_trial": 170, "trialdata": {"rt": -1000, "trial_type": "single-audio", "stimulus": "/static/audio/400Hz.wav", "internal_node_id": "0.0-125.0", "time_elapsed": 810360, "key_press": -1, "type": "PRE_RECALL_ALERT", "trial_index": 170}, "uniqueid": "MTK1612:3C8HJ7UOP81YL3Y92XZU0RU4PUNZMT", "dateTime": 1516047298494}, {"current_trial": 171, "trialdata": {"rt": [1904, 3222, 4739, 6926, 10283, 12797, 18709, 25092, 28414, 29553], "recwords": ["church", "friend", "tablet", "puppy", "goblin", "dragon", "daughter", "leg", "globe", "world"], "key_times": [815, 1008, 1121, 1244, 1466, 1575, 1904, 2427, 2583, 2691, 2831, 2922, 3092, 3222, 3682, 3933, 4086, 4252, 4381, 4542, 4739, 5984, 6226, 6454, 6584, 6759, 6926, 8455, 8869, 9174, 9302, 9419, 9546, 9779, 9880, 10283, 11719, 11972, 12175, 12310, 12461, 12563, 12797, 17662, 17850, 17991, 18076, 18221, 18293, 18461, 18583, 18709, 24657, 24773, 24955, 25092, 27486, 27669, 27843, 28080, 28223, 28414, 28698, 28926, 29046, 29242, 29363, 29553], "trial_type": "free-recall", "conditions": [24, 800, "a", 12000], "internal_node_id": "0.0-126.0-0.0", "key_presses": [67, 72, 85, 82, 67, 72, 13, 70, 82, 73, 69, 78, 68, 13, 84, 65, 66, 76, 69, 84, 13, 80, 85, 80, 80, 89, 13, 66, 8, 71, 79, 66, 76, 73, 78, 13, 68, 82, 65, 71, 79, 78, 13, 68, 65, 85, 71, 72, 84, 69, 82, 13, 76, 69, 71, 13, 71, 76, 79, 66, 69, 13, 87, 79, 82, 76, 68, 13], "trial": 4, "time_elapsed": 870364, "type": "FREE_RECALL", "trial_index": 171}, "uniqueid": "MTK1612:3C8HJ7UOP81YL3Y92XZU0RU4PUNZMT", "dateTime": 1516047358504}, {"current_trial": 172, "trialdata": {"rt": 663, "trial_type": "text", "internal_node_id": "0.0-127.0", "time_elapsed": 873035, "key_press": 32, "type": "INSTRUCTIONS", "trial_index": 172}, "uniqueid": "MTK1612:3C8HJ7UOP81YL3Y92XZU0RU4PUNZMT", "dateTime": 1516047361169}, {"current_trial": 173, "trialdata": {"rt": [1673, 3551, 5348, 6902, 8512, 10738, 12500, 14710, 16415, 19131, 21232, 22900], "trial_type": "math-distractor", "key_times": [1354, 1535, 1673, 3172, 3303, 3551, 4890, 5194, 5348, 6453, 6653, 6902, 8227, 8360, 8512, 10279, 10584, 10738, 12029, 12260, 12500, 14437, 14565, 14710, 16214, 16415, 18455, 18904, 19131, 20915, 21051, 21232, 22406, 22734, 22900], "responses": ["13", "10", "16", "18", "11", "15", "18", "21", "9", "20", "13", "16"], "num2": [6, 2, 6, 2, 4, 5, 8, 7, 3, 8, 4, 6, 6], "num3": [3, 1, 8, 8, 6, 4, 1, 6, 3, 6, 1, 2, 7], "conditions": [12, 1600, "a", 24000], "internal_node_id": "0.0-128.0", "key_presses": [49, 51, 13, 49, 48, 13, 49, 54, 13, 49, 56, 13, 49, 49, 13, 49, 53, 13, 49, 56, 13, 50, 49, 13, 57, 13, 50, 48, 13, 49, 51, 13, 49, 54, 13], "trial": 5, "time_elapsed": 899040, "type": "DISTRACTOR", "trial_index": 173, "num1": [4, 7, 2, 8, 1, 6, 9, 9, 3, 6, 8, 8, 1]}, "uniqueid": "MTK1612:3C8HJ7UOP81YL3Y92XZU0RU4PUNZMT", "dateTime": 1516047387174}, {"current_trial": 174, "trialdata": {"rt": -1, "trial_type": "single-stim", "stimulus": "<p id=\"stim\">10</p>", "internal_node_id": "0.0-129.0-0.0", "time_elapsed": 902042, "key_press": -1, "trial_index": 174}, "uniqueid": "MTK1612:3C8HJ7UOP81YL3Y92XZU0RU4PUNZMT", "dateTime": 1516047390176}, {"current_trial": 175, "trialdata": {"rt": -1, "trial_type": "single-stim", "stimulus": "<p id=\"stim\">9</p>", "internal_node_id": "0.0-129.0-1.0", "time_elapsed": 903045, "key_press": -1, "trial_index": 175}, "uniqueid": "MTK1612:3C8HJ7UOP81YL3Y92XZU0RU4PUNZMT", "dateTime": 1516047391179}, {"current_trial": 176, "trialdata": {"rt": -1, "trial_type": "single-stim", "stimulus": "<p id=\"stim\">8</p>", "internal_node_id": "0.0-129.0-2.0", "time_elapsed": 904046, "key_press": -1, "trial_index": 176}, "uniqueid": "MTK1612:3C8HJ7UOP81YL3Y92XZU0RU4PUNZMT", "dateTime": 1516047392180}, {"current_trial": 177, "trialdata": {"rt": -1, "trial_type": "single-stim", "stimulus": "<p id=\"stim\">7</p>", "internal_node_id": "0.0-129.0-3.0", "time_elapsed": 905048, "key_press": -1, "trial_index": 177}, "uniqueid": "MTK1612:3C8HJ7UOP81YL3Y92XZU0RU4PUNZMT", "dateTime": 1516047393182}, {"current_trial": 178, "trialdata": {"rt": -1, "trial_type": "single-stim", "stimulus": "<p id=\"stim\">6</p>", "internal_node_id": "0.0-129.0-4.0", "time_elapsed": 906050, "key_press": -1, "trial_index": 178}, "uniqueid": "MTK1612:3C8HJ7UOP81YL3Y92XZU0RU4PUNZMT", "dateTime": 1516047394184}, {"current_trial": 179, "trialdata": {"rt": -1, "trial_type": "single-stim", "stimulus": "<p id=\"stim\">5</p>", "internal_node_id": "0.0-129.0-5.0", "time_elapsed": 907052, "key_press": -1, "trial_index": 179}, "uniqueid": "MTK1612:3C8HJ7UOP81YL3Y92XZU0RU4PUNZMT", "dateTime": 1516047395186}, {"current_trial": 180, "trialdata": {"rt": -1, "trial_type": "single-stim", "stimulus": "<p id=\"stim\">4</p>", "internal_node_id": "0.0-129.0-6.0", "time_elapsed": 908054, "key_press": -1, "trial_index": 180}, "uniqueid": "MTK1612:3C8HJ7UOP81YL3Y92XZU0RU4PUNZMT", "dateTime": 1516047396188}, {"current_trial": 181, "trialdata": {"rt": -1, "trial_type": "single-stim", "stimulus": "<p id=\"stim\">3</p>", "internal_node_id": "0.0-129.0-7.0", "time_elapsed": 909057, "key_press": -1, "trial_index": 181}, "uniqueid": "MTK1612:3C8HJ7UOP81YL3Y92XZU0RU4PUNZMT", "dateTime": 1516047397191}, {"current_trial": 182, "trialdata": {"rt": -1, "trial_type": "single-stim", "stimulus": "<p id=\"stim\">2</p>", "internal_node_id": "0.0-129.0-8.0", "time_elapsed": 910059, "key_press": -1, "trial_index": 182}, "uniqueid": "MTK1612:3C8HJ7UOP81YL3Y92XZU0RU4PUNZMT", "dateTime": 1516047398193}, {"current_trial": 183, "trialdata": {"rt": -1, "trial_type": "single-stim", "stimulus": "<p id=\"stim\">1</p>", "internal_node_id": "0.0-129.0-9.0", "time_elapsed": 911061, "key_press": -1, "trial_index": 183}, "uniqueid": "MTK1612:3C8HJ7UOP81YL3Y92XZU0RU4PUNZMT", "dateTime": 1516047399195}, {"current_trial": 184, "trialdata": {"rt": -1, "trial_type": "single-stim", "stimulus": "<p id=\"stim\">+</p>", "internal_node_id": "0.0-130.0-0.0", "time_elapsed": 912563, "key_press": -1, "type": "FIXATION", "trial_index": 184}, "uniqueid": "MTK1612:3C8HJ7UOP81YL3Y92XZU0RU4PUNZMT", "dateTime": 1516047400697}, {"current_trial": 185, "trialdata": {"rt": -1000, "trial_type": "single-audio", "word": "lagoon", "stimulus": "/static/audio/wordpool/LAGOON.wav", "conditions": [12, 1600, "a", 24000], "internal_node_id": "0.0-131.0", "trial": 5, "time_elapsed": 915325, "serialpos": 0, "key_press": -1, "wordID": 794, "type": "PRES_AUD", "trial_index": 185}, "uniqueid": "MTK1612:3C8HJ7UOP81YL3Y92XZU0RU4PUNZMT", "dateTime": 1516047403459}, {"current_trial": 186, "trialdata": {"rt": -1000, "trial_type": "single-audio", "word": "sketch", "stimulus": "/static/audio/wordpool/SKETCH.wav", "conditions": [12, 1600, "a", 24000], "internal_node_id": "0.0-132.0", "trial": 5, "time_elapsed": 918102, "serialpos": 1, "key_press": -1, "wordID": 1314, "type": "PRES_AUD", "trial_index": 186}, "uniqueid": "MTK1612:3C8HJ7UOP81YL3Y92XZU0RU4PUNZMT", "dateTime": 1516047406236}, {"current_trial": 187, "trialdata": {"rt": -1000, "trial_type": "single-audio", "word": "transplant", "stimulus": "/static/audio/wordpool/TRANSPLANT.wav", "conditions": [12, 1600, "a", 24000], "internal_node_id": "0.0-133.0", "trial": 5, "time_elapsed": 920556, "serialpos": 2, "key_press": -1, "wordID": 1495, "type": "PRES_AUD", "trial_index": 187}, "uniqueid": "MTK1612:3C8HJ7UOP81YL3Y92XZU0RU4PUNZMT", "dateTime": 1516047408690}, {"current_trial": 188, "trialdata": {"rt": -1000, "trial_type": "single-audio", "word": "quail", "stimulus": "/static/audio/wordpool/QUAIL.wav", "conditions": [12, 1600, "a", 24000], "internal_node_id": "0.0-134.0", "trial": 5, "time_elapsed": 922988, "serialpos": 3, "key_press": -1, "wordID": 1146, "type": "PRES_AUD", "trial_index": 188}, "uniqueid": "MTK1612:3C8HJ7UOP81YL3Y92XZU0RU4PUNZMT", "dateTime": 1516047411123}, {"current_trial": 189, "trialdata": {"rt": -1000, "trial_type": "single-audio", "word": "custard", "stimulus": "/static/audio/wordpool/CUSTARD.wav", "conditions": [12, 1600, "a", 24000], "internal_node_id": "0.0-135.0", "trial": 5, "time_elapsed": 925706, "serialpos": 4, "key_press": -1, "wordID": 428, "type": "PRES_AUD", "trial_index": 189}, "uniqueid": "MTK1612:3C8HJ7UOP81YL3Y92XZU0RU4PUNZMT", "dateTime": 1516047413840}, {"current_trial": 190, "trialdata": {"rt": -1000, "trial_type": "single-audio", "word": "peach", "stimulus": "/static/audio/wordpool/PEACH.wav", "conditions": [12, 1600, "a", 24000], "internal_node_id": "0.0-136.0", "trial": 5, "time_elapsed": 928466, "serialpos": 5, "key_press": -1, "wordID": 1030, "type": "PRES_AUD", "trial_index": 190}, "uniqueid": "MTK1612:3C8HJ7UOP81YL3Y92XZU0RU4PUNZMT", "dateTime": 1516047416600}, {"current_trial": 191, "trialdata": {"rt": -1000, "trial_type": "single-audio", "word": "marsh", "stimulus": "/static/audio/wordpool/MARSH.wav", "conditions": [12, 1600, "a", 24000], "internal_node_id": "0.0-137.0", "trial": 5, "time_elapsed": 930916, "serialpos": 6, "key_press": -1, "wordID": 873, "type": "PRES_AUD", "trial_index": 191}, "uniqueid": "MTK1612:3C8HJ7UOP81YL3Y92XZU0RU4PUNZMT", "dateTime": 1516047419050}, {"current_trial": 192, "trialdata": {"rt": -1000, "trial_type": "single-audio", "word": "shorts", "stimulus": "/static/audio/wordpool/SHORTS.wav", "conditions": [12, 1600, "a", 24000], "internal_node_id": "0.0-138.0", "trial": 5, "time_elapsed": 933707, "serialpos": 7, "key_press": -1, "wordID": 1292, "type": "PRES_AUD", "trial_index": 192}, "uniqueid": "MTK1612:3C8HJ7UOP81YL3Y92XZU0RU4PUNZMT", "dateTime": 1516047421841}, {"current_trial": 193, "trialdata": {"rt": -1000, "trial_type": "single-audio", "word": "casket", "stimulus": "/static/audio/wordpool/CASKET.wav", "conditions": [12, 1600, "a", 24000], "internal_node_id": "0.0-139.0", "trial": 5, "time_elapsed": 936267, "serialpos": 8, "key_press": -1, "wordID": 254, "type": "PRES_AUD", "trial_index": 193}, "uniqueid": "MTK1612:3C8HJ7UOP81YL3Y92XZU0RU4PUNZMT", "dateTime": 1516047424401}, {"current_trial": 194, "trialdata": {"rt": -1000, "trial_type": "single-audio", "word": "velvet", "stimulus": "/static/audio/wordpool/VELVET.wav", "conditions": [12, 1600, "a", 24000], "internal_node_id": "0.0-140.0", "trial": 5, "time_elapsed": 938703, "serialpos": 9, "key_press": -1, "wordID": 1554, "type": "PRES_AUD", "trial_index": 194}, "uniqueid": "MTK1612:3C8HJ7UOP81YL3Y92XZU0RU4PUNZMT", "dateTime": 1516047426837}, {"current_trial": 195, "trialdata": {"rt": -1000, "trial_type": "single-audio", "word": "silk", "stimulus": "/static/audio/wordpool/SILK.wav", "conditions": [12, 1600, "a", 24000], "internal_node_id": "0.0-141.0", "trial": 5, "time_elapsed": 941238, "serialpos": 10, "key_press": -1, "wordID": 1306, "type": "PRES_AUD", "trial_index": 195}, "uniqueid": "MTK1612:3C8HJ7UOP81YL3Y92XZU0RU4PUNZMT", "dateTime": 1516047429373}, {"current_trial": 196, "trialdata": {"rt": -1000, "trial_type": "single-audio", "word": "report", "stimulus": "/static/audio/wordpool/REPORT.wav", "conditions": [12, 1600, "a", 24000], "internal_node_id": "0.0-142.0", "trial": 5, "time_elapsed": 943663, "serialpos": 11, "key_press": -1, "wordID": 1183, "type": "PRES_AUD", "trial_index": 196}, "uniqueid": "MTK1612:3C8HJ7UOP81YL3Y92XZU0RU4PUNZMT", "dateTime": 1516047431797}, {"current_trial": 197, "trialdata": {"rt": -1, "trial_type": "single-stim", "stimulus": "", "internal_node_id": "0.0-143.0-0.0", "time_elapsed": 944991, "key_press": -1, "type": "PRE_RECALL_DELAY", "trial_index": 197}, "uniqueid": "MTK1612:3C8HJ7UOP81YL3Y92XZU0RU4PUNZMT", "dateTime": 1516047433125}, {"current_trial": 198, "trialdata": {"rt": -1000, "trial_type": "single-audio", "stimulus": "/static/audio/400Hz.wav", "internal_node_id": "0.0-144.0", "time_elapsed": 945493, "key_press": -1, "type": "PRE_RECALL_ALERT", "trial_index": 198}, "uniqueid": "MTK1612:3C8HJ7UOP81YL3Y92XZU0RU4PUNZMT", "dateTime": 1516047433627}, {"current_trial": 199, "trialdata": {"rt": [2563, 4091, 5240, 6316, 15067, 31041], "recwords": ["report", "silk", "velvet", "casket", "transplant", "casket"], "key_times": [1703, 1863, 2015, 2155, 2278, 2420, 2563, 3109, 3338, 3602, 3850, 4091, 4397, 4564, 4686, 4797, 4915, 5098, 5240, 5467, 5628, 5726, 5895, 6019, 6182, 6316, 13198, 13353, 13536, 13707, 13820, 14045, 14276, 14388, 14791, 14921, 15067, 30170, 30350, 30465, 30636, 30760, 30904, 31041], "trial_type": "free-recall", "conditions": [12, 1600, "a", 24000], "internal_node_id": "0.0-145.0-0.0", "key_presses": [82, 69, 80, 79, 82, 84, 13, 83, 73, 76, 75, 13, 86, 69, 76, 86, 69, 84, 13, 67, 65, 83, 75, 69, 84, 13, 84, 82, 65, 78, 83, 80, 76, 65, 78, 84, 13, 67, 65, 83, 75, 69, 84, 13], "trial": 5, "time_elapsed": 1005497, "type": "FREE_RECALL", "trial_index": 199}, "uniqueid": "MTK1612:3C8HJ7UOP81YL3Y92XZU0RU4PUNZMT", "dateTime": 1516047493635}, {"current_trial": 200, "trialdata": {"rt": 395, "trial_type": "text", "internal_node_id": "0.0-146.0", "time_elapsed": 1007897, "key_press": 32, "type": "INSTRUCTIONS", "trial_index": 200}, "uniqueid": "MTK1612:3C8HJ7UOP81YL3Y92XZU0RU4PUNZMT", "dateTime": 1516047496031}, {"current_trial": 201, "trialdata": {"rt": [3087, 4667, 7748, 10429], "trial_type": "math-distractor", "key_times": [2647, 2948, 3087, 4274, 4524, 4667, 7389, 7539, 7748, 10168, 10298, 10429], "responses": ["16", "15", "19", "23"], "num2": [5, 5, 4, 8, 1], "num3": [3, 1, 8, 9, 1], "conditions": [24, 800, "a", 12000], "internal_node_id": "0.0-147.0", "key_presses": [49, 54, 13, 49, 53, 13, 49, 57, 13, 50, 51, 13], "trial": 6, "time_elapsed": 1021901, "type": "DISTRACTOR", "trial_index": 201, "num1": [8, 9, 7, 6, 5]}, "uniqueid": "MTK1612:3C8HJ7UOP81YL3Y92XZU0RU4PUNZMT", "dateTime": 1516047510036}, {"current_trial": 202, "trialdata": {"rt": -1, "trial_type": "single-stim", "stimulus": "<p id=\"stim\">10</p>", "internal_node_id": "0.0-148.0-0.0", "time_elapsed": 1024905, "key_press": -1, "trial_index": 202}, "uniqueid": "MTK1612:3C8HJ7UOP81YL3Y92XZU0RU4PUNZMT", "dateTime": 1516047513039}, {"current_trial": 203, "trialdata": {"rt": -1, "trial_type": "single-stim", "stimulus": "<p id=\"stim\">9</p>", "internal_node_id": "0.0-148.0-1.0", "time_elapsed": 1025907, "key_press": -1, "trial_index": 203}, "uniqueid": "MTK1612:3C8HJ7UOP81YL3Y92XZU0RU4PUNZMT", "dateTime": 1516047514041}, {"current_trial": 204, "trialdata": {"rt": -1, "trial_type": "single-stim", "stimulus": "<p id=\"stim\">8</p>", "internal_node_id": "0.0-148.0-2.0", "time_elapsed": 1026908, "key_press": -1, "trial_index": 204}, "uniqueid": "MTK1612:3C8HJ7UOP81YL3Y92XZU0RU4PUNZMT", "dateTime": 1516047515043}, {"current_trial": 205, "trialdata": {"rt": -1, "trial_type": "single-stim", "stimulus": "<p id=\"stim\">7</p>", "internal_node_id": "0.0-148.0-3.0", "time_elapsed": 1027910, "key_press": -1, "trial_index": 205}, "uniqueid": "MTK1612:3C8HJ7UOP81YL3Y92XZU0RU4PUNZMT", "dateTime": 1516047516045}, {"current_trial": 206, "trialdata": {"rt": -1, "trial_type": "single-stim", "stimulus": "<p id=\"stim\">6</p>", "internal_node_id": "0.0-148.0-4.0", "time_elapsed": 1028912, "key_press": -1, "trial_index": 206}, "uniqueid": "MTK1612:3C8HJ7UOP81YL3Y92XZU0RU4PUNZMT", "dateTime": 1516047517046}, {"current_trial": 207, "trialdata": {"rt": -1, "trial_type": "single-stim", "stimulus": "<p id=\"stim\">5</p>", "internal_node_id": "0.0-148.0-5.0", "time_elapsed": 1029914, "key_press": -1, "trial_index": 207}, "uniqueid": "MTK1612:3C8HJ7UOP81YL3Y92XZU0RU4PUNZMT", "dateTime": 1516047518049}, {"current_trial": 208, "trialdata": {"rt": -1, "trial_type": "single-stim", "stimulus": "<p id=\"stim\">4</p>", "internal_node_id": "0.0-148.0-6.0", "time_elapsed": 1030916, "key_press": -1, "trial_index": 208}, "uniqueid": "MTK1612:3C8HJ7UOP81YL3Y92XZU0RU4PUNZMT", "dateTime": 1516047519050}, {"current_trial": 209, "trialdata": {"rt": -1, "trial_type": "single-stim", "stimulus": "<p id=\"stim\">3</p>", "internal_node_id": "0.0-148.0-7.0", "time_elapsed": 1031918, "key_press": -1, "trial_index": 209}, "uniqueid": "MTK1612:3C8HJ7UOP81YL3Y92XZU0RU4PUNZMT", "dateTime": 1516047520052}, {"current_trial": 210, "trialdata": {"rt": -1, "trial_type": "single-stim", "stimulus": "<p id=\"stim\">2</p>", "internal_node_id": "0.0-148.0-8.0", "time_elapsed": 1032919, "key_press": -1, "trial_index": 210}, "uniqueid": "MTK1612:3C8HJ7UOP81YL3Y92XZU0RU4PUNZMT", "dateTime": 1516047521053}, {"current_trial": 211, "trialdata": {"rt": -1, "trial_type": "single-stim", "stimulus": "<p id=\"stim\">1</p>", "internal_node_id": "0.0-148.0-9.0", "time_elapsed": 1033921, "key_press": -1, "trial_index": 211}, "uniqueid": "MTK1612:3C8HJ7UOP81YL3Y92XZU0RU4PUNZMT", "dateTime": 1516047522055}, {"current_trial": 212, "trialdata": {"rt": -1, "trial_type": "single-stim", "stimulus": "<p id=\"stim\">+</p>", "internal_node_id": "0.0-149.0-0.0", "time_elapsed": 1035423, "key_press": -1, "type": "FIXATION", "trial_index": 212}, "uniqueid": "MTK1612:3C8HJ7UOP81YL3Y92XZU0RU4PUNZMT", "dateTime": 1516047523557}, {"current_trial": 213, "trialdata": {"rt": -1000, "trial_type": "single-audio", "word": "gallon", "stimulus": "/static/audio/wordpool/GALLON.wav", "conditions": [24, 800, "a", 12000], "internal_node_id": "0.0-150.0", "trial": 6, "time_elapsed": 1037368, "serialpos": 0, "key_press": -1, "wordID": 617, "type": "PRES_AUD", "trial_index": 213}, "uniqueid": "MTK1612:3C8HJ7UOP81YL3Y92XZU0RU4PUNZMT", "dateTime": 1516047525502}, {"current_trial": 214, "trialdata": {"rt": -1000, "trial_type": "single-audio", "word": "barrel", "stimulus": "/static/audio/wordpool/BARREL.wav", "conditions": [24, 800, "a", 12000], "internal_node_id": "0.0-151.0", "trial": 6, "time_elapsed": 1038996, "serialpos": 1, "key_press": -1, "wordID": 90, "type": "PRES_AUD", "trial_index": 214}, "uniqueid": "MTK1612:3C8HJ7UOP81YL3Y92XZU0RU4PUNZMT", "dateTime": 1516047527130}, {"current_trial": 215, "trialdata": {"rt": -1000, "trial_type": "single-audio", "word": "mop", "stimulus": "/static/audio/wordpool/MOP.wav", "conditions": [24, 800, "a", 12000], "internal_node_id": "0.0-152.0", "trial": 6, "time_elapsed": 1040794, "serialpos": 2, "key_press": -1, "wordID": 915, "type": "PRES_AUD", "trial_index": 215}, "uniqueid": "MTK1612:3C8HJ7UOP81YL3Y92XZU0RU4PUNZMT", "dateTime": 1516047528928}, {"current_trial": 216, "trialdata": {"rt": -1000, "trial_type": "single-audio", "word": "orange", "stimulus": "/static/audio/wordpool/ORANGE.wav", "conditions": [24, 800, "a", 12000], "internal_node_id": "0.0-153.0", "trial": 6, "time_elapsed": 1042715, "serialpos": 3, "key_press": -1, "wordID": 979, "type": "PRES_AUD", "trial_index": 216}, "uniqueid": "MTK1612:3C8HJ7UOP81YL3Y92XZU0RU4PUNZMT", "dateTime": 1516047530849}, {"current_trial": 217, "trialdata": {"rt": -1000, "trial_type": "single-audio", "word": "lizard", "stimulus": "/static/audio/wordpool/LIZARD.wav", "conditions": [24, 800, "a", 12000], "internal_node_id": "0.0-154.0", "trial": 6, "time_elapsed": 1044580, "serialpos": 4, "key_press": -1, "wordID": 833, "type": "PRES_AUD", "trial_index": 217}, "uniqueid": "MTK1612:3C8HJ7UOP81YL3Y92XZU0RU4PUNZMT", "dateTime": 1516047532715}, {"current_trial": 218, "trialdata": {"rt": -1000, "trial_type": "single-audio", "word": "blender", "stimulus": "/static/audio/wordpool/BLENDER.wav", "conditions": [24, 800, "a", 12000], "internal_node_id": "0.0-155.0", "trial": 6, "time_elapsed": 1046242, "serialpos": 5, "key_press": -1, "wordID": 135, "type": "PRES_AUD", "trial_index": 218}, "uniqueid": "MTK1612:3C8HJ7UOP81YL3Y92XZU0RU4PUNZMT", "dateTime": 1516047534376}, {"current_trial": 219, "trialdata": {"rt": -1000, "trial_type": "single-audio", "word": "sausage", "stimulus": "/static/audio/wordpool/SAUSAGE.wav", "conditions": [24, 800, "a", 12000], "internal_node_id": "0.0-156.0", "trial": 6, "time_elapsed": 1048089, "serialpos": 6, "key_press": -1, "wordID": 1237, "type": "PRES_AUD", "trial_index": 219}, "uniqueid": "MTK1612:3C8HJ7UOP81YL3Y92XZU0RU4PUNZMT", "dateTime": 1516047536223}, {"current_trial": 220, "trialdata": {"rt": -1000, "trial_type": "single-audio", "word": "lion", "stimulus": "/static/audio/wordpool/LION.wav", "conditions": [24, 800, "a", 12000], "internal_node_id": "0.0-157.0", "trial": 6, "time_elapsed": 1049877, "serialpos": 7, "key_press": -1, "wordID": 826, "type": "PRES_AUD", "trial_index": 220}, "uniqueid": "MTK1612:3C8HJ7UOP81YL3Y92XZU0RU4PUNZMT", "dateTime": 1516047538011}, {"current_trial": 221, "trialdata": {"rt": -1000, "trial_type": "single-audio", "word": "cellar", "stimulus": "/static/audio/wordpool/CELLAR.wav", "conditions": [24, 800, "a", 12000], "internal_node_id": "0.0-158.0", "trial": 6, "time_elapsed": 1051815, "serialpos": 8, "key_press": -1, "wordID": 266, "type": "PRES_AUD", "trial_index": 221}, "uniqueid": "MTK1612:3C8HJ7UOP81YL3Y92XZU0RU4PUNZMT", "dateTime": 1516047539949}, {"current_trial": 222, "trialdata": {"rt": -1000, "trial_type": "single-audio", "word": "london", "stimulus": "/static/audio/wordpool/LONDON.wav", "conditions": [24, 800, "a", 12000], "internal_node_id": "0.0-159.0", "trial": 6, "time_elapsed": 1053433, "serialpos": 9, "key_press": -1, "wordID": 842, "type": "PRES_AUD", "trial_index": 222}, "uniqueid": "MTK1612:3C8HJ7UOP81YL3Y92XZU0RU4PUNZMT", "dateTime": 1516047541567}, {"current_trial": 223, "trialdata": {"rt": -1000, "trial_type": "single-audio", "word": "swamp", "stimulus": "/static/audio/wordpool/SWAMP.wav", "conditions": [24, 800, "a", 12000], "internal_node_id": "0.0-160.0", "trial": 6, "time_elapsed": 1055120, "serialpos": 10, "key_press": -1, "wordID": 1415, "type": "PRES_AUD", "trial_index": 223}, "uniqueid": "MTK1612:3C8HJ7UOP81YL3Y92XZU0RU4PUNZMT", "dateTime": 1516047543255}, {"current_trial": 224, "trialdata": {"rt": -1000, "trial_type": "single-audio", "word": "mammal", "stimulus": "/static/audio/wordpool/MAMMAL.wav", "conditions": [24, 800, "a", 12000], "internal_node_id": "0.0-161.0", "trial": 6, "time_elapsed": 1056995, "serialpos": 11, "key_press": -1, "wordID": 860, "type": "PRES_AUD", "trial_index": 224}, "uniqueid": "MTK1612:3C8HJ7UOP81YL3Y92XZU0RU4PUNZMT", "dateTime": 1516047545129}, {"current_trial": 225, "trialdata": {"rt": -1000, "trial_type": "single-audio", "word": "snake", "stimulus": "/static/audio/wordpool/SNAKE.wav", "conditions": [24, 800, "a", 12000], "internal_node_id": "0.0-162.0", "trial": 6, "time_elapsed": 1058655, "serialpos": 12, "key_press": -1, "wordID": 1332, "type": "PRES_AUD", "trial_index": 225}, "uniqueid": "MTK1612:3C8HJ7UOP81YL3Y92XZU0RU4PUNZMT", "dateTime": 1516047546789}, {"current_trial": 226, "trialdata": {"rt": -1000, "trial_type": "single-audio", "word": "burglar", "stimulus": "/static/audio/wordpool/BURGLAR.wav", "conditions": [24, 800, "a", 12000], "internal_node_id": "0.0-163.0", "trial": 6, "time_elapsed": 1060518, "serialpos": 13, "key_press": -1, "wordID": 199, "type": "PRES_AUD", "trial_index": 226}, "uniqueid": "MTK1612:3C8HJ7UOP81YL3Y92XZU0RU4PUNZMT", "dateTime": 1516047548653}, {"current_trial": 227, "trialdata": {"rt": -1000, "trial_type": "single-audio", "word": "crown", "stimulus": "/static/audio/wordpool/CROWN.wav", "conditions": [24, 800, "a", 12000], "internal_node_id": "0.0-164.0", "trial": 6, "time_elapsed": 1062485, "serialpos": 14, "key_press": -1, "wordID": 414, "type": "PRES_AUD", "trial_index": 227}, "uniqueid": "MTK1612:3C8HJ7UOP81YL3Y92XZU0RU4PUNZMT", "dateTime": 1516047550619}, {"current_trial": 228, "trialdata": {"rt": -1000, "trial_type": "single-audio", "word": "flashlight", "stimulus": "/static/audio/wordpool/FLASHLIGHT.wav", "conditions": [24, 800, "a", 12000], "internal_node_id": "0.0-165.0", "trial": 6, "time_elapsed": 1064411, "serialpos": 15, "key_press": -1, "wordID": 574, "type": "PRES_AUD", "trial_index": 228}, "uniqueid": "MTK1612:3C8HJ7UOP81YL3Y92XZU0RU4PUNZMT", "dateTime": 1516047552545}, {"current_trial": 229, "trialdata": {"rt": -1000, "trial_type": "single-audio", "word": "fox", "stimulus": "/static/audio/wordpool/FOX.wav", "conditions": [24, 800, "a", 12000], "internal_node_id": "0.0-166.0", "trial": 6, "time_elapsed": 1066209, "serialpos": 16, "key_press": -1, "wordID": 597, "type": "PRES_AUD", "trial_index": 229}, "uniqueid": "MTK1612:3C8HJ7UOP81YL3Y92XZU0RU4PUNZMT", "dateTime": 1516047554343}, {"current_trial": 230, "trialdata": {"rt": -1000, "trial_type": "single-audio", "word": "gazelle", "stimulus": "/static/audio/wordpool/GAZELLE.wav", "conditions": [24, 800, "a", 12000], "internal_node_id": "0.0-167.0", "trial": 6, "time_elapsed": 1068068, "serialpos": 17, "key_press": -1, "wordID": 627, "type": "PRES_AUD", "trial_index": 230}, "uniqueid": "MTK1612:3C8HJ7UOP81YL3Y92XZU0RU4PUNZMT", "dateTime": 1516047556203}, {"current_trial": 231, "trialdata": {"rt": -1000, "trial_type": "single-audio", "word": "hatchet", "stimulus": "/static/audio/wordpool/HATCHET.wav", "conditions": [24, 800, "a", 12000], "internal_node_id": "0.0-168.0", "trial": 6, "time_elapsed": 1069870, "serialpos": 18, "key_press": -1, "wordID": 690, "type": "PRES_AUD", "trial_index": 231}, "uniqueid": "MTK1612:3C8HJ7UOP81YL3Y92XZU0RU4PUNZMT", "dateTime": 1516047558004}, {"current_trial": 232, "trialdata": {"rt": -1000, "trial_type": "single-audio", "word": "rooster", "stimulus": "/static/audio/wordpool/ROOSTER.wav", "conditions": [24, 800, "a", 12000], "internal_node_id": "0.0-169.0", "trial": 6, "time_elapsed": 1071491, "serialpos": 19, "key_press": -1, "wordID": 1208, "type": "PRES_AUD", "trial_index": 232}, "uniqueid": "MTK1612:3C8HJ7UOP81YL3Y92XZU0RU4PUNZMT", "dateTime": 1516047559625}, {"current_trial": 233, "trialdata": {"rt": -1000, "trial_type": "single-audio", "word": "liver", "stimulus": "/static/audio/wordpool/LIVER.wav", "conditions": [24, 800, "a", 12000], "internal_node_id": "0.0-170.0", "trial": 6, "time_elapsed": 1073446, "serialpos": 20, "key_press": -1, "wordID": 832, "type": "PRES_AUD", "trial_index": 233}, "uniqueid": "MTK1612:3C8HJ7UOP81YL3Y92XZU0RU4PUNZMT", "dateTime": 1516047561580}, {"current_trial": 234, "trialdata": {"rt": -1000, "trial_type": "single-audio", "word": "marrow", "stimulus": "/static/audio/wordpool/MARROW.wav", "conditions": [24, 800, "a", 12000], "internal_node_id": "0.0-171.0", "trial": 6, "time_elapsed": 1075132, "serialpos": 21, "key_press": -1, "wordID": 871, "type": "PRES_AUD", "trial_index": 234}, "uniqueid": "MTK1612:3C8HJ7UOP81YL3Y92XZU0RU4PUNZMT", "dateTime": 1516047563266}, {"current_trial": 235, "trialdata": {"rt": -1000, "trial_type": "single-audio", "word": "chapel", "stimulus": "/static/audio/wordpool/CHAPEL.wav", "conditions": [24, 800, "a", 12000], "internal_node_id": "0.0-172.0", "trial": 6, "time_elapsed": 1076753, "serialpos": 22, "key_press": -1, "wordID": 279, "type": "PRES_AUD", "trial_index": 235}, "uniqueid": "MTK1612:3C8HJ7UOP81YL3Y92XZU0RU4PUNZMT", "dateTime": 1516047564887}, {"current_trial": 236, "trialdata": {"rt": -1000, "trial_type": "single-audio", "word": "branch", "stimulus": "/static/audio/wordpool/BRANCH.wav", "conditions": [24, 800, "a", 12000], "internal_node_id": "0.0-173.0", "trial": 6, "time_elapsed": 1078384, "serialpos": 23, "key_press": -1, "wordID": 167, "type": "PRES_AUD", "trial_index": 236}, "uniqueid": "MTK1612:3C8HJ7UOP81YL3Y92XZU0RU4PUNZMT", "dateTime": 1516047566518}, {"current_trial": 237, "trialdata": {"rt": -1, "trial_type": "single-stim", "stimulus": "", "internal_node_id": "0.0-174.0-0.0", "time_elapsed": 1079649, "key_press": -1, "type": "PRE_RECALL_DELAY", "trial_index": 237}, "uniqueid": "MTK1612:3C8HJ7UOP81YL3Y92XZU0RU4PUNZMT", "dateTime": 1516047567783}, {"current_trial": 238, "trialdata": {"rt": -1000, "trial_type": "single-audio", "stimulus": "/static/audio/400Hz.wav", "internal_node_id": "0.0-175.0", "time_elapsed": 1080151, "key_press": -1, "type": "PRE_RECALL_ALERT", "trial_index": 238}, "uniqueid": "MTK1612:3C8HJ7UOP81YL3Y92XZU0RU4PUNZMT", "dateTime": 1516047568285}, {"current_trial": 239, "trialdata": {"rt": [2257, 3938, 5558, 7930, 11836, 14869, 18858, 25152], "recwords": ["chapel", "branch", "liver", "lizard", "mop", "orange", "river", "snake"], "key_times": [463, 720, 1279, 1544, 1642, 1826, 2257, 3020, 3132, 3313, 3425, 3553, 3683, 3938, 4799, 5005, 5119, 5277, 5391, 5558, 6782, 6990, 7147, 7367, 7582, 7773, 7930, 11112, 11371, 11541, 11836, 14002, 14134, 14351, 14476, 14584, 14706, 14869, 18134, 18294, 18381, 18550, 18700, 18858, 24427, 24612, 24750, 24874, 24983, 25152, 59994], "trial_type": "free-recall", "conditions": [24, 800, "a", 12000], "internal_node_id": "0.0-176.0-0.0", "key_presses": [67, 72, 65, 80, 69, 76, 13, 66, 82, 65, 78, 67, 72, 32, 76, 73, 86, 69, 82, 32, 76, 73, 90, 65, 82, 68, 32, 77, 79, 80, 32, 79, 82, 65, 78, 71, 69, 32, 82, 73, 86, 69, 82, 32, 83, 78, 65, 75, 69, 32, 82], "trial": 6, "time_elapsed": 1140155, "type": "FREE_RECALL", "trial_index": 239}, "uniqueid": "MTK1612:3C8HJ7UOP81YL3Y92XZU0RU4PUNZMT", "dateTime": 1516047628293}, {"current_trial": 240, "trialdata": {"rt": 603, "trial_type": "text", "internal_node_id": "0.0-177.0", "time_elapsed": 1142763, "key_press": 32, "type": "INSTRUCTIONS", "trial_index": 240}, "uniqueid": "MTK1612:3C8HJ7UOP81YL3Y92XZU0RU4PUNZMT", "dateTime": 1516047630898}, {"current_trial": 241, "trialdata": {"rt": [1636, 3447, 5117, 6983, 8694, 11161, 12786, 15747, 17794, 20829, 22611], "trial_type": "math-distractor", "key_times": [1484, 1636, 2983, 3324, 3447, 4691, 4968, 5117, 6579, 6848, 6983, 8373, 8584, 8694, 10740, 10931, 11161, 12575, 12786, 15477, 15627, 15747, 17493, 17597, 17794, 20522, 20658, 20829, 22315, 22473, 22611], "responses": ["6", "15", "15", "15", "15", "19", "9", "22", "10", "23", "12"], "num2": [2, 1, 7, 8, 7, 7, 1, 9, 3, 9, 1, 2], "num3": [2, 6, 3, 6, 1, 6, 4, 5, 2, 7, 4, 1], "conditions": [12, 1600, "a", 24000], "internal_node_id": "0.0-178.0", "key_presses": [54, 13, 49, 53, 13, 49, 53, 13, 49, 53, 13, 49, 53, 13, 49, 57, 13, 57, 13, 50, 50, 13, 49, 48, 13, 50, 51, 13, 49, 50, 13], "trial": 7, "time_elapsed": 1168767, "type": "DISTRACTOR", "trial_index": 241, "num1": [2, 8, 5, 1, 7, 6, 4, 8, 5, 7, 7, 6]}, "uniqueid": "MTK1612:3C8HJ7UOP81YL3Y92XZU0RU4PUNZMT", "dateTime": 1516047656901}, {"current_trial": 242, "trialdata": {"rt": -1, "trial_type": "single-stim", "stimulus": "<p id=\"stim\">10</p>", "internal_node_id": "0.0-179.0-0.0", "time_elapsed": 1171769, "key_press": -1, "trial_index": 242}, "uniqueid": "MTK1612:3C8HJ7UOP81YL3Y92XZU0RU4PUNZMT", "dateTime": 1516047659903}, {"current_trial": 243, "trialdata": {"rt": -1, "trial_type": "single-stim", "stimulus": "<p id=\"stim\">9</p>", "internal_node_id": "0.0-179.0-1.0", "time_elapsed": 1172771, "key_press": -1, "trial_index": 243}, "uniqueid": "MTK1612:3C8HJ7UOP81YL3Y92XZU0RU4PUNZMT", "dateTime": 1516047660905}, {"current_trial": 244, "trialdata": {"rt": -1, "trial_type": "single-stim", "stimulus": "<p id=\"stim\">8</p>", "internal_node_id": "0.0-179.0-2.0", "time_elapsed": 1173774, "key_press": -1, "trial_index": 244}, "uniqueid": "MTK1612:3C8HJ7UOP81YL3Y92XZU0RU4PUNZMT", "dateTime": 1516047661908}, {"current_trial": 245, "trialdata": {"rt": -1, "trial_type": "single-stim", "stimulus": "<p id=\"stim\">7</p>", "internal_node_id": "0.0-179.0-3.0", "time_elapsed": 1174776, "key_press": -1, "trial_index": 245}, "uniqueid": "MTK1612:3C8HJ7UOP81YL3Y92XZU0RU4PUNZMT", "dateTime": 1516047662911}, {"current_trial": 246, "trialdata": {"rt": -1, "trial_type": "single-stim", "stimulus": "<p id=\"stim\">6</p>", "internal_node_id": "0.0-179.0-4.0", "time_elapsed": 1175778, "key_press": -1, "trial_index": 246}, "uniqueid": "MTK1612:3C8HJ7UOP81YL3Y92XZU0RU4PUNZMT", "dateTime": 1516047663912}, {"current_trial": 247, "trialdata": {"rt": -1, "trial_type": "single-stim", "stimulus": "<p id=\"stim\">5</p>", "internal_node_id": "0.0-179.0-5.0", "time_elapsed": 1176780, "key_press": -1, "trial_index": 247}, "uniqueid": "MTK1612:3C8HJ7UOP81YL3Y92XZU0RU4PUNZMT", "dateTime": 1516047664914}, {"current_trial": 248, "trialdata": {"rt": -1, "trial_type": "single-stim", "stimulus": "<p id=\"stim\">4</p>", "internal_node_id": "0.0-179.0-6.0", "time_elapsed": 1177781, "key_press": -1, "trial_index": 248}, "uniqueid": "MTK1612:3C8HJ7UOP81YL3Y92XZU0RU4PUNZMT", "dateTime": 1516047665915}, {"current_trial": 249, "trialdata": {"rt": -1, "trial_type": "single-stim", "stimulus": "<p id=\"stim\">3</p>", "internal_node_id": "0.0-179.0-7.0", "time_elapsed": 1178783, "key_press": -1, "trial_index": 249},