{"condition": 0, "counterbalance": 2484, "assignmentId": "3D3VGR7TA1MOXQ48MY02IPJZEVL3R2", "workerId": "MTK1043", "hitId": "3OJX0UFJ0ZE050NBHZRFPTDL5DIU9O", "currenttrial": 626, "bonus": 0, "data": [{"uniqueid": "MTK1043:3D3VGR7TA1MOXQ48MY02IPJZEVL3R2", "current_trial": 0, "dateTime": 1513018147149, "trialdata": {"rt": 1777, "key_press": 32, "type": "INSTRUCTIONS", "trial_type": "text", "trial_index": 0, "time_elapsed": 1786, "internal_node_id": "0.0-0.0"}}, {"uniqueid": "MTK1043:3D3VGR7TA1MOXQ48MY02IPJZEVL3R2", "current_trial": 1, "dateTime": 1513018167739, "trialdata": {"rt": 20582, "key_press": 32, "type": "INSTRUCTIONS", "trial_type": "text", "trial_index": 1, "time_elapsed": 22377, "internal_node_id": "0.0-1.0"}}, {"uniqueid": "MTK1043:3D3VGR7TA1MOXQ48MY02IPJZEVL3R2", "current_trial": 2, "dateTime": 1513018213308, "trialdata": {"rt": [28712, 45499], "responses": ["oh", "ocean"], "type": "AUDIO_TEST", "trial_type": "audio-test", "trial_index": 2, "time_elapsed": 67947, "internal_node_id": "0.0-2.0"}}, {"uniqueid": "MTK1043:3D3VGR7TA1MOXQ48MY02IPJZEVL3R2", "current_trial": 3, "dateTime": 1513018220726, "trialdata": {"rt": [7402], "responses": ["crystal"], "type": "AUDIO_TEST", "trial_type": "audio-test", "trial_index": 3, "time_elapsed": 75365, "internal_node_id": "0.0-3.0"}}, {"uniqueid": "MTK1043:3D3VGR7TA1MOXQ48MY02IPJZEVL3R2", "current_trial": 4, "dateTime": 1513018226999, "trialdata": {"rt": [6258], "responses": ["spice"], "type": "AUDIO_TEST", "trial_type": "audio-test", "trial_index": 4, "time_elapsed": 81638, "internal_node_id": "0.0-4.0"}}, {"uniqueid": "MTK1043:3D3VGR7TA1MOXQ48MY02IPJZEVL3R2", "current_trial": 5, "dateTime": 1513018264737, "trialdata": {"rt": 36981, "responses": "{\"Q0\":\"12am\",\"Q1\":\"9am\",\"Q2\":\"5\"}", "type": "SLEEP_SURVEY", "trial_type": "survey-text", "trial_index": 5, "time_elapsed": 119376, "internal_node_id": "0.0-5.0"}}, {"uniqueid": "MTK1043:3D3VGR7TA1MOXQ48MY02IPJZEVL3R2", "current_trial": 6, "dateTime": 1513018402864, "trialdata": {"rt": 137118, "key_press": 32, "type": "INSTRUCTIONS", "trial_type": "text", "trial_index": 6, "time_elapsed": 257503, "internal_node_id": "0.0-6.0"}}, {"uniqueid": "MTK1043:3D3VGR7TA1MOXQ48MY02IPJZEVL3R2", "current_trial": 7, "dateTime": 1513018427386, "trialdata": {"rt": 24013, "key_press": 32, "type": "INSTRUCTIONS", "trial_type": "text", "trial_index": 7, "time_elapsed": 282025, "internal_node_id": "0.0-7.0"}}, {"uniqueid": "MTK1043:3D3VGR7TA1MOXQ48MY02IPJZEVL3R2", "current_trial": 8, "dateTime": 1513018439848, "trialdata": {"rt": 11952, "key_press": 32, "type": "INSTRUCTIONS", "trial_type": "text", "trial_index": 8, "time_elapsed": 294486, "internal_node_id": "0.0-8.0"}}, {"uniqueid": "MTK1043:3D3VGR7TA1MOXQ48MY02IPJZEVL3R2", "current_trial": 9, "dateTime": 1513018458916, "trialdata": {"rt": [4134, 7561, 10791, 12936, 15824], "responses": ["8", "16", "17", "9", "11"], "num1": [3, 6, 6, 1, 1, 7], "num2": [3, 1, 6, 7, 4, 4], "num3": [2, 9, 5, 1, 6, 5], "type": "DISTRACTOR", "conditions": [18, 1200, "v", 18000], "trial": 0, "trial_type": "math-distractor", "trial_index": 9, "time_elapsed": 313553, "internal_node_id": "0.0-9.0"}}, {"uniqueid": "MTK1043:3D3VGR7TA1MOXQ48MY02IPJZEVL3R2", "current_trial": 10, "dateTime": 1513018461923, "trialdata": {"rt": -1, "stimulus": "<p id=\"stim\">10</p>", "key_press": -1, "trial_type": "single-stim", "trial_index": 10, "time_elapsed": 316561, "internal_node_id": "0.0-10.0-0.0"}}, {"uniqueid": "MTK1043:3D3VGR7TA1MOXQ48MY02IPJZEVL3R2", "current_trial": 11, "dateTime": 1513018462938, "trialdata": {"rt": -1, "stimulus": "<p id=\"stim\">9</p>", "key_press": -1, "trial_type": "single-stim", "trial_index": 11, "time_elapsed": 317576, "internal_node_id": "0.0-10.0-1.0"}}, {"uniqueid": "MTK1043:3D3VGR7TA1MOXQ48MY02IPJZEVL3R2", "current_trial": 12, "dateTime": 1513018463961, "trialdata": {"rt": -1, "stimulus": "<p id=\"stim\">8</p>", "key_press": -1, "trial_type": "single-stim", "trial_index": 12, "time_elapsed": 318598, "internal_node_id": "0.0-10.0-2.0"}}, {"uniqueid": "MTK1043:3D3VGR7TA1MOXQ48MY02IPJZEVL3R2", "current_trial": 13, "dateTime": 1513018464977, "trialdata": {"rt": -1, "stimulus": "<p id=\"stim\">7</p>", "key_press": -1, "trial_type": "single-stim", "trial_index": 13, "time_elapsed": 319616, "internal_node_id": "0.0-10.0-3.0"}}, {"uniqueid": "MTK1043:3D3VGR7TA1MOXQ48MY02IPJZEVL3R2", "current_trial": 14, "dateTime": 1513018465990, "trialdata": {"rt": -1, "stimulus": "<p id=\"stim\">6</p>", "key_press": -1, "trial_type": "single-stim", "trial_index": 14, "time_elapsed": 320627, "internal_node_id": "0.0-10.0-4.0"}}, {"uniqueid": "MTK1043:3D3VGR7TA1MOXQ48MY02IPJZEVL3R2", "current_trial": 15, "dateTime": 1513018467002, "trialdata": {"rt": -1, "stimulus": "<p id=\"stim\">5</p>", "key_press": -1, "trial_type": "single-stim", "trial_index": 15, "time_elapsed": 321639, "internal_node_id": "0.0-10.0-5.0"}}, {"uniqueid": "MTK1043:3D3VGR7TA1MOXQ48MY02IPJZEVL3R2", "current_trial": 16, "dateTime": 1513018468024, "trialdata": {"rt": -1, "stimulus": "<p id=\"stim\">4</p>", "key_press": -1, "trial_type": "single-stim", "trial_index": 16, "time_elapsed": 322661, "internal_node_id": "0.0-10.0-6.0"}}, {"uniqueid": "MTK1043:3D3VGR7TA1MOXQ48MY02IPJZEVL3R2", "current_trial": 17, "dateTime": 1513018469043, "trialdata": {"rt": -1, "stimulus": "<p id=\"stim\">3</p>", "key_press": -1, "trial_type": "single-stim", "trial_index": 17, "time_elapsed": 323681, "internal_node_id": "0.0-10.0-7.0"}}, {"uniqueid": "MTK1043:3D3VGR7TA1MOXQ48MY02IPJZEVL3R2", "current_trial": 18, "dateTime": 1513018470059, "trialdata": {"rt": -1, "stimulus": "<p id=\"stim\">2</p>", "key_press": -1, "trial_type": "single-stim", "trial_index": 18, "time_elapsed": 324696, "internal_node_id": "0.0-10.0-8.0"}}, {"uniqueid": "MTK1043:3D3VGR7TA1MOXQ48MY02IPJZEVL3R2", "current_trial": 19, "dateTime": 1513018471072, "trialdata": {"rt": -1, "stimulus": "<p id=\"stim\">1</p>", "key_press": -1, "trial_type": "single-stim", "trial_index": 19, "time_elapsed": 325709, "internal_node_id": "0.0-10.0-9.0"}}, {"uniqueid": "MTK1043:3D3VGR7TA1MOXQ48MY02IPJZEVL3R2", "current_trial": 20, "dateTime": 1513018472585, "trialdata": {"rt": -1, "stimulus": "<p id=\"stim\">+</p>", "key_press": -1, "type": "FIXATION", "trial_type": "single-stim", "trial_index": 20, "time_elapsed": 327223, "internal_node_id": "0.0-11.0-0.0"}}, {"uniqueid": "MTK1043:3D3VGR7TA1MOXQ48MY02IPJZEVL3R2", "current_trial": 21, "dateTime": 1513018473800, "trialdata": {"rt": -1, "stimulus": "<p id=\"stim\">WORLD</p>", "key_press": -1, "type": "PRES_VIS", "word": "world", "wordID": 1621, "conditions": [18, 1200, "v", 18000], "trial": 0, "serialpos": 0, "trial_type": "single-stim", "trial_index": 21, "time_elapsed": 328437, "internal_node_id": "0.0-12.0"}}, {"uniqueid": "MTK1043:3D3VGR7TA1MOXQ48MY02IPJZEVL3R2", "current_trial": 22, "dateTime": 1513018475829, "trialdata": {"rt": -1, "stimulus": "<p id=\"stim\">TRACTOR</p>", "key_press": -1, "type": "PRES_VIS", "word": "tractor", "wordID": 1492, "conditions": [18, 1200, "v", 18000], "trial": 0, "serialpos": 1, "trial_type": "single-stim", "trial_index": 22, "time_elapsed": 330466, "internal_node_id": "0.0-13.0"}}, {"uniqueid": "MTK1043:3D3VGR7TA1MOXQ48MY02IPJZEVL3R2", "current_trial": 23, "dateTime": 1513018478072, "trialdata": {"rt": -1, "stimulus": "<p id=\"stim\">OFFICE</p>", "key_press": -1, "type": "PRES_VIS", "word": "office", "wordID": 971, "conditions": [18, 1200, "v", 18000], "trial": 0, "serialpos": 2, "trial_type": "single-stim", "trial_index": 23, "time_elapsed": 332709, "internal_node_id": "0.0-14.0"}}, {"uniqueid": "MTK1043:3D3VGR7TA1MOXQ48MY02IPJZEVL3R2", "current_trial": 24, "dateTime": 1513018480299, "trialdata": {"rt": -1, "stimulus": "<p id=\"stim\">SIDEWALK</p>", "key_press": -1, "type": "PRES_VIS", "word": "sidewalk", "wordID": 1302, "conditions": [18, 1200, "v", 18000], "trial": 0, "serialpos": 3, "trial_type": "single-stim", "trial_index": 24, "time_elapsed": 334937, "internal_node_id": "0.0-15.0"}}, {"uniqueid": "MTK1043:3D3VGR7TA1MOXQ48MY02IPJZEVL3R2", "current_trial": 25, "dateTime": 1513018482449, "trialdata": {"rt": -1, "stimulus": "<p id=\"stim\">MONEY</p>", "key_press": -1, "type": "PRES_VIS", "word": "money", "wordID": 907, "conditions": [18, 1200, "v", 18000], "trial": 0, "serialpos": 4, "trial_type": "single-stim", "trial_index": 25, "time_elapsed": 337086, "internal_node_id": "0.0-16.0"}}, {"uniqueid": "MTK1043:3D3VGR7TA1MOXQ48MY02IPJZEVL3R2", "current_trial": 26, "dateTime": 1513018484513, "trialdata": {"rt": -1, "stimulus": "<p id=\"stim\">SMOG</p>", "key_press": -1, "type": "PRES_VIS", "word": "smog", "wordID": 1329, "conditions": [18, 1200, "v", 18000], "trial": 0, "serialpos": 5, "trial_type": "single-stim", "trial_index": 26, "time_elapsed": 339150, "internal_node_id": "0.0-17.0"}}, {"uniqueid": "MTK1043:3D3VGR7TA1MOXQ48MY02IPJZEVL3R2", "current_trial": 27, "dateTime": 1513018486638, "trialdata": {"rt": -1, "stimulus": "<p id=\"stim\">CAFE</p>", "key_press": -1, "type": "PRES_VIS", "word": "cafe", "wordID": 215, "conditions": [18, 1200, "v", 18000], "trial": 0, "serialpos": 6, "trial_type": "single-stim", "trial_index": 27, "time_elapsed": 341276, "internal_node_id": "0.0-18.0"}}, {"uniqueid": "MTK1043:3D3VGR7TA1MOXQ48MY02IPJZEVL3R2", "current_trial": 28, "dateTime": 1513018488823, "trialdata": {"rt": -1, "stimulus": "<p id=\"stim\">ROD</p>", "key_press": -1, "type": "PRES_VIS", "word": "rod", "wordID": 1202, "conditions": [18, 1200, "v", 18000], "trial": 0, "serialpos": 7, "trial_type": "single-stim", "trial_index": 28, "time_elapsed": 343461, "internal_node_id": "0.0-19.0"}}, {"uniqueid": "MTK1043:3D3VGR7TA1MOXQ48MY02IPJZEVL3R2", "current_trial": 29, "dateTime": 1513018491202, "trialdata": {"rt": -1, "stimulus": "<p id=\"stim\">RIVER</p>", "key_press": -1, "type": "PRES_VIS", "word": "river", "wordID": 1193, "conditions": [18, 1200, "v", 18000], "trial": 0, "serialpos": 8, "trial_type": "single-stim", "trial_index": 29, "time_elapsed": 345839, "internal_node_id": "0.0-20.0"}}, {"uniqueid": "MTK1043:3D3VGR7TA1MOXQ48MY02IPJZEVL3R2", "current_trial": 30, "dateTime": 1513018493304, "trialdata": {"rt": -1, "stimulus": "<p id=\"stim\">BACON</p>", "key_press": -1, "type": "PRES_VIS", "word": "bacon", "wordID": 66, "conditions": [18, 1200, "v", 18000], "trial": 0, "serialpos": 9, "trial_type": "single-stim", "trial_index": 30, "time_elapsed": 347941, "internal_node_id": "0.0-21.0"}}, {"uniqueid": "MTK1043:3D3VGR7TA1MOXQ48MY02IPJZEVL3R2", "current_trial": 31, "dateTime": 1513018495329, "trialdata": {"rt": -1, "stimulus": "<p id=\"stim\">COWBOY</p>", "key_press": -1, "type": "PRES_VIS", "word": "cowboy", "wordID": 394, "conditions": [18, 1200, "v", 18000], "trial": 0, "serialpos": 10, "trial_type": "single-stim", "trial_index": 31, "time_elapsed": 349966, "internal_node_id": "0.0-22.0"}}, {"uniqueid": "MTK1043:3D3VGR7TA1MOXQ48MY02IPJZEVL3R2", "current_trial": 32, "dateTime": 1513018497590, "trialdata": {"rt": -1, "stimulus": "<p id=\"stim\">JURY</p>", "key_press": -1, "type": "PRES_VIS", "word": "jury", "wordID": 765, "conditions": [18, 1200, "v", 18000], "trial": 0, "serialpos": 11, "trial_type": "single-stim", "trial_index": 32, "time_elapsed": 352228, "internal_node_id": "0.0-23.0"}}, {"uniqueid": "MTK1043:3D3VGR7TA1MOXQ48MY02IPJZEVL3R2", "current_trial": 33, "dateTime": 1513018499923, "trialdata": {"rt": -1, "stimulus": "<p id=\"stim\">UMPIRE</p>", "key_press": -1, "type": "PRES_VIS", "word": "umpire", "wordID": 1534, "conditions": [18, 1200, "v", 18000], "trial": 0, "serialpos": 12, "trial_type": "single-stim", "trial_index": 33, "time_elapsed": 354560, "internal_node_id": "0.0-24.0"}}, {"uniqueid": "MTK1043:3D3VGR7TA1MOXQ48MY02IPJZEVL3R2", "current_trial": 34, "dateTime": 1513018502129, "trialdata": {"rt": -1, "stimulus": "<p id=\"stim\">BARLEY</p>", "key_press": -1, "type": "PRES_VIS", "word": "barley", "wordID": 87, "conditions": [18, 1200, "v", 18000], "trial": 0, "serialpos": 13, "trial_type": "single-stim", "trial_index": 34, "time_elapsed": 356766, "internal_node_id": "0.0-25.0"}}, {"uniqueid": "MTK1043:3D3VGR7TA1MOXQ48MY02IPJZEVL3R2", "current_trial": 35, "dateTime": 1513018504285, "trialdata": {"rt": -1, "stimulus": "<p id=\"stim\">THREAD</p>", "key_press": -1, "type": "PRES_VIS", "word": "thread", "wordID": 1459, "conditions": [18, 1200, "v", 18000], "trial": 0, "serialpos": 14, "trial_type": "single-stim", "trial_index": 35, "time_elapsed": 358924, "internal_node_id": "0.0-26.0"}}, {"uniqueid": "MTK1043:3D3VGR7TA1MOXQ48MY02IPJZEVL3R2", "current_trial": 36, "dateTime": 1513018506695, "trialdata": {"rt": -1, "stimulus": "<p id=\"stim\">CHEST</p>", "key_press": -1, "type": "PRES_VIS", "word": "chest", "wordID": 294, "conditions": [18, 1200, "v", 18000], "trial": 0, "serialpos": 15, "trial_type": "single-stim", "trial_index": 36, "time_elapsed": 361332, "internal_node_id": "0.0-27.0"}}, {"uniqueid": "MTK1043:3D3VGR7TA1MOXQ48MY02IPJZEVL3R2", "current_trial": 37, "dateTime": 1513018508833, "trialdata": {"rt": -1, "stimulus": "<p id=\"stim\">TURTLE</p>", "key_press": -1, "type": "PRES_VIS", "word": "turtle", "wordID": 1521, "conditions": [18, 1200, "v", 18000], "trial": 0, "serialpos": 16, "trial_type": "single-stim", "trial_index": 37, "time_elapsed": 363471, "internal_node_id": "0.0-28.0"}}, {"uniqueid": "MTK1043:3D3VGR7TA1MOXQ48MY02IPJZEVL3R2", "current_trial": 38, "dateTime": 1513018511040, "trialdata": {"rt": -1, "stimulus": "<p id=\"stim\">WIDOW</p>", "key_press": -1, "type": "PRES_VIS", "word": "widow", "wordID": 1607, "conditions": [18, 1200, "v", 18000], "trial": 0, "serialpos": 17, "trial_type": "single-stim", "trial_index": 38, "time_elapsed": 365677, "internal_node_id": "0.0-29.0"}}, {"uniqueid": "MTK1043:3D3VGR7TA1MOXQ48MY02IPJZEVL3R2", "current_trial": 39, "dateTime": 1513018513572, "trialdata": {"rt": -1, "stimulus": "", "key_press": -1, "type": "PRE_RECALL_DELAY", "trial_type": "single-stim", "trial_index": 39, "time_elapsed": 368209, "internal_node_id": "0.0-30.0-0.0"}}, {"uniqueid": "MTK1043:3D3VGR7TA1MOXQ48MY02IPJZEVL3R2", "current_trial": 40, "dateTime": 1513018514092, "trialdata": {"rt": -1000, "stimulus": "/static/audio/400Hz.wav", "key_press": -1, "type": "PRE_RECALL_ALERT", "trial_type": "single-audio", "trial_index": 40, "time_elapsed": 368730, "internal_node_id": "0.0-31.0"}}, {"uniqueid": "MTK1043:3D3VGR7TA1MOXQ48MY02IPJZEVL3R2", "current_trial": 41, "dateTime": 1513018574118, "trialdata": {"rt": [3275, 5324, 7922, 12949, 19114, 22695, 31804], "recwords": ["widow", "jury", "tractor", "barley", "river", "umpire", "rod"], "type": "FREE_RECALL", "conditions": [18, 1200, "v", 18000], "trial": 0, "trial_type": "free-recall", "trial_index": 41, "time_elapsed": 428743, "internal_node_id": "0.0-32.0-0.0"}}, {"uniqueid": "MTK1043:3D3VGR7TA1MOXQ48MY02IPJZEVL3R2", "current_trial": 42, "dateTime": 1513018577987, "trialdata": {"rt": 1865, "key_press": 13, "type": "INSTRUCTIONS", "trial_type": "text", "trial_index": 42, "time_elapsed": 432625, "internal_node_id": "0.0-33.0"}}, {"uniqueid": "MTK1043:3D3VGR7TA1MOXQ48MY02IPJZEVL3R2", "current_trial": 43, "dateTime": 1513018598034, "trialdata": {"rt": [4153, 6653, 8999, 12065, 14946], "responses": ["18", "5", "17", "17", "14"], "num1": [6, 1, 7, 8, 7, 7], "num2": [4, 2, 4, 4, 1, 8], "num3": [8, 2, 6, 5, 6, 5], "type": "DISTRACTOR", "conditions": [18, 1200, "a", 18000], "trial": 1, "trial_type": "math-distractor", "trial_index": 43, "time_elapsed": 452671, "internal_node_id": "0.0-34.0"}}, {"uniqueid": "MTK1043:3D3VGR7TA1MOXQ48MY02IPJZEVL3R2", "current_trial": 44, "dateTime": 1513018601056, "trialdata": {"rt": -1, "stimulus": "<p id=\"stim\">10</p>", "key_press": -1, "trial_type": "single-stim", "trial_index": 44, "time_elapsed": 455692, "internal_node_id": "0.0-35.0-0.0"}}, {"uniqueid": "MTK1043:3D3VGR7TA1MOXQ48MY02IPJZEVL3R2", "current_trial": 45, "dateTime": 1513018602078, "trialdata": {"rt": -1, "stimulus": "<p id=\"stim\">9</p>", "key_press": -1, "trial_type": "single-stim", "trial_index": 45, "time_elapsed": 456715, "internal_node_id": "0.0-35.0-1.0"}}, {"uniqueid": "MTK1043:3D3VGR7TA1MOXQ48MY02IPJZEVL3R2", "current_trial": 46, "dateTime": 1513018603093, "trialdata": {"rt": -1, "stimulus": "<p id=\"stim\">8</p>", "key_press": -1, "trial_type": "single-stim", "trial_index": 46, "time_elapsed": 457730, "internal_node_id": "0.0-35.0-2.0"}}, {"uniqueid": "MTK1043:3D3VGR7TA1MOXQ48MY02IPJZEVL3R2", "current_trial": 47, "dateTime": 1513018604110, "trialdata": {"rt": -1, "stimulus": "<p id=\"stim\">7</p>", "key_press": -1, "trial_type": "single-stim", "trial_index": 47, "time_elapsed": 458745, "internal_node_id": "0.0-35.0-3.0"}}, {"uniqueid": "MTK1043:3D3VGR7TA1MOXQ48MY02IPJZEVL3R2", "current_trial": 48, "dateTime": 1513018605133, "trialdata": {"rt": -1, "stimulus": "<p id=\"stim\">6</p>", "key_press": -1, "trial_type": "single-stim", "trial_index": 48, "time_elapsed": 459770, "internal_node_id": "0.0-35.0-4.0"}}, {"uniqueid": "MTK1043:3D3VGR7TA1MOXQ48MY02IPJZEVL3R2", "current_trial": 49, "dateTime": 1513018606150, "trialdata": {"rt": -1, "stimulus": "<p id=\"stim\">5</p>", "key_press": -1, "trial_type": "single-stim", "trial_index": 49, "time_elapsed": 460786, "internal_node_id": "0.0-35.0-5.0"}}, {"uniqueid": "MTK1043:3D3VGR7TA1MOXQ48MY02IPJZEVL3R2", "current_trial": 50, "dateTime": 1513018607171, "trialdata": {"rt": -1, "stimulus": "<p id=\"stim\">4</p>", "key_press": -1, "trial_type": "single-stim", "trial_index": 50, "time_elapsed": 461808, "internal_node_id": "0.0-35.0-6.0"}}, {"uniqueid": "MTK1043:3D3VGR7TA1MOXQ48MY02IPJZEVL3R2", "current_trial": 51, "dateTime": 1513018608185, "trialdata": {"rt": -1, "stimulus": "<p id=\"stim\">3</p>", "key_press": -1, "trial_type": "single-stim", "trial_index": 51, "time_elapsed": 462822, "internal_node_id": "0.0-35.0-7.0"}}, {"uniqueid": "MTK1043:3D3VGR7TA1MOXQ48MY02IPJZEVL3R2", "current_trial": 52, "dateTime": 1513018609198, "trialdata": {"rt": -1, "stimulus": "<p id=\"stim\">2</p>", "key_press": -1, "trial_type": "single-stim", "trial_index": 52, "time_elapsed": 463834, "internal_node_id": "0.0-35.0-8.0"}}, {"uniqueid": "MTK1043:3D3VGR7TA1MOXQ48MY02IPJZEVL3R2", "current_trial": 53, "dateTime": 1513018610216, "trialdata": {"rt": -1, "stimulus": "<p id=\"stim\">1</p>", "key_press": -1, "trial_type": "single-stim", "trial_index": 53, "time_elapsed": 464852, "internal_node_id": "0.0-35.0-9.0"}}, {"uniqueid": "MTK1043:3D3VGR7TA1MOXQ48MY02IPJZEVL3R2", "current_trial": 54, "dateTime": 1513018611731, "trialdata": {"rt": -1, "stimulus": "<p id=\"stim\">+</p>", "key_press": -1, "type": "FIXATION", "trial_type": "single-stim", "trial_index": 54, "time_elapsed": 466367, "internal_node_id": "0.0-36.0-0.0"}}, {"uniqueid": "MTK1043:3D3VGR7TA1MOXQ48MY02IPJZEVL3R2", "current_trial": 55, "dateTime": 1513018614036, "trialdata": {"rt": -1000, "stimulus": "/static/audio/wordpool/PRINCESS.wav", "key_press": -1, "type": "PRES_AUD", "word": "princess", "wordID": 1124, "conditions": [18, 1200, "a", 18000], "trial": 1, "serialpos": 0, "trial_type": "single-audio", "trial_index": 55, "time_elapsed": 468672, "internal_node_id": "0.0-37.0"}}, {"uniqueid": "MTK1043:3D3VGR7TA1MOXQ48MY02IPJZEVL3R2", "current_trial": 56, "dateTime": 1513018616134, "trialdata": {"rt": -1000, "stimulus": "/static/audio/wordpool/WRENCH.wav", "key_press": -1, "type": "PRES_AUD", "word": "wrench", "wordID": 1624, "conditions": [18, 1200, "a", 18000], "trial": 1, "serialpos": 1, "trial_type": "single-audio", "trial_index": 56, "time_elapsed": 470770, "internal_node_id": "0.0-38.0"}}, {"uniqueid": "MTK1043:3D3VGR7TA1MOXQ48MY02IPJZEVL3R2", "current_trial": 57, "dateTime": 1513018618215, "trialdata": {"rt": -1000, "stimulus": "/static/audio/wordpool/PIMPLE.wav", "key_press": -1, "type": "PRES_AUD", "word": "pimple", "wordID": 1070, "conditions": [18, 1200, "a", 18000], "trial": 1, "serialpos": 2, "trial_type": "single-audio", "trial_index": 57, "time_elapsed": 472852, "internal_node_id": "0.0-39.0"}}, {"uniqueid": "MTK1043:3D3VGR7TA1MOXQ48MY02IPJZEVL3R2", "current_trial": 58, "dateTime": 1513018620355, "trialdata": {"rt": -1000, "stimulus": "/static/audio/wordpool/ORANGE.wav", "key_press": -1, "type": "PRES_AUD", "word": "orange", "wordID": 979, "conditions": [18, 1200, "a", 18000], "trial": 1, "serialpos": 3, "trial_type": "single-audio", "trial_index": 58, "time_elapsed": 474993, "internal_node_id": "0.0-40.0"}}, {"uniqueid": "MTK1043:3D3VGR7TA1MOXQ48MY02IPJZEVL3R2", "current_trial": 59, "dateTime": 1513018622694, "trialdata": {"rt": -1000, "stimulus": "/static/audio/wordpool/HERO.wav", "key_press": -1, "type": "PRES_AUD", "word": "hero", "wordID": 705, "conditions": [18, 1200, "a", 18000], "trial": 1, "serialpos": 4, "trial_type": "single-audio", "trial_index": 59, "time_elapsed": 477331, "internal_node_id": "0.0-41.0"}}, {"uniqueid": "MTK1043:3D3VGR7TA1MOXQ48MY02IPJZEVL3R2", "current_trial": 60, "dateTime": 1513018624860, "trialdata": {"rt": -1000, "stimulus": "/static/audio/wordpool/PALACE.wav", "key_press": -1, "type": "PRES_AUD", "word": "palace", "wordID": 1005, "conditions": [18, 1200, "a", 18000], "trial": 1, "serialpos": 5, "trial_type": "single-audio", "trial_index": 60, "time_elapsed": 479497, "internal_node_id": "0.0-42.0"}}, {"uniqueid": "MTK1043:3D3VGR7TA1MOXQ48MY02IPJZEVL3R2", "current_trial": 61, "dateTime": 1513018627049, "trialdata": {"rt": -1000, "stimulus": "/static/audio/wordpool/SCALPEL.wav", "key_press": -1, "type": "PRES_AUD", "word": "scalpel", "wordID": 1242, "conditions": [18, 1200, "a", 18000], "trial": 1, "serialpos": 6, "trial_type": "single-audio", "trial_index": 61, "time_elapsed": 481686, "internal_node_id": "0.0-43.0"}}, {"uniqueid": "MTK1043:3D3VGR7TA1MOXQ48MY02IPJZEVL3R2", "current_trial": 62, "dateTime": 1513018629414, "trialdata": {"rt": -1000, "stimulus": "/static/audio/wordpool/EGYPT.wav", "key_press": -1, "type": "PRES_AUD", "word": "egypt", "wordID": 518, "conditions": [18, 1200, "a", 18000], "trial": 1, "serialpos": 7, "trial_type": "single-audio", "trial_index": 62, "time_elapsed": 484053, "internal_node_id": "0.0-44.0"}}, {"uniqueid": "MTK1043:3D3VGR7TA1MOXQ48MY02IPJZEVL3R2", "current_trial": 63, "dateTime": 1513018631825, "trialdata": {"rt": -1000, "stimulus": "/static/audio/wordpool/SODA.wav", "key_press": -1, "type": "PRES_AUD", "word": "soda", "wordID": 1340, "conditions": [18, 1200, "a", 18000], "trial": 1, "serialpos": 8, "trial_type": "single-audio", "trial_index": 63, "time_elapsed": 486461, "internal_node_id": "0.0-45.0"}}, {"uniqueid": "MTK1043:3D3VGR7TA1MOXQ48MY02IPJZEVL3R2", "current_trial": 64, "dateTime": 1513018634238, "trialdata": {"rt": -1000, "stimulus": "/static/audio/wordpool/BUCKET.wav", "key_press": -1, "type": "PRES_AUD", "word": "bucket", "wordID": 183, "conditions": [18, 1200, "a", 18000], "trial": 1, "serialpos": 9, "trial_type": "single-audio", "trial_index": 64, "time_elapsed": 488874, "internal_node_id": "0.0-46.0"}}, {"uniqueid": "MTK1043:3D3VGR7TA1MOXQ48MY02IPJZEVL3R2", "current_trial": 65, "dateTime": 1513018636633, "trialdata": {"rt": -1000, "stimulus": "/static/audio/wordpool/OX.wav", "key_press": -1, "type": "PRES_AUD", "word": "ox", "wordID": 993, "conditions": [18, 1200, "a", 18000], "trial": 1, "serialpos": 10, "trial_type": "single-audio", "trial_index": 65, "time_elapsed": 491269, "internal_node_id": "0.0-47.0"}}, {"uniqueid": "MTK1043:3D3VGR7TA1MOXQ48MY02IPJZEVL3R2", "current_trial": 66, "dateTime": 1513018638745, "trialdata": {"rt": -1000, "stimulus": "/static/audio/wordpool/OMELET.wav", "key_press": -1, "type": "PRES_AUD", "word": "omelet", "wordID": 975, "conditions": [18, 1200, "a", 18000], "trial": 1, "serialpos": 11, "trial_type": "single-audio", "trial_index": 66, "time_elapsed": 493381, "internal_node_id": "0.0-48.0"}}, {"uniqueid": "MTK1043:3D3VGR7TA1MOXQ48MY02IPJZEVL3R2", "current_trial": 67, "dateTime": 1513018640768, "trialdata": {"rt": -1000, "stimulus": "/static/audio/wordpool/TABLE.wav", "key_press": -1, "type": "PRES_AUD", "word": "table", "wordID": 1425, "conditions": [18, 1200, "a", 18000], "trial": 1, "serialpos": 12, "trial_type": "single-audio", "trial_index": 67, "time_elapsed": 495405, "internal_node_id": "0.0-49.0"}}, {"uniqueid": "MTK1043:3D3VGR7TA1MOXQ48MY02IPJZEVL3R2", "current_trial": 68, "dateTime": 1513018643150, "trialdata": {"rt": -1000, "stimulus": "/static/audio/wordpool/CITRUS.wav", "key_press": -1, "type": "PRES_AUD", "word": "citrus", "wordID": 312, "conditions": [18, 1200, "a", 18000], "trial": 1, "serialpos": 13, "trial_type": "single-audio", "trial_index": 68, "time_elapsed": 497766, "internal_node_id": "0.0-50.0"}}, {"uniqueid": "MTK1043:3D3VGR7TA1MOXQ48MY02IPJZEVL3R2", "current_trial": 69, "dateTime": 1513018645196, "trialdata": {"rt": -1000, "stimulus": "/static/audio/wordpool/SHELF.wav", "key_press": -1, "type": "PRES_AUD", "word": "shelf", "wordID": 1279, "conditions": [18, 1200, "a", 18000], "trial": 1, "serialpos": 14, "trial_type": "single-audio", "trial_index": 69, "time_elapsed": 499833, "internal_node_id": "0.0-51.0"}}, {"uniqueid": "MTK1043:3D3VGR7TA1MOXQ48MY02IPJZEVL3R2", "current_trial": 70, "dateTime": 1513018647246, "trialdata": {"rt": -1000, "stimulus": "/static/audio/wordpool/PATIENT.wav", "key_press": -1, "type": "PRES_AUD", "word": "patient", "wordID": 1023, "conditions": [18, 1200, "a", 18000], "trial": 1, "serialpos": 15, "trial_type": "single-audio", "trial_index": 70, "time_elapsed": 501884, "internal_node_id": "0.0-52.0"}}, {"uniqueid": "MTK1043:3D3VGR7TA1MOXQ48MY02IPJZEVL3R2", "current_trial": 71, "dateTime": 1513018649340, "trialdata": {"rt": -1000, "stimulus": "/static/audio/wordpool/CHEMIST.wav", "key_press": -1, "type": "PRES_AUD", "word": "chemist", "wordID": 291, "conditions": [18, 1200, "a", 18000], "trial": 1, "serialpos": 16, "trial_type": "single-audio", "trial_index": 71, "time_elapsed": 503978, "internal_node_id": "0.0-53.0"}}, {"uniqueid": "MTK1043:3D3VGR7TA1MOXQ48MY02IPJZEVL3R2", "current_trial": 72, "dateTime": 1513018651603, "trialdata": {"rt": -1000, "stimulus": "/static/audio/wordpool/COUSIN.wav", "key_press": -1, "type": "PRES_AUD", "word": "cousin", "wordID": 391, "conditions": [18, 1200, "a", 18000], "trial": 1, "serialpos": 17, "trial_type": "single-audio", "trial_index": 72, "time_elapsed": 506241, "internal_node_id": "0.0-54.0"}}, {"uniqueid": "MTK1043:3D3VGR7TA1MOXQ48MY02IPJZEVL3R2", "current_trial": 73, "dateTime": 1513018652896, "trialdata": {"rt": -1, "stimulus": "", "key_press": -1, "type": "PRE_RECALL_DELAY", "trial_type": "single-stim", "trial_index": 73, "time_elapsed": 507535, "internal_node_id": "0.0-55.0-0.0"}}, {"uniqueid": "MTK1043:3D3VGR7TA1MOXQ48MY02IPJZEVL3R2", "current_trial": 74, "dateTime": 1513018653402, "trialdata": {"rt": -1000, "stimulus": "/static/audio/400Hz.wav", "key_press": -1, "type": "PRE_RECALL_ALERT", "trial_type": "single-audio", "trial_index": 74, "time_elapsed": 508041, "internal_node_id": "0.0-56.0"}}, {"uniqueid": "MTK1043:3D3VGR7TA1MOXQ48MY02IPJZEVL3R2", "current_trial": 75, "dateTime": 1513018713443, "trialdata": {"rt": [2237, 4088, 8257, 9874, 11629, 17331, 22135, 24582, 29045], "recwords": ["cousin", "princess", "orange", "citrus", "table", "wrench", "hero", "castle", "shelf"], "type": "FREE_RECALL", "conditions": [18, 1200, "a", 18000], "trial": 1, "trial_type": "free-recall", "trial_index": 75, "time_elapsed": 568068, "internal_node_id": "0.0-57.0-0.0"}}, {"uniqueid": "MTK1043:3D3VGR7TA1MOXQ48MY02IPJZEVL3R2", "current_trial": 76, "dateTime": 1513018718257, "trialdata": {"rt": 2791, "key_press": 13, "type": "INSTRUCTIONS", "trial_type": "text", "trial_index": 76, "time_elapsed": 572881, "internal_node_id": "0.0-58.0"}}, {"uniqueid": "MTK1043:3D3VGR7TA1MOXQ48MY02IPJZEVL3R2", "current_trial": 77, "dateTime": 1513018731283, "trialdata": {"rt": [2690, 5607, 8545, 10607], "responses": ["19", "23", "18", "13"], "num1": [4, 9, 8, 6, 2], "num2": [8, 5, 5, 3, 8], "num3": [7, 9, 5, 4, 5], "type": "DISTRACTOR", "conditions": [24, 1600, "a", 12000], "trial": 2, "trial_type": "math-distractor", "trial_index": 77, "time_elapsed": 585921, "internal_node_id": "0.0-59.0"}}, {"uniqueid": "MTK1043:3D3VGR7TA1MOXQ48MY02IPJZEVL3R2", "current_trial": 78, "dateTime": 1513018734303, "trialdata": {"rt": -1, "stimulus": "<p id=\"stim\">10</p>", "key_press": -1, "trial_type": "single-stim", "trial_index": 78, "time_elapsed": 588941, "internal_node_id": "0.0-60.0-0.0"}}, {"uniqueid": "MTK1043:3D3VGR7TA1MOXQ48MY02IPJZEVL3R2", "current_trial": 79, "dateTime": 1513018735318, "trialdata": {"rt": -1, "stimulus": "<p id=\"stim\">9</p>", "key_press": -1, "trial_type": "single-stim", "trial_index": 79, "time_elapsed": 589956, "internal_node_id": "0.0-60.0-1.0"}}, {"uniqueid": "MTK1043:3D3VGR7TA1MOXQ48MY02IPJZEVL3R2", "current_trial": 80, "dateTime": 1513018736334, "trialdata": {"rt": -1, "stimulus": "<p id=\"stim\">8</p>", "key_press": -1, "trial_type": "single-stim", "trial_index": 80, "time_elapsed": 590972, "internal_node_id": "0.0-60.0-2.0"}}, {"uniqueid": "MTK1043:3D3VGR7TA1MOXQ48MY02IPJZEVL3R2", "current_trial": 81, "dateTime": 1513018737348, "trialdata": {"rt": -1, "stimulus": "<p id=\"stim\">7</p>", "key_press": -1, "trial_type": "single-stim", "trial_index": 81, "time_elapsed": 591986, "internal_node_id": "0.0-60.0-3.0"}}, {"uniqueid": "MTK1043:3D3VGR7TA1MOXQ48MY02IPJZEVL3R2", "current_trial": 82, "dateTime": 1513018738362, "trialdata": {"rt": -1, "stimulus": "<p id=\"stim\">6</p>", "key_press": -1, "trial_type": "single-stim", "trial_index": 82, "time_elapsed": 593000, "internal_node_id": "0.0-60.0-4.0"}}, {"uniqueid": "MTK1043:3D3VGR7TA1MOXQ48MY02IPJZEVL3R2", "current_trial": 83, "dateTime": 1513018739381, "trialdata": {"rt": -1, "stimulus": "<p id=\"stim\">5</p>", "key_press": -1, "trial_type": "single-stim", "trial_index": 83, "time_elapsed": 594019, "internal_node_id": "0.0-60.0-5.0"}}, {"uniqueid": "MTK1043:3D3VGR7TA1MOXQ48MY02IPJZEVL3R2", "current_trial": 84, "dateTime": 1513018740397, "trialdata": {"rt": -1, "stimulus": "<p id=\"stim\">4</p>", "key_press": -1, "trial_type": "single-stim", "trial_index": 84, "time_elapsed": 595035, "internal_node_id": "0.0-60.0-6.0"}}, {"uniqueid": "MTK1043:3D3VGR7TA1MOXQ48MY02IPJZEVL3R2", "current_trial": 85, "dateTime": 1513018741413, "trialdata": {"rt": -1, "stimulus": "<p id=\"stim\">3</p>", "key_press": -1, "trial_type": "single-stim", "trial_index": 85, "time_elapsed": 596051, "internal_node_id": "0.0-60.0-7.0"}}, {"uniqueid": "MTK1043:3D3VGR7TA1MOXQ48MY02IPJZEVL3R2", "current_trial": 86, "dateTime": 1513018742430, "trialdata": {"rt": -1, "stimulus": "<p id=\"stim\">2</p>", "key_press": -1, "trial_type": "single-stim", "trial_index": 86, "time_elapsed": 597068, "internal_node_id": "0.0-60.0-8.0"}}, {"uniqueid": "MTK1043:3D3VGR7TA1MOXQ48MY02IPJZEVL3R2", "current_trial": 87, "dateTime": 1513018743445, "trialdata": {"rt": -1, "stimulus": "<p id=\"stim\">1</p>", "key_press": -1, "trial_type": "single-stim", "trial_index": 87, "time_elapsed": 598083, "internal_node_id": "0.0-60.0-9.0"}}, {"uniqueid": "MTK1043:3D3VGR7TA1MOXQ48MY02IPJZEVL3R2", "current_trial": 88, "dateTime": 1513018744956, "trialdata": {"rt": -1, "stimulus": "<p id=\"stim\">+</p>", "key_press": -1, "type": "FIXATION", "trial_type": "single-stim", "trial_index": 88, "time_elapsed": 599593, "internal_node_id": "0.0-61.0-0.0"}}, {"uniqueid": "MTK1043:3D3VGR7TA1MOXQ48MY02IPJZEVL3R2", "current_trial": 89, "dateTime": 1513018747398, "trialdata": {"rt": -1000, "stimulus": "/static/audio/wordpool/CIGAR.wav", "key_press": -1, "type": "PRES_AUD", "word": "cigar", "wordID": 307, "conditions": [24, 1600, "a", 12000], "trial": 2, "serialpos": 0, "trial_type": "single-audio", "trial_index": 89, "time_elapsed": 602035, "internal_node_id": "0.0-62.0"}}, {"uniqueid": "MTK1043:3D3VGR7TA1MOXQ48MY02IPJZEVL3R2", "current_trial": 90, "dateTime": 1513018750111, "trialdata": {"rt": -1000, "stimulus": "/static/audio/wordpool/SHRUB.wav", "key_press": -1, "type": "PRES_AUD", "word": "shrub", "wordID": 1298, "conditions": [24, 1600, "a", 12000], "trial": 2, "serialpos": 1, "trial_type": "single-audio", "trial_index": 90, "time_elapsed": 604749, "internal_node_id": "0.0-63.0"}}, {"uniqueid": "MTK1043:3D3VGR7TA1MOXQ48MY02IPJZEVL3R2", "current_trial": 91, "dateTime": 1513018752675, "trialdata": {"rt": -1000, "stimulus": "/static/audio/wordpool/COD.wav", "key_press": -1, "type": "PRES_AUD", "word": "cod", "wordID": 339, "conditions": [24, 1600, "a", 12000], "trial": 2, "serialpos": 2, "trial_type": "single-audio", "trial_index": 91, "time_elapsed": 607313, "internal_node_id": "0.0-64.0"}}, {"uniqueid": "MTK1043:3D3VGR7TA1MOXQ48MY02IPJZEVL3R2", "current_trial": 92, "dateTime": 1513018755219, "trialdata": {"rt": -1000, "stimulus": "/static/audio/wordpool/CATTLE.wav", "key_press": -1, "type": "PRES_AUD", "word": "cattle", "wordID": 260, "conditions": [24, 1600, "a", 12000], "trial": 2, "serialpos": 3, "trial_type": "single-audio", "trial_index": 92, "time_elapsed": 609857, "internal_node_id": "0.0-65.0"}}, {"uniqueid": "MTK1043:3D3VGR7TA1MOXQ48MY02IPJZEVL3R2", "current_trial": 93, "dateTime": 1513018757870, "trialdata": {"rt": -1000, "stimulus": "/static/audio/wordpool/QUARTER.wav", "key_press": -1, "type": "PRES_AUD", "word": "quarter", "wordID": 1147, "conditions": [24, 1600, "a", 12000], "trial": 2, "serialpos": 4, "trial_type": "single-audio", "trial_index": 93, "time_elapsed": 612508, "internal_node_id": "0.0-66.0"}}, {"uniqueid": "MTK1043:3D3VGR7TA1MOXQ48MY02IPJZEVL3R2", "current_trial": 94, "dateTime": 1513018760470, "trialdata": {"rt": -1000, "stimulus": "/static/audio/wordpool/GUARD.wav", "key_press": -1, "type": "PRES_AUD", "word": "guard", "wordID": 666, "conditions": [24, 1600, "a", 12000], "trial": 2, "serialpos": 5, "trial_type": "single-audio", "trial_index": 94, "time_elapsed": 615108, "internal_node_id": "0.0-67.0"}}, {"uniqueid": "MTK1043:3D3VGR7TA1MOXQ48MY02IPJZEVL3R2", "current_trial": 95, "dateTime": 1513018762919, "trialdata": {"rt": -1000, "stimulus": "/static/audio/wordpool/CASHIER.wav", "key_press": -1, "type": "PRES_AUD", "word": "cashier", "wordID": 253, "conditions": [24, 1600, "a", 12000], "trial": 2, "serialpos": 6, "trial_type": "single-audio", "trial_index": 95, "time_elapsed": 617557, "internal_node_id": "0.0-68.0"}}, {"uniqueid": "MTK1043:3D3VGR7TA1MOXQ48MY02IPJZEVL3R2", "current_trial": 96, "dateTime": 1513018765464, "trialdata": {"rt": -1000, "stimulus": "/static/audio/wordpool/BANKER.wav", "key_press": -1, "type": "PRES_AUD", "word": "banker", "wordID": 83, "conditions": [24, 1600, "a", 12000], "trial": 2, "serialpos": 7, "trial_type": "single-audio", "trial_index": 96, "time_elapsed": 620102, "internal_node_id": "0.0-69.0"}}, {"uniqueid": "MTK1043:3D3VGR7TA1MOXQ48MY02IPJZEVL3R2", "current_trial": 97, "dateTime": 1513018768086, "trialdata": {"rt": -1000, "stimulus": "/static/audio/wordpool/BANK.wav", "key_press": -1, "type": "PRES_AUD", "word": "bank", "wordID": 82, "conditions": [24, 1600, "a", 12000], "trial": 2, "serialpos": 8, "trial_type": "single-audio", "trial_index": 97, "time_elapsed": 622725, "internal_node_id": "0.0-70.0"}}, {"uniqueid": "MTK1043:3D3VGR7TA1MOXQ48MY02IPJZEVL3R2", "current_trial": 98, "dateTime": 1513018770773, "trialdata": {"rt": -1000, "stimulus": "/static/audio/wordpool/SEAL.wav", "key_press": -1, "type": "PRES_AUD", "word": "seal", "wordID": 1261, "conditions": [24, 1600, "a", 12000], "trial": 2, "serialpos": 9, "trial_type": "single-audio", "trial_index": 98, "time_elapsed": 625411, "internal_node_id": "0.0-71.0"}}, {"uniqueid": "MTK1043:3D3VGR7TA1MOXQ48MY02IPJZEVL3R2", "current_trial": 99, "dateTime": 1513018773569, "trialdata": {"rt": -1000, "stimulus": "/static/audio/wordpool/BLACKBOARD.wav", "key_press": -1, "type": "PRES_AUD", "word": "blackboard", "wordID": 132, "conditions": [24, 1600, "a", 12000], "trial": 2, "serialpos": 10, "trial_type": "single-audio", "trial_index": 99, "time_elapsed": 628207, "internal_node_id": "0.0-72.0"}}, {"uniqueid": "MTK1043:3D3VGR7TA1MOXQ48MY02IPJZEVL3R2", "current_trial": 100, "dateTime": 1513018775996, "trialdata": {"rt": -1000, "stimulus": "/static/audio/wordpool/WAITRESS.wav", "key_press": -1, "type": "PRES_AUD", "word": "waitress", "wordID": 1580, "conditions": [24, 1600, "a", 12000], "trial": 2, "serialpos": 11, "trial_type": "single-audio", "trial_index": 100, "time_elapsed": 630635, "internal_node_id": "0.0-73.0"}}, {"uniqueid": "MTK1043:3D3VGR7TA1MOXQ48MY02IPJZEVL3R2", "current_trial": 101, "dateTime": 1513018778732, "trialdata": {"rt": -1000, "stimulus": "/static/audio/wordpool/BUG.wav", "key_press": -1, "type": "PRES_AUD", "word": "bug", "wordID": 186, "conditions": [24, 1600, "a", 12000], "trial": 2, "serialpos": 12, "trial_type": "single-audio", "trial_index": 101, "time_elapsed": 633370, "internal_node_id": "0.0-74.0"}}, {"uniqueid": "MTK1043:3D3VGR7TA1MOXQ48MY02IPJZEVL3R2", "current_trial": 102, "dateTime": 1513018781285, "trialdata": {"rt": -1000, "stimulus": "/static/audio/wordpool/VIRUS.wav", "key_press": -1, "type": "PRES_AUD", "word": "virus", "wordID": 1571, "conditions": [24, 1600, "a", 12000], "trial": 2, "serialpos": 13, "trial_type": "single-audio", "trial_index": 102, "time_elapsed": 635923, "internal_node_id": "0.0-75.0"}}, {"uniqueid": "MTK1043:3D3VGR7TA1MOXQ48MY02IPJZEVL3R2", "current_trial": 103, "dateTime": 1513018783863, "trialdata": {"rt": -1000, "stimulus": "/static/audio/wordpool/PECAN.wav", "key_press": -1, "type": "PRES_AUD", "word": "pecan", "wordID": 1035, "conditions": [24, 1600, "a", 12000], "trial": 2, "serialpos": 14, "trial_type": "single-audio", "trial_index": 103, "time_elapsed": 638501, "internal_node_id": "0.0-76.0"}}, {"uniqueid": "MTK1043:3D3VGR7TA1MOXQ48MY02IPJZEVL3R2", "current_trial": 104, "dateTime": 1513018786404, "trialdata": {"rt": -1000, "stimulus": "/static/audio/wordpool/PIGEON.wav", "key_press": -1, "type": "PRES_AUD", "word": "pigeon", "wordID": 1064, "conditions": [24, 1600, "a", 12000], "trial": 2, "serialpos": 15, "trial_type": "single-audio", "trial_index": 104, "time_elapsed": 641041, "internal_node_id": "0.0-77.0"}}, {"uniqueid": "MTK1043:3D3VGR7TA1MOXQ48MY02IPJZEVL3R2", "current_trial": 105, "dateTime": 1513018789030, "trialdata": {"rt": -1000, "stimulus": "/static/audio/wordpool/ORCHID.wav", "key_press": -1, "type": "PRES_AUD", "word": "orchid", "wordID": 981, "conditions": [24, 1600, "a", 12000], "trial": 2, "serialpos": 16, "trial_type": "single-audio", "trial_index": 105, "time_elapsed": 643668, "internal_node_id": "0.0-78.0"}}, {"uniqueid": "MTK1043:3D3VGR7TA1MOXQ48MY02IPJZEVL3R2", "current_trial": 106, "dateTime": 1513018791662, "trialdata": {"rt": -1000, "stimulus": "/static/audio/wordpool/SUSPECT.wav", "key_press": -1, "type": "PRES_AUD", "word": "suspect", "wordID": 1414, "conditions": [24, 1600, "a", 12000], "trial": 2, "serialpos": 17, "trial_type": "single-audio", "trial_index": 106, "time_elapsed": 646300, "internal_node_id": "0.0-79.0"}}, {"uniqueid": "MTK1043:3D3VGR7TA1MOXQ48MY02IPJZEVL3R2", "current_trial": 107, "dateTime": 1513018794440, "trialdata": {"rt": -1000, "stimulus": "/static/audio/wordpool/YARN.wav", "key_press": -1, "type": "PRES_AUD", "word": "yarn", "wordID": 1630, "conditions": [24, 1600, "a", 12000], "trial": 2, "serialpos": 18, "trial_type": "single-audio", "trial_index": 107, "time_elapsed": 649078, "internal_node_id": "0.0-80.0"}}, {"uniqueid": "MTK1043:3D3VGR7TA1MOXQ48MY02IPJZEVL3R2", "current_trial": 108, "dateTime": 1513018797106, "trialdata": {"rt": -1000, "stimulus": "/static/audio/wordpool/VICTIM.wav", "key_press": -1, "type": "PRES_AUD", "word": "victim", "wordID": 1561, "conditions": [24, 1600, "a", 12000], "trial": 2, "serialpos": 19, "trial_type": "single-audio", "trial_index": 108, "time_elapsed": 651744, "internal_node_id": "0.0-81.0"}}, {"uniqueid": "MTK1043:3D3VGR7TA1MOXQ48MY02IPJZEVL3R2", "current_trial": 109, "dateTime": 1513018799640, "trialdata": {"rt": -1000, "stimulus": "/static/audio/wordpool/WASP.wav", "key_press": -1, "type": "PRES_AUD", "word": "wasp", "wordID": 1592, "conditions": [24, 1600, "a", 12000], "trial": 2, "serialpos": 20, "trial_type": "single-audio", "trial_index": 109, "time_elapsed": 654278, "internal_node_id": "0.0-82.0"}}, {"uniqueid": "MTK1043:3D3VGR7TA1MOXQ48MY02IPJZEVL3R2", "current_trial": 110, "dateTime": 1513018802100, "trialdata": {"rt": -1000, "stimulus": "/static/audio/wordpool/FOREHEAD.wav", "key_press": -1, "type": "PRES_AUD", "word": "forehead", "wordID": 591, "conditions": [24, 1600, "a", 12000], "trial": 2, "serialpos": 21, "trial_type": "single-audio", "trial_index": 110, "time_elapsed": 656739, "internal_node_id": "0.0-83.0"}}, {"uniqueid": "MTK1043:3D3VGR7TA1MOXQ48MY02IPJZEVL3R2", "current_trial": 111, "dateTime": 1513018804693, "trialdata": {"rt": -1000, "stimulus": "/static/audio/wordpool/FOX.wav", "key_press": -1, "type": "PRES_AUD", "word": "fox", "wordID": 597, "conditions": [24, 1600, "a", 12000], "trial": 2, "serialpos": 22, "trial_type": "single-audio", "trial_index": 111, "time_elapsed": 659330, "internal_node_id": "0.0-84.0"}}, {"uniqueid": "MTK1043:3D3VGR7TA1MOXQ48MY02IPJZEVL3R2", "current_trial": 112, "dateTime": 1513018807445, "trialdata": {"rt": -1000, "stimulus": "/static/audio/wordpool/DINER.wav", "key_press": -1, "type": "PRES_AUD", "word": "diner", "wordID": 466, "conditions": [24, 1600, "a", 12000], "trial": 2, "serialpos": 23, "trial_type": "single-audio", "trial_index": 112, "time_elapsed": 662083, "internal_node_id": "0.0-85.0"}}, {"uniqueid": "MTK1043:3D3VGR7TA1MOXQ48MY02IPJZEVL3R2", "current_trial": 113, "dateTime": 1513018808814, "trialdata": {"rt": -1, "stimulus": "", "key_press": -1, "type": "PRE_RECALL_DELAY", "trial_type": "single-stim", "trial_index": 113, "time_elapsed": 663453, "internal_node_id": "0.0-86.0-0.0"}}, {"uniqueid": "MTK1043:3D3VGR7TA1MOXQ48MY02IPJZEVL3R2", "current_trial": 114, "dateTime": 1513018809317, "trialdata": {"rt": -1000, "stimulus": "/static/audio/400Hz.wav", "key_press": -1, "type": "PRE_RECALL_ALERT", "trial_type": "single-audio", "trial_index": 114, "time_elapsed": 663956, "internal_node_id": "0.0-87.0"}}, {"uniqueid": "MTK1043:3D3VGR7TA1MOXQ48MY02IPJZEVL3R2", "current_trial": 115, "dateTime": 1513018869332, "trialdata": {"rt": [2084, 4126, 6826, 8760, 10355, 11834, 15309], "recwords": ["wasp", "diner", "forehead", "guard", "banker", "bank", "cigar"], "type": "FREE_RECALL", "conditions": [24, 1600, "a", 12000], "trial": 2, "trial_type": "free-recall", "trial_index": 115, "time_elapsed": 723963, "internal_node_id": "0.0-88.0-0.0"}}, {"uniqueid": "MTK1043:3D3VGR7TA1MOXQ48MY02IPJZEVL3R2", "current_trial": 116, "dateTime": 1513018872937, "trialdata": {"rt": 1601, "key_press": 32, "type": "INSTRUCTIONS", "trial_type": "text", "trial_index": 116, "time_elapsed": 727575, "internal_node_id": "0.0-89.0"}}, {"uniqueid": "MTK1043:3D3VGR7TA1MOXQ48MY02IPJZEVL3R2", "current_trial": 117, "dateTime": 1513018886973, "trialdata": {"rt": [5085, 8270, 10624], "responses": ["16", "13", "17"], "num1": [6, 6, 7, 9], "num2": [1, 5, 9, 6], "num3": [9, 2, 1, 8], "type": "DISTRACTOR", "conditions": [12, 800, "v", 12000], "trial": 3, "trial_type": "math-distractor", "trial_index": 117, "time_elapsed": 741610, "internal_node_id": "0.0-90.0"}}, {"uniqueid": "MTK1043:3D3VGR7TA1MOXQ48MY02IPJZEVL3R2", "current_trial": 118, "dateTime": 1513018889994, "trialdata": {"rt": -1, "stimulus": "<p id=\"stim\">10</p>", "key_press": -1, "trial_type": "single-stim", "trial_index": 118, "time_elapsed": 744632, "internal_node_id": "0.0-91.0-0.0"}}, {"uniqueid": "MTK1043:3D3VGR7TA1MOXQ48MY02IPJZEVL3R2", "current_trial": 119, "dateTime": 1513018891012, "trialdata": {"rt": -1, "stimulus": "<p id=\"stim\">9</p>", "key_press": -1, "trial_type": "single-stim", "trial_index": 119, "time_elapsed": 745649, "internal_node_id": "0.0-91.0-1.0"}}, {"uniqueid": "MTK1043:3D3VGR7TA1MOXQ48MY02IPJZEVL3R2", "current_trial": 120, "dateTime": 1513018892024, "trialdata": {"rt": -1, "stimulus": "<p id=\"stim\">8</p>", "key_press": -1, "trial_type": "single-stim", "trial_index": 120, "time_elapsed": 746662, "internal_node_id": "0.0-91.0-2.0"}}, {"uniqueid": "MTK1043:3D3VGR7TA1MOXQ48MY02IPJZEVL3R2", "current_trial": 121, "dateTime": 1513018893038, "trialdata": {"rt": -1, "stimulus": "<p id=\"stim\">7</p>", "key_press": -1, "trial_type": "single-stim", "trial_index": 121, "time_elapsed": 747676, "internal_node_id": "0.0-91.0-3.0"}}, {"uniqueid": "MTK1043:3D3VGR7TA1MOXQ48MY02IPJZEVL3R2", "current_trial": 122, "dateTime": 1513018894052, "trialdata": {"rt": -1, "stimulus": "<p id=\"stim\">6</p>", "key_press": -1, "trial_type": "single-stim", "trial_index": 122, "time_elapsed": 748690, "internal_node_id": "0.0-91.0-4.0"}}, {"uniqueid": "MTK1043:3D3VGR7TA1MOXQ48MY02IPJZEVL3R2", "current_trial": 123, "dateTime": 1513018895070, "trialdata": {"rt": -1, "stimulus": "<p id=\"stim\">5</p>", "key_press": -1, "trial_type": "single-stim", "trial_index": 123, "time_elapsed": 749708, "internal_node_id": "0.0-91.0-5.0"}}, {"uniqueid": "MTK1043:3D3VGR7TA1MOXQ48MY02IPJZEVL3R2", "current_trial": 124, "dateTime": 1513018896083, "trialdata": {"rt": -1, "stimulus": "<p id=\"stim\">4</p>", "key_press": -1, "trial_type": "single-stim", "trial_index": 124, "time_elapsed": 750721, "internal_node_id": "0.0-91.0-6.0"}}, {"uniqueid": "MTK1043:3D3VGR7TA1MOXQ48MY02IPJZEVL3R2", "current_trial": 125, "dateTime": 1513018897096, "trialdata": {"rt": -1, "stimulus": "<p id=\"stim\">3</p>", "key_press": -1, "trial_type": "single-stim", "trial_index": 125, "time_elapsed": 751734, "internal_node_id": "0.0-91.0-7.0"}}, {"uniqueid": "MTK1043:3D3VGR7TA1MOXQ48MY02IPJZEVL3R2", "current_trial": 126, "dateTime": 1513018898110, "trialdata": {"rt": -1, "stimulus": "<p id=\"stim\">2</p>", "key_press": -1, "trial_type": "single-stim", "trial_index": 126, "time_elapsed": 752748, "internal_node_id": "0.0-91.0-8.0"}}, {"uniqueid": "MTK1043:3D3VGR7TA1MOXQ48MY02IPJZEVL3R2", "current_trial": 127, "dateTime": 1513018899123, "trialdata": {"rt": -1, "stimulus": "<p id=\"stim\">1</p>", "key_press": -1, "trial_type": "single-stim", "trial_index": 127, "time_elapsed": 753760, "internal_node_id": "0.0-91.0-9.0"}}, {"uniqueid": "MTK1043:3D3VGR7TA1MOXQ48MY02IPJZEVL3R2", "current_trial": 128, "dateTime": 1513018900640, "trialdata": {"rt": -1, "stimulus": "<p id=\"stim\">+</p>", "key_press": -1, "type": "FIXATION", "trial_type": "single-stim", "trial_index": 128, "time_elapsed": 755277, "internal_node_id": "0.0-92.0-0.0"}}, {"uniqueid": "MTK1043:3D3VGR7TA1MOXQ48MY02IPJZEVL3R2", "current_trial": 129, "dateTime": 1513018901445, "trialdata": {"rt": -1, "stimulus": "<p id=\"stim\">JAPAN</p>", "key_press": -1, "type": "PRES_VIS", "word": "japan", "wordID": 748, "conditions": [12, 800, "v", 12000], "trial": 3, "serialpos": 0, "trial_type": "single-stim", "trial_index": 129, "time_elapsed": 756084, "internal_node_id": "0.0-93.0"}}, {"uniqueid": "MTK1043:3D3VGR7TA1MOXQ48MY02IPJZEVL3R2", "current_trial": 130, "dateTime": 1513018903378, "trialdata": {"rt": -1, "stimulus": "<p id=\"stim\">BANQUET</p>", "key_press": -1, "type": "PRES_VIS", "word": "banquet", "wordID": 85, "conditions": [12, 800, "v", 12000], "trial": 3, "serialpos": 1, "trial_type": "single-stim", "trial_index": 130, "time_elapsed": 758015, "internal_node_id": "0.0-94.0"}}, {"uniqueid": "MTK1043:3D3VGR7TA1MOXQ48MY02IPJZEVL3R2", "current_trial": 131, "dateTime": 1513018905305, "trialdata": {"rt": -1, "stimulus": "<p id=\"stim\">PUDDLE</p>", "key_press": -1, "type": "PRES_VIS", "word": "puddle", "wordID": 1139, "conditions": [12, 800, "v", 12000], "trial": 3, "serialpos": 2, "trial_type": "single-stim", "trial_index": 131, "time_elapsed": 759940, "internal_node_id": "0.0-95.0"}}, {"uniqueid": "MTK1043:3D3VGR7TA1MOXQ48MY02IPJZEVL3R2", "current_trial": 132, "dateTime": 1513018907022, "trialdata": {"rt": -1, "stimulus": "<p id=\"stim\">SUNSET</p>", "key_press": -1, "type": "PRES_VIS", "word": "sunset", "wordID": 1407, "conditions": [12, 800, "v", 12000], "trial": 3, "serialpos": 3, "trial_type": "single-stim", "trial_index": 132, "time_elapsed": 761660, "internal_node_id": "0.0-96.0"}}, {"uniqueid": "MTK1043:3D3VGR7TA1MOXQ48MY02IPJZEVL3R2", "current_trial": 133, "dateTime": 1513018908985, "trialdata": {"rt": -1, "stimulus": "<p id=\"stim\">DRUG</p>", "key_press": -1, "type": "PRES_VIS", "word": "drug", "wordID": 500, "conditions": [12, 800, "v", 12000], "trial": 3, "serialpos": 4, "trial_type": "single-stim", "trial_index": 133, "time_elapsed": 763622, "internal_node_id": "0.0-97.0"}}, {"uniqueid": "MTK1043:3D3VGR7TA1MOXQ48MY02IPJZEVL3R2", "current_trial": 134, "dateTime": 1513018910851, "trialdata": {"rt": -1, "stimulus": "<p id=\"stim\">CHIPMUNK</p>", "key_press": -1, "type": "PRES_VIS", "word": "chipmunk", "wordID": 303, "conditions": [12, 800, "v", 12000], "trial": 3, "serialpos": 5, "trial_type": "single-stim", "trial_index": 134, "time_elapsed": 765489, "internal_node_id": "0.0-98.0"}}, {"uniqueid": "MTK1043:3D3VGR7TA1MOXQ48MY02IPJZEVL3R2", "current_trial": 135, "dateTime": 1513018912528, "trialdata": {"rt": -1, "stimulus": "<p id=\"stim\">TERMITE</p>", "key_press": -1, "type": "PRES_VIS", "word": "termite", "wordID": 1450, "conditions": [12, 800, "v", 12000], "trial": 3, "serialpos": 6, "trial_type": "single-stim", "trial_index": 135, "time_elapsed": 767167, "internal_node_id": "0.0-99.0"}}, {"uniqueid": "MTK1043:3D3VGR7TA1MOXQ48MY02IPJZEVL3R2", "current_trial": 136, "dateTime": 1513018914458, "trialdata": {"rt": -1, "stimulus": "<p id=\"stim\">JELLO</p>", "key_press": -1, "type": "PRES_VIS", "word": "jello", "wordID": 753, "conditions": [12, 800, "v", 12000], "trial": 3, "serialpos": 7, "trial_type": "single-stim", "trial_index": 136, "time_elapsed": 769096, "internal_node_id": "0.0-100.0"}}, {"uniqueid": "MTK1043:3D3VGR7TA1MOXQ48MY02IPJZEVL3R2", "current_trial": 137, "dateTime": 1513018916094, "trialdata": {"rt": -1, "stimulus": "<p id=\"stim\">JELLY</p>", "key_press": -1, "type": "PRES_VIS", "word": "jelly", "wordID": 754, "conditions": [12, 800, "v", 12000], "trial": 3, "serialpos": 8, "trial_type": "single-stim", "trial_index": 137, "time_elapsed": 770731, "internal_node_id": "0.0-101.0"}}, {"uniqueid": "MTK1043:3D3VGR7TA1MOXQ48MY02IPJZEVL3R2", "current_trial": 138, "dateTime": 1513018917819, "trialdata": {"rt": -1, "stimulus": "<p id=\"stim\">SUPPER</p>", "key_press": -1, "type": "PRES_VIS", "word": "supper", "wordID": 1410, "conditions": [12, 800, "v", 12000], "trial": 3, "serialpos": 9, "trial_type": "single-stim", "trial_index": 138, "time_elapsed": 772457, "internal_node_id": "0.0-102.0"}}, {"uniqueid": "MTK1043:3D3VGR7TA1MOXQ48MY02IPJZEVL3R2", "current_trial": 139, "dateTime": 1513018919780, "trialdata": {"rt": -1, "stimulus": "<p id=\"stim\">CRAYON</p>", "key_press": -1, "type": "PRES_VIS", "word": "crayon", "wordID": 400, "conditions": [12, 800, "v", 12000], "trial": 3, "serialpos": 10, "trial_type": "single-stim", "trial_index": 139, "time_elapsed": 774418, "internal_node_id": "0.0-103.0"}}, {"uniqueid": "MTK1043:3D3VGR7TA1MOXQ48MY02IPJZEVL3R2", "current_trial": 140, "dateTime": 1513018921618, "trialdata": {"rt": -1, "stimulus": "<p id=\"stim\">LONDON</p>", "key_press": -1, "type": "PRES_VIS", "word": "london", "wordID": 842, "conditions": [12, 800, "v", 12000], "trial": 3, "serialpos": 11, "trial_type": "single-stim", "trial_index": 140, "time_elapsed": 776256, "internal_node_id": "0.0-104.0"}}, {"uniqueid": "MTK1043:3D3VGR7TA1MOXQ48MY02IPJZEVL3R2", "current_trial": 141, "dateTime": 1513018924165, "trialdata": {"rt": -1, "stimulus": "", "key_press": -1, "type": "PRE_RECALL_DELAY", "trial_type": "single-stim", "trial_index": 141, "time_elapsed": 778802, "internal_node_id": "0.0-105.0-0.0"}}, {"uniqueid": "MTK1043:3D3VGR7TA1MOXQ48MY02IPJZEVL3R2", "current_trial": 142, "dateTime": 1513018924670, "trialdata": {"rt": -1000, "stimulus": "/static/audio/400Hz.wav", "key_press": -1, "type": "PRE_RECALL_ALERT", "trial_type": "single-audio", "trial_index": 142, "time_elapsed": 779309, "internal_node_id": "0.0-106.0"}}, {"uniqueid": "MTK1043:3D3VGR7TA1MOXQ48MY02IPJZEVL3R2", "current_trial": 143, "dateTime": 1513018984703, "trialdata": {"rt": [2099, 3663, 6511, 9505, 10973, 19698, 21795, 34558, 36411], "recwords": ["london", "crayon", "jelly", "supper", "japan", "jello", "jelly", "chipmunk", "termite"], "type": "FREE_RECALL", "conditions": [12, 800, "v", 12000], "trial": 3, "trial_type": "free-recall", "trial_index": 143, "time_elapsed": 839325, "internal_node_id": "0.0-107.0-0.0"}}, {"uniqueid": "MTK1043:3D3VGR7TA1MOXQ48MY02IPJZEVL3R2", "current_trial": 144, "dateTime": 1513018987953, "trialdata": {"rt": 1242, "key_press": 13, "type": "INSTRUCTIONS", "trial_type": "text", "trial_index": 144, "time_elapsed": 842592, "internal_node_id": "0.0-108.0"}}, {"uniqueid": "MTK1043:3D3VGR7TA1MOXQ48MY02IPJZEVL3R2", "current_trial": 145, "dateTime": 1513019001977, "trialdata": {"rt": [2441, 6357, 8993, 11337], "responses": ["16", "24", "13", "6"], "num1": [3, 8, 1, 2, 1], "num2": [5, 9, 6, 3, 2], "num3": [8, 7, 6, 1, 2], "type": "DISTRACTOR", "conditions": [12, 1600, "a", 12000], "trial": 4, "trial_type": "math-distractor", "trial_index": 145, "time_elapsed": 856615, "internal_node_id": "0.0-109.0"}}, {"uniqueid": "MTK1043:3D3VGR7TA1MOXQ48MY02IPJZEVL3R2", "current_trial": 146, "dateTime": 1513019004992, "trialdata": {"rt": -1, "stimulus": "<p id=\"stim\">10</p>", "key_press": -1, "trial_type": "single-stim", "trial_index": 146, "time_elapsed": 859629, "internal_node_id": "0.0-110.0-0.0"}}, {"uniqueid": "MTK1043:3D3VGR7TA1MOXQ48MY02IPJZEVL3R2", "current_trial": 147, "dateTime": 1513019006002, "trialdata": {"rt": -1, "stimulus": "<p id=\"stim\">9</p>", "key_press": -1, "trial_type": "single-stim", "trial_index": 147, "time_elapsed": 860641, "internal_node_id": "0.0-110.0-1.0"}}, {"uniqueid": "MTK1043:3D3VGR7TA1MOXQ48MY02IPJZEVL3R2", "current_trial": 148, "dateTime": 1513019007014, "trialdata": {"rt": -1, "stimulus": "<p id=\"stim\">8</p>", "key_press": -1, "trial_type": "single-stim", "trial_index": 148, "time_elapsed": 861651, "internal_node_id": "0.0-110.0-2.0"}}, {"uniqueid": "MTK1043:3D3VGR7TA1MOXQ48MY02IPJZEVL3R2", "current_trial": 149, "dateTime": 1513019008025, "trialdata": {"rt": -1, "stimulus": "<p id=\"stim\">7</p>", "key_press": -1, "trial_type": "single-stim", "trial_index": 149, "time_elapsed": 862662, "internal_node_id": "0.0-110.0-3.0"}}, {"uniqueid": "MTK1043:3D3VGR7TA1MOXQ48MY02IPJZEVL3R2", "current_trial": 150, "dateTime": 1513019009036, "trialdata": {"rt": -1, "stimulus": "<p id=\"stim\">6</p>", "key_press": -1, "trial_type": "single-stim", "trial_index": 150, "time_elapsed": 863673, "internal_node_id": "0.0-110.0-4.0"}}, {"uniqueid": "MTK1043:3D3VGR7TA1MOXQ48MY02IPJZEVL3R2", "current_trial": 151, "dateTime": 1513019010047, "trialdata": {"rt": -1, "stimulus": "<p id=\"stim\">5</p>", "key_press": -1, "trial_type": "single-stim", "trial_index": 151, "time_elapsed": 864685, "internal_node_id": "0.0-110.0-5.0"}}, {"uniqueid": "MTK1043:3D3VGR7TA1MOXQ48MY02IPJZEVL3R2", "current_trial": 152, "dateTime": 1513019011059, "trialdata": {"rt": -1, "stimulus": "<p id=\"stim\">4</p>", "key_press": -1, "trial_type": "single-stim", "trial_index": 152, "time_elapsed": 865697, "internal_node_id": "0.0-110.0-6.0"}}, {"uniqueid": "MTK1043:3D3VGR7TA1MOXQ48MY02IPJZEVL3R2", "current_trial": 153, "dateTime": 1513019012071, "trialdata": {"rt": -1, "stimulus": "<p id=\"stim\">3</p>", "key_press": -1, "trial_type": "single-stim", "trial_index": 153, "time_elapsed": 866708, "internal_node_id": "0.0-110.0-7.0"}}, {"uniqueid": "MTK1043:3D3VGR7TA1MOXQ48MY02IPJZEVL3R2", "current_trial": 154, "dateTime": 1513019013079, "trialdata": {"rt": -1, "stimulus": "<p id=\"stim\">2</p>", "key_press": -1, "trial_type": "single-stim", "trial_index": 154, "time_elapsed": 867718, "internal_node_id": "0.0-110.0-8.0"}}, {"uniqueid": "MTK1043:3D3VGR7TA1MOXQ48MY02IPJZEVL3R2", "current_trial": 155, "dateTime": 1513019014100, "trialdata": {"rt": -1, "stimulus": "<p id=\"stim\">1</p>", "key_press": -1, "trial_type": "single-stim", "trial_index": 155, "time_elapsed": 868738, "internal_node_id": "0.0-110.0-9.0"}}, {"uniqueid": "MTK1043:3D3VGR7TA1MOXQ48MY02IPJZEVL3R2", "current_trial": 156, "dateTime": 1513019015638, "trialdata": {"rt": -1, "stimulus": "<p id=\"stim\">+</p>", "key_press": -1, "type": "FIXATION", "trial_type": "single-stim", "trial_index": 156, "time_elapsed": 870258, "internal_node_id": "0.0-111.0-0.0"}}, {"uniqueid": "MTK1043:3D3VGR7TA1MOXQ48MY02IPJZEVL3R2", "current_trial": 157, "dateTime": 1513019018185, "trialdata": {"rt": -1000, "stimulus": "/static/audio/wordpool/POSSUM.wav", "key_press": -1, "type": "PRES_AUD", "word": "possum", "wordID": 1111, "conditions": [12, 1600, "a", 12000], "trial": 4, "serialpos": 0, "trial_type": "single-audio", "trial_index": 157, "time_elapsed": 872822, "internal_node_id": "0.0-112.0"}}, {"uniqueid": "MTK1043:3D3VGR7TA1MOXQ48MY02IPJZEVL3R2", "current_trial": 158, "dateTime": 1513019020780, "trialdata": {"rt": -1000, "stimulus": "/static/audio/wordpool/DOLPHIN.wav", "key_press": -1, "type": "PRES_AUD", "word": "dolphin", "wordID": 482, "conditions": [12, 1600, "a", 12000], "trial": 4, "serialpos": 1, "trial_type": "single-audio", "trial_index": 158, "time_elapsed": 875417, "internal_node_id": "0.0-113.0"}}, {"uniqueid": "MTK1043:3D3VGR7TA1MOXQ48MY02IPJZEVL3R2", "current_trial": 159, "dateTime": 1513019023522, "trialdata": {"rt": -1000, "stimulus": "/static/audio/wordpool/MISSILE.wav", "key_press": -1, "type": "PRES_AUD", "word": "missile", "wordID": 899, "conditions": [12, 1600, "a", 12000], "trial": 4, "serialpos": 2, "trial_type": "single-audio", "trial_index": 159, "time_elapsed": 878159, "internal_node_id": "0.0-114.0"}}, {"uniqueid": "MTK1043:3D3VGR7TA1MOXQ48MY02IPJZEVL3R2", "current_trial": 160, "dateTime": 1513019026057, "trialdata": {"rt": -1000, "stimulus": "/static/audio/wordpool/SADDLE.wav", "key_press": -1, "type": "PRES_AUD", "word": "saddle", "wordID": 1220, "conditions": [12, 1600, "a", 12000], "trial": 4, "serialpos": 3, "trial_type": "single-audio", "trial_index": 160, "time_elapsed": 880696, "internal_node_id": "0.0-115.0"}}, {"uniqueid": "MTK1043:3D3VGR7TA1MOXQ48MY02IPJZEVL3R2", "current_trial": 161, "dateTime": 1513019028493, "trialdata": {"rt": -1000, "stimulus": "/static/audio/wordpool/LAGOON.wav", "key_press": -1, "type": "PRES_AUD", "word": "lagoon", "wordID": 794, "conditions": [12, 1600, "a", 12000], "trial": 4, "serialpos": 4, "trial_type": "single-audio", "trial_index": 161, "time_elapsed": 883130, "internal_node_id": "0.0-116.0"}}, {"uniqueid": "MTK1043:3D3VGR7TA1MOXQ48MY02IPJZEVL3R2", "current_trial": 162, "dateTime": 1513019030937, "trialdata": {"rt": -1000, "stimulus": "/static/audio/wordpool/AGENT.wav", "key_press": -1, "type": "PRES_AUD", "word": "agent", "wordID": 9, "conditions": [12, 1600, "a", 12000], "trial": 4, "serialpos": 5, "trial_type": "single-audio", "trial_index": 162, "time_elapsed": 885573, "internal_node_id": "0.0-117.0"}}, {"uniqueid": "MTK1043:3D3VGR7TA1MOXQ48MY02IPJZEVL3R2", "current_trial": 163, "dateTime": 1513019033367, "trialdata": {"rt": -1000, "stimulus": "/static/audio/wordpool/RELISH.wav", "key_press": -1, "type": "PRES_AUD", "word": "relish", "wordID": 1182, "conditions": [12, 1600, "a", 12000], "trial": 4, "serialpos": 6, "trial_type": "single-audio", "trial_index": 163, "time_elapsed": 888005, "internal_node_id": "0.0-118.0"}}, {"uniqueid": "MTK1043:3D3VGR7TA1MOXQ48MY02IPJZEVL3R2", "current_trial": 164, "dateTime": 1513019035955, "trialdata": {"rt": -1000, "stimulus": "/static/audio/wordpool/STONE.wav", "key_press": -1, "type": "PRES_AUD", "word": "stone", "wordID": 1384, "conditions": [12, 1600, "a", 12000], "trial": 4, "serialpos": 7, "trial_type": "single-audio", "trial_index": 164, "time_elapsed": 890592, "internal_node_id": "0.0-119.0"}}, {"uniqueid": "MTK1043:3D3VGR7TA1MOXQ48MY02IPJZEVL3R2", "current_trial": 165, "dateTime": 1513019038578, "trialdata": {"rt": -1000, "stimulus": "/static/audio/wordpool/BREAST.wav", "key_press": -1, "type": "PRES_AUD", "word": "breast", "wordID": 170, "conditions": [12, 1600, "a", 12000], "trial": 4, "serialpos": 8, "trial_type": "single-audio", "trial_index": 165, "time_elapsed": 893216, "internal_node_id": "0.0-120.0"}}, {"uniqueid": "MTK1043:3D3VGR7TA1MOXQ48MY02IPJZEVL3R2", "current_trial": 166, "dateTime": 1513019041380, "trialdata": {"rt": -1000, "stimulus": "/static/audio/wordpool/ROCKET.wav", "key_press": -1, "type": "PRES_AUD", "word": "rocket", "wordID": 1201, "conditions": [12, 1600, "a", 12000], "trial": 4, "serialpos": 9, "trial_type": "single-audio", "trial_index": 166, "time_elapsed": 896018, "internal_node_id": "0.0-121.0"}}, {"uniqueid": "MTK1043:3D3VGR7TA1MOXQ48MY02IPJZEVL3R2", "current_trial": 167, "dateTime": 1513019044069, "trialdata": {"rt": -1000, "stimulus": "/static/audio/wordpool/FIREPLACE.wav", "key_press": -1, "type": "PRES_AUD", "word": "fireplace", "wordID": 569, "conditions": [12, 1600, "a", 12000], "trial": 4, "serialpos": 10, "trial_type": "single-audio", "trial_index": 167, "time_elapsed": 898707, "internal_node_id": "0.0-122.0"}}, {"uniqueid": "MTK1043:3D3VGR7TA1MOXQ48MY02IPJZEVL3R2", "current_trial": 168, "dateTime": 1513019046795, "trialdata": {"rt": -1000, "stimulus": "/static/audio/wordpool/STOVE.wav", "key_press": -1, "type": "PRES_AUD", "word": "stove", "wordID": 1387, "conditions": [12, 1600, "a", 12000], "trial": 4, "serialpos": 11, "trial_type": "single-audio", "trial_index": 168, "time_elapsed": 901432, "internal_node_id": "0.0-123.0"}}, {"uniqueid": "MTK1043:3D3VGR7TA1MOXQ48MY02IPJZEVL3R2", "current_trial": 169, "dateTime": 1513019048185, "trialdata": {"rt": -1, "stimulus": "", "key_press": -1, "type": "PRE_RECALL_DELAY", "trial_type": "single-stim", "trial_index": 169, "time_elapsed": 902824, "internal_node_id": "0.0-124.0-0.0"}}, {"uniqueid": "MTK1043:3D3VGR7TA1MOXQ48MY02IPJZEVL3R2", "current_trial": 170, "dateTime": 1513019048689, "trialdata": {"rt": -1000, "stimulus": "/static/audio/400Hz.wav", "key_press": -1, "type": "PRE_RECALL_ALERT", "trial_type": "single-audio", "trial_index": 170, "time_elapsed": 903328, "internal_node_id": "0.0-125.0"}}, {"uniqueid": "MTK1043:3D3VGR7TA1MOXQ48MY02IPJZEVL3R2", "current_trial": 171, "dateTime": 1513019108724, "trialdata": {"rt": [2865, 4444, 5696, 7724, 10645, 16581], "recwords": ["fireplace", "stove", "rocket", "missile", "dolphin", "opossum"], "type": "FREE_RECALL", "conditions": [12, 1600, "a", 12000], "trial": 4, "trial_type": "free-recall", "trial_index": 171, "time_elapsed": 963352, "internal_node_id": "0.0-126.0-0.0"}}, {"uniqueid": "MTK1043:3D3VGR7TA1MOXQ48MY02IPJZEVL3R2", "current_trial": 172, "dateTime": 1513019115208, "trialdata": {"rt": 4476, "key_press": 13, "type": "INSTRUCTIONS", "trial_type": "text", "trial_index": 172, "time_elapsed": 969847, "internal_node_id": "0.0-127.0"}}, {"uniqueid": "MTK1043:3D3VGR7TA1MOXQ48MY02IPJZEVL3R2", "current_trial": 173, "dateTime": 1513019129231, "trialdata": {"rt": [3213, 9490, 11939], "responses": ["24", "17", "14"], "num1": [6, 9, 5, 9], "num2": [9, 3, 7, 6], "num3": [7, 5, 2, 6], "type": "DISTRACTOR", "conditions": [12, 800, "a", 12000], "trial": 5, "trial_type": "math-distractor", "trial_index": 173, "time_elapsed": 983870, "internal_node_id": "0.0-128.0"}}, {"uniqueid": "MTK1043:3D3VGR7TA1MOXQ48MY02IPJZEVL3R2", "current_trial": 174, "dateTime": 1513019132252, "trialdata": {"rt": -1, "stimulus": "<p id=\"stim\">10</p>", "key_press": -1, "trial_type": "single-stim", "trial_index": 174, "time_elapsed": 986890, "internal_node_id": "0.0-129.0-0.0"}}, {"uniqueid": "MTK1043:3D3VGR7TA1MOXQ48MY02IPJZEVL3R2", "current_trial": 175, "dateTime": 1513019133265, "trialdata": {"rt": -1, "stimulus": "<p id=\"stim\">9</p>", "key_press": -1, "trial_type": "single-stim", "trial_index": 175, "time_elapsed": 987902, "internal_node_id": "0.0-129.0-1.0"}}, {"uniqueid": "MTK1043:3D3VGR7TA1MOXQ48MY02IPJZEVL3R2", "current_trial": 176, "dateTime": 1513019134281, "trialdata": {"rt": -1, "stimulus": "<p id=\"stim\">8</p>", "key_press": -1, "trial_type": "single-stim", "trial_index": 176, "time_elapsed": 988918, "internal_node_id": "0.0-129.0-2.0"}}, {"uniqueid": "MTK1043:3D3VGR7TA1MOXQ48MY02IPJZEVL3R2", "current_trial": 177, "dateTime": 1513019135287, "trialdata": {"rt": -1, "stimulus": "<p id=\"stim\">7</p>", "key_press": -1, "trial_type": "single-stim", "trial_index": 177, "time_elapsed": 989925, "internal_node_id": "0.0-129.0-3.0"}}, {"uniqueid": "MTK1043:3D3VGR7TA1MOXQ48MY02IPJZEVL3R2", "current_trial": 178, "dateTime": 1513019136291, "trialdata": {"rt": -1, "stimulus": "<p id=\"stim\">6</p>", "key_press": -1, "trial_type": "single-stim", "trial_index": 178, "time_elapsed": 990929, "internal_node_id": "0.0-129.0-4.0"}}, {"uniqueid": "MTK1043:3D3VGR7TA1MOXQ48MY02IPJZEVL3R2", "current_trial": 179, "dateTime": 1513019137303, "trialdata": {"rt": -1, "stimulus": "<p id=\"stim\">5</p>", "key_press": -1, "trial_type": "single-stim", "trial_index": 179, "time_elapsed": 991940, "internal_node_id": "0.0-129.0-5.0"}}, {"uniqueid": "MTK1043:3D3VGR7TA1MOXQ48MY02IPJZEVL3R2", "current_trial": 180, "dateTime": 1513019138324, "trialdata": {"rt": -1, "stimulus": "<p id=\"stim\">4</p>", "key_press": -1, "trial_type": "single-stim", "trial_index": 180, "time_elapsed": 992961, "internal_node_id": "0.0-129.0-6.0"}}, {"uniqueid": "MTK1043:3D3VGR7TA1MOXQ48MY02IPJZEVL3R2", "current_trial": 181, "dateTime": 1513019139338, "trialdata": {"rt": -1, "stimulus": "<p id=\"stim\">3</p>", "key_press": -1, "trial_type": "single-stim", "trial_index": 181, "time_elapsed": 993974, "internal_node_id": "0.0-129.0-7.0"}}, {"uniqueid": "MTK1043:3D3VGR7TA1MOXQ48MY02IPJZEVL3R2", "current_trial": 182, "dateTime": 1513019140355, "trialdata": {"rt": -1, "stimulus": "<p id=\"stim\">2</p>", "key_press": -1, "trial_type": "single-stim", "trial_index": 182, "time_elapsed": 994992, "internal_node_id": "0.0-129.0-8.0"}}, {"uniqueid": "MTK1043:3D3VGR7TA1MOXQ48MY02IPJZEVL3R2", "current_trial": 183, "dateTime": 1513019141368, "trialdata": {"rt": -1, "stimulus": "<p id=\"stim\">1</p>", "key_press": -1, "trial_type": "single-stim", "trial_index": 183, "time_elapsed": 996006, "internal_node_id": "0.0-129.0-9.0"}}, {"uniqueid": "MTK1043:3D3VGR7TA1MOXQ48MY02IPJZEVL3R2", "current_trial": 184, "dateTime": 1513019142886, "trialdata": {"rt": -1, "stimulus": "<p id=\"stim\">+</p>", "key_press": -1, "type": "FIXATION", "trial_type": "single-stim", "trial_index": 184, "time_elapsed": 997522, "internal_node_id": "0.0-130.0-0.0"}}, {"uniqueid": "MTK1043:3D3VGR7TA1MOXQ48MY02IPJZEVL3R2", "current_trial": 185, "dateTime": 1513019144792, "trialdata": {"rt": -1000, "stimulus": "/static/audio/wordpool/SWIMMER.wav", "key_press": -1, "type": "PRES_AUD", "word": "swimmer", "wordID": 1419, "conditions": [12, 800, "a", 12000], "trial": 5, "serialpos": 0, "trial_type": "single-audio", "trial_index": 185, "time_elapsed": 999429, "internal_node_id": "0.0-131.0"}}, {"uniqueid": "MTK1043:3D3VGR7TA1MOXQ48MY02IPJZEVL3R2", "current_trial": 186, "dateTime": 1513019146551, "trialdata": {"rt": -1000, "stimulus": "/static/audio/wordpool/WIFE.wav", "key_press": -1, "type": "PRES_AUD", "word": "wife", "wordID": 1608, "conditions": [12, 800, "a", 12000], "trial": 5, "serialpos": 1, "trial_type": "single-audio", "trial_index": 186, "time_elapsed": 1001188, "internal_node_id": "0.0-132.0"}}, {"uniqueid": "MTK1043:3D3VGR7TA1MOXQ48MY02IPJZEVL3R2", "current_trial": 187, "dateTime": 1513019148390, "trialdata": {"rt": -1000, "stimulus": "/static/audio/wordpool/OZONE.wav", "key_press": -1, "type": "PRES_AUD", "word": "ozone", "wordID": 995, "conditions": [12, 800, "a", 12000], "trial": 5, "serialpos": 2, "trial_type": "single-audio", "trial_index": 187, "time_elapsed": 1003029, "internal_node_id": "0.0-133.0"}}, {"uniqueid": "MTK1043:3D3VGR7TA1MOXQ48MY02IPJZEVL3R2", "current_trial": 188, "dateTime": 1513019150223, "trialdata": {"rt": -1000, "stimulus": "/static/audio/wordpool/LUMBER.wav", "key_press": -1, "type": "PRES_AUD", "word": "lumber", "wordID": 847, "conditions": [12, 800, "a", 12000], "trial": 5, "serialpos": 3, "trial_type": "single-audio", "trial_index": 188, "time_elapsed": 1004860, "internal_node_id": "0.0-134.0"}}, {"uniqueid": "MTK1043:3D3VGR7TA1MOXQ48MY02IPJZEVL3R2", "current_trial": 189, "dateTime": 1513019152209, "trialdata": {"rt": -1000, "stimulus": "/static/audio/wordpool/NURSE.wav", "key_press": -1, "type": "PRES_AUD", "word": "nurse", "wordID": 962, "conditions": [12, 800, "a", 12000], "trial": 5, "serialpos": 4, "trial_type": "single-audio", "trial_index": 189, "time_elapsed": 1006846, "internal_node_id": "0.0-135.0"}}, {"uniqueid": "MTK1043:3D3VGR7TA1MOXQ48MY02IPJZEVL3R2", "current_trial": 190, "dateTime": 1513019153880, "trialdata": {"rt": -1000, "stimulus": "/static/audio/wordpool/DIVER.wav", "key_press": -1, "type": "PRES_AUD", "word": "diver", "wordID": 475, "conditions": [12, 800, "a", 12000], "trial": 5, "serialpos": 5, "trial_type": "single-audio", "trial_index": 190, "time_elapsed": 1008517, "internal_node_id": "0.0-136.0"}}, {"uniqueid": "MTK1043:3D3VGR7TA1MOXQ48MY02IPJZEVL3R2", "current_trial": 191, "dateTime": 1513019155539, "trialdata": {"rt": -1000, "stimulus": "/static/audio/wordpool/ROBBER.wav", "key_press": -1, "type": "PRES_AUD", "word": "robber", "wordID": 1196, "conditions": [12, 800, "a", 12000], "trial": 5, "serialpos": 6, "trial_type": "single-audio", "trial_index": 191, "time_elapsed": 1010178, "internal_node_id": "0.0-137.0"}}, {"uniqueid": "MTK1043:3D3VGR7TA1MOXQ48MY02IPJZEVL3R2", "current_trial": 192, "dateTime": 1513019157244, "trialdata": {"rt": -1000, "stimulus": "/static/audio/wordpool/BURGLAR.wav", "key_press": -1, "type": "PRES_AUD", "word": "burglar", "wordID": 199, "conditions": [12, 800, "a", 12000], "trial": 5, "serialpos": 7, "trial_type": "single-audio", "trial_index": 192, "time_elapsed": 1011881, "internal_node_id": "0.0-138.0"}}, {"uniqueid": "MTK1043:3D3VGR7TA1MOXQ48MY02IPJZEVL3R2", "current_trial": 193, "dateTime": 1513019158967, "trialdata": {"rt": -1000, "stimulus": "/static/audio/wordpool/BABY.wav", "key_press": -1, "type": "PRES_AUD", "word": "baby", "wordID": 63, "conditions": [12, 800, "a", 12000], "trial": 5, "serialpos": 8, "trial_type": "single-audio", "trial_index": 193, "time_elapsed": 1013604, "internal_node_id": "0.0-139.0"}}, {"uniqueid": "MTK1043:3D3VGR7TA1MOXQ48MY02IPJZEVL3R2", "current_trial": 194, "dateTime": 1513019160865, "trialdata": {"rt": -1000, "stimulus": "/static/audio/wordpool/DOUGHNUT.wav", "key_press": -1, "type": "PRES_AUD", "word": "doughnut", "wordID": 489, "conditions": [12, 800, "a", 12000], "trial": 5, "serialpos": 9, "trial_type": "single-audio", "trial_index": 194, "time_elapsed": 1015502, "internal_node_id": "0.0-140.0"}}, {"uniqueid": "MTK1043:3D3VGR7TA1MOXQ48MY02IPJZEVL3R2", "current_trial": 195, "dateTime": 1513019162483, "trialdata": {"rt": -1000, "stimulus": "/static/audio/wordpool/CROWN.wav", "key_press": -1, "type": "PRES_AUD", "word": "crown", "wordID": 414, "conditions": [12, 800, "a", 12000], "trial": 5, "serialpos": 10, "trial_type": "single-audio", "trial_index": 195, "time_elapsed": 1017121, "internal_node_id": "0.0-141.0"}}, {"uniqueid": "MTK1043:3D3VGR7TA1MOXQ48MY02IPJZEVL3R2", "current_trial": 196, "dateTime": 1513019164441, "trialdata": {"rt": -1000, "stimulus": "/static/audio/wordpool/STALLION.wav", "key_press": -1, "type": "PRES_AUD", "word": "stallion", "wordID": 1368, "conditions": [12, 800, "a", 12000], "trial": 5, "serialpos": 11, "trial_type": "single-audio", "trial_index": 196, "time_elapsed": 1019078, "internal_node_id": "0.0-142.0"}}, {"uniqueid": "MTK1043:3D3VGR7TA1MOXQ48MY02IPJZEVL3R2", "current_trial": 197, "dateTime": 1513019165773, "trialdata": {"rt": -1, "stimulus": "", "key_press": -1, "type": "PRE_RECALL_DELAY", "trial_type": "single-stim", "trial_index": 197, "time_elapsed": 1020411, "internal_node_id": "0.0-143.0-0.0"}}, {"uniqueid": "MTK1043:3D3VGR7TA1MOXQ48MY02IPJZEVL3R2", "current_trial": 198, "dateTime": 1513019166276, "trialdata": {"rt": -1000, "stimulus": "/static/audio/400Hz.wav", "key_press": -1, "type": "PRE_RECALL_ALERT", "trial_type": "single-audio", "trial_index": 198, "time_elapsed": 1020915, "internal_node_id": "0.0-144.0"}}, {"uniqueid": "MTK1043:3D3VGR7TA1MOXQ48MY02IPJZEVL3R2", "current_trial": 199, "dateTime": 1513019226322, "trialdata": {"rt": [2067, 2225, 3569, 3761, 5035, 6488, 8870, 18263, 20870, 25741, 28760], "recwords": ["stallion", "", "crown", "", "donut", "baby", "robber", "swimmer", "crown", "wife", "nurse"], "type": "FREE_RECALL", "conditions": [12, 800, "a", 12000], "trial": 5, "trial_type": "free-recall", "trial_index": 199, "time_elapsed": 1080937, "internal_node_id": "0.0-145.0-0.0"}}, {"uniqueid": "MTK1043:3D3VGR7TA1MOXQ48MY02IPJZEVL3R2", "current_trial": 200, "dateTime": 1513019231281, "trialdata": {"rt": 2953, "key_press": 13, "type": "INSTRUCTIONS", "trial_type": "text", "trial_index": 200, "time_elapsed": 1085920, "internal_node_id": "0.0-146.0"}}, {"uniqueid": "MTK1043:3D3VGR7TA1MOXQ48MY02IPJZEVL3R2", "current_trial": 201, "dateTime": 1513019257325, "trialdata": {"rt": [2673, 5458, 8015, 10119, 12353, 14857, 19585, 22050], "responses": ["17", "16", "14", "11", "19", "17", "22", "6"], "num1": [1, 9, 6, 5, 8, 6, 7, 1, 6], "num2": [7, 2, 7, 2, 2, 6, 6, 4, 3], "num3": [9, 5, 1, 4, 9, 5, 9, 1, 7], "type": "DISTRACTOR", "conditions": [12, 800, "v", 24000], "trial": 6, "trial_type": "math-distractor", "trial_index": 201, "time_elapsed": 1111962, "internal_node_id": "0.0-147.0"}}, {"uniqueid": "MTK1043:3D3VGR7TA1MOXQ48MY02IPJZEVL3R2", "current_trial": 202, "dateTime": 1513019260340, "trialdata": {"rt": -1, "stimulus": "<p id=\"stim\">10</p>", "key_press": -1, "trial_type": "single-stim", "trial_index": 202, "time_elapsed": 1114978, "internal_node_id": "0.0-148.0-0.0"}}, {"uniqueid": "MTK1043:3D3VGR7TA1MOXQ48MY02IPJZEVL3R2", "current_trial": 203, "dateTime": 1513019261352, "trialdata": {"rt": -1, "stimulus": "<p id=\"stim\">9</p>", "key_press": -1, "trial_type": "single-stim", "trial_index": 203, "time_elapsed": 1115990, "internal_node_id": "0.0-148.0-1.0"}}, {"uniqueid": "MTK1043:3D3VGR7TA1MOXQ48MY02IPJZEVL3R2", "current_trial": 204, "dateTime": 1513019262365, "trialdata": {"rt": -1, "stimulus": "<p id=\"stim\">8</p>", "key_press": -1, "trial_type": "single-stim", "trial_index": 204, "time_elapsed": 1117002, "internal_node_id": "0.0-148.0-2.0"}}, {"uniqueid": "MTK1043:3D3VGR7TA1MOXQ48MY02IPJZEVL3R2", "current_trial": 205, "dateTime": 1513019263378, "trialdata": {"rt": -1, "stimulus": "<p id=\"stim\">7</p>", "key_press": -1, "trial_type": "single-stim", "trial_index": 205, "time_elapsed": 1118014, "internal_node_id": "0.0-148.0-3.0"}}, {"uniqueid": "MTK1043:3D3VGR7TA1MOXQ48MY02IPJZEVL3R2", "current_trial": 206, "dateTime": 1513019264394, "trialdata": {"rt": -1, "stimulus": "<p id=\"stim\">6</p>", "key_press": -1, "trial_type": "single-stim", "trial_index": 206, "time_elapsed": 1119029, "internal_node_id": "0.0-148.0-4.0"}}, {"uniqueid": "MTK1043:3D3VGR7TA1MOXQ48MY02IPJZEVL3R2", "current_trial": 207, "dateTime": 1513019265401, "trialdata": {"rt": -1, "stimulus": "<p id=\"stim\">5</p>", "key_press": -1, "trial_type": "single-stim", "trial_index": 207, "time_elapsed": 1120040, "internal_node_id": "0.0-148.0-5.0"}}, {"uniqueid": "MTK1043:3D3VGR7TA1MOXQ48MY02IPJZEVL3R2", "current_trial": 208, "dateTime": 1513019266420, "trialdata": {"rt": -1, "stimulus": "<p id=\"stim\">4</p>", "key_press": -1, "trial_type": "single-stim", "trial_index": 208, "time_elapsed": 1121057, "internal_node_id": "0.0-148.0-6.0"}}, {"uniqueid": "MTK1043:3D3VGR7TA1MOXQ48MY02IPJZEVL3R2", "current_trial": 209, "dateTime": 1513019267432, "trialdata": {"rt": -1, "stimulus": "<p id=\"stim\">3</p>", "key_press": -1, "trial_type": "single-stim", "trial_index": 209, "time_elapsed": 1122069, "internal_node_id": "0.0-148.0-7.0"}}, {"uniqueid": "MTK1043:3D3VGR7TA1MOXQ48MY02IPJZEVL3R2", "current_trial": 210, "dateTime": 1513019268479, "trialdata": {"rt": -1, "stimulus": "<p id=\"stim\">2</p>", "key_press": -1, "trial_type": "single-stim", "trial_index": 210, "time_elapsed": 1123090, "internal_node_id": "0.0-148.0-8.0"}}, {"uniqueid": "MTK1043:3D3VGR7TA1MOXQ48MY02IPJZEVL3R2", "current_trial": 211, "dateTime": 1513019269493, "trialdata": {"rt": -1, "stimulus": "<p id=\"stim\">1</p>", "key_press": -1, "trial_type": "single-stim", "trial_index": 211, "time_elapsed": 1124131, "internal_node_id": "0.0-148.0-9.0"}}, {"uniqueid": "MTK1043:3D3VGR7TA1MOXQ48MY02IPJZEVL3R2", "current_trial": 212, "dateTime": 1513019271004, "trialdata": {"rt": -1, "stimulus": "<p id=\"stim\">+</p>", "key_press": -1, "type": "FIXATION", "trial_type": "single-stim", "trial_index": 212, "time_elapsed": 1125641, "internal_node_id": "0.0-149.0-0.0"}}, {"uniqueid": "MTK1043:3D3VGR7TA1MOXQ48MY02IPJZEVL3R2", "current_trial": 213, "dateTime": 1513019271818, "trialdata": {"rt": -1, "stimulus": "<p id=\"stim\">FRAGRANCE</p>", "key_press": -1, "type": "PRES_VIS", "word": "fragrance", "wordID": 598, "conditions": [12, 800, "v", 24000], "trial": 6, "serialpos": 0, "trial_type": "single-stim", "trial_index": 213, "time_elapsed": 1126456, "internal_node_id": "0.0-150.0"}}, {"uniqueid": "MTK1043:3D3VGR7TA1MOXQ48MY02IPJZEVL3R2", "current_trial": 214, "dateTime": 1513019273632, "trialdata": {"rt": -1, "stimulus": "<p id=\"stim\">POLICE</p>", "key_press": -1, "type": "PRES_VIS", "word": "police", "wordID": 1097, "conditions": [12, 800, "v", 24000], "trial": 6, "serialpos": 1, "trial_type": "single-stim", "trial_index": 214, "time_elapsed": 1128269, "internal_node_id": "0.0-151.0"}}, {"uniqueid": "MTK1043:3D3VGR7TA1MOXQ48MY02IPJZEVL3R2", "current_trial": 215, "dateTime": 1513019275297, "trialdata": {"rt": -1, "stimulus": "<p id=\"stim\">CUPBOARD</p>", "key_press": -1, "type": "PRES_VIS", "word": "cupboard", "wordID": 424, "conditions": [12, 800, "v", 24000], "trial": 6, "serialpos": 2, "trial_type": "single-stim", "trial_index": 215, "time_elapsed": 1129935, "internal_node_id": "0.0-152.0"}}, {"uniqueid": "MTK1043:3D3VGR7TA1MOXQ48MY02IPJZEVL3R2", "current_trial": 216, "dateTime": 1513019276981, "trialdata": {"rt": -1, "stimulus": "<p id=\"stim\">FINGER</p>", "key_press": -1, "type": "PRES_VIS", "word": "finger", "wordID": 566, "conditions": [12, 800, "v", 24000], "trial": 6, "serialpos": 3, "trial_type": "single-stim", "trial_index": 216, "time_elapsed": 1131620, "internal_node_id": "0.0-153.0"}}, {"uniqueid": "MTK1043:3D3VGR7TA1MOXQ48MY02IPJZEVL3R2", "current_trial": 217, "dateTime": 1513019278657, "trialdata": {"rt": -1, "stimulus": "<p id=\"stim\">COIN</p>", "key_press": -1, "type": "PRES_VIS", "word": "coin", "wordID": 342, "conditions": [12, 800, "v", 24000], "trial": 6, "serialpos": 4, "trial_type": "single-stim", "trial_index": 217, "time_elapsed": 1133294, "internal_node_id": "0.0-154.0"}}, {"uniqueid": "MTK1043:3D3VGR7TA1MOXQ48MY02IPJZEVL3R2", "current_trial": 218, "dateTime": 1513019280460, "trialdata": {"rt": -1, "stimulus": "<p id=\"stim\">BLADE</p>", "key_press": -1, "type": "PRES_VIS", "word": "blade", "wordID": 133, "conditions": [12, 800, "v", 24000], "trial": 6, "serialpos": 5, "trial_type": "single-stim", "trial_index": 218, "time_elapsed": 1135097, "internal_node_id": "0.0-155.0"}}, {"uniqueid": "MTK1043:3D3VGR7TA1MOXQ48MY02IPJZEVL3R2", "current_trial": 219, "dateTime": 1513019282211, "trialdata": {"rt": -1, "stimulus": "<p id=\"stim\">REPORT</p>", "key_press": -1, "type": "PRES_VIS", "word": "report", "wordID": 1183, "conditions": [12, 800, "v", 24000], "trial": 6, "serialpos": 6, "trial_type": "single-stim", "trial_index": 219, "time_elapsed": 1136847, "internal_node_id": "0.0-156.0"}}, {"uniqueid": "MTK1043:3D3VGR7TA1MOXQ48MY02IPJZEVL3R2", "current_trial": 220, "dateTime": 1513019284016, "trialdata": {"rt": -1, "stimulus": "<p id=\"stim\">SURVEY</p>", "key_press": -1, "type": "PRES_VIS", "word": "survey", "wordID": 1413, "conditions": [12, 800, "v", 24000], "trial": 6, "serialpos": 7, "trial_type": "single-stim", "trial_index": 220, "time_elapsed": 1138654, "internal_node_id": "0.0-157.0"}}, {"uniqueid": "MTK1043:3D3VGR7TA1MOXQ48MY02IPJZEVL3R2", "current_trial": 221, "dateTime": 1513019285828, "trialdata": {"rt": -1, "stimulus": "<p id=\"stim\">KLEENEX</p>", "key_press": -1, "type": "PRES_VIS", "word": "kleenex", "wordID": 781, "conditions": [12, 800, "v", 24000], "trial": 6, "serialpos": 8, "trial_type": "single-stim", "trial_index": 221, "time_elapsed": 1140464, "internal_node_id": "0.0-158.0"}}, {"uniqueid": "MTK1043:3D3VGR7TA1MOXQ48MY02IPJZEVL3R2", "current_trial": 222, "dateTime": 1513019287729, "trialdata": {"rt": -1, "stimulus": "<p id=\"stim\">KETCHUP</p>", "key_press": -1, "type": "PRES_VIS", "word": "ketchup", "wordID": 770, "conditions": [12, 800, "v", 24000], "trial": 6, "serialpos": 9, "trial_type": "single-stim", "trial_index": 222, "time_elapsed": 1142366, "internal_node_id": "0.0-159.0"}}, {"uniqueid": "MTK1043:3D3VGR7TA1MOXQ48MY02IPJZEVL3R2", "current_trial": 223, "dateTime": 1513019289741, "trialdata": {"rt": -1, "stimulus": "<p id=\"stim\">WRIST</p>", "key_press": -1, "type": "PRES_VIS", "word": "wrist", "wordID": 1625, "conditions": [12, 800, "v", 24000], "trial": 6, "serialpos": 10, "trial_type": "single-stim", "trial_index": 223, "time_elapsed": 1144378, "internal_node_id": "0.0-160.0"}}, {"uniqueid": "MTK1043:3D3VGR7TA1MOXQ48MY02IPJZEVL3R2", "current_trial": 224, "dateTime": 1513019291700, "trialdata": {"rt": -1, "stimulus": "<p id=\"stim\">PLUTO</p>", "key_press": -1, "type": "PRES_VIS", "word": "pluto", "wordID": 1091, "conditions": [12, 800, "v", 24000], "trial": 6, "serialpos": 11, "trial_type": "single-stim", "trial_index": 224, "time_elapsed": 1146336, "internal_node_id": "0.0-161.0"}}, {"uniqueid": "MTK1043:3D3VGR7TA1MOXQ48MY02IPJZEVL3R2", "current_trial": 225, "dateTime": 1513019294153, "trialdata": {"rt": -1, "stimulus": "", "key_press": -1, "type": "PRE_RECALL_DELAY", "trial_type": "single-stim", "trial_index": 225, "time_elapsed": 1148790, "internal_node_id": "0.0-162.0-0.0"}}, {"uniqueid": "MTK1043:3D3VGR7TA1MOXQ48MY02IPJZEVL3R2", "current_trial": 226, "dateTime": 1513019294663, "trialdata": {"rt": -1000, "stimulus": "/static/audio/400Hz.wav", "key_press": -1, "type": "PRE_RECALL_ALERT", "trial_type": "single-audio", "trial_index": 226, "time_elapsed": 1149301, "internal_node_id": "0.0-163.0"}}, {"uniqueid": "MTK1043:3D3VGR7TA1MOXQ48MY02IPJZEVL3R2", "current_trial": 227, "dateTime": 1513019354705, "trialdata": {"rt": [1869, 3342, 6174, 8085, 10324, 12158, 32654], "recwords": ["wrist", "pluto", "blade", "report", "kleenex", "survey", "wristband"], "type": "FREE_RECALL", "conditions": [12, 800, "v", 24000], "trial": 6, "trial_type": "free-recall", "trial_index": 227, "time_elapsed": 1209325, "internal_node_id": "0.0-164.0-0.0"}}, {"uniqueid": "MTK1043:3D3VGR7TA1MOXQ48MY02IPJZEVL3R2", "current_trial": 228, "dateTime": 1513019358174, "trialdata": {"rt": 1460, "key_press": 13, "type": "INSTRUCTIONS", "trial_type": "text", "trial_index": 228, "time_elapsed": 1212813, "internal_node_id": "0.0-165.0"}}, {"uniqueid": "MTK1043:3D3VGR7TA1MOXQ48MY02IPJZEVL3R2", "current_trial": 229, "dateTime": 1513019384203, "trialdata": {"rt": [2135, 5002, 9198, 11946, 14265, 16094, 19139, 21688], "responses": ["14", "25", "20", "12", "6", "4", "24", "15"], "num1": [4, 9, 6, 1, 2, 2, 8, 5, 2], "num2": [5, 7, 9, 4, 3, 1, 9, 1, 2], "num3": [5, 9, 5, 7, 1, 1, 7, 9, 9], "type": "DISTRACTOR", "conditions": [24, 1600, "a", 24000], "trial": 7, "trial_type": "math-distractor", "trial_index": 229, "time_elapsed": 1238841, "internal_node_id": "0.0-166.0"}}, {"uniqueid": "MTK1043:3D3VGR7TA1MOXQ48MY02IPJZEVL3R2", "current_trial": 230, "dateTime": 1513019387218, "trialdata": {"rt": -1, "stimulus": "<p id=\"stim\">10</p>", "key_press": -1, "trial_type": "single-stim", "trial_index": 230, "time_elapsed": 1241856, "internal_node_id": "0.0-167.0-0.0"}}, {"uniqueid": "MTK1043:3D3VGR7TA1MOXQ48MY02IPJZEVL3R2", "current_trial": 231, "dateTime": 1513019388235, "trialdata": {"rt": -1, "stimulus": "<p id=\"stim\">9</p>", "key_press": -1, "trial_type": "single-stim", "trial_index": 231, "time_elapsed": 1242872, "internal_node_id": "0.0-167.0-1.0"}}, {"uniqueid": "MTK1043:3D3VGR7TA1MOXQ48MY02IPJZEVL3R2", "current_trial": 232, "dateTime": 1513019389241, "trialdata": {"rt": -1, "stimulus": "<p id=\"stim\">8</p>", "key_press": -1, "trial_type": "single-stim", "trial_index": 232, "time_elapsed": 1243879, "internal_node_id": "0.0-167.0-2.0"}}, {"uniqueid": "MTK1043:3D3VGR7TA1MOXQ48MY02IPJZEVL3R2", "current_trial": 233, "dateTime": 1513019390249, "trialdata": {"rt": -1, "stimulus": "<p id=\"stim\">7</p>", "key_press": -1, "trial_type": "single-stim", "trial_index": 233, "time_elapsed": 1244887, "internal_node_id": "0.0-167.0-3.0"}}, {"uniqueid": "MTK1043:3D3VGR7TA1MOXQ48MY02IPJZEVL3R2", "current_trial": 234, "dateTime": 1513019391259, "trialdata": {"rt": -1, "stimulus": "<p id=\"stim\">6</p>", "key_press": -1, "trial_type": "single-stim", "trial_index": 234, "time_elapsed": 1245896, "internal_node_id": "0.0-167.0-4.0"}}, {"uniqueid": "MTK1043:3D3VGR7TA1MOXQ48MY02IPJZEVL3R2", "current_trial": 235, "dateTime": 1513019392272, "trialdata": {"rt": -1, "stimulus": "<p id=\"stim\">5</p>", "key_press": -1, "trial_type": "single-stim", "trial_index": 235, "time_elapsed": 1246910, "internal_node_id": "0.0-167.0-5.0"}}, {"uniqueid": "MTK1043:3D3VGR7TA1MOXQ48MY02IPJZEVL3R2", "current_trial": 236, "dateTime": 1513019393286, "trialdata": {"rt": -1, "stimulus": "<p id=\"stim\">4</p>", "key_press": -1, "trial_type": "single-stim", "trial_index": 236, "time_elapsed": 1247923, "internal_node_id": "0.0-167.0-6.0"}}, {"uniqueid": "MTK1043:3D3VGR7TA1MOXQ48MY02IPJZEVL3R2", "current_trial": 237, "dateTime": 1513019394301, "trialdata": {"rt": -1, "stimulus": "<p id=\"stim\">3</p>", "key_press": -1, "trial_type": "single-stim", "trial_index": 237, "time_elapsed": 1248938, "internal_node_id": "0.0-167.0-7.0"}}, {"uniqueid": "MTK1043:3D3VGR7TA1MOXQ48MY02IPJZEVL3R2", "current_trial": 238, "dateTime": 1513019395327, "trialdata": {"rt": -1, "stimulus": "<p id=\"stim\">2</p>", "key_press": -1, "trial_type": "single-stim", "trial_index": 238, "time_elapsed": 1249961, "internal_node_id": "0.0-167.0-8.0"}}, {"uniqueid": "MTK1043:3D3VGR7TA1MOXQ48MY02IPJZEVL3R2", "current_trial": 239, "dateTime": 1513019396346, "trialdata": {"rt": -1, "stimulus": "<p id=\"stim\">1</p>", "key_press": -1, "trial_type": "single-stim", "trial_index": 239, "time_elapsed": 1250982, "internal_node_id": "0.0-167.0-9.0"}}, {"uniqueid": "MTK1043:3D3VGR7TA1MOXQ48MY02IPJZEVL3R2", "current_trial": 240, "dateTime": 1513019397859, "trialdata": {"rt": -1, "stimulus": "<p id=\"stim\">+</p>", "key_press": -1, "type": "FIXATION", "trial_type": "single-stim", "trial_index": 240, "time_elapsed": 1252496, "internal_node_id": "0.0-168.0-0.0"}}, {"uniqueid": "MTK1043:3D3VGR7TA1MOXQ48MY02IPJZEVL3R2", "current_trial": 241, "dateTime": 1513019400311, "trialdata": {"rt": -1000, "stimulus": "/static/audio/wordpool/CHURCH.wav", "key_press": -1, "type": "PRES_AUD", "word": "church", "wordID": 306, "conditions": [24, 1600, "a", 24000], "trial": 7, "serialpos": 0, "trial_type": "single-audio", "trial_index": 241, "time_elapsed": 1254948, "internal_node_id": "0.0-169.0"}}, {"uniqueid": "MTK1043:3D3VGR7TA1MOXQ48MY02IPJZEVL3R2", "current_trial": 242, "dateTime": 1513019402761, "trialdata": {"rt": -1000, "stimulus": "/static/audio/wordpool/SNACK.wav", "key_press": -1, "type": "PRES_AUD", "word": "snack", "wordID": 1330, "conditions": [24, 1600, "a", 24000], "trial": 7, "serialpos": 1, "trial_type": "single-audio", "trial_index": 242, "time_elapsed": 1257395, "internal_node_id": "0.0-170.0"}}, {"uniqueid": "MTK1043:3D3VGR7TA1MOXQ48MY02IPJZEVL3R2", "current_trial": 243, "dateTime": 1513019405372, "trialdata": {"rt": -1000, "stimulus": "/static/audio/wordpool/LUNCH.wav", "key_press": -1, "type": "PRES_AUD", "word": "lunch", "wordID": 848, "conditions": [24, 1600, "a", 24000], "trial": 7, "serialpos": 2, "trial_type": "single-audio", "trial_index": 243, "time_elapsed": 1260009, "internal_node_id": "0.0-171.0"}}, {"uniqueid": "MTK1043:3D3VGR7TA1MOXQ48MY02IPJZEVL3R2", "current_trial": 244, "dateTime": 1513019407963, "trialdata": {"rt": -1000, "stimulus": "/static/audio/wordpool/ULCER.wav", "key_press": -1, "type": "PRES_AUD", "word": "ulcer", "wordID": 1532, "conditions": [24, 1600, "a", 24000], "trial": 7, "serialpos": 3, "trial_type": "single-audio", "trial_index": 244, "time_elapsed": 1262599, "internal_node_id": "0.0-172.0"}}, {"uniqueid": "MTK1043:3D3VGR7TA1MOXQ48MY02IPJZEVL3R2", "current_trial": 245, "dateTime": 1513019410582, "trialdata": {"rt": -1000, "stimulus": "/static/audio/wordpool/RADISH.wav", "key_press": -1, "type": "PRES_AUD", "word": "radish", "wordID": 1157, "conditions": [24, 1600, "a", 24000], "trial": 7, "serialpos": 4, "trial_type": "single-audio", "trial_index": 245, "time_elapsed": 1265220, "internal_node_id": "0.0-173.0"}}, {"uniqueid": "MTK1043:3D3VGR7TA1MOXQ48MY02IPJZEVL3R2", "current_trial": 246, "dateTime": 1513019413359, "trialdata": {"rt": -1000, "stimulus": "/static/audio/wordpool/STAMP.wav", "key_press": -1, "type": "PRES_AUD", "word": "stamp", "wordID": 1369, "conditions": [24, 1600, "a", 24000], "trial": 7, "serialpos": 5, "trial_type": "single-audio", "trial_index": 246, "time_elapsed": 1267996, "internal_node_id": "0.0-174.0"}}, {"uniqueid": "MTK1043:3D3VGR7TA1MOXQ48MY02IPJZEVL3R2", "current_trial": 247, "dateTime": 1513019416117, "trialdata": {"rt": -1000, "stimulus": "/static/audio/wordpool/SHIRT.wav", "key_press": -1, "type": "PRES_AUD", "word": "shirt", "wordID": 1286, "conditions": [24, 1600, "a", 24000], "trial": 7, "serialpos": 6, "trial_type": "single-audio", "trial_index": 247, "time_elapsed": 1270755, "internal_node_id": "0.0-175.0"}}, {"uniqueid": "MTK1043:3D3VGR7TA1MOXQ48MY02IPJZEVL3R2", "current_trial": 248, "dateTime": 1513019418859, "trialdata": {"rt": -1000, "stimulus": "/static/audio/wordpool/PORK.wav", "key_press": -1, "type": "PRES_AUD", "word": "pork", "wordID": 1107, "conditions": [24, 1600, "a", 24000], "trial": 7, "serialpos": 7, "trial_type": "single-audio", "trial_index": 248, "time_elapsed": 1273496, "internal_node_id": "0.0-176.0"}}, {"uniqueid": "MTK1043:3D3VGR7TA1MOXQ48MY02IPJZEVL3R2", "current_trial": 249, "dateTime": 1513019421483, "trialdata": {"rt": -1000, "stimulus": "/static/audio/wordpool/BROOK.wav", "key_press": -1, "type": "PRES_AUD", "word": "brook", "wordID": 176, "conditions": [24, 1600, "a", 24000], "trial": 7, "serialpos": 8, "trial_type": "single-audio", "trial_index": 249, "time_elapsed": 1276122, "internal_node_id": "0.0-177.0"}}, {"uniqueid": "MTK1043:3D3VGR7TA1MOXQ48MY02IPJZEVL3R2", "current_trial": 250, "dateTime": 1513019424168, "trialdata": {"rt": -1000, "stimulus": "/static/audio/wordpool/CABBAGE.wav", "key_press": -1, "type": "PRES_AUD", "word": "cabbage", "wordID": 209, "conditions": [24, 1600, "a", 24000], "trial": 7, "serialpos": 9, "trial_type": "single-audio", "trial_index": 250, "time_elapsed": 1278806, "internal_node_id": "0.0-178.0"}}, {"uniqueid": "MTK1043:3D3VGR7TA1MOXQ48MY02IPJZEVL3R2", "current_trial": 251, "dateTime": 1513019426916, "trialdata": {"rt": -1000, "stimulus": "/static/audio/wordpool/PLASTER.wav", "key_press": -1, "type": "PRES_AUD", "word": "plaster", "wordID": 1084, "conditions": [24, 1600, "a", 24000], "trial": 7, "serialpos": 10, "trial_type": "single-audio", "trial_index": 251, "time_elapsed": 1281550, "internal_node_id": "0.0-179.0"}}, {"uniqueid": "MTK1043:3D3VGR7TA1MOXQ48MY02IPJZEVL3R2", "current_trial": 252, "dateTime": 1513019429517, "trialdata": {"rt": -1000, "stimulus": "/static/audio/wordpool/MARKER.wav", "key_press": -1, "type": "PRES_AUD", "word": "marker", "wordID": 869, "conditions": [24, 1600, "a", 24000], "trial": 7, "serialpos": 11, "trial_type": "single-audio", "trial_index": 252, "time_elapsed": 1284155, "internal_node_id": "0.0-180.0"}}, {"uniqueid": "MTK1043:3D3VGR7TA1MOXQ48MY02IPJZEVL3R2", "current_trial": 253, "dateTime": 1513019432035, "trialdata": {"rt": -1000, "stimulus": "/static/audio/wordpool/CAMEL.wav", "key_press": -1, "type": "PRES_AUD", "word": "camel", "wordID": 222, "conditions": [24, 1600, "a", 24000], "trial": 7, "serialpos": 12, "trial_type": "single-audio", "trial_index": 253, "time_elapsed": 1286672, "internal_node_id": "0.0-181.0"}}, {"uniqueid": "MTK1043:3D3VGR7TA1MOXQ48MY02IPJZEVL3R2", "current_trial": 254, "dateTime": 1513019434684, "trialdata": {"rt": -1000, "stimulus": "/static/audio/wordpool/BUGGY.wav", "key_press": -1, "type": "PRES_AUD", "word": "buggy", "wordID": 187, "conditions": [24, 1600, "a", 24000], "trial": 7, "serialpos": 13, "trial_type": "single-audio", "trial_index": 254, "time_elapsed": 1289321, "internal_node_id": "0.0-182.0"}}, {"uniqueid": "MTK1043:3D3VGR7TA1MOXQ48MY02IPJZEVL3R2", "current_trial": 255, "dateTime": 1513019437447, "trialdata": {"rt": -1000, "stimulus": "/static/audio/wordpool/HANDBAG.wav", "key_press": -1, "type": "PRES_AUD", "word": "handbag", "wordID": 683, "conditions": [24, 1600, "a", 24000], "trial": 7, "serialpos": 14, "trial_type": "single-audio", "trial_index": 255, "time_elapsed": 1292085, "internal_node_id": "0.0-183.0"}}, {"uniqueid": "MTK1043:3D3VGR7TA1MOXQ48MY02IPJZEVL3R2", "current_trial": 256, "dateTime": 1513019439992, "trialdata": {"rt": -1000, "stimulus": "/static/audio/wordpool/LACE.wav", "key_press": -1, "type": "PRES_AUD", "word": "lace", "wordID": 791, "conditions": [24, 1600, "a", 24000], "trial": 7, "serialpos": 15, "trial_type": "single-audio", "trial_index": 256, "time_elapsed": 1294629, "internal_node_id": "0.0-184.0"}}, {"uniqueid": "MTK1043:3D3VGR7TA1MOXQ48MY02IPJZEVL3R2", "current_trial": 257, "dateTime": 1513019442675, "trialdata": {"rt": -1000, "stimulus": "/static/audio/wordpool/OUTLAW.wav", "key_press": -1, "type": "PRES_AUD", "word": "outlaw", "wordID": 988, "conditions": [24, 1600, "a", 24000], "trial": 7, "serialpos": 16, "trial_type": "single-audio", "trial_index": 257, "time_elapsed": 1297313, "internal_node_id": "0.0-185.0"}}, {"uniqueid": "MTK1043:3D3VGR7TA1MOXQ48MY02IPJZEVL3R2", "current_trial": 258, "dateTime": 1513019445433, "trialdata": {"rt": -1000, "stimulus": "/static/audio/wordpool/SOFTBALL.wav", "key_press": -1, "type": "PRES_AUD", "word": "softball", "wordID": 1342, "conditions": [24, 1600, "a", 24000], "trial": 7, "serialpos": 17, "trial_type": "single-audio", "trial_index": 258, "time_elapsed": 1300070, "internal_node_id": "0.0-186.0"}}, {"uniqueid": "MTK1043:3D3VGR7TA1MOXQ48MY02IPJZEVL3R2", "current_trial": 259, "dateTime": 1513019448048, "trialdata": {"rt": -1000, "stimulus": "/static/audio/wordpool/GALLON.wav", "key_press": -1, "type": "PRES_AUD", "word": "gallon", "wordID": 617, "conditions": [24, 1600, "a", 24000], "trial": 7, "serialpos": 18, "trial_type": "single-audio", "trial_index": 259, "time_elapsed": 1302687, "internal_node_id": "0.0-187.0"}}, {"uniqueid": "MTK1043:3D3VGR7TA1MOXQ48MY02IPJZEVL3R2", "current_trial": 260, "dateTime": 1513019450583, "trialdata": {"rt": -1000, "stimulus": "/static/audio/wordpool/CASKET.wav", "key_press": -1, "type": "PRES_AUD", "word": "casket", "wordID": 254, "conditions": [24, 1600, "a", 24000], "trial": 7, "serialpos": 19, "trial_type": "single-audio", "trial_index": 260, "time_elapsed": 1305221, "internal_node_id": "0.0-188.0"}}, {"uniqueid": "MTK1043:3D3VGR7TA1MOXQ48MY02IPJZEVL3R2", "current_trial": 261, "dateTime": 1513019453250, "trialdata": {"rt": -1000, "stimulus": "/static/audio/wordpool/TOMBSTONE.wav", "key_press": -1, "type": "PRES_AUD", "word": "tombstone", "wordID": 1477, "conditions": [24, 1600, "a", 24000], "trial": 7, "serialpos": 20, "trial_type": "single-audio", "trial_index": 261, "time_elapsed": 1307888, "internal_node_id": "0.0-189.0"}}, {"uniqueid": "MTK1043:3D3VGR7TA1MOXQ48MY02IPJZEVL3R2", "current_trial": 262, "dateTime": 1513019456010, "trialdata": {"rt": -1000, "stimulus": "/static/audio/wordpool/SUITCASE.wav", "key_press": -1, "type": "PRES_AUD", "word": "suitcase", "wordID": 1402, "conditions": [24, 1600, "a", 24000], "trial": 7, "serialpos": 21, "trial_type": "single-audio", "trial_index": 262, "time_elapsed": 1310648, "internal_node_id": "0.0-190.0"}}, {"uniqueid": "MTK1043:3D3VGR7TA1MOXQ48MY02IPJZEVL3R2", "current_trial": 263, "dateTime": 1513019458654, "trialdata": {"rt": -1000, "stimulus": "/static/audio/wordpool/BARREL.wav", "key_press": -1, "type": "PRES_AUD", "word": "barrel", "wordID": 90, "conditions": [24, 1600, "a", 24000], "trial": 7, "serialpos": 22, "trial_type": "single-audio", "trial_index": 263, "time_elapsed": 1313293, "internal_node_id": "0.0-191.0"}}, {"uniqueid": "MTK1043:3D3VGR7TA1MOXQ48MY02IPJZEVL3R2", "current_trial": 264, "dateTime": 1513019461164, "trialdata": {"rt": -1000, "stimulus": "/static/audio/wordpool/SCULPTURE.wav", "key_press": -1, "type": "PRES_AUD", "word": "sculpture", "wordID": 1257, "conditions": [24, 1600, "a", 24000], "trial": 7, "serialpos": 23, "trial_type": "single-audio", "trial_index": 264, "time_elapsed": 1315801, "internal_node_id": "0.0-192.0"}}, {"uniqueid": "MTK1043:3D3VGR7TA1MOXQ48MY02IPJZEVL3R2", "current_trial": 265, "dateTime": 1513019462444, "trialdata": {"rt": -1, "stimulus": "", "key_press": -1, "type": "PRE_RECALL_DELAY", "trial_type": "single-stim", "trial_index": 265, "time_elapsed": 1317081, "internal_node_id": "0.0-193.0-0.0"}}, {"uniqueid": "MTK1043:3D3VGR7TA1MOXQ48MY02IPJZEVL3R2", "current_trial": 266, "dateTime": 1513019462950, "trialdata": {"rt": -1000, "stimulus": "/static/audio/400Hz.wav", "key_press": -1, "type": "PRE_RECALL_ALERT", "trial_type": "single-audio", "trial_index": 266, "time_elapsed": 1317589, "internal_node_id": "0.0-194.0"}}, {"uniqueid": "MTK1043:3D3VGR7TA1MOXQ48MY02IPJZEVL3R2", "current_trial": 267, "dateTime": 1513019523003, "trialdata": {"rt": [3136, 7406, 13930, 17224, 20927, 21128, 25129, 27032, 34275], "recwords": ["brook", "pastor", "scultpur", "barrel", "suitcase", "", "lace", "basket", "casket"], "type": "FREE_RECALL", "conditions": [24, 1600, "a", 24000], "trial": 7, "trial_type": "free-recall", "trial_index": 267, "time_elapsed": 1377612, "internal_node_id": "0.0-195.0-0.0"}}, {"uniqueid": "MTK1043:3D3VGR7TA1MOXQ48MY02IPJZEVL3R2", "current_trial": 268, "dateTime": 1513019526040, "trialdata": {"rt": 1032, "key_press": 32, "type": "INSTRUCTIONS", "trial_type": "text", "trial_index": 268, "time_elapsed": 1380678, "internal_node_id": "0.0-196.0"}}, {"uniqueid": "MTK1043:3D3VGR7TA1MOXQ48MY02IPJZEVL3R2", "current_trial": 269, "dateTime": 1513019540061, "trialdata": {"rt": [3481, 5823, 7745, 9957, 11985], "responses": ["13", "6", "8", "11", "12"], "num1": [3, 2, 2, 1, 1, 1], "num2": [8, 2, 2, 8, 9, 7], "num3": [2, 2, 4, 2, 2, 5], "type": "DISTRACTOR", "conditions": [12, 1600, "v", 12000], "trial": 8, "trial_type": "math-distractor", "trial_index": 269, "time_elapsed": 1394700, "internal_node_id": "0.0-197.0"}}, {"uniqueid": "MTK1043:3D3VGR7TA1MOXQ48MY02IPJZEVL3R2", "current_trial": 270, "dateTime": 1513019543070, "trialdata": {"rt": -1, "stimulus": "<p id=\"stim\">10</p>", "key_press": -1, "trial_type": "single-stim", "trial_index": 270, "time_elapsed": 1397708, "internal_node_id": "0.0-198.0-0.0"}}, {"uniqueid": "MTK1043:3D3VGR7TA1MOXQ48MY02IPJZEVL3R2", "current_trial": 271, "dateTime": 1513019544077, "trialdata": {"rt": -1, "stimulus": "<p id=\"stim\">9</p>", "key_press": -1, "trial_type": "single-stim", "trial_index": 271, "time_elapsed": 1398716, "internal_node_id": "0.0-198.0-1.0"}}, {"uniqueid": "MTK1043:3D3VGR7TA1MOXQ48MY02IPJZEVL3R2", "current_trial": 272, "dateTime": 1513019545090, "trialdata": {"rt": -1, "stimulus": "<p id=\"stim\">8</p>", "key_press": -1, "trial_type": "single-stim", "trial_index": 272, "time_elapsed": 1399726, "internal_node_id": "0.0-198.0-2.0"}}, {"uniqueid": "MTK1043:3D3VGR7TA1MOXQ48MY0