{"assignmentId": "3JBT3HLQF99466VMUDRMHVOZW61ZP8", "workerId": "MTK1846", "questiondata": {"avail_screen_height": 1394, "color_depth": 24, "screen_width": 2560, "pixel_depth": 24, "avail_screen_width": 2560, "screen_height": 1440}, "bonus": 0, "hitId": "3CVDZS288H7QT29FBJ0L8FI2XRUMF6", "counterbalance": 252, "useragent": "Mozilla/5.0 (Windows NT 6.1; Win64; x64; rv:57.0) Gecko/20100101 Firefox/57.0", "eventdata": [{"eventtype": "initialized", "interval": 0, "value": null, "timestamp": 1516477554463}, {"eventtype": "window_resize", "interval": 0, "value": [2534, 1312], "timestamp": 1516477554463}, {"eventtype": "focus", "interval": 10333, "value": "off", "timestamp": 1516477564796}, {"eventtype": "focus", "interval": 6052, "value": "on", "timestamp": 1516477570848}, {"eventtype": "focus", "interval": 2805, "value": "off", "timestamp": 1516477573653}, {"eventtype": "focus", "interval": 1225, "value": "on", "timestamp": 1516477574878}, {"eventtype": "focus", "interval": 86508, "value": "off", "timestamp": 1516477661386}, {"eventtype": "focus", "interval": 4040, "value": "on", "timestamp": 1516477665426}, {"eventtype": "focus", "interval": 54006, "value": "off", "timestamp": 1516477719432}, {"eventtype": "focus", "interval": 2480, "value": "on", "timestamp": 1516477721912}, {"eventtype": "focus", "interval": 250253, "value": "off", "timestamp": 1516477972165}, {"eventtype": "focus", "interval": 8656, "value": "on", "timestamp": 1516477980821}, {"eventtype": "focus", "interval": 20895, "value": "off", "timestamp": 1516478001716}, {"eventtype": "focus", "interval": 2486, "value": "on", "timestamp": 1516478004202}, {"eventtype": "focus", "interval": 921445, "value": "off", "timestamp": 1516478925647}, {"eventtype": "focus", "interval": 1486, "value": "on", "timestamp": 1516478927133}], "data": [{"current_trial": 0, "trialdata": {"rt": 10453, "trial_type": "text", "internal_node_id": "0.0-0.0", "time_elapsed": 10454, "key_press": 32, "type": "INSTRUCTIONS", "trial_index": 0}, "uniqueid": "MTK1846:3JBT3HLQF99466VMUDRMHVOZW61ZP8", "dateTime": 1516477576417}, {"current_trial": 1, "trialdata": {"rt": 4323, "trial_type": "text", "internal_node_id": "0.0-1.0", "time_elapsed": 14778, "key_press": 183, "type": "INSTRUCTIONS", "trial_index": 1}, "uniqueid": "MTK1846:3JBT3HLQF99466VMUDRMHVOZW61ZP8", "dateTime": 1516477580741}, {"current_trial": 2, "trialdata": {"rt": [10591], "trial_type": "audio-test", "responses": ["ocean"], "internal_node_id": "0.0-2.0", "time_elapsed": 25385, "type": "AUDIO_TEST", "trial_index": 2}, "uniqueid": "MTK1846:3JBT3HLQF99466VMUDRMHVOZW61ZP8", "dateTime": 1516477591348}, {"current_trial": 3, "trialdata": {"rt": [6064], "trial_type": "audio-test", "responses": ["crystal"], "internal_node_id": "0.0-3.0", "time_elapsed": 31458, "type": "AUDIO_TEST", "trial_index": 3}, "uniqueid": "MTK1846:3JBT3HLQF99466VMUDRMHVOZW61ZP8", "dateTime": 1516477597420}, {"current_trial": 4, "trialdata": {"rt": [4295], "trial_type": "audio-test", "responses": ["spice"], "internal_node_id": "0.0-4.0", "time_elapsed": 35761, "type": "AUDIO_TEST", "trial_index": 4}, "uniqueid": "MTK1846:3JBT3HLQF99466VMUDRMHVOZW61ZP8", "dateTime": 1516477601723}, {"current_trial": 5, "trialdata": {"rt": 16835, "trial_type": "survey-text", "responses": "{\"Q0\":\"1AM\",\"Q1\":\"9:30AM\",\"Q2\":\"5\"}", "internal_node_id": "0.0-5.0", "time_elapsed": 53348, "type": "SLEEP_SURVEY", "trial_index": 5}, "uniqueid": "MTK1846:3JBT3HLQF99466VMUDRMHVOZW61ZP8", "dateTime": 1516477619311}, {"current_trial": 6, "trialdata": {"rt": 38038, "trial_type": "text", "internal_node_id": "0.0-6.0", "time_elapsed": 92387, "key_press": 183, "type": "INSTRUCTIONS", "trial_index": 6}, "uniqueid": "MTK1846:3JBT3HLQF99466VMUDRMHVOZW61ZP8", "dateTime": 1516477658350}, {"current_trial": 7, "trialdata": {"rt": 20076, "trial_type": "text", "internal_node_id": "0.0-7.0", "time_elapsed": 112965, "key_press": 13, "type": "INSTRUCTIONS", "trial_index": 7}, "uniqueid": "MTK1846:3JBT3HLQF99466VMUDRMHVOZW61ZP8", "dateTime": 1516477678927}, {"current_trial": 8, "trialdata": {"rt": 13841, "trial_type": "text", "internal_node_id": "0.0-8.0", "time_elapsed": 127308, "key_press": 13, "type": "INSTRUCTIONS", "trial_index": 8}, "uniqueid": "MTK1846:3JBT3HLQF99466VMUDRMHVOZW61ZP8", "dateTime": 1516477693270}, {"current_trial": 9, "trialdata": {"rt": [3666, 5913, 9093, 10681, 13389, 16017], "trial_type": "math-distractor", "key_times": [3114, 3313, 3666, 5633, 5717, 5913, 8113, 9093, 10369, 10405, 10681, 13180, 13389, 15733, 15797, 16017, 17697, 17877], "responses": ["14", "16", "9", "12", "8", "21"], "num2": [1, 6, 1, 2, 2, 9, 2], "num3": [7, 5, 7, 5, 3, 9, 9], "conditions": [18, 1200, "a", 18000], "internal_node_id": "0.0-9.0", "key_presses": [97, 100, 13, 97, 102, 13, 105, 13, 97, 98, 13, 104, 13, 98, 97, 13, 97, 100], "trial": 0, "time_elapsed": 146312, "type": "DISTRACTOR", "trial_index": 9, "num1": [6, 5, 1, 5, 3, 3, 3]}, "uniqueid": "MTK1846:3JBT3HLQF99466VMUDRMHVOZW61ZP8", "dateTime": 1516477712274}, {"current_trial": 10, "trialdata": {"rt": -1, "trial_type": "single-stim", "stimulus": "<p id=\"stim\">10</p>", "internal_node_id": "0.0-10.0-0.0", "time_elapsed": 149315, "key_press": -1, "trial_index": 10}, "uniqueid": "MTK1846:3JBT3HLQF99466VMUDRMHVOZW61ZP8", "dateTime": 1516477715277}, {"current_trial": 11, "trialdata": {"rt": -1, "trial_type": "single-stim", "stimulus": "<p id=\"stim\">9</p>", "internal_node_id": "0.0-10.0-1.0", "time_elapsed": 150316, "key_press": -1, "trial_index": 11}, "uniqueid": "MTK1846:3JBT3HLQF99466VMUDRMHVOZW61ZP8", "dateTime": 1516477716278}, {"current_trial": 12, "trialdata": {"rt": -1, "trial_type": "single-stim", "stimulus": "<p id=\"stim\">8</p>", "internal_node_id": "0.0-10.0-2.0", "time_elapsed": 151317, "key_press": -1, "trial_index": 12}, "uniqueid": "MTK1846:3JBT3HLQF99466VMUDRMHVOZW61ZP8", "dateTime": 1516477717279}, {"current_trial": 13, "trialdata": {"rt": -1, "trial_type": "single-stim", "stimulus": "<p id=\"stim\">7</p>", "internal_node_id": "0.0-10.0-3.0", "time_elapsed": 152318, "key_press": -1, "trial_index": 13}, "uniqueid": "MTK1846:3JBT3HLQF99466VMUDRMHVOZW61ZP8", "dateTime": 1516477718280}, {"current_trial": 14, "trialdata": {"rt": -1, "trial_type": "single-stim", "stimulus": "<p id=\"stim\">6</p>", "internal_node_id": "0.0-10.0-4.0", "time_elapsed": 153319, "key_press": -1, "trial_index": 14}, "uniqueid": "MTK1846:3JBT3HLQF99466VMUDRMHVOZW61ZP8", "dateTime": 1516477719281}, {"current_trial": 15, "trialdata": {"rt": -1, "trial_type": "single-stim", "stimulus": "<p id=\"stim\">5</p>", "internal_node_id": "0.0-10.0-5.0", "time_elapsed": 154320, "key_press": -1, "trial_index": 15}, "uniqueid": "MTK1846:3JBT3HLQF99466VMUDRMHVOZW61ZP8", "dateTime": 1516477720282}, {"current_trial": 16, "trialdata": {"rt": -1, "trial_type": "single-stim", "stimulus": "<p id=\"stim\">4</p>", "internal_node_id": "0.0-10.0-6.0", "time_elapsed": 155321, "key_press": -1, "trial_index": 16}, "uniqueid": "MTK1846:3JBT3HLQF99466VMUDRMHVOZW61ZP8", "dateTime": 1516477721283}, {"current_trial": 17, "trialdata": {"rt": -1, "trial_type": "single-stim", "stimulus": "<p id=\"stim\">3</p>", "internal_node_id": "0.0-10.0-7.0", "time_elapsed": 156322, "key_press": -1, "trial_index": 17}, "uniqueid": "MTK1846:3JBT3HLQF99466VMUDRMHVOZW61ZP8", "dateTime": 1516477722284}, {"current_trial": 18, "trialdata": {"rt": -1, "trial_type": "single-stim", "stimulus": "<p id=\"stim\">2</p>", "internal_node_id": "0.0-10.0-8.0", "time_elapsed": 157323, "key_press": -1, "trial_index": 18}, "uniqueid": "MTK1846:3JBT3HLQF99466VMUDRMHVOZW61ZP8", "dateTime": 1516477723285}, {"current_trial": 19, "trialdata": {"rt": -1, "trial_type": "single-stim", "stimulus": "<p id=\"stim\">1</p>", "internal_node_id": "0.0-10.0-9.0", "time_elapsed": 158324, "key_press": -1, "trial_index": 19}, "uniqueid": "MTK1846:3JBT3HLQF99466VMUDRMHVOZW61ZP8", "dateTime": 1516477724286}, {"current_trial": 20, "trialdata": {"rt": -1, "trial_type": "single-stim", "stimulus": "<p id=\"stim\">+</p>", "internal_node_id": "0.0-11.0-0.0", "time_elapsed": 159825, "key_press": -1, "type": "FIXATION", "trial_index": 20}, "uniqueid": "MTK1846:3JBT3HLQF99466VMUDRMHVOZW61ZP8", "dateTime": 1516477725787}, {"current_trial": 21, "trialdata": {"rt": -1000, "trial_type": "single-audio", "word": "crutch", "stimulus": "/static/audio/wordpool/CRUTCH.wav", "conditions": [18, 1200, "a", 18000], "internal_node_id": "0.0-12.0", "trial": 0, "time_elapsed": 161953, "serialpos": 0, "key_press": -1, "wordID": 416, "type": "PRES_AUD", "trial_index": 21}, "uniqueid": "MTK1846:3JBT3HLQF99466VMUDRMHVOZW61ZP8", "dateTime": 1516477727915}, {"current_trial": 22, "trialdata": {"rt": -1000, "trial_type": "single-audio", "word": "custard", "stimulus": "/static/audio/wordpool/CUSTARD.wav", "conditions": [18, 1200, "a", 18000], "internal_node_id": "0.0-13.0", "trial": 0, "time_elapsed": 164345, "serialpos": 1, "key_press": -1, "wordID": 428, "type": "PRES_AUD", "trial_index": 22}, "uniqueid": "MTK1846:3JBT3HLQF99466VMUDRMHVOZW61ZP8", "dateTime": 1516477730307}, {"current_trial": 23, "trialdata": {"rt": -1000, "trial_type": "single-audio", "word": "yacht", "stimulus": "/static/audio/wordpool/YACHT.wav", "conditions": [18, 1200, "a", 18000], "internal_node_id": "0.0-14.0", "trial": 0, "time_elapsed": 166573, "serialpos": 2, "key_press": -1, "wordID": 1628, "type": "PRES_AUD", "trial_index": 23}, "uniqueid": "MTK1846:3JBT3HLQF99466VMUDRMHVOZW61ZP8", "dateTime": 1516477732535}, {"current_trial": 24, "trialdata": {"rt": -1000, "trial_type": "single-audio", "word": "jungle", "stimulus": "/static/audio/wordpool/JUNGLE.wav", "conditions": [18, 1200, "a", 18000], "internal_node_id": "0.0-15.0", "trial": 0, "time_elapsed": 168577, "serialpos": 3, "key_press": -1, "wordID": 763, "type": "PRES_AUD", "trial_index": 24}, "uniqueid": "MTK1846:3JBT3HLQF99466VMUDRMHVOZW61ZP8", "dateTime": 1516477734539}, {"current_trial": 25, "trialdata": {"rt": -1000, "trial_type": "single-audio", "word": "chest", "stimulus": "/static/audio/wordpool/CHEST.wav", "conditions": [18, 1200, "a", 18000], "internal_node_id": "0.0-16.0", "trial": 0, "time_elapsed": 170586, "serialpos": 4, "key_press": -1, "wordID": 294, "type": "PRES_AUD", "trial_index": 25}, "uniqueid": "MTK1846:3JBT3HLQF99466VMUDRMHVOZW61ZP8", "dateTime": 1516477736548}, {"current_trial": 26, "trialdata": {"rt": -1000, "trial_type": "single-audio", "word": "whistle", "stimulus": "/static/audio/wordpool/WHISTLE.wav", "conditions": [18, 1200, "a", 18000], "internal_node_id": "0.0-17.0", "trial": 0, "time_elapsed": 172956, "serialpos": 5, "key_press": -1, "wordID": 1605, "type": "PRES_AUD", "trial_index": 26}, "uniqueid": "MTK1846:3JBT3HLQF99466VMUDRMHVOZW61ZP8", "dateTime": 1516477738919}, {"current_trial": 27, "trialdata": {"rt": -1000, "trial_type": "single-audio", "word": "proton", "stimulus": "/static/audio/wordpool/PROTON.wav", "conditions": [18, 1200, "a", 18000], "internal_node_id": "0.0-18.0", "trial": 0, "time_elapsed": 175233, "serialpos": 6, "key_press": -1, "wordID": 1131, "type": "PRES_AUD", "trial_index": 27}, "uniqueid": "MTK1846:3JBT3HLQF99466VMUDRMHVOZW61ZP8", "dateTime": 1516477741195}, {"current_trial": 28, "trialdata": {"rt": -1000, "trial_type": "single-audio", "word": "luggage", "stimulus": "/static/audio/wordpool/LUGGAGE.wav", "conditions": [18, 1200, "a", 18000], "internal_node_id": "0.0-19.0", "trial": 0, "time_elapsed": 177467, "serialpos": 7, "key_press": -1, "wordID": 846, "type": "PRES_AUD", "trial_index": 28}, "uniqueid": "MTK1846:3JBT3HLQF99466VMUDRMHVOZW61ZP8", "dateTime": 1516477743429}, {"current_trial": 29, "trialdata": {"rt": -1000, "trial_type": "single-audio", "word": "turtle", "stimulus": "/static/audio/wordpool/TURTLE.wav", "conditions": [18, 1200, "a", 18000], "internal_node_id": "0.0-20.0", "trial": 0, "time_elapsed": 179599, "serialpos": 8, "key_press": -1, "wordID": 1521, "type": "PRES_AUD", "trial_index": 29}, "uniqueid": "MTK1846:3JBT3HLQF99466VMUDRMHVOZW61ZP8", "dateTime": 1516477745561}, {"current_trial": 30, "trialdata": {"rt": -1000, "trial_type": "single-audio", "word": "dorm", "stimulus": "/static/audio/wordpool/DORM.wav", "conditions": [18, 1200, "a", 18000], "internal_node_id": "0.0-21.0", "trial": 0, "time_elapsed": 181753, "serialpos": 9, "key_press": -1, "wordID": 487, "type": "PRES_AUD", "trial_index": 30}, "uniqueid": "MTK1846:3JBT3HLQF99466VMUDRMHVOZW61ZP8", "dateTime": 1516477747715}, {"current_trial": 31, "trialdata": {"rt": -1000, "trial_type": "single-audio", "word": "lion", "stimulus": "/static/audio/wordpool/LION.wav", "conditions": [18, 1200, "a", 18000], "internal_node_id": "0.0-22.0", "trial": 0, "time_elapsed": 184061, "serialpos": 10, "key_press": -1, "wordID": 826, "type": "PRES_AUD", "trial_index": 31}, "uniqueid": "MTK1846:3JBT3HLQF99466VMUDRMHVOZW61ZP8", "dateTime": 1516477750023}, {"current_trial": 32, "trialdata": {"rt": -1000, "trial_type": "single-audio", "word": "sculpture", "stimulus": "/static/audio/wordpool/SCULPTURE.wav", "conditions": [18, 1200, "a", 18000], "internal_node_id": "0.0-23.0", "trial": 0, "time_elapsed": 186428, "serialpos": 11, "key_press": -1, "wordID": 1257, "type": "PRES_AUD", "trial_index": 32}, "uniqueid": "MTK1846:3JBT3HLQF99466VMUDRMHVOZW61ZP8", "dateTime": 1516477752390}, {"current_trial": 33, "trialdata": {"rt": -1000, "trial_type": "single-audio", "word": "buggy", "stimulus": "/static/audio/wordpool/BUGGY.wav", "conditions": [18, 1200, "a", 18000], "internal_node_id": "0.0-24.0", "trial": 0, "time_elapsed": 188776, "serialpos": 12, "key_press": -1, "wordID": 187, "type": "PRES_AUD", "trial_index": 33}, "uniqueid": "MTK1846:3JBT3HLQF99466VMUDRMHVOZW61ZP8", "dateTime": 1516477754738}, {"current_trial": 34, "trialdata": {"rt": -1000, "trial_type": "single-audio", "word": "coffee", "stimulus": "/static/audio/wordpool/COFFEE.wav", "conditions": [18, 1200, "a", 18000], "internal_node_id": "0.0-25.0", "trial": 0, "time_elapsed": 190979, "serialpos": 13, "key_press": -1, "wordID": 340, "type": "PRES_AUD", "trial_index": 34}, "uniqueid": "MTK1846:3JBT3HLQF99466VMUDRMHVOZW61ZP8", "dateTime": 1516477756941}, {"current_trial": 35, "trialdata": {"rt": -1000, "trial_type": "single-audio", "word": "cocoon", "stimulus": "/static/audio/wordpool/COCOON.wav", "conditions": [18, 1200, "a", 18000], "internal_node_id": "0.0-26.0", "trial": 0, "time_elapsed": 193329, "serialpos": 14, "key_press": -1, "wordID": 338, "type": "PRES_AUD", "trial_index": 35}, "uniqueid": "MTK1846:3JBT3HLQF99466VMUDRMHVOZW61ZP8", "dateTime": 1516477759292}, {"current_trial": 36, "trialdata": {"rt": -1000, "trial_type": "single-audio", "word": "empire", "stimulus": "/static/audio/wordpool/EMPIRE.wav", "conditions": [18, 1200, "a", 18000], "internal_node_id": "0.0-27.0", "trial": 0, "time_elapsed": 195418, "serialpos": 15, "key_press": -1, "wordID": 529, "type": "PRES_AUD", "trial_index": 36}, "uniqueid": "MTK1846:3JBT3HLQF99466VMUDRMHVOZW61ZP8", "dateTime": 1516477761380}, {"current_trial": 37, "trialdata": {"rt": -1000, "trial_type": "single-audio", "word": "crayon", "stimulus": "/static/audio/wordpool/CRAYON.wav", "conditions": [18, 1200, "a", 18000], "internal_node_id": "0.0-28.0", "trial": 0, "time_elapsed": 197647, "serialpos": 16, "key_press": -1, "wordID": 400, "type": "PRES_AUD", "trial_index": 37}, "uniqueid": "MTK1846:3JBT3HLQF99466VMUDRMHVOZW61ZP8", "dateTime": 1516477763609}, {"current_trial": 38, "trialdata": {"rt": -1000, "trial_type": "single-audio", "word": "velvet", "stimulus": "/static/audio/wordpool/VELVET.wav", "conditions": [18, 1200, "a", 18000], "internal_node_id": "0.0-29.0", "trial": 0, "time_elapsed": 199914, "serialpos": 17, "key_press": -1, "wordID": 1554, "type": "PRES_AUD", "trial_index": 38}, "uniqueid": "MTK1846:3JBT3HLQF99466VMUDRMHVOZW61ZP8", "dateTime": 1516477765876}, {"current_trial": 39, "trialdata": {"rt": -1, "trial_type": "single-stim", "stimulus": "", "internal_node_id": "0.0-30.0-0.0", "time_elapsed": 201158, "key_press": -1, "type": "PRE_RECALL_DELAY", "trial_index": 39}, "uniqueid": "MTK1846:3JBT3HLQF99466VMUDRMHVOZW61ZP8", "dateTime": 1516477767120}, {"current_trial": 40, "trialdata": {"rt": -1000, "trial_type": "single-audio", "stimulus": "/static/audio/400Hz.wav", "internal_node_id": "0.0-31.0", "time_elapsed": 201659, "key_press": -1, "type": "PRE_RECALL_ALERT", "trial_index": 40}, "uniqueid": "MTK1846:3JBT3HLQF99466VMUDRMHVOZW61ZP8", "dateTime": 1516477767621}, {"current_trial": 41, "trialdata": {"rt": [2248, 4028, 5720, 8868, 12636, 15148, 20607, 22964, 23896, 25743, 35931, 47471], "recwords": ["velvet", "custard", "luggage", "cocoon", "custard", "turtle", "crayon", "empire", "dorm", "yacht", "lion", ""], "key_times": [1081, 1325, 1481, 1617, 1809, 1998, 2248, 2560, 2760, 2856, 3036, 3260, 3468, 3660, 4028, 4201, 4432, 4508, 4788, 5100, 5380, 5544, 5720, 6232, 6672, 6920, 7040, 7584, 7820, 8868, 11448, 11588, 11728, 11912, 12116, 12304, 12464, 12636, 13920, 14008, 14132, 14296, 14396, 14568, 15148, 18535, 18739, 18923, 19419, 19847, 20087, 20187, 20235, 20607, 22132, 22216, 22388, 22500, 22580, 22728, 22964, 23308, 23392, 23516, 23624, 23896, 24816, 25040, 25232, 25308, 25440, 25743, 35279, 35451, 35583, 35715, 35931, 47471], "trial_type": "free-recall", "conditions": [18, 1200, "a", 18000], "internal_node_id": "0.0-32.0-0.0", "key_presses": [86, 69, 76, 86, 69, 84, 13, 67, 85, 83, 84, 65, 82, 68, 13, 76, 85, 71, 71, 65, 71, 69, 13, 67, 79, 67, 79, 79, 78, 13, 67, 85, 83, 84, 65, 82, 68, 13, 84, 85, 82, 84, 76, 69, 13, 67, 82, 65, 8, 65, 89, 79, 78, 13, 69, 77, 80, 73, 82, 69, 13, 68, 79, 82, 77, 13, 89, 65, 67, 72, 84, 13, 76, 73, 79, 78, 13, 13], "trial": 0, "time_elapsed": 261662, "type": "FREE_RECALL", "trial_index": 41}, "uniqueid": "MTK1846:3JBT3HLQF99466VMUDRMHVOZW61ZP8", "dateTime": 1516477827626}, {"current_trial": 42, "trialdata": {"rt": 1522, "trial_type": "text", "internal_node_id": "0.0-33.0", "time_elapsed": 265187, "key_press": 13, "type": "INSTRUCTIONS", "trial_index": 42}, "uniqueid": "MTK1846:3JBT3HLQF99466VMUDRMHVOZW61ZP8", "dateTime": 1516477831150}, {"current_trial": 43, "trialdata": {"rt": [4993, 6777, 8728, 10448, 12156, 13925], "trial_type": "math-distractor", "key_times": [4637, 4853, 4993, 6513, 6585, 6777, 8440, 8596, 8728, 10200, 10360, 10448, 11937, 12008, 12156, 13705, 13769, 13925], "responses": ["21", "21", "10", "10", "13", "13"], "num2": [7, 7, 5, 7, 3, 6, 1], "num3": [9, 7, 4, 2, 2, 3, 8], "conditions": [18, 1200, "a", 18000], "internal_node_id": "0.0-34.0", "key_presses": [98, 97, 13, 98, 97, 13, 97, 96, 13, 97, 96, 13, 97, 99, 13, 97, 99, 13], "trial": 1, "time_elapsed": 285190, "type": "DISTRACTOR", "trial_index": 43, "num1": [5, 7, 1, 1, 8, 4, 2]}, "uniqueid": "MTK1846:3JBT3HLQF99466VMUDRMHVOZW61ZP8", "dateTime": 1516477851152}, {"current_trial": 44, "trialdata": {"rt": -1, "trial_type": "single-stim", "stimulus": "<p id=\"stim\">10</p>", "internal_node_id": "0.0-35.0-0.0", "time_elapsed": 288191, "key_press": -1, "trial_index": 44}, "uniqueid": "MTK1846:3JBT3HLQF99466VMUDRMHVOZW61ZP8", "dateTime": 1516477854153}, {"current_trial": 45, "trialdata": {"rt": -1, "trial_type": "single-stim", "stimulus": "<p id=\"stim\">9</p>", "internal_node_id": "0.0-35.0-1.0", "time_elapsed": 289192, "key_press": -1, "trial_index": 45}, "uniqueid": "MTK1846:3JBT3HLQF99466VMUDRMHVOZW61ZP8", "dateTime": 1516477855154}, {"current_trial": 46, "trialdata": {"rt": -1, "trial_type": "single-stim", "stimulus": "<p id=\"stim\">8</p>", "internal_node_id": "0.0-35.0-2.0", "time_elapsed": 290193, "key_press": -1, "trial_index": 46}, "uniqueid": "MTK1846:3JBT3HLQF99466VMUDRMHVOZW61ZP8", "dateTime": 1516477856155}, {"current_trial": 47, "trialdata": {"rt": -1, "trial_type": "single-stim", "stimulus": "<p id=\"stim\">7</p>", "internal_node_id": "0.0-35.0-3.0", "time_elapsed": 291194, "key_press": -1, "trial_index": 47}, "uniqueid": "MTK1846:3JBT3HLQF99466VMUDRMHVOZW61ZP8", "dateTime": 1516477857156}, {"current_trial": 48, "trialdata": {"rt": -1, "trial_type": "single-stim", "stimulus": "<p id=\"stim\">6</p>", "internal_node_id": "0.0-35.0-4.0", "time_elapsed": 292195, "key_press": -1, "trial_index": 48}, "uniqueid": "MTK1846:3JBT3HLQF99466VMUDRMHVOZW61ZP8", "dateTime": 1516477858157}, {"current_trial": 49, "trialdata": {"rt": -1, "trial_type": "single-stim", "stimulus": "<p id=\"stim\">5</p>", "internal_node_id": "0.0-35.0-5.0", "time_elapsed": 293196, "key_press": -1, "trial_index": 49}, "uniqueid": "MTK1846:3JBT3HLQF99466VMUDRMHVOZW61ZP8", "dateTime": 1516477859158}, {"current_trial": 50, "trialdata": {"rt": -1, "trial_type": "single-stim", "stimulus": "<p id=\"stim\">4</p>", "internal_node_id": "0.0-35.0-6.0", "time_elapsed": 294197, "key_press": -1, "trial_index": 50}, "uniqueid": "MTK1846:3JBT3HLQF99466VMUDRMHVOZW61ZP8", "dateTime": 1516477860159}, {"current_trial": 51, "trialdata": {"rt": -1, "trial_type": "single-stim", "stimulus": "<p id=\"stim\">3</p>", "internal_node_id": "0.0-35.0-7.0", "time_elapsed": 295198, "key_press": -1, "trial_index": 51}, "uniqueid": "MTK1846:3JBT3HLQF99466VMUDRMHVOZW61ZP8", "dateTime": 1516477861160}, {"current_trial": 52, "trialdata": {"rt": -1, "trial_type": "single-stim", "stimulus": "<p id=\"stim\">2</p>", "internal_node_id": "0.0-35.0-8.0", "time_elapsed": 296199, "key_press": -1, "trial_index": 52}, "uniqueid": "MTK1846:3JBT3HLQF99466VMUDRMHVOZW61ZP8", "dateTime": 1516477862162}, {"current_trial": 53, "trialdata": {"rt": -1, "trial_type": "single-stim", "stimulus": "<p id=\"stim\">1</p>", "internal_node_id": "0.0-35.0-9.0", "time_elapsed": 297201, "key_press": -1, "trial_index": 53}, "uniqueid": "MTK1846:3JBT3HLQF99466VMUDRMHVOZW61ZP8", "dateTime": 1516477863163}, {"current_trial": 54, "trialdata": {"rt": -1, "trial_type": "single-stim", "stimulus": "<p id=\"stim\">+</p>", "internal_node_id": "0.0-36.0-0.0", "time_elapsed": 298702, "key_press": -1, "type": "FIXATION", "trial_index": 54}, "uniqueid": "MTK1846:3JBT3HLQF99466VMUDRMHVOZW61ZP8", "dateTime": 1516477864664}, {"current_trial": 55, "trialdata": {"rt": -1000, "trial_type": "single-audio", "word": "agent", "stimulus": "/static/audio/wordpool/AGENT.wav", "conditions": [18, 1200, "a", 18000], "internal_node_id": "0.0-37.0", "trial": 1, "time_elapsed": 300913, "serialpos": 0, "key_press": -1, "wordID": 9, "type": "PRES_AUD", "trial_index": 55}, "uniqueid": "MTK1846:3JBT3HLQF99466VMUDRMHVOZW61ZP8", "dateTime": 1516477866875}, {"current_trial": 56, "trialdata": {"rt": -1000, "trial_type": "single-audio", "word": "brick", "stimulus": "/static/audio/wordpool/BRICK.wav", "conditions": [18, 1200, "a", 18000], "internal_node_id": "0.0-38.0", "trial": 1, "time_elapsed": 302963, "serialpos": 1, "key_press": -1, "wordID": 171, "type": "PRES_AUD", "trial_index": 56}, "uniqueid": "MTK1846:3JBT3HLQF99466VMUDRMHVOZW61ZP8", "dateTime": 1516477868925}, {"current_trial": 57, "trialdata": {"rt": -1000, "trial_type": "single-audio", "word": "bouquet", "stimulus": "/static/audio/wordpool/BOUQUET.wav", "conditions": [18, 1200, "a", 18000], "internal_node_id": "0.0-39.0", "trial": 1, "time_elapsed": 305200, "serialpos": 2, "key_press": -1, "wordID": 156, "type": "PRES_AUD", "trial_index": 57}, "uniqueid": "MTK1846:3JBT3HLQF99466VMUDRMHVOZW61ZP8", "dateTime": 1516477871162}, {"current_trial": 58, "trialdata": {"rt": -1000, "trial_type": "single-audio", "word": "patrol", "stimulus": "/static/audio/wordpool/PATROL.wav", "conditions": [18, 1200, "a", 18000], "internal_node_id": "0.0-40.0", "trial": 1, "time_elapsed": 307583, "serialpos": 3, "key_press": -1, "wordID": 1026, "type": "PRES_AUD", "trial_index": 58}, "uniqueid": "MTK1846:3JBT3HLQF99466VMUDRMHVOZW61ZP8", "dateTime": 1516477873545}, {"current_trial": 59, "trialdata": {"rt": -1000, "trial_type": "single-audio", "word": "tuba", "stimulus": "/static/audio/wordpool/TUBA.wav", "conditions": [18, 1200, "a", 18000], "internal_node_id": "0.0-41.0", "trial": 1, "time_elapsed": 309778, "serialpos": 4, "key_press": -1, "wordID": 1514, "type": "PRES_AUD", "trial_index": 59}, "uniqueid": "MTK1846:3JBT3HLQF99466VMUDRMHVOZW61ZP8", "dateTime": 1516477875740}, {"current_trial": 60, "trialdata": {"rt": -1000, "trial_type": "single-audio", "word": "space", "stimulus": "/static/audio/wordpool/SPACE.wav", "conditions": [18, 1200, "a", 18000], "internal_node_id": "0.0-42.0", "trial": 1, "time_elapsed": 312142, "serialpos": 5, "key_press": -1, "wordID": 1344, "type": "PRES_AUD", "trial_index": 60}, "uniqueid": "MTK1846:3JBT3HLQF99466VMUDRMHVOZW61ZP8", "dateTime": 1516477878104}, {"current_trial": 61, "trialdata": {"rt": -1000, "trial_type": "single-audio", "word": "camel", "stimulus": "/static/audio/wordpool/CAMEL.wav", "conditions": [18, 1200, "a", 18000], "internal_node_id": "0.0-43.0", "trial": 1, "time_elapsed": 314413, "serialpos": 6, "key_press": -1, "wordID": 222, "type": "PRES_AUD", "trial_index": 61}, "uniqueid": "MTK1846:3JBT3HLQF99466VMUDRMHVOZW61ZP8", "dateTime": 1516477880375}, {"current_trial": 62, "trialdata": {"rt": -1000, "trial_type": "single-audio", "word": "seafood", "stimulus": "/static/audio/wordpool/SEAFOOD.wav", "conditions": [18, 1200, "a", 18000], "internal_node_id": "0.0-44.0", "trial": 1, "time_elapsed": 316731, "serialpos": 7, "key_press": -1, "wordID": 1259, "type": "PRES_AUD", "trial_index": 62}, "uniqueid": "MTK1846:3JBT3HLQF99466VMUDRMHVOZW61ZP8", "dateTime": 1516477882693}, {"current_trial": 63, "trialdata": {"rt": -1000, "trial_type": "single-audio", "word": "parrot", "stimulus": "/static/audio/wordpool/PARROT.wav", "conditions": [18, 1200, "a", 18000], "internal_node_id": "0.0-45.0", "trial": 1, "time_elapsed": 319086, "serialpos": 8, "key_press": -1, "wordID": 1014, "type": "PRES_AUD", "trial_index": 63}, "uniqueid": "MTK1846:3JBT3HLQF99466VMUDRMHVOZW61ZP8", "dateTime": 1516477885049}, {"current_trial": 64, "trialdata": {"rt": -1000, "trial_type": "single-audio", "word": "rust", "stimulus": "/static/audio/wordpool/RUST.wav", "conditions": [18, 1200, "a", 18000], "internal_node_id": "0.0-46.0", "trial": 1, "time_elapsed": 321332, "serialpos": 9, "key_press": -1, "wordID": 1218, "type": "PRES_AUD", "trial_index": 64}, "uniqueid": "MTK1846:3JBT3HLQF99466VMUDRMHVOZW61ZP8", "dateTime": 1516477887294}, {"current_trial": 65, "trialdata": {"rt": -1000, "trial_type": "single-audio", "word": "ghetto", "stimulus": "/static/audio/wordpool/GHETTO.wav", "conditions": [18, 1200, "a", 18000], "internal_node_id": "0.0-47.0", "trial": 1, "time_elapsed": 323501, "serialpos": 10, "key_press": -1, "wordID": 632, "type": "PRES_AUD", "trial_index": 65}, "uniqueid": "MTK1846:3JBT3HLQF99466VMUDRMHVOZW61ZP8", "dateTime": 1516477889463}, {"current_trial": 66, "trialdata": {"rt": -1000, "trial_type": "single-audio", "word": "pimple", "stimulus": "/static/audio/wordpool/PIMPLE.wav", "conditions": [18, 1200, "a", 18000], "internal_node_id": "0.0-48.0", "trial": 1, "time_elapsed": 325817, "serialpos": 11, "key_press": -1, "wordID": 1070, "type": "PRES_AUD", "trial_index": 66}, "uniqueid": "MTK1846:3JBT3HLQF99466VMUDRMHVOZW61ZP8", "dateTime": 1516477891779}, {"current_trial": 67, "trialdata": {"rt": -1000, "trial_type": "single-audio", "word": "server", "stimulus": "/static/audio/wordpool/SERVER.wav", "conditions": [18, 1200, "a", 18000], "internal_node_id": "0.0-49.0", "trial": 1, "time_elapsed": 328029, "serialpos": 12, "key_press": -1, "wordID": 1271, "type": "PRES_AUD", "trial_index": 67}, "uniqueid": "MTK1846:3JBT3HLQF99466VMUDRMHVOZW61ZP8", "dateTime": 1516477893991}, {"current_trial": 68, "trialdata": {"rt": -1000, "trial_type": "single-audio", "word": "sausage", "stimulus": "/static/audio/wordpool/SAUSAGE.wav", "conditions": [18, 1200, "a", 18000], "internal_node_id": "0.0-50.0", "trial": 1, "time_elapsed": 330367, "serialpos": 13, "key_press": -1, "wordID": 1237, "type": "PRES_AUD", "trial_index": 68}, "uniqueid": "MTK1846:3JBT3HLQF99466VMUDRMHVOZW61ZP8", "dateTime": 1516477896329}, {"current_trial": 69, "trialdata": {"rt": -1000, "trial_type": "single-audio", "word": "panther", "stimulus": "/static/audio/wordpool/PANTHER.wav", "conditions": [18, 1200, "a", 18000], "internal_node_id": "0.0-51.0", "trial": 1, "time_elapsed": 332436, "serialpos": 14, "key_press": -1, "wordID": 1008, "type": "PRES_AUD", "trial_index": 69}, "uniqueid": "MTK1846:3JBT3HLQF99466VMUDRMHVOZW61ZP8", "dateTime": 1516477898398}, {"current_trial": 70, "trialdata": {"rt": -1000, "trial_type": "single-audio", "word": "mask", "stimulus": "/static/audio/wordpool/MASK.wav", "conditions": [18, 1200, "a", 18000], "internal_node_id": "0.0-52.0", "trial": 1, "time_elapsed": 334724, "serialpos": 15, "key_press": -1, "wordID": 875, "type": "PRES_AUD", "trial_index": 70}, "uniqueid": "MTK1846:3JBT3HLQF99466VMUDRMHVOZW61ZP8", "dateTime": 1516477900686}, {"current_trial": 71, "trialdata": {"rt": -1000, "trial_type": "single-audio", "word": "racket", "stimulus": "/static/audio/wordpool/RACKET.wav", "conditions": [18, 1200, "a", 18000], "internal_node_id": "0.0-53.0", "trial": 1, "time_elapsed": 336789, "serialpos": 16, "key_press": -1, "wordID": 1154, "type": "PRES_AUD", "trial_index": 71}, "uniqueid": "MTK1846:3JBT3HLQF99466VMUDRMHVOZW61ZP8", "dateTime": 1516477902751}, {"current_trial": 72, "trialdata": {"rt": -1000, "trial_type": "single-audio", "word": "fleet", "stimulus": "/static/audio/wordpool/FLEET.wav", "conditions": [18, 1200, "a", 18000], "internal_node_id": "0.0-54.0", "trial": 1, "time_elapsed": 339115, "serialpos": 17, "key_press": -1, "wordID": 577, "type": "PRES_AUD", "trial_index": 72}, "uniqueid": "MTK1846:3JBT3HLQF99466VMUDRMHVOZW61ZP8", "dateTime": 1516477905078}, {"current_trial": 73, "trialdata": {"rt": -1, "trial_type": "single-stim", "stimulus": "", "internal_node_id": "0.0-55.0-0.0", "time_elapsed": 340469, "key_press": -1, "type": "PRE_RECALL_DELAY", "trial_index": 73}, "uniqueid": "MTK1846:3JBT3HLQF99466VMUDRMHVOZW61ZP8", "dateTime": 1516477906431}, {"current_trial": 74, "trialdata": {"rt": -1000, "trial_type": "single-audio", "stimulus": "/static/audio/400Hz.wav", "internal_node_id": "0.0-56.0", "time_elapsed": 340970, "key_press": -1, "type": "PRE_RECALL_ALERT", "trial_index": 74}, "uniqueid": "MTK1846:3JBT3HLQF99466VMUDRMHVOZW61ZP8", "dateTime": 1516477906932}, {"current_trial": 75, "trialdata": {"rt": [1489, 2741, 4572, 6196, 8713, 9625, 10321, 12616, 16104, 17144, 18521, 27767, 53659], "recwords": ["racket", "fleet", "panther", "tuba", "space", "parrot", "rust", "ghetto", "agent", "patrol", "brick", "bouquet", "camel"], "key_times": [545, 737, 941, 1037, 1133, 1305, 1489, 1713, 1821, 1973, 2113, 2353, 2741, 3297, 3497, 3629, 3777, 3893, 4016, 4161, 4572, 5496, 5564, 5648, 5860, 6196, 8101, 8205, 8285, 8469, 8625, 8713, 8933, 9017, 9189, 9321, 9405, 9485, 9625, 9777, 9905, 9997, 10169, 10321, 11157, 11353, 11453, 11617, 11737, 11777, 12616, 15428, 15632, 15796, 15864, 15965, 16104, 16320, 16436, 16609, 16753, 16812, 16968, 17144, 17404, 17712, 17813, 17985, 18065, 18184, 18269, 18521, 25948, 26056, 26128, 26364, 26976, 27104, 27304, 27767, 52931, 53155, 53231, 53375, 53443, 53659], "trial_type": "free-recall", "conditions": [18, 1200, "a", 18000], "internal_node_id": "0.0-57.0-0.0", "key_presses": [82, 65, 67, 75, 69, 84, 13, 70, 76, 69, 69, 84, 13, 80, 65, 78, 84, 72, 69, 82, 13, 84, 85, 66, 65, 13, 83, 80, 65, 67, 69, 13, 80, 65, 82, 82, 79, 84, 13, 82, 85, 83, 84, 13, 71, 72, 69, 84, 84, 79, 13, 65, 71, 69, 78, 84, 13, 80, 65, 84, 82, 79, 76, 13, 80, 8, 66, 82, 73, 67, 75, 13, 66, 79, 85, 81, 85, 69, 84, 13, 67, 65, 77, 69, 76, 13], "trial": 1, "time_elapsed": 400972, "type": "FREE_RECALL", "trial_index": 75}, "uniqueid": "MTK1846:3JBT3HLQF99466VMUDRMHVOZW61ZP8", "dateTime": 1516477966935}, {"current_trial": 76, "trialdata": {"rt": 13194, "trial_type": "text", "internal_node_id": "0.0-58.0", "time_elapsed": 416169, "key_press": 38, "type": "INSTRUCTIONS", "trial_index": 76}, "uniqueid": "MTK1846:3JBT3HLQF99466VMUDRMHVOZW61ZP8", "dateTime": 1516477982131}, {"current_trial": 77, "trialdata": {"rt": [3066, 6557, 8277, 10454], "trial_type": "math-distractor", "key_times": [2698, 3066, 6194, 6266, 6557, 7945, 8057, 8277, 10170, 10230, 10454], "responses": ["6", "16", "18", "18"], "num2": [2, 8, 9, 3, 6], "num3": [1, 1, 5, 9, 9], "conditions": [24, 1600, "a", 12000], "internal_node_id": "0.0-59.0", "key_presses": [102, 13, 97, 102, 13, 97, 104, 13, 97, 104, 13], "trial": 2, "time_elapsed": 429172, "type": "DISTRACTOR", "trial_index": 77, "num1": [3, 7, 4, 6, 9]}, "uniqueid": "MTK1846:3JBT3HLQF99466VMUDRMHVOZW61ZP8", "dateTime": 1516477995134}, {"current_trial": 78, "trialdata": {"rt": -1, "trial_type": "single-stim", "stimulus": "<p id=\"stim\">10</p>", "internal_node_id": "0.0-60.0-0.0", "time_elapsed": 432173, "key_press": -1, "trial_index": 78}, "uniqueid": "MTK1846:3JBT3HLQF99466VMUDRMHVOZW61ZP8", "dateTime": 1516477998135}, {"current_trial": 79, "trialdata": {"rt": 51, "trial_type": "single-stim", "stimulus": "<p id=\"stim\">9</p>", "internal_node_id": "0.0-60.0-1.0", "time_elapsed": 433174, "key_press": 98, "trial_index": 79}, "uniqueid": "MTK1846:3JBT3HLQF99466VMUDRMHVOZW61ZP8", "dateTime": 1516477999136}, {"current_trial": 80, "trialdata": {"rt": -1, "trial_type": "single-stim", "stimulus": "<p id=\"stim\">8</p>", "internal_node_id": "0.0-60.0-2.0", "time_elapsed": 434175, "key_press": -1, "trial_index": 80}, "uniqueid": "MTK1846:3JBT3HLQF99466VMUDRMHVOZW61ZP8", "dateTime": 1516478000137}, {"current_trial": 81, "trialdata": {"rt": -1, "trial_type": "single-stim", "stimulus": "<p id=\"stim\">7</p>", "internal_node_id": "0.0-60.0-3.0", "time_elapsed": 435176, "key_press": -1, "trial_index": 81}, "uniqueid": "MTK1846:3JBT3HLQF99466VMUDRMHVOZW61ZP8", "dateTime": 1516478001138}, {"current_trial": 82, "trialdata": {"rt": -1, "trial_type": "single-stim", "stimulus": "<p id=\"stim\">6</p>", "internal_node_id": "0.0-60.0-4.0", "time_elapsed": 436177, "key_press": -1, "trial_index": 82}, "uniqueid": "MTK1846:3JBT3HLQF99466VMUDRMHVOZW61ZP8", "dateTime": 1516478002139}, {"current_trial": 83, "trialdata": {"rt": -1, "trial_type": "single-stim", "stimulus": "<p id=\"stim\">5</p>", "internal_node_id": "0.0-60.0-5.0", "time_elapsed": 437178, "key_press": -1, "trial_index": 83}, "uniqueid": "MTK1846:3JBT3HLQF99466VMUDRMHVOZW61ZP8", "dateTime": 1516478003140}, {"current_trial": 84, "trialdata": {"rt": -1, "trial_type": "single-stim", "stimulus": "<p id=\"stim\">4</p>", "internal_node_id": "0.0-60.0-6.0", "time_elapsed": 438179, "key_press": -1, "trial_index": 84}, "uniqueid": "MTK1846:3JBT3HLQF99466VMUDRMHVOZW61ZP8", "dateTime": 1516478004141}, {"current_trial": 85, "trialdata": {"rt": -1, "trial_type": "single-stim", "stimulus": "<p id=\"stim\">3</p>", "internal_node_id": "0.0-60.0-7.0", "time_elapsed": 439180, "key_press": -1, "trial_index": 85}, "uniqueid": "MTK1846:3JBT3HLQF99466VMUDRMHVOZW61ZP8", "dateTime": 1516478005142}, {"current_trial": 86, "trialdata": {"rt": -1, "trial_type": "single-stim", "stimulus": "<p id=\"stim\">2</p>", "internal_node_id": "0.0-60.0-8.0", "time_elapsed": 440181, "key_press": -1, "trial_index": 86}, "uniqueid": "MTK1846:3JBT3HLQF99466VMUDRMHVOZW61ZP8", "dateTime": 1516478006143}, {"current_trial": 87, "trialdata": {"rt": -1, "trial_type": "single-stim", "stimulus": "<p id=\"stim\">1</p>", "internal_node_id": "0.0-60.0-9.0", "time_elapsed": 441182, "key_press": -1, "trial_index": 87}, "uniqueid": "MTK1846:3JBT3HLQF99466VMUDRMHVOZW61ZP8", "dateTime": 1516478007145}, {"current_trial": 88, "trialdata": {"rt": -1, "trial_type": "single-stim", "stimulus": "<p id=\"stim\">+</p>", "internal_node_id": "0.0-61.0-0.0", "time_elapsed": 442683, "key_press": -1, "type": "FIXATION", "trial_index": 88}, "uniqueid": "MTK1846:3JBT3HLQF99466VMUDRMHVOZW61ZP8", "dateTime": 1516478008646}, {"current_trial": 89, "trialdata": {"rt": -1000, "trial_type": "single-audio", "word": "dresser", "stimulus": "/static/audio/wordpool/DRESSER.wav", "conditions": [24, 1600, "a", 12000], "internal_node_id": "0.0-62.0", "trial": 2, "time_elapsed": 445264, "serialpos": 0, "key_press": -1, "wordID": 495, "type": "PRES_AUD", "trial_index": 89}, "uniqueid": "MTK1846:3JBT3HLQF99466VMUDRMHVOZW61ZP8", "dateTime": 1516478011226}, {"current_trial": 90, "trialdata": {"rt": -1000, "trial_type": "single-audio", "word": "missile", "stimulus": "/static/audio/wordpool/MISSILE.wav", "conditions": [24, 1600, "a", 12000], "internal_node_id": "0.0-63.0", "trial": 2, "time_elapsed": 447773, "serialpos": 1, "key_press": -1, "wordID": 899, "type": "PRES_AUD", "trial_index": 90}, "uniqueid": "MTK1846:3JBT3HLQF99466VMUDRMHVOZW61ZP8", "dateTime": 1516478013735}, {"current_trial": 91, "trialdata": {"rt": -1000, "trial_type": "single-audio", "word": "rocket", "stimulus": "/static/audio/wordpool/ROCKET.wav", "conditions": [24, 1600, "a", 12000], "internal_node_id": "0.0-64.0", "trial": 2, "time_elapsed": 450207, "serialpos": 2, "key_press": -1, "wordID": 1201, "type": "PRES_AUD", "trial_index": 91}, "uniqueid": "MTK1846:3JBT3HLQF99466VMUDRMHVOZW61ZP8", "dateTime": 1516478016169}, {"current_trial": 92, "trialdata": {"rt": -1000, "trial_type": "single-audio", "word": "zipper", "stimulus": "/static/audio/wordpool/ZIPPER.wav", "conditions": [24, 1600, "a", 12000], "internal_node_id": "0.0-65.0", "trial": 2, "time_elapsed": 452867, "serialpos": 3, "key_press": -1, "wordID": 1635, "type": "PRES_AUD", "trial_index": 92}, "uniqueid": "MTK1846:3JBT3HLQF99466VMUDRMHVOZW61ZP8", "dateTime": 1516478018829}, {"current_trial": 93, "trialdata": {"rt": -1000, "trial_type": "single-audio", "word": "cupboard", "stimulus": "/static/audio/wordpool/CUPBOARD.wav", "conditions": [24, 1600, "a", 12000], "internal_node_id": "0.0-66.0", "trial": 2, "time_elapsed": 455579, "serialpos": 4, "key_press": -1, "wordID": 424, "type": "PRES_AUD", "trial_index": 93}, "uniqueid": "MTK1846:3JBT3HLQF99466VMUDRMHVOZW61ZP8", "dateTime": 1516478021541}, {"current_trial": 94, "trialdata": {"rt": -1000, "trial_type": "single-audio", "word": "mummy", "stimulus": "/static/audio/wordpool/MUMMY.wav", "conditions": [24, 1600, "a", 12000], "internal_node_id": "0.0-67.0", "trial": 2, "time_elapsed": 458219, "serialpos": 5, "key_press": -1, "wordID": 931, "type": "PRES_AUD", "trial_index": 94}, "uniqueid": "MTK1846:3JBT3HLQF99466VMUDRMHVOZW61ZP8", "dateTime": 1516478024181}, {"current_trial": 95, "trialdata": {"rt": -1000, "trial_type": "single-audio", "word": "possum", "stimulus": "/static/audio/wordpool/POSSUM.wav", "conditions": [24, 1600, "a", 12000], "internal_node_id": "0.0-68.0", "trial": 2, "time_elapsed": 460760, "serialpos": 6, "key_press": -1, "wordID": 1111, "type": "PRES_AUD", "trial_index": 95}, "uniqueid": "MTK1846:3JBT3HLQF99466VMUDRMHVOZW61ZP8", "dateTime": 1516478026722}, {"current_trial": 96, "trialdata": {"rt": -1000, "trial_type": "single-audio", "word": "perch", "stimulus": "/static/audio/wordpool/PERCH.wav", "conditions": [24, 1600, "a", 12000], "internal_node_id": "0.0-69.0", "trial": 2, "time_elapsed": 463219, "serialpos": 7, "key_press": -1, "wordID": 1047, "type": "PRES_AUD", "trial_index": 96}, "uniqueid": "MTK1846:3JBT3HLQF99466VMUDRMHVOZW61ZP8", "dateTime": 1516478029181}, {"current_trial": 97, "trialdata": {"rt": -1000, "trial_type": "single-audio", "word": "shelf", "stimulus": "/static/audio/wordpool/SHELF.wav", "conditions": [24, 1600, "a", 12000], "internal_node_id": "0.0-70.0", "trial": 2, "time_elapsed": 465672, "serialpos": 8, "key_press": -1, "wordID": 1279, "type": "PRES_AUD", "trial_index": 97}, "uniqueid": "MTK1846:3JBT3HLQF99466VMUDRMHVOZW61ZP8", "dateTime": 1516478031634}, {"current_trial": 98, "trialdata": {"rt": -1000, "trial_type": "single-audio", "word": "crevice", "stimulus": "/static/audio/wordpool/CREVICE.wav", "conditions": [24, 1600, "a", 12000], "internal_node_id": "0.0-71.0", "trial": 2, "time_elapsed": 468435, "serialpos": 9, "key_press": -1, "wordID": 404, "type": "PRES_AUD", "trial_index": 98}, "uniqueid": "MTK1846:3JBT3HLQF99466VMUDRMHVOZW61ZP8", "dateTime": 1516478034397}, {"current_trial": 99, "trialdata": {"rt": -1000, "trial_type": "single-audio", "word": "match", "stimulus": "/static/audio/wordpool/MATCH.wav", "conditions": [24, 1600, "a", 12000], "internal_node_id": "0.0-72.0", "trial": 2, "time_elapsed": 471093, "serialpos": 10, "key_press": -1, "wordID": 877, "type": "PRES_AUD", "trial_index": 99}, "uniqueid": "MTK1846:3JBT3HLQF99466VMUDRMHVOZW61ZP8", "dateTime": 1516478037055}, {"current_trial": 100, "trialdata": {"rt": -1000, "trial_type": "single-audio", "word": "blade", "stimulus": "/static/audio/wordpool/BLADE.wav", "conditions": [24, 1600, "a", 12000], "internal_node_id": "0.0-73.0", "trial": 2, "time_elapsed": 473576, "serialpos": 11, "key_press": -1, "wordID": 133, "type": "PRES_AUD", "trial_index": 100}, "uniqueid": "MTK1846:3JBT3HLQF99466VMUDRMHVOZW61ZP8", "dateTime": 1516478039538}, {"current_trial": 101, "trialdata": {"rt": -1000, "trial_type": "single-audio", "word": "truck", "stimulus": "/static/audio/wordpool/TRUCK.wav", "conditions": [24, 1600, "a", 12000], "internal_node_id": "0.0-74.0", "trial": 2, "time_elapsed": 476107, "serialpos": 12, "key_press": -1, "wordID": 1511, "type": "PRES_AUD", "trial_index": 101}, "uniqueid": "MTK1846:3JBT3HLQF99466VMUDRMHVOZW61ZP8", "dateTime": 1516478042069}, {"current_trial": 102, "trialdata": {"rt": -1000, "trial_type": "single-audio", "word": "grave", "stimulus": "/static/audio/wordpool/GRAVE.wav", "conditions": [24, 1600, "a", 12000], "internal_node_id": "0.0-75.0", "trial": 2, "time_elapsed": 478887, "serialpos": 13, "key_press": -1, "wordID": 657, "type": "PRES_AUD", "trial_index": 102}, "uniqueid": "MTK1846:3JBT3HLQF99466VMUDRMHVOZW61ZP8", "dateTime": 1516478044849}, {"current_trial": 103, "trialdata": {"rt": -1000, "trial_type": "single-audio", "word": "wife", "stimulus": "/static/audio/wordpool/WIFE.wav", "conditions": [24, 1600, "a", 12000], "internal_node_id": "0.0-76.0", "trial": 2, "time_elapsed": 481462, "serialpos": 14, "key_press": -1, "wordID": 1608, "type": "PRES_AUD", "trial_index": 103}, "uniqueid": "MTK1846:3JBT3HLQF99466VMUDRMHVOZW61ZP8", "dateTime": 1516478047424}, {"current_trial": 104, "trialdata": {"rt": -1000, "trial_type": "single-audio", "word": "grill", "stimulus": "/static/audio/wordpool/GRILL.wav", "conditions": [24, 1600, "a", 12000], "internal_node_id": "0.0-77.0", "trial": 2, "time_elapsed": 483992, "serialpos": 15, "key_press": -1, "wordID": 660, "type": "PRES_AUD", "trial_index": 104}, "uniqueid": "MTK1846:3JBT3HLQF99466VMUDRMHVOZW61ZP8", "dateTime": 1516478049954}, {"current_trial": 105, "trialdata": {"rt": -1000, "trial_type": "single-audio", "word": "lightning", "stimulus": "/static/audio/wordpool/LIGHTNING.wav", "conditions": [24, 1600, "a", 12000], "internal_node_id": "0.0-78.0", "trial": 2, "time_elapsed": 486479, "serialpos": 16, "key_press": -1, "wordID": 819, "type": "PRES_AUD", "trial_index": 105}, "uniqueid": "MTK1846:3JBT3HLQF99466VMUDRMHVOZW61ZP8", "dateTime": 1516478052442}, {"current_trial": 106, "trialdata": {"rt": -1000, "trial_type": "single-audio", "word": "country", "stimulus": "/static/audio/wordpool/COUNTRY.wav", "conditions": [24, 1600, "a", 12000], "internal_node_id": "0.0-79.0", "trial": 2, "time_elapsed": 489015, "serialpos": 17, "key_press": -1, "wordID": 387, "type": "PRES_AUD", "trial_index": 106}, "uniqueid": "MTK1846:3JBT3HLQF99466VMUDRMHVOZW61ZP8", "dateTime": 1516478054977}, {"current_trial": 107, "trialdata": {"rt": -1000, "trial_type": "single-audio", "word": "cashew", "stimulus": "/static/audio/wordpool/CASHEW.wav", "conditions": [24, 1600, "a", 12000], "internal_node_id": "0.0-80.0", "trial": 2, "time_elapsed": 491604, "serialpos": 18, "key_press": -1, "wordID": 252, "type": "PRES_AUD", "trial_index": 107}, "uniqueid": "MTK1846:3JBT3HLQF99466VMUDRMHVOZW61ZP8", "dateTime": 1516478057566}, {"current_trial": 108, "trialdata": {"rt": -1000, "trial_type": "single-audio", "word": "driver", "stimulus": "/static/audio/wordpool/DRIVER.wav", "conditions": [24, 1600, "a", 12000], "internal_node_id": "0.0-81.0", "trial": 2, "time_elapsed": 494311, "serialpos": 19, "key_press": -1, "wordID": 498, "type": "PRES_AUD", "trial_index": 108}, "uniqueid": "MTK1846:3JBT3HLQF99466VMUDRMHVOZW61ZP8", "dateTime": 1516478060273}, {"current_trial": 109, "trialdata": {"rt": -1000, "trial_type": "single-audio", "word": "fox", "stimulus": "/static/audio/wordpool/FOX.wav", "conditions": [24, 1600, "a", 12000], "internal_node_id": "0.0-82.0", "trial": 2, "time_elapsed": 496762, "serialpos": 20, "key_press": -1, "wordID": 597, "type": "PRES_AUD", "trial_index": 109}, "uniqueid": "MTK1846:3JBT3HLQF99466VMUDRMHVOZW61ZP8", "dateTime": 1516478062724}, {"current_trial": 110, "trialdata": {"rt": -1000, "trial_type": "single-audio", "word": "rooster", "stimulus": "/static/audio/wordpool/ROOSTER.wav", "conditions": [24, 1600, "a", 12000], "internal_node_id": "0.0-83.0", "trial": 2, "time_elapsed": 499464, "serialpos": 21, "key_press": -1, "wordID": 1208, "type": "PRES_AUD", "trial_index": 110}, "uniqueid": "MTK1846:3JBT3HLQF99466VMUDRMHVOZW61ZP8", "dateTime": 1516478065426}, {"current_trial": 111, "trialdata": {"rt": -1000, "trial_type": "single-audio", "word": "scribble", "stimulus": "/static/audio/wordpool/SCRIBBLE.wav", "conditions": [24, 1600, "a", 12000], "internal_node_id": "0.0-84.0", "trial": 2, "time_elapsed": 502168, "serialpos": 22, "key_press": -1, "wordID": 1255, "type": "PRES_AUD", "trial_index": 111}, "uniqueid": "MTK1846:3JBT3HLQF99466VMUDRMHVOZW61ZP8", "dateTime": 1516478068130}, {"current_trial": 112, "trialdata": {"rt": -1000, "trial_type": "single-audio", "word": "pasta", "stimulus": "/static/audio/wordpool/PASTA.wav", "conditions": [24, 1600, "a", 12000], "internal_node_id": "0.0-85.0", "trial": 2, "time_elapsed": 504840, "serialpos": 23, "key_press": -1, "wordID": 1020, "type": "PRES_AUD", "trial_index": 112}, "uniqueid": "MTK1846:3JBT3HLQF99466VMUDRMHVOZW61ZP8", "dateTime": 1516478070803}, {"current_trial": 113, "trialdata": {"rt": -1, "trial_type": "single-stim", "stimulus": "", "internal_node_id": "0.0-86.0-0.0", "time_elapsed": 506086, "key_press": -1, "type": "PRE_RECALL_DELAY", "trial_index": 113}, "uniqueid": "MTK1846:3JBT3HLQF99466VMUDRMHVOZW61ZP8", "dateTime": 1516478072049}, {"current_trial": 114, "trialdata": {"rt": -1000, "trial_type": "single-audio", "stimulus": "/static/audio/400Hz.wav", "internal_node_id": "0.0-87.0", "time_elapsed": 506588, "key_press": -1, "type": "PRE_RECALL_ALERT", "trial_index": 114}, "uniqueid": "MTK1846:3JBT3HLQF99466VMUDRMHVOZW61ZP8", "dateTime": 1516478072550}, {"current_trial": 115, "trialdata": {"rt": [1901, 3452, 4840, 6056, 7748, 9378, 10681, 12760, 13904, 16264, 21552, 34987, 42094, 49139], "recwords": ["scribble", "pasta", "mummy", "grave", "truck", "crevice", "dresser", "missle", "rocket", "zipper", "grill", "truck", "eagle", "driver"], "key_times": [373, 589, 773, 885, 1037, 1189, 1277, 1429, 1901, 2197, 2309, 2489, 2681, 2908, 3452, 3844, 4084, 4256, 4432, 4544, 4840, 5124, 5284, 5508, 5752, 5944, 6056, 6312, 6504, 6648, 6788, 6916, 7748, 7980, 8164, 8316, 8504, 8604, 8720, 8896, 9378, 9568, 9728, 9888, 10065, 10212, 10361, 10513, 10681, 11088, 11173, 11288, 11576, 11744, 11884, 12060, 12160, 12224, 12380, 12432, 12564, 12760, 13228, 13300, 13432, 13492, 13596, 13760, 13904, 15552, 15740, 15784, 15960, 16016, 16156, 16264, 20863, 21024, 21079, 21143, 21304, 21552, 33892, 34044, 34171, 34272, 34415, 34987, 41263, 41443, 41695, 41787, 41891, 42094, 48199, 48383, 48523, 48615, 48799, 48943, 49139], "trial_type": "free-recall", "conditions": [24, 1600, "a", 12000], "internal_node_id": "0.0-88.0-0.0", "key_presses": [83, 67, 82, 73, 66, 66, 76, 69, 13, 80, 65, 83, 84, 65, 13, 77, 85, 77, 77, 89, 13, 71, 82, 65, 86, 69, 13, 84, 82, 85, 67, 75, 13, 67, 82, 69, 86, 73, 67, 69, 13, 68, 82, 69, 83, 83, 69, 82, 13, 82, 79, 67, 8, 8, 8, 77, 73, 83, 83, 76, 69, 13, 82, 79, 67, 75, 69, 84, 13, 90, 73, 80, 80, 69, 82, 13, 71, 82, 73, 76, 76, 13, 84, 82, 85, 67, 75, 13, 69, 65, 71, 76, 69, 13, 68, 82, 73, 86, 69, 82, 13], "trial": 2, "time_elapsed": 566590, "type": "FREE_RECALL", "trial_index": 115}, "uniqueid": "MTK1846:3JBT3HLQF99466VMUDRMHVOZW61ZP8", "dateTime": 1516478132553}, {"current_trial": 116, "trialdata": {"rt": 1455, "trial_type": "text", "internal_node_id": "0.0-89.0", "time_elapsed": 570047, "key_press": 13, "type": "INSTRUCTIONS", "trial_index": 116}, "uniqueid": "MTK1846:3JBT3HLQF99466VMUDRMHVOZW61ZP8", "dateTime": 1516478136009}, {"current_trial": 117, "trialdata": {"rt": [5522, 8229, 10345], "trial_type": "math-distractor", "key_times": [5246, 5418, 5522, 7869, 8066, 8229, 10145, 10201, 10345], "responses": ["14", "17", "13"], "num2": [7, 4, 6, 5], "num3": [3, 5, 6, 4], "conditions": [24, 1600, "a", 12000], "internal_node_id": "0.0-90.0", "key_presses": [97, 100, 13, 97, 103, 13, 97, 99, 13], "trial": 3, "time_elapsed": 584050, "type": "DISTRACTOR", "trial_index": 117, "num1": [4, 8, 1, 4]}, "uniqueid": "MTK1846:3JBT3HLQF99466VMUDRMHVOZW61ZP8", "dateTime": 1516478150012}, {"current_trial": 118, "trialdata": {"rt": -1, "trial_type": "single-stim", "stimulus": "<p id=\"stim\">10</p>", "internal_node_id": "0.0-91.0-0.0", "time_elapsed": 587050, "key_press": -1, "trial_index": 118}, "uniqueid": "MTK1846:3JBT3HLQF99466VMUDRMHVOZW61ZP8", "dateTime": 1516478153013}, {"current_trial": 119, "trialdata": {"rt": -1, "trial_type": "single-stim", "stimulus": "<p id=\"stim\">9</p>", "internal_node_id": "0.0-91.0-1.0", "time_elapsed": 588051, "key_press": -1, "trial_index": 119}, "uniqueid": "MTK1846:3JBT3HLQF99466VMUDRMHVOZW61ZP8", "dateTime": 1516478154014}, {"current_trial": 120, "trialdata": {"rt": -1, "trial_type": "single-stim", "stimulus": "<p id=\"stim\">8</p>", "internal_node_id": "0.0-91.0-2.0", "time_elapsed": 589053, "key_press": -1, "trial_index": 120}, "uniqueid": "MTK1846:3JBT3HLQF99466VMUDRMHVOZW61ZP8", "dateTime": 1516478155015}, {"current_trial": 121, "trialdata": {"rt": -1, "trial_type": "single-stim", "stimulus": "<p id=\"stim\">7</p>", "internal_node_id": "0.0-91.0-3.0", "time_elapsed": 590053, "key_press": -1, "trial_index": 121}, "uniqueid": "MTK1846:3JBT3HLQF99466VMUDRMHVOZW61ZP8", "dateTime": 1516478156016}, {"current_trial": 122, "trialdata": {"rt": -1, "trial_type": "single-stim", "stimulus": "<p id=\"stim\">6</p>", "internal_node_id": "0.0-91.0-4.0", "time_elapsed": 591055, "key_press": -1, "trial_index": 122}, "uniqueid": "MTK1846:3JBT3HLQF99466VMUDRMHVOZW61ZP8", "dateTime": 1516478157017}, {"current_trial": 123, "trialdata": {"rt": -1, "trial_type": "single-stim", "stimulus": "<p id=\"stim\">5</p>", "internal_node_id": "0.0-91.0-5.0", "time_elapsed": 592056, "key_press": -1, "trial_index": 123}, "uniqueid": "MTK1846:3JBT3HLQF99466VMUDRMHVOZW61ZP8", "dateTime": 1516478158018}, {"current_trial": 124, "trialdata": {"rt": -1, "trial_type": "single-stim", "stimulus": "<p id=\"stim\">4</p>", "internal_node_id": "0.0-91.0-6.0", "time_elapsed": 593057, "key_press": -1, "trial_index": 124}, "uniqueid": "MTK1846:3JBT3HLQF99466VMUDRMHVOZW61ZP8", "dateTime": 1516478159019}, {"current_trial": 125, "trialdata": {"rt": -1, "trial_type": "single-stim", "stimulus": "<p id=\"stim\">3</p>", "internal_node_id": "0.0-91.0-7.0", "time_elapsed": 594058, "key_press": -1, "trial_index": 125}, "uniqueid": "MTK1846:3JBT3HLQF99466VMUDRMHVOZW61ZP8", "dateTime": 1516478160020}, {"current_trial": 126, "trialdata": {"rt": -1, "trial_type": "single-stim", "stimulus": "<p id=\"stim\">2</p>", "internal_node_id": "0.0-91.0-8.0", "time_elapsed": 595059, "key_press": -1, "trial_index": 126}, "uniqueid": "MTK1846:3JBT3HLQF99466VMUDRMHVOZW61ZP8", "dateTime": 1516478161021}, {"current_trial": 127, "trialdata": {"rt": -1, "trial_type": "single-stim", "stimulus": "<p id=\"stim\">1</p>", "internal_node_id": "0.0-91.0-9.0", "time_elapsed": 596060, "key_press": -1, "trial_index": 127}, "uniqueid": "MTK1846:3JBT3HLQF99466VMUDRMHVOZW61ZP8", "dateTime": 1516478162022}, {"current_trial": 128, "trialdata": {"rt": -1, "trial_type": "single-stim", "stimulus": "<p id=\"stim\">+</p>", "internal_node_id": "0.0-92.0-0.0", "time_elapsed": 597561, "key_press": -1, "type": "FIXATION", "trial_index": 128}, "uniqueid": "MTK1846:3JBT3HLQF99466VMUDRMHVOZW61ZP8", "dateTime": 1516478163523}, {"current_trial": 129, "trialdata": {"rt": -1000, "trial_type": "single-audio", "word": "canal", "stimulus": "/static/audio/wordpool/CANAL.wav", "conditions": [24, 1600, "a", 12000], "internal_node_id": "0.0-93.0", "trial": 3, "time_elapsed": 600117, "serialpos": 0, "key_press": -1, "wordID": 225, "type": "PRES_AUD", "trial_index": 129}, "uniqueid": "MTK1846:3JBT3HLQF99466VMUDRMHVOZW61ZP8", "dateTime": 1516478166079}, {"current_trial": 130, "trialdata": {"rt": -1000, "trial_type": "single-audio", "word": "rod", "stimulus": "/static/audio/wordpool/ROD.wav", "conditions": [24, 1600, "a", 12000], "internal_node_id": "0.0-94.0", "trial": 3, "time_elapsed": 602792, "serialpos": 1, "key_press": -1, "wordID": 1202, "type": "PRES_AUD", "trial_index": 130}, "uniqueid": "MTK1846:3JBT3HLQF99466VMUDRMHVOZW61ZP8", "dateTime": 1516478168754}, {"current_trial": 131, "trialdata": {"rt": -1000, "trial_type": "single-audio", "word": "gavel", "stimulus": "/static/audio/wordpool/GAVEL.wav", "conditions": [24, 1600, "a", 12000], "internal_node_id": "0.0-95.0", "trial": 3, "time_elapsed": 605502, "serialpos": 2, "key_press": -1, "wordID": 626, "type": "PRES_AUD", "trial_index": 131}, "uniqueid": "MTK1846:3JBT3HLQF99466VMUDRMHVOZW61ZP8", "dateTime": 1516478171464}, {"current_trial": 132, "trialdata": {"rt": -1000, "trial_type": "single-audio", "word": "lagoon", "stimulus": "/static/audio/wordpool/LAGOON.wav", "conditions": [24, 1600, "a", 12000], "internal_node_id": "0.0-96.0", "trial": 3, "time_elapsed": 608028, "serialpos": 3, "key_press": -1, "wordID": 794, "type": "PRES_AUD", "trial_index": 132}, "uniqueid": "MTK1846:3JBT3HLQF99466VMUDRMHVOZW61ZP8", "dateTime": 1516478173990}, {"current_trial": 133, "trialdata": {"rt": -1000, "trial_type": "single-audio", "word": "piano", "stimulus": "/static/audio/wordpool/PIANO.wav", "conditions": [24, 1600, "a", 12000], "internal_node_id": "0.0-97.0", "trial": 3, "time_elapsed": 610583, "serialpos": 4, "key_press": -1, "wordID": 1056, "type": "PRES_AUD", "trial_index": 133}, "uniqueid": "MTK1846:3JBT3HLQF99466VMUDRMHVOZW61ZP8", "dateTime": 1516478176545}, {"current_trial": 134, "trialdata": {"rt": -1000, "trial_type": "single-audio", "word": "tombstone", "stimulus": "/static/audio/wordpool/TOMBSTONE.wav", "conditions": [24, 1600, "a", 12000], "internal_node_id": "0.0-98.0", "trial": 3, "time_elapsed": 613265, "serialpos": 5, "key_press": -1, "wordID": 1477, "type": "PRES_AUD", "trial_index": 134}, "uniqueid": "MTK1846:3JBT3HLQF99466VMUDRMHVOZW61ZP8", "dateTime": 1516478179227}, {"current_trial": 135, "trialdata": {"rt": -1000, "trial_type": "single-audio", "word": "casket", "stimulus": "/static/audio/wordpool/CASKET.wav", "conditions": [24, 1600, "a", 12000], "internal_node_id": "0.0-99.0", "trial": 3, "time_elapsed": 615901, "serialpos": 6, "key_press": -1, "wordID": 254, "type": "PRES_AUD", "trial_index": 135}, "uniqueid": "MTK1846:3JBT3HLQF99466VMUDRMHVOZW61ZP8", "dateTime": 1516478181863}, {"current_trial": 136, "trialdata": {"rt": -1000, "trial_type": "single-audio", "word": "eagle", "stimulus": "/static/audio/wordpool/EAGLE.wav", "conditions": [24, 1600, "a", 12000], "internal_node_id": "0.0-100.0", "trial": 3, "time_elapsed": 618446, "serialpos": 7, "key_press": -1, "wordID": 511, "type": "PRES_AUD", "trial_index": 136}, "uniqueid": "MTK1846:3JBT3HLQF99466VMUDRMHVOZW61ZP8", "dateTime": 1516478184408}, {"current_trial": 137, "trialdata": {"rt": -1000, "trial_type": "single-audio", "word": "drawing", "stimulus": "/static/audio/wordpool/DRAWING.wav", "conditions": [24, 1600, "a", 12000], "internal_node_id": "0.0-101.0", "trial": 3, "time_elapsed": 621034, "serialpos": 8, "key_press": -1, "wordID": 493, "type": "PRES_AUD", "trial_index": 137}, "uniqueid": "MTK1846:3JBT3HLQF99466VMUDRMHVOZW61ZP8", "dateTime": 1516478186996}, {"current_trial": 138, "trialdata": {"rt": -1000, "trial_type": "single-audio", "word": "napkin", "stimulus": "/static/audio/wordpool/NAPKIN.wav", "conditions": [24, 1600, "a", 12000], "internal_node_id": "0.0-102.0", "trial": 3, "time_elapsed": 623552, "serialpos": 9, "key_press": -1, "wordID": 936, "type": "PRES_AUD", "trial_index": 138}, "uniqueid": "MTK1846:3JBT3HLQF99466VMUDRMHVOZW61ZP8", "dateTime": 1516478189514}, {"current_trial": 139, "trialdata": {"rt": -1000, "trial_type": "single-audio", "word": "lace", "stimulus": "/static/audio/wordpool/LACE.wav", "conditions": [24, 1600, "a", 12000], "internal_node_id": "0.0-103.0", "trial": 3, "time_elapsed": 626076, "serialpos": 10, "key_press": -1, "wordID": 791, "type": "PRES_AUD", "trial_index": 139}, "uniqueid": "MTK1846:3JBT3HLQF99466VMUDRMHVOZW61ZP8", "dateTime": 1516478192038}, {"current_trial": 140, "trialdata": {"rt": -1000, "trial_type": "single-audio", "word": "blackboard", "stimulus": "/static/audio/wordpool/BLACKBOARD.wav", "conditions": [24, 1600, "a", 12000], "internal_node_id": "0.0-104.0", "trial": 3, "time_elapsed": 628549, "serialpos": 11, "key_press": -1, "wordID": 132, "type": "PRES_AUD", "trial_index": 140}, "uniqueid": "MTK1846:3JBT3HLQF99466VMUDRMHVOZW61ZP8", "dateTime": 1516478194512}, {"current_trial": 141, "trialdata": {"rt": -1000, "trial_type": "single-audio", "word": "flesh", "stimulus": "/static/audio/wordpool/FLESH.wav", "conditions": [24, 1600, "a", 12000], "internal_node_id": "0.0-105.0", "trial": 3, "time_elapsed": 631006, "serialpos": 12, "key_press": -1, "wordID": 578, "type": "PRES_AUD", "trial_index": 141}, "uniqueid": "MTK1846:3JBT3HLQF99466VMUDRMHVOZW61ZP8", "dateTime": 1516478196968}, {"current_trial": 142, "trialdata": {"rt": -1000, "trial_type": "single-audio", "word": "sticker", "stimulus": "/static/audio/wordpool/STICKER.wav", "conditions": [24, 1600, "a", 12000], "internal_node_id": "0.0-106.0", "trial": 3, "time_elapsed": 633506, "serialpos": 13, "key_press": -1, "wordID": 1381, "type": "PRES_AUD", "trial_index": 142}, "uniqueid": "MTK1846:3JBT3HLQF99466VMUDRMHVOZW61ZP8", "dateTime": 1516478199468}, {"current_trial": 143, "trialdata": {"rt": -1000, "trial_type": "single-audio", "word": "badge", "stimulus": "/static/audio/wordpool/BADGE.wav", "conditions": [24, 1600, "a", 12000], "internal_node_id": "0.0-107.0", "trial": 3, "time_elapsed": 635946, "serialpos": 14, "key_press": -1, "wordID": 67, "type": "PRES_AUD", "trial_index": 143}, "uniqueid": "MTK1846:3JBT3HLQF99466VMUDRMHVOZW61ZP8", "dateTime": 1516478201908}, {"current_trial": 144, "trialdata": {"rt": -1000, "trial_type": "single-audio", "word": "burglar", "stimulus": "/static/audio/wordpool/BURGLAR.wav", "conditions": [24, 1600, "a", 12000], "internal_node_id": "0.0-108.0", "trial": 3, "time_elapsed": 638682, "serialpos": 15, "key_press": -1, "wordID": 199, "type": "PRES_AUD", "trial_index": 144}, "uniqueid": "MTK1846:3JBT3HLQF99466VMUDRMHVOZW61ZP8", "dateTime": 1516478204644}, {"current_trial": 145, "trialdata": {"rt": -1000, "trial_type": "single-audio", "word": "typist", "stimulus": "/static/audio/wordpool/TYPIST.wav", "conditions": [24, 1600, "a", 12000], "internal_node_id": "0.0-109.0", "trial": 3, "time_elapsed": 641251, "serialpos": 16, "key_press": -1, "wordID": 1531, "type": "PRES_AUD", "trial_index": 145}, "uniqueid": "MTK1846:3JBT3HLQF99466VMUDRMHVOZW61ZP8", "dateTime": 1516478207213}, {"current_trial": 146, "trialdata": {"rt": -1000, "trial_type": "single-audio", "word": "cricket", "stimulus": "/static/audio/wordpool/CRICKET.wav", "conditions": [24, 1600, "a", 12000], "internal_node_id": "0.0-110.0", "trial": 3, "time_elapsed": 643791, "serialpos": 17, "key_press": -1, "wordID": 407, "type": "PRES_AUD", "trial_index": 146}, "uniqueid": "MTK1846:3JBT3HLQF99466VMUDRMHVOZW61ZP8", "dateTime": 1516478209753}, {"current_trial": 147, "trialdata": {"rt": -1000, "trial_type": "single-audio", "word": "liver", "stimulus": "/static/audio/wordpool/LIVER.wav", "conditions": [24, 1600, "a", 12000], "internal_node_id": "0.0-111.0", "trial": 3, "time_elapsed": 646545, "serialpos": 18, "key_press": -1, "wordID": 832, "type": "PRES_AUD", "trial_index": 147}, "uniqueid": "MTK1846:3JBT3HLQF99466VMUDRMHVOZW61ZP8", "dateTime": 1516478212507}, {"current_trial": 148, "trialdata": {"rt": -1000, "trial_type": "single-audio", "word": "dentist", "stimulus": "/static/audio/wordpool/DENTIST.wav", "conditions": [24, 1600, "a", 12000], "internal_node_id": "0.0-112.0", "trial": 3, "time_elapsed": 649145, "serialpos": 19, "key_press": -1, "wordID": 446, "type": "PRES_AUD", "trial_index": 148}, "uniqueid": "MTK1846:3JBT3HLQF99466VMUDRMHVOZW61ZP8", "dateTime": 1516478215107}, {"current_trial": 149, "trialdata": {"rt": -1000, "trial_type": "single-audio", "word": "marsh", "stimulus": "/static/audio/wordpool/MARSH.wav", "conditions": [24, 1600, "a", 12000], "internal_node_id": "0.0-113.0", "trial": 3, "time_elapsed": 651783, "serialpos": 20, "key_press": -1, "wordID": 873, "type": "PRES_AUD", "trial_index": 149}, "uniqueid": "MTK1846:3JBT3HLQF99466VMUDRMHVOZW61ZP8", "dateTime": 1516478217745}, {"current_trial": 150, "trialdata": {"rt": -1000, "trial_type": "single-audio", "word": "waitress", "stimulus": "/static/audio/wordpool/WAITRESS.wav", "conditions": [24, 1600, "a", 12000], "internal_node_id": "0.0-114.0", "trial": 3, "time_elapsed": 654371, "serialpos": 21, "key_press": -1, "wordID": 1580, "type": "PRES_AUD", "trial_index": 150}, "uniqueid": "MTK1846:3JBT3HLQF99466VMUDRMHVOZW61ZP8", "dateTime": 1516478220333}, {"current_trial": 151, "trialdata": {"rt": -1000, "trial_type": "single-audio", "word": "inmate", "stimulus": "/static/audio/wordpool/INMATE.wav", "conditions": [24, 1600, "a", 12000], "internal_node_id": "0.0-115.0", "trial": 3, "time_elapsed": 656912, "serialpos": 22, "key_press": -1, "wordID": 737, "type": "PRES_AUD", "trial_index": 151}, "uniqueid": "MTK1846:3JBT3HLQF99466VMUDRMHVOZW61ZP8", "dateTime": 1516478222874}, {"current_trial": 152, "trialdata": {"rt": -1000, "trial_type": "single-audio", "word": "river", "stimulus": "/static/audio/wordpool/RIVER.wav", "conditions": [24, 1600, "a", 12000], "internal_node_id": "0.0-116.0", "trial": 3, "time_elapsed": 659614, "serialpos": 23, "key_press": -1, "wordID": 1193, "type": "PRES_AUD", "trial_index": 152}, "uniqueid": "MTK1846:3JBT3HLQF99466VMUDRMHVOZW61ZP8", "dateTime": 1516478225576}, {"current_trial": 153, "trialdata": {"rt": -1, "trial_type": "single-stim", "stimulus": "", "internal_node_id": "0.0-117.0-0.0", "time_elapsed": 660908, "key_press": -1, "type": "PRE_RECALL_DELAY", "trial_index": 153}, "uniqueid": "MTK1846:3JBT3HLQF99466VMUDRMHVOZW61ZP8", "dateTime": 1516478226870}, {"current_trial": 154, "trialdata": {"rt": -1000, "trial_type": "single-audio", "stimulus": "/static/audio/400Hz.wav", "internal_node_id": "0.0-118.0", "time_elapsed": 661409, "key_press": -1, "type": "PRE_RECALL_ALERT", "trial_index": 154}, "uniqueid": "MTK1846:3JBT3HLQF99466VMUDRMHVOZW61ZP8", "dateTime": 1516478227371}, {"current_trial": 155, "trialdata": {"rt": [1677, 3534, 5409, 8157, 10173, 15181, 19093, 21112, 28057, 38192, 49048], "recwords": ["inmate", "river", "gravel", "piano", "waitress", "lagoon", "marsh", "eagle", "tombstone", "canal", "parrot"], "key_times": [433, 493, 701, 761, 1057, 1349, 1677, 1857, 2041, 2137, 2366, 2562, 3534, 4214, 4382, 4569, 4789, 4949, 5006, 5409, 7201, 7321, 7525, 7597, 7681, 8157, 8601, 8777, 8873, 9017, 9181, 9345, 9673, 9837, 10173, 14093, 14200, 14404, 14488, 14637, 14729, 15181, 17877, 18209, 18381, 18449, 18629, 18789, 18847, 19093, 20444, 20620, 20820, 20904, 21000, 21112, 26993, 27100, 27177, 27317, 27509, 27693, 27753, 27793, 27873, 28057, 37472, 37656, 37732, 37808, 37892, 38192, 47944, 48071, 48248, 48416, 48535, 48636, 49048], "trial_type": "free-recall", "conditions": [24, 1600, "a", 12000], "internal_node_id": "0.0-119.0-0.0", "key_presses": [73, 78, 77, 65, 84, 69, 13, 82, 73, 86, 69, 82, 13, 71, 82, 65, 86, 69, 76, 13, 80, 73, 65, 78, 79, 13, 87, 65, 73, 84, 82, 69, 83, 83, 13, 76, 65, 71, 79, 79, 78, 13, 65, 8, 77, 65, 82, 83, 72, 13, 69, 65, 71, 76, 69, 13, 84, 79, 77, 66, 83, 84, 79, 78, 69, 13, 67, 65, 78, 65, 76, 13, 80, 65, 82, 82, 79, 84, 13], "trial": 3, "time_elapsed": 721412, "type": "FREE_RECALL", "trial_index": 155}, "uniqueid": "MTK1846:3JBT3HLQF99466VMUDRMHVOZW61ZP8", "dateTime": 1516478287375}, {"current_trial": 156, "trialdata": {"rt": 831, "trial_type": "text", "internal_node_id": "0.0-120.0", "time_elapsed": 724245, "key_press": 13, "type": "INSTRUCTIONS", "trial_index": 156}, "uniqueid": "MTK1846:3JBT3HLQF99466VMUDRMHVOZW61ZP8", "dateTime": 1516478290207}, {"current_trial": 157, "trialdata": {"rt": [2640, 4792, 10672, 14597, 18476, 20628, 23700], "trial_type": "math-distractor", "key_times": [2281, 2413, 2640, 4672, 4792, 10280, 10512, 10672, 14412, 14482, 14597, 17884, 18005, 18476, 20388, 20528, 20628, 23484, 23632, 23700], "responses": ["19", "5", "22", "20", "19", "20", "22"], "num2": [7, 2, 5, 8, 4, 9, 4, 3], "num3": [3, 1, 8, 7, 7, 6, 9, 3], "conditions": [12, 1600, "a", 24000], "internal_node_id": "0.0-121.0", "key_presses": [97, 105, 13, 101, 13, 98, 98, 13, 98, 96, 13, 97, 105, 13, 98, 96, 13, 98, 98, 13], "trial": 4, "time_elapsed": 750248, "type": "DISTRACTOR", "trial_index": 157, "num1": [9, 2, 9, 5, 8, 5, 9, 2]}, "uniqueid": "MTK1846:3JBT3HLQF99466VMUDRMHVOZW61ZP8", "dateTime": 1516478316211}, {"current_trial": 158, "trialdata": {"rt": -1, "trial_type": "single-stim", "stimulus": "<p id=\"stim\">10</p>", "internal_node_id": "0.0-122.0-0.0", "time_elapsed": 753249, "key_press": -1, "trial_index": 158}, "uniqueid": "MTK1846:3JBT3HLQF99466VMUDRMHVOZW61ZP8", "dateTime": 1516478319211}, {"current_trial": 159, "trialdata": {"rt": -1, "trial_type": "single-stim", "stimulus": "<p id=\"stim\">9</p>", "internal_node_id": "0.0-122.0-1.0", "time_elapsed": 754251, "key_press": -1, "trial_index": 159}, "uniqueid": "MTK1846:3JBT3HLQF99466VMUDRMHVOZW61ZP8", "dateTime": 1516478320213}, {"current_trial": 160, "trialdata": {"rt": -1, "trial_type": "single-stim", "stimulus": "<p id=\"stim\">8</p>", "internal_node_id": "0.0-122.0-2.0", "time_elapsed": 755251, "key_press": -1, "trial_index": 160}, "uniqueid": "MTK1846:3JBT3HLQF99466VMUDRMHVOZW61ZP8", "dateTime": 1516478321214}, {"current_trial": 161, "trialdata": {"rt": -1, "trial_type": "single-stim", "stimulus": "<p id=\"stim\">7</p>", "internal_node_id": "0.0-122.0-3.0", "time_elapsed": 756253, "key_press": -1, "trial_index": 161}, "uniqueid": "MTK1846:3JBT3HLQF99466VMUDRMHVOZW61ZP8", "dateTime": 1516478322215}, {"current_trial": 162, "trialdata": {"rt": -1, "trial_type": "single-stim", "stimulus": "<p id=\"stim\">6</p>", "internal_node_id": "0.0-122.0-4.0", "time_elapsed": 757254, "key_press": -1, "trial_index": 162}, "uniqueid": "MTK1846:3JBT3HLQF99466VMUDRMHVOZW61ZP8", "dateTime": 1516478323216}, {"current_trial": 163, "trialdata": {"rt": -1, "trial_type": "single-stim", "stimulus": "<p id=\"stim\">5</p>", "internal_node_id": "0.0-122.0-5.0", "time_elapsed": 758255, "key_press": -1, "trial_index": 163}, "uniqueid": "MTK1846:3JBT3HLQF99466VMUDRMHVOZW61ZP8", "dateTime": 1516478324217}, {"current_trial": 164, "trialdata": {"rt": -1, "trial_type": "single-stim", "stimulus": "<p id=\"stim\">4</p>", "internal_node_id": "0.0-122.0-6.0", "time_elapsed": 759256, "key_press": -1, "trial_index": 164}, "uniqueid": "MTK1846:3JBT3HLQF99466VMUDRMHVOZW61ZP8", "dateTime": 1516478325218}, {"current_trial": 165, "trialdata": {"rt": -1, "trial_type": "single-stim", "stimulus": "<p id=\"stim\">3</p>", "internal_node_id": "0.0-122.0-7.0", "time_elapsed": 760257, "key_press": -1, "trial_index": 165}, "uniqueid": "MTK1846:3JBT3HLQF99466VMUDRMHVOZW61ZP8", "dateTime": 1516478326219}, {"current_trial": 166, "trialdata": {"rt": -1, "trial_type": "single-stim", "stimulus": "<p id=\"stim\">2</p>", "internal_node_id": "0.0-122.0-8.0", "time_elapsed": 761258, "key_press": -1, "trial_index": 166}, "uniqueid": "MTK1846:3JBT3HLQF99466VMUDRMHVOZW61ZP8", "dateTime": 1516478327220}, {"current_trial": 167, "trialdata": {"rt": -1, "trial_type": "single-stim", "stimulus": "<p id=\"stim\">1</p>", "internal_node_id": "0.0-122.0-9.0", "time_elapsed": 762259, "key_press": -1, "trial_index": 167}, "uniqueid": "MTK1846:3JBT3HLQF99466VMUDRMHVOZW61ZP8", "dateTime": 1516478328221}, {"current_trial": 168, "trialdata": {"rt": -1, "trial_type": "single-stim", "stimulus": "<p id=\"stim\">+</p>", "internal_node_id": "0.0-123.0-0.0", "time_elapsed": 763760, "key_press": -1, "type": "FIXATION", "trial_index": 168}, "uniqueid": "MTK1846:3JBT3HLQF99466VMUDRMHVOZW61ZP8", "dateTime": 1516478329722}, {"current_trial": 169, "trialdata": {"rt": -1000, "trial_type": "single-audio", "word": "pork", "stimulus": "/static/audio/wordpool/PORK.wav", "conditions": [12, 1600, "a", 24000], "internal_node_id": "0.0-124.0", "trial": 4, "time_elapsed": 766270, "serialpos": 0, "key_press": -1, "wordID": 1107, "type": "PRES_AUD", "trial_index": 169}, "uniqueid": "MTK1846:3JBT3HLQF99466VMUDRMHVOZW61ZP8", "dateTime": 1516478332232}, {"current_trial": 170, "trialdata": {"rt": -1000, "trial_type": "single-audio", "word": "suspect", "stimulus": "/static/audio/wordpool/SUSPECT.wav", "conditions": [12, 1600, "a", 24000], "internal_node_id": "0.0-125.0", "trial": 4, "time_elapsed": 769020, "serialpos": 1, "key_press": -1, "wordID": 1414, "type": "PRES_AUD", "trial_index": 170}, "uniqueid": "MTK1846:3JBT3HLQF99466VMUDRMHVOZW61ZP8", "dateTime": 1516478334982}, {"current_trial": 171, "trialdata": {"rt": -1000, "trial_type": "single-audio", "word": "shovel", "stimulus": "/static/audio/wordpool/SHOVEL.wav", "conditions": [12, 1600, "a", 24000], "internal_node_id": "0.0-126.0", "trial": 4, "time_elapsed": 771632, "serialpos": 2, "key_press": -1, "wordID": 1294, "type": "PRES_AUD", "trial_index": 171}, "uniqueid": "MTK1846:3JBT3HLQF99466VMUDRMHVOZW61ZP8", "dateTime": 1516478337594}, {"current_trial": 172, "trialdata": {"rt": -1000, "trial_type": "single-audio", "word": "antler", "stimulus": "/static/audio/wordpool/ANTLER.wav", "conditions": [12, 1600, "a", 24000], "internal_node_id": "0.0-127.0", "trial": 4, "time_elapsed": 774062, "serialpos": 3, "key_press": -1, "wordID": 28, "type": "PRES_AUD", "trial_index": 172}, "uniqueid": "MTK1846:3JBT3HLQF99466VMUDRMHVOZW61ZP8", "dateTime": 1516478340025}, {"current_trial": 173, "trialdata": {"rt": -1000, "trial_type": "single-audio", "word": "piston", "stimulus": "/static/audio/wordpool/PISTON.wav", "conditions": [12, 1600, "a", 24000], "internal_node_id": "0.0-128.0", "trial": 4, "time_elapsed": 776669, "serialpos": 4, "key_press": -1, "wordID": 1075, "type": "PRES_AUD", "trial_index": 173}, "uniqueid": "MTK1846:3JBT3HLQF99466VMUDRMHVOZW61ZP8", "dateTime": 1516478342631}, {"current_trial": 174, "trialdata": {"rt": -1000, "trial_type": "single-audio", "word": "world", "stimulus": "/static/audio/wordpool/WORLD.wav", "conditions": [12, 1600, "a", 24000], "internal_node_id": "0.0-129.0", "trial": 4, "time_elapsed": 779192, "serialpos": 5, "key_press": -1, "wordID": 1621, "type": "PRES_AUD", "trial_index": 174}, "uniqueid": "MTK1846:3JBT3HLQF99466VMUDRMHVOZW61ZP8", "dateTime": 1516478345154}, {"current_trial": 175, "trialdata": {"rt": -1000, "trial_type": "single-audio", "word": "county", "stimulus": "/static/audio/wordpool/COUNTY.wav", "conditions": [12, 1600, "a", 24000], "internal_node_id": "0.0-130.0", "trial": 4, "time_elapsed": 781704, "serialpos": 6, "key_press": -1, "wordID": 388, "type": "PRES_AUD", "trial_index": 175}, "uniqueid": "MTK1846:3JBT3HLQF99466VMUDRMHVOZW61ZP8", "dateTime": 1516478347666}, {"current_trial": 176, "trialdata": {"rt": -1000, "trial_type": "single-audio", "word": "sheriff", "stimulus": "/static/audio/wordpool/SHERIFF.wav", "conditions": [12, 1600, "a", 24000], "internal_node_id": "0.0-131.0", "trial": 4, "time_elapsed": 784255, "serialpos": 7, "key_press": -1, "wordID": 1283, "type": "PRES_AUD", "trial_index": 176}, "uniqueid": "MTK1846:3JBT3HLQF99466VMUDRMHVOZW61ZP8", "dateTime": 1516478350217}, {"current_trial": 177, "trialdata": {"rt": -1000, "trial_type": "single-audio", "word": "cashier", "stimulus": "/static/audio/wordpool/CASHIER.wav", "conditions": [12, 1600, "a", 24000], "internal_node_id": "0.0-132.0", "trial": 4, "time_elapsed": 786937, "serialpos": 8, "key_press": -1, "wordID": 253, "type": "PRES_AUD", "trial_index": 177}, "uniqueid": "MTK1846:3JBT3HLQF99466VMUDRMHVOZW61ZP8", "dateTime": 1516478352899}, {"current_trial": 178, "trialdata": {"rt": -1000, "trial_type": "single-audio", "word": "puppy", "stimulus": "/static/audio/wordpool/PUPPY.wav", "conditions": [12, 1600, "a", 24000], "internal_node_id": "0.0-133.0", "trial": 4, "time_elapsed": 789451, "serialpos": 9, "key_press": -1, "wordID": 1143, "type": "PRES_AUD", "trial_index": 178}, "uniqueid": "MTK1846:3JBT3HLQF99466VMUDRMHVOZW61ZP8", "dateTime": 1516478355413}, {"current_trial": 179, "trialdata": {"rt": -1000, "trial_type": "single-audio", "word": "vagrant", "stimulus": "/static/audio/wordpool/VAGRANT.wav", "conditions": [12, 1600, "a", 24000], "internal_node_id": "0.0-134.0", "trial": 4, "time_elapsed": 792074, "serialpos": 10, "key_press": -1, "wordID": 1543, "type": "PRES_AUD", "trial_index": 179}, "uniqueid": "MTK1846:3JBT3HLQF99466VMUDRMHVOZW61ZP8", "dateTime": 1516478358036}, {"current_trial": 180, "trialdata": {"rt": -1000, "trial_type": "single-audio", "word": "robber", "stimulus": "/static/audio/wordpool/ROBBER.wav", "conditions": [12, 1600, "a", 24000], "internal_node_id": "0.0-135.0", "trial": 4, "time_elapsed": 794730, "serialpos": 11, "key_press": -1, "wordID": 1196, "type": "PRES_AUD", "trial_index": 180}, "uniqueid": "MTK1846:3JBT3HLQF99466VMUDRMHVOZW61ZP8", "dateTime": 1516478360692}, {"current_trial": 181, "trialdata": {"rt": -1, "trial_type": "single-stim", "stimulus": "", "internal_node_id": "0.0-136.0-0.0", "time_elapsed": 795997, "key_press": -1, "type": "PRE_RECALL_DELAY", "trial_index": 181}, "uniqueid": "MTK1846:3JBT3HLQF99466VMUDRMHVOZW61ZP8", "dateTime": 1516478361959}, {"current_trial": 182, "trialdata": {"rt": -1000, "trial_type": "single-audio", "stimulus": "/static/audio/400Hz.wav", "internal_node_id": "0.0-137.0", "time_elapsed": 796498, "key_press": -1, "type": "PRE_RECALL_ALERT", "trial_index": 182}, "uniqueid": "MTK1846:3JBT3HLQF99466VMUDRMHVOZW61ZP8", "dateTime": 1516478362460}, {"current_trial": 183, "trialdata": {"rt": [1779, 4099, 5663, 7139, 11294, 35965, 38586, 49693, 53797], "recwords": ["robber", "suspect", "pork", "cashier", "shovel", "world", "county", "badge", "sheriff"], "key_times": [971, 1059, 1239, 1415, 1500, 1651, 1779, 1963, 2071, 2199, 2335, 2763, 2955, 3167, 4099, 4488, 4547, 4674, 4807, 5663, 6103, 6275, 6435, 6495, 6587, 6679, 6843, 7139, 10466, 10598, 10643, 10747, 10910, 10966, 11294, 34765, 34893, 35025, 35209, 35353, 35965, 36317, 36437, 36557, 36810, 36961, 37870, 38586, 48998, 49078, 49262, 49430, 49586, 49693, 52961, 53049, 53149, 53301, 53377, 53473, 53601, 53797], "trial_type": "free-recall", "conditions": [12, 1600, "a", 24000], "internal_node_id": "0.0-138.0-0.0", "key_presses": [82, 79, 66, 66, 69, 82, 13, 83, 85, 83, 80, 69, 67, 84, 13, 80, 79, 82, 75, 13, 67, 65, 83, 72, 73, 69, 82, 13, 83, 72, 79, 86, 69, 76, 13, 87, 79, 82, 76, 68, 13, 67, 79, 85, 78, 84, 89, 13, 66, 65, 68, 71, 69, 13, 83, 72, 69, 82, 73, 70, 70, 13], "trial": 4, "time_elapsed": 856500, "type": "FREE_RECALL", "trial_index": 183}, "uniqueid": "MTK1846:3JBT3HLQF99466VMUDRMHVOZW61ZP8", "dateTime": 1516478422463}, {"current_trial": 184, "trialdata": {"rt": 579, "trial_type": "text", "internal_node_id": "0.0-139.0", "time_elapsed": 859080, "key_press": 13, "type": "INSTRUCTIONS", "trial_index": 184}, "uniqueid": "MTK1846:3JBT3HLQF99466VMUDRMHVOZW61ZP8", "dateTime": 1516478425042}, {"current_trial": 185, "trialdata": {"rt": [1961, 6194, 9353, 12317, 15429, 18112, 19237, 21021, 22761], "trial_type": "math-distractor", "key_times": [1721, 1777, 1961, 5797, 6010, 6194, 8730, 9205, 9353, 11269, 11337, 12317, 15217, 15293, 15429, 17805, 17932, 18112, 19117, 19237, 20861, 20921, 21021, 22589, 22665, 22761], "responses": ["15", "17", "13", "12", "16", "19", "6", "13", "16"], "num2": [4, 5, 4, 4, 1, 2, 3, 9, 5, 4], "num3": [9, 6, 7, 2, 7, 9, 2, 2, 2, 6], "conditions": [12, 800, "a", 24000], "internal_node_id": "0.0-140.0", "key_presses": [97, 101, 13, 97, 103, 13, 97, 99, 13, 97, 98, 13, 97, 102, 13, 97, 105, 13, 102, 13, 97, 99, 13, 97, 102, 13], "trial": 5, "time_elapsed": 885083, "type": "DISTRACTOR", "trial_index": 185, "num1": [2, 6, 2, 6, 8, 8, 1, 2, 9, 7]}, "uniqueid": "MTK1846:3JBT3HLQF99466VMUDRMHVOZW61ZP8", "dateTime": 1516478451045}, {"current_trial": 186, "trialdata": {"rt": -1, "trial_type": "single-stim", "stimulus": "<p id=\"stim\">10</p>", "internal_node_id": "0.0-141.0-0.0", "time_elapsed": 888084, "key_press": -1, "trial_index": 186}, "uniqueid": "MTK1846:3JBT3HLQF99466VMUDRMHVOZW61ZP8", "dateTime": 1516478454046}, {"current_trial": 187, "trialdata": {"rt": -1, "trial_type": "single-stim", "stimulus": "<p id=\"stim\">9</p>", "internal_node_id": "0.0-141.0-1.0", "time_elapsed": 889085, "key_press": -1, "trial_index": 187}, "uniqueid": "MTK1846:3JBT3HLQF99466VMUDRMHVOZW61ZP8", "dateTime": 1516478455047}, {"current_trial": 188, "trialdata": {"rt": -1, "trial_type": "single-stim", "stimulus": "<p id=\"stim\">8</p>", "internal_node_id": "0.0-141.0-2.0", "time_elapsed": 890086, "key_press": -1, "trial_index": 188}, "uniqueid": "MTK1846:3JBT3HLQF99466VMUDRMHVOZW61ZP8", "dateTime": 1516478456048}, {"current_trial": 189, "trialdata": {"rt": -1, "trial_type": "single-stim", "stimulus": "<p id=\"stim\">7</p>", "internal_node_id": "0.0-141.0-3.0", "time_elapsed": 891087, "key_press": -1, "trial_index": 189}, "uniqueid": "MTK1846:3JBT3HLQF99466VMUDRMHVOZW61ZP8", "dateTime": 1516478457049}, {"current_trial": 190, "trialdata": {"rt": -1, "trial_type": "single-stim", "stimulus": "<p id=\"stim\">6</p>", "internal_node_id": "0.0-141.0-4.0", "time_elapsed": 892088, "key_press": -1, "trial_index": 190}, "uniqueid": "MTK1846:3JBT3HLQF99466VMUDRMHVOZW61ZP8", "dateTime": 1516478458050}, {"current_trial": 191, "trialdata": {"rt": -1, "trial_type": "single-stim", "stimulus": "<p id=\"stim\">5</p>", "internal_node_id": "0.0-141.0-5.0", "time_elapsed": 893089, "key_press": -1, "trial_index": 191}, "uniqueid": "MTK1846:3JBT3HLQF99466VMUDRMHVOZW61ZP8", "dateTime": 1516478459051}, {"current_trial": 192, "trialdata": {"rt": -1, "trial_type": "single-stim", "stimulus": "<p id=\"stim\">4</p>", "internal_node_id": "0.0-141.0-6.0", "time_elapsed": 894090, "key_press": -1, "trial_index": 192}, "uniqueid": "MTK1846:3JBT3HLQF99466VMUDRMHVOZW61ZP8", "dateTime": 1516478460052}, {"current_trial": 193, "trialdata": {"rt": -1, "trial_type": "single-stim", "stimulus": "<p id=\"stim\">3</p>", "internal_node_id": "0.0-141.0-7.0", "time_elapsed": 895091, "key_press": -1, "trial_index": 193}, "uniqueid": "MTK1846:3JBT3HLQF99466VMUDRMHVOZW61ZP8", "dateTime": 1516478461053}, {"current_trial": 194, "trialdata": {"rt": -1, "trial_type": "single-stim", "stimulus": "<p id=\"stim\">2</p>", "internal_node_id": "0.0-141.0-8.0", "time_elapsed": 896092, "key_press": -1, "trial_index": 194}, "uniqueid": "MTK1846:3JBT3HLQF99466VMUDRMHVOZW61ZP8", "dateTime": 1516478462054}, {"current_trial": 195, "trialdata": {"rt": -1, "trial_type": "single-stim", "stimulus": "<p id=\"stim\">1</p>", "internal_node_id": "0.0-141.0-9.0", "time_elapsed": 897093, "key_press": -1, "trial_index": 195}, "uniqueid": "MTK1846:3JBT3HLQF99466VMUDRMHVOZW61ZP8", "dateTime": 1516478463056}, {"current_trial": 196, "trialdata": {"rt": -1, "trial_type": "single-stim", "stimulus": "<p id=\"stim\">+</p>", "internal_node_id": "0.0-142.0-0.0", "time_elapsed": 898595, "key_press": -1, "type": "FIXATION", "trial_index": 196}, "uniqueid": "MTK1846:3JBT3HLQF99466VMUDRMHVOZW61ZP8", "dateTime": 1516478464557}, {"current_trial": 197, "trialdata": {"rt": -1000, "trial_type": "single-audio", "word": "scarf", "stimulus": "/static/audio/wordpool/SCARF.wav", "conditions": [12, 800, "a", 24000], "internal_node_id": "0.0-143.0", "trial": 5, "time_elapsed": 900337, "serialpos": 0, "key_press": -1, "wordID": 1245, "type": "PRES_AUD", "trial_index": 197}, "uniqueid": "MTK1846:3JBT3HLQF99466VMUDRMHVOZW61ZP8", "dateTime": 1516478466300}, {"current_trial": 198, "trialdata": {"rt": -1000, "trial_type": "single-audio", "word": "motel", "stimulus": "/static/audio/wordpool/MOTEL.wav", "conditions": [12, 800, "a", 24000], "internal_node_id": "0.0-144.0", "trial": 5, "time_elapsed": 901988, "serialpos": 1, "key_press": -1, "wordID": 918, "type": "PRES_AUD", "trial_index": 198}, "uniqueid": "MTK1846:3JBT3HLQF99466VMUDRMHVOZW61ZP8", "dateTime": 1516478467950}, {"current_trial": 199, "trialdata": {"rt": -1000, "trial_type": "single-audio", "word": "igloo", "stimulus": "/static/audio/wordpool/IGLOO.wav", "conditions": [12, 800, "a", 24000], "internal_node_id": "0.0-145.0", "trial": 5, "time_elapsed": 903762, "serialpos": 2, "key_press": -1, "wordID": 733, "type": "PRES_AUD", "trial_index": 199}, "uniqueid": "MTK1846:3JBT3HLQF99466VMUDRMHVOZW61ZP8", "dateTime": 1516478469724}, {"current_trial": 200, "trialdata": {"rt": -1000, "trial_type": "single-audio", "word": "onion", "stimulus": "/static/audio/wordpool/ONION.wav", "conditions": [12, 800, "a", 24000], "internal_node_id": "0.0-146.0", "trial": 5, "time_elapsed": 905402, "serialpos": 3, "key_press": -1, "wordID": 976, "type": "PRES_AUD", "trial_index": 200}, "uniqueid": "MTK1846:3JBT3HLQF99466VMUDRMHVOZW61ZP8", "dateTime": 1516478471364}, {"current_trial": 201, "trialdata": {"rt": -1000, "trial_type": "single-audio", "word": "finger", "stimulus": "/static/audio/wordpool/FINGER.wav", "conditions": [12, 800, "a", 24000], "internal_node_id": "0.0-147.0", "trial": 5, "time_elapsed": 907337, "serialpos": 4, "key_press": -1, "wordID": 566, "type": "PRES_AUD", "trial_index": 201}, "uniqueid": "MTK1846:3JBT3HLQF99466VMUDRMHVOZW61ZP8", "dateTime": 1516478473299}, {"current_trial": 202, "trialdata": {"rt": -1000, "trial_type": "single-audio", "word": "playground", "stimulus": "/static/audio/wordpool/PLAYGROUND.wav", "conditions": [12, 800, "a", 24000], "internal_node_id": "0.0-148.0", "trial": 5, "time_elapsed": 909240, "serialpos": 5, "key_press": -1, "wordID": 1086, "type": "PRES_AUD", "trial_index": 202}, "uniqueid": "MTK1846:3JBT3HLQF99466VMUDRMHVOZW61ZP8", "dateTime": 1516478475202}, {"current_trial": 203, "trialdata": {"rt": -1000, "trial_type": "single-audio", "word": "blouse", "stimulus": "/static/audio/wordpool/BLOUSE.wav", "conditions": [12, 800, "a", 24000], "internal_node_id": "0.0-149.0", "trial": 5, "time_elapsed": 910866, "serialpos": 6, "key_press": -1, "wordID": 138, "type": "PRES_AUD", "trial_index": 203}, "uniqueid": "MTK1846:3JBT3HLQF99466VMUDRMHVOZW61ZP8", "dateTime": 1516478476828}, {"current_trial": 204, "trialdata": {"rt": -1000, "trial_type": "single-audio", "word": "scalpel", "stimulus": "/static/audio/wordpool/SCALPEL.wav", "conditions": [12, 800, "a", 24000], "internal_node_id": "0.0-150.0", "trial": 5, "time_elapsed": 912617, "serialpos": 7, "key_press": -1, "wordID": 1242, "type": "PRES_AUD", "trial_index": 204}, "uniqueid": "MTK1846:3JBT3HLQF99466VMUDRMHVOZW61ZP8", "dateTime": 1516478478579}, {"current_trial": 205, "trialdata": {"rt": -1000, "trial_type": "single-audio", "word": "machine", "stimulus": "/static/audio/wordpool/MACHINE.wav", "conditions": [12, 800, "a", 24000], "internal_node_id": "0.0-151.0", "trial": 5, "time_elapsed": 914452, "serialpos": 8, "key_press": -1, "wordID": 851, "type": "PRES_AUD", "trial_index": 205}, "uniqueid": "MTK1846:3JBT3HLQF99466VMUDRMHVOZW61ZP8", "dateTime": 1516478480414}, {"current_trial": 206, "trialdata": {"rt": -1000, "trial_type": "single-audio", "word": "smog", "stimulus": "/static/audio/wordpool/SMOG.wav", "conditions": [12, 800, "a", 24000], "internal_node_id": "0.0-152.0", "trial": 5, "time_elapsed": 916322, "serialpos": 9, "key_press": -1, "wordID": 1329, "type": "PRES_AUD", "trial_index": 206}, "uniqueid": "MTK1846:3JBT3HLQF99466VMUDRMHVOZW61ZP8", "dateTime": 1516478482284}, {"current_trial": 207, "trialdata": {"rt": -1000, "trial_type": "single-audio", "word": "ozone", "stimulus": "/static/audio/wordpool/OZONE.wav", "conditions": [12, 800, "a", 24000], "internal_node_id": "0.0-153.0", "trial": 5, "time_elapsed": 917993, "serialpos": 10, "key_press": -1, "wordID": 995, "type": "PRES_AUD", "trial_index": 207}, "uniqueid": "MTK1846:3JBT3HLQF99466VMUDRMHVOZW61ZP8", "dateTime": 1516478483955}, {"current_trial": 208, "trialdata": {"rt": -1000, "trial_type": "single-audio", "word": "silk", "stimulus": "/static/audio/wordpool/SILK.wav", "conditions": [12, 800, "a", 24000], "internal_node_id": "0.0-154.0", "trial": 5, "time_elapsed": 919748, "serialpos": 11, "key_press": -1, "wordID": 1306, "type": "PRES_AUD", "trial_index": 208}, "uniqueid": "MTK1846:3JBT3HLQF99466VMUDRMHVOZW61ZP8", "dateTime": 1516478485711}, {"current_trial": 209, "trialdata": {"rt": -1, "trial_type": "single-stim", "stimulus": "", "internal_node_id": "0.0-155.0-0.0", "time_elapsed": 921135, "key_press": -1, "type": "PRE_RECALL_DELAY", "trial_index": 209}, "uniqueid": "MTK1846:3JBT3HLQF99466VMUDRMHVOZW61ZP8", "dateTime": 1516478487098}, {"current_trial": 210, "trialdata": {"rt": -1000, "trial_type": "single-audio", "stimulus": "/static/audio/400Hz.wav", "internal_node_id": "0.0-156.0", "time_elapsed": 921637, "key_press": -1, "type": "PRE_RECALL_ALERT", "trial_index": 210}, "uniqueid": "MTK1846:3JBT3HLQF99466VMUDRMHVOZW61ZP8", "dateTime": 1516478487599}, {"current_trial": 211, "trialdata": {"rt": [1091, 2220, 3459, 4427, 6323, 7355, 8335, 9083, 21018], "recwords": ["ozone", "smog", "scarf", "silk", "playground", "onion", "machine", "finger", "igloo"], "key_times": [79, 211, 367, 451, 603, 1091, 1447, 1559, 1759, 1907, 2220, 2419, 2615, 2799, 2999, 3179, 3459, 3775, 3911, 4063, 4195, 4427, 4719, 4779, 4899, 5115, 5311, 5643, 5815, 5911, 6107, 6171, 6323, 6587, 6763, 6959, 7051, 7159, 7355, 7583, 7695, 7883, 7935, 8007, 8111, 8179, 8335, 8471, 8587, 8643, 8703, 8867, 8995, 9083, 19862, 20150, 20206, 20518, 20718, 21018], "trial_type": "free-recall", "conditions": [12, 800, "a", 24000], "internal_node_id": "0.0-157.0-0.0", "key_presses": [79, 90, 79, 78, 69, 13, 83, 77, 79, 71, 13, 83, 67, 65, 82, 70, 13, 83, 73, 76, 75, 13, 80, 76, 65, 89, 71, 82, 79, 85, 78, 68, 13, 79, 78, 73, 79, 78, 13, 77, 65, 67, 72, 73, 78, 69, 13, 70, 73, 78, 71, 69, 82, 13, 73, 71, 76, 79, 79, 13], "trial": 5, "time_elapsed": 981639, "type": "FREE_RECALL", "trial_index": 211}, "uniqueid": "MTK1846:3JBT3HLQF99466VMUDRMHVOZW61ZP8", "dateTime": 1516478547602}, {"current_trial": 212, "trialdata": {"rt": 1049, "trial_type": "text", "internal_node_id": "0.0-158.0", "time_elapsed": 984691, "key_press": 13, "type": "INSTRUCTIONS", "trial_index": 212}, "uniqueid": "MTK1846:3JBT3HLQF99466VMUDRMHVOZW61ZP8", "dateTime": 1516478550653}, {"current_trial": 213, "trialdata": {"rt": [2093, 4905, 6418, 8522, 10585], "trial_type": "math-distractor", "key_times": [1797, 1985, 2093, 4730, 4793, 4905, 6258, 6418, 8421, 8454, 8522, 10397, 10533, 10585], "responses": ["12", "23", "9", "16", "11"], "num2": [3, 7, 3, 6, 5, 3], "num3": [6, 9, 1, 5, 1, 5], "conditions": [12, 1600, "a", 12000], "internal_node_id": "0.0-159.0", "key_presses": [97, 98, 13, 98, 99, 13, 105, 13, 97, 102, 13, 97, 97, 13], "trial": 6, "time_elapsed": 998694, "type": "DISTRACTOR", "trial_index": 213, "num1": [3, 7, 5, 5, 5, 2]}, "uniqueid": "MTK1846:3JBT3HLQF99466VMUDRMHVOZW61ZP8", "dateTime": 1516478564656}, {"current_trial": 214, "trialdata": {"rt": -1, "trial_type": "single-stim", "stimulus": "<p id=\"stim\">10</p>", "internal_node_id": "0.0-160.0-0.0", "time_elapsed": 1001695, "key_press": -1, "trial_index": 214}, "uniqueid": "MTK1846:3JBT3HLQF99466VMUDRMHVOZW61ZP8", "dateTime": 1516478567658}, {"current_trial": 215, "trialdata": {"rt": -1, "trial_type": "single-stim", "stimulus": "<p id=\"stim\">9</p>", "internal_node_id": "0.0-160.0-1.0", "time_elapsed": 1002697, "key_press": -1, "trial_index": 215}, "uniqueid": "MTK1846:3JBT3HLQF99466VMUDRMHVOZW61ZP8", "dateTime": 1516478568659}, {"current_trial": 216, "trialdata": {"rt": -1, "trial_type": "single-stim", "stimulus": "<p id=\"stim\">8</p>", "internal_node_id": "0.0-160.0-2.0", "time_elapsed": 1003697, "key_press": -1, "trial_index": 216}, "uniqueid": "MTK1846:3JBT3HLQF99466VMUDRMHVOZW61ZP8", "dateTime": 1516478569660}, {"current_trial": 217, "trialdata": {"rt": -1, "trial_type": "single-stim", "stimulus": "<p id=\"stim\">7</p>", "internal_node_id": "0.0-160.0-3.0", "time_elapsed": 1004699, "key_press": -1, "trial_index": 217}, "uniqueid": "MTK1846:3JBT3HLQF99466VMUDRMHVOZW61ZP8", "dateTime": 1516478570661}, {"current_trial": 218, "trialdata": {"rt": -1, "trial_type": "single-stim", "stimulus": "<p id=\"stim\">6</p>", "internal_node_id": "0.0-160.0-4.0", "time_elapsed": 1005700, "key_press": -1, "trial_index": 218}, "uniqueid": "MTK1846:3JBT3HLQF99466VMUDRMHVOZW61ZP8", "dateTime": 1516478571662}, {"current_trial": 219, "trialdata": {"rt": -1, "trial_type": "single-stim", "stimulus": "<p id=\"stim\">5</p>", "internal_node_id": "0.0-160.0-5.0", "time_elapsed": 1006701, "key_press": -1, "trial_index": 219}, "uniqueid": "MTK1846:3JBT3HLQF99466VMUDRMHVOZW61ZP8", "dateTime": 1516478572663}, {"current_trial": 220, "trialdata": {"rt": -1, "trial_type": "single-stim", "stimulus": "<p id=\"stim\">4</p>", "internal_node_id": "0.0-160.0-6.0", "time_elapsed": 1007702, "key_press": -1, "trial_index": 220}, "uniqueid": "MTK1846:3JBT3HLQF99466VMUDRMHVOZW61ZP8", "dateTime": 1516478573664}, {"current_trial": 221, "trialdata": {"rt": -1, "trial_type": "single-stim", "stimulus": "<p id=\"stim\">3</p>", "internal_node_id": "0.0-160.0-7.0", "time_elapsed": 1008703, "key_press": -1, "trial_index": 221}, "uniqueid": "MTK1846:3JBT3HLQF99466VMUDRMHVOZW61ZP8", "dateTime": 1516478574665}, {"current_trial": 222, "trialdata": {"rt": -1, "trial_type": "single-stim", "stimulus": "<p id=\"stim\">2</p>", "internal_node_id": "0.0-160.0-8.0", "time_elapsed": 1009704, "key_press": -1, "trial_index": 222}, "uniqueid": "MTK1846:3JBT3HLQF99466VMUDRMHVOZW61ZP8", "dateTime": 1516478575666}, {"current_trial": 223, "trialdata": {"rt": -1, "trial_type": "single-stim", "stimulus": "<p id=\"stim\">1</p>", "internal_node_id": "0.0-160.0-9.0", "time_elapsed": 1010705, "key_press": -1, "trial_index": 223}, "uniqueid": "MTK1846:3JBT3HLQF99466VMUDRMHVOZW61ZP8", "dateTime": 1516478576667}, {"current_trial": 224, "trialdata": {"rt": -1, "trial_type": "single-stim", "stimulus": "<p id=\"stim\">+</p>", "internal_node_id": "0.0-161.0-0.0", "time_elapsed": 1012206, "key_press": -1, "type": "FIXATION", "trial_index": 224}, "uniqueid": "MTK1846:3JBT3HLQF99466VMUDRMHVOZW61ZP8", "dateTime": 1516478578168}, {"current_trial": 225, "trialdata": {"rt": -1000, "trial_type": "single-audio", "word": "scissors", "stimulus": "/static/audio/wordpool/SCISSORS.wav", "conditions": [12, 1600, "a", 12000], "internal_node_id": "0.0-162.0", "trial": 6, "time_elapsed": 1014671, "serialpos": 0, "key_press": -1, "wordID": 1249, "type": "PRES_AUD", "trial_index": 225}, "uniqueid": "MTK1846:3JBT3HLQF99466VMUDRMHVOZW61ZP8", "dateTime": 1516478580633}, {"current_trial": 226, "trialdata": {"rt": -1000, "trial_type": "single-audio", "word": "cabbage", "stimulus": "/static/audio/wordpool/CABBAGE.wav", "conditions": [12, 1600, "a", 12000], "internal_node_id": "0.0-163.0", "trial": 6, "time_elapsed": 1017405, "serialpos": 1, "key_press": -1, "wordID": 209, "type": "PRES_AUD", "trial_index": 226}, "uniqueid": "MTK1846:3JBT3HLQF99466VMUDRMHVOZW61ZP8", "dateTime": 1516478583367}, {"current_trial": 227, "trialdata": {"rt": -1000, "trial_type": "single-audio", "word": "mildew", "stimulus": "/static/audio/wordpool/MILDEW.wav", "conditions": [12, 1600, "a", 12000], "internal_node_id": "0.0-164.0", "trial": 6, "time_elapsed": 1020169, "serialpos": 2, "key_press": -1, "wordID": 892, "type": "PRES_AUD", "trial_index": 227}, "uniqueid": "MTK1846:3JBT3HLQF99466VMUDRMHVOZW61ZP8", "dateTime": 1516478586131}, {"current_trial": 228, "trialdata": {"rt": -1000, "trial_type": "single-audio", "word": "rattle", "stimulus": "/static/audio/wordpool/RATTLE.wav", "conditions": [12, 1600, "a", 12000], "internal_node_id": "0.0-165.0", "trial": 6, "time_elapsed": 1022576, "serialpos": 3, "key_press": -1, "wordID": 1169, "type": "PRES_AUD", "trial_index": 228}, "uniqueid": "MTK1846:3JBT3HLQF99466VMUDRMHVOZW61ZP8", "dateTime": 1516478588538}, {"current_trial": 229, "trialdata": {"rt": -1000, "trial_type": "single-audio", "word": "clamp", "stimulus": "/static/audio/wordpool/CLAMP.wav", "conditions": [12, 1600, "a", 12000], "internal_node_id": "0.0-166.0", "trial": 6, "time_elapsed": 1025275, "serialpos": 4, "key_press": -1, "wordID": 315, "type": "PRES_AUD", "trial_index": 229}, "uniqueid": "MTK1846:3JBT3HLQF99466VMUDRMHVOZW61ZP8", "dateTime": 1516478591238}, {"current_trial": 230, "trialdata": {"rt": -1000, "trial_type": "single-audio", "word": "actress", "stimulus": "/static/audio/wordpool/ACTRESS.wav", "conditions": [12, 1600, "a", 12000], "internal_node_id": "0.0-167.0", "trial": 6, "time_elapsed": 1027926, "serialpos": 5, "key_press": -1, "wordID": 5, "type": "PRES_AUD", "trial_index": 230}, "uniqueid": "MTK1846:3JBT3HLQF99466VMUDRMHVOZW61ZP8", "dateTime": 1516478593888}, {"current_trial": 231, "trialdata": {"rt": -1000, "trial_type": "single-audio", "word": "sidewalk", "stimulus": "/static/audio/wordpool/SIDEWALK.wav", "conditions": [12, 1600, "a", 12000], "internal_node_id": "0.0-168.0", "trial": 6, "time_elapsed": 1030526, "serialpos": 6, "key_press": -1, "wordID": 1302, "type": "PRES_AUD", "trial_index": 231}, "uniqueid": "MTK1846:3JBT3HLQF99466VMUDRMHVOZW61ZP8", "dateTime": 1516478596488}, {"current_trial": 232, "trialdata": {"rt": -1000, "trial_type": "single-audio", "word": "knife", "stimulus": "/static/audio/wordpool/KNIFE.wav", "conditions": [12, 1600, "a", 12000], "internal_node_id": "0.0-169.0", "trial": 6, "time_elapsed": 1032954, "serialpos": 7, "key_press": -1, "wordID": 784, "type": "PRES_AUD", "trial_index": 232}, "uniqueid": "MTK1846:3JBT3HLQF99466VMUDRMHVOZW61ZP8", "dateTime": 1516478598916}, {"current_trial": 233, "trialdata": {"rt": -1000, "trial_type": "single-audio", "word": "cod", "stimulus": "/static/audio/wordpool/COD.wav", "conditions": [12, 1600, "a", 12000], "internal_node_id": "0.0-170.0", "trial": 6, "time_elapsed": 1035720, "serialpos": 8, "key_press": -1, "wordID": 339, "type": "PRES_AUD", "trial_index": 233}, "uniqueid": "MTK1846:3JBT3HLQF99466VMUDRMHVOZW61ZP8", "dateTime": 1516478601682}, {"current_trial": 234, "trialdata": {"rt": -1000, "trial_type": "single-audio", "word": "scallop", "stimulus": "/static/audio/wordpool/SCALLOP.wav", "conditions": [12, 1600, "a", 12000], "internal_node_id": "0.0-171.0", "trial": 6, "time_elapsed": 1038436, "serialpos": 9, "key_press": -1, "wordID": 1241, "type": "PRES_AUD", "trial_index": 234}, "uniqueid": "MTK1846:3JBT3HLQF99466VMUDRMHVOZW61ZP8", "dateTime": 1516478604398}, {"current_trial": 235, "trialdata": {"rt": -1000, "trial_type": "single-audio", "word": "loft", "stimulus": "/static/audio/wordpool/LOFT.wav", "conditions": [12, 1600, "a", 12000], "internal_node_id": "0.0-172.0", "trial": 6, "time_elapsed": 1040839, "serialpos": 10, "key_press": -1, "wordID": 839, "type": "PRES_AUD", "trial_index": 235}, "uniqueid": "MTK1846:3JBT3HLQF99466VMUDRMHVOZW61ZP8", "dateTime": 1516478606801}, {"current_trial": 236, "trialdata": {"rt": -1000, "trial_type": "single-audio", "word": "salad", "stimulus": "/static/audio/wordpool/SALAD.wav", "conditions": [12, 1600, "a", 12000], "internal_node_id": "0.0-173.0", "trial": 6, "time_elapsed": 1043241, "serialpos": 11, "key_press": -1, "wordID": 1223, "type": "PRES_AUD", "trial_index": 236}, "uniqueid": "MTK1846:3JBT3HLQF99466VMUDRMHVOZW61ZP8", "dateTime": 1516478609204}, {"current_trial": 237, "trialdata": {"rt": -1, "trial_type": "single-stim", "stimulus": "", "internal_node_id": "0.0-174.0-0.0", "time_elapsed": 1044481, "key_press": -1, "type": "PRE_RECALL_DELAY", "trial_index": 237}, "uniqueid": "MTK1846:3JBT3HLQF99466VMUDRMHVOZW61ZP8", "dateTime": 1516478610444}, {"current_trial": 238, "trialdata": {"rt": -1000, "trial_type": "single-audio", "stimulus": "/static/audio/400Hz.wav", "internal_node_id": "0.0-175.0", "time_elapsed": 1044982, "key_press": -1, "type": "PRE_RECALL_ALERT", "trial_index": 238}, "uniqueid": "MTK1846:3JBT3HLQF99466VMUDRMHVOZW61ZP8", "dateTime": 1516478610945}, {"current_trial": 239, "trialdata": {"rt": [1828, 3189, 4729, 5833, 8304, 14359, 32759, 51811], "recwords": ["scissors", "cabbage", "mildew", "salad", "actress", "sidewalk", "loft", "knife"], "key_times": [708, 912, 972, 1115, 1272, 1360, 1532, 1732, 1828, 2268, 2444, 2508, 2672, 2745, 2945, 3108, 3189, 3541, 3837, 3913, 4045, 4217, 4381, 4729, 4896, 5056, 5109, 5216, 5405, 5833, 6052, 6240, 6420, 6576, 6740, 6908, 7392, 8304, 12847, 12920, 13029, 13183, 13359, 13527, 13567, 13624, 14359, 32123, 32335, 32403, 32567, 32759, 51087, 51287, 51379, 51471, 51539, 51811], "trial_type": "free-recall", "conditions": [12, 1600, "a", 12000], "internal_node_id": "0.0-176.0-0.0", "key_presses": [83, 67, 73, 83, 83, 79, 82, 83, 13, 67, 65, 66, 66, 65, 71, 69, 13, 77, 73, 76, 68, 69, 87, 13, 83, 65, 76, 65, 68, 13, 65, 67, 84, 82, 69, 83, 83, 13, 83, 73, 68, 69, 87, 65, 76, 75, 13, 76, 79, 70, 84, 13, 75, 78, 73, 70, 69, 13], "trial": 6, "time_elapsed": 1104985, "type": "FREE_RECALL", "trial_index": 239}, "uniqueid": "MTK1846:3JBT3HLQF99466VMUDRMHVOZW61ZP8", "dateTime": 1516478670948}, {"current_trial": 240, "trialdata": {"rt": 596, "trial_type": "text", "internal_node_id": "0.0-177.0", "time_elapsed": 1107582, "key_press": 13, "type": "INSTRUCTIONS", "trial_index": 240}, "uniqueid": "MTK1846:3JBT3HLQF99466VMUDRMHVOZW61ZP8", "dateTime": 1516478673544}, {"current_trial": 241, "trialdata": {"rt": [3281, 5233, 6821, 10058], "trial_type": "math-distractor", "key_times": [2506, 2570, 3281, 5185, 5233, 6534, 6625, 6821, 9918, 9958, 10058], "responses": ["19", "6", "18", "13"], "num2": [8, 4, 4, 7, 1], "num3": [4, 1, 6, 1, 2], "conditions": [12, 1600, "a", 12000], "internal_node_id": "0.0-178.0", "key_presses": [97, 105, 13, 102, 13, 97, 104, 13, 97, 99, 13], "trial": 7, "time_elapsed": 1121584, "type": "DISTRACTOR", "trial_index": 241, "num1": [7, 1, 6, 5, 2]}, "uniqueid": "MTK1846:3JBT3HLQF99466VMUDRMHVOZW61ZP8", "dateTime": 1516478687547}, {"current_trial": 242, "trialdata": {"rt": -1, "trial_type": "single-stim", "stimulus": "<p id=\"stim\">10</p>", "internal_node_id": "0.0-179.0-0.0", "time_elapsed": 1124586, "key_press": -1, "trial_index": 242}, "uniqueid": "MTK1846:3JBT3HLQF99466VMUDRMHVOZW61ZP8", "dateTime": 1516478690549}, {"current_trial": 243, "trialdata": {"rt": -1, "trial_type": "single-stim", "stimulus": "<p id=\"stim\">9</p>", "internal_node_id": "0.0-179.0-1.0", "time_elapsed": 1125587, "key_press": -1, "trial_index": 243}, "uniqueid": "MTK1846:3JBT3HLQF99466VMUDRMHVOZW61ZP8", "dateTime": 1516478691549}, {"current_trial": 244, "trialdata": {"rt": -1, "trial_type": "single-stim", "stimulus": "<p id=\"stim\">8</p>", "internal_node_id": "0.0-179.0-2.0", "time_elapsed": 1126588, "key_press": -1, "trial_index": 244}, "uniqueid": "MTK1846:3JBT3HLQF99466VMUDRMHVOZW61ZP8", "dateTime": 1516478692551}, {"current_trial": 245, "trialdata": {"rt": -1, "trial_type": "single-stim", "stimulus": "<p id=\"stim\">7</p>", "internal_node_id": "0.0-179.0-3.0", "time_elapsed": 1127589, "key_press": -1, "trial_index": 245}, "uniqueid": "MTK1846:3JBT3HLQF99466VMUDRMHVOZW61ZP8", "dateTime": 1516478693552}, {"current_trial": 246, "trialdata": {"rt": -1, "trial_type": "single-stim", "stimulus": "<p id=