{"condition": 0, "counterbalance": 1169, "assignmentId": "3ZR9AIQJUCGLFS3DSZM68YAIJ4F40L", "workerId": "MTK1000", "hitId": "31HLTCK4BL2FXPZJ0V7UDW1RNXEGVI", "currenttrial": 626, "bonus": 0, "data": [{"uniqueid": "MTK1000:3ZR9AIQJUCGLFS3DSZM68YAIJ4F40L", "current_trial": 0, "dateTime": 1512960652996, "trialdata": {"rt": 10908, "key_press": 32, "type": "INSTRUCTIONS", "trial_type": "text", "trial_index": 0, "time_elapsed": 10912, "internal_node_id": "0.0-0.0"}}, {"uniqueid": "MTK1000:3ZR9AIQJUCGLFS3DSZM68YAIJ4F40L", "current_trial": 1, "dateTime": 1512960672793, "trialdata": {"rt": 19795, "key_press": 32, "type": "INSTRUCTIONS", "trial_type": "text", "trial_index": 1, "time_elapsed": 30710, "internal_node_id": "0.0-1.0"}}, {"uniqueid": "MTK1000:3ZR9AIQJUCGLFS3DSZM68YAIJ4F40L", "current_trial": 2, "dateTime": 1512960680777, "trialdata": {"rt": [7960], "responses": ["ocean"], "type": "AUDIO_TEST", "trial_type": "audio-test", "trial_index": 2, "time_elapsed": 38694, "internal_node_id": "0.0-2.0"}}, {"uniqueid": "MTK1000:3ZR9AIQJUCGLFS3DSZM68YAIJ4F40L", "current_trial": 3, "dateTime": 1512960694562, "trialdata": {"rt": [13779], "responses": ["crystal"], "type": "AUDIO_TEST", "trial_type": "audio-test", "trial_index": 3, "time_elapsed": 52479, "internal_node_id": "0.0-3.0"}}, {"uniqueid": "MTK1000:3ZR9AIQJUCGLFS3DSZM68YAIJ4F40L", "current_trial": 4, "dateTime": 1512960700859, "trialdata": {"rt": [6291], "responses": ["spice"], "type": "AUDIO_TEST", "trial_type": "audio-test", "trial_index": 4, "time_elapsed": 58776, "internal_node_id": "0.0-4.0"}}, {"uniqueid": "MTK1000:3ZR9AIQJUCGLFS3DSZM68YAIJ4F40L", "current_trial": 5, "dateTime": 1512960729332, "trialdata": {"rt": 27719, "responses": "{\"Q0\":\"11:30 pm\",\"Q1\":\"7:30 am\",\"Q2\":\"5\"}", "type": "SLEEP_SURVEY", "trial_type": "survey-text", "trial_index": 5, "time_elapsed": 87249, "internal_node_id": "0.0-5.0"}}, {"uniqueid": "MTK1000:3ZR9AIQJUCGLFS3DSZM68YAIJ4F40L", "current_trial": 6, "dateTime": 1512960752592, "trialdata": {"rt": 22259, "key_press": 32, "type": "INSTRUCTIONS", "trial_type": "text", "trial_index": 6, "time_elapsed": 110509, "internal_node_id": "0.0-6.0"}}, {"uniqueid": "MTK1000:3ZR9AIQJUCGLFS3DSZM68YAIJ4F40L", "current_trial": 7, "dateTime": 1512960760816, "trialdata": {"rt": 7723, "key_press": 32, "type": "INSTRUCTIONS", "trial_type": "text", "trial_index": 7, "time_elapsed": 118733, "internal_node_id": "0.0-7.0"}}, {"uniqueid": "MTK1000:3ZR9AIQJUCGLFS3DSZM68YAIJ4F40L", "current_trial": 8, "dateTime": 1512960774161, "trialdata": {"rt": 12844, "key_press": 32, "type": "INSTRUCTIONS", "trial_type": "text", "trial_index": 8, "time_elapsed": 132078, "internal_node_id": "0.0-8.0"}}, {"uniqueid": "MTK1000:3ZR9AIQJUCGLFS3DSZM68YAIJ4F40L", "current_trial": 9, "dateTime": 1512960793166, "trialdata": {"rt": [4932, 6772, 8284, 11987, 14716, 16198, 17796], "responses": ["21", "16", "8", "22", "17", "14", "27"], "num1": [5, 6, 1, 8, 4, 4, 9, 1], "num2": [7, 7, 1, 7, 8, 7, 9, 8], "num3": [9, 3, 6, 7, 5, 3, 9, 2], "type": "DISTRACTOR", "conditions": [18, 1200, "a", 18000], "trial": 0, "trial_type": "math-distractor", "trial_index": 9, "time_elapsed": 151083, "internal_node_id": "0.0-9.0"}}, {"uniqueid": "MTK1000:3ZR9AIQJUCGLFS3DSZM68YAIJ4F40L", "current_trial": 10, "dateTime": 1512960796166, "trialdata": {"rt": -1, "stimulus": "<p id=\"stim\">10</p>", "key_press": -1, "trial_type": "single-stim", "trial_index": 10, "time_elapsed": 154083, "internal_node_id": "0.0-10.0-0.0"}}, {"uniqueid": "MTK1000:3ZR9AIQJUCGLFS3DSZM68YAIJ4F40L", "current_trial": 11, "dateTime": 1512960797167, "trialdata": {"rt": -1, "stimulus": "<p id=\"stim\">9</p>", "key_press": -1, "trial_type": "single-stim", "trial_index": 11, "time_elapsed": 155084, "internal_node_id": "0.0-10.0-1.0"}}, {"uniqueid": "MTK1000:3ZR9AIQJUCGLFS3DSZM68YAIJ4F40L", "current_trial": 12, "dateTime": 1512960798168, "trialdata": {"rt": -1, "stimulus": "<p id=\"stim\">8</p>", "key_press": -1, "trial_type": "single-stim", "trial_index": 12, "time_elapsed": 156085, "internal_node_id": "0.0-10.0-2.0"}}, {"uniqueid": "MTK1000:3ZR9AIQJUCGLFS3DSZM68YAIJ4F40L", "current_trial": 13, "dateTime": 1512960799168, "trialdata": {"rt": -1, "stimulus": "<p id=\"stim\">7</p>", "key_press": -1, "trial_type": "single-stim", "trial_index": 13, "time_elapsed": 157085, "internal_node_id": "0.0-10.0-3.0"}}, {"uniqueid": "MTK1000:3ZR9AIQJUCGLFS3DSZM68YAIJ4F40L", "current_trial": 14, "dateTime": 1512960800168, "trialdata": {"rt": -1, "stimulus": "<p id=\"stim\">6</p>", "key_press": -1, "trial_type": "single-stim", "trial_index": 14, "time_elapsed": 158085, "internal_node_id": "0.0-10.0-4.0"}}, {"uniqueid": "MTK1000:3ZR9AIQJUCGLFS3DSZM68YAIJ4F40L", "current_trial": 15, "dateTime": 1512960801169, "trialdata": {"rt": -1, "stimulus": "<p id=\"stim\">5</p>", "key_press": -1, "trial_type": "single-stim", "trial_index": 15, "time_elapsed": 159086, "internal_node_id": "0.0-10.0-5.0"}}, {"uniqueid": "MTK1000:3ZR9AIQJUCGLFS3DSZM68YAIJ4F40L", "current_trial": 16, "dateTime": 1512960802170, "trialdata": {"rt": -1, "stimulus": "<p id=\"stim\">4</p>", "key_press": -1, "trial_type": "single-stim", "trial_index": 16, "time_elapsed": 160087, "internal_node_id": "0.0-10.0-6.0"}}, {"uniqueid": "MTK1000:3ZR9AIQJUCGLFS3DSZM68YAIJ4F40L", "current_trial": 17, "dateTime": 1512960803171, "trialdata": {"rt": -1, "stimulus": "<p id=\"stim\">3</p>", "key_press": -1, "trial_type": "single-stim", "trial_index": 17, "time_elapsed": 161088, "internal_node_id": "0.0-10.0-7.0"}}, {"uniqueid": "MTK1000:3ZR9AIQJUCGLFS3DSZM68YAIJ4F40L", "current_trial": 18, "dateTime": 1512960804173, "trialdata": {"rt": -1, "stimulus": "<p id=\"stim\">2</p>", "key_press": -1, "trial_type": "single-stim", "trial_index": 18, "time_elapsed": 162089, "internal_node_id": "0.0-10.0-8.0"}}, {"uniqueid": "MTK1000:3ZR9AIQJUCGLFS3DSZM68YAIJ4F40L", "current_trial": 19, "dateTime": 1512960805173, "trialdata": {"rt": -1, "stimulus": "<p id=\"stim\">1</p>", "key_press": -1, "trial_type": "single-stim", "trial_index": 19, "time_elapsed": 163090, "internal_node_id": "0.0-10.0-9.0"}}, {"uniqueid": "MTK1000:3ZR9AIQJUCGLFS3DSZM68YAIJ4F40L", "current_trial": 20, "dateTime": 1512960806678, "trialdata": {"rt": -1, "stimulus": "<p id=\"stim\">+</p>", "key_press": -1, "type": "FIXATION", "trial_type": "single-stim", "trial_index": 20, "time_elapsed": 164595, "internal_node_id": "0.0-11.0-0.0"}}, {"uniqueid": "MTK1000:3ZR9AIQJUCGLFS3DSZM68YAIJ4F40L", "current_trial": 21, "dateTime": 1512960808764, "trialdata": {"rt": -1000, "stimulus": "/static/audio/wordpool/DONOR.wav", "key_press": -1, "type": "PRES_AUD", "word": "donor", "wordID": 484, "conditions": [18, 1200, "a", 18000], "trial": 0, "serialpos": 0, "trial_type": "single-audio", "trial_index": 21, "time_elapsed": 166681, "internal_node_id": "0.0-12.0"}}, {"uniqueid": "MTK1000:3ZR9AIQJUCGLFS3DSZM68YAIJ4F40L", "current_trial": 22, "dateTime": 1512960810874, "trialdata": {"rt": -1000, "stimulus": "/static/audio/wordpool/REBEL.wav", "key_press": -1, "type": "PRES_AUD", "word": "rebel", "wordID": 1171, "conditions": [18, 1200, "a", 18000], "trial": 0, "serialpos": 1, "trial_type": "single-audio", "trial_index": 22, "time_elapsed": 168791, "internal_node_id": "0.0-13.0"}}, {"uniqueid": "MTK1000:3ZR9AIQJUCGLFS3DSZM68YAIJ4F40L", "current_trial": 23, "dateTime": 1512960812939, "trialdata": {"rt": -1000, "stimulus": "/static/audio/wordpool/MOTOR.wav", "key_press": -1, "type": "PRES_AUD", "word": "motor", "wordID": 921, "conditions": [18, 1200, "a", 18000], "trial": 0, "serialpos": 2, "trial_type": "single-audio", "trial_index": 23, "time_elapsed": 170856, "internal_node_id": "0.0-14.0"}}, {"uniqueid": "MTK1000:3ZR9AIQJUCGLFS3DSZM68YAIJ4F40L", "current_trial": 24, "dateTime": 1512960815046, "trialdata": {"rt": -1000, "stimulus": "/static/audio/wordpool/PUDDLE.wav", "key_press": -1, "type": "PRES_AUD", "word": "puddle", "wordID": 1139, "conditions": [18, 1200, "a", 18000], "trial": 0, "serialpos": 3, "trial_type": "single-audio", "trial_index": 24, "time_elapsed": 172963, "internal_node_id": "0.0-15.0"}}, {"uniqueid": "MTK1000:3ZR9AIQJUCGLFS3DSZM68YAIJ4F40L", "current_trial": 25, "dateTime": 1512960817350, "trialdata": {"rt": -1000, "stimulus": "/static/audio/wordpool/SPONGE.wav", "key_press": -1, "type": "PRES_AUD", "word": "sponge", "wordID": 1354, "conditions": [18, 1200, "a", 18000], "trial": 0, "serialpos": 4, "trial_type": "single-audio", "trial_index": 25, "time_elapsed": 175267, "internal_node_id": "0.0-16.0"}}, {"uniqueid": "MTK1000:3ZR9AIQJUCGLFS3DSZM68YAIJ4F40L", "current_trial": 26, "dateTime": 1512960819429, "trialdata": {"rt": -1000, "stimulus": "/static/audio/wordpool/TWISTER.wav", "key_press": -1, "type": "PRES_AUD", "word": "twister", "wordID": 1529, "conditions": [18, 1200, "a", 18000], "trial": 0, "serialpos": 5, "trial_type": "single-audio", "trial_index": 26, "time_elapsed": 177346, "internal_node_id": "0.0-17.0"}}, {"uniqueid": "MTK1000:3ZR9AIQJUCGLFS3DSZM68YAIJ4F40L", "current_trial": 27, "dateTime": 1512960821746, "trialdata": {"rt": -1000, "stimulus": "/static/audio/wordpool/ONION.wav", "key_press": -1, "type": "PRES_AUD", "word": "onion", "wordID": 976, "conditions": [18, 1200, "a", 18000], "trial": 0, "serialpos": 6, "trial_type": "single-audio", "trial_index": 27, "time_elapsed": 179663, "internal_node_id": "0.0-18.0"}}, {"uniqueid": "MTK1000:3ZR9AIQJUCGLFS3DSZM68YAIJ4F40L", "current_trial": 28, "dateTime": 1512960823964, "trialdata": {"rt": -1000, "stimulus": "/static/audio/wordpool/CHEMIST.wav", "key_press": -1, "type": "PRES_AUD", "word": "chemist", "wordID": 291, "conditions": [18, 1200, "a", 18000], "trial": 0, "serialpos": 7, "trial_type": "single-audio", "trial_index": 28, "time_elapsed": 181881, "internal_node_id": "0.0-19.0"}}, {"uniqueid": "MTK1000:3ZR9AIQJUCGLFS3DSZM68YAIJ4F40L", "current_trial": 29, "dateTime": 1512960826296, "trialdata": {"rt": -1000, "stimulus": "/static/audio/wordpool/WAITRESS.wav", "key_press": -1, "type": "PRES_AUD", "word": "waitress", "wordID": 1580, "conditions": [18, 1200, "a", 18000], "trial": 0, "serialpos": 8, "trial_type": "single-audio", "trial_index": 29, "time_elapsed": 184213, "internal_node_id": "0.0-20.0"}}, {"uniqueid": "MTK1000:3ZR9AIQJUCGLFS3DSZM68YAIJ4F40L", "current_trial": 30, "dateTime": 1512960828390, "trialdata": {"rt": -1000, "stimulus": "/static/audio/wordpool/APPLE.wav", "key_press": -1, "type": "PRES_AUD", "word": "apple", "wordID": 32, "conditions": [18, 1200, "a", 18000], "trial": 0, "serialpos": 9, "trial_type": "single-audio", "trial_index": 30, "time_elapsed": 186307, "internal_node_id": "0.0-21.0"}}, {"uniqueid": "MTK1000:3ZR9AIQJUCGLFS3DSZM68YAIJ4F40L", "current_trial": 31, "dateTime": 1512960830703, "trialdata": {"rt": -1000, "stimulus": "/static/audio/wordpool/SALAD.wav", "key_press": -1, "type": "PRES_AUD", "word": "salad", "wordID": 1223, "conditions": [18, 1200, "a", 18000], "trial": 0, "serialpos": 10, "trial_type": "single-audio", "trial_index": 31, "time_elapsed": 188620, "internal_node_id": "0.0-22.0"}}, {"uniqueid": "MTK1000:3ZR9AIQJUCGLFS3DSZM68YAIJ4F40L", "current_trial": 32, "dateTime": 1512960832975, "trialdata": {"rt": -1000, "stimulus": "/static/audio/wordpool/PEANUT.wav", "key_press": -1, "type": "PRES_AUD", "word": "peanut", "wordID": 1031, "conditions": [18, 1200, "a", 18000], "trial": 0, "serialpos": 11, "trial_type": "single-audio", "trial_index": 32, "time_elapsed": 190892, "internal_node_id": "0.0-23.0"}}, {"uniqueid": "MTK1000:3ZR9AIQJUCGLFS3DSZM68YAIJ4F40L", "current_trial": 33, "dateTime": 1512960835061, "trialdata": {"rt": -1000, "stimulus": "/static/audio/wordpool/ROBIN.wav", "key_press": -1, "type": "PRES_AUD", "word": "robin", "wordID": 1198, "conditions": [18, 1200, "a", 18000], "trial": 0, "serialpos": 12, "trial_type": "single-audio", "trial_index": 33, "time_elapsed": 192978, "internal_node_id": "0.0-24.0"}}, {"uniqueid": "MTK1000:3ZR9AIQJUCGLFS3DSZM68YAIJ4F40L", "current_trial": 34, "dateTime": 1512960837228, "trialdata": {"rt": -1000, "stimulus": "/static/audio/wordpool/GHETTO.wav", "key_press": -1, "type": "PRES_AUD", "word": "ghetto", "wordID": 632, "conditions": [18, 1200, "a", 18000], "trial": 0, "serialpos": 13, "trial_type": "single-audio", "trial_index": 34, "time_elapsed": 195145, "internal_node_id": "0.0-25.0"}}, {"uniqueid": "MTK1000:3ZR9AIQJUCGLFS3DSZM68YAIJ4F40L", "current_trial": 35, "dateTime": 1512960839590, "trialdata": {"rt": -1000, "stimulus": "/static/audio/wordpool/DASHBOARD.wav", "key_press": -1, "type": "PRES_AUD", "word": "dashboard", "wordID": 440, "conditions": [18, 1200, "a", 18000], "trial": 0, "serialpos": 14, "trial_type": "single-audio", "trial_index": 35, "time_elapsed": 197507, "internal_node_id": "0.0-26.0"}}, {"uniqueid": "MTK1000:3ZR9AIQJUCGLFS3DSZM68YAIJ4F40L", "current_trial": 36, "dateTime": 1512960841600, "trialdata": {"rt": -1000, "stimulus": "/static/audio/wordpool/PLASTER.wav", "key_press": -1, "type": "PRES_AUD", "word": "plaster", "wordID": 1084, "conditions": [18, 1200, "a", 18000], "trial": 0, "serialpos": 15, "trial_type": "single-audio", "trial_index": 36, "time_elapsed": 199517, "internal_node_id": "0.0-27.0"}}, {"uniqueid": "MTK1000:3ZR9AIQJUCGLFS3DSZM68YAIJ4F40L", "current_trial": 37, "dateTime": 1512960843969, "trialdata": {"rt": -1000, "stimulus": "/static/audio/wordpool/STOMACH.wav", "key_press": -1, "type": "PRES_AUD", "word": "stomach", "wordID": 1383, "conditions": [18, 1200, "a", 18000], "trial": 0, "serialpos": 16, "trial_type": "single-audio", "trial_index": 37, "time_elapsed": 201886, "internal_node_id": "0.0-28.0"}}, {"uniqueid": "MTK1000:3ZR9AIQJUCGLFS3DSZM68YAIJ4F40L", "current_trial": 38, "dateTime": 1512960846072, "trialdata": {"rt": -1000, "stimulus": "/static/audio/wordpool/GYMNAST.wav", "key_press": -1, "type": "PRES_AUD", "word": "gymnast", "wordID": 674, "conditions": [18, 1200, "a", 18000], "trial": 0, "serialpos": 17, "trial_type": "single-audio", "trial_index": 38, "time_elapsed": 203989, "internal_node_id": "0.0-29.0"}}, {"uniqueid": "MTK1000:3ZR9AIQJUCGLFS3DSZM68YAIJ4F40L", "current_trial": 39, "dateTime": 1512960847467, "trialdata": {"rt": -1, "stimulus": "", "key_press": -1, "type": "PRE_RECALL_DELAY", "trial_type": "single-stim", "trial_index": 39, "time_elapsed": 205383, "internal_node_id": "0.0-30.0-0.0"}}, {"uniqueid": "MTK1000:3ZR9AIQJUCGLFS3DSZM68YAIJ4F40L", "current_trial": 40, "dateTime": 1512960847969, "trialdata": {"rt": -1000, "stimulus": "/static/audio/400Hz.wav", "key_press": -1, "type": "PRE_RECALL_ALERT", "trial_type": "single-audio", "trial_index": 40, "time_elapsed": 205886, "internal_node_id": "0.0-31.0"}}, {"uniqueid": "MTK1000:3ZR9AIQJUCGLFS3DSZM68YAIJ4F40L", "current_trial": 41, "dateTime": 1512960907977, "trialdata": {"rt": [3491, 5547, 6763, 10309, 16675], "recwords": ["onion", "waitress", "spice", "gymnast", "stomach"], "type": "FREE_RECALL", "conditions": [18, 1200, "a", 18000], "trial": 0, "trial_type": "free-recall", "trial_index": 41, "time_elapsed": 265891, "internal_node_id": "0.0-32.0-0.0"}}, {"uniqueid": "MTK1000:3ZR9AIQJUCGLFS3DSZM68YAIJ4F40L", "current_trial": 42, "dateTime": 1512961007760, "trialdata": {"rt": 97782, "key_press": 32, "type": "INSTRUCTIONS", "trial_type": "text", "trial_index": 42, "time_elapsed": 365677, "internal_node_id": "0.0-33.0"}}, {"uniqueid": "MTK1000:3ZR9AIQJUCGLFS3DSZM68YAIJ4F40L", "current_trial": 43, "dateTime": 1512961027768, "trialdata": {"rt": [8033, 9561, 12241, 14977, 17681], "responses": ["14", "11", "10", "12", "16"], "num1": [3, 1, 3, 2, 1, 2], "num2": [8, 8, 4, 7, 7, 6], "num3": [3, 2, 3, 2, 8, 3], "type": "DISTRACTOR", "conditions": [18, 1200, "v", 18000], "trial": 1, "trial_type": "math-distractor", "trial_index": 43, "time_elapsed": 385685, "internal_node_id": "0.0-34.0"}}, {"uniqueid": "MTK1000:3ZR9AIQJUCGLFS3DSZM68YAIJ4F40L", "current_trial": 44, "dateTime": 1512961030768, "trialdata": {"rt": -1, "stimulus": "<p id=\"stim\">10</p>", "key_press": -1, "trial_type": "single-stim", "trial_index": 44, "time_elapsed": 388685, "internal_node_id": "0.0-35.0-0.0"}}, {"uniqueid": "MTK1000:3ZR9AIQJUCGLFS3DSZM68YAIJ4F40L", "current_trial": 45, "dateTime": 1512961031769, "trialdata": {"rt": -1, "stimulus": "<p id=\"stim\">9</p>", "key_press": -1, "trial_type": "single-stim", "trial_index": 45, "time_elapsed": 389686, "internal_node_id": "0.0-35.0-1.0"}}, {"uniqueid": "MTK1000:3ZR9AIQJUCGLFS3DSZM68YAIJ4F40L", "current_trial": 46, "dateTime": 1512961032770, "trialdata": {"rt": -1, "stimulus": "<p id=\"stim\">8</p>", "key_press": -1, "trial_type": "single-stim", "trial_index": 46, "time_elapsed": 390687, "internal_node_id": "0.0-35.0-2.0"}}, {"uniqueid": "MTK1000:3ZR9AIQJUCGLFS3DSZM68YAIJ4F40L", "current_trial": 47, "dateTime": 1512961033771, "trialdata": {"rt": -1, "stimulus": "<p id=\"stim\">7</p>", "key_press": -1, "trial_type": "single-stim", "trial_index": 47, "time_elapsed": 391688, "internal_node_id": "0.0-35.0-3.0"}}, {"uniqueid": "MTK1000:3ZR9AIQJUCGLFS3DSZM68YAIJ4F40L", "current_trial": 48, "dateTime": 1512961034772, "trialdata": {"rt": -1, "stimulus": "<p id=\"stim\">6</p>", "key_press": -1, "trial_type": "single-stim", "trial_index": 48, "time_elapsed": 392689, "internal_node_id": "0.0-35.0-4.0"}}, {"uniqueid": "MTK1000:3ZR9AIQJUCGLFS3DSZM68YAIJ4F40L", "current_trial": 49, "dateTime": 1512961035773, "trialdata": {"rt": -1, "stimulus": "<p id=\"stim\">5</p>", "key_press": -1, "trial_type": "single-stim", "trial_index": 49, "time_elapsed": 393690, "internal_node_id": "0.0-35.0-5.0"}}, {"uniqueid": "MTK1000:3ZR9AIQJUCGLFS3DSZM68YAIJ4F40L", "current_trial": 50, "dateTime": 1512961036774, "trialdata": {"rt": -1, "stimulus": "<p id=\"stim\">4</p>", "key_press": -1, "trial_type": "single-stim", "trial_index": 50, "time_elapsed": 394691, "internal_node_id": "0.0-35.0-6.0"}}, {"uniqueid": "MTK1000:3ZR9AIQJUCGLFS3DSZM68YAIJ4F40L", "current_trial": 51, "dateTime": 1512961037775, "trialdata": {"rt": -1, "stimulus": "<p id=\"stim\">3</p>", "key_press": -1, "trial_type": "single-stim", "trial_index": 51, "time_elapsed": 395692, "internal_node_id": "0.0-35.0-7.0"}}, {"uniqueid": "MTK1000:3ZR9AIQJUCGLFS3DSZM68YAIJ4F40L", "current_trial": 52, "dateTime": 1512961038777, "trialdata": {"rt": -1, "stimulus": "<p id=\"stim\">2</p>", "key_press": -1, "trial_type": "single-stim", "trial_index": 52, "time_elapsed": 396694, "internal_node_id": "0.0-35.0-8.0"}}, {"uniqueid": "MTK1000:3ZR9AIQJUCGLFS3DSZM68YAIJ4F40L", "current_trial": 53, "dateTime": 1512961039781, "trialdata": {"rt": -1, "stimulus": "<p id=\"stim\">1</p>", "key_press": -1, "trial_type": "single-stim", "trial_index": 53, "time_elapsed": 397698, "internal_node_id": "0.0-35.0-9.0"}}, {"uniqueid": "MTK1000:3ZR9AIQJUCGLFS3DSZM68YAIJ4F40L", "current_trial": 54, "dateTime": 1512961041282, "trialdata": {"rt": -1, "stimulus": "<p id=\"stim\">+</p>", "key_press": -1, "type": "FIXATION", "trial_type": "single-stim", "trial_index": 54, "time_elapsed": 399199, "internal_node_id": "0.0-36.0-0.0"}}, {"uniqueid": "MTK1000:3ZR9AIQJUCGLFS3DSZM68YAIJ4F40L", "current_trial": 55, "dateTime": 1512961042483, "trialdata": {"rt": -1, "stimulus": "<p id=\"stim\">LACE</p>", "key_press": -1, "type": "PRES_VIS", "word": "lace", "wordID": 791, "conditions": [18, 1200, "v", 18000], "trial": 1, "serialpos": 0, "trial_type": "single-stim", "trial_index": 55, "time_elapsed": 400400, "internal_node_id": "0.0-37.0"}}, {"uniqueid": "MTK1000:3ZR9AIQJUCGLFS3DSZM68YAIJ4F40L", "current_trial": 56, "dateTime": 1512961044786, "trialdata": {"rt": -1, "stimulus": "<p id=\"stim\">CHAMPAGNE</p>", "key_press": -1, "type": "PRES_VIS", "word": "champagne", "wordID": 277, "conditions": [18, 1200, "v", 18000], "trial": 1, "serialpos": 1, "trial_type": "single-stim", "trial_index": 56, "time_elapsed": 402703, "internal_node_id": "0.0-38.0"}}, {"uniqueid": "MTK1000:3ZR9AIQJUCGLFS3DSZM68YAIJ4F40L", "current_trial": 57, "dateTime": 1512961046934, "trialdata": {"rt": -1, "stimulus": "<p id=\"stim\">SCALLOP</p>", "key_press": -1, "type": "PRES_VIS", "word": "scallop", "wordID": 1241, "conditions": [18, 1200, "v", 18000], "trial": 1, "serialpos": 2, "trial_type": "single-stim", "trial_index": 57, "time_elapsed": 404851, "internal_node_id": "0.0-39.0"}}, {"uniqueid": "MTK1000:3ZR9AIQJUCGLFS3DSZM68YAIJ4F40L", "current_trial": 58, "dateTime": 1512961048966, "trialdata": {"rt": -1, "stimulus": "<p id=\"stim\">LEOPARD</p>", "key_press": -1, "type": "PRES_VIS", "word": "leopard", "wordID": 811, "conditions": [18, 1200, "v", 18000], "trial": 1, "serialpos": 3, "trial_type": "single-stim", "trial_index": 58, "time_elapsed": 406883, "internal_node_id": "0.0-40.0"}}, {"uniqueid": "MTK1000:3ZR9AIQJUCGLFS3DSZM68YAIJ4F40L", "current_trial": 59, "dateTime": 1512961051100, "trialdata": {"rt": -1, "stimulus": "<p id=\"stim\">FRANCE</p>", "key_press": -1, "type": "PRES_VIS", "word": "france", "wordID": 600, "conditions": [18, 1200, "v", 18000], "trial": 1, "serialpos": 4, "trial_type": "single-stim", "trial_index": 59, "time_elapsed": 409017, "internal_node_id": "0.0-41.0"}}, {"uniqueid": "MTK1000:3ZR9AIQJUCGLFS3DSZM68YAIJ4F40L", "current_trial": 60, "dateTime": 1512961053401, "trialdata": {"rt": -1, "stimulus": "<p id=\"stim\">RUG</p>", "key_press": -1, "type": "PRES_VIS", "word": "rug", "wordID": 1214, "conditions": [18, 1200, "v", 18000], "trial": 1, "serialpos": 5, "trial_type": "single-stim", "trial_index": 60, "time_elapsed": 411318, "internal_node_id": "0.0-42.0"}}, {"uniqueid": "MTK1000:3ZR9AIQJUCGLFS3DSZM68YAIJ4F40L", "current_trial": 61, "dateTime": 1512961055737, "trialdata": {"rt": -1, "stimulus": "<p id=\"stim\">GRAPE</p>", "key_press": -1, "type": "PRES_VIS", "word": "grape", "wordID": 653, "conditions": [18, 1200, "v", 18000], "trial": 1, "serialpos": 6, "trial_type": "single-stim", "trial_index": 61, "time_elapsed": 413654, "internal_node_id": "0.0-43.0"}}, {"uniqueid": "MTK1000:3ZR9AIQJUCGLFS3DSZM68YAIJ4F40L", "current_trial": 62, "dateTime": 1512961058031, "trialdata": {"rt": -1, "stimulus": "<p id=\"stim\">POCKET</p>", "key_press": -1, "type": "PRES_VIS", "word": "pocket", "wordID": 1092, "conditions": [18, 1200, "v", 18000], "trial": 1, "serialpos": 7, "trial_type": "single-stim", "trial_index": 62, "time_elapsed": 415948, "internal_node_id": "0.0-44.0"}}, {"uniqueid": "MTK1000:3ZR9AIQJUCGLFS3DSZM68YAIJ4F40L", "current_trial": 63, "dateTime": 1512961060413, "trialdata": {"rt": -1, "stimulus": "<p id=\"stim\">SISTER</p>", "key_press": -1, "type": "PRES_VIS", "word": "sister", "wordID": 1311, "conditions": [18, 1200, "v", 18000], "trial": 1, "serialpos": 8, "trial_type": "single-stim", "trial_index": 63, "time_elapsed": 418330, "internal_node_id": "0.0-45.0"}}, {"uniqueid": "MTK1000:3ZR9AIQJUCGLFS3DSZM68YAIJ4F40L", "current_trial": 64, "dateTime": 1512961062587, "trialdata": {"rt": -1, "stimulus": "<p id=\"stim\">TURKEY</p>", "key_press": -1, "type": "PRES_VIS", "word": "turkey", "wordID": 1519, "conditions": [18, 1200, "v", 18000], "trial": 1, "serialpos": 9, "trial_type": "single-stim", "trial_index": 64, "time_elapsed": 420503, "internal_node_id": "0.0-46.0"}}, {"uniqueid": "MTK1000:3ZR9AIQJUCGLFS3DSZM68YAIJ4F40L", "current_trial": 65, "dateTime": 1512961064941, "trialdata": {"rt": -1, "stimulus": "<p id=\"stim\">CAFE</p>", "key_press": -1, "type": "PRES_VIS", "word": "cafe", "wordID": 215, "conditions": [18, 1200, "v", 18000], "trial": 1, "serialpos": 10, "trial_type": "single-stim", "trial_index": 65, "time_elapsed": 422858, "internal_node_id": "0.0-47.0"}}, {"uniqueid": "MTK1000:3ZR9AIQJUCGLFS3DSZM68YAIJ4F40L", "current_trial": 66, "dateTime": 1512961067239, "trialdata": {"rt": -1, "stimulus": "<p id=\"stim\">WORKER</p>", "key_press": -1, "type": "PRES_VIS", "word": "worker", "wordID": 1620, "conditions": [18, 1200, "v", 18000], "trial": 1, "serialpos": 11, "trial_type": "single-stim", "trial_index": 66, "time_elapsed": 425156, "internal_node_id": "0.0-48.0"}}, {"uniqueid": "MTK1000:3ZR9AIQJUCGLFS3DSZM68YAIJ4F40L", "current_trial": 67, "dateTime": 1512961069313, "trialdata": {"rt": -1, "stimulus": "<p id=\"stim\">TURNIP</p>", "key_press": -1, "type": "PRES_VIS", "word": "turnip", "wordID": 1520, "conditions": [18, 1200, "v", 18000], "trial": 1, "serialpos": 12, "trial_type": "single-stim", "trial_index": 67, "time_elapsed": 427230, "internal_node_id": "0.0-49.0"}}, {"uniqueid": "MTK1000:3ZR9AIQJUCGLFS3DSZM68YAIJ4F40L", "current_trial": 68, "dateTime": 1512961071515, "trialdata": {"rt": -1, "stimulus": "<p id=\"stim\">MILK</p>", "key_press": -1, "type": "PRES_VIS", "word": "milk", "wordID": 894, "conditions": [18, 1200, "v", 18000], "trial": 1, "serialpos": 13, "trial_type": "single-stim", "trial_index": 68, "time_elapsed": 429430, "internal_node_id": "0.0-50.0"}}, {"uniqueid": "MTK1000:3ZR9AIQJUCGLFS3DSZM68YAIJ4F40L", "current_trial": 69, "dateTime": 1512961073885, "trialdata": {"rt": -1, "stimulus": "<p id=\"stim\">MARINE</p>", "key_press": -1, "type": "PRES_VIS", "word": "marine", "wordID": 868, "conditions": [18, 1200, "v", 18000], "trial": 1, "serialpos": 14, "trial_type": "single-stim", "trial_index": 69, "time_elapsed": 431802, "internal_node_id": "0.0-51.0"}}, {"uniqueid": "MTK1000:3ZR9AIQJUCGLFS3DSZM68YAIJ4F40L", "current_trial": 70, "dateTime": 1512961075966, "trialdata": {"rt": -1, "stimulus": "<p id=\"stim\">ISLAND</p>", "key_press": -1, "type": "PRES_VIS", "word": "island", "wordID": 744, "conditions": [18, 1200, "v", 18000], "trial": 1, "serialpos": 15, "trial_type": "single-stim", "trial_index": 70, "time_elapsed": 433883, "internal_node_id": "0.0-52.0"}}, {"uniqueid": "MTK1000:3ZR9AIQJUCGLFS3DSZM68YAIJ4F40L", "current_trial": 71, "dateTime": 1512961078287, "trialdata": {"rt": -1, "stimulus": "<p id=\"stim\">BACON</p>", "key_press": -1, "type": "PRES_VIS", "word": "bacon", "wordID": 66, "conditions": [18, 1200, "v", 18000], "trial": 1, "serialpos": 16, "trial_type": "single-stim", "trial_index": 71, "time_elapsed": 436204, "internal_node_id": "0.0-53.0"}}, {"uniqueid": "MTK1000:3ZR9AIQJUCGLFS3DSZM68YAIJ4F40L", "current_trial": 72, "dateTime": 1512961080529, "trialdata": {"rt": -1, "stimulus": "<p id=\"stim\">BREAST</p>", "key_press": -1, "type": "PRES_VIS", "word": "breast", "wordID": 170, "conditions": [18, 1200, "v", 18000], "trial": 1, "serialpos": 17, "trial_type": "single-stim", "trial_index": 72, "time_elapsed": 438446, "internal_node_id": "0.0-54.0"}}, {"uniqueid": "MTK1000:3ZR9AIQJUCGLFS3DSZM68YAIJ4F40L", "current_trial": 73, "dateTime": 1512961082647, "trialdata": {"rt": -1, "stimulus": "", "key_press": -1, "type": "PRE_RECALL_DELAY", "trial_type": "single-stim", "trial_index": 73, "time_elapsed": 440564, "internal_node_id": "0.0-55.0-0.0"}}, {"uniqueid": "MTK1000:3ZR9AIQJUCGLFS3DSZM68YAIJ4F40L", "current_trial": 74, "dateTime": 1512961083148, "trialdata": {"rt": -1000, "stimulus": "/static/audio/400Hz.wav", "key_press": -1, "type": "PRE_RECALL_ALERT", "trial_type": "single-audio", "trial_index": 74, "time_elapsed": 441065, "internal_node_id": "0.0-56.0"}}, {"uniqueid": "MTK1000:3ZR9AIQJUCGLFS3DSZM68YAIJ4F40L", "current_trial": 75, "dateTime": 1512961143151, "trialdata": {"rt": [7931, 9148, 10917, 13091, 19466, 21723, 23691], "recwords": ["rug", "grape", "turkey", "cafe", "worker", "turnip", "milk"], "type": "FREE_RECALL", "conditions": [18, 1200, "v", 18000], "trial": 1, "trial_type": "free-recall", "trial_index": 75, "time_elapsed": 501066, "internal_node_id": "0.0-57.0-0.0"}}, {"uniqueid": "MTK1000:3ZR9AIQJUCGLFS3DSZM68YAIJ4F40L", "current_trial": 76, "dateTime": 1512961170107, "trialdata": {"rt": 24951, "key_press": 32, "type": "INSTRUCTIONS", "trial_type": "text", "trial_index": 76, "time_elapsed": 528020, "internal_node_id": "0.0-58.0"}}, {"uniqueid": "MTK1000:3ZR9AIQJUCGLFS3DSZM68YAIJ4F40L", "current_trial": 77, "dateTime": 1512961195110, "trialdata": {"rt": [4339, 7283, 9555, 11275, 12659, 14676, 15972, 21092, 22940], "responses": ["15", "18", "22", "14", "18", "7", "4", "22", "22"], "num1": [4, 4, 6, 7, 8, 3, 1, 6, 6, 1], "num2": [7, 9, 7, 4, 7, 1, 2, 9, 8, 3], "num3": [4, 5, 7, 3, 3, 3, 1, 9, 7, 7], "type": "DISTRACTOR", "conditions": [24, 800, "a", 24000], "trial": 2, "trial_type": "math-distractor", "trial_index": 77, "time_elapsed": 553027, "internal_node_id": "0.0-59.0"}}, {"uniqueid": "MTK1000:3ZR9AIQJUCGLFS3DSZM68YAIJ4F40L", "current_trial": 78, "dateTime": 1512961198110, "trialdata": {"rt": -1, "stimulus": "<p id=\"stim\">10</p>", "key_press": -1, "trial_type": "single-stim", "trial_index": 78, "time_elapsed": 556027, "internal_node_id": "0.0-60.0-0.0"}}, {"uniqueid": "MTK1000:3ZR9AIQJUCGLFS3DSZM68YAIJ4F40L", "current_trial": 79, "dateTime": 1512961199110, "trialdata": {"rt": -1, "stimulus": "<p id=\"stim\">9</p>", "key_press": -1, "trial_type": "single-stim", "trial_index": 79, "time_elapsed": 557027, "internal_node_id": "0.0-60.0-1.0"}}, {"uniqueid": "MTK1000:3ZR9AIQJUCGLFS3DSZM68YAIJ4F40L", "current_trial": 80, "dateTime": 1512961200110, "trialdata": {"rt": -1, "stimulus": "<p id=\"stim\">8</p>", "key_press": -1, "trial_type": "single-stim", "trial_index": 80, "time_elapsed": 558027, "internal_node_id": "0.0-60.0-2.0"}}, {"uniqueid": "MTK1000:3ZR9AIQJUCGLFS3DSZM68YAIJ4F40L", "current_trial": 81, "dateTime": 1512961201111, "trialdata": {"rt": -1, "stimulus": "<p id=\"stim\">7</p>", "key_press": -1, "trial_type": "single-stim", "trial_index": 81, "time_elapsed": 559028, "internal_node_id": "0.0-60.0-3.0"}}, {"uniqueid": "MTK1000:3ZR9AIQJUCGLFS3DSZM68YAIJ4F40L", "current_trial": 82, "dateTime": 1512961202111, "trialdata": {"rt": -1, "stimulus": "<p id=\"stim\">6</p>", "key_press": -1, "trial_type": "single-stim", "trial_index": 82, "time_elapsed": 560028, "internal_node_id": "0.0-60.0-4.0"}}, {"uniqueid": "MTK1000:3ZR9AIQJUCGLFS3DSZM68YAIJ4F40L", "current_trial": 83, "dateTime": 1512961203113, "trialdata": {"rt": -1, "stimulus": "<p id=\"stim\">5</p>", "key_press": -1, "trial_type": "single-stim", "trial_index": 83, "time_elapsed": 561030, "internal_node_id": "0.0-60.0-5.0"}}, {"uniqueid": "MTK1000:3ZR9AIQJUCGLFS3DSZM68YAIJ4F40L", "current_trial": 84, "dateTime": 1512961204113, "trialdata": {"rt": -1, "stimulus": "<p id=\"stim\">4</p>", "key_press": -1, "trial_type": "single-stim", "trial_index": 84, "time_elapsed": 562030, "internal_node_id": "0.0-60.0-6.0"}}, {"uniqueid": "MTK1000:3ZR9AIQJUCGLFS3DSZM68YAIJ4F40L", "current_trial": 85, "dateTime": 1512961205115, "trialdata": {"rt": -1, "stimulus": "<p id=\"stim\">3</p>", "key_press": -1, "trial_type": "single-stim", "trial_index": 85, "time_elapsed": 563031, "internal_node_id": "0.0-60.0-7.0"}}, {"uniqueid": "MTK1000:3ZR9AIQJUCGLFS3DSZM68YAIJ4F40L", "current_trial": 86, "dateTime": 1512961206118, "trialdata": {"rt": -1, "stimulus": "<p id=\"stim\">2</p>", "key_press": -1, "trial_type": "single-stim", "trial_index": 86, "time_elapsed": 564034, "internal_node_id": "0.0-60.0-8.0"}}, {"uniqueid": "MTK1000:3ZR9AIQJUCGLFS3DSZM68YAIJ4F40L", "current_trial": 87, "dateTime": 1512961207118, "trialdata": {"rt": -1, "stimulus": "<p id=\"stim\">1</p>", "key_press": -1, "trial_type": "single-stim", "trial_index": 87, "time_elapsed": 565035, "internal_node_id": "0.0-60.0-9.0"}}, {"uniqueid": "MTK1000:3ZR9AIQJUCGLFS3DSZM68YAIJ4F40L", "current_trial": 88, "dateTime": 1512961208619, "trialdata": {"rt": -1, "stimulus": "<p id=\"stim\">+</p>", "key_press": -1, "type": "FIXATION", "trial_type": "single-stim", "trial_index": 88, "time_elapsed": 566536, "internal_node_id": "0.0-61.0-0.0"}}, {"uniqueid": "MTK1000:3ZR9AIQJUCGLFS3DSZM68YAIJ4F40L", "current_trial": 89, "dateTime": 1512961210583, "trialdata": {"rt": -1000, "stimulus": "/static/audio/wordpool/GARLIC.wav", "key_press": -1, "type": "PRES_AUD", "word": "garlic", "wordID": 623, "conditions": [24, 800, "a", 24000], "trial": 2, "serialpos": 0, "trial_type": "single-audio", "trial_index": 89, "time_elapsed": 568500, "internal_node_id": "0.0-62.0"}}, {"uniqueid": "MTK1000:3ZR9AIQJUCGLFS3DSZM68YAIJ4F40L", "current_trial": 90, "dateTime": 1512961212562, "trialdata": {"rt": -1000, "stimulus": "/static/audio/wordpool/GRILL.wav", "key_press": -1, "type": "PRES_AUD", "word": "grill", "wordID": 660, "conditions": [24, 800, "a", 24000], "trial": 2, "serialpos": 1, "trial_type": "single-audio", "trial_index": 90, "time_elapsed": 570479, "internal_node_id": "0.0-63.0"}}, {"uniqueid": "MTK1000:3ZR9AIQJUCGLFS3DSZM68YAIJ4F40L", "current_trial": 91, "dateTime": 1512961214491, "trialdata": {"rt": -1000, "stimulus": "/static/audio/wordpool/BOUQUET.wav", "key_press": -1, "type": "PRES_AUD", "word": "bouquet", "wordID": 156, "conditions": [24, 800, "a", 24000], "trial": 2, "serialpos": 2, "trial_type": "single-audio", "trial_index": 91, "time_elapsed": 572408, "internal_node_id": "0.0-64.0"}}, {"uniqueid": "MTK1000:3ZR9AIQJUCGLFS3DSZM68YAIJ4F40L", "current_trial": 92, "dateTime": 1512961216267, "trialdata": {"rt": -1000, "stimulus": "/static/audio/wordpool/CONCERT.wav", "key_press": -1, "type": "PRES_AUD", "word": "concert", "wordID": 359, "conditions": [24, 800, "a", 24000], "trial": 2, "serialpos": 3, "trial_type": "single-audio", "trial_index": 92, "time_elapsed": 574184, "internal_node_id": "0.0-65.0"}}, {"uniqueid": "MTK1000:3ZR9AIQJUCGLFS3DSZM68YAIJ4F40L", "current_trial": 93, "dateTime": 1512961218171, "trialdata": {"rt": -1000, "stimulus": "/static/audio/wordpool/RADISH.wav", "key_press": -1, "type": "PRES_AUD", "word": "radish", "wordID": 1157, "conditions": [24, 800, "a", 24000], "trial": 2, "serialpos": 4, "trial_type": "single-audio", "trial_index": 93, "time_elapsed": 576088, "internal_node_id": "0.0-66.0"}}, {"uniqueid": "MTK1000:3ZR9AIQJUCGLFS3DSZM68YAIJ4F40L", "current_trial": 94, "dateTime": 1512961219913, "trialdata": {"rt": -1000, "stimulus": "/static/audio/wordpool/PEBBLE.wav", "key_press": -1, "type": "PRES_AUD", "word": "pebble", "wordID": 1034, "conditions": [24, 800, "a", 24000], "trial": 2, "serialpos": 5, "trial_type": "single-audio", "trial_index": 94, "time_elapsed": 577830, "internal_node_id": "0.0-67.0"}}, {"uniqueid": "MTK1000:3ZR9AIQJUCGLFS3DSZM68YAIJ4F40L", "current_trial": 95, "dateTime": 1512961221767, "trialdata": {"rt": -1000, "stimulus": "/static/audio/wordpool/ICEBERG.wav", "key_press": -1, "type": "PRES_AUD", "word": "iceberg", "wordID": 730, "conditions": [24, 800, "a", 24000], "trial": 2, "serialpos": 6, "trial_type": "single-audio", "trial_index": 95, "time_elapsed": 579684, "internal_node_id": "0.0-68.0"}}, {"uniqueid": "MTK1000:3ZR9AIQJUCGLFS3DSZM68YAIJ4F40L", "current_trial": 96, "dateTime": 1512961223579, "trialdata": {"rt": -1000, "stimulus": "/static/audio/wordpool/APRON.wav", "key_press": -1, "type": "PRES_AUD", "word": "apron", "wordID": 34, "conditions": [24, 800, "a", 24000], "trial": 2, "serialpos": 7, "trial_type": "single-audio", "trial_index": 96, "time_elapsed": 581496, "internal_node_id": "0.0-69.0"}}, {"uniqueid": "MTK1000:3ZR9AIQJUCGLFS3DSZM68YAIJ4F40L", "current_trial": 97, "dateTime": 1512961225384, "trialdata": {"rt": -1000, "stimulus": "/static/audio/wordpool/LILY.wav", "key_press": -1, "type": "PRES_AUD", "word": "lily", "wordID": 820, "conditions": [24, 800, "a", 24000], "trial": 2, "serialpos": 8, "trial_type": "single-audio", "trial_index": 97, "time_elapsed": 583301, "internal_node_id": "0.0-70.0"}}, {"uniqueid": "MTK1000:3ZR9AIQJUCGLFS3DSZM68YAIJ4F40L", "current_trial": 98, "dateTime": 1512961227225, "trialdata": {"rt": -1000, "stimulus": "/static/audio/wordpool/SHRUB.wav", "key_press": -1, "type": "PRES_AUD", "word": "shrub", "wordID": 1298, "conditions": [24, 800, "a", 24000], "trial": 2, "serialpos": 9, "trial_type": "single-audio", "trial_index": 98, "time_elapsed": 585142, "internal_node_id": "0.0-71.0"}}, {"uniqueid": "MTK1000:3ZR9AIQJUCGLFS3DSZM68YAIJ4F40L", "current_trial": 99, "dateTime": 1512961229146, "trialdata": {"rt": -1000, "stimulus": "/static/audio/wordpool/STUDENT.wav", "key_press": -1, "type": "PRES_AUD", "word": "student", "wordID": 1394, "conditions": [24, 800, "a", 24000], "trial": 2, "serialpos": 10, "trial_type": "single-audio", "trial_index": 99, "time_elapsed": 587063, "internal_node_id": "0.0-72.0"}}, {"uniqueid": "MTK1000:3ZR9AIQJUCGLFS3DSZM68YAIJ4F40L", "current_trial": 100, "dateTime": 1512961230949, "trialdata": {"rt": -1000, "stimulus": "/static/audio/wordpool/STATUE.wav", "key_press": -1, "type": "PRES_AUD", "word": "statue", "wordID": 1373, "conditions": [24, 800, "a", 24000], "trial": 2, "serialpos": 11, "trial_type": "single-audio", "trial_index": 100, "time_elapsed": 588866, "internal_node_id": "0.0-73.0"}}, {"uniqueid": "MTK1000:3ZR9AIQJUCGLFS3DSZM68YAIJ4F40L", "current_trial": 101, "dateTime": 1512961232653, "trialdata": {"rt": -1000, "stimulus": "/static/audio/wordpool/CRIB.wav", "key_press": -1, "type": "PRES_AUD", "word": "crib", "wordID": 406, "conditions": [24, 800, "a", 24000], "trial": 2, "serialpos": 12, "trial_type": "single-audio", "trial_index": 101, "time_elapsed": 590570, "internal_node_id": "0.0-74.0"}}, {"uniqueid": "MTK1000:3ZR9AIQJUCGLFS3DSZM68YAIJ4F40L", "current_trial": 102, "dateTime": 1512961234307, "trialdata": {"rt": -1000, "stimulus": "/static/audio/wordpool/SKETCH.wav", "key_press": -1, "type": "PRES_AUD", "word": "sketch", "wordID": 1314, "conditions": [24, 800, "a", 24000], "trial": 2, "serialpos": 13, "trial_type": "single-audio", "trial_index": 102, "time_elapsed": 592224, "internal_node_id": "0.0-75.0"}}, {"uniqueid": "MTK1000:3ZR9AIQJUCGLFS3DSZM68YAIJ4F40L", "current_trial": 103, "dateTime": 1512961235990, "trialdata": {"rt": -1000, "stimulus": "/static/audio/wordpool/DUSTPAN.wav", "key_press": -1, "type": "PRES_AUD", "word": "dustpan", "wordID": 508, "conditions": [24, 800, "a", 24000], "trial": 2, "serialpos": 14, "trial_type": "single-audio", "trial_index": 103, "time_elapsed": 593907, "internal_node_id": "0.0-76.0"}}, {"uniqueid": "MTK1000:3ZR9AIQJUCGLFS3DSZM68YAIJ4F40L", "current_trial": 104, "dateTime": 1512961237870, "trialdata": {"rt": -1000, "stimulus": "/static/audio/wordpool/WIDOW.wav", "key_press": -1, "type": "PRES_AUD", "word": "widow", "wordID": 1607, "conditions": [24, 800, "a", 24000], "trial": 2, "serialpos": 15, "trial_type": "single-audio", "trial_index": 104, "time_elapsed": 595787, "internal_node_id": "0.0-77.0"}}, {"uniqueid": "MTK1000:3ZR9AIQJUCGLFS3DSZM68YAIJ4F40L", "current_trial": 105, "dateTime": 1512961239606, "trialdata": {"rt": -1000, "stimulus": "/static/audio/wordpool/HANDBAG.wav", "key_press": -1, "type": "PRES_AUD", "word": "handbag", "wordID": 683, "conditions": [24, 800, "a", 24000], "trial": 2, "serialpos": 16, "trial_type": "single-audio", "trial_index": 105, "time_elapsed": 597523, "internal_node_id": "0.0-78.0"}}, {"uniqueid": "MTK1000:3ZR9AIQJUCGLFS3DSZM68YAIJ4F40L", "current_trial": 106, "dateTime": 1512961241598, "trialdata": {"rt": -1000, "stimulus": "/static/audio/wordpool/SWIMMER.wav", "key_press": -1, "type": "PRES_AUD", "word": "swimmer", "wordID": 1419, "conditions": [24, 800, "a", 24000], "trial": 2, "serialpos": 17, "trial_type": "single-audio", "trial_index": 106, "time_elapsed": 599515, "internal_node_id": "0.0-79.0"}}, {"uniqueid": "MTK1000:3ZR9AIQJUCGLFS3DSZM68YAIJ4F40L", "current_trial": 107, "dateTime": 1512961243412, "trialdata": {"rt": -1000, "stimulus": "/static/audio/wordpool/PREACHER.wav", "key_press": -1, "type": "PRES_AUD", "word": "preacher", "wordID": 1118, "conditions": [24, 800, "a", 24000], "trial": 2, "serialpos": 18, "trial_type": "single-audio", "trial_index": 107, "time_elapsed": 601328, "internal_node_id": "0.0-80.0"}}, {"uniqueid": "MTK1000:3ZR9AIQJUCGLFS3DSZM68YAIJ4F40L", "current_trial": 108, "dateTime": 1512961245251, "trialdata": {"rt": -1000, "stimulus": "/static/audio/wordpool/MONSTER.wav", "key_press": -1, "type": "PRES_AUD", "word": "monster", "wordID": 911, "conditions": [24, 800, "a", 24000], "trial": 2, "serialpos": 19, "trial_type": "single-audio", "trial_index": 108, "time_elapsed": 603168, "internal_node_id": "0.0-81.0"}}, {"uniqueid": "MTK1000:3ZR9AIQJUCGLFS3DSZM68YAIJ4F40L", "current_trial": 109, "dateTime": 1512961247078, "trialdata": {"rt": -1000, "stimulus": "/static/audio/wordpool/BRIEFCASE.wav", "key_press": -1, "type": "PRES_AUD", "word": "briefcase", "wordID": 174, "conditions": [24, 800, "a", 24000], "trial": 2, "serialpos": 20, "trial_type": "single-audio", "trial_index": 109, "time_elapsed": 604995, "internal_node_id": "0.0-82.0"}}, {"uniqueid": "MTK1000:3ZR9AIQJUCGLFS3DSZM68YAIJ4F40L", "current_trial": 110, "dateTime": 1512961248690, "trialdata": {"rt": -1000, "stimulus": "/static/audio/wordpool/CLIMBER.wav", "key_press": -1, "type": "PRES_AUD", "word": "climber", "wordID": 322, "conditions": [24, 800, "a", 24000], "trial": 2, "serialpos": 21, "trial_type": "single-audio", "trial_index": 110, "time_elapsed": 606607, "internal_node_id": "0.0-83.0"}}, {"uniqueid": "MTK1000:3ZR9AIQJUCGLFS3DSZM68YAIJ4F40L", "current_trial": 111, "dateTime": 1512961250573, "trialdata": {"rt": -1000, "stimulus": "/static/audio/wordpool/HIKER.wav", "key_press": -1, "type": "PRES_AUD", "word": "hiker", "wordID": 707, "conditions": [24, 800, "a", 24000], "trial": 2, "serialpos": 22, "trial_type": "single-audio", "trial_index": 111, "time_elapsed": 608490, "internal_node_id": "0.0-84.0"}}, {"uniqueid": "MTK1000:3ZR9AIQJUCGLFS3DSZM68YAIJ4F40L", "current_trial": 112, "dateTime": 1512961252411, "trialdata": {"rt": -1000, "stimulus": "/static/audio/wordpool/POWDER.wav", "key_press": -1, "type": "PRES_AUD", "word": "powder", "wordID": 1116, "conditions": [24, 800, "a", 24000], "trial": 2, "serialpos": 23, "trial_type": "single-audio", "trial_index": 112, "time_elapsed": 610323, "internal_node_id": "0.0-85.0"}}, {"uniqueid": "MTK1000:3ZR9AIQJUCGLFS3DSZM68YAIJ4F40L", "current_trial": 113, "dateTime": 1512961253620, "trialdata": {"rt": -1, "stimulus": "", "key_press": -1, "type": "PRE_RECALL_DELAY", "trial_type": "single-stim", "trial_index": 113, "time_elapsed": 611537, "internal_node_id": "0.0-86.0-0.0"}}, {"uniqueid": "MTK1000:3ZR9AIQJUCGLFS3DSZM68YAIJ4F40L", "current_trial": 114, "dateTime": 1512961254121, "trialdata": {"rt": -1000, "stimulus": "/static/audio/400Hz.wav", "key_press": -1, "type": "PRE_RECALL_ALERT", "trial_type": "single-audio", "trial_index": 114, "time_elapsed": 612038, "internal_node_id": "0.0-87.0"}}, {"uniqueid": "MTK1000:3ZR9AIQJUCGLFS3DSZM68YAIJ4F40L", "current_trial": 115, "dateTime": 1512961314127, "trialdata": {"rt": [10724, 12324, 14540, 20564, 21827, 23764, 28522, 30052], "recwords": ["garlic", "grill", "concert", "radish", "pebble", "apron", "lily", "shrub"], "type": "FREE_RECALL", "conditions": [24, 800, "a", 24000], "trial": 2, "trial_type": "free-recall", "trial_index": 115, "time_elapsed": 672041, "internal_node_id": "0.0-88.0-0.0"}}, {"uniqueid": "MTK1000:3ZR9AIQJUCGLFS3DSZM68YAIJ4F40L", "current_trial": 116, "dateTime": 1512961347816, "trialdata": {"rt": 31688, "key_press": 32, "type": "INSTRUCTIONS", "trial_type": "text", "trial_index": 116, "time_elapsed": 705733, "internal_node_id": "0.0-89.0"}}, {"uniqueid": "MTK1000:3ZR9AIQJUCGLFS3DSZM68YAIJ4F40L", "current_trial": 117, "dateTime": 1512961373816, "trialdata": {"rt": [2863, 4655, 7143, 9503, 11982, 14782, 17766], "responses": ["16", "17", "18", "14", "87", "17", "20"], "num1": [4, 5, 3, 6, 1, 5, 4, 7], "num2": [5, 7, 9, 1, 5, 7, 9, 5], "num3": [7, 5, 6, 7, 2, 5, 7, 4], "type": "DISTRACTOR", "conditions": [12, 800, "v", 24000], "trial": 3, "trial_type": "math-distractor", "trial_index": 117, "time_elapsed": 731733, "internal_node_id": "0.0-90.0"}}, {"uniqueid": "MTK1000:3ZR9AIQJUCGLFS3DSZM68YAIJ4F40L", "current_trial": 118, "dateTime": 1512961376816, "trialdata": {"rt": -1, "stimulus": "<p id=\"stim\">10</p>", "key_press": -1, "trial_type": "single-stim", "trial_index": 118, "time_elapsed": 734733, "internal_node_id": "0.0-91.0-0.0"}}, {"uniqueid": "MTK1000:3ZR9AIQJUCGLFS3DSZM68YAIJ4F40L", "current_trial": 119, "dateTime": 1512961377816, "trialdata": {"rt": -1, "stimulus": "<p id=\"stim\">9</p>", "key_press": -1, "trial_type": "single-stim", "trial_index": 119, "time_elapsed": 735733, "internal_node_id": "0.0-91.0-1.0"}}, {"uniqueid": "MTK1000:3ZR9AIQJUCGLFS3DSZM68YAIJ4F40L", "current_trial": 120, "dateTime": 1512961378816, "trialdata": {"rt": -1, "stimulus": "<p id=\"stim\">8</p>", "key_press": -1, "trial_type": "single-stim", "trial_index": 120, "time_elapsed": 736733, "internal_node_id": "0.0-91.0-2.0"}}, {"uniqueid": "MTK1000:3ZR9AIQJUCGLFS3DSZM68YAIJ4F40L", "current_trial": 121, "dateTime": 1512961379818, "trialdata": {"rt": -1, "stimulus": "<p id=\"stim\">7</p>", "key_press": -1, "trial_type": "single-stim", "trial_index": 121, "time_elapsed": 737735, "internal_node_id": "0.0-91.0-3.0"}}, {"uniqueid": "MTK1000:3ZR9AIQJUCGLFS3DSZM68YAIJ4F40L", "current_trial": 122, "dateTime": 1512961380818, "trialdata": {"rt": -1, "stimulus": "<p id=\"stim\">6</p>", "key_press": -1, "trial_type": "single-stim", "trial_index": 122, "time_elapsed": 738735, "internal_node_id": "0.0-91.0-4.0"}}, {"uniqueid": "MTK1000:3ZR9AIQJUCGLFS3DSZM68YAIJ4F40L", "current_trial": 123, "dateTime": 1512961381821, "trialdata": {"rt": -1, "stimulus": "<p id=\"stim\">5</p>", "key_press": -1, "trial_type": "single-stim", "trial_index": 123, "time_elapsed": 739737, "internal_node_id": "0.0-91.0-5.0"}}, {"uniqueid": "MTK1000:3ZR9AIQJUCGLFS3DSZM68YAIJ4F40L", "current_trial": 124, "dateTime": 1512961382821, "trialdata": {"rt": -1, "stimulus": "<p id=\"stim\">4</p>", "key_press": -1, "trial_type": "single-stim", "trial_index": 124, "time_elapsed": 740738, "internal_node_id": "0.0-91.0-6.0"}}, {"uniqueid": "MTK1000:3ZR9AIQJUCGLFS3DSZM68YAIJ4F40L", "current_trial": 125, "dateTime": 1512961383822, "trialdata": {"rt": -1, "stimulus": "<p id=\"stim\">3</p>", "key_press": -1, "trial_type": "single-stim", "trial_index": 125, "time_elapsed": 741739, "internal_node_id": "0.0-91.0-7.0"}}, {"uniqueid": "MTK1000:3ZR9AIQJUCGLFS3DSZM68YAIJ4F40L", "current_trial": 126, "dateTime": 1512961384822, "trialdata": {"rt": -1, "stimulus": "<p id=\"stim\">2</p>", "key_press": -1, "trial_type": "single-stim", "trial_index": 126, "time_elapsed": 742739, "internal_node_id": "0.0-91.0-8.0"}}, {"uniqueid": "MTK1000:3ZR9AIQJUCGLFS3DSZM68YAIJ4F40L", "current_trial": 127, "dateTime": 1512961385822, "trialdata": {"rt": -1, "stimulus": "<p id=\"stim\">1</p>", "key_press": -1, "trial_type": "single-stim", "trial_index": 127, "time_elapsed": 743739, "internal_node_id": "0.0-91.0-9.0"}}, {"uniqueid": "MTK1000:3ZR9AIQJUCGLFS3DSZM68YAIJ4F40L", "current_trial": 128, "dateTime": 1512961387323, "trialdata": {"rt": -1, "stimulus": "<p id=\"stim\">+</p>", "key_press": -1, "type": "FIXATION", "trial_type": "single-stim", "trial_index": 128, "time_elapsed": 745240, "internal_node_id": "0.0-92.0-0.0"}}, {"uniqueid": "MTK1000:3ZR9AIQJUCGLFS3DSZM68YAIJ4F40L", "current_trial": 129, "dateTime": 1512961388124, "trialdata": {"rt": -1, "stimulus": "<p id=\"stim\">CUPBOARD</p>", "key_press": -1, "type": "PRES_VIS", "word": "cupboard", "wordID": 424, "conditions": [12, 800, "v", 24000], "trial": 3, "serialpos": 0, "trial_type": "single-stim", "trial_index": 129, "time_elapsed": 746041, "internal_node_id": "0.0-93.0"}}, {"uniqueid": "MTK1000:3ZR9AIQJUCGLFS3DSZM68YAIJ4F40L", "current_trial": 130, "dateTime": 1512961389903, "trialdata": {"rt": -1, "stimulus": "<p id=\"stim\">DRESSER</p>", "key_press": -1, "type": "PRES_VIS", "word": "dresser", "wordID": 495, "conditions": [12, 800, "v", 24000], "trial": 3, "serialpos": 1, "trial_type": "single-stim", "trial_index": 130, "time_elapsed": 747820, "internal_node_id": "0.0-94.0"}}, {"uniqueid": "MTK1000:3ZR9AIQJUCGLFS3DSZM68YAIJ4F40L", "current_trial": 131, "dateTime": 1512961391576, "trialdata": {"rt": -1, "stimulus": "<p id=\"stim\">BANKER</p>", "key_press": -1, "type": "PRES_VIS", "word": "banker", "wordID": 83, "conditions": [12, 800, "v", 24000], "trial": 3, "serialpos": 2, "trial_type": "single-stim", "trial_index": 131, "time_elapsed": 749493, "internal_node_id": "0.0-95.0"}}, {"uniqueid": "MTK1000:3ZR9AIQJUCGLFS3DSZM68YAIJ4F40L", "current_trial": 132, "dateTime": 1512961393449, "trialdata": {"rt": -1, "stimulus": "<p id=\"stim\">FLIPPER</p>", "key_press": -1, "type": "PRES_VIS", "word": "flipper", "wordID": 579, "conditions": [12, 800, "v", 24000], "trial": 3, "serialpos": 3, "trial_type": "single-stim", "trial_index": 132, "time_elapsed": 751366, "internal_node_id": "0.0-96.0"}}, {"uniqueid": "MTK1000:3ZR9AIQJUCGLFS3DSZM68YAIJ4F40L", "current_trial": 133, "dateTime": 1512961395142, "trialdata": {"rt": -1, "stimulus": "<p id=\"stim\">GARBAGE</p>", "key_press": -1, "type": "PRES_VIS", "word": "garbage", "wordID": 621, "conditions": [12, 800, "v", 24000], "trial": 3, "serialpos": 4, "trial_type": "single-stim", "trial_index": 133, "time_elapsed": 753059, "internal_node_id": "0.0-97.0"}}, {"uniqueid": "MTK1000:3ZR9AIQJUCGLFS3DSZM68YAIJ4F40L", "current_trial": 134, "dateTime": 1512961396762, "trialdata": {"rt": -1, "stimulus": "<p id=\"stim\">HONEY</p>", "key_press": -1, "type": "PRES_VIS", "word": "honey", "wordID": 712, "conditions": [12, 800, "v", 24000], "trial": 3, "serialpos": 5, "trial_type": "single-stim", "trial_index": 134, "time_elapsed": 754679, "internal_node_id": "0.0-98.0"}}, {"uniqueid": "MTK1000:3ZR9AIQJUCGLFS3DSZM68YAIJ4F40L", "current_trial": 135, "dateTime": 1512961398717, "trialdata": {"rt": -1, "stimulus": "<p id=\"stim\">ATOM</p>", "key_press": -1, "type": "PRES_VIS", "word": "atom", "wordID": 54, "conditions": [12, 800, "v", 24000], "trial": 3, "serialpos": 6, "trial_type": "single-stim", "trial_index": 135, "time_elapsed": 756634, "internal_node_id": "0.0-99.0"}}, {"uniqueid": "MTK1000:3ZR9AIQJUCGLFS3DSZM68YAIJ4F40L", "current_trial": 136, "dateTime": 1512961400367, "trialdata": {"rt": -1, "stimulus": "<p id=\"stim\">CHEST</p>", "key_press": -1, "type": "PRES_VIS", "word": "chest", "wordID": 294, "conditions": [12, 800, "v", 24000], "trial": 3, "serialpos": 7, "trial_type": "single-stim", "trial_index": 136, "time_elapsed": 758284, "internal_node_id": "0.0-100.0"}}, {"uniqueid": "MTK1000:3ZR9AIQJUCGLFS3DSZM68YAIJ4F40L", "current_trial": 137, "dateTime": 1512961402091, "trialdata": {"rt": -1, "stimulus": "<p id=\"stim\">CATCHER</p>", "key_press": -1, "type": "PRES_VIS", "word": "catcher", "wordID": 257, "conditions": [12, 800, "v", 24000], "trial": 3, "serialpos": 8, "trial_type": "single-stim", "trial_index": 137, "time_elapsed": 760008, "internal_node_id": "0.0-101.0"}}, {"uniqueid": "MTK1000:3ZR9AIQJUCGLFS3DSZM68YAIJ4F40L", "current_trial": 138, "dateTime": 1512961403813, "trialdata": {"rt": -1, "stimulus": "<p id=\"stim\">STOVE</p>", "key_press": -1, "type": "PRES_VIS", "word": "stove", "wordID": 1387, "conditions": [12, 800, "v", 24000], "trial": 3, "serialpos": 9, "trial_type": "single-stim", "trial_index": 138, "time_elapsed": 761730, "internal_node_id": "0.0-102.0"}}, {"uniqueid": "MTK1000:3ZR9AIQJUCGLFS3DSZM68YAIJ4F40L", "current_trial": 139, "dateTime": 1512961405514, "trialdata": {"rt": -1, "stimulus": "<p id=\"stim\">BANK</p>", "key_press": -1, "type": "PRES_VIS", "word": "bank", "wordID": 82, "conditions": [12, 800, "v", 24000], "trial": 3, "serialpos": 10, "trial_type": "single-stim", "trial_index": 139, "time_elapsed": 763431, "internal_node_id": "0.0-103.0"}}, {"uniqueid": "MTK1000:3ZR9AIQJUCGLFS3DSZM68YAIJ4F40L", "current_trial": 140, "dateTime": 1512961407146, "trialdata": {"rt": -1, "stimulus": "<p id=\"stim\">TWIG</p>", "key_press": -1, "type": "PRES_VIS", "word": "twig", "wordID": 1526, "conditions": [12, 800, "v", 24000], "trial": 3, "serialpos": 11, "trial_type": "single-stim", "trial_index": 140, "time_elapsed": 765063, "internal_node_id": "0.0-104.0"}}, {"uniqueid": "MTK1000:3ZR9AIQJUCGLFS3DSZM68YAIJ4F40L", "current_trial": 141, "dateTime": 1512961409218, "trialdata": {"rt": -1, "stimulus": "", "key_press": -1, "type": "PRE_RECALL_DELAY", "trial_type": "single-stim", "trial_index": 141, "time_elapsed": 767135, "internal_node_id": "0.0-105.0-0.0"}}, {"uniqueid": "MTK1000:3ZR9AIQJUCGLFS3DSZM68YAIJ4F40L", "current_trial": 142, "dateTime": 1512961409721, "trialdata": {"rt": -1000, "stimulus": "/static/audio/400Hz.wav", "key_press": -1, "type": "PRE_RECALL_ALERT", "trial_type": "single-audio", "trial_index": 142, "time_elapsed": 767638, "internal_node_id": "0.0-106.0"}}, {"uniqueid": "MTK1000:3ZR9AIQJUCGLFS3DSZM68YAIJ4F40L", "current_trial": 143, "dateTime": 1512961469729, "trialdata": {"rt": [8605, 13493], "recwords": ["garlic", "concert"], "type": "FREE_RECALL", "conditions": [12, 800, "v", 24000], "trial": 3, "trial_type": "free-recall", "trial_index": 143, "time_elapsed": 827640, "internal_node_id": "0.0-107.0-0.0"}}, {"uniqueid": "MTK1000:3ZR9AIQJUCGLFS3DSZM68YAIJ4F40L", "current_trial": 144, "dateTime": 1512961484351, "trialdata": {"rt": 12599, "key_press": 32, "type": "INSTRUCTIONS", "trial_type": "text", "trial_index": 144, "time_elapsed": 842268, "internal_node_id": "0.0-108.0"}}, {"uniqueid": "MTK1000:3ZR9AIQJUCGLFS3DSZM68YAIJ4F40L", "current_trial": 145, "dateTime": 1512961510354, "trialdata": {"rt": [2143, 3607, 5511, 7839, 9687, 11434, 13799, 16255, 22335], "responses": ["11", "16", "20", "16", "13", "10", "14", "8", "18"], "num1": [1, 1, 9, 6, 9, 6, 3, 4, 8, 5], "num2": [3, 9, 6, 6, 3, 3, 6, 1, 3, 2], "num3": [7, 6, 8, 4, 1, 1, 5, 3, 7, 6], "type": "DISTRACTOR", "conditions": [12, 1600, "v", 24000], "trial": 4, "trial_type": "math-distractor", "trial_index": 145, "time_elapsed": 868271, "internal_node_id": "0.0-109.0"}}, {"uniqueid": "MTK1000:3ZR9AIQJUCGLFS3DSZM68YAIJ4F40L", "current_trial": 146, "dateTime": 1512961513354, "trialdata": {"rt": -1, "stimulus": "<p id=\"stim\">10</p>", "key_press": -1, "trial_type": "single-stim", "trial_index": 146, "time_elapsed": 871271, "internal_node_id": "0.0-110.0-0.0"}}, {"uniqueid": "MTK1000:3ZR9AIQJUCGLFS3DSZM68YAIJ4F40L", "current_trial": 147, "dateTime": 1512961514355, "trialdata": {"rt": -1, "stimulus": "<p id=\"stim\">9</p>", "key_press": -1, "trial_type": "single-stim", "trial_index": 147, "time_elapsed": 872272, "internal_node_id": "0.0-110.0-1.0"}}, {"uniqueid": "MTK1000:3ZR9AIQJUCGLFS3DSZM68YAIJ4F40L", "current_trial": 148, "dateTime": 1512961515356, "trialdata": {"rt": -1, "stimulus": "<p id=\"stim\">8</p>", "key_press": -1, "trial_type": "single-stim", "trial_index": 148, "time_elapsed": 873273, "internal_node_id": "0.0-110.0-2.0"}}, {"uniqueid": "MTK1000:3ZR9AIQJUCGLFS3DSZM68YAIJ4F40L", "current_trial": 149, "dateTime": 1512961516357, "trialdata": {"rt": -1, "stimulus": "<p id=\"stim\">7</p>", "key_press": -1, "trial_type": "single-stim", "trial_index": 149, "time_elapsed": 874274, "internal_node_id": "0.0-110.0-3.0"}}, {"uniqueid": "MTK1000:3ZR9AIQJUCGLFS3DSZM68YAIJ4F40L", "current_trial": 150, "dateTime": 1512961517358, "trialdata": {"rt": -1, "stimulus": "<p id=\"stim\">6</p>", "key_press": -1, "trial_type": "single-stim", "trial_index": 150, "time_elapsed": 875275, "internal_node_id": "0.0-110.0-4.0"}}, {"uniqueid": "MTK1000:3ZR9AIQJUCGLFS3DSZM68YAIJ4F40L", "current_trial": 151, "dateTime": 1512961518358, "trialdata": {"rt": -1, "stimulus": "<p id=\"stim\">5</p>", "key_press": -1, "trial_type": "single-stim", "trial_index": 151, "time_elapsed": 876275, "internal_node_id": "0.0-110.0-5.0"}}, {"uniqueid": "MTK1000:3ZR9AIQJUCGLFS3DSZM68YAIJ4F40L", "current_trial": 152, "dateTime": 1512961519358, "trialdata": {"rt": -1, "stimulus": "<p id=\"stim\">4</p>", "key_press": -1, "trial_type": "single-stim", "trial_index": 152, "time_elapsed": 877275, "internal_node_id": "0.0-110.0-6.0"}}, {"uniqueid": "MTK1000:3ZR9AIQJUCGLFS3DSZM68YAIJ4F40L", "current_trial": 153, "dateTime": 1512961520358, "trialdata": {"rt": -1, "stimulus": "<p id=\"stim\">3</p>", "key_press": -1, "trial_type": "single-stim", "trial_index": 153, "time_elapsed": 878275, "internal_node_id": "0.0-110.0-7.0"}}, {"uniqueid": "MTK1000:3ZR9AIQJUCGLFS3DSZM68YAIJ4F40L", "current_trial": 154, "dateTime": 1512961521359, "trialdata": {"rt": -1, "stimulus": "<p id=\"stim\">2</p>", "key_press": -1, "trial_type": "single-stim", "trial_index": 154, "time_elapsed": 879276, "internal_node_id": "0.0-110.0-8.0"}}, {"uniqueid": "MTK1000:3ZR9AIQJUCGLFS3DSZM68YAIJ4F40L", "current_trial": 155, "dateTime": 1512961522360, "trialdata": {"rt": -1, "stimulus": "<p id=\"stim\">1</p>", "key_press": -1, "trial_type": "single-stim", "trial_index": 155, "time_elapsed": 880277, "internal_node_id": "0.0-110.0-9.0"}}, {"uniqueid": "MTK1000:3ZR9AIQJUCGLFS3DSZM68YAIJ4F40L", "current_trial": 156, "dateTime": 1512961523862, "trialdata": {"rt": -1, "stimulus": "<p id=\"stim\">+</p>", "key_press": -1, "type": "FIXATION", "trial_type": "single-stim", "trial_index": 156, "time_elapsed": 881779, "internal_node_id": "0.0-111.0-0.0"}}, {"uniqueid": "MTK1000:3ZR9AIQJUCGLFS3DSZM68YAIJ4F40L", "current_trial": 157, "dateTime": 1512961525464, "trialdata": {"rt": -1, "stimulus": "<p id=\"stim\">JELLY</p>", "key_press": -1, "type": "PRES_VIS", "word": "jelly", "wordID": 754, "conditions": [12, 1600, "v", 24000], "trial": 4, "serialpos": 0, "trial_type": "single-stim", "trial_index": 157, "time_elapsed": 883380, "internal_node_id": "0.0-112.0"}}, {"uniqueid": "MTK1000:3ZR9AIQJUCGLFS3DSZM68YAIJ4F40L", "current_trial": 158, "dateTime": 1512961527894, "trialdata": {"rt": -1, "stimulus": "<p id=\"stim\">KIDNEY</p>", "key_press": -1, "type": "PRES_VIS", "word": "kidney", "wordID": 775, "conditions": [12, 1600, "v", 24000], "trial": 4, "serialpos": 1, "trial_type": "single-stim", "trial_index": 158, "time_elapsed": 885810, "internal_node_id": "0.0-113.0"}}, {"uniqueid": "MTK1000:3ZR9AIQJUCGLFS3DSZM68YAIJ4F40L", "current_trial": 159, "dateTime": 1512961530331, "trialdata": {"rt": -1, "stimulus": "<p id=\"stim\">DENTIST</p>", "key_press": -1, "type": "PRES_VIS", "word": "dentist", "wordID": 446, "conditions": [12, 1600, "v", 24000], "trial": 4, "serialpos": 2, "trial_type": "single-stim", "trial_index": 159, "time_elapsed": 888248, "internal_node_id": "0.0-114.0"}}, {"uniqueid": "MTK1000:3ZR9AIQJUCGLFS3DSZM68YAIJ4F40L", "current_trial": 160, "dateTime": 1512961533043, "trialdata": {"rt": -1, "stimulus": "<p id=\"stim\">PLAID</p>", "key_press": -1, "type": "PRES_VIS", "word": "plaid", "wordID": 1079, "conditions": [12, 1600, "v", 24000], "trial": 4, "serialpos": 3, "trial_type": "single-stim", "trial_index": 160, "time_elapsed": 890960, "internal_node_id": "0.0-115.0"}}, {"uniqueid": "MTK1000:3ZR9AIQJUCGLFS3DSZM68YAIJ4F40L", "current_trial": 161, "dateTime": 1512961535810, "trialdata": {"rt": -1, "stimulus": "<p id=\"stim\">FARMER</p>", "key_press": -1, "type": "PRES_VIS", "word": "farmer", "wordID": 552, "conditions": [12, 1600, "v", 24000], "trial": 4, "serialpos": 4, "trial_type": "single-stim", "trial_index": 161, "time_elapsed": 893727, "internal_node_id": "0.0-116.0"}}, {"uniqueid": "MTK1000:3ZR9AIQJUCGLFS3DSZM68YAIJ4F40L", "current_trial": 162, "dateTime": 1512961538569, "trialdata": {"rt": -1, "stimulus": "<p id=\"stim\">BLUEPRINT</p>", "key_press": -1, "type": "PRES_VIS", "word": "blueprint", "wordID": 141, "conditions": [12, 1600, "v", 24000], "trial": 4, "serialpos": 5, "trial_type": "single-stim", "trial_index": 162, "time_elapsed": 896486, "internal_node_id": "0.0-117.0"}}, {"uniqueid": "MTK1000:3ZR9AIQJUCGLFS3DSZM68YAIJ4F40L", "current_trial": 163, "dateTime": 1512961541360, "trialdata": {"rt": -1, "stimulus": "<p id=\"stim\">COFFEE</p>", "key_press": -1, "type": "PRES_VIS", "word": "coffee", "wordID": 340, "conditions": [12, 1600, "v", 24000], "trial": 4, "serialpos": 6, "trial_type": "single-stim", "trial_index": 163, "time_elapsed": 899277, "internal_node_id": "0.0-118.0"}}, {"uniqueid": "MTK1000:3ZR9AIQJUCGLFS3DSZM68YAIJ4F40L", "current_trial": 164, "dateTime": 1512961543960, "trialdata": {"rt": -1, "stimulus": "<p id=\"stim\">MACHINE</p>", "key_press": -1, "type": "PRES_VIS", "word": "machine", "wordID": 851, "conditions": [12, 1600, "v", 24000], "trial": 4, "serialpos": 7, "trial_type": "single-stim", "trial_index": 164, "time_elapsed": 901877, "internal_node_id": "0.0-119.0"}}, {"uniqueid": "MTK1000:3ZR9AIQJUCGLFS3DSZM68YAIJ4F40L", "current_trial": 165, "dateTime": 1512961546524, "trialdata": {"rt": -1, "stimulus": "<p id=\"stim\">SANDWICH</p>", "key_press": -1, "type": "PRES_VIS", "word": "sandwich", "wordID": 1231, "conditions": [12, 1600, "v", 24000], "trial": 4, "serialpos": 8, "trial_type": "single-stim", "trial_index": 165, "time_elapsed": 904425, "internal_node_id": "0.0-120.0"}}, {"uniqueid": "MTK1000:3ZR9AIQJUCGLFS3DSZM68YAIJ4F40L", "current_trial": 166, "dateTime": 1512961549036, "trialdata": {"rt": -1, "stimulus": "<p id=\"stim\">PASTRY</p>", "key_press": -1, "type": "PRES_VIS", "word": "pastry", "wordID": 1021, "conditions": [12, 1600, "v", 24000], "trial": 4, "serialpos": 9, "trial_type": "single-stim", "trial_index": 166, "time_elapsed": 906953, "internal_node_id": "0.0-121.0"}}, {"uniqueid": "MTK1000:3ZR9AIQJUCGLFS3DSZM68YAIJ4F40L", "current_trial": 167, "dateTime": 1512961551802, "trialdata": {"rt": -1, "stimulus": "<p id=\"stim\">SCARECROW</p>", "key_press": -1, "type": "PRES_VIS", "word": "scarecrow", "wordID": 1244, "conditions": [12, 1600, "v", 24000], "trial": 4, "serialpos": 10, "trial_type": "single-stim", "trial_index": 167, "time_elapsed": 909719, "internal_node_id": "0.0-122.0"}}, {"uniqueid": "MTK1000:3ZR9AIQJUCGLFS3DSZM68YAIJ4F40L", "current_trial": 168, "dateTime": 1512961554287, "trialdata": {"rt": -1, "stimulus": "<p id=\"stim\">VELVET</p>", "key_press": -1, "type": "PRES_VIS", "word": "velvet", "wordID": 1554, "conditions": [12, 1600, "v", 24000], "trial": 4, "serialpos": 11, "trial_type": "single-stim", "trial_index": 168, "time_elapsed": 912204, "internal_node_id": "0.0-123.0"}}, {"uniqueid": "MTK1000:3ZR9AIQJUCGLFS3DSZM68YAIJ4F40L", "current_trial": 169, "dateTime": 1512961556727, "trialdata": {"rt": -1, "stimulus": "", "key_press": -1, "type": "PRE_RECALL_DELAY", "trial_type": "single-stim", "trial_index": 169, "time_elapsed": 914644, "internal_node_id": "0.0-124.0-0.0"}}, {"uniqueid": "MTK1000:3ZR9AIQJUCGLFS3DSZM68YAIJ4F40L", "current_trial": 170, "dateTime": 1512961557227, "trialdata": {"rt": -1000, "stimulus": "/static/audio/400Hz.wav", "key_press": -1, "type": "PRE_RECALL_ALERT", "trial_type": "single-audio", "trial_index": 170, "time_elapsed": 915144, "internal_node_id": "0.0-125.0"}}, {"uniqueid": "MTK1000:3ZR9AIQJUCGLFS3DSZM68YAIJ4F40L", "current_trial": 171, "dateTime": 1512961617234, "trialdata": {"rt": [8690, 10834, 14506, 16426, 24290, 25690, 32730], "recwords": ["jelly", "farmer", "blueprint", "coffee", "kidney", "plaid", "dentist"], "type": "FREE_RECALL", "conditions": [12, 1600, "v", 24000], "trial": 4, "trial_type": "free-recall", "trial_index": 171, "time_elapsed": 975148, "internal_node_id": "0.0-126.0-0.0"}}, {"uniqueid": "MTK1000:3ZR9AIQJUCGLFS3DSZM68YAIJ4F40L", "current_trial": 172, "dateTime": 1512961623169, "trialdata": {"rt": 3934, "key_press": 32, "type": "INSTRUCTIONS", "trial_type": "text", "trial_index": 172, "time_elapsed": 981086, "internal_node_id": "0.0-127.0"}}, {"uniqueid": "MTK1000:3ZR9AIQJUCGLFS3DSZM68YAIJ4F40L", "current_trial": 173, "dateTime": 1512961637176, "trialdata": {"rt": [8894, 11950], "responses": ["21", "19"], "num1": [9, 8, 6], "num2": [8, 9, 1], "num3": [6, 2, 3], "type": "DISTRACTOR", "conditions": [24, 1600, "v", 12000], "trial": 5, "trial_type": "math-distractor", "trial_index": 173, "time_elapsed": 995092, "internal_node_id": "0.0-128.0"}}, {"uniqueid": "MTK1000:3ZR9AIQJUCGLFS3DSZM68YAIJ4F40L", "current_trial": 174, "dateTime": 1512961640176, "trialdata": {"rt": -1, "stimulus": "<p id=\"stim\">10</p>", "key_press": -1, "trial_type": "single-stim", "trial_index": 174, "time_elapsed": 998093, "internal_node_id": "0.0-129.0-0.0"}}, {"uniqueid": "MTK1000:3ZR9AIQJUCGLFS3DSZM68YAIJ4F40L", "current_trial": 175, "dateTime": 1512961641176, "trialdata": {"rt": -1, "stimulus": "<p id=\"stim\">9</p>", "key_press": -1, "trial_type": "single-stim", "trial_index": 175, "time_elapsed": 999093, "internal_node_id": "0.0-129.0-1.0"}}, {"uniqueid": "MTK1000:3ZR9AIQJUCGLFS3DSZM68YAIJ4F40L", "current_trial": 176, "dateTime": 1512961642177, "trialdata": {"rt": -1, "stimulus": "<p id=\"stim\">8</p>", "key_press": -1, "trial_type": "single-stim", "trial_index": 176, "time_elapsed": 1000094, "internal_node_id": "0.0-129.0-2.0"}}, {"uniqueid": "MTK1000:3ZR9AIQJUCGLFS3DSZM68YAIJ4F40L", "current_trial": 177, "dateTime": 1512961643183, "trialdata": {"rt": -1, "stimulus": "<p id=\"stim\">7</p>", "key_press": -1, "trial_type": "single-stim", "trial_index": 177, "time_elapsed": 1001100, "internal_node_id": "0.0-129.0-3.0"}}, {"uniqueid": "MTK1000:3ZR9AIQJUCGLFS3DSZM68YAIJ4F40L", "current_trial": 178, "dateTime": 1512961644183, "trialdata": {"rt": -1, "stimulus": "<p id=\"stim\">6</p>", "key_press": -1, "trial_type": "single-stim", "trial_index": 178, "time_elapsed": 1002100, "internal_node_id": "0.0-129.0-4.0"}}, {"uniqueid": "MTK1000:3ZR9AIQJUCGLFS3DSZM68YAIJ4F40L", "current_trial": 179, "dateTime": 1512961645183, "trialdata": {"rt": -1, "stimulus": "<p id=\"stim\">5</p>", "key_press": -1, "trial_type": "single-stim", "trial_index": 179, "time_elapsed": 1003100, "internal_node_id": "0.0-129.0-5.0"}}, {"uniqueid": "MTK1000:3ZR9AIQJUCGLFS3DSZM68YAIJ4F40L", "current_trial": 180, "dateTime": 1512961646183, "trialdata": {"rt": -1, "stimulus": "<p id=\"stim\">4</p>", "key_press": -1, "trial_type": "single-stim", "trial_index": 180, "time_elapsed": 1004100, "internal_node_id": "0.0-129.0-6.0"}}, {"uniqueid": "MTK1000:3ZR9AIQJUCGLFS3DSZM68YAIJ4F40L", "current_trial": 181, "dateTime": 1512961647184, "trialdata": {"rt": -1, "stimulus": "<p id=\"stim\">3</p>", "key_press": -1, "trial_type": "single-stim", "trial_index": 181, "time_elapsed": 1005100, "internal_node_id": "0.0-129.0-7.0"}}, {"uniqueid": "MTK1000:3ZR9AIQJUCGLFS3DSZM68YAIJ4F40L", "current_trial": 182, "dateTime": 1512961648184, "trialdata": {"rt": -1, "stimulus": "<p id=\"stim\">2</p>", "key_press": -1, "trial_type": "single-stim", "trial_index": 182, "time_elapsed": 1006101, "internal_node_id": "0.0-129.0-8.0"}}, {"uniqueid": "MTK1000:3ZR9AIQJUCGLFS3DSZM68YAIJ4F40L", "current_trial": 183, "dateTime": 1512961649185, "trialdata": {"rt": -1, "stimulus": "<p id=\"stim\">1</p>", "key_press": -1, "trial_type": "single-stim", "trial_index": 183, "time_elapsed": 1007102, "internal_node_id": "0.0-129.0-9.0"}}, {"uniqueid": "MTK1000:3ZR9AIQJUCGLFS3DSZM68YAIJ4F40L", "current_trial": 184, "dateTime": 1512961650686, "trialdata": {"rt": -1, "stimulus": "<p id=\"stim\">+</p>", "key_press": -1, "type": "FIXATION", "trial_type": "single-stim", "trial_index": 184, "time_elapsed": 1008603, "internal_node_id": "0.0-130.0-0.0"}}, {"uniqueid": "MTK1000:3ZR9AIQJUCGLFS3DSZM68YAIJ4F40L", "current_trial": 185, "dateTime": 1512961652288, "trialdata": {"rt": -1, "stimulus": "<p id=\"stim\">SILK</p>", "key_press": -1, "type": "PRES_VIS", "word": "silk", "wordID": 1306, "conditions": [24, 1600, "v", 12000], "trial": 5, "serialpos": 0, "trial_type": "single-stim", "trial_index": 185, "time_elapsed": 1010204, "internal_node_id": "0.0-131.0"}}, {"uniqueid": "MTK1000:3ZR9AIQJUCGLFS3DSZM68YAIJ4F40L", "current_trial": 186, "dateTime": 1512961655010, "trialdata": {"rt": -1, "stimulus": "<p id=\"stim\">BATHTUB</p>", "key_press": -1, "type": "PRES_VIS", "word": "bathtub", "wordID": 99, "conditions": [24, 1600, "v", 12000], "trial": 5, "serialpos": 1, "trial_type": "single-stim", "trial_index": 186, "time_elapsed": 1012927, "internal_node_id": "0.0-132.0"}}, {"uniqueid": "MTK1000:3ZR9AIQJUCGLFS3DSZM68YAIJ4F40L", "current_trial": 187, "dateTime": 1512961657413, "trialdata": {"rt": -1, "stimulus": "<p id=\"stim\">CASKET</p>", "key_press": -1, "type": "PRES_VIS", "word": "casket", "wordID": 254, "conditions": [24, 1600, "v", 12000], "trial": 5, "serialpos": 2, "trial_type": "single-stim", "trial_index": 187, "time_elapsed": 1015330, "internal_node_id": "0.0-133.0"}}, {"uniqueid": "MTK1000:3ZR9AIQJUCGLFS3DSZM68YAIJ4F40L", "current_trial": 188, "dateTime": 1512961659948, "trialdata": {"rt": -1, "stimulus": "<p id=\"stim\">TOMBSTONE</p>", "key_press": -1, "type": "PRES_VIS", "word": "tombstone", "wordID": 1477, "conditions": [24, 1600, "v", 12000], "trial": 5, "serialpos": 3, "trial_type": "single-stim", "trial_index": 188, "time_elapsed": 1017865, "internal_node_id": "0.0-134.0"}}, {"uniqueid": "MTK1000:3ZR9AIQJUCGLFS3DSZM68YAIJ4F40L", "current_trial": 189, "dateTime": 1512961662626, "trialdata": {"rt": -1, "stimulus": "<p id=\"stim\">TUTU</p>", "key_press": -1, "type": "PRES_VIS", "word": "tutu", "wordID": 1523, "conditions": [24, 1600, "v", 12000], "trial": 5, "serialpos": 4, "trial_type": "single-stim", "trial_index": 189, "time_elapsed": 1020543, "internal_node_id": "0.0-135.0"}}, {"uniqueid": "MTK1000:3ZR9AIQJUCGLFS3DSZM68YAIJ4F40L", "current_trial": 190, "dateTime": 1512961665393, "trialdata": {"rt": -1, "stimulus": "<p id=\"stim\">BUBBLE</p>", "key_press": -1, "type": "PRES_VIS", "word": "bubble", "wordID": 182, "conditions": [24, 1600, "v", 12000], "trial": 5, "serialpos": 5, "trial_type": "single-stim", "trial_index": 190, "time_elapsed": 1023310, "internal_node_id": "0.0-136.0"}}, {"uniqueid": "MTK1000:3ZR9AIQJUCGLFS3DSZM68YAIJ4F40L", "current_trial": 191, "dateTime": 1512961667999, "trialdata": {"rt": -1, "stimulus": "<p id=\"stim\">DINER</p>", "key_press": -1, "type": "PRES_VIS", "word": "diner", "wordID": 466, "conditions": [24, 1600, "v", 12000], "trial": 5, "serialpos": 6, "trial_type": "single-stim", "trial_index": 191, "time_elapsed": 1025916, "internal_node_id": "0.0-137.0"}}, {"uniqueid": "MTK1000:3ZR9AIQJUCGLFS3DSZM68YAIJ4F40L", "current_trial": 192, "dateTime": 1512961670434, "trialdata": {"rt": -1, "stimulus": "<p id=\"stim\">MASK</p>", "key_press": -1, "type": "PRES_VIS", "word": "mask", "wordID": 875, "conditions": [24, 1600, "v", 12000], "trial": 5, "serialpos": 7, "trial_type": "single-stim", "trial_index": 192, "time_elapsed": 1028351, "internal_node_id": "0.0-138.0"}}, {"uniqueid": "MTK1000:3ZR9AIQJUCGLFS3DSZM68YAIJ4F40L", "current_trial": 193, "dateTime": 1512961672841, "trialdata": {"rt": -1, "stimulus": "<p id=\"stim\">FLASHLIGHT</p>", "key_press": -1, "type": "PRES_VIS", "word": "flashlight", "wordID": 574, "conditions": [24, 1600, "v", 12000], "trial": 5, "serialpos": 8, "trial_type": "single-stim", "trial_index": 193, "time_elapsed": 1030758, "internal_node_id": "0.0-139.0"}}, {"uniqueid": "MTK1000:3ZR9AIQJUCGLFS3DSZM68YAIJ4F40L", "current_trial": 194, "dateTime": 1512961675590, "trialdata": {"rt": -1, "stimulus": "<p id=\"stim\">WAITER</p>", "key_press": -1, "type": "PRES_VIS", "word": "waiter", "wordID": 1579, "conditions": [24, 1600, "v", 12000], "trial": 5, "serialpos": 9, "trial_type": "single-stim", "trial_index": 194, "time_elapsed": 1033507, "internal_node_id": "0.0-140.0"}}, {"uniqueid": "MTK1000:3ZR9AIQJUCGLFS3DSZM68YAIJ4F40L", "current_trial": 195, "dateTime": 1512961678192, "trialdata": {"rt": -1, "stimulus": "<p id=\"stim\">EUROPE</p>", "key_press": -1, "type": "PRES_VIS", "word": "europe", "wordID": 540, "conditions": [24, 1600, "v", 12000], "trial": 5, "serialpos": 10, "trial_type": "single-stim", "trial_index": 195, "time_elapsed": 1036109, "internal_node_id": "0.0-141.0"}}, {"uniqueid": "MTK1000:3ZR9AIQJUCGLFS3DSZM68YAIJ4F40L", "current_trial": 196, "dateTime": 1512961680810, "trialdata": {"rt": -1, "stimulus": "<p id=\"stim\">PLUTO</p>", "key_press": -1, "type": "PRES_VIS", "word": "pluto", "wordID": 1091, "conditions": [24, 1600, "v", 12000], "trial": 5, "serialpos": 11, "trial_type": "single-stim", "trial_index": 196, "time_elapsed": 1038727, "internal_node_id": "0.0-142.0"}}, {"uniqueid": "MTK1000:3ZR9AIQJUCGLFS3DSZM68YAIJ4F40L", "current_trial": 197, "dateTime": 1512961683327, "trialdata": {"rt": -1, "stimulus": "<p id=\"stim\">ACTRESS</p>", "key_press": -1, "type": "PRES_VIS", "word": "actress", "wordID": 5, "conditions": [24, 1600, "v", 12000], "trial": 5, "serialpos": 12, "trial_type": "single-stim", "trial_index": 197, "time_elapsed": 1041244, "internal_node_id": "0.0-143.0"}}, {"uniqueid": "MTK1000:3ZR9AIQJUCGLFS3DSZM68YAIJ4F40L", "current_trial": 198, "dateTime": 1512961685912, "trialdata": {"rt": -1, "stimulus": "<p id=\"stim\">JUNGLE</p>", "key_press": -1, "type": "PRES_VIS", "word": "jungle", "wordID": 763, "conditions": [24, 1600, "v", 12000], "trial": 5, "serialpos": 13, "trial_type": "single-stim", "trial_index": 198, "time_elapsed": 1043829, "internal_node_id": "0.0-144.0"}}, {"uniqueid": "MTK1000:3ZR9AIQJUCGLFS3DSZM68YAIJ4F40L", "current_trial": 199, "dateTime": 1512961688383, "trialdata": {"rt": -1, "stimulus": "<p id=\"stim\">TWEEZERS</p>", "key_press": -1, "type": "PRES_VIS", "word": "tweezers", "wordID": 1525, "conditions": [24, 1600, "v", 12000], "trial": 5, "serialpos": 14, "trial_type": "single-stim", "trial_index": 199, "time_elapsed": 1046300, "internal_node_id": "0.0-145.0"}}, {"uniqueid": "MTK1000:3ZR9AIQJUCGLFS3DSZM68YAIJ4F40L", "current_trial": 200, "dateTime": 1512961691115, "trialdata": {"rt": -1, "stimulus": "<p id=\"stim\">HELMET</p>", "key_press": -1, "type": "PRES_VIS", "word": "helmet", "wordID": 701, "conditions": [24, 1600, "v", 12000], "trial": 5, "serialpos": 15, "trial_type": "single-stim", "trial_index": 200, "time_elapsed": 1049032, "internal_node_id": "0.0-146.0"}}, {"uniqueid": "MTK1000:3ZR9AIQJUCGLFS3DSZM68YAIJ4F40L", "current_trial": 201, "dateTime": 1512961693867, "trialdata": {"rt": -1, "stimulus": "<p id=\"stim\">UMPIRE</p>", "key_press": -1, "type": "PRES_VIS", "word": "umpire", "wordID": 1534, "conditions": [24, 1600, "v", 12000], "trial": 5, "serialpos": 16, "trial_type": "single-stim", "trial_index": 201, "time_elapsed": 1051783, "internal_node_id": "0.0-147.0"}}, {"uniqueid": "MTK1000:3ZR9AIQJUCGLFS3DSZM68YAIJ4F40L", "current_trial": 202, "dateTime": 1512961696467, "trialdata": {"rt": -1, "stimulus": "<p id=\"stim\">DRESS</p>", "key_press": -1, "type": "PRES_VIS", "word": "dress", "wordID": 494, "conditions": [24, 1600, "v", 12000], "trial": 5, "serialpos": 17, "trial_type": "single-stim", "trial_index": 202, "time_elapsed": 1054384, "internal_node_id": "0.0-148.0"}}, {"uniqueid": "MTK1000:3ZR9AIQJUCGLFS3DSZM68YAIJ4F40L", "current_trial": 203, "dateTime": 1512961699260, "trialdata": {"rt": -1, "stimulus": "<p id=\"stim\">DENIM</p>", "key_press": -1, "type": "PRES_VIS", "word": "denim", "wordID": 445, "conditions": [24, 1600, "v", 12000], "trial": 5, "serialpos": 18, "trial_type": "single-stim", "trial_index": 203, "time_elapsed": 1057176, "internal_node_id": "0.0-149.0"}}, {"uniqueid": "MTK1000:3ZR9AIQJUCGLFS3DSZM68YAIJ4F40L", "current_trial": 204, "dateTime": 1512961702024, "trialdata": {"rt": -1, "stimulus": "<p id=\"stim\">POSSUM</p>", "key_press": -1, "type": "PRES_VIS", "word": "possum", "wordID": 1111, "conditions": [24, 1600, "v", 12000], "trial": 5, "serialpos": 19, "trial_type": "single-stim", "trial_index": 204, "time_elapsed": 1059941, "internal_node_id": "0.0-150.0"}}, {"uniqueid": "MTK1000:3ZR9AIQJUCGLFS3DSZM68YAIJ4F40L", "current_trial": 205, "dateTime": 1512961704543, "trialdata": {"rt": -1, "stimulus": "<p id=\"stim\">SIDEWALK</p>", "key_press": -1, "type": "PRES_VIS", "word": "sidewalk", "wordID": 1302, "conditions": [24, 1600, "v", 12000], "trial": 5, "serialpos": 20, "trial_type": "single-stim", "trial_index": 205, "time_elapsed": 1062460, "internal_node_id": "0.0-151.0"}}, {"uniqueid": "MTK1000:3ZR9AIQJUCGLFS3DSZM68YAIJ4F40L", "current_trial": 206, "dateTime": 1512961707073, "trialdata": {"rt": -1, "stimulus": "<p id=\"stim\">STALLION</p>", "key_press": -1, "type": "PRES_VIS", "word": "stallion", "wordID": 1368, "conditions": [24, 1600, "v", 12000], "trial": 5, "serialpos": 21, "trial_type": "single-stim", "trial_index": 206, "time_elapsed": 1064990, "internal_node_id": "0.0-152.0"}}, {"uniqueid": "MTK1000:3ZR9AIQJUCGLFS3DSZM68YAIJ4F40L", "current_trial": 207, "dateTime": 1512961709476, "trialdata": {"rt": -1, "stimulus": "<p id=\"stim\">FOX</p>", "key_press": -1, "type": "PRES_VIS", "word": "fox", "wordID": 597, "conditions": [24, 1600, "v", 12000], "trial": 5, "serialpos": 22, "trial_type": "single-stim", "trial_index": 207, "time_elapsed": 1067393, "internal_node_id": "0.0-153.0"}}, {"uniqueid": "MTK1000:3ZR9AIQJUCGLFS3DSZM68YAIJ4F40L", "current_trial": 208, "dateTime": 1512961711902, "trialdata": {"rt": -1, "stimulus": "<p id=\"stim\">KLEENEX</p>", "key_press": -1, "type": "PRES_VIS", "word": "kleenex", "wordID": 781, "conditions": [24, 1600, "v", 12000], "trial": 5, "serialpos": 23, "trial_type": "single-stim", "trial_index": 208, "time_elapsed": 1069819, "internal_node_id": "0.0-154.0"}}, {"uniqueid": "MTK1000:3ZR9AIQJUCGLFS3DSZM68YAIJ4F40L", "current_trial": 209, "dateTime": 1512961714076, "trialdata": {"rt": -1, "stimulus": "", "key_press": -1, "type": "PRE_RECALL_DELAY", "trial_type": "single-stim", "trial_index": 209, "time_elapsed": 1071993, "internal_node_id": "0.0-155.0-0.0"}}, {"uniqueid": "MTK1000:3ZR9AIQJUCGLFS3DSZM68YAIJ4F40L", "current_trial": 210, "dateTime": 1512961714577, "trialdata": {"rt": -1000, "stimulus": "/static/audio/400Hz.wav", "key_press": -1, "type": "PRE_RECALL_ALERT", "trial_type": "single-audio", "trial_index": 210, "time_elapsed": 1072494, "internal_node_id": "0.0-156.0"}}, {"uniqueid": "MTK1000:3ZR9AIQJUCGLFS3DSZM68YAIJ4F40L", "current_trial": 211, "dateTime": 1512961774584, "trialdata": {"rt": [7324, 9493, 15021, 16540, 19109, 20861, 23013], "recwords": ["tutu", "tombstone", "diner", "mask", "flashlight", "europe", "pluto"], "type": "FREE_RECALL", "conditions": [24, 1600, "v", 12000], "trial": 5, "trial_type": "free-recall", "trial_index": 211, "time_elapsed": 1132497, "internal_node_id": "0.0-157.0-0.0"}}, {"uniqueid": "MTK1000:3ZR9AIQJUCGLFS3DSZM68YAIJ4F40L", "current_trial": 212, "dateTime": 1512961793672, "trialdata": {"rt": 17087, "key_press": 32, "type": "INSTRUCTIONS", "trial_type": "text", "trial_index": 212, "time_elapsed": 1151589, "internal_node_id": "0.0-158.0"}}, {"uniqueid": "MTK1000:3ZR9AIQJUCGLFS3DSZM68YAIJ4F40L", "current_trial": 213, "dateTime": 1512961807673, "trialdata": {"rt": [], "responses": [], "num1": [9], "num2": [2], "num3": [6], "type": "DISTRACTOR", "conditions": [24, 800, "a", 12000], "trial": 6, "trial_type": "math-distractor", "trial_index": 213, "time_elapsed": 1165590, "internal_node_id": "0.0-159.0"}}, {"uniqueid": "MTK1000:3ZR9AIQJUCGLFS3DSZM68YAIJ4F40L", "current_trial": 214, "dateTime": 1512961810673, "trialdata": {"rt": -1, "stimulus": "<p id=\"stim\">10</p>", "key_press": -1, "trial_type": "single-stim", "trial_index": 214, "time_elapsed": 1168590, "internal_node_id": "0.0-160.0-0.0"}}, {"uniqueid": "MTK1000:3ZR9AIQJUCGLFS3DSZM68YAIJ4F40L", "current_trial": 215, "dateTime": 1512961811674, "trialdata": {"rt": -1, "stimulus": "<p id=\"stim\">9</p>", "key_press": -1, "trial_type": "single-stim", "trial_index": 215, "time_elapsed": 1169591, "internal_node_id": "0.0-160.0-1.0"}}, {"uniqueid": "MTK1000:3ZR9AIQJUCGLFS3DSZM68YAIJ4F40L", "current_trial": 216, "dateTime": 1512961812674, "trialdata": {"rt": -1, "stimulus": "<p id=\"stim\">8</p>", "key_press": -1, "trial_type": "single-stim", "trial_index": 216, "time_elapsed": 1170591, "internal_node_id": "0.0-160.0-2.0"}}, {"uniqueid": "MTK1000:3ZR9AIQJUCGLFS3DSZM68YAIJ4F40L", "current_trial": 217, "dateTime": 1512961813674, "trialdata": {"rt": -1, "stimulus": "<p id=\"stim\">7</p>", "key_press": -1, "trial_type": "single-stim", "trial_index": 217, "time_elapsed": 1171591, "internal_node_id": "0.0-160.0-3.0"}}, {"uniqueid": "MTK1000:3ZR9AIQJUCGLFS3DSZM68YAIJ4F40L", "current_trial": 218, "dateTime": 1512961814675, "trialdata": {"rt": -1, "stimulus": "<p id=\"stim\">6</p>", "key_press": -1, "trial_type": "single-stim", "trial_index": 218, "time_elapsed": 1172592, "internal_node_id": "0.0-160.0-4.0"}}, {"uniqueid": "MTK1000:3ZR9AIQJUCGLFS3DSZM68YAIJ4F40L", "current_trial": 219, "dateTime": 1512961815676, "trialdata": {"rt": -1, "stimulus": "<p id=\"stim\">5</p>", "key_press": -1, "trial_type": "single-stim", "trial_index": 219, "time_elapsed": 1173593, "internal_node_id": "0.0-160.0-5.0"}}, {"uniqueid": "MTK1000:3ZR9AIQJUCGLFS3DSZM68YAIJ4F40L", "current_trial": 220, "dateTime": 1512961816678, "trialdata": {"rt": -1, "stimulus": "<p id=\"stim\">4</p>", "key_press": -1, "trial_type": "single-stim", "trial_index": 220, "time_elapsed": 1174594, "internal_node_id": "0.0-160.0-6.0"}}, {"uniqueid": "MTK1000:3ZR9AIQJUCGLFS3DSZM68YAIJ4F40L", "current_trial": 221, "dateTime": 1512961817683, "trialdata": {"rt": -1, "stimulus": "<p id=\"stim\">3</p>", "key_press": -1, "trial_type": "single-stim", "trial_index": 221, "time_elapsed": 1175599, "internal_node_id": "0.0-160.0-7.0"}}, {"uniqueid": "MTK1000:3ZR9AIQJUCGLFS3DSZM68YAIJ4F40L", "current_trial": 222, "dateTime": 1512961818683, "trialdata": {"rt": -1, "stimulus": "<p id=\"stim\">2</p>", "key_press": -1, "trial_type": "single-stim", "trial_index": 222, "time_elapsed": 1176600, "internal_node_id": "0.0-160.0-8.0"}}, {"uniqueid": "MTK1000:3ZR9AIQJUCGLFS3DSZM68YAIJ4F40L", "current_trial": 223, "dateTime": 1512961819684, "trialdata": {"rt": -1, "stimulus": "<p id=\"stim\">1</p>", "key_press": -1, "trial_type": "single-stim", "trial_index": 223, "time_elapsed": 1177601, "internal_node_id": "0.0-160.0-9.0"}}, {"uniqueid": "MTK1000:3ZR9AIQJUCGLFS3DSZM68YAIJ4F40L", "current_trial": 224, "dateTime": 1512961821185, "trialdata": {"rt": -1, "stimulus": "<p id=\"stim\">+</p>", "key_press": -1, "type": "FIXATION", "trial_type": "single-stim", "trial_index": 224, "time_elapsed": 1179102, "internal_node_id": "0.0-161.0-0.0"}}, {"uniqueid": "MTK1000:3ZR9AIQJUCGLFS3DSZM68YAIJ4F40L", "current_trial": 225, "dateTime": 1512961823092, "trialdata": {"rt": -1000, "stimulus": "/static/audio/wordpool/LETTUCE.wav", "key_press": -1, "type": "PRES_AUD", "word": "lettuce", "wordID": 813, "conditions": [24, 800, "a", 12000], "trial": 6, "serialpos": 0, "trial_type": "single-audio", "trial_index": 225, "time_elapsed": 1181009, "internal_node_id": "0.0-162.0"}}, {"uniqueid": "MTK1000:3ZR9AIQJUCGLFS3DSZM68YAIJ4F40L", "current_trial": 226, "dateTime": 1512961824980, "trialdata": {"rt": -1000, "stimulus": "/static/audio/wordpool/EAGLE.wav", "key_press": -1, "type": "PRES_AUD", "word": "eagle", "wordID": 511, "conditions": [24, 800, "a", 12000], "trial": 6, "serialpos": 1, "trial_type": "single-audio", "trial_index": 226, "time_elapsed": 1182897, "internal_node_id": "0.0-163.0"}}, {"uniqueid": "MTK1000:3ZR9AIQJUCGLFS3DSZM68YAIJ4F40L", "current_trial": 227, "dateTime": 1512961826876, "trialdata": {"rt": -1000, "stimulus": "/static/audio/wordpool/WORLD.wav", "key_press": -1, "type": "PRES_AUD", "word": "world", "wordID": 1621, "conditions": [24, 800, "a", 12000], "trial": 6, "serialpos": 2, "trial_type": "single-audio", "trial_index": 227, "time_elapsed": 1184793, "internal_node_id": "0.0-164.0"}}, {"uniqueid": "MTK1000:3ZR9AIQJUCGLFS3DSZM68YAIJ4F40L", "current_trial": 228, "dateTime": 1512961828489, "trialdata": {"rt": -1000, "stimulus": "/static/audio/wordpool/BOYFRIEND.wav", "key_press": -1, "type": "PRES_AUD", "word": "boyfriend", "wordID": 161, "conditions": [24, 800, "a", 12000], "trial": 6, "serialpos": 3, "trial_type": "single-audio", "trial_index": 228, "time_elapsed": 1186406, "internal_node_id": "0.0-165.0"}}, {"uniqueid": "MTK1000:3ZR9AIQJUCGLFS3DSZM68YAIJ4F40L", "current_trial": 229, "dateTime": 1512961830277, "trialdata": {"rt": -1000, "stimulus": "/static/audio/wordpool/CAMEL.wav", "key_press": -1, "type": "PRES_AUD", "word": "camel", "wordID": 222, "conditions": [24, 800, "a", 12000], "trial": 6, "serialpos": 4, "trial_type": "single-audio", "trial_index": 229, "time_elapsed": 1188194, "internal_node_id": "0.0-166.0"}}, {"uniqueid": "MTK1000:3ZR9AIQJUCGLFS3DSZM68YAIJ4F40L", "current_trial": 230, "dateTime": 1512961832166, "trialdata": {"rt": -1000, "stimulus": "/static/audio/wordpool/COUNTRY.wav", "key_press": -1, "type": "PRES_AUD", "word": "country", "wordID": 387, "conditions": [24, 800, "a", 12000], "trial": 6, "serialpos": 5, "trial_type": "single-audio", "trial_index": 230, "time_elapsed": 1190083, "internal_node_id": "0.0-167.0"}}, {"uniqueid": "MTK1000:3ZR9AIQJUCGLFS3DSZM68YAIJ4F40L", "current_trial": 231, "dateTime": 1512961834014, "trialdata": {"rt": -1000, "stimulus": "/static/audio/wordpool/LAVA.wav", "key_press": -1, "type": "PRES_AUD", "word": "lava", "wordID": 803, "conditions": [24, 800, "a", 12000], "trial": 6, "serialpos": 6, "trial_type": "single-audio", "trial_index": 231, "time_elapsed": 1191931, "internal_node_id": "0.0-168.0"}}, {"uniqueid": "MTK1000:3ZR9AIQJUCGLFS3DSZM68YAIJ4F40L", "current_trial": 232, "dateTime": 1512961835869, "trialdata": {"rt": -1000, "stimulus": "/static/audio/wordpool/CRATER.wav", "key_press": -1, "type": "PRES_AUD", "word": "crater", "wordID": 399, "conditions": [24, 800, "a", 12000], "trial": 6, "serialpos": 7, "trial_type": "single-audio", "trial_index": 232, "time_elapsed": 1193786, "internal_node_id": "0.0-169.0"}}, {"uniqueid": "MTK1000:3ZR9AIQJUCGLFS3DSZM68YAIJ4F40L", "current_trial": 233, "dateTime": 1512961837818, "trialdata": {"rt": -1000, "stimulus": "/static/audio/wordpool/BEAVER.wav", "key_press": -1, "type": "PRES_AUD", "word": "beaver", "wordID": 108, "conditions": [24, 800, "a", 12000], "trial": 6, "serialpos": 8, "trial_type": "single-audio", "trial_index": 233, "time_elapsed": 1195735, "internal_node_id": "0.0-170.0"}}, {"uniqueid": "MTK1000:3ZR9AIQJUCGLFS3DSZM68YAIJ4F40L", "current_trial": 234, "dateTime": 1512961839478, "trialdata": {"rt": -1000, "stimulus": "/static/audio/wordpool/PERCH.wav", "key_press": -1, "type": "PRES_AUD", "word": "perch", "wordID": 1047, "conditions": [24, 800, "a", 12000], "trial": 6, "serialpos": 9, "trial_type": "single-audio", "trial_index": 234, "time_elapsed": 1197395, "internal_node_id": "0.0-171.0"}}, {"uniqueid": "MTK1000:3ZR9AIQJUCGLFS3DSZM68YAIJ4F40L", "current_trial": 235, "dateTime": 1512961841319, "trialdata": {"rt": -1000, "stimulus": "/static/audio/wordpool/DOUGHNUT.wav", "key_press": -1, "type": "PRES_AUD", "word": "doughnut", "wordID": 489, "conditions": [24, 800, "a", 12000], "trial": 6, "serialpos": 10, "trial_type": "single-audio", "trial_index": 235, "time_elapsed": 1199235, "internal_node_id": "0.0-172.0"}}, {"uniqueid": "MTK1000:3ZR9AIQJUCGLFS3DSZM68YAIJ4F40L", "current_trial": 236, "dateTime": 1512961842988, "trialdata": {"rt": -1000, "stimulus": "/static/audio/wordpool/OMELET.wav", "key_press": -1, "type": "PRES_AUD", "word": "omelet", "wordID": 975, "conditions": [24, 800, "a", 12000], "trial": 6, "serialpos": 11, "trial_type": "single-audio", "trial_index": 236, "time_elapsed": 1200905, "internal_node_id": "0.0-173.0"}}, {"uniqueid": "MTK1000:3ZR9AIQJUCGLFS3DSZM68YAIJ4F40L", "current_trial": 237, "dateTime": 1512961844918, "trialdata": {"rt": -1000, "stimulus": "/static/audio/wordpool/RABBIT.wav", "key_press": -1, "type": "PRES_AUD", "word": "rabbit", "wordID": 1151, "conditions": [24, 800, "a", 12000], "trial": 6, "serialpos": 12, "trial_type": "single-audio", "trial_index": 237, "time_elapsed": 1202835, "internal_node_id": "0.0-174.0"}}, {"uniqueid": "MTK1000:3ZR9AIQJUCGLFS3DSZM68YAIJ4F40L", "current_trial": 238, "dateTime": 1512961846763, "trialdata": {"rt": -1000, "stimulus": "/static/audio/wordpool/TROMBONE.wav", "key_press": -1, "type": "PRES_AUD", "word": "trombone", "wordID": 1507, "conditions": [24, 800, "a", 12000], "trial": 6, "serialpos": 13, "trial_type": "single-audio", "trial_index": 238, "time_elapsed": 1204680, "internal_node_id": "0.0-175.0"}}, {"uniqueid": "MTK1000:3ZR9AIQJUCGLFS3DSZM68YAIJ4F40L", "current_trial": 239, "dateTime": 1512961848569, "trialdata": {"rt": -1000, "stimulus": "/static/audio/wordpool/FLUTE.wav", "key_press": -1, "type": "PRES_AUD", "word": "flute", "wordID": 584, "conditions": [24, 800, "a", 12000], "trial": 6, "serialpos": 14, "trial_type": "single-audio", "trial_index": 239, "time_elapsed": 1206486, "internal_node_id": "0.0-176.0"}}, {"uniqueid": "MTK1000:3ZR9AIQJUCGLFS3DSZM68YAIJ4F40L", "current_trial": 240, "dateTime": 1512961850351, "trialdata": {"rt": -1000, "stimulus": "/static/audio/wordpool/BOX.wav", "key_press": -1, "type": "PRES_AUD", "word": "box", "wordID": 158, "conditions": [24, 800, "a", 12000], "trial": 6, "serialpos": 15, "trial_type": "single-audio", "trial_index": 240, "time_elapsed": 1208268, "internal_node_id": "0.0-177.0"}}, {"uniqueid": "MTK1000:3ZR9AIQJUCGLFS3DSZM68YAIJ4F40L", "current_trial": 241, "dateTime": 1512961852257, "trialdata": {"rt": -1000, "stimulus": "/static/audio/wordpool/SPOUSE.wav", "key_press": -1, "type": "PRES_AUD", "word": "spouse", "wordID": 1357, "conditions": [24, 800, "a", 12000], "trial": 6, "serialpos": 16, "trial_type": "single-audio", "trial_index": 241, "time_elapsed": 1210174, "internal_node_id": "0.0-178.0"}}, {"uniqueid": "MTK1000:3ZR9AIQJUCGLFS3DSZM68YAIJ4F40L", "current_trial": 242, "dateTime": 1512961854165, "trialdata": {"rt": -1000, "stimulus": "/static/audio/wordpool/BURGLAR.wav", "key_press": -1, "type": "PRES_AUD", "word": "burglar", "wordID": 199, "conditions": [24, 800, "a", 12000], "trial": 6, "serialpos": 17, "trial_type": "single-audio", "trial_index": 242, "time_elapsed": 1212082, "internal_node_id": "0.0-179.0"}}, {"uniqueid": "MTK1000:3ZR9AIQJUCGLFS3DSZM68YAIJ4F40L", "current_trial": 243, "dateTime": 1512961855959, "trialdata": {"rt": -1000, "stimulus": "/static/audio/wordpool/SPACE.wav", "key_press": -1, "type": "PRES_AUD", "word": "space", "wordID": 1344, "conditions": [24, 800, "a", 12000], "trial": 6, "serialpos": 18, "trial_type": "single-audio", "trial_index": 243, "time_elapsed": 1213876, "internal_node_id": "0.0-180.0"}}, {"uniqueid": "MTK1000:3ZR9AIQJUCGLFS3DSZM68YAIJ4F40L", "current_trial": 244, "dateTime": 1512961857660, "trialdata": {"rt": -1000, "stimulus": "/static/audio/wordpool/PLAYGROUND.wav", "key_press": -1, "type": "PRES_AUD", "word": "playground", "wordID": 1086, "conditions": [24, 800, "a", 12000], "trial": 6, "serialpos": 19, "trial_type": "single-audio", "trial_index": 244, "time_elapsed": 1215577, "internal_node_id": "0.0-181.0"}}, {"uniqueid": "MTK1000:3ZR9AIQJUCGLFS3DSZM68YAIJ4F40L", "current_trial": 245, "dateTime": 1512961859561, "trialdata": {"rt": -1000, "stimulus": "/static/audio/wordpool/BLENDER.wav", "key_press": -1, "type": "PRES_AUD", "word": "blender", "wordID": 135, "conditions": [24, 800, "a", 12000], "trial": 6, "serialpos": 20, "trial_type": "single-audio", "trial_index": 245, "time_elapsed": 1217478, "internal_node_id": "0.0-182.0"}}, {"uniqueid": "MTK1000:3ZR9AIQJUCGLFS3DSZM68YAIJ4F40L", "current_trial": 246, "dateTime": 1512961861481, "trialdata": {"rt": -1000, "stimulus": "/static/audio/wordpool/ICING.wav", "key_press": -1, "type": "PRES_AUD", "word": "icing", "wordID": 731, "conditions": [24, 800, "a", 12000], "trial": 6, "serialpos": 21, "trial_type": "single-audio", "trial_index": 246, "time_elapsed": 1219398, "internal_node_id": "0.0-183.0"}}, {"uniqueid": "MTK1000:3ZR9AIQJUCGLFS3DSZM68YAIJ4F40L", "current_trial": 247, "dateTime": 1512961863227, "trialdata": {"rt": -1000, "stimulus": "/static/audio/wordpool/CANAL.wav", "key_press": -1, "type": "PRES_AUD", "word": "canal", "wordID": 225, "conditions": [24, 800, "a", 12000], "trial": 6, "serialpos": 22, "trial_type": "single-audio", "trial_index": 247, "time_elapsed": 1221144, "internal_node_id": "0.0-184.0"}}, {"uniqueid": "MTK1000:3ZR9AIQJUCGLFS3DSZM68YAIJ4F40L", "current_trial": 248, "dateTime": 1512961864973, "trialdata": {"rt": -1000, "stimulus": "/static/audio/wordpool/SPIDER.wav", "key_press": -1, "type": "PRES_AUD", "word": "spider", "wordID": 1350, "conditions": [24, 800, "a", 12000], "trial": 6, "serialpos": 23, "trial_type": "single-audio", "trial_index": 248, "time_elapsed": 1222890, "internal_node_id": "0.0-185.0"}}, {"uniqueid": "MTK1000:3ZR9AIQJUCGLFS3DSZM68YAIJ4F40L", "current_trial": 249, "dateTime": 1512961866268, "trialdata": {"rt": -1, "stimulus": "", "key_press": -1, "type": "PRE_RECALL_DELAY", "trial_type": "single-stim", "trial_index": 249, "time_elapsed": 1224185, "internal_node_id": "0.0-186.0-0.0"}}, {"uniqueid": "MTK1000:3ZR9AIQJUCGLFS3DSZM68YAIJ4F40L", "current_trial": 250, "dateTime": 1512961866769, "trialdata": {"rt": -1000, "stimulus": "/static/audio/400Hz.wav", "key_press": -1, "type": "PRE_RECALL_ALERT", "trial_type": "single-audio", "trial_index": 250, "time_elapsed": 1224686, "internal_node_id": "0.0-187.0"}}, {"uniqueid": "MTK1000:3ZR9AIQJUCGLFS3DSZM68YAIJ4F40L", "current_trial": 251, "dateTime": 1512961926775, "trialdata": {"rt": [], "recwords": [], "type": "FREE_RECALL", "conditions": [24, 800, "a", 12000], "trial": 6, "trial_type": "free-recall", "trial_index": 251, "time_elapsed": 1284688, "internal_node_id": "0.0-188.0-0.0"}}, {"uniqueid": "MTK1000:3ZR9AIQJUCGLFS3DSZM68YAIJ4F40L", "current_trial": 252, "dateTime": 1512961929624, "trialdata": {"rt": 848, "key_press": 32, "type": "INSTRUCTIONS", "trial_type": "text", "trial_index": 252, "time_elapsed": 1287541, "internal_node_id": "0.0-189.0"}}, {"uniqueid": "MTK1000:3ZR9AIQJUCGLFS3DSZM68YAIJ4F40L", "current_trial": 253, "dateTime": 1512961943626, "trialdata": {"rt": [3509, 6110, 8661, 11199], "responses": ["15", "10", "15", "19"], "num1": [7, 4, 3, 5, 1], "num2": [6, 1, 7, 5, 5], "num3": [2, 5, 5, 9, 4], "type": "DISTRACTOR", "conditions": [24, 1600, "a", 12000], "trial": 7, "trial_type": "math-distractor", "trial_index": 253, "time_elapsed": 1301543, "internal_node_id": "0.0-190.0"}}, {"uniqueid": "MTK1000:3ZR9AIQJUCGLFS3DSZM68YAIJ4F40L", "current_trial": 254, "dateTime": 1512961946626, "trialdata": {"rt": -1, "stimulus": "<p id=\"stim\">10</p>", "key_press": -1, "trial_type": "single-stim", "trial_index": 254, "time_elapsed": 1304543, "internal_node_id": "0.0-191.0-0.0"}}, {"uniqueid": "MTK1000:3ZR9AIQJUCGLFS3DSZM68YAIJ4F40L", "current_trial": 255, "dateTime": 1512961947627, "trialdata": {"rt": -1, "stimulus": "<p id=\"stim\">9</p>", "key_press": -1, "trial_type": "single-stim", "trial_index": 255, "time_elapsed": 1305544, "internal_node_id": "0.0-191.0-1.0"}}, {"uniqueid": "MTK1000:3ZR9AIQJUCGLFS3DSZM68YAIJ4F40L", "current_trial": 256, "dateTime": 1512961948627, "trialdata": {"rt": -1, "stimulus": "<p id=\"stim\">8</p>", "key_press": -1, "trial_type": "single-stim", "trial_index": 256, "time_elapsed": 1306544, "internal_node_id": "0.0-191.0-2.0"}}, {"uniqueid": "MTK1000:3ZR9AIQJUCGLFS3DSZM68YAIJ4F40L", "current_trial": 257, "dateTime": 1512961949628, "trialdata": {"rt": -1, "stimulus": "<p id=\"stim\">7</p>", "key_press": -1, "trial_type": "single-stim", "trial_index": 257, "time_elapsed": 1307545, "internal_node_id": "0.0-191.0-3.0"}}, {"uniqueid": "MTK1000:3ZR9AIQJUCGLFS3DSZM68YAIJ4F40L", "current_trial": 258, "dateTime": 1512961950690, "trialdata": {"rt": -1, "stimulus": "<p id=\"stim\">6</p>", "key_press": -1, "trial_type": "single-stim", "trial_index": 258, "time_elapsed": 1308607, "internal_node_id": "0.0-191.0-4.0"}}, {"uniqueid": "MTK1000:3ZR9AIQJUCGLFS3DSZM68YAIJ4F40L", "current_trial": 259, "dateTime": 1512961951690, "trialdata": {"rt": -1, "stimulus": "<p id=\"stim\">5</p>", "key_press": -1, "trial_type": "single-stim", "trial_index": 259, "time_elapsed": 1309607, "internal_node_id": "0.0-191.0-5.0"}}, {"uniqueid": "MTK1000:3ZR9AIQJUCGLFS3DSZM68YAIJ4F40L", "current_trial": 260, "dateTime": 1512961952690, "trialdata": {"rt": -1, "stimulus": "<p id=\"stim\">4</p>", "key_press": -1, "trial_type": "single-stim", "trial_index": 260, "time_elapsed": 1310607, "internal_node_id": "0.0-191.0-6.0"}}, {"uniqueid": "MTK1000:3ZR9AIQJUCGLFS3DSZM68YAIJ4F40L", "current_trial": 261, "dateTime": 1512961953690, "trialdata": {"rt": -1, "stimulus": "<p id=\"stim\">3</p>", "key_press": -1, "trial_type": "single-stim", "trial_index": 261, "time_elapsed": 1311607, "internal_node_id": "0.0-191.0-7.0"}}, {"uniqueid": "MTK1000:3ZR9AIQJUCGLFS3DSZM68YAIJ4F40L", "current_trial": 262, "dateTime": 1512961954691, "trialdata": {"rt": -1, "stimulus": "<p id=\"stim\">2</p>", "key_press": -1, "trial_type": "single-stim", "trial_index": 262, "time_elapsed": 1312607, "internal_node_id": "0.0-191.0-8.0"}}, {"uniqueid": "MTK1000:3ZR9AIQJUCGLFS3DSZM68YAIJ4F40L", "current_trial": 263, "dateTime": 1512961955691, "trialdata": {"rt": -1, "stimulus": "<p id=\"stim\">1</p>", "key_press": -1, "trial_type": "single-stim", "trial_index": 263, "time_elapsed": 1313608, "internal_node_id": "0.0-191.0-9.0"}}, {"uniqueid": "MTK1000:3ZR9AIQJUCGLFS3DSZM68YAIJ4F40L", "current_trial": 264, "dateTime": 1512961957193, "trialdata": {"rt": -1, "stimulus": "<p id=\"stim\">+</p>", "key_press": -1, "type": "FIXATION", "trial_type": "single-stim", "trial_index": 264, "time_elapsed": 1315110, "internal_node_id": "0.0-192.0-0.0"}}, {"uniqueid": "MTK1000:3ZR9AIQJUCGLFS3DSZM68YAIJ4F40L", "current_trial": 265, "dateTime": 1512961959868, "trialdata": {"rt": -1000, "stimulus": "/static/audio/wordpool/ZIPPER.wav", "key_press": -1, "type": "PRES_AUD", "word": "zipper", "wordID": 1635, "conditions": [24, 1600, "a", 12000], "trial": 7, "serialpos": 0, "trial_type": "single-audio", "trial_index": 265, "time_elapsed": 1317785, "internal_node_id": "0.0-193.0"}}, {"uniqueid": "MTK1000:3ZR9AIQJUCGLFS3DSZM68YAIJ4F40L", "current_trial": 266, "dateTime": 1512961962642, "trialdata": {"rt": -1000, "stimulus": "/static/audio/wordpool/FIREPLACE.wav", "key_press": -1, "type": "PRES_AUD", "word": "fireplace", "wordID": 569, "conditions": [24, 1600, "a", 12000], "trial": 7, "serialpos": 1, "trial_type": "single-audio", "trial_index": 266, "time_elapsed": 1320559, "internal_node_id": "0.0-194.0"}}, {"uniqueid": "MTK1000:3ZR9AIQJUCGLFS3DSZM68YAIJ4F40L", "current_trial": 267, "dateTime": 1512961965402, "trialdata": {"rt": -1000, "stimulus": "/static/audio/wordpool/ROOSTER.wav", "key_press": -1, "type": "PRES_AUD", "word": "rooster", "wordID": 1208, "conditions": [24, 1600, "a", 12000], "trial": 7, "serialpos": 2, "trial_type": "single-audio", "trial_index": 267, "time_elapsed": 1323319, "internal_node_id": "0.0-195.0"}}, {"uniqueid": "MTK1000:3ZR9AIQJUCGLFS3DSZM68YAIJ4F40L", "current_trial": 268, "dateTime": 1512961967943, "trialdata": {"rt": -1000, "stimulus": "/static/audio/wordpool/PARROT.wav", "key_press": -1, "type": "PRES_AUD", "word": "parrot", "wordID": 1014, "conditions": [24, 1600, "a", 12000], "trial": 7, "serialpos": 3, "trial_type": "single-audio", "trial_index": 268, "time_elapsed": 1325860, "internal_node_id": "0.0-196.0"}}, {"uniqueid": "MTK1000:3ZR9AIQJUCGLFS3DSZM68YAIJ4F40L", "current_trial": 269, "dateTime": 1512961970452, "trialdata": {"rt": -1000, "stimulus": "/static/audio/wordpool/CREVICE.wav", "key_press": -1, "type": "PRES_AUD", "word": "crevice", "wordID": 404, "conditions": [24, 1600, "a", 12000], "trial": 7, "serialpos": 4, "trial_type": "single-audio", "trial_index": 269, "time_elapsed": 1328369, "internal_node_id": "0.0-197.0"}}, {"uniqueid": "MTK1000:3ZR9AIQJUCGLFS3DSZM68YAIJ4F40L", "current_trial": 270, "dateTime": 1512961973017, "trialdata": {"rt": -1000, "stimulus": "/static/audio/wordpool/JURY.wav", "key_press": -1, "type": "PRES_AUD", "word": "jury", "wordID": 765, "conditions": [24, 1600, "a", 12000], "trial": 7, "serialpos": 5, "trial_type": "single-audio", "trial_index": 270, "time_elapsed": 1330934, "internal_node_id": "0.0-198.0"}}, {"uniqueid": "MTK1000:3ZR9AIQJUCGLFS3DSZM68YAIJ4F40L", "current_trial": 271, "dateTime": 1512961975547, "trialdata": {"rt": -1000, "stimulus": "/static/audio/wordpool/AUTHOR.wav", "key_press": -1, "type": "PRES_AUD", "word": "author", "wordID": 60, "conditions": [24, 1600, "a", 12000], "trial": 7, "serialpos": 6, "trial_type": "single-audio", "trial_index": 271, "time_elapsed": 1333464, "internal_node_id": "0.0-199.0"}}, {"uniqueid": "MTK1000:3ZR9AIQJUCGLFS3DSZM68YAIJ4F40L", "current_trial": 272, "dateTime": 1512961978283, "trialdata": {"rt": -1000, "stimulus": "/static/audio/wordpool/HERO.wav", "key_press": -1, "type": "PRES_AUD", "word