{"assignmentId": "323Q6SJS8JN6O86YAOPA5U6QYDPFHT", "workerId": "MTK1938", "questiondata": {"origin": "United States", "strat-rehearsal": "50", "marital": "Single", "education": "Bachelor's degree", "ethnicity": "Hispanic", "color_depth": 24, "distracted": "No", "wrote-notes": "No", "strat-other": "", "screen_width": 1280, "avail_screen_width": 1280, "avail_screen_height": 725, "strat-image": "10", "language": "English", "gender": "Female", "age": "28", "gender_other": "", "race": ["White"], "strat-categorize": "100", "pixel_depth": 24, "strat-spatial": "0", "strat-story": "100", "race_other": "", "screen_height": 800}, "bonus": 0, "hitId": "3EHVO81VN5SDB9EWDN5NR86CFWNH14", "counterbalance": 1258, "useragent": "Mozilla/5.0 (Macintosh; Intel Mac OS X 10_10_5) AppleWebKit/537.36 (KHTML, like Gecko) Chrome/63.0.3239.84 Safari/537.36", "eventdata": [{"eventtype": "initialized", "interval": 0, "value": null, "timestamp": 1516567814380}, {"eventtype": "window_resize", "interval": 0, "value": [1280, 674], "timestamp": 1516567814380}, {"eventtype": "focus", "interval": 2386614, "value": "off", "timestamp": 1516570200994}, {"eventtype": "focus", "interval": 98, "value": "on", "timestamp": 1516570201092}], "data": [{"current_trial": 0, "trialdata": {"rt": 2411, "trial_type": "text", "internal_node_id": "0.0-0.0", "time_elapsed": 2413, "key_press": 72, "type": "INSTRUCTIONS", "trial_index": 0}, "uniqueid": "MTK1938:323Q6SJS8JN6O86YAOPA5U6QYDPFHT", "dateTime": 1516567817050}, {"current_trial": 1, "trialdata": {"rt": 14612, "trial_type": "text", "internal_node_id": "0.0-1.0", "time_elapsed": 17026, "key_press": 85, "type": "INSTRUCTIONS", "trial_index": 1}, "uniqueid": "MTK1938:323Q6SJS8JN6O86YAOPA5U6QYDPFHT", "dateTime": 1516567831663}, {"current_trial": 2, "trialdata": {"rt": [19703], "trial_type": "audio-test", "responses": ["ocean"], "internal_node_id": "0.0-2.0", "time_elapsed": 36739, "type": "AUDIO_TEST", "trial_index": 2}, "uniqueid": "MTK1938:323Q6SJS8JN6O86YAOPA5U6QYDPFHT", "dateTime": 1516567851376}, {"current_trial": 3, "trialdata": {"rt": [7356], "trial_type": "audio-test", "responses": ["crystal"], "internal_node_id": "0.0-3.0", "time_elapsed": 44099, "type": "AUDIO_TEST", "trial_index": 3}, "uniqueid": "MTK1938:323Q6SJS8JN6O86YAOPA5U6QYDPFHT", "dateTime": 1516567858736}, {"current_trial": 4, "trialdata": {"rt": [5037], "trial_type": "audio-test", "responses": ["spice"], "internal_node_id": "0.0-4.0", "time_elapsed": 49139, "type": "AUDIO_TEST", "trial_index": 4}, "uniqueid": "MTK1938:323Q6SJS8JN6O86YAOPA5U6QYDPFHT", "dateTime": 1516567863776}, {"current_trial": 5, "trialdata": {"rt": 22220, "trial_type": "survey-text", "responses": "{\"Q0\":\"12:00am\",\"Q1\":\"9:30am\",\"Q2\":\"5\"}", "internal_node_id": "0.0-5.0", "time_elapsed": 72114, "type": "SLEEP_SURVEY", "trial_index": 5}, "uniqueid": "MTK1938:323Q6SJS8JN6O86YAOPA5U6QYDPFHT", "dateTime": 1516567886751}, {"current_trial": 6, "trialdata": {"rt": 35770, "trial_type": "text", "internal_node_id": "0.0-6.0", "time_elapsed": 108887, "key_press": 73, "type": "INSTRUCTIONS", "trial_index": 6}, "uniqueid": "MTK1938:323Q6SJS8JN6O86YAOPA5U6QYDPFHT", "dateTime": 1516567923524}, {"current_trial": 7, "trialdata": {"rt": 15010, "trial_type": "text", "internal_node_id": "0.0-7.0", "time_elapsed": 124402, "key_press": 74, "type": "INSTRUCTIONS", "trial_index": 7}, "uniqueid": "MTK1938:323Q6SJS8JN6O86YAOPA5U6QYDPFHT", "dateTime": 1516567939039}, {"current_trial": 8, "trialdata": {"rt": 10566, "trial_type": "text", "internal_node_id": "0.0-8.0", "time_elapsed": 135473, "key_press": 74, "type": "INSTRUCTIONS", "trial_index": 8}, "uniqueid": "MTK1938:323Q6SJS8JN6O86YAOPA5U6QYDPFHT", "dateTime": 1516567950110}, {"current_trial": 9, "trialdata": {"rt": [5553, 9290, 13249, 16241], "trial_type": "math-distractor", "key_times": [4633, 4841, 5553, 8561, 8833, 9290, 12689, 12873, 13249, 15577, 15697, 16241], "responses": ["15", "16", "19", "16"], "num2": [7, 3, 9, 7, 5], "num3": [6, 4, 6, 2, 3], "conditions": [18, 1200, "v", 18000], "internal_node_id": "0.0-9.0", "key_presses": [49, 53, 13, 49, 54, 13, 49, 57, 13, 49, 54, 13], "trial": 0, "time_elapsed": 154485, "type": "DISTRACTOR", "trial_index": 9, "num1": [2, 9, 4, 7, 6]}, "uniqueid": "MTK1938:323Q6SJS8JN6O86YAOPA5U6QYDPFHT", "dateTime": 1516567969122}, {"current_trial": 10, "trialdata": {"rt": -1, "trial_type": "single-stim", "stimulus": "<p id=\"stim\">10</p>", "internal_node_id": "0.0-10.0-0.0", "time_elapsed": 157492, "key_press": -1, "trial_index": 10}, "uniqueid": "MTK1938:323Q6SJS8JN6O86YAOPA5U6QYDPFHT", "dateTime": 1516567972129}, {"current_trial": 11, "trialdata": {"rt": -1, "trial_type": "single-stim", "stimulus": "<p id=\"stim\">9</p>", "internal_node_id": "0.0-10.0-1.0", "time_elapsed": 158497, "key_press": -1, "trial_index": 11}, "uniqueid": "MTK1938:323Q6SJS8JN6O86YAOPA5U6QYDPFHT", "dateTime": 1516567973134}, {"current_trial": 12, "trialdata": {"rt": -1, "trial_type": "single-stim", "stimulus": "<p id=\"stim\">8</p>", "internal_node_id": "0.0-10.0-2.0", "time_elapsed": 159502, "key_press": -1, "trial_index": 12}, "uniqueid": "MTK1938:323Q6SJS8JN6O86YAOPA5U6QYDPFHT", "dateTime": 1516567974139}, {"current_trial": 13, "trialdata": {"rt": -1, "trial_type": "single-stim", "stimulus": "<p id=\"stim\">7</p>", "internal_node_id": "0.0-10.0-3.0", "time_elapsed": 160507, "key_press": -1, "trial_index": 13}, "uniqueid": "MTK1938:323Q6SJS8JN6O86YAOPA5U6QYDPFHT", "dateTime": 1516567975144}, {"current_trial": 14, "trialdata": {"rt": -1, "trial_type": "single-stim", "stimulus": "<p id=\"stim\">6</p>", "internal_node_id": "0.0-10.0-4.0", "time_elapsed": 161512, "key_press": -1, "trial_index": 14}, "uniqueid": "MTK1938:323Q6SJS8JN6O86YAOPA5U6QYDPFHT", "dateTime": 1516567976149}, {"current_trial": 15, "trialdata": {"rt": -1, "trial_type": "single-stim", "stimulus": "<p id=\"stim\">5</p>", "internal_node_id": "0.0-10.0-5.0", "time_elapsed": 162518, "key_press": -1, "trial_index": 15}, "uniqueid": "MTK1938:323Q6SJS8JN6O86YAOPA5U6QYDPFHT", "dateTime": 1516567977155}, {"current_trial": 16, "trialdata": {"rt": -1, "trial_type": "single-stim", "stimulus": "<p id=\"stim\">4</p>", "internal_node_id": "0.0-10.0-6.0", "time_elapsed": 163522, "key_press": -1, "trial_index": 16}, "uniqueid": "MTK1938:323Q6SJS8JN6O86YAOPA5U6QYDPFHT", "dateTime": 1516567978159}, {"current_trial": 17, "trialdata": {"rt": -1, "trial_type": "single-stim", "stimulus": "<p id=\"stim\">3</p>", "internal_node_id": "0.0-10.0-7.0", "time_elapsed": 164526, "key_press": -1, "trial_index": 17}, "uniqueid": "MTK1938:323Q6SJS8JN6O86YAOPA5U6QYDPFHT", "dateTime": 1516567979164}, {"current_trial": 18, "trialdata": {"rt": -1, "trial_type": "single-stim", "stimulus": "<p id=\"stim\">2</p>", "internal_node_id": "0.0-10.0-8.0", "time_elapsed": 165532, "key_press": -1, "trial_index": 18}, "uniqueid": "MTK1938:323Q6SJS8JN6O86YAOPA5U6QYDPFHT", "dateTime": 1516567980169}, {"current_trial": 19, "trialdata": {"rt": -1, "trial_type": "single-stim", "stimulus": "<p id=\"stim\">1</p>", "internal_node_id": "0.0-10.0-9.0", "time_elapsed": 166536, "key_press": -1, "trial_index": 19}, "uniqueid": "MTK1938:323Q6SJS8JN6O86YAOPA5U6QYDPFHT", "dateTime": 1516567981173}, {"current_trial": 20, "trialdata": {"rt": -1, "trial_type": "single-stim", "stimulus": "<p id=\"stim\">+</p>", "internal_node_id": "0.0-11.0-0.0", "time_elapsed": 168037, "key_press": -1, "type": "FIXATION", "trial_index": 20}, "uniqueid": "MTK1938:323Q6SJS8JN6O86YAOPA5U6QYDPFHT", "dateTime": 1516567982675}, {"current_trial": 21, "trialdata": {"rt": -1, "trial_type": "single-stim", "word": "nightgown", "stimulus": "<p id=\"stim\">NIGHTGOWN</p>", "conditions": [18, 1200, "v", 18000], "internal_node_id": "0.0-12.0", "trial": 0, "time_elapsed": 169239, "serialpos": 0, "key_press": -1, "wordID": 952, "type": "PRES_VIS", "trial_index": 21}, "uniqueid": "MTK1938:323Q6SJS8JN6O86YAOPA5U6QYDPFHT", "dateTime": 1516567983876}, {"current_trial": 22, "trialdata": {"rt": -1, "trial_type": "single-stim", "word": "bank", "stimulus": "<p id=\"stim\">BANK</p>", "conditions": [18, 1200, "v", 18000], "internal_node_id": "0.0-13.0", "trial": 0, "time_elapsed": 171273, "serialpos": 1, "key_press": -1, "wordID": 82, "type": "PRES_VIS", "trial_index": 22}, "uniqueid": "MTK1938:323Q6SJS8JN6O86YAOPA5U6QYDPFHT", "dateTime": 1516567985910}, {"current_trial": 23, "trialdata": {"rt": -1, "trial_type": "single-stim", "word": "pliers", "stimulus": "<p id=\"stim\">PLIERS</p>", "conditions": [18, 1200, "v", 18000], "internal_node_id": "0.0-14.0", "trial": 0, "time_elapsed": 173342, "serialpos": 2, "key_press": -1, "wordID": 1088, "type": "PRES_VIS", "trial_index": 23}, "uniqueid": "MTK1938:323Q6SJS8JN6O86YAOPA5U6QYDPFHT", "dateTime": 1516567987980}, {"current_trial": 24, "trialdata": {"rt": -1, "trial_type": "single-stim", "word": "wardrobe", "stimulus": "<p id=\"stim\">WARDROBE</p>", "conditions": [18, 1200, "v", 18000], "internal_node_id": "0.0-15.0", "trial": 0, "time_elapsed": 175438, "serialpos": 3, "key_press": -1, "wordID": 1586, "type": "PRES_VIS", "trial_index": 24}, "uniqueid": "MTK1938:323Q6SJS8JN6O86YAOPA5U6QYDPFHT", "dateTime": 1516567990075}, {"current_trial": 25, "trialdata": {"rt": -1, "trial_type": "single-stim", "word": "ankle", "stimulus": "<p id=\"stim\">ANKLE</p>", "conditions": [18, 1200, "v", 18000], "internal_node_id": "0.0-16.0", "trial": 0, "time_elapsed": 177765, "serialpos": 4, "key_press": -1, "wordID": 23, "type": "PRES_VIS", "trial_index": 25}, "uniqueid": "MTK1938:323Q6SJS8JN6O86YAOPA5U6QYDPFHT", "dateTime": 1516567992402}, {"current_trial": 26, "trialdata": {"rt": -1, "trial_type": "single-stim", "word": "pizza", "stimulus": "<p id=\"stim\">PIZZA</p>", "conditions": [18, 1200, "v", 18000], "internal_node_id": "0.0-17.0", "trial": 0, "time_elapsed": 179878, "serialpos": 5, "key_press": -1, "wordID": 1078, "type": "PRES_VIS", "trial_index": 26}, "uniqueid": "MTK1938:323Q6SJS8JN6O86YAOPA5U6QYDPFHT", "dateTime": 1516567994515}, {"current_trial": 27, "trialdata": {"rt": -1, "trial_type": "single-stim", "word": "diner", "stimulus": "<p id=\"stim\">DINER</p>", "conditions": [18, 1200, "v", 18000], "internal_node_id": "0.0-18.0", "trial": 0, "time_elapsed": 182153, "serialpos": 6, "key_press": -1, "wordID": 466, "type": "PRES_VIS", "trial_index": 27}, "uniqueid": "MTK1938:323Q6SJS8JN6O86YAOPA5U6QYDPFHT", "dateTime": 1516567996790}, {"current_trial": 28, "trialdata": {"rt": -1, "trial_type": "single-stim", "word": "tart", "stimulus": "<p id=\"stim\">TART</p>", "conditions": [18, 1200, "v", 18000], "internal_node_id": "0.0-19.0", "trial": 0, "time_elapsed": 184220, "serialpos": 7, "key_press": -1, "wordID": 1435, "type": "PRES_VIS", "trial_index": 28}, "uniqueid": "MTK1938:323Q6SJS8JN6O86YAOPA5U6QYDPFHT", "dateTime": 1516567998857}, {"current_trial": 29, "trialdata": {"rt": -1, "trial_type": "single-stim", "word": "plaza", "stimulus": "<p id=\"stim\">PLAZA</p>", "conditions": [18, 1200, "v", 18000], "internal_node_id": "0.0-20.0", "trial": 0, "time_elapsed": 186315, "serialpos": 8, "key_press": -1, "wordID": 1087, "type": "PRES_VIS", "trial_index": 29}, "uniqueid": "MTK1938:323Q6SJS8JN6O86YAOPA5U6QYDPFHT", "dateTime": 1516568000952}, {"current_trial": 30, "trialdata": {"rt": -1, "trial_type": "single-stim", "word": "scissors", "stimulus": "<p id=\"stim\">SCISSORS</p>", "conditions": [18, 1200, "v", 18000], "internal_node_id": "0.0-21.0", "trial": 0, "time_elapsed": 188491, "serialpos": 9, "key_press": -1, "wordID": 1249, "type": "PRES_VIS", "trial_index": 30}, "uniqueid": "MTK1938:323Q6SJS8JN6O86YAOPA5U6QYDPFHT", "dateTime": 1516568003128}, {"current_trial": 31, "trialdata": {"rt": -1, "trial_type": "single-stim", "word": "carrot", "stimulus": "<p id=\"stim\">CARROT</p>", "conditions": [18, 1200, "v", 18000], "internal_node_id": "0.0-22.0", "trial": 0, "time_elapsed": 190831, "serialpos": 10, "key_press": -1, "wordID": 248, "type": "PRES_VIS", "trial_index": 31}, "uniqueid": "MTK1938:323Q6SJS8JN6O86YAOPA5U6QYDPFHT", "dateTime": 1516568005468}, {"current_trial": 32, "trialdata": {"rt": -1, "trial_type": "single-stim", "word": "muffin", "stimulus": "<p id=\"stim\">MUFFIN</p>", "conditions": [18, 1200, "v", 18000], "internal_node_id": "0.0-23.0", "trial": 0, "time_elapsed": 192920, "serialpos": 11, "key_press": -1, "wordID": 928, "type": "PRES_VIS", "trial_index": 32}, "uniqueid": "MTK1938:323Q6SJS8JN6O86YAOPA5U6QYDPFHT", "dateTime": 1516568007557}, {"current_trial": 33, "trialdata": {"rt": -1, "trial_type": "single-stim", "word": "police", "stimulus": "<p id=\"stim\">POLICE</p>", "conditions": [18, 1200, "v", 18000], "internal_node_id": "0.0-24.0", "trial": 0, "time_elapsed": 195201, "serialpos": 12, "key_press": -1, "wordID": 1097, "type": "PRES_VIS", "trial_index": 33}, "uniqueid": "MTK1938:323Q6SJS8JN6O86YAOPA5U6QYDPFHT", "dateTime": 1516568009838}, {"current_trial": 34, "trialdata": {"rt": -1, "trial_type": "single-stim", "word": "airplane", "stimulus": "<p id=\"stim\">AIRPLANE</p>", "conditions": [18, 1200, "v", 18000], "internal_node_id": "0.0-25.0", "trial": 0, "time_elapsed": 197430, "serialpos": 13, "key_press": -1, "wordID": 11, "type": "PRES_VIS", "trial_index": 34}, "uniqueid": "MTK1938:323Q6SJS8JN6O86YAOPA5U6QYDPFHT", "dateTime": 1516568012067}, {"current_trial": 35, "trialdata": {"rt": -1, "trial_type": "single-stim", "word": "cyclone", "stimulus": "<p id=\"stim\">CYCLONE</p>", "conditions": [18, 1200, "v", 18000], "internal_node_id": "0.0-26.0", "trial": 0, "time_elapsed": 199554, "serialpos": 14, "key_press": -1, "wordID": 430, "type": "PRES_VIS", "trial_index": 35}, "uniqueid": "MTK1938:323Q6SJS8JN6O86YAOPA5U6QYDPFHT", "dateTime": 1516568014191}, {"current_trial": 36, "trialdata": {"rt": -1, "trial_type": "single-stim", "word": "globe", "stimulus": "<p id=\"stim\">GLOBE</p>", "conditions": [18, 1200, "v", 18000], "internal_node_id": "0.0-27.0", "trial": 0, "time_elapsed": 201829, "serialpos": 15, "key_press": -1, "wordID": 640, "type": "PRES_VIS", "trial_index": 36}, "uniqueid": "MTK1938:323Q6SJS8JN6O86YAOPA5U6QYDPFHT", "dateTime": 1516568016466}, {"current_trial": 37, "trialdata": {"rt": -1, "trial_type": "single-stim", "word": "keeper", "stimulus": "<p id=\"stim\">KEEPER</p>", "conditions": [18, 1200, "v", 18000], "internal_node_id": "0.0-28.0", "trial": 0, "time_elapsed": 204066, "serialpos": 16, "key_press": -1, "wordID": 768, "type": "PRES_VIS", "trial_index": 37}, "uniqueid": "MTK1938:323Q6SJS8JN6O86YAOPA5U6QYDPFHT", "dateTime": 1516568018704}, {"current_trial": 38, "trialdata": {"rt": -1, "trial_type": "single-stim", "word": "vagrant", "stimulus": "<p id=\"stim\">VAGRANT</p>", "conditions": [18, 1200, "v", 18000], "internal_node_id": "0.0-29.0", "trial": 0, "time_elapsed": 206165, "serialpos": 17, "key_press": -1, "wordID": 1543, "type": "PRES_VIS", "trial_index": 38}, "uniqueid": "MTK1938:323Q6SJS8JN6O86YAOPA5U6QYDPFHT", "dateTime": 1516568020802}, {"current_trial": 39, "trialdata": {"rt": -1, "trial_type": "single-stim", "stimulus": "", "internal_node_id": "0.0-30.0-0.0", "time_elapsed": 208463, "key_press": -1, "type": "PRE_RECALL_DELAY", "trial_index": 39}, "uniqueid": "MTK1938:323Q6SJS8JN6O86YAOPA5U6QYDPFHT", "dateTime": 1516568023101}, {"current_trial": 40, "trialdata": {"rt": -1000, "trial_type": "single-audio", "stimulus": "/static/audio/400Hz.wav", "internal_node_id": "0.0-31.0", "time_elapsed": 208966, "key_press": -1, "type": "PRE_RECALL_ALERT", "trial_index": 40}, "uniqueid": "MTK1938:323Q6SJS8JN6O86YAOPA5U6QYDPFHT", "dateTime": 1516568023603}, {"current_trial": 41, "trialdata": {"rt": [4207, 9560, 11928, 14407, 16136, 18112, 42887], "recwords": ["vagrant", "scissors", "pliers", "nightgown", "pizza", "muffin", "deck"], "key_times": [1184, 1335, 1503, 1744, 1904, 2087, 2223, 3064, 3488, 3791, 3935, 4207, 4535, 4752, 4919, 5119, 5647, 5775, 6688, 6786, 7224, 7559, 7880, 8015, 8368, 8551, 8712, 8992, 9136, 9359, 9560, 10400, 10656, 10856, 11385, 11471, 11656, 11928, 12399, 12576, 12663, 12807, 12864, 13680, 13848, 13967, 14080, 14407, 14872, 15080, 15279, 15496, 15880, 16136, 16512, 16736, 16864, 17016, 17224, 17280, 18112, 42104, 42271, 42407, 42639, 42887], "trial_type": "free-recall", "conditions": [18, 1200, "v", 18000], "internal_node_id": "0.0-32.0-0.0", "key_presses": [86, 65, 71, 82, 65, 77, 84, 8, 8, 78, 84, 13, 83, 67, 79, 83, 8, 8, 83, 73, 8, 73, 8, 8, 73, 83, 83, 79, 82, 83, 13, 80, 76, 73, 69, 82, 83, 13, 78, 73, 71, 72, 84, 71, 79, 87, 78, 13, 80, 73, 90, 90, 65, 13, 77, 85, 70, 70, 73, 78, 13, 68, 69, 67, 75, 13], "trial": 0, "time_elapsed": 268970, "type": "FREE_RECALL", "trial_index": 41}, "uniqueid": "MTK1938:323Q6SJS8JN6O86YAOPA5U6QYDPFHT", "dateTime": 1516568083609}, {"current_trial": 42, "trialdata": {"rt": 2700, "trial_type": "text", "internal_node_id": "0.0-33.0", "time_elapsed": 273678, "key_press": 32, "type": "INSTRUCTIONS", "trial_index": 42}, "uniqueid": "MTK1938:323Q6SJS8JN6O86YAOPA5U6QYDPFHT", "dateTime": 1516568088315}, {"current_trial": 43, "trialdata": {"rt": [4597, 8834, 11354, 13515, 16747], "trial_type": "math-distractor", "key_times": [4166, 4317, 4597, 8443, 8594, 8834, 10947, 11122, 11354, 12971, 13162, 13515, 16307, 16523, 16747], "responses": ["23", "14", "11", "17", "15"], "num2": [9, 4, 2, 1, 6, 4], "num3": [5, 2, 1, 7, 1, 8], "conditions": [18, 1200, "v", 18000], "internal_node_id": "0.0-34.0", "key_presses": [50, 51, 13, 49, 52, 13, 49, 49, 13, 49, 55, 13, 49, 53, 13], "trial": 1, "time_elapsed": 293684, "type": "DISTRACTOR", "trial_index": 43, "num1": [9, 8, 8, 9, 8, 3]}, "uniqueid": "MTK1938:323Q6SJS8JN6O86YAOPA5U6QYDPFHT", "dateTime": 1516568108321}, {"current_trial": 44, "trialdata": {"rt": -1, "trial_type": "single-stim", "stimulus": "<p id=\"stim\">10</p>", "internal_node_id": "0.0-35.0-0.0", "time_elapsed": 296690, "key_press": -1, "trial_index": 44}, "uniqueid": "MTK1938:323Q6SJS8JN6O86YAOPA5U6QYDPFHT", "dateTime": 1516568111328}, {"current_trial": 45, "trialdata": {"rt": -1, "trial_type": "single-stim", "stimulus": "<p id=\"stim\">9</p>", "internal_node_id": "0.0-35.0-1.0", "time_elapsed": 297695, "key_press": -1, "trial_index": 45}, "uniqueid": "MTK1938:323Q6SJS8JN6O86YAOPA5U6QYDPFHT", "dateTime": 1516568112332}, {"current_trial": 46, "trialdata": {"rt": -1, "trial_type": "single-stim", "stimulus": "<p id=\"stim\">8</p>", "internal_node_id": "0.0-35.0-2.0", "time_elapsed": 298698, "key_press": -1, "trial_index": 46}, "uniqueid": "MTK1938:323Q6SJS8JN6O86YAOPA5U6QYDPFHT", "dateTime": 1516568113335}, {"current_trial": 47, "trialdata": {"rt": -1, "trial_type": "single-stim", "stimulus": "<p id=\"stim\">7</p>", "internal_node_id": "0.0-35.0-3.0", "time_elapsed": 299703, "key_press": -1, "trial_index": 47}, "uniqueid": "MTK1938:323Q6SJS8JN6O86YAOPA5U6QYDPFHT", "dateTime": 1516568114340}, {"current_trial": 48, "trialdata": {"rt": -1, "trial_type": "single-stim", "stimulus": "<p id=\"stim\">6</p>", "internal_node_id": "0.0-35.0-4.0", "time_elapsed": 300709, "key_press": -1, "trial_index": 48}, "uniqueid": "MTK1938:323Q6SJS8JN6O86YAOPA5U6QYDPFHT", "dateTime": 1516568115346}, {"current_trial": 49, "trialdata": {"rt": -1, "trial_type": "single-stim", "stimulus": "<p id=\"stim\">5</p>", "internal_node_id": "0.0-35.0-5.0", "time_elapsed": 301713, "key_press": -1, "trial_index": 49}, "uniqueid": "MTK1938:323Q6SJS8JN6O86YAOPA5U6QYDPFHT", "dateTime": 1516568116350}, {"current_trial": 50, "trialdata": {"rt": -1, "trial_type": "single-stim", "stimulus": "<p id=\"stim\">4</p>", "internal_node_id": "0.0-35.0-6.0", "time_elapsed": 302716, "key_press": -1, "trial_index": 50}, "uniqueid": "MTK1938:323Q6SJS8JN6O86YAOPA5U6QYDPFHT", "dateTime": 1516568117353}, {"current_trial": 51, "trialdata": {"rt": -1, "trial_type": "single-stim", "stimulus": "<p id=\"stim\">3</p>", "internal_node_id": "0.0-35.0-7.0", "time_elapsed": 303720, "key_press": -1, "trial_index": 51}, "uniqueid": "MTK1938:323Q6SJS8JN6O86YAOPA5U6QYDPFHT", "dateTime": 1516568118357}, {"current_trial": 52, "trialdata": {"rt": -1, "trial_type": "single-stim", "stimulus": "<p id=\"stim\">2</p>", "internal_node_id": "0.0-35.0-8.0", "time_elapsed": 304724, "key_press": -1, "trial_index": 52}, "uniqueid": "MTK1938:323Q6SJS8JN6O86YAOPA5U6QYDPFHT", "dateTime": 1516568119361}, {"current_trial": 53, "trialdata": {"rt": -1, "trial_type": "single-stim", "stimulus": "<p id=\"stim\">1</p>", "internal_node_id": "0.0-35.0-9.0", "time_elapsed": 305728, "key_press": -1, "trial_index": 53}, "uniqueid": "MTK1938:323Q6SJS8JN6O86YAOPA5U6QYDPFHT", "dateTime": 1516568120365}, {"current_trial": 54, "trialdata": {"rt": -1, "trial_type": "single-stim", "stimulus": "<p id=\"stim\">+</p>", "internal_node_id": "0.0-36.0-0.0", "time_elapsed": 307231, "key_press": -1, "type": "FIXATION", "trial_index": 54}, "uniqueid": "MTK1938:323Q6SJS8JN6O86YAOPA5U6QYDPFHT", "dateTime": 1516568121868}, {"current_trial": 55, "trialdata": {"rt": -1, "trial_type": "single-stim", "word": "chest", "stimulus": "<p id=\"stim\">CHEST</p>", "conditions": [18, 1200, "v", 18000], "internal_node_id": "0.0-37.0", "trial": 1, "time_elapsed": 308432, "serialpos": 0, "key_press": -1, "wordID": 294, "type": "PRES_VIS", "trial_index": 55}, "uniqueid": "MTK1938:323Q6SJS8JN6O86YAOPA5U6QYDPFHT", "dateTime": 1516568123071}, {"current_trial": 56, "trialdata": {"rt": -1, "trial_type": "single-stim", "word": "church", "stimulus": "<p id=\"stim\">CHURCH</p>", "conditions": [18, 1200, "v", 18000], "internal_node_id": "0.0-38.0", "trial": 1, "time_elapsed": 310708, "serialpos": 1, "key_press": -1, "wordID": 306, "type": "PRES_VIS", "trial_index": 56}, "uniqueid": "MTK1938:323Q6SJS8JN6O86YAOPA5U6QYDPFHT", "dateTime": 1516568125345}, {"current_trial": 57, "trialdata": {"rt": -1, "trial_type": "single-stim", "word": "dentist", "stimulus": "<p id=\"stim\">DENTIST</p>", "conditions": [18, 1200, "v", 18000], "internal_node_id": "0.0-39.0", "trial": 1, "time_elapsed": 312861, "serialpos": 2, "key_press": -1, "wordID": 446, "type": "PRES_VIS", "trial_index": 57}, "uniqueid": "MTK1938:323Q6SJS8JN6O86YAOPA5U6QYDPFHT", "dateTime": 1516568127498}, {"current_trial": 58, "trialdata": {"rt": -1, "trial_type": "single-stim", "word": "cross", "stimulus": "<p id=\"stim\">CROSS</p>", "conditions": [18, 1200, "v", 18000], "internal_node_id": "0.0-40.0", "trial": 1, "time_elapsed": 315131, "serialpos": 3, "key_press": -1, "wordID": 412, "type": "PRES_VIS", "trial_index": 58}, "uniqueid": "MTK1938:323Q6SJS8JN6O86YAOPA5U6QYDPFHT", "dateTime": 1516568129768}, {"current_trial": 59, "trialdata": {"rt": -1, "trial_type": "single-stim", "word": "agent", "stimulus": "<p id=\"stim\">AGENT</p>", "conditions": [18, 1200, "v", 18000], "internal_node_id": "0.0-41.0", "trial": 1, "time_elapsed": 317383, "serialpos": 4, "key_press": -1, "wordID": 9, "type": "PRES_VIS", "trial_index": 59}, "uniqueid": "MTK1938:323Q6SJS8JN6O86YAOPA5U6QYDPFHT", "dateTime": 1516568132020}, {"current_trial": 60, "trialdata": {"rt": -1, "trial_type": "single-stim", "word": "driver", "stimulus": "<p id=\"stim\">DRIVER</p>", "conditions": [18, 1200, "v", 18000], "internal_node_id": "0.0-42.0", "trial": 1, "time_elapsed": 319659, "serialpos": 5, "key_press": -1, "wordID": 498, "type": "PRES_VIS", "trial_index": 60}, "uniqueid": "MTK1938:323Q6SJS8JN6O86YAOPA5U6QYDPFHT", "dateTime": 1516568134296}, {"current_trial": 61, "trialdata": {"rt": -1, "trial_type": "single-stim", "word": "thief", "stimulus": "<p id=\"stim\">THIEF</p>", "conditions": [18, 1200, "v", 18000], "internal_node_id": "0.0-43.0", "trial": 1, "time_elapsed": 321852, "serialpos": 6, "key_press": -1, "wordID": 1455, "type": "PRES_VIS", "trial_index": 61}, "uniqueid": "MTK1938:323Q6SJS8JN6O86YAOPA5U6QYDPFHT", "dateTime": 1516568136489}, {"current_trial": 62, "trialdata": {"rt": -1, "trial_type": "single-stim", "word": "nurse", "stimulus": "<p id=\"stim\">NURSE</p>", "conditions": [18, 1200, "v", 18000], "internal_node_id": "0.0-44.0", "trial": 1, "time_elapsed": 324144, "serialpos": 7, "key_press": -1, "wordID": 962, "type": "PRES_VIS", "trial_index": 62}, "uniqueid": "MTK1938:323Q6SJS8JN6O86YAOPA5U6QYDPFHT", "dateTime": 1516568138782}, {"current_trial": 63, "trialdata": {"rt": -1, "trial_type": "single-stim", "word": "chipmunk", "stimulus": "<p id=\"stim\">CHIPMUNK</p>", "conditions": [18, 1200, "v", 18000], "internal_node_id": "0.0-45.0", "trial": 1, "time_elapsed": 326275, "serialpos": 8, "key_press": -1, "wordID": 303, "type": "PRES_VIS", "trial_index": 63}, "uniqueid": "MTK1938:323Q6SJS8JN6O86YAOPA5U6QYDPFHT", "dateTime": 1516568140912}, {"current_trial": 64, "trialdata": {"rt": -1, "trial_type": "single-stim", "word": "compass", "stimulus": "<p id=\"stim\">COMPASS</p>", "conditions": [18, 1200, "v", 18000], "internal_node_id": "0.0-46.0", "trial": 1, "time_elapsed": 328643, "serialpos": 9, "key_press": -1, "wordID": 357, "type": "PRES_VIS", "trial_index": 64}, "uniqueid": "MTK1938:323Q6SJS8JN6O86YAOPA5U6QYDPFHT", "dateTime": 1516568143280}, {"current_trial": 65, "trialdata": {"rt": -1, "trial_type": "single-stim", "word": "burglar", "stimulus": "<p id=\"stim\">BURGLAR</p>", "conditions": [18, 1200, "v", 18000], "internal_node_id": "0.0-47.0", "trial": 1, "time_elapsed": 330894, "serialpos": 10, "key_press": -1, "wordID": 199, "type": "PRES_VIS", "trial_index": 65}, "uniqueid": "MTK1938:323Q6SJS8JN6O86YAOPA5U6QYDPFHT", "dateTime": 1516568145531}, {"current_trial": 66, "trialdata": {"rt": -1, "trial_type": "single-stim", "word": "hand", "stimulus": "<p id=\"stim\">HAND</p>", "conditions": [18, 1200, "v", 18000], "internal_node_id": "0.0-48.0", "trial": 1, "time_elapsed": 332909, "serialpos": 11, "key_press": -1, "wordID": 682, "type": "PRES_VIS", "trial_index": 66}, "uniqueid": "MTK1938:323Q6SJS8JN6O86YAOPA5U6QYDPFHT", "dateTime": 1516568147546}, {"current_trial": 67, "trialdata": {"rt": -1, "trial_type": "single-stim", "word": "widow", "stimulus": "<p id=\"stim\">WIDOW</p>", "conditions": [18, 1200, "v", 18000], "internal_node_id": "0.0-49.0", "trial": 1, "time_elapsed": 335251, "serialpos": 12, "key_press": -1, "wordID": 1607, "type": "PRES_VIS", "trial_index": 67}, "uniqueid": "MTK1938:323Q6SJS8JN6O86YAOPA5U6QYDPFHT", "dateTime": 1516568149888}, {"current_trial": 68, "trialdata": {"rt": -1, "trial_type": "single-stim", "word": "frame", "stimulus": "<p id=\"stim\">FRAME</p>", "conditions": [18, 1200, "v", 18000], "internal_node_id": "0.0-50.0", "trial": 1, "time_elapsed": 337314, "serialpos": 13, "key_press": -1, "wordID": 599, "type": "PRES_VIS", "trial_index": 68}, "uniqueid": "MTK1938:323Q6SJS8JN6O86YAOPA5U6QYDPFHT", "dateTime": 1516568151951}, {"current_trial": 69, "trialdata": {"rt": -1, "trial_type": "single-stim", "word": "glass", "stimulus": "<p id=\"stim\">GLASS</p>", "conditions": [18, 1200, "v", 18000], "internal_node_id": "0.0-51.0", "trial": 1, "time_elapsed": 339543, "serialpos": 14, "key_press": -1, "wordID": 638, "type": "PRES_VIS", "trial_index": 69}, "uniqueid": "MTK1938:323Q6SJS8JN6O86YAOPA5U6QYDPFHT", "dateTime": 1516568154180}, {"current_trial": 70, "trialdata": {"rt": -1, "trial_type": "single-stim", "word": "candy", "stimulus": "<p id=\"stim\">CANDY</p>", "conditions": [18, 1200, "v", 18000], "internal_node_id": "0.0-52.0", "trial": 1, "time_elapsed": 341737, "serialpos": 15, "key_press": -1, "wordID": 229, "type": "PRES_VIS", "trial_index": 70}, "uniqueid": "MTK1938:323Q6SJS8JN6O86YAOPA5U6QYDPFHT", "dateTime": 1516568156374}, {"current_trial": 71, "trialdata": {"rt": -1, "trial_type": "single-stim", "word": "barley", "stimulus": "<p id=\"stim\">BARLEY</p>", "conditions": [18, 1200, "v", 18000], "internal_node_id": "0.0-53.0", "trial": 1, "time_elapsed": 344081, "serialpos": 16, "key_press": -1, "wordID": 87, "type": "PRES_VIS", "trial_index": 71}, "uniqueid": "MTK1938:323Q6SJS8JN6O86YAOPA5U6QYDPFHT", "dateTime": 1516568158718}, {"current_trial": 72, "trialdata": {"rt": -1, "trial_type": "single-stim", "word": "palace", "stimulus": "<p id=\"stim\">PALACE</p>", "conditions": [18, 1200, "v", 18000], "internal_node_id": "0.0-54.0", "trial": 1, "time_elapsed": 346462, "serialpos": 17, "key_press": -1, "wordID": 1005, "type": "PRES_VIS", "trial_index": 72}, "uniqueid": "MTK1938:323Q6SJS8JN6O86YAOPA5U6QYDPFHT", "dateTime": 1516568161099}, {"current_trial": 73, "trialdata": {"rt": -1, "trial_type": "single-stim", "stimulus": "", "internal_node_id": "0.0-55.0-0.0", "time_elapsed": 348685, "key_press": -1, "type": "PRE_RECALL_DELAY", "trial_index": 73}, "uniqueid": "MTK1938:323Q6SJS8JN6O86YAOPA5U6QYDPFHT", "dateTime": 1516568163322}, {"current_trial": 74, "trialdata": {"rt": -1000, "trial_type": "single-audio", "stimulus": "/static/audio/400Hz.wav", "internal_node_id": "0.0-56.0", "time_elapsed": 349188, "key_press": -1, "type": "PRE_RECALL_ALERT", "trial_index": 74}, "uniqueid": "MTK1938:323Q6SJS8JN6O86YAOPA5U6QYDPFHT", "dateTime": 1516568163825}, {"current_trial": 75, "trialdata": {"rt": [3721, 5057, 6890, 8337, 11466, 13082, 16161, 17738, 31499, 41057, 43425, 57407], "recwords": ["dentist", "hand", "palace", "nurse", "barley", "nurse", "cross", "church", "palace", "theif", "burglar", "cross"], "key_times": [2281, 2497, 2849, 2993, 3193, 3305, 3457, 3721, 4457, 4553, 4681, 4809, 5057, 5529, 5649, 5978, 6305, 6473, 6625, 6890, 7361, 7578, 7681, 7874, 8057, 8337, 8978, 9057, 9169, 9314, 9570, 9905, 10074, 10321, 10442, 10866, 11466, 12290, 12481, 12594, 12730, 12874, 13082, 15401, 15602, 15730, 15858, 16017, 16161, 16530, 16633, 16834, 16913, 17329, 17442, 17738, 30404, 30555, 30715, 30843, 31011, 31331, 31499, 39857, 39993, 40025, 40057, 40826, 41057, 42009, 42217, 42305, 42505, 42657, 43177, 43289, 43425, 56391, 56639, 56799, 57111, 57263, 57407], "trial_type": "free-recall", "conditions": [18, 1200, "v", 18000], "internal_node_id": "0.0-57.0-0.0", "key_presses": [68, 69, 78, 84, 73, 83, 84, 13, 72, 65, 78, 68, 13, 80, 65, 76, 65, 67, 69, 13, 78, 85, 82, 83, 69, 13, 66, 65, 82, 69, 76, 8, 8, 76, 69, 89, 13, 78, 85, 82, 83, 69, 13, 67, 82, 79, 83, 83, 13, 67, 72, 85, 82, 67, 72, 13, 80, 65, 76, 65, 67, 69, 13, 84, 72, 69, 73, 70, 13, 66, 85, 82, 71, 76, 65, 82, 13, 67, 82, 79, 83, 83, 13], "trial": 1, "time_elapsed": 409192, "type": "FREE_RECALL", "trial_index": 75}, "uniqueid": "MTK1938:323Q6SJS8JN6O86YAOPA5U6QYDPFHT", "dateTime": 1516568223831}, {"current_trial": 76, "trialdata": {"rt": 3346, "trial_type": "text", "internal_node_id": "0.0-58.0", "time_elapsed": 414540, "key_press": 74, "type": "INSTRUCTIONS", "trial_index": 76}, "uniqueid": "MTK1938:323Q6SJS8JN6O86YAOPA5U6QYDPFHT", "dateTime": 1516568229177}, {"current_trial": 77, "trialdata": {"rt": [4156, 6140, 8604, 11476, 13341, 15445, 18252, 22930], "trial_type": "math-distractor", "key_times": [3612, 3772, 4156, 5804, 5948, 6140, 8172, 8364, 8604, 11133, 11325, 11476, 12829, 13029, 13341, 15229, 15445, 17749, 17869, 18252, 22313, 22737, 22930], "responses": ["16", "11", "15", "21", "18", "5", "17", "13"], "num2": [5, 3, 4, 5, 2, 3, 9, 3, 6], "num3": [4, 7, 9, 7, 8, 1, 2, 7, 4], "conditions": [24, 1600, "v", 24000], "internal_node_id": "0.0-59.0", "key_presses": [49, 54, 13, 49, 49, 13, 49, 53, 13, 50, 49, 13, 49, 56, 13, 53, 13, 49, 55, 13, 49, 51, 13], "trial": 2, "time_elapsed": 439549, "type": "DISTRACTOR", "trial_index": 77, "num1": [7, 1, 2, 9, 8, 1, 6, 3, 9]}, "uniqueid": "MTK1938:323Q6SJS8JN6O86YAOPA5U6QYDPFHT", "dateTime": 1516568254186}, {"current_trial": 78, "trialdata": {"rt": -1, "trial_type": "single-stim", "stimulus": "<p id=\"stim\">10</p>", "internal_node_id": "0.0-60.0-0.0", "time_elapsed": 442558, "key_press": -1, "trial_index": 78}, "uniqueid": "MTK1938:323Q6SJS8JN6O86YAOPA5U6QYDPFHT", "dateTime": 1516568257195}, {"current_trial": 79, "trialdata": {"rt": -1, "trial_type": "single-stim", "stimulus": "<p id=\"stim\">9</p>", "internal_node_id": "0.0-60.0-1.0", "time_elapsed": 443562, "key_press": -1, "trial_index": 79}, "uniqueid": "MTK1938:323Q6SJS8JN6O86YAOPA5U6QYDPFHT", "dateTime": 1516568258199}, {"current_trial": 80, "trialdata": {"rt": -1, "trial_type": "single-stim", "stimulus": "<p id=\"stim\">8</p>", "internal_node_id": "0.0-60.0-2.0", "time_elapsed": 444566, "key_press": -1, "trial_index": 80}, "uniqueid": "MTK1938:323Q6SJS8JN6O86YAOPA5U6QYDPFHT", "dateTime": 1516568259203}, {"current_trial": 81, "trialdata": {"rt": -1, "trial_type": "single-stim", "stimulus": "<p id=\"stim\">7</p>", "internal_node_id": "0.0-60.0-3.0", "time_elapsed": 445570, "key_press": -1, "trial_index": 81}, "uniqueid": "MTK1938:323Q6SJS8JN6O86YAOPA5U6QYDPFHT", "dateTime": 1516568260207}, {"current_trial": 82, "trialdata": {"rt": -1, "trial_type": "single-stim", "stimulus": "<p id=\"stim\">6</p>", "internal_node_id": "0.0-60.0-4.0", "time_elapsed": 446574, "key_press": -1, "trial_index": 82}, "uniqueid": "MTK1938:323Q6SJS8JN6O86YAOPA5U6QYDPFHT", "dateTime": 1516568261212}, {"current_trial": 83, "trialdata": {"rt": -1, "trial_type": "single-stim", "stimulus": "<p id=\"stim\">5</p>", "internal_node_id": "0.0-60.0-5.0", "time_elapsed": 447578, "key_press": -1, "trial_index": 83}, "uniqueid": "MTK1938:323Q6SJS8JN6O86YAOPA5U6QYDPFHT", "dateTime": 1516568262215}, {"current_trial": 84, "trialdata": {"rt": -1, "trial_type": "single-stim", "stimulus": "<p id=\"stim\">4</p>", "internal_node_id": "0.0-60.0-6.0", "time_elapsed": 448582, "key_press": -1, "trial_index": 84}, "uniqueid": "MTK1938:323Q6SJS8JN6O86YAOPA5U6QYDPFHT", "dateTime": 1516568263219}, {"current_trial": 85, "trialdata": {"rt": -1, "trial_type": "single-stim", "stimulus": "<p id=\"stim\">3</p>", "internal_node_id": "0.0-60.0-7.0", "time_elapsed": 449586, "key_press": -1, "trial_index": 85}, "uniqueid": "MTK1938:323Q6SJS8JN6O86YAOPA5U6QYDPFHT", "dateTime": 1516568264223}, {"current_trial": 86, "trialdata": {"rt": -1, "trial_type": "single-stim", "stimulus": "<p id=\"stim\">2</p>", "internal_node_id": "0.0-60.0-8.0", "time_elapsed": 450591, "key_press": -1, "trial_index": 86}, "uniqueid": "MTK1938:323Q6SJS8JN6O86YAOPA5U6QYDPFHT", "dateTime": 1516568265228}, {"current_trial": 87, "trialdata": {"rt": -1, "trial_type": "single-stim", "stimulus": "<p id=\"stim\">1</p>", "internal_node_id": "0.0-60.0-9.0", "time_elapsed": 451595, "key_press": -1, "trial_index": 87}, "uniqueid": "MTK1938:323Q6SJS8JN6O86YAOPA5U6QYDPFHT", "dateTime": 1516568266232}, {"current_trial": 88, "trialdata": {"rt": -1, "trial_type": "single-stim", "stimulus": "<p id=\"stim\">+</p>", "internal_node_id": "0.0-61.0-0.0", "time_elapsed": 453101, "key_press": -1, "type": "FIXATION", "trial_index": 88}, "uniqueid": "MTK1938:323Q6SJS8JN6O86YAOPA5U6QYDPFHT", "dateTime": 1516568267738}, {"current_trial": 89, "trialdata": {"rt": -1, "trial_type": "single-stim", "word": "garlic", "stimulus": "<p id=\"stim\">GARLIC</p>", "conditions": [24, 1600, "v", 24000], "internal_node_id": "0.0-62.0", "trial": 2, "time_elapsed": 454703, "serialpos": 0, "key_press": -1, "wordID": 623, "type": "PRES_VIS", "trial_index": 89}, "uniqueid": "MTK1938:323Q6SJS8JN6O86YAOPA5U6QYDPFHT", "dateTime": 1516568269340}, {"current_trial": 90, "trialdata": {"rt": -1, "trial_type": "single-stim", "word": "lizard", "stimulus": "<p id=\"stim\">LIZARD</p>", "conditions": [24, 1600, "v", 24000], "internal_node_id": "0.0-63.0", "trial": 2, "time_elapsed": 457207, "serialpos": 1, "key_press": -1, "wordID": 833, "type": "PRES_VIS", "trial_index": 90}, "uniqueid": "MTK1938:323Q6SJS8JN6O86YAOPA5U6QYDPFHT", "dateTime": 1516568271844}, {"current_trial": 91, "trialdata": {"rt": -1, "trial_type": "single-stim", "word": "tortoise", "stimulus": "<p id=\"stim\">TORTOISE</p>", "conditions": [24, 1600, "v", 24000], "internal_node_id": "0.0-64.0", "trial": 2, "time_elapsed": 459672, "serialpos": 2, "key_press": -1, "wordID": 1485, "type": "PRES_VIS", "trial_index": 91}, "uniqueid": "MTK1938:323Q6SJS8JN6O86YAOPA5U6QYDPFHT", "dateTime": 1516568274309}, {"current_trial": 92, "trialdata": {"rt": -1, "trial_type": "single-stim", "word": "seal", "stimulus": "<p id=\"stim\">SEAL</p>", "conditions": [24, 1600, "v", 24000], "internal_node_id": "0.0-65.0", "trial": 2, "time_elapsed": 462376, "serialpos": 3, "key_press": -1, "wordID": 1261, "type": "PRES_VIS", "trial_index": 92}, "uniqueid": "MTK1938:323Q6SJS8JN6O86YAOPA5U6QYDPFHT", "dateTime": 1516568277013}, {"current_trial": 93, "trialdata": {"rt": -1, "trial_type": "single-stim", "word": "barrel", "stimulus": "<p id=\"stim\">BARREL</p>", "conditions": [24, 1600, "v", 24000], "internal_node_id": "0.0-66.0", "trial": 2, "time_elapsed": 465058, "serialpos": 4, "key_press": -1, "wordID": 90, "type": "PRES_VIS", "trial_index": 93}, "uniqueid": "MTK1938:323Q6SJS8JN6O86YAOPA5U6QYDPFHT", "dateTime": 1516568279695}, {"current_trial": 94, "trialdata": {"rt": -1, "trial_type": "single-stim", "word": "antler", "stimulus": "<p id=\"stim\">ANTLER</p>", "conditions": [24, 1600, "v", 24000], "internal_node_id": "0.0-67.0", "trial": 2, "time_elapsed": 467646, "serialpos": 5, "key_press": -1, "wordID": 28, "type": "PRES_VIS", "trial_index": 94}, "uniqueid": "MTK1938:323Q6SJS8JN6O86YAOPA5U6QYDPFHT", "dateTime": 1516568282283}, {"current_trial": 95, "trialdata": {"rt": -1, "trial_type": "single-stim", "word": "donor", "stimulus": "<p id=\"stim\">DONOR</p>", "conditions": [24, 1600, "v", 24000], "internal_node_id": "0.0-68.0", "trial": 2, "time_elapsed": 470328, "serialpos": 6, "key_press": -1, "wordID": 484, "type": "PRES_VIS", "trial_index": 95}, "uniqueid": "MTK1938:323Q6SJS8JN6O86YAOPA5U6QYDPFHT", "dateTime": 1516568284965}, {"current_trial": 96, "trialdata": {"rt": -1, "trial_type": "single-stim", "word": "donkey", "stimulus": "<p id=\"stim\">DONKEY</p>", "conditions": [24, 1600, "v", 24000], "internal_node_id": "0.0-69.0", "trial": 2, "time_elapsed": 473027, "serialpos": 7, "key_press": -1, "wordID": 483, "type": "PRES_VIS", "trial_index": 96}, "uniqueid": "MTK1938:323Q6SJS8JN6O86YAOPA5U6QYDPFHT", "dateTime": 1516568287664}, {"current_trial": 97, "trialdata": {"rt": -1, "trial_type": "single-stim", "word": "loft", "stimulus": "<p id=\"stim\">LOFT</p>", "conditions": [24, 1600, "v", 24000], "internal_node_id": "0.0-70.0", "trial": 2, "time_elapsed": 475777, "serialpos": 8, "key_press": -1, "wordID": 839, "type": "PRES_VIS", "trial_index": 97}, "uniqueid": "MTK1938:323Q6SJS8JN6O86YAOPA5U6QYDPFHT", "dateTime": 1516568290414}, {"current_trial": 98, "trialdata": {"rt": -1, "trial_type": "single-stim", "word": "plaster", "stimulus": "<p id=\"stim\">PLASTER</p>", "conditions": [24, 1600, "v", 24000], "internal_node_id": "0.0-71.0", "trial": 2, "time_elapsed": 478256, "serialpos": 9, "key_press": -1, "wordID": 1084, "type": "PRES_VIS", "trial_index": 98}, "uniqueid": "MTK1938:323Q6SJS8JN6O86YAOPA5U6QYDPFHT", "dateTime": 1516568292893}, {"current_trial": 99, "trialdata": {"rt": -1, "trial_type": "single-stim", "word": "shelf", "stimulus": "<p id=\"stim\">SHELF</p>", "conditions": [24, 1600, "v", 24000], "internal_node_id": "0.0-72.0", "trial": 2, "time_elapsed": 480858, "serialpos": 10, "key_press": -1, "wordID": 1279, "type": "PRES_VIS", "trial_index": 99}, "uniqueid": "MTK1938:323Q6SJS8JN6O86YAOPA5U6QYDPFHT", "dateTime": 1516568295495}, {"current_trial": 100, "trialdata": {"rt": -1, "trial_type": "single-stim", "word": "cabbage", "stimulus": "<p id=\"stim\">CABBAGE</p>", "conditions": [24, 1600, "v", 24000], "internal_node_id": "0.0-73.0", "trial": 2, "time_elapsed": 483358, "serialpos": 11, "key_press": -1, "wordID": 209, "type": "PRES_VIS", "trial_index": 100}, "uniqueid": "MTK1938:323Q6SJS8JN6O86YAOPA5U6QYDPFHT", "dateTime": 1516568297995}, {"current_trial": 101, "trialdata": {"rt": -1, "trial_type": "single-stim", "word": "county", "stimulus": "<p id=\"stim\">COUNTY</p>", "conditions": [24, 1600, "v", 24000], "internal_node_id": "0.0-74.0", "trial": 2, "time_elapsed": 486016, "serialpos": 12, "key_press": -1, "wordID": 388, "type": "PRES_VIS", "trial_index": 101}, "uniqueid": "MTK1938:323Q6SJS8JN6O86YAOPA5U6QYDPFHT", "dateTime": 1516568300653}, {"current_trial": 102, "trialdata": {"rt": -1, "trial_type": "single-stim", "word": "mars", "stimulus": "<p id=\"stim\">MARS</p>", "conditions": [24, 1600, "v", 24000], "internal_node_id": "0.0-75.0", "trial": 2, "time_elapsed": 488477, "serialpos": 13, "key_press": -1, "wordID": 872, "type": "PRES_VIS", "trial_index": 102}, "uniqueid": "MTK1938:323Q6SJS8JN6O86YAOPA5U6QYDPFHT", "dateTime": 1516568303114}, {"current_trial": 103, "trialdata": {"rt": -1, "trial_type": "single-stim", "word": "ketchup", "stimulus": "<p id=\"stim\">KETCHUP</p>", "conditions": [24, 1600, "v", 24000], "internal_node_id": "0.0-76.0", "trial": 2, "time_elapsed": 491089, "serialpos": 14, "key_press": -1, "wordID": 770, "type": "PRES_VIS", "trial_index": 103}, "uniqueid": "MTK1938:323Q6SJS8JN6O86YAOPA5U6QYDPFHT", "dateTime": 1516568305726}, {"current_trial": 104, "trialdata": {"rt": -1, "trial_type": "single-stim", "word": "shark", "stimulus": "<p id=\"stim\">SHARK</p>", "conditions": [24, 1600, "v", 24000], "internal_node_id": "0.0-77.0", "trial": 2, "time_elapsed": 493817, "serialpos": 15, "key_press": -1, "wordID": 1274, "type": "PRES_VIS", "trial_index": 104}, "uniqueid": "MTK1938:323Q6SJS8JN6O86YAOPA5U6QYDPFHT", "dateTime": 1516568308454}, {"current_trial": 105, "trialdata": {"rt": -1, "trial_type": "single-stim", "word": "powder", "stimulus": "<p id=\"stim\">POWDER</p>", "conditions": [24, 1600, "v", 24000], "internal_node_id": "0.0-78.0", "trial": 2, "time_elapsed": 496354, "serialpos": 16, "key_press": -1, "wordID": 1116, "type": "PRES_VIS", "trial_index": 105}, "uniqueid": "MTK1938:323Q6SJS8JN6O86YAOPA5U6QYDPFHT", "dateTime": 1516568310991}, {"current_trial": 106, "trialdata": {"rt": -1, "trial_type": "single-stim", "word": "freezer", "stimulus": "<p id=\"stim\">FREEZER</p>", "conditions": [24, 1600, "v", 24000], "internal_node_id": "0.0-79.0", "trial": 2, "time_elapsed": 499157, "serialpos": 17, "key_press": -1, "wordID": 603, "type": "PRES_VIS", "trial_index": 106}, "uniqueid": "MTK1938:323Q6SJS8JN6O86YAOPA5U6QYDPFHT", "dateTime": 1516568313794}, {"current_trial": 107, "trialdata": {"rt": -1, "trial_type": "single-stim", "word": "critic", "stimulus": "<p id=\"stim\">CRITIC</p>", "conditions": [24, 1600, "v", 24000], "internal_node_id": "0.0-80.0", "trial": 2, "time_elapsed": 501850, "serialpos": 18, "key_press": -1, "wordID": 409, "type": "PRES_VIS", "trial_index": 107}, "uniqueid": "MTK1938:323Q6SJS8JN6O86YAOPA5U6QYDPFHT", "dateTime": 1516568316487}, {"current_trial": 108, "trialdata": {"rt": -1, "trial_type": "single-stim", "word": "rod", "stimulus": "<p id=\"stim\">ROD</p>", "conditions": [24, 1600, "v", 24000], "internal_node_id": "0.0-81.0", "trial": 2, "time_elapsed": 504317, "serialpos": 19, "key_press": -1, "wordID": 1202, "type": "PRES_VIS", "trial_index": 108}, "uniqueid": "MTK1938:323Q6SJS8JN6O86YAOPA5U6QYDPFHT", "dateTime": 1516568318954}, {"current_trial": 109, "trialdata": {"rt": -1, "trial_type": "single-stim", "word": "sheriff", "stimulus": "<p id=\"stim\">SHERIFF</p>", "conditions": [24, 1600, "v", 24000], "internal_node_id": "0.0-82.0", "trial": 2, "time_elapsed": 506900, "serialpos": 20, "key_press": -1, "wordID": 1283, "type": "PRES_VIS", "trial_index": 109}, "uniqueid": "MTK1938:323Q6SJS8JN6O86YAOPA5U6QYDPFHT", "dateTime": 1516568321537}, {"current_trial": 110, "trialdata": {"rt": -1, "trial_type": "single-stim", "word": "picture", "stimulus": "<p id=\"stim\">PICTURE</p>", "conditions": [24, 1600, "v", 24000], "internal_node_id": "0.0-83.0", "trial": 2, "time_elapsed": 509628, "serialpos": 21, "key_press": -1, "wordID": 1060, "type": "PRES_VIS", "trial_index": 110}, "uniqueid": "MTK1938:323Q6SJS8JN6O86YAOPA5U6QYDPFHT", "dateTime": 1516568324265}, {"current_trial": 111, "trialdata": {"rt": -1, "trial_type": "single-stim", "word": "brick", "stimulus": "<p id=\"stim\">BRICK</p>", "conditions": [24, 1600, "v", 24000], "internal_node_id": "0.0-84.0", "trial": 2, "time_elapsed": 512042, "serialpos": 22, "key_press": -1, "wordID": 171, "type": "PRES_VIS", "trial_index": 111}, "uniqueid": "MTK1938:323Q6SJS8JN6O86YAOPA5U6QYDPFHT", "dateTime": 1516568326680}, {"current_trial": 112, "trialdata": {"rt": -1, "trial_type": "single-stim", "word": "stone", "stimulus": "<p id=\"stim\">STONE</p>", "conditions": [24, 1600, "v", 24000], "internal_node_id": "0.0-85.0", "trial": 2, "time_elapsed": 514561, "serialpos": 23, "key_press": -1, "wordID": 1384, "type": "PRES_VIS", "trial_index": 112}, "uniqueid": "MTK1938:323Q6SJS8JN6O86YAOPA5U6QYDPFHT", "dateTime": 1516568329198}, {"current_trial": 113, "trialdata": {"rt": -1, "trial_type": "single-stim", "stimulus": "", "internal_node_id": "0.0-86.0-0.0", "time_elapsed": 516974, "key_press": -1, "type": "PRE_RECALL_DELAY", "trial_index": 113}, "uniqueid": "MTK1938:323Q6SJS8JN6O86YAOPA5U6QYDPFHT", "dateTime": 1516568331612}, {"current_trial": 114, "trialdata": {"rt": -1000, "trial_type": "single-audio", "stimulus": "/static/audio/400Hz.wav", "internal_node_id": "0.0-87.0", "time_elapsed": 517476, "key_press": -1, "type": "PRE_RECALL_ALERT", "trial_index": 114}, "uniqueid": "MTK1938:323Q6SJS8JN6O86YAOPA5U6QYDPFHT", "dateTime": 1516568332113}, {"current_trial": 115, "trialdata": {"rt": [1360, 2752, 4808, 6440, 8536, 13569, 18473, 21729, 37979], "recwords": ["stone", "brick", "dolphin", "seal", "garlic", "seal", "plaster", "shelf", "barrel"], "key_times": [673, 888, 984, 1048, 1168, 1360, 1792, 1960, 2080, 2216, 2400, 2752, 3144, 3288, 3472, 3664, 4360, 4504, 4616, 4808, 5144, 5512, 5640, 5816, 5952, 6136, 6440, 7144, 7352, 7464, 8048, 8208, 8297, 8536, 12825, 12993, 13113, 13256, 13569, 17257, 17464, 17592, 17784, 17993, 18169, 18241, 18473, 18864, 19001, 19257, 19745, 20153, 20473, 20905, 21409, 21553, 21729, 36444, 36947, 37171, 37371, 37619, 37763, 37979], "trial_type": "free-recall", "conditions": [24, 1600, "v", 24000], "internal_node_id": "0.0-88.0-0.0", "key_presses": [83, 84, 79, 78, 69, 13, 66, 82, 73, 67, 75, 13, 68, 79, 76, 80, 72, 73, 78, 13, 68, 8, 83, 69, 65, 76, 13, 71, 65, 82, 76, 73, 67, 13, 83, 69, 65, 76, 13, 80, 76, 65, 83, 84, 69, 82, 13, 83, 69, 76, 8, 8, 72, 69, 76, 70, 13, 66, 65, 82, 82, 69, 76, 13], "trial": 2, "time_elapsed": 577482, "type": "FREE_RECALL", "trial_index": 115}, "uniqueid": "MTK1938:323Q6SJS8JN6O86YAOPA5U6QYDPFHT", "dateTime": 1516568392121}, {"current_trial": 116, "trialdata": {"rt": 2772, "trial_type": "text", "internal_node_id": "0.0-89.0", "time_elapsed": 582258, "key_press": 78, "type": "INSTRUCTIONS", "trial_index": 116}, "uniqueid": "MTK1938:323Q6SJS8JN6O86YAOPA5U6QYDPFHT", "dateTime": 1516568396895}, {"current_trial": 117, "trialdata": {"rt": [3930, 7402, 10730, 10898], "trial_type": "math-distractor", "key_times": [3474, 3658, 3930, 6554, 7026, 7402, 10163, 10402, 10730, 10898], "responses": ["11", "17", "21", ""], "num2": [3, 8, 9, 2, 8], "num3": [2, 2, 7, 5, 6], "conditions": [12, 1600, "v", 12000], "internal_node_id": "0.0-90.0", "key_presses": [49, 49, 13, 49, 55, 13, 50, 49, 13, 13], "trial": 3, "time_elapsed": 596265, "type": "DISTRACTOR", "trial_index": 117, "num1": [6, 7, 5, 4, 5]}, "uniqueid": "MTK1938:323Q6SJS8JN6O86YAOPA5U6QYDPFHT", "dateTime": 1516568410902}, {"current_trial": 118, "trialdata": {"rt": -1, "trial_type": "single-stim", "stimulus": "<p id=\"stim\">10</p>", "internal_node_id": "0.0-91.0-0.0", "time_elapsed": 599272, "key_press": -1, "trial_index": 118}, "uniqueid": "MTK1938:323Q6SJS8JN6O86YAOPA5U6QYDPFHT", "dateTime": 1516568413909}, {"current_trial": 119, "trialdata": {"rt": -1, "trial_type": "single-stim", "stimulus": "<p id=\"stim\">9</p>", "internal_node_id": "0.0-91.0-1.0", "time_elapsed": 600276, "key_press": -1, "trial_index": 119}, "uniqueid": "MTK1938:323Q6SJS8JN6O86YAOPA5U6QYDPFHT", "dateTime": 1516568414913}, {"current_trial": 120, "trialdata": {"rt": -1, "trial_type": "single-stim", "stimulus": "<p id=\"stim\">8</p>", "internal_node_id": "0.0-91.0-2.0", "time_elapsed": 601280, "key_press": -1, "trial_index": 120}, "uniqueid": "MTK1938:323Q6SJS8JN6O86YAOPA5U6QYDPFHT", "dateTime": 1516568415917}, {"current_trial": 121, "trialdata": {"rt": -1, "trial_type": "single-stim", "stimulus": "<p id=\"stim\">7</p>", "internal_node_id": "0.0-91.0-3.0", "time_elapsed": 602284, "key_press": -1, "trial_index": 121}, "uniqueid": "MTK1938:323Q6SJS8JN6O86YAOPA5U6QYDPFHT", "dateTime": 1516568416921}, {"current_trial": 122, "trialdata": {"rt": -1, "trial_type": "single-stim", "stimulus": "<p id=\"stim\">6</p>", "internal_node_id": "0.0-91.0-4.0", "time_elapsed": 603288, "key_press": -1, "trial_index": 122}, "uniqueid": "MTK1938:323Q6SJS8JN6O86YAOPA5U6QYDPFHT", "dateTime": 1516568417925}, {"current_trial": 123, "trialdata": {"rt": -1, "trial_type": "single-stim", "stimulus": "<p id=\"stim\">5</p>", "internal_node_id": "0.0-91.0-5.0", "time_elapsed": 604292, "key_press": -1, "trial_index": 123}, "uniqueid": "MTK1938:323Q6SJS8JN6O86YAOPA5U6QYDPFHT", "dateTime": 1516568418929}, {"current_trial": 124, "trialdata": {"rt": -1, "trial_type": "single-stim", "stimulus": "<p id=\"stim\">4</p>", "internal_node_id": "0.0-91.0-6.0", "time_elapsed": 605296, "key_press": -1, "trial_index": 124}, "uniqueid": "MTK1938:323Q6SJS8JN6O86YAOPA5U6QYDPFHT", "dateTime": 1516568419933}, {"current_trial": 125, "trialdata": {"rt": -1, "trial_type": "single-stim", "stimulus": "<p id=\"stim\">3</p>", "internal_node_id": "0.0-91.0-7.0", "time_elapsed": 606300, "key_press": -1, "trial_index": 125}, "uniqueid": "MTK1938:323Q6SJS8JN6O86YAOPA5U6QYDPFHT", "dateTime": 1516568420937}, {"current_trial": 126, "trialdata": {"rt": -1, "trial_type": "single-stim", "stimulus": "<p id=\"stim\">2</p>", "internal_node_id": "0.0-91.0-8.0", "time_elapsed": 607303, "key_press": -1, "trial_index": 126}, "uniqueid": "MTK1938:323Q6SJS8JN6O86YAOPA5U6QYDPFHT", "dateTime": 1516568421940}, {"current_trial": 127, "trialdata": {"rt": -1, "trial_type": "single-stim", "stimulus": "<p id=\"stim\">1</p>", "internal_node_id": "0.0-91.0-9.0", "time_elapsed": 608309, "key_press": -1, "trial_index": 127}, "uniqueid": "MTK1938:323Q6SJS8JN6O86YAOPA5U6QYDPFHT", "dateTime": 1516568422946}, {"current_trial": 128, "trialdata": {"rt": -1, "trial_type": "single-stim", "stimulus": "<p id=\"stim\">+</p>", "internal_node_id": "0.0-92.0-0.0", "time_elapsed": 609813, "key_press": -1, "type": "FIXATION", "trial_index": 128}, "uniqueid": "MTK1938:323Q6SJS8JN6O86YAOPA5U6QYDPFHT", "dateTime": 1516568424450}, {"current_trial": 129, "trialdata": {"rt": -1, "trial_type": "single-stim", "word": "crutch", "stimulus": "<p id=\"stim\">CRUTCH</p>", "conditions": [12, 1600, "v", 12000], "internal_node_id": "0.0-93.0", "trial": 3, "time_elapsed": 611414, "serialpos": 0, "key_press": -1, "wordID": 416, "type": "PRES_VIS", "trial_index": 129}, "uniqueid": "MTK1938:323Q6SJS8JN6O86YAOPA5U6QYDPFHT", "dateTime": 1516568426051}, {"current_trial": 130, "trialdata": {"rt": -1, "trial_type": "single-stim", "word": "receipt", "stimulus": "<p id=\"stim\">RECEIPT</p>", "conditions": [12, 1600, "v", 12000], "internal_node_id": "0.0-94.0", "trial": 3, "time_elapsed": 614055, "serialpos": 1, "key_press": -1, "wordID": 1172, "type": "PRES_VIS", "trial_index": 130}, "uniqueid": "MTK1938:323Q6SJS8JN6O86YAOPA5U6QYDPFHT", "dateTime": 1516568428692}, {"current_trial": 131, "trialdata": {"rt": -1, "trial_type": "single-stim", "word": "spider", "stimulus": "<p id=\"stim\">SPIDER</p>", "conditions": [12, 1600, "v", 12000], "internal_node_id": "0.0-95.0", "trial": 3, "time_elapsed": 616545, "serialpos": 2, "key_press": -1, "wordID": 1350, "type": "PRES_VIS", "trial_index": 131}, "uniqueid": "MTK1938:323Q6SJS8JN6O86YAOPA5U6QYDPFHT", "dateTime": 1516568431182}, {"current_trial": 132, "trialdata": {"rt": -1, "trial_type": "single-stim", "word": "penguin", "stimulus": "<p id=\"stim\">PENGUIN</p>", "conditions": [12, 1600, "v", 12000], "internal_node_id": "0.0-96.0", "trial": 3, "time_elapsed": 619023, "serialpos": 3, "key_press": -1, "wordID": 1043, "type": "PRES_VIS", "trial_index": 132}, "uniqueid": "MTK1938:323Q6SJS8JN6O86YAOPA5U6QYDPFHT", "dateTime": 1516568433660}, {"current_trial": 133, "trialdata": {"rt": -1, "trial_type": "single-stim", "word": "beef", "stimulus": "<p id=\"stim\">BEEF</p>", "conditions": [12, 1600, "v", 12000], "internal_node_id": "0.0-97.0", "trial": 3, "time_elapsed": 621745, "serialpos": 4, "key_press": -1, "wordID": 112, "type": "PRES_VIS", "trial_index": 133}, "uniqueid": "MTK1938:323Q6SJS8JN6O86YAOPA5U6QYDPFHT", "dateTime": 1516568436383}, {"current_trial": 134, "trialdata": {"rt": -1, "trial_type": "single-stim", "word": "snail", "stimulus": "<p id=\"stim\">SNAIL</p>", "conditions": [12, 1600, "v", 12000], "internal_node_id": "0.0-98.0", "trial": 3, "time_elapsed": 624189, "serialpos": 5, "key_press": -1, "wordID": 1331, "type": "PRES_VIS", "trial_index": 134}, "uniqueid": "MTK1938:323Q6SJS8JN6O86YAOPA5U6QYDPFHT", "dateTime": 1516568438826}, {"current_trial": 135, "trialdata": {"rt": -1, "trial_type": "single-stim", "word": "jello", "stimulus": "<p id=\"stim\">JELLO</p>", "conditions": [12, 1600, "v", 12000], "internal_node_id": "0.0-99.0", "trial": 3, "time_elapsed": 626842, "serialpos": 6, "key_press": -1, "wordID": 753, "type": "PRES_VIS", "trial_index": 135}, "uniqueid": "MTK1938:323Q6SJS8JN6O86YAOPA5U6QYDPFHT", "dateTime": 1516568441479}, {"current_trial": 136, "trialdata": {"rt": -1, "trial_type": "single-stim", "word": "dress", "stimulus": "<p id=\"stim\">DRESS</p>", "conditions": [12, 1600, "v", 12000], "internal_node_id": "0.0-100.0", "trial": 3, "time_elapsed": 629512, "serialpos": 7, "key_press": -1, "wordID": 494, "type": "PRES_VIS", "trial_index": 136}, "uniqueid": "MTK1938:323Q6SJS8JN6O86YAOPA5U6QYDPFHT", "dateTime": 1516568444149}, {"current_trial": 137, "trialdata": {"rt": -1, "trial_type": "single-stim", "word": "blouse", "stimulus": "<p id=\"stim\">BLOUSE</p>", "conditions": [12, 1600, "v", 12000], "internal_node_id": "0.0-101.0", "trial": 3, "time_elapsed": 632007, "serialpos": 8, "key_press": -1, "wordID": 138, "type": "PRES_VIS", "trial_index": 137}, "uniqueid": "MTK1938:323Q6SJS8JN6O86YAOPA5U6QYDPFHT", "dateTime": 1516568446644}, {"current_trial": 138, "trialdata": {"rt": -1, "trial_type": "single-stim", "word": "cod", "stimulus": "<p id=\"stim\">COD</p>", "conditions": [12, 1600, "v", 12000], "internal_node_id": "0.0-102.0", "trial": 3, "time_elapsed": 634677, "serialpos": 9, "key_press": -1, "wordID": 339, "type": "PRES_VIS", "trial_index": 138}, "uniqueid": "MTK1938:323Q6SJS8JN6O86YAOPA5U6QYDPFHT", "dateTime": 1516568449314}, {"current_trial": 139, "trialdata": {"rt": -1, "trial_type": "single-stim", "word": "turtle", "stimulus": "<p id=\"stim\">TURTLE</p>", "conditions": [12, 1600, "v", 12000], "internal_node_id": "0.0-103.0", "trial": 3, "time_elapsed": 637144, "serialpos": 10, "key_press": -1, "wordID": 1521, "type": "PRES_VIS", "trial_index": 139}, "uniqueid": "MTK1938:323Q6SJS8JN6O86YAOPA5U6QYDPFHT", "dateTime": 1516568451781}, {"current_trial": 140, "trialdata": {"rt": -1, "trial_type": "single-stim", "word": "hamper", "stimulus": "<p id=\"stim\">HAMPER</p>", "conditions": [12, 1600, "v", 12000], "internal_node_id": "0.0-104.0", "trial": 3, "time_elapsed": 639617, "serialpos": 11, "key_press": -1, "wordID": 681, "type": "PRES_VIS", "trial_index": 140}, "uniqueid": "MTK1938:323Q6SJS8JN6O86YAOPA5U6QYDPFHT", "dateTime": 1516568454254}, {"current_trial": 141, "trialdata": {"rt": -1, "trial_type": "single-stim", "stimulus": "", "internal_node_id": "0.0-105.0-0.0", "time_elapsed": 641979, "key_press": -1, "type": "PRE_RECALL_DELAY", "trial_index": 141}, "uniqueid": "MTK1938:323Q6SJS8JN6O86YAOPA5U6QYDPFHT", "dateTime": 1516568456616}, {"current_trial": 142, "trialdata": {"rt": -1000, "trial_type": "single-audio", "stimulus": "/static/audio/400Hz.wav", "internal_node_id": "0.0-106.0", "time_elapsed": 642480, "key_press": -1, "type": "PRE_RECALL_ALERT", "trial_index": 142}, "uniqueid": "MTK1938:323Q6SJS8JN6O86YAOPA5U6QYDPFHT", "dateTime": 1516568457117}, {"current_trial": 143, "trialdata": {"rt": [2276, 4109, 5557, 9997, 13213, 21500, 27988], "recwords": ["hamper", "turtle", "beef", "snail", "reciept", "hamper", "spider"], "key_times": [1013, 1252, 1572, 1772, 1964, 2012, 2276, 2700, 2916, 3044, 3724, 3868, 3948, 4109, 4485, 5005, 5156, 5277, 5557, 5980, 6660, 6917, 7436, 7580, 8140, 8652, 8981, 9341, 9501, 9732, 9997, 10269, 10340, 10517, 10877, 11070, 11477, 11612, 12149, 12292, 12701, 13028, 13213, 20332, 20428, 20572, 20716, 21213, 21308, 21500, 26628, 26756, 26940, 27060, 27260, 27316, 27988], "trial_type": "free-recall", "conditions": [12, 1600, "v", 12000], "internal_node_id": "0.0-107.0-0.0", "key_presses": [72, 65, 77, 80, 69, 82, 13, 84, 85, 82, 84, 76, 69, 13, 66, 69, 69, 70, 13, 83, 77, 65, 8, 8, 74, 8, 78, 65, 73, 76, 13, 82, 69, 67, 79, 69, 8, 8, 73, 69, 80, 84, 13, 72, 65, 77, 80, 69, 82, 13, 83, 80, 73, 68, 69, 82, 13], "trial": 3, "time_elapsed": 702486, "type": "FREE_RECALL", "trial_index": 143}, "uniqueid": "MTK1938:323Q6SJS8JN6O86YAOPA5U6QYDPFHT", "dateTime": 1516568517125}, {"current_trial": 144, "trialdata": {"rt": 2160, "trial_type": "text", "internal_node_id": "0.0-108.0", "time_elapsed": 706653, "key_press": 74, "type": "INSTRUCTIONS", "trial_index": 144}, "uniqueid": "MTK1938:323Q6SJS8JN6O86YAOPA5U6QYDPFHT", "dateTime": 1516568521291}, {"current_trial": 145, "trialdata": {"rt": [3389, 6421, 9613, 11605, 13717, 17021, 19477, 22133], "trial_type": "math-distractor", "key_times": [2909, 3061, 3389, 5965, 6109, 6421, 9110, 9317, 9613, 11237, 11365, 11605, 13229, 13413, 13717, 16637, 16733, 17021, 19126, 19245, 19477, 21285, 21925, 22133], "responses": ["16", "15", "20", "10", "14", "14", "12", "13"], "num2": [3, 6, 6, 3, 3, 7, 6, 3, 9], "num3": [5, 2, 7, 1, 2, 6, 4, 8, 9], "conditions": [24, 800, "v", 24000], "internal_node_id": "0.0-109.0", "key_presses": [49, 54, 13, 49, 53, 13, 50, 48, 13, 49, 48, 13, 49, 52, 13, 49, 52, 13, 49, 50, 13, 49, 51, 13], "trial": 4, "time_elapsed": 732662, "type": "DISTRACTOR", "trial_index": 145, "num1": [8, 8, 8, 6, 9, 1, 2, 2, 7]}, "uniqueid": "MTK1938:323Q6SJS8JN6O86YAOPA5U6QYDPFHT", "dateTime": 1516568547299}, {"current_trial": 146, "trialdata": {"rt": -1, "trial_type": "single-stim", "stimulus": "<p id=\"stim\">10</p>", "internal_node_id": "0.0-110.0-0.0", "time_elapsed": 735668, "key_press": -1, "trial_index": 146}, "uniqueid": "MTK1938:323Q6SJS8JN6O86YAOPA5U6QYDPFHT", "dateTime": 1516568550305}, {"current_trial": 147, "trialdata": {"rt": -1, "trial_type": "single-stim", "stimulus": "<p id=\"stim\">9</p>", "internal_node_id": "0.0-110.0-1.0", "time_elapsed": 736672, "key_press": -1, "trial_index": 147}, "uniqueid": "MTK1938:323Q6SJS8JN6O86YAOPA5U6QYDPFHT", "dateTime": 1516568551309}, {"current_trial": 148, "trialdata": {"rt": -1, "trial_type": "single-stim", "stimulus": "<p id=\"stim\">8</p>", "internal_node_id": "0.0-110.0-2.0", "time_elapsed": 737676, "key_press": -1, "trial_index": 148}, "uniqueid": "MTK1938:323Q6SJS8JN6O86YAOPA5U6QYDPFHT", "dateTime": 1516568552314}, {"current_trial": 149, "trialdata": {"rt": -1, "trial_type": "single-stim", "stimulus": "<p id=\"stim\">7</p>", "internal_node_id": "0.0-110.0-3.0", "time_elapsed": 738678, "key_press": -1, "trial_index": 149}, "uniqueid": "MTK1938:323Q6SJS8JN6O86YAOPA5U6QYDPFHT", "dateTime": 1516568553315}, {"current_trial": 150, "trialdata": {"rt": -1, "trial_type": "single-stim", "stimulus": "<p id=\"stim\">6</p>", "internal_node_id": "0.0-110.0-4.0", "time_elapsed": 739680, "key_press": -1, "trial_index": 150}, "uniqueid": "MTK1938:323Q6SJS8JN6O86YAOPA5U6QYDPFHT", "dateTime": 1516568554317}, {"current_trial": 151, "trialdata": {"rt": -1, "trial_type": "single-stim", "stimulus": "<p id=\"stim\">5</p>", "internal_node_id": "0.0-110.0-5.0", "time_elapsed": 740681, "key_press": -1, "trial_index": 151}, "uniqueid": "MTK1938:323Q6SJS8JN6O86YAOPA5U6QYDPFHT", "dateTime": 1516568555319}, {"current_trial": 152, "trialdata": {"rt": -1, "trial_type": "single-stim", "stimulus": "<p id=\"stim\">4</p>", "internal_node_id": "0.0-110.0-6.0", "time_elapsed": 741684, "key_press": -1, "trial_index": 152}, "uniqueid": "MTK1938:323Q6SJS8JN6O86YAOPA5U6QYDPFHT", "dateTime": 1516568556321}, {"current_trial": 153, "trialdata": {"rt": -1, "trial_type": "single-stim", "stimulus": "<p id=\"stim\">3</p>", "internal_node_id": "0.0-110.0-7.0", "time_elapsed": 742685, "key_press": -1, "trial_index": 153}, "uniqueid": "MTK1938:323Q6SJS8JN6O86YAOPA5U6QYDPFHT", "dateTime": 1516568557322}, {"current_trial": 154, "trialdata": {"rt": -1, "trial_type": "single-stim", "stimulus": "<p id=\"stim\">2</p>", "internal_node_id": "0.0-110.0-8.0", "time_elapsed": 743689, "key_press": -1, "trial_index": 154}, "uniqueid": "MTK1938:323Q6SJS8JN6O86YAOPA5U6QYDPFHT", "dateTime": 1516568558327}, {"current_trial": 155, "trialdata": {"rt": -1, "trial_type": "single-stim", "stimulus": "<p id=\"stim\">1</p>", "internal_node_id": "0.0-110.0-9.0", "time_elapsed": 744694, "key_press": -1, "trial_index": 155}, "uniqueid": "MTK1938:323Q6SJS8JN6O86YAOPA5U6QYDPFHT", "dateTime": 1516568559331}, {"current_trial": 156, "trialdata": {"rt": -1, "trial_type": "single-stim", "stimulus": "<p id=\"stim\">+</p>", "internal_node_id": "0.0-111.0-0.0", "time_elapsed": 746196, "key_press": -1, "type": "FIXATION", "trial_index": 156}, "uniqueid": "MTK1938:323Q6SJS8JN6O86YAOPA5U6QYDPFHT", "dateTime": 1516568560833}, {"current_trial": 157, "trialdata": {"rt": -1, "trial_type": "single-stim", "word": "scallop", "stimulus": "<p id=\"stim\">SCALLOP</p>", "conditions": [24, 800, "v", 24000], "internal_node_id": "0.0-112.0", "trial": 4, "time_elapsed": 746998, "serialpos": 0, "key_press": -1, "wordID": 1241, "type": "PRES_VIS", "trial_index": 157}, "uniqueid": "MTK1938:323Q6SJS8JN6O86YAOPA5U6QYDPFHT", "dateTime": 1516568561635}, {"current_trial": 158, "trialdata": {"rt": -1, "trial_type": "single-stim", "word": "salmon", "stimulus": "<p id=\"stim\">SALMON</p>", "conditions": [24, 800, "v", 24000], "internal_node_id": "0.0-113.0", "trial": 4, "time_elapsed": 748913, "serialpos": 1, "key_press": -1, "wordID": 1226, "type": "PRES_VIS", "trial_index": 158}, "uniqueid": "MTK1938:323Q6SJS8JN6O86YAOPA5U6QYDPFHT", "dateTime": 1516568563550}, {"current_trial": 159, "trialdata": {"rt": -1, "trial_type": "single-stim", "word": "journal", "stimulus": "<p id=\"stim\">JOURNAL</p>", "conditions": [24, 800, "v", 24000], "internal_node_id": "0.0-114.0", "trial": 4, "time_elapsed": 750620, "serialpos": 2, "key_press": -1, "wordID": 759, "type": "PRES_VIS", "trial_index": 159}, "uniqueid": "MTK1938:323Q6SJS8JN6O86YAOPA5U6QYDPFHT", "dateTime": 1516568565257}, {"current_trial": 160, "trialdata": {"rt": -1, "trial_type": "single-stim", "word": "space", "stimulus": "<p id=\"stim\">SPACE</p>", "conditions": [24, 800, "v", 24000], "internal_node_id": "0.0-115.0", "trial": 4, "time_elapsed": 752454, "serialpos": 3, "key_press": -1, "wordID": 1344, "type": "PRES_VIS", "trial_index": 160}, "uniqueid": "MTK1938:323Q6SJS8JN6O86YAOPA5U6QYDPFHT", "dateTime": 1516568567091}, {"current_trial": 161, "trialdata": {"rt": -1, "trial_type": "single-stim", "word": "sticker", "stimulus": "<p id=\"stim\">STICKER</p>", "conditions": [24, 800, "v", 24000], "internal_node_id": "0.0-116.0", "trial": 4, "time_elapsed": 754323, "serialpos": 4, "key_press": -1, "wordID": 1381, "type": "PRES_VIS", "trial_index": 161}, "uniqueid": "MTK1938:323Q6SJS8JN6O86YAOPA5U6QYDPFHT", "dateTime": 1516568568960}, {"current_trial": 162, "trialdata": {"rt": -1, "trial_type": "single-stim", "word": "kidney", "stimulus": "<p id=\"stim\">KIDNEY</p>", "conditions": [24, 800, "v", 24000], "internal_node_id": "0.0-117.0", "trial": 4, "time_elapsed": 756261, "serialpos": 5, "key_press": -1, "wordID": 775, "type": "PRES_VIS", "trial_index": 162}, "uniqueid": "MTK1938:323Q6SJS8JN6O86YAOPA5U6QYDPFHT", "dateTime": 1516568570898}, {"current_trial": 163, "trialdata": {"rt": -1, "trial_type": "single-stim", "word": "luggage", "stimulus": "<p id=\"stim\">LUGGAGE</p>", "conditions": [24, 800, "v", 24000], "internal_node_id": "0.0-118.0", "trial": 4, "time_elapsed": 758200, "serialpos": 6, "key_press": -1, "wordID": 846, "type": "PRES_VIS", "trial_index": 163}, "uniqueid": "MTK1938:323Q6SJS8JN6O86YAOPA5U6QYDPFHT", "dateTime": 1516568572837}, {"current_trial": 164, "trialdata": {"rt": -1, "trial_type": "single-stim", "word": "bison", "stimulus": "<p id=\"stim\">BISON</p>", "conditions": [24, 800, "v", 24000], "internal_node_id": "0.0-119.0", "trial": 4, "time_elapsed": 760086, "serialpos": 7, "key_press": -1, "wordID": 130, "type": "PRES_VIS", "trial_index": 164}, "uniqueid": "MTK1938:323Q6SJS8JN6O86YAOPA5U6QYDPFHT", "dateTime": 1516568574723}, {"current_trial": 165, "trialdata": {"rt": -1, "trial_type": "single-stim", "word": "primate", "stimulus": "<p id=\"stim\">PRIMATE</p>", "conditions": [24, 800, "v", 24000], "internal_node_id": "0.0-120.0", "trial": 4, "time_elapsed": 761752, "serialpos": 8, "key_press": -1, "wordID": 1122, "type": "PRES_VIS", "trial_index": 165}, "uniqueid": "MTK1938:323Q6SJS8JN6O86YAOPA5U6QYDPFHT", "dateTime": 1516568576389}, {"current_trial": 166, "trialdata": {"rt": -1, "trial_type": "single-stim", "word": "suitcase", "stimulus": "<p id=\"stim\">SUITCASE</p>", "conditions": [24, 800, "v", 24000], "internal_node_id": "0.0-121.0", "trial": 4, "time_elapsed": 763656, "serialpos": 9, "key_press": -1, "wordID": 1402, "type": "PRES_VIS", "trial_index": 166}, "uniqueid": "MTK1938:323Q6SJS8JN6O86YAOPA5U6QYDPFHT", "dateTime": 1516568578293}, {"current_trial": 167, "trialdata": {"rt": -1, "trial_type": "single-stim", "word": "child", "stimulus": "<p id=\"stim\">CHILD</p>", "conditions": [24, 800, "v", 24000], "internal_node_id": "0.0-122.0", "trial": 4, "time_elapsed": 765345, "serialpos": 10, "key_press": -1, "wordID": 298, "type": "PRES_VIS", "trial_index": 167}, "uniqueid": "MTK1938:323Q6SJS8JN6O86YAOPA5U6QYDPFHT", "dateTime": 1516568579982}, {"current_trial": 168, "trialdata": {"rt": -1, "trial_type": "single-stim", "word": "lake", "stimulus": "<p id=\"stim\">LAKE</p>", "conditions": [24, 800, "v", 24000], "internal_node_id": "0.0-123.0", "trial": 4, "time_elapsed": 767136, "serialpos": 11, "key_press": -1, "wordID": 795, "type": "PRES_VIS", "trial_index": 168}, "uniqueid": "MTK1938:323Q6SJS8JN6O86YAOPA5U6QYDPFHT", "dateTime": 1516568581773}, {"current_trial": 169, "trialdata": {"rt": -1, "trial_type": "single-stim", "word": "cashew", "stimulus": "<p id=\"stim\">CASHEW</p>", "conditions": [24, 800, "v", 24000], "internal_node_id": "0.0-124.0", "trial": 4, "time_elapsed": 768781, "serialpos": 12, "key_press": -1, "wordID": 252, "type": "PRES_VIS", "trial_index": 169}, "uniqueid": "MTK1938:323Q6SJS8JN6O86YAOPA5U6QYDPFHT", "dateTime": 1516568583418}, {"current_trial": 170, "trialdata": {"rt": -1, "trial_type": "single-stim", "word": "farmer", "stimulus": "<p id=\"stim\">FARMER</p>", "conditions": [24, 800, "v", 24000], "internal_node_id": "0.0-125.0", "trial": 4, "time_elapsed": 770720, "serialpos": 13, "key_press": -1, "wordID": 552, "type": "PRES_VIS", "trial_index": 170}, "uniqueid": "MTK1938:323Q6SJS8JN6O86YAOPA5U6QYDPFHT", "dateTime": 1516568585357}, {"current_trial": 171, "trialdata": {"rt": -1, "trial_type": "single-stim", "word": "termite", "stimulus": "<p id=\"stim\">TERMITE</p>", "conditions": [24, 800, "v", 24000], "internal_node_id": "0.0-126.0", "trial": 4, "time_elapsed": 772571, "serialpos": 14, "key_press": -1, "wordID": 1450, "type": "PRES_VIS", "trial_index": 171}, "uniqueid": "MTK1938:323Q6SJS8JN6O86YAOPA5U6QYDPFHT", "dateTime": 1516568587208}, {"current_trial": 172, "trialdata": {"rt": -1, "trial_type": "single-stim", "word": "marine", "stimulus": "<p id=\"stim\">MARINE</p>", "conditions": [24, 800, "v", 24000], "internal_node_id": "0.0-127.0", "trial": 4, "time_elapsed": 774208, "serialpos": 15, "key_press": -1, "wordID": 868, "type": "PRES_VIS", "trial_index": 172}, "uniqueid": "MTK1938:323Q6SJS8JN6O86YAOPA5U6QYDPFHT", "dateTime": 1516568588845}, {"current_trial": 173, "trialdata": {"rt": -1, "trial_type": "single-stim", "word": "bunny", "stimulus": "<p id=\"stim\">BUNNY</p>", "conditions": [24, 800, "v", 24000], "internal_node_id": "0.0-128.0", "trial": 4, "time_elapsed": 776181, "serialpos": 16, "key_press": -1, "wordID": 197, "type": "PRES_VIS", "trial_index": 173}, "uniqueid": "MTK1938:323Q6SJS8JN6O86YAOPA5U6QYDPFHT", "dateTime": 1516568590818}, {"current_trial": 174, "trialdata": {"rt": -1, "trial_type": "single-stim", "word": "grave", "stimulus": "<p id=\"stim\">GRAVE</p>", "conditions": [24, 800, "v", 24000], "internal_node_id": "0.0-129.0", "trial": 4, "time_elapsed": 777940, "serialpos": 17, "key_press": -1, "wordID": 657, "type": "PRES_VIS", "trial_index": 174}, "uniqueid": "MTK1938:323Q6SJS8JN6O86YAOPA5U6QYDPFHT", "dateTime": 1516568592577}, {"current_trial": 175, "trialdata": {"rt": -1, "trial_type": "single-stim", "word": "handbag", "stimulus": "<p id=\"stim\">HANDBAG</p>", "conditions": [24, 800, "v", 24000], "internal_node_id": "0.0-130.0", "trial": 4, "time_elapsed": 779884, "serialpos": 18, "key_press": -1, "wordID": 683, "type": "PRES_VIS", "trial_index": 175}, "uniqueid": "MTK1938:323Q6SJS8JN6O86YAOPA5U6QYDPFHT", "dateTime": 1516568594521}, {"current_trial": 176, "trialdata": {"rt": -1, "trial_type": "single-stim", "word": "fireman", "stimulus": "<p id=\"stim\">FIREMAN</p>", "conditions": [24, 800, "v", 24000], "internal_node_id": "0.0-131.0", "trial": 4, "time_elapsed": 781835, "serialpos": 19, "key_press": -1, "wordID": 568, "type": "PRES_VIS", "trial_index": 176}, "uniqueid": "MTK1938:323Q6SJS8JN6O86YAOPA5U6QYDPFHT", "dateTime": 1516568596472}, {"current_trial": 177, "trialdata": {"rt": -1, "trial_type": "single-stim", "word": "girl", "stimulus": "<p id=\"stim\">GIRL</p>", "conditions": [24, 800, "v", 24000], "internal_node_id": "0.0-132.0", "trial": 4, "time_elapsed": 783814, "serialpos": 20, "key_press": -1, "wordID": 636, "type": "PRES_VIS", "trial_index": 177}, "uniqueid": "MTK1938:323Q6SJS8JN6O86YAOPA5U6QYDPFHT", "dateTime": 1516568598451}, {"current_trial": 178, "trialdata": {"rt": -1, "trial_type": "single-stim", "word": "princess", "stimulus": "<p id=\"stim\">PRINCESS</p>", "conditions": [24, 800, "v", 24000], "internal_node_id": "0.0-133.0", "trial": 4, "time_elapsed": 785596, "serialpos": 21, "key_press": -1, "wordID": 1124, "type": "PRES_VIS", "trial_index": 178}, "uniqueid": "MTK1938:323Q6SJS8JN6O86YAOPA5U6QYDPFHT", "dateTime": 1516568600233}, {"current_trial": 179, "trialdata": {"rt": -1, "trial_type": "single-stim", "word": "blackboard", "stimulus": "<p id=\"stim\">BLACKBOARD</p>", "conditions": [24, 800, "v", 24000], "internal_node_id": "0.0-134.0", "trial": 4, "time_elapsed": 787569, "serialpos": 22, "key_press": -1, "wordID": 132, "type": "PRES_VIS", "trial_index": 179}, "uniqueid": "MTK1938:323Q6SJS8JN6O86YAOPA5U6QYDPFHT", "dateTime": 1516568602206}, {"current_trial": 180, "trialdata": {"rt": -1, "trial_type": "single-stim", "word": "fungus", "stimulus": "<p id=\"stim\">FUNGUS</p>", "conditions": [24, 800, "v", 24000], "internal_node_id": "0.0-135.0", "trial": 4, "time_elapsed": 789386, "serialpos": 23, "key_press": -1, "wordID": 613, "type": "PRES_VIS", "trial_index": 180}, "uniqueid": "MTK1938:323Q6SJS8JN6O86YAOPA5U6QYDPFHT", "dateTime": 1516568604023}, {"current_trial": 181, "trialdata": {"rt": -1, "trial_type": "single-stim", "stimulus": "", "internal_node_id": "0.0-136.0-0.0", "time_elapsed": 791771, "key_press": -1, "type": "PRE_RECALL_DELAY", "trial_index": 181}, "uniqueid": "MTK1938:323Q6SJS8JN6O86YAOPA5U6QYDPFHT", "dateTime": 1516568606408}, {"current_trial": 182, "trialdata": {"rt": -1000, "trial_type": "single-audio", "stimulus": "/static/audio/400Hz.wav", "internal_node_id": "0.0-137.0", "time_elapsed": 792273, "key_press": -1, "type": "PRE_RECALL_ALERT", "trial_index": 182}, "uniqueid": "MTK1938:323Q6SJS8JN6O86YAOPA5U6QYDPFHT", "dateTime": 1516568606910}, {"current_trial": 183, "trialdata": {"rt": [3202, 5330, 6435, 8763, 11307, 14923, 20598, 23286, 25606], "recwords": ["blackboard", "fungus", "girl", "princess", "cashew", "fireman", "potato", "scallop", "salmon"], "key_times": [811, 1067, 1171, 1378, 1763, 2211, 2370, 2538, 2635, 2898, 3202, 3651, 3746, 3962, 4075, 4778, 4963, 5330, 5803, 5943, 6067, 6178, 6435, 7507, 7658, 7810, 7907, 7987, 8155, 8427, 8579, 8763, 9363, 9499, 9666, 9923, 10931, 11067, 11307, 11819, 11971, 12115, 12219, 12787, 12907, 13027, 14923, 19334, 19582, 19782, 19934, 20030, 20318, 20598, 21590, 21790, 22126, 22462, 22606, 22814, 23014, 23286, 24494, 24678, 24774, 25054, 25230, 25310, 25606], "trial_type": "free-recall", "conditions": [24, 800, "v", 24000], "internal_node_id": "0.0-138.0-0.0", "key_presses": [66, 76, 65, 67, 75, 66, 79, 65, 82, 68, 13, 70, 85, 78, 71, 85, 83, 13, 71, 73, 82, 76, 13, 80, 82, 73, 78, 67, 69, 83, 83, 13, 67, 65, 83, 72, 69, 87, 13, 70, 73, 82, 69, 77, 65, 78, 13, 80, 79, 84, 65, 84, 79, 13, 83, 67, 65, 76, 76, 79, 80, 13, 83, 65, 76, 77, 79, 78, 13], "trial": 4, "time_elapsed": 852278, "type": "FREE_RECALL", "trial_index": 183}, "uniqueid": "MTK1938:323Q6SJS8JN6O86YAOPA5U6QYDPFHT", "dateTime": 1516568666918}, {"current_trial": 184, "trialdata": {"rt": 2049, "trial_type": "text", "internal_node_id": "0.0-139.0", "time_elapsed": 856336, "key_press": 74, "type": "INSTRUCTIONS", "trial_index": 184}, "uniqueid": "MTK1938:323Q6SJS8JN6O86YAOPA5U6QYDPFHT", "dateTime": 1516568670973}, {"current_trial": 185, "trialdata": {"rt": [3524], "trial_type": "math-distractor", "key_times": [2924, 3188, 3524], "responses": ["19"], "num2": [7, 7], "num3": [5, 3], "conditions": [24, 800, "v", 12000], "internal_node_id": "0.0-140.0", "key_presses": [49, 57, 13], "trial": 5, "time_elapsed": 870341, "type": "DISTRACTOR", "trial_index": 185, "num1": [7, 5]}, "uniqueid": "MTK1938:323Q6SJS8JN6O86YAOPA5U6QYDPFHT", "dateTime": 1516568684978}, {"current_trial": 186, "trialdata": {"rt": -1, "trial_type": "single-stim", "stimulus": "<p id=\"stim\">10</p>", "internal_node_id": "0.0-141.0-0.0", "time_elapsed": 873347, "key_press": -1, "trial_index": 186}, "uniqueid": "MTK1938:323Q6SJS8JN6O86YAOPA5U6QYDPFHT", "dateTime": 1516568687985}, {"current_trial": 187, "trialdata": {"rt": -1, "trial_type": "single-stim", "stimulus": "<p id=\"stim\">9</p>", "internal_node_id": "0.0-141.0-1.0", "time_elapsed": 874352, "key_press": -1, "trial_index": 187}, "uniqueid": "MTK1938:323Q6SJS8JN6O86YAOPA5U6QYDPFHT", "dateTime": 1516568688989}, {"current_trial": 188, "trialdata": {"rt": -1, "trial_type": "single-stim", "stimulus": "<p id=\"stim\">8</p>", "internal_node_id": "0.0-141.0-2.0", "time_elapsed": 875356, "key_press": -1, "trial_index": 188}, "uniqueid": "MTK1938:323Q6SJS8JN6O86YAOPA5U6QYDPFHT", "dateTime": 1516568689993}, {"current_trial": 189, "trialdata": {"rt": -1, "trial_type": "single-stim", "stimulus": "<p id=\"stim\">7</p>", "internal_node_id": "0.0-141.0-3.0", "time_elapsed": 876360, "key_press": -1, "trial_index": 189}, "uniqueid": "MTK1938:323Q6SJS8JN6O86YAOPA5U6QYDPFHT", "dateTime": 1516568690997}, {"current_trial": 190, "trialdata": {"rt": -1, "trial_type": "single-stim", "stimulus": "<p id=\"stim\">6</p>", "internal_node_id": "0.0-141.0-4.0", "time_elapsed": 877364, "key_press": -1, "trial_index": 190}, "uniqueid": "MTK1938:323Q6SJS8JN6O86YAOPA5U6QYDPFHT", "dateTime": 1516568692001}, {"current_trial": 191, "trialdata": {"rt": -1, "trial_type": "single-stim", "stimulus": "<p id=\"stim\">5</p>", "internal_node_id": "0.0-141.0-5.0", "time_elapsed": 878368, "key_press": -1, "trial_index": 191}, "uniqueid": "MTK1938:323Q6SJS8JN6O86YAOPA5U6QYDPFHT", "dateTime": 1516568693005}, {"current_trial": 192, "trialdata": {"rt": -1, "trial_type": "single-stim", "stimulus": "<p id=\"stim\">4</p>", "internal_node_id": "0.0-141.0-6.0", "time_elapsed": 879372, "key_press": -1, "trial_index": 192}, "uniqueid": "MTK1938:323Q6SJS8JN6O86YAOPA5U6QYDPFHT", "dateTime": 1516568694009}, {"current_trial": 193, "trialdata": {"rt": -1, "trial_type": "single-stim", "stimulus": "<p id=\"stim\">3</p>", "internal_node_id": "0.0-141.0-7.0", "time_elapsed": 880376, "key_press": -1, "trial_index": 193}, "uniqueid": "MTK1938:323Q6SJS8JN6O86YAOPA5U6QYDPFHT", "dateTime": 1516568695013}, {"current_trial": 194, "trialdata": {"rt": -1, "trial_type": "single-stim", "stimulus": "<p id=\"stim\">2</p>", "internal_node_id": "0.0-141.0-8.0", "time_elapsed": 881380, "key_press": -1, "trial_index": 194}, "uniqueid": "MTK1938:323Q6SJS8JN6O86YAOPA5U6QYDPFHT", "dateTime": 1516568696018}, {"current_trial": 195, "trialdata": {"rt": -1, "trial_type": "single-stim", "stimulus": "<p id=\"stim\">1</p>", "internal_node_id": "0.0-141.0-9.0", "time_elapsed": 882385, "key_press": -1, "trial_index": 195}, "uniqueid": "MTK1938:323Q6SJS8JN6O86YAOPA5U6QYDPFHT", "dateTime": 1516568697022}, {"current_trial": 196, "trialdata": {"rt": -1, "trial_type": "single-stim", "stimulus": "<p id=\"stim\">+</p>", "internal_node_id": "0.0-142.0-0.0", "time_elapsed": 883888, "key_press": -1, "type": "FIXATION", "trial_index": 196}, "uniqueid": "MTK1938:323Q6SJS8JN6O86YAOPA5U6QYDPFHT", "dateTime": 1516568698525}, {"current_trial": 197, "trialdata": {"rt": -1, "trial_type": "single-stim", "word": "whiskers", "stimulus": "<p id=\"stim\">WHISKERS</p>", "conditions": [24, 800, "v", 12000], "internal_node_id": "0.0-143.0", "trial": 5, "time_elapsed": 884691, "serialpos": 0, "key_press": -1, "wordID": 1604, "type": "PRES_VIS", "trial_index": 197}, "uniqueid": "MTK1938:323Q6SJS8JN6O86YAOPA5U6QYDPFHT", "dateTime": 1516568699328}, {"current_trial": 198, "trialdata": {"rt": -1, "trial_type": "single-stim", "word": "paddle", "stimulus": "<p id=\"stim\">PADDLE</p>", "conditions": [24, 800, "v", 12000], "internal_node_id": "0.0-144.0", "trial": 5, "time_elapsed": 886331, "serialpos": 1, "key_press": -1, "wordID": 999, "type": "PRES_VIS", "trial_index": 198}, "uniqueid": "MTK1938:323Q6SJS8JN6O86YAOPA5U6QYDPFHT", "dateTime": 1516568700968}, {"current_trial": 199, "trialdata": {"rt": -1, "trial_type": "single-stim", "word": "outdoors", "stimulus": "<p id=\"stim\">OUTDOORS</p>", "conditions": [24, 800, "v", 12000], "internal_node_id": "0.0-145.0", "trial": 5, "time_elapsed": 888131, "serialpos": 2, "key_press": -1, "wordID": 986, "type": "PRES_VIS", "trial_index": 199}, "uniqueid": "MTK1938:323Q6SJS8JN6O86YAOPA5U6QYDPFHT", "dateTime": 1516568702768}, {"current_trial": 200, "trialdata": {"rt": -1, "trial_type": "single-stim", "word": "pecan", "stimulus": "<p id=\"stim\">PECAN</p>", "conditions": [24, 800, "v", 12000], "internal_node_id": "0.0-146.0", "trial": 5, "time_elapsed": 889987, "serialpos": 3, "key_press": -1, "wordID": 1035, "type": "PRES_VIS", "trial_index": 200}, "uniqueid": "MTK1938:323Q6SJS8JN6O86YAOPA5U6QYDPFHT", "dateTime": 1516568704624}, {"current_trial": 201, "trialdata": {"rt": -1, "trial_type": "single-stim", "word": "pistol", "stimulus": "<p id=\"stim\">PISTOL</p>", "conditions": [24, 800, "v", 12000], "internal_node_id": "0.0-147.0", "trial": 5, "time_elapsed": 891851, "serialpos": 4, "key_press": -1, "wordID": 1074, "type": "PRES_VIS", "trial_index": 201}, "uniqueid": "MTK1938:323Q6SJS8JN6O86YAOPA5U6QYDPFHT", "dateTime": 1516568706488}, {"current_trial": 202, "trialdata": {"rt": -1, "trial_type": "single-stim", "word": "student", "stimulus": "<p id=\"stim\">STUDENT</p>", "conditions": [24, 800, "v", 12000], "internal_node_id": "0.0-148.0", "trial": 5, "time_elapsed": 893854, "serialpos": 5, "key_press": -1, "wordID": 1394, "type": "PRES_VIS", "trial_index": 202}, "uniqueid": "MTK1938:323Q6SJS8JN6O86YAOPA5U6QYDPFHT", "dateTime": 1516568708491}, {"current_trial": 203, "trialdata": {"rt": -1, "trial_type": "single-stim", "word": "cricket", "stimulus": "<p id=\"stim\">CRICKET</p>", "conditions": [24, 800, "v", 12000], "internal_node_id": "0.0-149.0", "trial": 5, "time_elapsed": 895676, "serialpos": 6, "key_press": -1, "wordID": 407, "type": "PRES_VIS", "trial_index": 203}, "uniqueid": "MTK1938:323Q6SJS8JN6O86YAOPA5U6QYDPFHT", "dateTime": 1516568710313}, {"current_trial": 204, "trialdata": {"rt": -1, "trial_type": "single-stim", "word": "peanut", "stimulus": "<p id=\"stim\">PEANUT</p>", "conditions": [24, 800, "v", 12000], "internal_node_id": "0.0-150.0", "trial": 5, "time_elapsed": 897412, "serialpos": 7, "key_press": -1, "wordID": 1031, "type": "PRES_VIS", "trial_index": 204}, "uniqueid": "MTK1938:323Q6SJS8JN6O86YAOPA5U6QYDPFHT", "dateTime": 1516568712049}, {"current_trial": 205, "trialdata": {"rt": -1, "trial_type": "single-stim", "word": "salt", "stimulus": "<p id=\"stim\">SALT</p>", "conditions": [24, 800, "v", 12000], "internal_node_id": "0.0-151.0", "trial": 5, "time_elapsed": 899019, "serialpos": 8, "key_press": -1, "wordID": 1228, "type": "PRES_VIS", "trial_index": 205}, "uniqueid": "MTK1938:323Q6SJS8JN6O86YAOPA5U6QYDPFHT", "dateTime": 1516568713656}, {"current_trial": 206, "trialdata": {"rt": -1, "trial_type": "single-stim", "word": "salad", "stimulus": "<p id=\"stim\">SALAD</p>", "conditions": [24, 800, "v", 12000], "internal_node_id": "0.0-152.0", "trial": 5, "time_elapsed": 900825, "serialpos": 9, "key_press": -1, "wordID": 1223, "type": "PRES_VIS", "trial_index": 206}, "uniqueid": "MTK1938:323Q6SJS8JN6O86YAOPA5U6QYDPFHT", "dateTime": 1516568715462}, {"current_trial": 207, "trialdata": {"rt": -1, "trial_type": "single-stim", "word": "shortcake", "stimulus": "<p id=\"stim\">SHORTCAKE</p>", "conditions": [24, 800, "v", 12000], "internal_node_id": "0.0-153.0", "trial": 5, "time_elapsed": 902455, "serialpos": 10, "key_press": -1, "wordID": 1291, "type": "PRES_VIS", "trial_index": 207}, "uniqueid": "MTK1938:323Q6SJS8JN6O86YAOPA5U6QYDPFHT", "dateTime": 1516568717093}, {"current_trial": 208, "trialdata": {"rt": -1, "trial_type": "single-stim", "word": "suspect", "stimulus": "<p id=\"stim\">SUSPECT</p>", "conditions": [24, 800, "v", 12000], "internal_node_id": "0.0-154.0", "trial": 5, "time_elapsed": 904301, "serialpos": 11, "key_press": -1, "wordID": 1414, "type": "PRES_VIS", "trial_index": 208}, "uniqueid": "MTK1938:323Q6SJS8JN6O86YAOPA5U6QYDPFHT", "dateTime": 1516568718938}, {"current_trial": 209, "trialdata": {"rt": -1, "trial_type": "single-stim", "word": "sandwich", "stimulus": "<p id=\"stim\">SANDWICH</p>", "conditions": [24, 800, "v", 12000], "internal_node_id": "0.0-155.0", "trial": 5, "time_elapsed": 906205, "serialpos": 12, "key_press": -1, "wordID": 1231, "type": "PRES_VIS", "trial_index": 209}, "uniqueid": "MTK1938:323Q6SJS8JN6O86YAOPA5U6QYDPFHT", "dateTime": 1516568720842}, {"current_trial": 210, "trialdata": {"rt": -1, "trial_type": "single-stim", "word": "france", "stimulus": "<p id=\"stim\">FRANCE</p>", "conditions": [24, 800, "v", 12000], "internal_node_id": "0.0-156.0", "trial": 5, "time_elapsed": 907842, "serialpos": 13, "key_press": -1, "wordID": 600, "type": "PRES_VIS", "trial_index": 210}, "uniqueid": "MTK1938:323Q6SJS8JN6O86YAOPA5U6QYDPFHT", "dateTime": 1516568722479}, {"current_trial": 211, "trialdata": {"rt": -1, "trial_type": "single-stim", "word": "island", "stimulus": "<p id=\"stim\">ISLAND</p>", "conditions": [24, 800, "v", 12000], "internal_node_id": "0.0-157.0", "trial": 5, "time_elapsed": 909808, "serialpos": 14, "key_press": -1, "wordID": 744, "type": "PRES_VIS", "trial_index": 211}, "uniqueid": "MTK1938:323Q6SJS8JN6O86YAOPA5U6QYDPFHT", "dateTime": 1516568724445}, {"current_trial": 212, "trialdata": {"rt": -1, "trial_type": "single-stim", "word": "valley", "stimulus": "<p id=\"stim\">VALLEY</p>", "conditions": [24, 800, "v", 12000], "internal_node_id": "0.0-158.0", "trial": 5, "time_elapsed": 911597, "serialpos": 15, "key_press": -1, "wordID": 1544, "type": "PRES_VIS", "trial_index": 212}, "uniqueid": "MTK1938:323Q6SJS8JN6O86YAOPA5U6QYDPFHT", "dateTime": 1516568726234}, {"current_trial": 213, "trialdata": {"rt": -1, "trial_type": "single-stim", "word": "canyon", "stimulus": "<p id=\"stim\">CANYON</p>", "conditions": [24, 800, "v", 12000], "internal_node_id": "0.0-159.0", "trial": 5, "time_elapsed": 913216, "serialpos": 16, "key_press": -1, "wordID": 234, "type": "PRES_VIS", "trial_index": 213}, "uniqueid": "MTK1938:323Q6SJS8JN6O86YAOPA5U6QYDPFHT", "dateTime": 1516568727854}, {"current_trial": 214, "trialdata": {"rt": -1, "trial_type": "single-stim", "word": "japan", "stimulus": "<p id=\"stim\">JAPAN</p>", "conditions": [24, 800, "v", 12000], "internal_node_id": "0.0-160.0", "trial": 5, "time_elapsed": 914964, "serialpos": 17, "key_press": -1, "wordID": 748, "type": "PRES_VIS", "trial_index": 214}, "uniqueid": "MTK1938:323Q6SJS8JN6O86YAOPA5U6QYDPFHT", "dateTime": 1516568729601}, {"current_trial": 215, "trialdata": {"rt": -1, "trial_type": "single-stim", "word": "laser", "stimulus": "<p id=\"stim\">LASER</p>", "conditions": [24, 800, "v", 12000], "internal_node_id": "0.0-161.0", "trial": 5, "time_elapsed": 916879, "serialpos": 18, "key_press": -1, "wordID": 800, "type": "PRES_VIS", "trial_index": 215}, "uniqueid": "MTK1938:323Q6SJS8JN6O86YAOPA5U6QYDPFHT", "dateTime": 1516568731516}, {"current_trial": 216, "trialdata": {"rt": -1, "trial_type": "single-stim", "word": "label", "stimulus": "<p id=\"stim\">LABEL</p>", "conditions": [24, 800, "v", 12000], "internal_node_id": "0.0-162.0", "trial": 5, "time_elapsed": 918516, "serialpos": 19, "key_press": -1, "wordID": 789, "type": "PRES_VIS", "trial_index": 216}, "uniqueid": "MTK1938:323Q6SJS8JN6O86YAOPA5U6QYDPFHT", "dateTime": 1516568733153}, {"current_trial": 217, "trialdata": {"rt": -1, "trial_type": "single-stim", "word": "world", "stimulus": "<p id=\"stim\">WORLD</p>", "conditions": [24, 800, "v", 12000], "internal_node_id": "0.0-163.0", "trial": 5, "time_elapsed": 920489, "serialpos": 20, "key_press": -1, "wordID": 1621, "type": "PRES_VIS", "trial_index": 217}, "uniqueid": "MTK1938:323Q6SJS8JN6O86YAOPA5U6QYDPFHT", "dateTime": 1516568735126}, {"current_trial": 218, "trialdata": {"rt": -1, "trial_type": "single-stim", "word": "pork", "stimulus": "<p id=\"stim\">PORK</p>", "conditions": [24, 800, "v", 12000], "internal_node_id": "0.0-164.0", "trial": 5, "time_elapsed": 922415, "serialpos": 21, "key_press": -1, "wordID": 1107, "type": "PRES_VIS", "trial_index": 218}, "uniqueid": "MTK1938:323Q6SJS8JN6O86YAOPA5U6QYDPFHT", "dateTime": 1516568737053}, {"current_trial": 219, "trialdata": {"rt": -1, "trial_type": "single-stim", "word": "pastry", "stimulus": "<p id=\"stim\">PASTRY</p>", "conditions": [24, 800, "v", 12000], "internal_node_id": "0.0-165.0", "trial": 5, "time_elapsed": 924343, "serialpos": 22, "key_press": -1, "wordID": 1021, "type": "PRES_VIS", "trial_index": 219}, "uniqueid": "MTK1938:323Q6SJS8JN6O86YAOPA5U6QYDPFHT", "dateTime": 1516568738980}, {"current_trial": 220, "trialdata": {"rt": -1, "trial_type": "single-stim", "word": "saddle", "stimulus": "<p id=\"stim\">SADDLE</p>", "conditions": [24, 800, "v", 12000], "internal_node_id": "0.0-166.0", "trial": 5, "time_elapsed": 925957, "serialpos": 23, "key_press": -1, "wordID": 1220, "type": "PRES_VIS", "trial_index": 220}, "uniqueid": "MTK1938:323Q6SJS8JN6O86YAOPA5U6QYDPFHT", "dateTime": 1516568740594}, {"current_trial": 221, "trialdata": {"rt": -1, "trial_type": "single-stim", "stimulus": "", "internal_node_id": "0.0-167.0-0.0", "time_elapsed": 928110, "key_press": -1, "type": "PRE_RECALL_DELAY", "trial_index": 221}, "uniqueid": "MTK1938:323Q6SJS8JN6O86YAOPA5U6QYDPFHT", "dateTime": 1516568742747}, {"current_trial": 222, "trialdata": {"rt": -1000, "trial_type": "single-audio", "stimulus": "/static/audio/400Hz.wav", "internal_node_id": "0.0-168.0", "time_elapsed": 928611, "key_press": -1, "type": "PRE_RECALL_ALERT", "trial_index": 222}, "uniqueid": "MTK1938:323Q6SJS8JN6O86YAOPA5U6QYDPFHT", "dateTime": 1516568743248}, {"current_trial": 223, "trialdata": {"rt": [2564, 6268, 9172, 14300, 17661, 20460, 25537], "recwords": ["saddle", "pastry", "salt", "peanut", "salad", "whiskers", "paddle"], "key_times": [412, 628, 876, 1076, 1260, 1388, 1572, 2108, 2564, 4132, 4300, 4420, 4740, 5604, 5764, 6268, 8188, 8372, 8492, 9004, 9172, 12317, 12460, 12572, 12701, 13157, 13309, 14300, 15517, 15637, 15789, 15909, 16053, 16557, 16725, 17061, 17381, 17661, 18069, 18300, 18412, 18589, 18733, 19205, 19532, 19605, 19717, 20204, 20460, 24513, 24625, 24785, 24969, 25121, 25353, 25537], "trial_type": "free-recall", "conditions": [24, 800, "v", 12000], "internal_node_id": "0.0-169.0-0.0", "key_presses": [83, 65, 68, 68, 76, 69, 221, 8, 13, 80, 65, 83, 84, 82, 89, 13, 83, 65, 76, 84, 13, 80, 69, 65, 78, 85, 84, 13, 83, 65, 76, 68, 65, 8, 8, 65, 68, 13, 87, 72, 73, 83, 72, 8, 75, 69, 82, 83, 13, 80, 65, 68, 68, 76, 69, 13], "trial": 5, "time_elapsed": 988618, "type": "FREE_RECALL", "trial_index": 223}, "uniqueid": "MTK1938:323Q6SJS8JN6O86YAOPA5U6QYDPFHT", "dateTime": 1516568803257}, {"current_trial": 224, "trialdata": {"rt": 2648, "trial_type": "text", "internal_node_id": "0.0-170.0", "time_elapsed": 993274, "key_press": 74, "type": "INSTRUCTIONS", "trial_index": 224}, "uniqueid": "MTK1938:323Q6SJS8JN6O86YAOPA5U6QYDPFHT", "dateTime": 1516568807912}, {"current_trial": 225, "trialdata": {"rt": [3750, 6382, 10792], "trial_type": "math-distractor", "key_times": [2950, 3094, 3750, 5750, 5934, 6382, 10512, 10624, 10792], "responses": ["16", "14", "22"], "num2": [1, 8, 9, 1], "num3": [7, 1, 7, 9], "conditions": [24, 1600, "v", 12000], "internal_node_id": "0.0-171.0", "key_presses": [49, 54, 13, 49, 52, 13, 50, 50, 13], "trial": 6, "time_elapsed": 1007279, "type": "DISTRACTOR", "trial_index": 225, "num1": [8, 5, 6, 4]}, "uniqueid": "MTK1938:323Q6SJS8JN6O86YAOPA5U6QYDPFHT", "dateTime": 1516568821916}, {"current_trial": 226, "trialdata": {"rt": -1, "trial_type": "single-stim", "stimulus": "<p id=\"stim\">10</p>", "internal_node_id": "0.0-172.0-0.0", "time_elapsed": 1010285, "key_press": -1, "trial_index": 226}, "uniqueid": "MTK1938:323Q6SJS8JN6O86YAOPA5U6QYDPFHT", "dateTime": 1516568824922}, {"current_trial": 227, "trialdata": {"rt": -1, "trial_type": "single-stim", "stimulus": "<p id=\"stim\">9</p>", "internal_node_id": "0.0-172.0-1.0", "time_elapsed": 1011289, "key_press": -1, "trial_index": 227}, "uniqueid": "MTK1938:323Q6SJS8JN6O86YAOPA5U6QYDPFHT", "dateTime": 1516568825926}, {"current_trial": 228, "trialdata": {"rt": -1, "trial_type": "single-stim", "stimulus": "<p id=\"stim\">8</p>", "internal_node_id": "0.0-172.0-2.0", "time_elapsed": 1012293, "key_press": -1, "trial_index": 228}, "uniqueid": "MTK1938:323Q6SJS8JN6O86YAOPA5U6QYDPFHT", "dateTime": 1516568826930}, {"current_trial": 229, "trialdata": {"rt": -1, "trial_type": "single-stim", "stimulus": "<p id=\"stim\">7</p>", "internal_node_id": "0.0-172.0-3.0", "time_elapsed": 1013297, "key_press": -1, "trial_index": 229}, "uniqueid": "MTK1938:323Q6SJS8JN6O86YAOPA5U6QYDPFHT", "dateTime": 1516568827934}, {"current_trial": 230, "trialdata": {"rt": -1, "trial_type": "single-stim", "stimulus": "<p id=\"stim\">6</p>", "internal_node_id": "0.0-172.0-4.0", "time_elapsed": 1014302, "key_press": -1, "trial_index": 230}, "uniqueid": "MTK1938:323Q6SJS8JN6O86YAOPA5U6QYDPFHT", "dateTime": 1516568828939}, {"current_trial": 231, "trialdata": {"rt": -1, "trial_type": "single-stim", "stimulus": "<p id=\"stim\">5</p>", "internal_node_id": "0.0-172.0-5.0", "time_elapsed": 1015306, "key_press": -1, "trial_index": 231}, "uniqueid": "MTK1938:323Q6SJS8JN6O86YAOPA5U6QYDPFHT", "dateTime": 1516568829943}, {"current_trial": 232, "trialdata": {"rt": -1, "trial_type": "single-stim", "stimulus": "<p id=\"stim\">4</p>", "internal_node_id": "0.0-172.0-6.0", "time_elapsed": 1016310, "key_press": -1, "trial_index": 232}, "uniqueid": "MTK1938:323Q6SJS8JN6O86YAOPA5U6QYDPFHT", "dateTime": 1516568830947}, {"current_trial": 233, "trialdata": {"rt": -1, "trial_type": "single-stim", "stimulus": "<p id=\"stim\">3</p>", "internal_node_id": "0.0-172.0-7.0", "time_elapsed": 1017314, "key_press": -1, "trial_index": 233}, "uniqueid": "MTK1938:323Q6SJS8JN6O86YAOPA5U6QYDPFHT", "dateTime": 1516568831951}, {"current_trial": 234, "trialdata": {"rt": -1, "trial_type": "single-stim", "stimulus": "<p id=\"stim\">2</p>", "internal_node_id": "0.0-172.0-8.0", "time_elapsed": 1018318, "key_press": -1, "trial_index": 234}, "uniqueid": "MTK1938:323Q6SJS8JN6O86YAOPA5U6QYDPFHT", "dateTime": 1516568832955}, {"current_trial": 235, "trialdata": {"rt": -1, "trial_type": "single-stim", "stimulus": "<p id=\"stim\">1</p>", "internal_node_id": "0.0-172.0-9.0", "time_elapsed": 1019322, "key_press": -1, "trial_index": 235}, "uniqueid": "MTK1938:323Q6SJS8JN6O86YAOPA5U6QYDPFHT", "dateTime": 1516568833959}, {"current_trial": 236, "trialdata": {"rt": -1, "trial_type": "single-stim", "stimulus": "<p id=\"stim\">+</p>", "internal_node_id": "0.0-173.0-0.0", "time_elapsed": 1020825, "key_press": -1, "type": "FIXATION", "trial_index": 236}, "uniqueid": "MTK1938:323Q6SJS8JN6O86YAOPA5U6QYDPFHT", "dateTime": 1516568835463}, {"current_trial": 237, "trialdata": {"rt": -1, "trial_type": "single-stim", "word": "kleenex", "stimulus": "<p id=\"stim\">KLEENEX</p>", "conditions": [24, 1600, "v", 12000], "internal_node_id": "0.0-174.0", "trial": 6, "time_elapsed": 1022427, "serialpos": 0, "key_press": -1, "wordID": 781, "type": "PRES_VIS", "trial_index": 237}, "uniqueid": "MTK1938:323Q6SJS8JN6O86YAOPA5U6QYDPFHT", "dateTime": 1516568837065}, {"current_trial": 238, "trialdata": {"rt": -1, "trial_type": "single-stim", "word": "notebook", "stimulus": "<p id=\"stim\">NOTEBOOK</p>", "conditions": [24, 1600, "v", 12000], "internal_node_id": "0.0-175.0", "trial": 6, "time_elapsed": 1025138, "serialpos": 1, "key_press": -1, "wordID": 958, "type": "PRES_VIS", "trial_index": 238}, "uniqueid": "MTK1938:323Q6SJS8JN6O86YAOPA5U6QYDPFHT", "dateTime": 1516568839775}, {"current_trial": 239, "trialdata": {"rt": -1, "trial_type": "single-stim", "word": "tractor", "stimulus": "<p id=\"stim\">TRACTOR</p>", "conditions": [24, 1600, "v", 12000], "internal_node_id": "0.0-176.0", "trial": 6, "time_elapsed": 1027692, "serialpos": 2, "key_press": -1, "wordID": 1492, "type": "PRES_VIS", "trial_index": 239}, "uniqueid": "MTK1938:323Q6SJS8JN6O86YAOPA5U6QYDPFHT", "dateTime": 1516568842329}, {"current_trial": 240, "trialdata": {"rt": -1, "trial_type": "single-stim", "word": "baby", "stimulus": "<p id=\"stim\">BABY</p>", "conditions": [24, 1600, "v", 12000], "internal_node_id": "0.0-177.0", "trial": 6, "time_elapsed": 1030269, "serialpos": 3, "key_press": -1, "wordID": 63, "type": "PRES_VIS", "trial_index": 240}, "uniqueid": "MTK1938:323Q6SJS8JN6O86YAOPA5U6QYDPFHT", "dateTime": 1516568844906}, {"current_trial": 241, "trialdata": {"rt": -1, "trial_type": "single-stim", "word": "tutu", "stimulus": "<p id=\"stim\">TUTU</p>", "conditions": [24, 1600, "v", 12000], "internal_node_id": "0.0-178.0", "trial": 6, "time_elapsed": 1032765, "serialpos": 4, "key_press": -1, "wordID": 1523, "type": "PRES_VIS", "trial_index": 241}, "uniqueid": "MTK1938:323Q6SJS8JN6O86YAOPA5U6QYDPFHT", "dateTime": 1516568847402}, {"current_trial": 242, "trialdata": {"rt": -1, "trial_type": "single-stim", "word": "dandruff", "stimulus": "<p id=\"stim\">DANDRUFF</p>", "conditions": [24, 1600, "v", 12000], "internal_node_id": "0.0-179.0", "trial": 6, "time_elapsed": 1035527, "serialpos": 5, "key_press": -1, "wordID": 438, "type": "PRES_VIS", "trial_index": 242}, "uniqueid": "MTK1938:323Q6SJS8JN6O86YAOPA5U6QYDPFHT", "dateTime": 1516568850165}, {"current_trial": 243, "trialdata": {"rt": -1, "trial_type": "single-stim", "word": "snack", "stimulus": "<p id=\"stim\">SNACK</p>", "conditions": [24, 1600, "v", 12000], "internal_node_id": "0.0-180.0", "trial": 6, "time_elapsed": 1038302, "serialpos": 6, "key_press": -1, "wordID": 1330, "type": "PRES_VIS", "trial_index": 243}, "uniqueid": "MTK1938:323Q6SJS8JN6O86YAOPA5U6QYDPFHT", "dateTime": 1516568852939}, {"current_trial": 244, "trialdata": {"rt": -1, "trial_type": "single-stim", "word": "doughnut", "stimulus": "<p id=\"stim\">DOUGHNUT</p>", "conditions": [24, 1600, "v", 12000], "internal_node_id": "0.0-181.0", "trial": 6, "time_elapsed": 1041007, "serialpos": 7, "key_press": -1, "wordID": 489, "type": "PRES_VIS", "trial_index": 244}, "uniqueid": "MTK1938:323Q6SJS8JN6O86YAOPA5U6QYDPFHT", "dateTime": 1516568855644}, {"current_trial": 245, "trialdata": {"rt": -1, "trial_type": "single-stim", "word": "woman", "stimulus": "<p id=\"stim\">WOMAN</p>", "conditions": [24, 1600, "v", 12000], "internal_node_id": "0.0-182.0", "trial": 6, "time_elapsed": 1043613, "serialpos": 8, "key_press": -1, "wordID": 1619, "type": "PRES_VIS", "trial_index": 245}, "uniqueid": "MTK1938:323Q6SJS8JN6O86YAOPA5U6QYDPFHT", "dateTime": 1516568858250}, {"current_trial": 246, "trialdata": {"rt": -1, "trial_type": "single-stim", "word": "banker", "stimulus": "<p id=\"stim\">BANKER</p>", "conditions": [24, 1600, "v", 12000], "internal_node_id": "0.0-183.0", "trial": 6, "time_elapsed": 1046178, "serialpos": 9, "key_press": -1, "wordID": 83, "type": "PRES_VIS", "trial_index": 246}, "uniqueid": "MTK1938:323Q6SJS8JN6O86YAOPA5U6QYDPFHT", "dateTime": 1516568860815}, {"current_trial": 247, "trialdata": {"rt": -1, "trial_type": "single-stim", "word": "pigeon", "stimulus": "<p id=\"stim\">PIGEON</p>", "conditions": [24, 1600, "v", 12000], "internal_node_id": "0.0-184.0", "trial": 6, "time_elapsed": 1048709, "serialpos": 10, "key_press": -1, "wordID": 1064, "type": "PRES_VIS", "trial_index": 247}, "uniqueid": "MTK1938:323Q6SJS8JN6O86YAOPA5U6QYDPFHT", "dateTime": 1516568863346}, {"current_trial": 248, "trialdata": {"rt": -1, "trial_type": "single-stim", "word": "costume", "stimulus": "<p id=\"stim\">COSTUME</p>", "conditions": [24, 1600, "v", 12000], "internal_node_id": "0.0-185.0", "trial": 6, "time_elapsed": 1051437, "serialpos": 11, "key_press": -1, "wordID": 382, "type": "PRES_VIS", "trial_index": 248}, "uniqueid": "MTK1938:323Q6SJS8JN6O86YAOPA5U6QYDPFHT", "dateTime": 1516568866074}, {"current_trial": 249, "trialdata": {"rt": -1, "trial_type": "single-stim", "word": "panther", "stimulus": "<p id=\"stim\">PANTHER</p>", "conditions": [24, 1600, "v", 12000], "internal_node_id": "0.0-186.0", "trial": 6, "time_elapsed": 1054211, "serialpos": 12, "key_press": -1, "wordID": 1008, "type": "PRES_VIS", "trial_index": 249}, "uniqueid": "MTK1938:323Q6SJS8JN6O86YAOPA5U6QYDPFHT", "dateTime": 1516568868848}, {"current_trial": 250, "trialdata": {"rt": -1, "trial_type": "single-stim", "word": "puppy", "stimulus": "<p id=\"stim\">PUPPY</p>", "conditions": [24, 1600, "v", 12000], "internal_node_id": "0.0-187.0", "trial": 6, "time_elapsed": 1056828, "serialpos": 13, "key_press": -1, "wordID": 1143, "type": "PRES_VIS", "trial_index": 250}, "uniqueid": "MTK1938:323Q6SJS8JN6O86YAOPA5U6QYDPFHT", "dateTime": 1516568871465}, {"current_trial": 251, "trialdata": {"rt": -1, "trial_type": "single-stim", "word": "shoulder", "stimulus": "<p id=\"stim\">SHOULDER</p>", "conditions": [24, 1600, "v", 12000], "internal_node_id": "0.0-188.0", "trial": 6, "time_elapsed": 1059534, "serialpos": 14, "key_press": -1, "wordID": 1293, "type": "PRES_VIS", "trial_index": 251}, "uniqueid": "MTK1938:323Q6SJS8JN6O86YAOPA5U6QYDPFHT", "dateTime": 1516568874171}, {"current_trial": 252, "trialdata": {"rt": -1, "trial_type": "single-stim", "word": "fiddle", "stimulus": "<p id=\"stim\">FIDDLE</p>", "conditions": [24, 1600, "v", 12000], "internal_node_id": "0.0-189.0", "trial": 6, "time_elapsed": 1062314, "serialpos": 15, "key_press": -1, "wordID": 560, "type": "PRES_VIS", "trial_index": 252}, "uniqueid": "MTK1938:323Q6SJS8JN6O86YAOPA5U6QYDPFHT", "dateTime": 1516568876951}, {"current_trial": 253, "trialdata": {"rt": -1, "trial_type": "single-stim", "word": "hawk", "stimulus": "<p id=\"stim\">HAWK</p>", "conditions": [24, 1600, "v", 12000], "internal_node_id": "0.0-190.0", "trial": 6, "time_elapsed": 1064752, "serialpos": 16, "key_press": -1, "wordID": 691, "type": "PRES_VIS", "trial_index": 253}, "uniqueid": "MTK1938:323Q6SJS8JN6O86YAOPA5U6QYDPFHT", "dateTime": 1516568879389}, {"current_trial": 254, "trialdata": {"rt": -1, "trial_type": "single-stim", "word": "nomad", "stimulus": "<p id=\"stim\">NOMAD</p>", "conditions": [24, 1600, "v", 12000], "internal_node_id": "0.0-191.0", "trial": 6, "time_elapsed": 106