{"assignmentId": "39ASUFLU6YEB4K6HKHNQQY9K8LFEXP", "workerId": "MTK1469", "questiondata": {"origin": "United States", "strat-rehearsal": "76", "marital": "Single", "education": "Some college", "ethnicity": "Not Hispanic", "color_depth": 24, "distracted": "Yes", "wrote-notes": "No", "strat-other": "", "screen_width": 1536, "avail_screen_width": 1536, "avail_screen_height": 824, "strat-image": "62", "language": "English", "gender": "Male", "age": "21", "gender_other": "", "race": ["White"], "strat-categorize": "81", "pixel_depth": 24, "strat-spatial": "3", "strat-story": "4", "race_other": "", "screen_height": 864}, "bonus": 0, "hitId": "389A2A304OPMNCIYVCNM2CQMW020CC", "counterbalance": 823, "useragent": "Mozilla/5.0 (Windows NT 10.0; Win64; x64) AppleWebKit/537.36 (KHTML, like Gecko) Chrome/63.0.3239.132 Safari/537.36", "eventdata": [{"eventtype": "initialized", "interval": 0, "value": null, "timestamp": 1515896746992}, {"eventtype": "window_resize", "interval": 1, "value": [1540, 814], "timestamp": 1515896746993}, {"eventtype": "window_resize", "interval": 441, "value": [1536, 774], "timestamp": 1515896747434}, {"eventtype": "focus", "interval": 83542, "value": "off", "timestamp": 1515896830976}, {"eventtype": "focus", "interval": 1475, "value": "on", "timestamp": 1515896832451}, {"eventtype": "focus", "interval": 1, "value": "on", "timestamp": 1515896832452}, {"eventtype": "window_resize", "interval": 965745, "value": [1540, 812], "timestamp": 1515897798197}, {"eventtype": "focus", "interval": 711, "value": "off", "timestamp": 1515897798908}, {"eventtype": "window_resize", "interval": 192, "value": [767, 766], "timestamp": 1515897799100}, {"eventtype": "focus", "interval": 5152, "value": "on", "timestamp": 1515897804252}, {"eventtype": "window_resize", "interval": 239, "value": [1536, 774], "timestamp": 1515897804491}, {"eventtype": "window_resize", "interval": 1125659, "value": [1540, 812], "timestamp": 1515898930150}, {"eventtype": "window_resize", "interval": 485, "value": [767, 766], "timestamp": 1515898930635}, {"eventtype": "window_resize", "interval": 12639, "value": [1540, 812], "timestamp": 1515898943274}, {"eventtype": "window_resize", "interval": 466, "value": [1536, 774], "timestamp": 1515898943740}, {"eventtype": "window_resize", "interval": 322208, "value": [1540, 812], "timestamp": 1515899265948}, {"eventtype": "window_resize", "interval": 1557, "value": [1536, 774], "timestamp": 1515899267505}, {"eventtype": "window_resize", "interval": 134692, "value": [1540, 812], "timestamp": 1515899402197}, {"eventtype": "focus", "interval": 4858, "value": "off", "timestamp": 1515899407055}, {"eventtype": "focus", "interval": 2417, "value": "on", "timestamp": 1515899409472}, {"eventtype": "window_resize", "interval": 2130, "value": [1536, 774], "timestamp": 1515899411602}], "data": [{"current_trial": 0, "trialdata": {"rt": 1330, "trial_type": "text", "internal_node_id": "0.0-0.0", "time_elapsed": 1333, "key_press": 32, "type": "INSTRUCTIONS", "trial_index": 0}, "uniqueid": "MTK1469:39ASUFLU6YEB4K6HKHNQQY9K8LFEXP", "dateTime": 1515896748639}, {"current_trial": 1, "trialdata": {"rt": 73975, "trial_type": "text", "internal_node_id": "0.0-1.0", "time_elapsed": 75310, "key_press": 32, "type": "INSTRUCTIONS", "trial_index": 1}, "uniqueid": "MTK1469:39ASUFLU6YEB4K6HKHNQQY9K8LFEXP", "dateTime": 1515896822616}, {"current_trial": 2, "trialdata": {"rt": [10484], "trial_type": "audio-test", "responses": ["ocean"], "internal_node_id": "0.0-2.0", "time_elapsed": 85855, "type": "AUDIO_TEST", "trial_index": 2}, "uniqueid": "MTK1469:39ASUFLU6YEB4K6HKHNQQY9K8LFEXP", "dateTime": 1515896833162}, {"current_trial": 3, "trialdata": {"rt": [3686], "trial_type": "audio-test", "responses": ["crystal"], "internal_node_id": "0.0-3.0", "time_elapsed": 89545, "type": "AUDIO_TEST", "trial_index": 3}, "uniqueid": "MTK1469:39ASUFLU6YEB4K6HKHNQQY9K8LFEXP", "dateTime": 1515896836851}, {"current_trial": 4, "trialdata": {"rt": [3462], "trial_type": "audio-test", "responses": ["spice"], "internal_node_id": "0.0-4.0", "time_elapsed": 93010, "type": "AUDIO_TEST", "trial_index": 4}, "uniqueid": "MTK1469:39ASUFLU6YEB4K6HKHNQQY9K8LFEXP", "dateTime": 1515896840316}, {"current_trial": 5, "trialdata": {"rt": 19228, "trial_type": "survey-text", "responses": "{\"Q0\":\"\",\"Q1\":\"\",\"Q2\":\"\"}", "internal_node_id": "0.0-5.0", "time_elapsed": 112992, "type": "SLEEP_SURVEY", "trial_index": 5}, "uniqueid": "MTK1469:39ASUFLU6YEB4K6HKHNQQY9K8LFEXP", "dateTime": 1515896860298}, {"current_trial": 6, "trialdata": {"rt": 29297, "trial_type": "text", "internal_node_id": "0.0-6.0", "time_elapsed": 143292, "key_press": 32, "type": "INSTRUCTIONS", "trial_index": 6}, "uniqueid": "MTK1469:39ASUFLU6YEB4K6HKHNQQY9K8LFEXP", "dateTime": 1515896890598}, {"current_trial": 7, "trialdata": {"rt": 38969, "trial_type": "text", "internal_node_id": "0.0-7.0", "time_elapsed": 182762, "key_press": 32, "type": "INSTRUCTIONS", "trial_index": 7}, "uniqueid": "MTK1469:39ASUFLU6YEB4K6HKHNQQY9K8LFEXP", "dateTime": 1515896930068}, {"current_trial": 8, "trialdata": {"rt": 3180, "trial_type": "text", "internal_node_id": "0.0-8.0", "time_elapsed": 186445, "key_press": 32, "type": "INSTRUCTIONS", "trial_index": 8}, "uniqueid": "MTK1469:39ASUFLU6YEB4K6HKHNQQY9K8LFEXP", "dateTime": 1515896933751}, {"current_trial": 9, "trialdata": {"rt": [2581, 4983, 6603, 9432, 11137, 12717, 14593, 16514], "trial_type": "math-distractor", "key_times": [2198, 2374, 2581, 3883, 3884, 4781, 4983, 6341, 6603, 9058, 9111, 9432, 10817, 10878, 11137, 12388, 12448, 12717, 14165, 14350, 14593, 16086, 16262, 16514], "responses": ["24", "6", "9", "20", "15", "13", "12", "13"], "num2": [7, 3, 6, 5, 5, 4, 1, 5, 4], "num3": [8, 1, 1, 7, 2, 3, 9, 6, 3], "conditions": [18, 1200, "v", 18000], "internal_node_id": "0.0-9.0", "key_presses": [98, 100, 13, 102, 107, 8, 13, 105, 13, 98, 96, 13, 97, 101, 13, 97, 99, 13, 97, 98, 13, 97, 99, 13], "trial": 0, "time_elapsed": 205450, "type": "DISTRACTOR", "trial_index": 9, "num1": [9, 2, 2, 8, 8, 6, 2, 2, 9]}, "uniqueid": "MTK1469:39ASUFLU6YEB4K6HKHNQQY9K8LFEXP", "dateTime": 1515896952756}, {"current_trial": 10, "trialdata": {"rt": -1, "trial_type": "single-stim", "stimulus": "<p id=\"stim\">10</p>", "internal_node_id": "0.0-10.0-0.0", "time_elapsed": 208453, "key_press": -1, "trial_index": 10}, "uniqueid": "MTK1469:39ASUFLU6YEB4K6HKHNQQY9K8LFEXP", "dateTime": 1515896955759}, {"current_trial": 11, "trialdata": {"rt": -1, "trial_type": "single-stim", "stimulus": "<p id=\"stim\">9</p>", "internal_node_id": "0.0-10.0-1.0", "time_elapsed": 209454, "key_press": -1, "trial_index": 11}, "uniqueid": "MTK1469:39ASUFLU6YEB4K6HKHNQQY9K8LFEXP", "dateTime": 1515896956760}, {"current_trial": 12, "trialdata": {"rt": -1, "trial_type": "single-stim", "stimulus": "<p id=\"stim\">8</p>", "internal_node_id": "0.0-10.0-2.0", "time_elapsed": 210455, "key_press": -1, "trial_index": 12}, "uniqueid": "MTK1469:39ASUFLU6YEB4K6HKHNQQY9K8LFEXP", "dateTime": 1515896957761}, {"current_trial": 13, "trialdata": {"rt": -1, "trial_type": "single-stim", "stimulus": "<p id=\"stim\">7</p>", "internal_node_id": "0.0-10.0-3.0", "time_elapsed": 211457, "key_press": -1, "trial_index": 13}, "uniqueid": "MTK1469:39ASUFLU6YEB4K6HKHNQQY9K8LFEXP", "dateTime": 1515896958763}, {"current_trial": 14, "trialdata": {"rt": -1, "trial_type": "single-stim", "stimulus": "<p id=\"stim\">6</p>", "internal_node_id": "0.0-10.0-4.0", "time_elapsed": 212458, "key_press": -1, "trial_index": 14}, "uniqueid": "MTK1469:39ASUFLU6YEB4K6HKHNQQY9K8LFEXP", "dateTime": 1515896959764}, {"current_trial": 15, "trialdata": {"rt": -1, "trial_type": "single-stim", "stimulus": "<p id=\"stim\">5</p>", "internal_node_id": "0.0-10.0-5.0", "time_elapsed": 213459, "key_press": -1, "trial_index": 15}, "uniqueid": "MTK1469:39ASUFLU6YEB4K6HKHNQQY9K8LFEXP", "dateTime": 1515896960765}, {"current_trial": 16, "trialdata": {"rt": -1, "trial_type": "single-stim", "stimulus": "<p id=\"stim\">4</p>", "internal_node_id": "0.0-10.0-6.0", "time_elapsed": 214462, "key_press": -1, "trial_index": 16}, "uniqueid": "MTK1469:39ASUFLU6YEB4K6HKHNQQY9K8LFEXP", "dateTime": 1515896961768}, {"current_trial": 17, "trialdata": {"rt": -1, "trial_type": "single-stim", "stimulus": "<p id=\"stim\">3</p>", "internal_node_id": "0.0-10.0-7.0", "time_elapsed": 215463, "key_press": -1, "trial_index": 17}, "uniqueid": "MTK1469:39ASUFLU6YEB4K6HKHNQQY9K8LFEXP", "dateTime": 1515896962769}, {"current_trial": 18, "trialdata": {"rt": -1, "trial_type": "single-stim", "stimulus": "<p id=\"stim\">2</p>", "internal_node_id": "0.0-10.0-8.0", "time_elapsed": 216464, "key_press": -1, "trial_index": 18}, "uniqueid": "MTK1469:39ASUFLU6YEB4K6HKHNQQY9K8LFEXP", "dateTime": 1515896963770}, {"current_trial": 19, "trialdata": {"rt": -1, "trial_type": "single-stim", "stimulus": "<p id=\"stim\">1</p>", "internal_node_id": "0.0-10.0-9.0", "time_elapsed": 217465, "key_press": -1, "trial_index": 19}, "uniqueid": "MTK1469:39ASUFLU6YEB4K6HKHNQQY9K8LFEXP", "dateTime": 1515896964771}, {"current_trial": 20, "trialdata": {"rt": -1, "trial_type": "single-stim", "stimulus": "<p id=\"stim\">+</p>", "internal_node_id": "0.0-11.0-0.0", "time_elapsed": 218966, "key_press": -1, "type": "FIXATION", "trial_index": 20}, "uniqueid": "MTK1469:39ASUFLU6YEB4K6HKHNQQY9K8LFEXP", "dateTime": 1515896966272}, {"current_trial": 21, "trialdata": {"rt": -1, "trial_type": "single-stim", "word": "student", "stimulus": "<p id=\"stim\">STUDENT</p>", "conditions": [18, 1200, "v", 18000], "internal_node_id": "0.0-12.0", "trial": 0, "time_elapsed": 220167, "serialpos": 0, "key_press": -1, "wordID": 1394, "type": "PRES_VIS", "trial_index": 21}, "uniqueid": "MTK1469:39ASUFLU6YEB4K6HKHNQQY9K8LFEXP", "dateTime": 1515896967473}, {"current_trial": 22, "trialdata": {"rt": -1, "trial_type": "single-stim", "word": "stone", "stimulus": "<p id=\"stim\">STONE</p>", "conditions": [18, 1200, "v", 18000], "internal_node_id": "0.0-13.0", "trial": 0, "time_elapsed": 222385, "serialpos": 1, "key_press": -1, "wordID": 1384, "type": "PRES_VIS", "trial_index": 22}, "uniqueid": "MTK1469:39ASUFLU6YEB4K6HKHNQQY9K8LFEXP", "dateTime": 1515896969691}, {"current_trial": 23, "trialdata": {"rt": -1, "trial_type": "single-stim", "word": "atom", "stimulus": "<p id=\"stim\">ATOM</p>", "conditions": [18, 1200, "v", 18000], "internal_node_id": "0.0-14.0", "trial": 0, "time_elapsed": 224676, "serialpos": 2, "key_press": -1, "wordID": 54, "type": "PRES_VIS", "trial_index": 23}, "uniqueid": "MTK1469:39ASUFLU6YEB4K6HKHNQQY9K8LFEXP", "dateTime": 1515896971982}, {"current_trial": 24, "trialdata": {"rt": -1, "trial_type": "single-stim", "word": "sidewalk", "stimulus": "<p id=\"stim\">SIDEWALK</p>", "conditions": [18, 1200, "v", 18000], "internal_node_id": "0.0-15.0", "trial": 0, "time_elapsed": 226978, "serialpos": 3, "key_press": -1, "wordID": 1302, "type": "PRES_VIS", "trial_index": 24}, "uniqueid": "MTK1469:39ASUFLU6YEB4K6HKHNQQY9K8LFEXP", "dateTime": 1515896974284}, {"current_trial": 25, "trialdata": {"rt": -1, "trial_type": "single-stim", "word": "chauffeur", "stimulus": "<p id=\"stim\">CHAUFFEUR</p>", "conditions": [18, 1200, "v", 18000], "internal_node_id": "0.0-16.0", "trial": 0, "time_elapsed": 229350, "serialpos": 4, "key_press": -1, "wordID": 282, "type": "PRES_VIS", "trial_index": 25}, "uniqueid": "MTK1469:39ASUFLU6YEB4K6HKHNQQY9K8LFEXP", "dateTime": 1515896976656}, {"current_trial": 26, "trialdata": {"rt": -1, "trial_type": "single-stim", "word": "daisy", "stimulus": "<p id=\"stim\">DAISY</p>", "conditions": [18, 1200, "v", 18000], "internal_node_id": "0.0-17.0", "trial": 0, "time_elapsed": 231602, "serialpos": 5, "key_press": -1, "wordID": 434, "type": "PRES_VIS", "trial_index": 26}, "uniqueid": "MTK1469:39ASUFLU6YEB4K6HKHNQQY9K8LFEXP", "dateTime": 1515896978908}, {"current_trial": 27, "trialdata": {"rt": -1, "trial_type": "single-stim", "word": "mammal", "stimulus": "<p id=\"stim\">MAMMAL</p>", "conditions": [18, 1200, "v", 18000], "internal_node_id": "0.0-18.0", "trial": 0, "time_elapsed": 233870, "serialpos": 6, "key_press": -1, "wordID": 860, "type": "PRES_VIS", "trial_index": 27}, "uniqueid": "MTK1469:39ASUFLU6YEB4K6HKHNQQY9K8LFEXP", "dateTime": 1515896981177}, {"current_trial": 28, "trialdata": {"rt": -1, "trial_type": "single-stim", "word": "dime", "stimulus": "<p id=\"stim\">DIME</p>", "conditions": [18, 1200, "v", 18000], "internal_node_id": "0.0-19.0", "trial": 0, "time_elapsed": 235912, "serialpos": 7, "key_press": -1, "wordID": 465, "type": "PRES_VIS", "trial_index": 28}, "uniqueid": "MTK1469:39ASUFLU6YEB4K6HKHNQQY9K8LFEXP", "dateTime": 1515896983218}, {"current_trial": 29, "trialdata": {"rt": -1, "trial_type": "single-stim", "word": "lagoon", "stimulus": "<p id=\"stim\">LAGOON</p>", "conditions": [18, 1200, "v", 18000], "internal_node_id": "0.0-20.0", "trial": 0, "time_elapsed": 238290, "serialpos": 8, "key_press": -1, "wordID": 794, "type": "PRES_VIS", "trial_index": 29}, "uniqueid": "MTK1469:39ASUFLU6YEB4K6HKHNQQY9K8LFEXP", "dateTime": 1515896985596}, {"current_trial": 30, "trialdata": {"rt": -1, "trial_type": "single-stim", "word": "lion", "stimulus": "<p id=\"stim\">LION</p>", "conditions": [18, 1200, "v", 18000], "internal_node_id": "0.0-21.0", "trial": 0, "time_elapsed": 240554, "serialpos": 9, "key_press": -1, "wordID": 826, "type": "PRES_VIS", "trial_index": 30}, "uniqueid": "MTK1469:39ASUFLU6YEB4K6HKHNQQY9K8LFEXP", "dateTime": 1515896987860}, {"current_trial": 31, "trialdata": {"rt": -1, "trial_type": "single-stim", "word": "daughter", "stimulus": "<p id=\"stim\">DAUGHTER</p>", "conditions": [18, 1200, "v", 18000], "internal_node_id": "0.0-22.0", "trial": 0, "time_elapsed": 242872, "serialpos": 10, "key_press": -1, "wordID": 441, "type": "PRES_VIS", "trial_index": 31}, "uniqueid": "MTK1469:39ASUFLU6YEB4K6HKHNQQY9K8LFEXP", "dateTime": 1515896990178}, {"current_trial": 32, "trialdata": {"rt": -1, "trial_type": "single-stim", "word": "braces", "stimulus": "<p id=\"stim\">BRACES</p>", "conditions": [18, 1200, "v", 18000], "internal_node_id": "0.0-23.0", "trial": 0, "time_elapsed": 244981, "serialpos": 11, "key_press": -1, "wordID": 163, "type": "PRES_VIS", "trial_index": 32}, "uniqueid": "MTK1469:39ASUFLU6YEB4K6HKHNQQY9K8LFEXP", "dateTime": 1515896992287}, {"current_trial": 33, "trialdata": {"rt": -1, "trial_type": "single-stim", "word": "balloon", "stimulus": "<p id=\"stim\">BALLOON</p>", "conditions": [18, 1200, "v", 18000], "internal_node_id": "0.0-24.0", "trial": 0, "time_elapsed": 247319, "serialpos": 12, "key_press": -1, "wordID": 74, "type": "PRES_VIS", "trial_index": 33}, "uniqueid": "MTK1469:39ASUFLU6YEB4K6HKHNQQY9K8LFEXP", "dateTime": 1515896994625}, {"current_trial": 34, "trialdata": {"rt": -1, "trial_type": "single-stim", "word": "thief", "stimulus": "<p id=\"stim\">THIEF</p>", "conditions": [18, 1200, "v", 18000], "internal_node_id": "0.0-25.0", "trial": 0, "time_elapsed": 249442, "serialpos": 13, "key_press": -1, "wordID": 1455, "type": "PRES_VIS", "trial_index": 34}, "uniqueid": "MTK1469:39ASUFLU6YEB4K6HKHNQQY9K8LFEXP", "dateTime": 1515896996748}, {"current_trial": 35, "trialdata": {"rt": -1, "trial_type": "single-stim", "word": "breast", "stimulus": "<p id=\"stim\">BREAST</p>", "conditions": [18, 1200, "v", 18000], "internal_node_id": "0.0-26.0", "trial": 0, "time_elapsed": 251769, "serialpos": 14, "key_press": -1, "wordID": 170, "type": "PRES_VIS", "trial_index": 35}, "uniqueid": "MTK1469:39ASUFLU6YEB4K6HKHNQQY9K8LFEXP", "dateTime": 1515896999076}, {"current_trial": 36, "trialdata": {"rt": -1, "trial_type": "single-stim", "word": "fireman", "stimulus": "<p id=\"stim\">FIREMAN</p>", "conditions": [18, 1200, "v", 18000], "internal_node_id": "0.0-27.0", "trial": 0, "time_elapsed": 253992, "serialpos": 15, "key_press": -1, "wordID": 568, "type": "PRES_VIS", "trial_index": 36}, "uniqueid": "MTK1469:39ASUFLU6YEB4K6HKHNQQY9K8LFEXP", "dateTime": 1515897001298}, {"current_trial": 37, "trialdata": {"rt": -1, "trial_type": "single-stim", "word": "turnip", "stimulus": "<p id=\"stim\">TURNIP</p>", "conditions": [18, 1200, "v", 18000], "internal_node_id": "0.0-28.0", "trial": 0, "time_elapsed": 256147, "serialpos": 16, "key_press": -1, "wordID": 1520, "type": "PRES_VIS", "trial_index": 37}, "uniqueid": "MTK1469:39ASUFLU6YEB4K6HKHNQQY9K8LFEXP", "dateTime": 1515897003453}, {"current_trial": 38, "trialdata": {"rt": -1, "trial_type": "single-stim", "word": "grave", "stimulus": "<p id=\"stim\">GRAVE</p>", "conditions": [18, 1200, "v", 18000], "internal_node_id": "0.0-29.0", "trial": 0, "time_elapsed": 258333, "serialpos": 17, "key_press": -1, "wordID": 657, "type": "PRES_VIS", "trial_index": 38}, "uniqueid": "MTK1469:39ASUFLU6YEB4K6HKHNQQY9K8LFEXP", "dateTime": 1515897005639}, {"current_trial": 39, "trialdata": {"rt": -1, "trial_type": "single-stim", "stimulus": "", "internal_node_id": "0.0-30.0-0.0", "time_elapsed": 260499, "key_press": -1, "type": "PRE_RECALL_DELAY", "trial_index": 39}, "uniqueid": "MTK1469:39ASUFLU6YEB4K6HKHNQQY9K8LFEXP", "dateTime": 1515897007805}, {"current_trial": 40, "trialdata": {"rt": -1000, "trial_type": "single-audio", "stimulus": "/static/audio/400Hz.wav", "internal_node_id": "0.0-31.0", "time_elapsed": 261001, "key_press": -1, "type": "PRE_RECALL_ALERT", "trial_index": 40}, "uniqueid": "MTK1469:39ASUFLU6YEB4K6HKHNQQY9K8LFEXP", "dateTime": 1515897008307}, {"current_trial": 41, "trialdata": {"rt": [2336, 4923, 6964, 9157, 11292, 13036, 16586, 26013, 26279, 46205, 50303], "recwords": ["student", "lagoon", "chauffer", "sidewalk", "fireman", "turnip", "chief", "", "", "saloon", "lake"], "key_times": [1641, 1772, 1921, 1981, 2040, 2152, 2229, 2336, 4137, 4232, 4424, 4547, 4660, 4729, 4923, 5491, 5578, 5662, 5759, 5898, 6407, 6609, 6812, 6964, 8089, 8186, 8281, 8313, 8513, 8671, 8769, 8935, 9157, 10562, 10685, 10736, 10803, 10933, 11027, 11132, 11292, 11681, 11785, 11889, 12029, 12169, 12390, 12390, 12797, 13036, 13847, 14041, 14102, 14486, 14626, 14783, 14941, 15090, 16117, 16213, 16283, 16351, 16454, 16586, 26013, 26279, 45277, 45400, 45568, 45780, 45884, 45957, 46205, 49931, 50014, 50111, 50205, 50303], "trial_type": "free-recall", "conditions": [18, 1200, "v", 18000], "internal_node_id": "0.0-32.0-0.0", "key_presses": [83, 84, 85, 68, 69, 78, 84, 13, 76, 65, 71, 79, 79, 78, 13, 67, 72, 65, 85, 70, 70, 69, 82, 13, 83, 73, 68, 69, 87, 65, 76, 75, 13, 70, 73, 82, 69, 77, 65, 78, 13, 84, 85, 82, 78, 73, 80, 79, 8, 13, 83, 69, 82, 8, 8, 8, 8, 8, 67, 72, 73, 69, 70, 13, 13, 13, 83, 65, 76, 79, 79, 78, 13, 76, 65, 75, 69, 13], "trial": 0, "time_elapsed": 321005, "type": "FREE_RECALL", "trial_index": 41}, "uniqueid": "MTK1469:39ASUFLU6YEB4K6HKHNQQY9K8LFEXP", "dateTime": 1515897068312}, {"current_trial": 42, "trialdata": {"rt": 2509, "trial_type": "text", "internal_node_id": "0.0-33.0", "time_elapsed": 325516, "key_press": 13, "type": "INSTRUCTIONS", "trial_index": 42}, "uniqueid": "MTK1469:39ASUFLU6YEB4K6HKHNQQY9K8LFEXP", "dateTime": 1515897072822}, {"current_trial": 43, "trialdata": {"rt": [2643, 5374, 7289, 8788, 10691, 12297, 13715, 15136, 17372], "trial_type": "math-distractor", "key_times": [2323, 2392, 2643, 3974, 4222, 4743, 5059, 5374, 6930, 7037, 7289, 8396, 8475, 8788, 10380, 10467, 10691, 12031, 12083, 12297, 13340, 13472, 13715, 14883, 15136, 17025, 17085, 17372], "responses": ["15", "16", "20", "13", "18", "21", "14", "9", "20"], "num2": [5, 5, 6, 2, 9, 6, 8, 1, 8, 6], "num3": [8, 8, 7, 3, 3, 8, 4, 6, 3, 2], "conditions": [18, 1200, "v", 18000], "internal_node_id": "0.0-34.0", "key_presses": [97, 101, 13, 97, 99, 8, 102, 13, 98, 96, 13, 97, 99, 13, 97, 104, 13, 98, 97, 13, 97, 100, 13, 105, 13, 98, 96, 13], "trial": 1, "time_elapsed": 345519, "type": "DISTRACTOR", "trial_index": 43, "num1": [2, 3, 7, 8, 6, 7, 2, 2, 9, 9]}, "uniqueid": "MTK1469:39ASUFLU6YEB4K6HKHNQQY9K8LFEXP", "dateTime": 1515897092826}, {"current_trial": 44, "trialdata": {"rt": -1, "trial_type": "single-stim", "stimulus": "<p id=\"stim\">10</p>", "internal_node_id": "0.0-35.0-0.0", "time_elapsed": 348522, "key_press": -1, "trial_index": 44}, "uniqueid": "MTK1469:39ASUFLU6YEB4K6HKHNQQY9K8LFEXP", "dateTime": 1515897095828}, {"current_trial": 45, "trialdata": {"rt": -1, "trial_type": "single-stim", "stimulus": "<p id=\"stim\">9</p>", "internal_node_id": "0.0-35.0-1.0", "time_elapsed": 349523, "key_press": -1, "trial_index": 45}, "uniqueid": "MTK1469:39ASUFLU6YEB4K6HKHNQQY9K8LFEXP", "dateTime": 1515897096829}, {"current_trial": 46, "trialdata": {"rt": -1, "trial_type": "single-stim", "stimulus": "<p id=\"stim\">8</p>", "internal_node_id": "0.0-35.0-2.0", "time_elapsed": 350523, "key_press": -1, "trial_index": 46}, "uniqueid": "MTK1469:39ASUFLU6YEB4K6HKHNQQY9K8LFEXP", "dateTime": 1515897097829}, {"current_trial": 47, "trialdata": {"rt": -1, "trial_type": "single-stim", "stimulus": "<p id=\"stim\">7</p>", "internal_node_id": "0.0-35.0-3.0", "time_elapsed": 351524, "key_press": -1, "trial_index": 47}, "uniqueid": "MTK1469:39ASUFLU6YEB4K6HKHNQQY9K8LFEXP", "dateTime": 1515897098830}, {"current_trial": 48, "trialdata": {"rt": -1, "trial_type": "single-stim", "stimulus": "<p id=\"stim\">6</p>", "internal_node_id": "0.0-35.0-4.0", "time_elapsed": 352525, "key_press": -1, "trial_index": 48}, "uniqueid": "MTK1469:39ASUFLU6YEB4K6HKHNQQY9K8LFEXP", "dateTime": 1515897099831}, {"current_trial": 49, "trialdata": {"rt": -1, "trial_type": "single-stim", "stimulus": "<p id=\"stim\">5</p>", "internal_node_id": "0.0-35.0-5.0", "time_elapsed": 353525, "key_press": -1, "trial_index": 49}, "uniqueid": "MTK1469:39ASUFLU6YEB4K6HKHNQQY9K8LFEXP", "dateTime": 1515897100832}, {"current_trial": 50, "trialdata": {"rt": -1, "trial_type": "single-stim", "stimulus": "<p id=\"stim\">4</p>", "internal_node_id": "0.0-35.0-6.0", "time_elapsed": 354526, "key_press": -1, "trial_index": 50}, "uniqueid": "MTK1469:39ASUFLU6YEB4K6HKHNQQY9K8LFEXP", "dateTime": 1515897101832}, {"current_trial": 51, "trialdata": {"rt": -1, "trial_type": "single-stim", "stimulus": "<p id=\"stim\">3</p>", "internal_node_id": "0.0-35.0-7.0", "time_elapsed": 355528, "key_press": -1, "trial_index": 51}, "uniqueid": "MTK1469:39ASUFLU6YEB4K6HKHNQQY9K8LFEXP", "dateTime": 1515897102834}, {"current_trial": 52, "trialdata": {"rt": -1, "trial_type": "single-stim", "stimulus": "<p id=\"stim\">2</p>", "internal_node_id": "0.0-35.0-8.0", "time_elapsed": 356529, "key_press": -1, "trial_index": 52}, "uniqueid": "MTK1469:39ASUFLU6YEB4K6HKHNQQY9K8LFEXP", "dateTime": 1515897103835}, {"current_trial": 53, "trialdata": {"rt": -1, "trial_type": "single-stim", "stimulus": "<p id=\"stim\">1</p>", "internal_node_id": "0.0-35.0-9.0", "time_elapsed": 357529, "key_press": -1, "trial_index": 53}, "uniqueid": "MTK1469:39ASUFLU6YEB4K6HKHNQQY9K8LFEXP", "dateTime": 1515897104835}, {"current_trial": 54, "trialdata": {"rt": -1, "trial_type": "single-stim", "stimulus": "<p id=\"stim\">+</p>", "internal_node_id": "0.0-36.0-0.0", "time_elapsed": 359030, "key_press": -1, "type": "FIXATION", "trial_index": 54}, "uniqueid": "MTK1469:39ASUFLU6YEB4K6HKHNQQY9K8LFEXP", "dateTime": 1515897106337}, {"current_trial": 55, "trialdata": {"rt": -1, "trial_type": "single-stim", "word": "carriage", "stimulus": "<p id=\"stim\">CARRIAGE</p>", "conditions": [18, 1200, "v", 18000], "internal_node_id": "0.0-37.0", "trial": 1, "time_elapsed": 360231, "serialpos": 0, "key_press": -1, "wordID": 247, "type": "PRES_VIS", "trial_index": 55}, "uniqueid": "MTK1469:39ASUFLU6YEB4K6HKHNQQY9K8LFEXP", "dateTime": 1515897107537}, {"current_trial": 56, "trialdata": {"rt": -1, "trial_type": "single-stim", "word": "picnic", "stimulus": "<p id=\"stim\">PICNIC</p>", "conditions": [18, 1200, "v", 18000], "internal_node_id": "0.0-38.0", "trial": 1, "time_elapsed": 362489, "serialpos": 1, "key_press": -1, "wordID": 1059, "type": "PRES_VIS", "trial_index": 56}, "uniqueid": "MTK1469:39ASUFLU6YEB4K6HKHNQQY9K8LFEXP", "dateTime": 1515897109795}, {"current_trial": 57, "trialdata": {"rt": -1, "trial_type": "single-stim", "word": "japan", "stimulus": "<p id=\"stim\">JAPAN</p>", "conditions": [18, 1200, "v", 18000], "internal_node_id": "0.0-39.0", "trial": 1, "time_elapsed": 364784, "serialpos": 2, "key_press": -1, "wordID": 748, "type": "PRES_VIS", "trial_index": 57}, "uniqueid": "MTK1469:39ASUFLU6YEB4K6HKHNQQY9K8LFEXP", "dateTime": 1515897112090}, {"current_trial": 58, "trialdata": {"rt": -1, "trial_type": "single-stim", "word": "catcher", "stimulus": "<p id=\"stim\">CATCHER</p>", "conditions": [18, 1200, "v", 18000], "internal_node_id": "0.0-40.0", "trial": 1, "time_elapsed": 366950, "serialpos": 3, "key_press": -1, "wordID": 257, "type": "PRES_VIS", "trial_index": 58}, "uniqueid": "MTK1469:39ASUFLU6YEB4K6HKHNQQY9K8LFEXP", "dateTime": 1515897114256}, {"current_trial": 59, "trialdata": {"rt": -1, "trial_type": "single-stim", "word": "robber", "stimulus": "<p id=\"stim\">ROBBER</p>", "conditions": [18, 1200, "v", 18000], "internal_node_id": "0.0-41.0", "trial": 1, "time_elapsed": 369082, "serialpos": 4, "key_press": -1, "wordID": 1196, "type": "PRES_VIS", "trial_index": 59}, "uniqueid": "MTK1469:39ASUFLU6YEB4K6HKHNQQY9K8LFEXP", "dateTime": 1515897116388}, {"current_trial": 60, "trialdata": {"rt": -1, "trial_type": "single-stim", "word": "mask", "stimulus": "<p id=\"stim\">MASK</p>", "conditions": [18, 1200, "v", 18000], "internal_node_id": "0.0-42.0", "trial": 1, "time_elapsed": 371274, "serialpos": 5, "key_press": -1, "wordID": 875, "type": "PRES_VIS", "trial_index": 60}, "uniqueid": "MTK1469:39ASUFLU6YEB4K6HKHNQQY9K8LFEXP", "dateTime": 1515897118580}, {"current_trial": 61, "trialdata": {"rt": -1, "trial_type": "single-stim", "word": "brick", "stimulus": "<p id=\"stim\">BRICK</p>", "conditions": [18, 1200, "v", 18000], "internal_node_id": "0.0-43.0", "trial": 1, "time_elapsed": 373526, "serialpos": 6, "key_press": -1, "wordID": 171, "type": "PRES_VIS", "trial_index": 61}, "uniqueid": "MTK1469:39ASUFLU6YEB4K6HKHNQQY9K8LFEXP", "dateTime": 1515897120832}, {"current_trial": 62, "trialdata": {"rt": -1, "trial_type": "single-stim", "word": "river", "stimulus": "<p id=\"stim\">RIVER</p>", "conditions": [18, 1200, "v", 18000], "internal_node_id": "0.0-44.0", "trial": 1, "time_elapsed": 375551, "serialpos": 7, "key_press": -1, "wordID": 1193, "type": "PRES_VIS", "trial_index": 62}, "uniqueid": "MTK1469:39ASUFLU6YEB4K6HKHNQQY9K8LFEXP", "dateTime": 1515897122857}, {"current_trial": 63, "trialdata": {"rt": -1, "trial_type": "single-stim", "word": "wrist", "stimulus": "<p id=\"stim\">WRIST</p>", "conditions": [18, 1200, "v", 18000], "internal_node_id": "0.0-45.0", "trial": 1, "time_elapsed": 377566, "serialpos": 8, "key_press": -1, "wordID": 1625, "type": "PRES_VIS", "trial_index": 63}, "uniqueid": "MTK1469:39ASUFLU6YEB4K6HKHNQQY9K8LFEXP", "dateTime": 1515897124872}, {"current_trial": 64, "trialdata": {"rt": -1, "trial_type": "single-stim", "word": "hero", "stimulus": "<p id=\"stim\">HERO</p>", "conditions": [18, 1200, "v", 18000], "internal_node_id": "0.0-46.0", "trial": 1, "time_elapsed": 379821, "serialpos": 9, "key_press": -1, "wordID": 705, "type": "PRES_VIS", "trial_index": 64}, "uniqueid": "MTK1469:39ASUFLU6YEB4K6HKHNQQY9K8LFEXP", "dateTime": 1515897127127}, {"current_trial": 65, "trialdata": {"rt": -1, "trial_type": "single-stim", "word": "kitchen", "stimulus": "<p id=\"stim\">KITCHEN</p>", "conditions": [18, 1200, "v", 18000], "internal_node_id": "0.0-47.0", "trial": 1, "time_elapsed": 382160, "serialpos": 10, "key_press": -1, "wordID": 777, "type": "PRES_VIS", "trial_index": 65}, "uniqueid": "MTK1469:39ASUFLU6YEB4K6HKHNQQY9K8LFEXP", "dateTime": 1515897129466}, {"current_trial": 66, "trialdata": {"rt": -1, "trial_type": "single-stim", "word": "flask", "stimulus": "<p id=\"stim\">FLASK</p>", "conditions": [18, 1200, "v", 18000], "internal_node_id": "0.0-48.0", "trial": 1, "time_elapsed": 384365, "serialpos": 11, "key_press": -1, "wordID": 575, "type": "PRES_VIS", "trial_index": 66}, "uniqueid": "MTK1469:39ASUFLU6YEB4K6HKHNQQY9K8LFEXP", "dateTime": 1515897131671}, {"current_trial": 67, "trialdata": {"rt": -1, "trial_type": "single-stim", "word": "juggler", "stimulus": "<p id=\"stim\">JUGGLER</p>", "conditions": [18, 1200, "v", 18000], "internal_node_id": "0.0-49.0", "trial": 1, "time_elapsed": 386516, "serialpos": 12, "key_press": -1, "wordID": 762, "type": "PRES_VIS", "trial_index": 67}, "uniqueid": "MTK1469:39ASUFLU6YEB4K6HKHNQQY9K8LFEXP", "dateTime": 1515897133822}, {"current_trial": 68, "trialdata": {"rt": -1, "trial_type": "single-stim", "word": "record", "stimulus": "<p id=\"stim\">RECORD</p>", "conditions": [18, 1200, "v", 18000], "internal_node_id": "0.0-50.0", "trial": 1, "time_elapsed": 388531, "serialpos": 13, "key_press": -1, "wordID": 1175, "type": "PRES_VIS", "trial_index": 68}, "uniqueid": "MTK1469:39ASUFLU6YEB4K6HKHNQQY9K8LFEXP", "dateTime": 1515897135839}, {"current_trial": 69, "trialdata": {"rt": -1, "trial_type": "single-stim", "word": "banjo", "stimulus": "<p id=\"stim\">BANJO</p>", "conditions": [18, 1200, "v", 18000], "internal_node_id": "0.0-51.0", "trial": 1, "time_elapsed": 390655, "serialpos": 14, "key_press": -1, "wordID": 81, "type": "PRES_VIS", "trial_index": 69}, "uniqueid": "MTK1469:39ASUFLU6YEB4K6HKHNQQY9K8LFEXP", "dateTime": 1515897137961}, {"current_trial": 70, "trialdata": {"rt": -1, "trial_type": "single-stim", "word": "kleenex", "stimulus": "<p id=\"stim\">KLEENEX</p>", "conditions": [18, 1200, "v", 18000], "internal_node_id": "0.0-52.0", "trial": 1, "time_elapsed": 392711, "serialpos": 15, "key_press": -1, "wordID": 781, "type": "PRES_VIS", "trial_index": 70}, "uniqueid": "MTK1469:39ASUFLU6YEB4K6HKHNQQY9K8LFEXP", "dateTime": 1515897140017}, {"current_trial": 71, "trialdata": {"rt": -1, "trial_type": "single-stim", "word": "tribe", "stimulus": "<p id=\"stim\">TRIBE</p>", "conditions": [18, 1200, "v", 18000], "internal_node_id": "0.0-53.0", "trial": 1, "time_elapsed": 394828, "serialpos": 16, "key_press": -1, "wordID": 1504, "type": "PRES_VIS", "trial_index": 71}, "uniqueid": "MTK1469:39ASUFLU6YEB4K6HKHNQQY9K8LFEXP", "dateTime": 1515897142134}, {"current_trial": 72, "trialdata": {"rt": -1, "trial_type": "single-stim", "word": "county", "stimulus": "<p id=\"stim\">COUNTY</p>", "conditions": [18, 1200, "v", 18000], "internal_node_id": "0.0-54.0", "trial": 1, "time_elapsed": 397157, "serialpos": 17, "key_press": -1, "wordID": 388, "type": "PRES_VIS", "trial_index": 72}, "uniqueid": "MTK1469:39ASUFLU6YEB4K6HKHNQQY9K8LFEXP", "dateTime": 1515897144463}, {"current_trial": 73, "trialdata": {"rt": -1, "trial_type": "single-stim", "stimulus": "", "internal_node_id": "0.0-55.0-0.0", "time_elapsed": 399580, "key_press": -1, "type": "PRE_RECALL_DELAY", "trial_index": 73}, "uniqueid": "MTK1469:39ASUFLU6YEB4K6HKHNQQY9K8LFEXP", "dateTime": 1515897146886}, {"current_trial": 74, "trialdata": {"rt": -1000, "trial_type": "single-audio", "stimulus": "/static/audio/400Hz.wav", "internal_node_id": "0.0-56.0", "time_elapsed": 400082, "key_press": -1, "type": "PRE_RECALL_ALERT", "trial_index": 74}, "uniqueid": "MTK1469:39ASUFLU6YEB4K6HKHNQQY9K8LFEXP", "dateTime": 1515897147388}, {"current_trial": 75, "trialdata": {"rt": [3345, 4459, 5446, 7004, 11225, 12312], "recwords": ["carriage", "robber", "mask", "brick", "kleenex", "county"], "key_times": [2269, 2398, 2585, 2733, 2875, 2976, 3098, 3238, 3345, 3545, 3696, 3951, 4073, 4204, 4265, 4459, 4768, 4915, 4976, 5179, 5446, 5916, 6119, 6331, 6524, 6710, 7004, 10136, 10357, 10540, 10671, 10794, 10889, 11072, 11225, 11424, 11557, 11768, 11820, 11931, 12071, 12312, 13259, 13361, 13485, 13605, 14395, 14562, 14720, 14886, 15053, 15211, 15351], "trial_type": "free-recall", "conditions": [18, 1200, "v", 18000], "internal_node_id": "0.0-57.0-0.0", "key_presses": [67, 65, 82, 82, 73, 65, 71, 69, 13, 82, 79, 66, 66, 69, 82, 13, 77, 65, 83, 75, 13, 66, 82, 73, 67, 75, 13, 75, 76, 69, 69, 78, 69, 88, 13, 67, 79, 85, 78, 84, 89, 13, 76, 65, 75, 69, 8, 8, 8, 8, 8, 8, 8], "trial": 1, "time_elapsed": 460084, "type": "FREE_RECALL", "trial_index": 75}, "uniqueid": "MTK1469:39ASUFLU6YEB4K6HKHNQQY9K8LFEXP", "dateTime": 1515897207391}, {"current_trial": 76, "trialdata": {"rt": 1406, "trial_type": "text", "internal_node_id": "0.0-58.0", "time_elapsed": 463492, "key_press": 13, "type": "INSTRUCTIONS", "trial_index": 76}, "uniqueid": "MTK1469:39ASUFLU6YEB4K6HKHNQQY9K8LFEXP", "dateTime": 1515897210798}, {"current_trial": 77, "trialdata": {"rt": [1875, 3859, 5654, 7296, 9271, 11659, 13822, 15752, 17789, 19665, 22135], "trial_type": "math-distractor", "key_times": [1568, 1875, 3539, 3582, 3859, 5279, 5350, 5654, 6886, 6947, 7296, 8878, 9037, 9271, 11312, 11452, 11659, 13358, 13428, 13822, 15360, 15456, 15752, 17371, 17413, 17789, 19301, 19361, 19665, 21689, 21713, 22135], "responses": ["8", "15", "16", "13", "24", "10", "19", "17", "18", "19", "17"], "num2": [6, 8, 1, 2, 6, 3, 8, 7, 7, 7, 7, 5], "num3": [1, 2, 7, 9, 9, 5, 6, 4, 5, 8, 1, 8], "conditions": [24, 1600, "v", 24000], "internal_node_id": "0.0-59.0", "key_presses": [104, 13, 97, 101, 13, 97, 102, 13, 97, 99, 13, 98, 100, 13, 97, 96, 13, 97, 105, 13, 97, 103, 13, 97, 104, 13, 97, 105, 13, 97, 103, 13], "trial": 2, "time_elapsed": 488495, "type": "DISTRACTOR", "trial_index": 77, "num1": [1, 5, 8, 2, 9, 2, 5, 6, 6, 4, 9, 9]}, "uniqueid": "MTK1469:39ASUFLU6YEB4K6HKHNQQY9K8LFEXP", "dateTime": 1515897235801}, {"current_trial": 78, "trialdata": {"rt": -1, "trial_type": "single-stim", "stimulus": "<p id=\"stim\">10</p>", "internal_node_id": "0.0-60.0-0.0", "time_elapsed": 491498, "key_press": -1, "trial_index": 78}, "uniqueid": "MTK1469:39ASUFLU6YEB4K6HKHNQQY9K8LFEXP", "dateTime": 1515897238804}, {"current_trial": 79, "trialdata": {"rt": -1, "trial_type": "single-stim", "stimulus": "<p id=\"stim\">9</p>", "internal_node_id": "0.0-60.0-1.0", "time_elapsed": 492498, "key_press": -1, "trial_index": 79}, "uniqueid": "MTK1469:39ASUFLU6YEB4K6HKHNQQY9K8LFEXP", "dateTime": 1515897239804}, {"current_trial": 80, "trialdata": {"rt": -1, "trial_type": "single-stim", "stimulus": "<p id=\"stim\">8</p>", "internal_node_id": "0.0-60.0-2.0", "time_elapsed": 493499, "key_press": -1, "trial_index": 80}, "uniqueid": "MTK1469:39ASUFLU6YEB4K6HKHNQQY9K8LFEXP", "dateTime": 1515897240805}, {"current_trial": 81, "trialdata": {"rt": -1, "trial_type": "single-stim", "stimulus": "<p id=\"stim\">7</p>", "internal_node_id": "0.0-60.0-3.0", "time_elapsed": 494501, "key_press": -1, "trial_index": 81}, "uniqueid": "MTK1469:39ASUFLU6YEB4K6HKHNQQY9K8LFEXP", "dateTime": 1515897241807}, {"current_trial": 82, "trialdata": {"rt": -1, "trial_type": "single-stim", "stimulus": "<p id=\"stim\">6</p>", "internal_node_id": "0.0-60.0-4.0", "time_elapsed": 495501, "key_press": -1, "trial_index": 82}, "uniqueid": "MTK1469:39ASUFLU6YEB4K6HKHNQQY9K8LFEXP", "dateTime": 1515897242807}, {"current_trial": 83, "trialdata": {"rt": -1, "trial_type": "single-stim", "stimulus": "<p id=\"stim\">5</p>", "internal_node_id": "0.0-60.0-5.0", "time_elapsed": 496502, "key_press": -1, "trial_index": 83}, "uniqueid": "MTK1469:39ASUFLU6YEB4K6HKHNQQY9K8LFEXP", "dateTime": 1515897243808}, {"current_trial": 84, "trialdata": {"rt": -1, "trial_type": "single-stim", "stimulus": "<p id=\"stim\">4</p>", "internal_node_id": "0.0-60.0-6.0", "time_elapsed": 497503, "key_press": -1, "trial_index": 84}, "uniqueid": "MTK1469:39ASUFLU6YEB4K6HKHNQQY9K8LFEXP", "dateTime": 1515897244809}, {"current_trial": 85, "trialdata": {"rt": -1, "trial_type": "single-stim", "stimulus": "<p id=\"stim\">3</p>", "internal_node_id": "0.0-60.0-7.0", "time_elapsed": 498503, "key_press": -1, "trial_index": 85}, "uniqueid": "MTK1469:39ASUFLU6YEB4K6HKHNQQY9K8LFEXP", "dateTime": 1515897245810}, {"current_trial": 86, "trialdata": {"rt": -1, "trial_type": "single-stim", "stimulus": "<p id=\"stim\">2</p>", "internal_node_id": "0.0-60.0-8.0", "time_elapsed": 499504, "key_press": -1, "trial_index": 86}, "uniqueid": "MTK1469:39ASUFLU6YEB4K6HKHNQQY9K8LFEXP", "dateTime": 1515897246810}, {"current_trial": 87, "trialdata": {"rt": -1, "trial_type": "single-stim", "stimulus": "<p id=\"stim\">1</p>", "internal_node_id": "0.0-60.0-9.0", "time_elapsed": 500505, "key_press": -1, "trial_index": 87}, "uniqueid": "MTK1469:39ASUFLU6YEB4K6HKHNQQY9K8LFEXP", "dateTime": 1515897247811}, {"current_trial": 88, "trialdata": {"rt": -1, "trial_type": "single-stim", "stimulus": "<p id=\"stim\">+</p>", "internal_node_id": "0.0-61.0-0.0", "time_elapsed": 502006, "key_press": -1, "type": "FIXATION", "trial_index": 88}, "uniqueid": "MTK1469:39ASUFLU6YEB4K6HKHNQQY9K8LFEXP", "dateTime": 1515897249312}, {"current_trial": 89, "trialdata": {"rt": -1, "trial_type": "single-stim", "word": "flute", "stimulus": "<p id=\"stim\">FLUTE</p>", "conditions": [24, 1600, "v", 24000], "internal_node_id": "0.0-62.0", "trial": 2, "time_elapsed": 503608, "serialpos": 0, "key_press": -1, "wordID": 584, "type": "PRES_VIS", "trial_index": 89}, "uniqueid": "MTK1469:39ASUFLU6YEB4K6HKHNQQY9K8LFEXP", "dateTime": 1515897250914}, {"current_trial": 90, "trialdata": {"rt": -1, "trial_type": "single-stim", "word": "grape", "stimulus": "<p id=\"stim\">GRAPE</p>", "conditions": [24, 1600, "v", 24000], "internal_node_id": "0.0-63.0", "trial": 2, "time_elapsed": 506132, "serialpos": 1, "key_press": -1, "wordID": 653, "type": "PRES_VIS", "trial_index": 90}, "uniqueid": "MTK1469:39ASUFLU6YEB4K6HKHNQQY9K8LFEXP", "dateTime": 1515897253438}, {"current_trial": 91, "trialdata": {"rt": -1, "trial_type": "single-stim", "word": "barley", "stimulus": "<p id=\"stim\">BARLEY</p>", "conditions": [24, 1600, "v", 24000], "internal_node_id": "0.0-64.0", "trial": 2, "time_elapsed": 508920, "serialpos": 2, "key_press": -1, "wordID": 87, "type": "PRES_VIS", "trial_index": 91}, "uniqueid": "MTK1469:39ASUFLU6YEB4K6HKHNQQY9K8LFEXP", "dateTime": 1515897256226}, {"current_trial": 92, "trialdata": {"rt": -1, "trial_type": "single-stim", "word": "pebble", "stimulus": "<p id=\"stim\">PEBBLE</p>", "conditions": [24, 1600, "v", 24000], "internal_node_id": "0.0-65.0", "trial": 2, "time_elapsed": 511647, "serialpos": 3, "key_press": -1, "wordID": 1034, "type": "PRES_VIS", "trial_index": 92}, "uniqueid": "MTK1469:39ASUFLU6YEB4K6HKHNQQY9K8LFEXP", "dateTime": 1515897258953}, {"current_trial": 93, "trialdata": {"rt": -1, "trial_type": "single-stim", "word": "sheriff", "stimulus": "<p id=\"stim\">SHERIFF</p>", "conditions": [24, 1600, "v", 24000], "internal_node_id": "0.0-66.0", "trial": 2, "time_elapsed": 514426, "serialpos": 4, "key_press": -1, "wordID": 1283, "type": "PRES_VIS", "trial_index": 93}, "uniqueid": "MTK1469:39ASUFLU6YEB4K6HKHNQQY9K8LFEXP", "dateTime": 1515897261732}, {"current_trial": 94, "trialdata": {"rt": 187, "trial_type": "single-stim", "word": "burglar", "stimulus": "<p id=\"stim\">BURGLAR</p>", "conditions": [24, 1600, "v", 24000], "internal_node_id": "0.0-67.0", "trial": 2, "time_elapsed": 517131, "serialpos": 5, "key_press": 174, "wordID": 199, "type": "PRES_VIS", "trial_index": 94}, "uniqueid": "MTK1469:39ASUFLU6YEB4K6HKHNQQY9K8LFEXP", "dateTime": 1515897264438}, {"current_trial": 95, "trialdata": {"rt": -1, "trial_type": "single-stim", "word": "europe", "stimulus": "<p id=\"stim\">EUROPE</p>", "conditions": [24, 1600, "v", 24000], "internal_node_id": "0.0-68.0", "trial": 2, "time_elapsed": 519659, "serialpos": 6, "key_press": -1, "wordID": 540, "type": "PRES_VIS", "trial_index": 95}, "uniqueid": "MTK1469:39ASUFLU6YEB4K6HKHNQQY9K8LFEXP", "dateTime": 1515897266965}, {"current_trial": 96, "trialdata": {"rt": -1, "trial_type": "single-stim", "word": "parrot", "stimulus": "<p id=\"stim\">PARROT</p>", "conditions": [24, 1600, "v", 24000], "internal_node_id": "0.0-69.0", "trial": 2, "time_elapsed": 522274, "serialpos": 7, "key_press": -1, "wordID": 1014, "type": "PRES_VIS", "trial_index": 96}, "uniqueid": "MTK1469:39ASUFLU6YEB4K6HKHNQQY9K8LFEXP", "dateTime": 1515897269580}, {"current_trial": 97, "trialdata": {"rt": -1, "trial_type": "single-stim", "word": "sister", "stimulus": "<p id=\"stim\">SISTER</p>", "conditions": [24, 1600, "v", 24000], "internal_node_id": "0.0-70.0", "trial": 2, "time_elapsed": 524809, "serialpos": 8, "key_press": -1, "wordID": 1311, "type": "PRES_VIS", "trial_index": 97}, "uniqueid": "MTK1469:39ASUFLU6YEB4K6HKHNQQY9K8LFEXP", "dateTime": 1515897272115}, {"current_trial": 98, "trialdata": {"rt": -1, "trial_type": "single-stim", "word": "princess", "stimulus": "<p id=\"stim\">PRINCESS</p>", "conditions": [24, 1600, "v", 24000], "internal_node_id": "0.0-71.0", "trial": 2, "time_elapsed": 527584, "serialpos": 9, "key_press": -1, "wordID": 1124, "type": "PRES_VIS", "trial_index": 98}, "uniqueid": "MTK1469:39ASUFLU6YEB4K6HKHNQQY9K8LFEXP", "dateTime": 1515897274890}, {"current_trial": 99, "trialdata": {"rt": -1, "trial_type": "single-stim", "word": "egypt", "stimulus": "<p id=\"stim\">EGYPT</p>", "conditions": [24, 1600, "v", 24000], "internal_node_id": "0.0-72.0", "trial": 2, "time_elapsed": 530292, "serialpos": 10, "key_press": -1, "wordID": 518, "type": "PRES_VIS", "trial_index": 99}, "uniqueid": "MTK1469:39ASUFLU6YEB4K6HKHNQQY9K8LFEXP", "dateTime": 1515897277598}, {"current_trial": 100, "trialdata": {"rt": -1, "trial_type": "single-stim", "word": "spool", "stimulus": "<p id=\"stim\">SPOOL</p>", "conditions": [24, 1600, "v", 24000], "internal_node_id": "0.0-73.0", "trial": 2, "time_elapsed": 532897, "serialpos": 11, "key_press": -1, "wordID": 1355, "type": "PRES_VIS", "trial_index": 100}, "uniqueid": "MTK1469:39ASUFLU6YEB4K6HKHNQQY9K8LFEXP", "dateTime": 1515897280204}, {"current_trial": 101, "trialdata": {"rt": -1, "trial_type": "single-stim", "word": "turkey", "stimulus": "<p id=\"stim\">TURKEY</p>", "conditions": [24, 1600, "v", 24000], "internal_node_id": "0.0-74.0", "trial": 2, "time_elapsed": 535461, "serialpos": 12, "key_press": -1, "wordID": 1519, "type": "PRES_VIS", "trial_index": 101}, "uniqueid": "MTK1469:39ASUFLU6YEB4K6HKHNQQY9K8LFEXP", "dateTime": 1515897282767}, {"current_trial": 102, "trialdata": {"rt": -1, "trial_type": "single-stim", "word": "mailbox", "stimulus": "<p id=\"stim\">MAILBOX</p>", "conditions": [24, 1600, "v", 24000], "internal_node_id": "0.0-75.0", "trial": 2, "time_elapsed": 538122, "serialpos": 13, "key_press": -1, "wordID": 856, "type": "PRES_VIS", "trial_index": 102}, "uniqueid": "MTK1469:39ASUFLU6YEB4K6HKHNQQY9K8LFEXP", "dateTime": 1515897285428}, {"current_trial": 103, "trialdata": {"rt": -1, "trial_type": "single-stim", "word": "puddle", "stimulus": "<p id=\"stim\">PUDDLE</p>", "conditions": [24, 1600, "v", 24000], "internal_node_id": "0.0-76.0", "trial": 2, "time_elapsed": 540695, "serialpos": 14, "key_press": -1, "wordID": 1139, "type": "PRES_VIS", "trial_index": 103}, "uniqueid": "MTK1469:39ASUFLU6YEB4K6HKHNQQY9K8LFEXP", "dateTime": 1515897288001}, {"current_trial": 104, "trialdata": {"rt": -1, "trial_type": "single-stim", "word": "quail", "stimulus": "<p id=\"stim\">QUAIL</p>", "conditions": [24, 1600, "v", 24000], "internal_node_id": "0.0-77.0", "trial": 2, "time_elapsed": 543223, "serialpos": 15, "key_press": -1, "wordID": 1146, "type": "PRES_VIS", "trial_index": 104}, "uniqueid": "MTK1469:39ASUFLU6YEB4K6HKHNQQY9K8LFEXP", "dateTime": 1515897290529}, {"current_trial": 105, "trialdata": {"rt": -1, "trial_type": "single-stim", "word": "cabbage", "stimulus": "<p id=\"stim\">CABBAGE</p>", "conditions": [24, 1600, "v", 24000], "internal_node_id": "0.0-78.0", "trial": 2, "time_elapsed": 545890, "serialpos": 16, "key_press": -1, "wordID": 209, "type": "PRES_VIS", "trial_index": 105}, "uniqueid": "MTK1469:39ASUFLU6YEB4K6HKHNQQY9K8LFEXP", "dateTime": 1515897293196}, {"current_trial": 106, "trialdata": {"rt": -1, "trial_type": "single-stim", "word": "parsley", "stimulus": "<p id=\"stim\">PARSLEY</p>", "conditions": [24, 1600, "v", 24000], "internal_node_id": "0.0-79.0", "trial": 2, "time_elapsed": 548549, "serialpos": 17, "key_press": -1, "wordID": 1015, "type": "PRES_VIS", "trial_index": 106}, "uniqueid": "MTK1469:39ASUFLU6YEB4K6HKHNQQY9K8LFEXP", "dateTime": 1515897295855}, {"current_trial": 107, "trialdata": {"rt": -1, "trial_type": "single-stim", "word": "freckle", "stimulus": "<p id=\"stim\">FRECKLE</p>", "conditions": [24, 1600, "v", 24000], "internal_node_id": "0.0-80.0", "trial": 2, "time_elapsed": 551261, "serialpos": 18, "key_press": -1, "wordID": 601, "type": "PRES_VIS", "trial_index": 107}, "uniqueid": "MTK1469:39ASUFLU6YEB4K6HKHNQQY9K8LFEXP", "dateTime": 1515897298567}, {"current_trial": 108, "trialdata": {"rt": -1, "trial_type": "single-stim", "word": "garden", "stimulus": "<p id=\"stim\">GARDEN</p>", "conditions": [24, 1600, "v", 24000], "internal_node_id": "0.0-81.0", "trial": 2, "time_elapsed": 553813, "serialpos": 19, "key_press": -1, "wordID": 622, "type": "PRES_VIS", "trial_index": 108}, "uniqueid": "MTK1469:39ASUFLU6YEB4K6HKHNQQY9K8LFEXP", "dateTime": 1515897301120}, {"current_trial": 109, "trialdata": {"rt": -1, "trial_type": "single-stim", "word": "friend", "stimulus": "<p id=\"stim\">FRIEND</p>", "conditions": [24, 1600, "v", 24000], "internal_node_id": "0.0-82.0", "trial": 2, "time_elapsed": 556428, "serialpos": 20, "key_press": -1, "wordID": 605, "type": "PRES_VIS", "trial_index": 109}, "uniqueid": "MTK1469:39ASUFLU6YEB4K6HKHNQQY9K8LFEXP", "dateTime": 1515897303734}, {"current_trial": 110, "trialdata": {"rt": -1, "trial_type": "single-stim", "word": "cobra", "stimulus": "<p id=\"stim\">COBRA</p>", "conditions": [24, 1600, "v", 24000], "internal_node_id": "0.0-83.0", "trial": 2, "time_elapsed": 559103, "serialpos": 21, "key_press": -1, "wordID": 335, "type": "PRES_VIS", "trial_index": 110}, "uniqueid": "MTK1469:39ASUFLU6YEB4K6HKHNQQY9K8LFEXP", "dateTime": 1515897306409}, {"current_trial": 111, "trialdata": {"rt": -1, "trial_type": "single-stim", "word": "softball", "stimulus": "<p id=\"stim\">SOFTBALL</p>", "conditions": [24, 1600, "v", 24000], "internal_node_id": "0.0-84.0", "trial": 2, "time_elapsed": 561873, "serialpos": 22, "key_press": -1, "wordID": 1342, "type": "PRES_VIS", "trial_index": 111}, "uniqueid": "MTK1469:39ASUFLU6YEB4K6HKHNQQY9K8LFEXP", "dateTime": 1515897309179}, {"current_trial": 112, "trialdata": {"rt": -1, "trial_type": "single-stim", "word": "panther", "stimulus": "<p id=\"stim\">PANTHER</p>", "conditions": [24, 1600, "v", 24000], "internal_node_id": "0.0-85.0", "trial": 2, "time_elapsed": 564389, "serialpos": 23, "key_press": -1, "wordID": 1008, "type": "PRES_VIS", "trial_index": 112}, "uniqueid": "MTK1469:39ASUFLU6YEB4K6HKHNQQY9K8LFEXP", "dateTime": 1515897311695}, {"current_trial": 113, "trialdata": {"rt": -1, "trial_type": "single-stim", "stimulus": "", "internal_node_id": "0.0-86.0-0.0", "time_elapsed": 566770, "key_press": -1, "type": "PRE_RECALL_DELAY", "trial_index": 113}, "uniqueid": "MTK1469:39ASUFLU6YEB4K6HKHNQQY9K8LFEXP", "dateTime": 1515897314076}, {"current_trial": 114, "trialdata": {"rt": -1000, "trial_type": "single-audio", "stimulus": "/static/audio/400Hz.wav", "internal_node_id": "0.0-87.0", "time_elapsed": 567271, "key_press": -1, "type": "PRE_RECALL_ALERT", "trial_index": 114}, "uniqueid": "MTK1469:39ASUFLU6YEB4K6HKHNQQY9K8LFEXP", "dateTime": 1515897314578}, {"current_trial": 115, "trialdata": {"rt": [1715, 2725, 3902, 9363, 11026, 12346, 13826, 30037], "recwords": ["grape", "flute", "garden", "burglar", "europe", "parrot", "sister", "friend"], "key_times": [973, 1034, 1251, 1417, 1477, 1715, 1978, 2111, 2304, 2408, 2591, 2725, 3123, 3226, 3297, 3488, 3558, 3733, 3902, 8606, 8677, 8753, 8918, 9050, 9143, 9223, 9363, 9662, 9803, 9906, 10065, 10269, 10442, 11026, 11425, 11521, 11739, 11861, 12056, 12168, 12346, 12564, 12752, 12871, 13021, 13151, 13231, 13464, 13826, 29581, 29581, 29617, 29730, 29825, 29920, 30037], "trial_type": "free-recall", "conditions": [24, 1600, "v", 24000], "internal_node_id": "0.0-88.0-0.0", "key_presses": [71, 82, 65, 80, 69, 13, 70, 76, 85, 84, 69, 13, 71, 65, 82, 68, 69, 78, 13, 66, 85, 82, 71, 76, 65, 82, 13, 69, 85, 82, 79, 80, 69, 13, 80, 65, 82, 82, 79, 84, 13, 83, 73, 83, 84, 69, 82, 16, 13, 70, 82, 73, 69, 78, 68, 13], "trial": 2, "time_elapsed": 627274, "type": "FREE_RECALL", "trial_index": 115}, "uniqueid": "MTK1469:39ASUFLU6YEB4K6HKHNQQY9K8LFEXP", "dateTime": 1515897374585}, {"current_trial": 116, "trialdata": {"rt": 949, "trial_type": "text", "internal_node_id": "0.0-89.0", "time_elapsed": 630229, "key_press": 13, "type": "INSTRUCTIONS", "trial_index": 116}, "uniqueid": "MTK1469:39ASUFLU6YEB4K6HKHNQQY9K8LFEXP", "dateTime": 1515897377536}, {"current_trial": 117, "trialdata": {"rt": [1344, 4649, 6049, 8105, 9505, 11183, 12749, 17404, 19209, 21390, 23554], "trial_type": "math-distractor", "key_times": [1091, 1344, 4302, 4373, 4649, 5711, 5790, 6049, 7686, 7792, 8105, 9149, 9306, 9505, 10800, 10888, 11183, 12496, 12749, 14512, 15155, 16432, 17170, 17404, 18835, 18940, 19209, 21043, 21113, 21390, 22892, 22962, 23554], "responses": ["8", "16", "14", "13", "10", "20", "9", "22", "12", "12", "21"], "num2": [1, 5, 6, 2, 3, 8, 2, 8, 1, 6, 6, 5], "num3": [1, 8, 4, 2, 6, 6, 2, 7, 4, 5, 4, 6], "conditions": [24, 800, "v", 24000], "internal_node_id": "0.0-90.0", "key_presses": [104, 13, 97, 102, 13, 97, 100, 13, 97, 99, 13, 97, 96, 13, 98, 96, 13, 105, 13, 98, 99, 8, 98, 13, 97, 98, 13, 97, 98, 13, 98, 97, 13], "trial": 3, "time_elapsed": 656232, "type": "DISTRACTOR", "trial_index": 117, "num1": [6, 3, 4, 9, 1, 6, 5, 7, 7, 1, 9, 5]}, "uniqueid": "MTK1469:39ASUFLU6YEB4K6HKHNQQY9K8LFEXP", "dateTime": 1515897403538}, {"current_trial": 118, "trialdata": {"rt": -1, "trial_type": "single-stim", "stimulus": "<p id=\"stim\">10</p>", "internal_node_id": "0.0-91.0-0.0", "time_elapsed": 659236, "key_press": -1, "trial_index": 118}, "uniqueid": "MTK1469:39ASUFLU6YEB4K6HKHNQQY9K8LFEXP", "dateTime": 1515897406542}, {"current_trial": 119, "trialdata": {"rt": -1, "trial_type": "single-stim", "stimulus": "<p id=\"stim\">9</p>", "internal_node_id": "0.0-91.0-1.0", "time_elapsed": 660237, "key_press": -1, "trial_index": 119}, "uniqueid": "MTK1469:39ASUFLU6YEB4K6HKHNQQY9K8LFEXP", "dateTime": 1515897407543}, {"current_trial": 120, "trialdata": {"rt": -1, "trial_type": "single-stim", "stimulus": "<p id=\"stim\">8</p>", "internal_node_id": "0.0-91.0-2.0", "time_elapsed": 661239, "key_press": -1, "trial_index": 120}, "uniqueid": "MTK1469:39ASUFLU6YEB4K6HKHNQQY9K8LFEXP", "dateTime": 1515897408545}, {"current_trial": 121, "trialdata": {"rt": -1, "trial_type": "single-stim", "stimulus": "<p id=\"stim\">7</p>", "internal_node_id": "0.0-91.0-3.0", "time_elapsed": 662240, "key_press": -1, "trial_index": 121}, "uniqueid": "MTK1469:39ASUFLU6YEB4K6HKHNQQY9K8LFEXP", "dateTime": 1515897409546}, {"current_trial": 122, "trialdata": {"rt": -1, "trial_type": "single-stim", "stimulus": "<p id=\"stim\">6</p>", "internal_node_id": "0.0-91.0-4.0", "time_elapsed": 663242, "key_press": -1, "trial_index": 122}, "uniqueid": "MTK1469:39ASUFLU6YEB4K6HKHNQQY9K8LFEXP", "dateTime": 1515897410548}, {"current_trial": 123, "trialdata": {"rt": -1, "trial_type": "single-stim", "stimulus": "<p id=\"stim\">5</p>", "internal_node_id": "0.0-91.0-5.0", "time_elapsed": 664244, "key_press": -1, "trial_index": 123}, "uniqueid": "MTK1469:39ASUFLU6YEB4K6HKHNQQY9K8LFEXP", "dateTime": 1515897411550}, {"current_trial": 124, "trialdata": {"rt": -1, "trial_type": "single-stim", "stimulus": "<p id=\"stim\">4</p>", "internal_node_id": "0.0-91.0-6.0", "time_elapsed": 665244, "key_press": -1, "trial_index": 124}, "uniqueid": "MTK1469:39ASUFLU6YEB4K6HKHNQQY9K8LFEXP", "dateTime": 1515897412551}, {"current_trial": 125, "trialdata": {"rt": -1, "trial_type": "single-stim", "stimulus": "<p id=\"stim\">3</p>", "internal_node_id": "0.0-91.0-7.0", "time_elapsed": 666246, "key_press": -1, "trial_index": 125}, "uniqueid": "MTK1469:39ASUFLU6YEB4K6HKHNQQY9K8LFEXP", "dateTime": 1515897413552}, {"current_trial": 126, "trialdata": {"rt": -1, "trial_type": "single-stim", "stimulus": "<p id=\"stim\">2</p>", "internal_node_id": "0.0-91.0-8.0", "time_elapsed": 667248, "key_press": -1, "trial_index": 126}, "uniqueid": "MTK1469:39ASUFLU6YEB4K6HKHNQQY9K8LFEXP", "dateTime": 1515897414554}, {"current_trial": 127, "trialdata": {"rt": -1, "trial_type": "single-stim", "stimulus": "<p id=\"stim\">1</p>", "internal_node_id": "0.0-91.0-9.0", "time_elapsed": 668249, "key_press": -1, "trial_index": 127}, "uniqueid": "MTK1469:39ASUFLU6YEB4K6HKHNQQY9K8LFEXP", "dateTime": 1515897415555}, {"current_trial": 128, "trialdata": {"rt": -1, "trial_type": "single-stim", "stimulus": "<p id=\"stim\">+</p>", "internal_node_id": "0.0-92.0-0.0", "time_elapsed": 669750, "key_press": -1, "type": "FIXATION", "trial_index": 128}, "uniqueid": "MTK1469:39ASUFLU6YEB4K6HKHNQQY9K8LFEXP", "dateTime": 1515897417056}, {"current_trial": 129, "trialdata": {"rt": -1, "trial_type": "single-stim", "word": "crab", "stimulus": "<p id=\"stim\">CRAB</p>", "conditions": [24, 800, "v", 24000], "internal_node_id": "0.0-93.0", "trial": 3, "time_elapsed": 670551, "serialpos": 0, "key_press": -1, "wordID": 396, "type": "PRES_VIS", "trial_index": 129}, "uniqueid": "MTK1469:39ASUFLU6YEB4K6HKHNQQY9K8LFEXP", "dateTime": 1515897417857}, {"current_trial": 130, "trialdata": {"rt": -1, "trial_type": "single-stim", "word": "lumber", "stimulus": "<p id=\"stim\">LUMBER</p>", "conditions": [24, 800, "v", 24000], "internal_node_id": "0.0-94.0", "trial": 3, "time_elapsed": 672544, "serialpos": 1, "key_press": -1, "wordID": 847, "type": "PRES_VIS", "trial_index": 130}, "uniqueid": "MTK1469:39ASUFLU6YEB4K6HKHNQQY9K8LFEXP", "dateTime": 1515897419850}, {"current_trial": 131, "trialdata": {"rt": -1, "trial_type": "single-stim", "word": "church", "stimulus": "<p id=\"stim\">CHURCH</p>", "conditions": [24, 800, "v", 24000], "internal_node_id": "0.0-95.0", "trial": 3, "time_elapsed": 674278, "serialpos": 2, "key_press": -1, "wordID": 306, "type": "PRES_VIS", "trial_index": 131}, "uniqueid": "MTK1469:39ASUFLU6YEB4K6HKHNQQY9K8LFEXP", "dateTime": 1515897421584}, {"current_trial": 132, "trialdata": {"rt": -1, "trial_type": "single-stim", "word": "clam", "stimulus": "<p id=\"stim\">CLAM</p>", "conditions": [24, 800, "v", 24000], "internal_node_id": "0.0-96.0", "trial": 3, "time_elapsed": 676132, "serialpos": 3, "key_press": -1, "wordID": 314, "type": "PRES_VIS", "trial_index": 132}, "uniqueid": "MTK1469:39ASUFLU6YEB4K6HKHNQQY9K8LFEXP", "dateTime": 1515897423438}, {"current_trial": 133, "trialdata": {"rt": -1, "trial_type": "single-stim", "word": "lightning", "stimulus": "<p id=\"stim\">LIGHTNING</p>", "conditions": [24, 800, "v", 24000], "internal_node_id": "0.0-97.0", "trial": 3, "time_elapsed": 677903, "serialpos": 4, "key_press": -1, "wordID": 819, "type": "PRES_VIS", "trial_index": 133}, "uniqueid": "MTK1469:39ASUFLU6YEB4K6HKHNQQY9K8LFEXP", "dateTime": 1515897425209}, {"current_trial": 134, "trialdata": {"rt": -1, "trial_type": "single-stim", "word": "trombone", "stimulus": "<p id=\"stim\">TROMBONE</p>", "conditions": [24, 800, "v", 24000], "internal_node_id": "0.0-98.0", "trial": 3, "time_elapsed": 679579, "serialpos": 5, "key_press": -1, "wordID": 1507, "type": "PRES_VIS", "trial_index": 134}, "uniqueid": "MTK1469:39ASUFLU6YEB4K6HKHNQQY9K8LFEXP", "dateTime": 1515897426885}, {"current_trial": 135, "trialdata": {"rt": -1, "trial_type": "single-stim", "word": "guitar", "stimulus": "<p id=\"stim\">GUITAR</p>", "conditions": [24, 800, "v", 24000], "internal_node_id": "0.0-99.0", "trial": 3, "time_elapsed": 681492, "serialpos": 6, "key_press": -1, "wordID": 669, "type": "PRES_VIS", "trial_index": 135}, "uniqueid": "MTK1469:39ASUFLU6YEB4K6HKHNQQY9K8LFEXP", "dateTime": 1515897428799}, {"current_trial": 136, "trialdata": {"rt": -1, "trial_type": "single-stim", "word": "preacher", "stimulus": "<p id=\"stim\">PREACHER</p>", "conditions": [24, 800, "v", 24000], "internal_node_id": "0.0-100.0", "trial": 3, "time_elapsed": 683426, "serialpos": 7, "key_press": -1, "wordID": 1118, "type": "PRES_VIS", "trial_index": 136}, "uniqueid": "MTK1469:39ASUFLU6YEB4K6HKHNQQY9K8LFEXP", "dateTime": 1515897430732}, {"current_trial": 137, "trialdata": {"rt": -1, "trial_type": "single-stim", "word": "basement", "stimulus": "<p id=\"stim\">BASEMENT</p>", "conditions": [24, 800, "v", 24000], "internal_node_id": "0.0-101.0", "trial": 3, "time_elapsed": 685236, "serialpos": 8, "key_press": -1, "wordID": 93, "type": "PRES_VIS", "trial_index": 137}, "uniqueid": "MTK1469:39ASUFLU6YEB4K6HKHNQQY9K8LFEXP", "dateTime": 1515897432542}, {"current_trial": 138, "trialdata": {"rt": -1, "trial_type": "single-stim", "word": "label", "stimulus": "<p id=\"stim\">LABEL</p>", "conditions": [24, 800, "v", 24000], "internal_node_id": "0.0-102.0", "trial": 3, "time_elapsed": 687175, "serialpos": 9, "key_press": -1, "wordID": 789, "type": "PRES_VIS", "trial_index": 138}, "uniqueid": "MTK1469:39ASUFLU6YEB4K6HKHNQQY9K8LFEXP", "dateTime": 1515897434481}, {"current_trial": 139, "trialdata": {"rt": -1, "trial_type": "single-stim", "word": "butcher", "stimulus": "<p id=\"stim\">BUTCHER</p>", "conditions": [24, 800, "v", 24000], "internal_node_id": "0.0-103.0", "trial": 3, "time_elapsed": 688940, "serialpos": 10, "key_press": -1, "wordID": 202, "type": "PRES_VIS", "trial_index": 139}, "uniqueid": "MTK1469:39ASUFLU6YEB4K6HKHNQQY9K8LFEXP", "dateTime": 1515897436246}, {"current_trial": 140, "trialdata": {"rt": -1, "trial_type": "single-stim", "word": "notebook", "stimulus": "<p id=\"stim\">NOTEBOOK</p>", "conditions": [24, 800, "v", 24000], "internal_node_id": "0.0-104.0", "trial": 3, "time_elapsed": 690690, "serialpos": 11, "key_press": -1, "wordID": 958, "type": "PRES_VIS", "trial_index": 140}, "uniqueid": "MTK1469:39ASUFLU6YEB4K6HKHNQQY9K8LFEXP", "dateTime": 1515897437996}, {"current_trial": 141, "trialdata": {"rt": -1, "trial_type": "single-stim", "word": "scribble", "stimulus": "<p id=\"stim\">SCRIBBLE</p>", "conditions": [24, 800, "v", 24000], "internal_node_id": "0.0-105.0", "trial": 3, "time_elapsed": 692482, "serialpos": 12, "key_press": -1, "wordID": 1255, "type": "PRES_VIS", "trial_index": 141}, "uniqueid": "MTK1469:39ASUFLU6YEB4K6HKHNQQY9K8LFEXP", "dateTime": 1515897439788}, {"current_trial": 142, "trialdata": {"rt": -1, "trial_type": "single-stim", "word": "oyster", "stimulus": "<p id=\"stim\">OYSTER</p>", "conditions": [24, 800, "v", 24000], "internal_node_id": "0.0-106.0", "trial": 3, "time_elapsed": 694294, "serialpos": 13, "key_press": -1, "wordID": 994, "type": "PRES_VIS", "trial_index": 142}, "uniqueid": "MTK1469:39ASUFLU6YEB4K6HKHNQQY9K8LFEXP", "dateTime": 1515897441600}, {"current_trial": 143, "trialdata": {"rt": -1, "trial_type": "single-stim", "word": "police", "stimulus": "<p id=\"stim\">POLICE</p>", "conditions": [24, 800, "v", 24000], "internal_node_id": "0.0-107.0", "trial": 3, "time_elapsed": 696048, "serialpos": 14, "key_press": -1, "wordID": 1097, "type": "PRES_VIS", "trial_index": 143}, "uniqueid": "MTK1469:39ASUFLU6YEB4K6HKHNQQY9K8LFEXP", "dateTime": 1515897443354}, {"current_trial": 144, "trialdata": {"rt": -1, "trial_type": "single-stim", "word": "patrol", "stimulus": "<p id=\"stim\">PATROL</p>", "conditions": [24, 800, "v", 24000], "internal_node_id": "0.0-108.0", "trial": 3, "time_elapsed": 698004, "serialpos": 15, "key_press": -1, "wordID": 1026, "type": "PRES_VIS", "trial_index": 144}, "uniqueid": "MTK1469:39ASUFLU6YEB4K6HKHNQQY9K8LFEXP", "dateTime": 1515897445310}, {"current_trial": 145, "trialdata": {"rt": -1, "trial_type": "single-stim", "word": "racket", "stimulus": "<p id=\"stim\">RACKET</p>", "conditions": [24, 800, "v", 24000], "internal_node_id": "0.0-109.0", "trial": 3, "time_elapsed": 699858, "serialpos": 16, "key_press": -1, "wordID": 1154, "type": "PRES_VIS", "trial_index": 145}, "uniqueid": "MTK1469:39ASUFLU6YEB4K6HKHNQQY9K8LFEXP", "dateTime": 1515897447164}, {"current_trial": 146, "trialdata": {"rt": -1, "trial_type": "single-stim", "word": "scallop", "stimulus": "<p id=\"stim\">SCALLOP</p>", "conditions": [24, 800, "v", 24000], "internal_node_id": "0.0-110.0", "trial": 3, "time_elapsed": 701483, "serialpos": 17, "key_press": -1, "wordID": 1241, "type": "PRES_VIS", "trial_index": 146}, "uniqueid": "MTK1469:39ASUFLU6YEB4K6HKHNQQY9K8LFEXP", "dateTime": 1515897448789}, {"current_trial": 147, "trialdata": {"rt": -1, "trial_type": "single-stim", "word": "salt", "stimulus": "<p id=\"stim\">SALT</p>", "conditions": [24, 800, "v", 24000], "internal_node_id": "0.0-111.0", "trial": 3, "time_elapsed": 703315, "serialpos": 18, "key_press": -1, "wordID": 1228, "type": "PRES_VIS", "trial_index": 147}, "uniqueid": "MTK1469:39ASUFLU6YEB4K6HKHNQQY9K8LFEXP", "dateTime": 1515897450621}, {"current_trial": 148, "trialdata": {"rt": -1, "trial_type": "single-stim", "word": "fruit", "stimulus": "<p id=\"stim\">FRUIT</p>", "conditions": [24, 800, "v", 24000], "internal_node_id": "0.0-112.0", "trial": 3, "time_elapsed": 705108, "serialpos": 19, "key_press": -1, "wordID": 609, "type": "PRES_VIS", "trial_index": 148}, "uniqueid": "MTK1469:39ASUFLU6YEB4K6HKHNQQY9K8LFEXP", "dateTime": 1515897452414}, {"current_trial": 149, "trialdata": {"rt": -1, "trial_type": "single-stim", "word": "mattress", "stimulus": "<p id=\"stim\">MATTRESS</p>", "conditions": [24, 800, "v", 24000], "internal_node_id": "0.0-113.0", "trial": 3, "time_elapsed": 706738, "serialpos": 20, "key_press": -1, "wordID": 878, "type": "PRES_VIS", "trial_index": 149}, "uniqueid": "MTK1469:39ASUFLU6YEB4K6HKHNQQY9K8LFEXP", "dateTime": 1515897454044}, {"current_trial": 150, "trialdata": {"rt": -1, "trial_type": "single-stim", "word": "onion", "stimulus": "<p id=\"stim\">ONION</p>", "conditions": [24, 800, "v", 24000], "internal_node_id": "0.0-114.0", "trial": 3, "time_elapsed": 708724, "serialpos": 21, "key_press": -1, "wordID": 976, "type": "PRES_VIS", "trial_index": 150}, "uniqueid": "MTK1469:39ASUFLU6YEB4K6HKHNQQY9K8LFEXP", "dateTime": 1515897456030}, {"current_trial": 151, "trialdata": {"rt": -1, "trial_type": "single-stim", "word": "convict", "stimulus": "<p id=\"stim\">CONVICT</p>", "conditions": [24, 800, "v", 24000], "internal_node_id": "0.0-115.0", "trial": 3, "time_elapsed": 710422, "serialpos": 22, "key_press": -1, "wordID": 370, "type": "PRES_VIS", "trial_index": 151}, "uniqueid": "MTK1469:39ASUFLU6YEB4K6HKHNQQY9K8LFEXP", "dateTime": 1515897457728}, {"current_trial": 152, "trialdata": {"rt": -1, "trial_type": "single-stim", "word": "mars", "stimulus": "<p id=\"stim\">MARS</p>", "conditions": [24, 800, "v", 24000], "internal_node_id": "0.0-116.0", "trial": 3, "time_elapsed": 712422, "serialpos": 23, "key_press": -1, "wordID": 872, "type": "PRES_VIS", "trial_index": 152}, "uniqueid": "MTK1469:39ASUFLU6YEB4K6HKHNQQY9K8LFEXP", "dateTime": 1515897459728}, {"current_trial": 153, "trialdata": {"rt": -1, "trial_type": "single-stim", "stimulus": "", "internal_node_id": "0.0-117.0-0.0", "time_elapsed": 714694, "key_press": -1, "type": "PRE_RECALL_DELAY", "trial_index": 153}, "uniqueid": "MTK1469:39ASUFLU6YEB4K6HKHNQQY9K8LFEXP", "dateTime": 1515897462000}, {"current_trial": 154, "trialdata": {"rt": -1000, "trial_type": "single-audio", "stimulus": "/static/audio/400Hz.wav", "internal_node_id": "0.0-118.0", "time_elapsed": 715196, "key_press": -1, "type": "PRE_RECALL_ALERT", "trial_index": 154}, "uniqueid": "MTK1469:39ASUFLU6YEB4K6HKHNQQY9K8LFEXP", "dateTime": 1515897462502}, {"current_trial": 155, "trialdata": {"rt": [3194, 4755, 8662, 12608, 18951, 59872], "recwords": ["church", "lightning", "trumpet", "friend", "onion", "police"], "key_times": [576, 725, 1074, 1205, 1318, 1772, 2030, 2151, 2282, 2410, 2551, 2594, 2668, 2813, 2918, 3194, 3513, 3715, 3836, 3950, 4170, 4292, 4406, 4493, 4631, 4755, 4991, 5079, 5611, 5839, 6060, 6210, 6519, 6931, 7071, 7210, 7368, 7658, 7799, 8002, 8179, 8334, 8457, 8662, 11902, 11962, 12128, 12215, 12354, 12432, 12608, 18143, 18229, 18422, 18589, 18649, 18951, 59140, 59315, 59473, 59621, 59699, 59749, 59872], "trial_type": "free-recall", "conditions": [24, 800, "v", 24000], "internal_node_id": "0.0-119.0-0.0", "key_presses": [83, 67, 8, 8, 8, 73, 8, 8, 8, 67, 72, 85, 82, 67, 72, 13, 76, 73, 71, 72, 84, 78, 73, 78, 71, 13, 84, 82, 8, 85, 77, 80, 84, 8, 8, 8, 8, 82, 85, 77, 80, 69, 84, 13, 70, 82, 73, 69, 78, 68, 13, 79, 78, 73, 79, 78, 13, 80, 79, 76, 73, 67, 69, 13], "trial": 3, "time_elapsed": 775198, "type": "FREE_RECALL", "trial_index": 155}, "uniqueid": "MTK1469:39ASUFLU6YEB4K6HKHNQQY9K8LFEXP", "dateTime": 1515897522506}, {"current_trial": 156, "trialdata": {"rt": 1164, "trial_type": "text", "internal_node_id": "0.0-120.0", "time_elapsed": 778365, "key_press": 13, "type": "INSTRUCTIONS", "trial_index": 156}, "uniqueid": "MTK1469:39ASUFLU6YEB4K6HKHNQQY9K8LFEXP", "dateTime": 1515897525671}, {"current_trial": 157, "trialdata": {"rt": [1475, 2955, 5129, 8286, 10410], "trial_type": "math-distractor", "key_times": [1101, 1223, 1475, 2572, 2678, 2955, 4782, 4869, 5129, 7440, 7670, 8286, 9366, 9427, 10410], "responses": ["19", "18", "16", "23", "16"], "num2": [1, 9, 9, 5, 9, 8], "num3": [9, 8, 6, 9, 6, 2], "conditions": [24, 800, "v", 12000], "internal_node_id": "0.0-121.0", "key_presses": [97, 105, 13, 97, 104, 13, 97, 102, 13, 98, 99, 13, 97, 102, 13], "trial": 4, "time_elapsed": 792368, "type": "DISTRACTOR", "trial_index": 157, "num1": [9, 1, 1, 7, 1, 6]}, "uniqueid": "MTK1469:39ASUFLU6YEB4K6HKHNQQY9K8LFEXP", "dateTime": 1515897539674}, {"current_trial": 158, "trialdata": {"rt": -1, "trial_type": "single-stim", "stimulus": "<p id=\"stim\">10</p>", "internal_node_id": "0.0-122.0-0.0", "time_elapsed": 795370, "key_press": -1, "trial_index": 158}, "uniqueid": "MTK1469:39ASUFLU6YEB4K6HKHNQQY9K8LFEXP", "dateTime": 1515897542676}, {"current_trial": 159, "trialdata": {"rt": -1, "trial_type": "single-stim", "stimulus": "<p id=\"stim\">9</p>", "internal_node_id": "0.0-122.0-1.0", "time_elapsed": 796372, "key_press": -1, "trial_index": 159}, "uniqueid": "MTK1469:39ASUFLU6YEB4K6HKHNQQY9K8LFEXP", "dateTime": 1515897543678}, {"current_trial": 160, "trialdata": {"rt": -1, "trial_type": "single-stim", "stimulus": "<p id=\"stim\">8</p>", "internal_node_id": "0.0-122.0-2.0", "time_elapsed": 797373, "key_press": -1, "trial_index": 160}, "uniqueid": "MTK1469:39ASUFLU6YEB4K6HKHNQQY9K8LFEXP", "dateTime": 1515897544679}, {"current_trial": 161, "trialdata": {"rt": -1, "trial_type": "single-stim", "stimulus": "<p id=\"stim\">7</p>", "internal_node_id": "0.0-122.0-3.0", "time_elapsed": 798375, "key_press": -1, "trial_index": 161}, "uniqueid": "MTK1469:39ASUFLU6YEB4K6HKHNQQY9K8LFEXP", "dateTime": 1515897545681}, {"current_trial": 162, "trialdata": {"rt": -1, "trial_type": "single-stim", "stimulus": "<p id=\"stim\">6</p>", "internal_node_id": "0.0-122.0-4.0", "time_elapsed": 799376, "key_press": -1, "trial_index": 162}, "uniqueid": "MTK1469:39ASUFLU6YEB4K6HKHNQQY9K8LFEXP", "dateTime": 1515897546682}, {"current_trial": 163, "trialdata": {"rt": -1, "trial_type": "single-stim", "stimulus": "<p id=\"stim\">5</p>", "internal_node_id": "0.0-122.0-5.0", "time_elapsed": 800377, "key_press": -1, "trial_index": 163}, "uniqueid": "MTK1469:39ASUFLU6YEB4K6HKHNQQY9K8LFEXP", "dateTime": 1515897547683}, {"current_trial": 164, "trialdata": {"rt": -1, "trial_type": "single-stim", "stimulus": "<p id=\"stim\">4</p>", "internal_node_id": "0.0-122.0-6.0", "time_elapsed": 801378, "key_press": -1, "trial_index": 164}, "uniqueid": "MTK1469:39ASUFLU6YEB4K6HKHNQQY9K8LFEXP", "dateTime": 1515897548684}, {"current_trial": 165, "trialdata": {"rt": -1, "trial_type": "single-stim", "stimulus": "<p id=\"stim\">3</p>", "internal_node_id": "0.0-122.0-7.0", "time_elapsed": 802379, "key_press": -1, "trial_index": 165}, "uniqueid": "MTK1469:39ASUFLU6YEB4K6HKHNQQY9K8LFEXP", "dateTime": 1515897549685}, {"current_trial": 166, "trialdata": {"rt": -1, "trial_type": "single-stim", "stimulus": "<p id=\"stim\">2</p>", "internal_node_id": "0.0-122.0-8.0", "time_elapsed": 803380, "key_press": -1, "trial_index": 166}, "uniqueid": "MTK1469:39ASUFLU6YEB4K6HKHNQQY9K8LFEXP", "dateTime": 1515897550686}, {"current_trial": 167, "trialdata": {"rt": -1, "trial_type": "single-stim", "stimulus": "<p id=\"stim\">1</p>", "internal_node_id": "0.0-122.0-9.0", "time_elapsed": 804381, "key_press": -1, "trial_index": 167}, "uniqueid": "MTK1469:39ASUFLU6YEB4K6HKHNQQY9K8LFEXP", "dateTime": 1515897551687}, {"current_trial": 168, "trialdata": {"rt": -1, "trial_type": "single-stim", "stimulus": "<p id=\"stim\">+</p>", "internal_node_id": "0.0-123.0-0.0", "time_elapsed": 805882, "key_press": -1, "type": "FIXATION", "trial_index": 168}, "uniqueid": "MTK1469:39ASUFLU6YEB4K6HKHNQQY9K8LFEXP", "dateTime": 1515897553188}, {"current_trial": 169, "trialdata": {"rt": -1, "trial_type": "single-stim", "word": "crater", "stimulus": "<p id=\"stim\">CRATER</p>", "conditions": [24, 800, "v", 12000], "internal_node_id": "0.0-124.0", "trial": 4, "time_elapsed": 806683, "serialpos": 0, "key_press": -1, "wordID": 399, "type": "PRES_VIS", "trial_index": 169}, "uniqueid": "MTK1469:39ASUFLU6YEB4K6HKHNQQY9K8LFEXP", "dateTime": 1515897553989}, {"current_trial": 170, "trialdata": {"rt": -1, "trial_type": "single-stim", "word": "dress", "stimulus": "<p id=\"stim\">DRESS</p>", "conditions": [24, 800, "v", 12000], "internal_node_id": "0.0-125.0", "trial": 4, "time_elapsed": 808630, "serialpos": 1, "key_press": -1, "wordID": 494, "type": "PRES_VIS", "trial_index": 170}, "uniqueid": "MTK1469:39ASUFLU6YEB4K6HKHNQQY9K8LFEXP", "dateTime": 1515897555936}, {"current_trial": 171, "trialdata": {"rt": -1, "trial_type": "single-stim", "word": "seafood", "stimulus": "<p id=\"stim\">SEAFOOD</p>", "conditions": [24, 800, "v", 12000], "internal_node_id": "0.0-126.0", "trial": 4, "time_elapsed": 810613, "serialpos": 2, "key_press": -1, "wordID": 1259, "type": "PRES_VIS", "trial_index": 171}, "uniqueid": "MTK1469:39ASUFLU6YEB4K6HKHNQQY9K8LFEXP", "dateTime": 1515897557919}, {"current_trial": 172, "trialdata": {"rt": -1, "trial_type": "single-stim", "word": "pigeon", "stimulus": "<p id=\"stim\">PIGEON</p>", "conditions": [24, 800, "v", 12000], "internal_node_id": "0.0-127.0", "trial": 4, "time_elapsed": 812464, "serialpos": 3, "key_press": -1, "wordID": 1064, "type": "PRES_VIS", "trial_index": 172}, "uniqueid": "MTK1469:39ASUFLU6YEB4K6HKHNQQY9K8LFEXP", "dateTime": 1515897559770}, {"current_trial": 173, "trialdata": {"rt": -1, "trial_type": "single-stim", "word": "chipmunk", "stimulus": "<p id=\"stim\">CHIPMUNK</p>", "conditions": [24, 800, "v", 12000], "internal_node_id": "0.0-128.0", "trial": 4, "time_elapsed": 814440, "serialpos": 4, "key_press": -1, "wordID": 303, "type": "PRES_VIS", "trial_index": 173}, "uniqueid": "MTK1469:39ASUFLU6YEB4K6HKHNQQY9K8LFEXP", "dateTime": 1515897561746}, {"current_trial": 174, "trialdata": {"rt": -1, "trial_type": "single-stim", "word": "salmon", "stimulus": "<p id=\"stim\">SALMON</p>", "conditions": [24, 800, "v", 12000], "internal_node_id": "0.0-129.0", "trial": 4, "time_elapsed": 816168, "serialpos": 5, "key_press": -1, "wordID": 1226, "type": "PRES_VIS", "trial_index": 174}, "uniqueid": "MTK1469:39ASUFLU6YEB4K6HKHNQQY9K8LFEXP", "dateTime": 1515897563475}, {"current_trial": 175, "trialdata": {"rt": -1, "trial_type": "single-stim", "word": "cupboard", "stimulus": "<p id=\"stim\">CUPBOARD</p>", "conditions": [24, 800, "v", 12000], "internal_node_id": "0.0-130.0", "trial": 4, "time_elapsed": 817813, "serialpos": 6, "key_press": -1, "wordID": 424, "type": "PRES_VIS", "trial_index": 175}, "uniqueid": "MTK1469:39ASUFLU6YEB4K6HKHNQQY9K8LFEXP", "dateTime": 1515897565119}, {"current_trial": 176, "trialdata": {"rt": -1, "trial_type": "single-stim", "word": "dresser", "stimulus": "<p id=\"stim\">DRESSER</p>", "conditions": [24, 800, "v", 12000], "internal_node_id": "0.0-131.0", "trial": 4, "time_elapsed": 819697, "serialpos": 7, "key_press": -1, "wordID": 495, "type": "PRES_VIS", "trial_index": 176}, "uniqueid": "MTK1469:39ASUFLU6YEB4K6HKHNQQY9K8LFEXP", "dateTime": 1515897567003}, {"current_trial": 177, "trialdata": {"rt": -1, "trial_type": "single-stim", "word": "pasta", "stimulus": "<p id=\"stim\">PASTA</p>", "conditions": [24, 800, "v", 12000], "internal_node_id": "0.0-132.0", "trial": 4, "time_elapsed": 821557, "serialpos": 8, "key_press": -1, "wordID": 1020, "type": "PRES_VIS", "trial_index": 177}, "uniqueid": "MTK1469:39ASUFLU6YEB4K6HKHNQQY9K8LFEXP", "dateTime": 1515897568863}, {"current_trial": 178, "trialdata": {"rt": -1, "trial_type": "single-stim", "word": "zebra", "stimulus": "<p id=\"stim\">ZEBRA</p>", "conditions": [24, 800, "v", 12000], "internal_node_id": "0.0-133.0", "trial": 4, "time_elapsed": 823331, "serialpos": 9, "key_press": -1, "wordID": 1634, "type": "PRES_VIS", "trial_index": 178}, "uniqueid": "MTK1469:39ASUFLU6YEB4K6HKHNQQY9K8LFEXP", "dateTime": 1515897570637}, {"current_trial": 179, "trialdata": {"rt": -1, "trial_type": "single-stim", "word": "supper", "stimulus": "<p id=\"stim\">SUPPER</p>", "conditions": [24, 800, "v", 12000], "internal_node_id": "0.0-134.0", "trial": 4, "time_elapsed": 825249, "serialpos": 10, "key_press": -1, "wordID": 1410, "type": "PRES_VIS", "trial_index": 179}, "uniqueid": "MTK1469:39ASUFLU6YEB4K6HKHNQQY9K8LFEXP", "dateTime": 1515897572555}, {"current_trial": 180, "trialdata": {"rt": -1, "trial_type": "single-stim", "word": "patient", "stimulus": "<p id=\"stim\">PATIENT</p>", "conditions": [24, 800, "v", 12000], "internal_node_id": "0.0-135.0", "trial": 4, "time_elapsed": 827063, "serialpos": 11, "key_press": -1, "wordID": 1023, "type": "PRES_VIS", "trial_index": 180}, "uniqueid": "MTK1469:39ASUFLU6YEB4K6HKHNQQY9K8LFEXP", "dateTime": 1515897574370}, {"current_trial": 181, "trialdata": {"rt": -1, "trial_type": "single-stim", "word": "turtle", "stimulus": "<p id=\"stim\">TURTLE</p>", "conditions": [24, 800, "v", 12000], "internal_node_id": "0.0-136.0", "trial": 4, "time_elapsed": 828807, "serialpos": 12, "key_press": -1, "wordID": 1521, "type": "PRES_VIS", "trial_index": 181}, "uniqueid": "MTK1469:39ASUFLU6YEB4K6HKHNQQY9K8LFEXP", "dateTime": 1515897576113}, {"current_trial": 182, "trialdata": {"rt": -1, "trial_type": "single-stim", "word": "item", "stimulus": "<p id=\"stim\">ITEM</p>", "conditions": [24, 800, "v", 12000], "internal_node_id": "0.0-137.0", "trial": 4, "time_elapsed": 830477, "serialpos": 13, "key_press": -1, "wordID": 745, "type": "PRES_VIS", "trial_index": 182}, "uniqueid": "MTK1469:39ASUFLU6YEB4K6HKHNQQY9K8LFEXP", "dateTime": 1515897577783}, {"current_trial": 183, "trialdata": {"rt": -1, "trial_type": "single-stim", "word": "kidney", "stimulus": "<p id=\"stim\">KIDNEY</p>", "conditions": [24, 800, "v", 12000], "internal_node_id": "0.0-138.0", "trial": 4, "time_elapsed": 832445, "serialpos": 14, "key_press": -1, "wordID": 775, "type": "PRES_VIS", "trial_index": 183}, "uniqueid": "MTK1469:39ASUFLU6YEB4K6HKHNQQY9K8LFEXP", "dateTime": 1515897579751}, {"current_trial": 184, "trialdata": {"rt": -1, "trial_type": "single-stim", "word": "pork", "stimulus": "<p id=\"stim\">PORK</p>", "conditions": [24, 800, "v", 12000], "internal_node_id": "0.0-139.0", "trial": 4, "time_elapsed": 834112, "serialpos": 15, "key_press": -1, "wordID": 1107, "type": "PRES_VIS", "trial_index": 184}, "uniqueid": "MTK1469:39ASUFLU6YEB4K6HKHNQQY9K8LFEXP", "dateTime": 1515897581418}, {"current_trial": 185, "trialdata": {"rt": -1, "trial_type": "single-stim", "word": "donkey", "stimulus": "<p id=\"stim\">DONKEY</p>", "conditions": [24, 800, "v", 12000], "internal_node_id": "0.0-140.0", "trial": 4, "time_elapsed": 836070, "serialpos": 16, "key_press": -1, "wordID": 483, "type": "PRES_VIS", "trial_index": 185}, "uniqueid": "MTK1469:39ASUFLU6YEB4K6HKHNQQY9K8LFEXP", "dateTime": 1515897583376}, {"current_trial": 186, "trialdata": {"rt": -1, "trial_type": "single-stim", "word": "camel", "stimulus": "<p id=\"stim\">CAMEL</p>", "conditions": [24, 800, "v", 12000], "internal_node_id": "0.0-141.0", "trial": 4, "time_elapsed": 838009, "serialpos": 17, "key_press": -1, "wordID": 222, "type": "PRES_VIS", "trial_index": 186}, "uniqueid": "MTK1469:39ASUFLU6YEB4K6HKHNQQY9K8LFEXP", "dateTime": 1515897585315}, {"current_trial": 187, "trialdata": {"rt": -1, "trial_type": "single-stim", "word": "banquet", "stimulus": "<p id=\"stim\">BANQUET</p>", "conditions": [24, 800, "v", 12000], "internal_node_id": "0.0-142.0", "trial": 4, "time_elapsed": 839860, "serialpos": 18, "key_press": -1, "wordID": 85, "type": "PRES_VIS", "trial_index": 187}, "uniqueid": "MTK1469:39ASUFLU6YEB4K6HKHNQQY9K8LFEXP", "dateTime": 1515897587166}, {"current_trial": 188, "trialdata": {"rt": -1, "trial_type": "single-stim", "word": "fleet", "stimulus": "<p id=\"stim\">FLEET</p>", "conditions": [24, 800, "v", 12000], "internal_node_id": "0.0-143.0", "trial": 4, "time_elapsed": 841767, "serialpos": 19, "key_press": -1, "wordID": 577, "type": "PRES_VIS", "trial_index": 188}, "uniqueid": "MTK1469:39ASUFLU6YEB4K6HKHNQQY9K8LFEXP", "dateTime": 1515897589073}, {"current_trial": 189, "trialdata": {"rt": -1, "trial_type": "single-stim", "word": "suspect", "stimulus": "<p id=\"stim\">SUSPECT</p>", "conditions": [24, 800, "v", 12000], "internal_node_id": "0.0-144.0", "trial": 4, "time_elapsed": 843723, "serialpos": 20, "key_press": -1, "wordID": 1414, "type": "PRES_VIS", "trial_index": 189}, "uniqueid": "MTK1469:39ASUFLU6YEB4K6HKHNQQY9K8LFEXP", "dateTime": 1515897591029}, {"current_trial": 190, "trialdata": {"rt": -1, "trial_type": "single-stim", "word": "witness", "stimulus": "<p id=\"stim\">WITNESS</p>", "conditions": [24, 800, "v", 12000], "internal_node_id": "0.0-145.0", "trial": 4, "time_elapsed": 845561, "serialpos": 21, "key_press": -1, "wordID": 1617, "type": "PRES_VIS", "trial_index": 190}, "uniqueid": "MTK1469:39ASUFLU6YEB4K6HKHNQQY9K8LFEXP", "dateTime": 1515897592867}, {"current_trial": 191, "trialdata": {"rt": -1, "trial_type": "single-stim", "word": "flipper", "stimulus": "<p id=\"stim\">FLIPPER</p>", "conditions": [24, 800, "v", 12000], "internal_node_id": "0.0-146.0", "trial": 4, "time_elapsed": 847312, "serialpos": 22, "key_press": -1, "wordID": 579, "type": "PRES_VIS", "trial_index": 191}, "uniqueid": "MTK1469:39ASUFLU6YEB4K6HKHNQQY9K8LFEXP", "dateTime": 1515897594618}, {"current_trial": 192, "trialdata": {"rt": -1, "trial_type": "single-stim", "word": "marrow", "stimulus": "<p id=\"stim\">MARROW</p>", "conditions": [24, 800, "v", 12000], "internal_node_id": "0.0-147.0", "trial": 4, "time_elapsed": 849182, "serialpos": 23, "key_press": -1, "wordID": 871, "type": "PRES_VIS", "trial_index": 192}, "uniqueid": "MTK1469:39ASUFLU6YEB4K6HKHNQQY9K8LFEXP", "dateTime": 1515897596488}, {"current_trial": 193, "trialdata": {"rt": -1, "trial_type": "single-stim", "stimulus": "", "internal_node_id": "0.0-148.0-0.0", "time_elapsed": 851532, "key_press": -1, "type": "PRE_RECALL_DELAY", "trial_index": 193}, "uniqueid": "MTK1469:39ASUFLU6YEB4K6HKHNQQY9K8LFEXP", "dateTime": 1515897598838}, {"current_trial": 194, "trialdata": {"rt": -1000, "trial_type": "single-audio", "stimulus": "/static/audio/400Hz.wav", "internal_node_id": "0.0-149.0", "time_elapsed": 852033, "key_press": -1, "type": "PRE_RECALL_ALERT", "trial_index": 194}, "uniqueid": "MTK1469:39ASUFLU6YEB4K6HKHNQQY9K8LFEXP", "dateTime": 1515897599339}, {"current_trial": 195, "trialdata": {"rt": [2311, 4567, 6807, 9415, 11249, 44148], "recwords": ["scallop", "salt", "seafood", "pigeon", "salmon", "pigeon"], "key_times": [736, 833, 935, 1130, 1252, 1913, 2090, 2311, 2528, 2660, 2900, 3920, 4278, 4362, 4567, 4901, 5095, 5243, 5465, 5756, 5912, 6243, 6544, 6656, 6807, 7090, 7364, 7504, 7705, 7873, 8104, 8352, 8483, 8757, 8826, 9415, 9920, 10061, 10283, 10539, 10689, 10804, 11249, 41328, 42114, 42390, 42530, 42652, 42792, 43236, 43483, 43667, 43745, 43851, 43927, 44148], "trial_type": "free-recall", "conditions": [24, 800, "v", 12000], "internal_node_id": "0.0-150.0-0.0", "key_presses": [83, 67, 65, 76, 76, 79, 80, 13, 83, 65, 76, 89, 8, 84, 13, 83, 69, 65, 70, 79, 68, 8, 79, 68, 13, 80, 73, 71, 69, 78, 79, 8, 8, 79, 78, 13, 83, 65, 76, 77, 79, 78, 13, 219, 79, 8, 8, 8, 8, 80, 73, 71, 69, 79, 78, 13], "trial": 4, "time_elapsed": 912036, "type": "FREE_RECALL", "trial_index": 195}, "uniqueid": "MTK1469:39ASUFLU6YEB4K6HKHNQQY9K8LFEXP", "dateTime": 1515897659344}, {"current_trial": 196, "trialdata": {"rt": 4515, "trial_type": "text", "internal_node_id": "0.0-151.0", "time_elapsed": 918553, "key_press": 13, "type": "INSTRUCTIONS", "trial_index": 196}, "uniqueid": "MTK1469:39ASUFLU6YEB4K6HKHNQQY9K8LFEXP", "dateTime": 1515897665860}, {"current_trial": 197, "trialdata": {"rt": [1163, 2571, 5392, 7648, 9757, 11194], "trial_type": "math-distractor", "key_times": [920, 1163, 2251, 2303, 2571, 4433, 4512, 5392, 7217, 7343, 7648, 9302, 9478, 9757, 10782, 10897, 11194], "responses": ["6", "12", "15", "23", "14", "16"], "num2": [1, 8, 3, 9, 4, 7, 1], "num3": [4, 2, 8, 8, 5, 2, 1], "conditions": [12, 800, "v", 12000], "internal_node_id": "0.0-152.0", "key_presses": [102, 13, 97, 98, 13, 97, 101, 13, 98, 99, 13, 97, 100, 13, 97, 102, 13], "trial": 5, "time_elapsed": 932556, "type": "DISTRACTOR", "trial_index": 197, "num1": [1, 2, 4, 6, 5, 7, 8]}, "uniqueid": "MTK1469:39ASUFLU6YEB4K6HKHNQQY9K8LFEXP", "dateTime": 1515897679862}, {"current_trial": 198, "trialdata": {"rt": -1, "trial_type": "single-stim", "stimulus": "<p id=\"stim\">10</p>", "internal_node_id": "0.0-153.0-0.0", "time_elapsed": 935558, "key_press": -1, "trial_index": 198}, "uniqueid": "MTK1469:39ASUFLU6YEB4K6HKHNQQY9K8LFEXP", "dateTime": 1515897682864}, {"current_trial": 199, "trialdata": {"rt": -1, "trial_type": "single-stim", "stimulus": "<p id=\"stim\">9</p>", "internal_node_id": "0.0-153.0-1.0", "time_elapsed": 936560, "key_press": -1, "trial_index": 199}, "uniqueid": "MTK1469:39ASUFLU6YEB4K6HKHNQQY9K8LFEXP", "dateTime": 1515897683866}, {"current_trial": 200, "trialdata": {"rt": -1, "trial_type": "single-stim", "stimulus": "<p id=\"stim\">8</p>", "internal_node_id": "0.0-153.0-2.0", "time_elapsed": 937562, "key_press": -1, "trial_index": 200}, "uniqueid": "MTK1469:39ASUFLU6YEB4K6HKHNQQY9K8LFEXP", "dateTime": 1515897684868}, {"current_trial": 201, "trialdata": {"rt": -1, "trial_type": "single-stim", "stimulus": "<p id=\"stim\">7</p>", "internal_node_id": "0.0-153.0-3.0", "time_elapsed": 938563, "key_press": -1, "trial_index": 201}, "uniqueid": "MTK1469:39ASUFLU6YEB4K6HKHNQQY9K8LFEXP", "dateTime": 1515897685869}, {"current_trial": 202, "trialdata": {"rt": -1, "trial_type": "single-stim", "stimulus": "<p id=\"stim\">6</p>", "internal_node_id": "0.0-153.0-4.0", "time_elapsed": 939565, "key_press": -1, "trial_index": 202}, "uniqueid": "MTK1469:39ASUFLU6YEB4K6HKHNQQY9K8LFEXP", "dateTime": 1515897686871}, {"current_trial": 203, "trialdata": {"rt": -1, "trial_type": "single-stim", "stimulus": "<p id=\"stim\">5</p>", "internal_node_id": "0.0-153.0-5.0", "time_elapsed": 940566, "key_press": -1, "trial_index": 203}, "uniqueid": "MTK1469:39ASUFLU6YEB4K6HKHNQQY9K8LFEXP", "dateTime": 1515897687873}, {"current_trial": 204, "trialdata": {"rt": -1, "trial_type": "single-stim", "stimulus": "<p id=\"stim\">4</p>", "internal_node_id": "0.0-153.0-6.0", "time_elapsed": 941568, "key_press": -1, "trial_index": 204}, "uniqueid": "MTK1469:39ASUFLU6YEB4K6HKHNQQY9K8LFEXP", "dateTime": 1515897688874}, {"current_trial": 205, "trialdata": {"rt": -1, "trial_type": "single-stim", "stimulus": "<p id=\"stim\">3</p>", "internal_node_id": "0.0-153.0-7.0", "time_elapsed": 942569, "key_press": -1, "trial_index": 205}, "uniqueid": "MTK1469:39ASUFLU6YEB4K6HKHNQQY9K8LFEXP", "dateTime": 1515897689875}, {"current_trial": 206, "trialdata": {"rt": -1, "trial_type": "single-stim", "stimulus": "<p id=\"stim\">2</p>", "internal_node_id": "0.0-153.0-8.0", "time_elapsed": 943570, "key_press": -1, "trial_index": 206}, "uniqueid": "MTK1469:39ASUFLU6YEB4K6HKHNQQY9K8LFEXP", "dateTime": 1515897690876}, {"current_trial": 207, "trialdata": {"rt": -1, "trial_type": "single-stim", "stimulus": "<p id=\"stim\">1</p>", "internal_node_id": "0.0-153.0-9.0", "time_elapsed": 944570, "key_press": -1, "trial_index": 207}, "uniqueid": "MTK1469:39ASUFLU6YEB4K6HKHNQQY9K8LFEXP", "dateTime": 1515897691876}, {"current_trial": 208, "trialdata": {"rt": -1, "trial_type": "single-stim", "stimulus": "<p id=\"stim\">+</p>", "internal_node_id": "0.0-154.0-0.0", "time_elapsed": 946071, "key_press": -1, "type": "FIXATION", "trial_index": 208}, "uniqueid": "MTK1469:39ASUFLU6YEB4K6HKHNQQY9K8LFEXP", "dateTime": 1515897693378}, {"current_trial": 209, "trialdata": {"rt": -1, "trial_type": "single-stim", "word": "truck", "stimulus": "<p id=\"stim\">TRUCK</p>", "conditions": [12, 800, "v", 12000], "internal_node_id": "0.0-155.0", "trial": 5, "time_elapsed": 946873, "serialpos": 0, "key_press": -1, "wordID": 1511, "type": "PRES_VIS", "trial_index": 209}, "uniqueid": "MTK1469:39ASUFLU6YEB4K6HKHNQQY9K8LFEXP", "dateTime": 1515897694179}, {"current_trial": 210, "trialdata": {"rt": -1, "trial_type": "single-stim", "word": "tutu", "stimulus": "<p id=\"stim\">TUTU</p>", "conditions": [12, 800, "v", 12000], "internal_node_id": "0.0-156.0", "trial": 5, "time_elapsed": 948559, "serialpos": 1, "key_press": -1, "wordID": 1523, "type": "PRES_VIS", "trial_index": 210}, "uniqueid": "MTK1469:39ASUFLU6YEB4K6HKHNQQY9K8LFEXP", "dateTime": 1515897695865}, {"current_trial": 211, "trialdata": {"rt": -1, "trial_type": "single-stim", "word": "barrel", "stimulus": "<p id=\"stim\">BARREL</p>", "conditions": [12, 800, "v", 12000], "internal_node_id": "0.0-157.0", "trial": 5, "time_elapsed": 950264, "serialpos": 2, "key_press": -1, "wordID": 90, "type": "PRES_VIS", "trial_index": 211}, "uniqueid": "MTK1469:39ASUFLU6YEB4K6HKHNQQY9K8LFEXP", "dateTime": 1515897697570}, {"current_trial": 212, "trialdata": {"rt": -1, "trial_type": "single-stim", "word": "shorts", "stimulus": "<p id=\"stim\">SHORTS</p>", "conditions": [12, 800, "v", 12000], "internal_node_id": "0.0-158.0", "trial": 5, "time_elapsed": 951910, "serialpos": 3, "key_press": -1, "wordID": 1292, "type": "PRES_VIS", "trial_index": 212}, "uniqueid": "MTK1469:39ASUFLU6YEB4K6HKHNQQY9K8LFEXP", "dateTime": 1515897699216}, {"current_trial": 213, "trialdata": {"rt": -1, "trial_type": "single-stim", "word": "piano", "stimulus": "<p id=\"stim\">PIANO</p>", "conditions": [12, 800, "v", 12000], "internal_node_id": "0.0-159.0", "trial": 5, "time_elapsed": 953799, "serialpos": 4, "key_press": -1, "wordID": 1056, "type": "PRES_VIS", "trial_index": 213}, "uniqueid": "MTK1469:39ASUFLU6YEB4K6HKHNQQY9K8LFEXP", "dateTime": 1515897701105}, {"current_trial": 214, "trialdata": {"rt": -1, "trial_type": "single-stim", "word": "handbag", "stimulus": "<p id=\"stim\">HANDBAG</p>", "conditions": [12, 800, "v", 12000], "internal_node_id": "0.0-160.0", "trial": 5, "time_elapsed": 955746, "serialpos": 5, "key_press": -1, "wordID": 683, "type": "PRES_VIS", "trial_index": 214}, "uniqueid": "MTK1469:39ASUFLU6YEB4K6HKHNQQY9K8LFEXP", "dateTime": 1515897703052}, {"current_trial": 215, "trialdata": {"rt": -1, "trial_type": "single-stim", "word": "airport", "stimulus": "<p id=\"stim\">AIRPORT</p>", "conditions": [12, 800, "v", 12000], "internal_node_id": "0.0-161.0", "trial": 5, "time_elapsed": 957691, "serialpos": 6, "key_press": -1, "wordID": 12, "type": "PRES_VIS", "trial_index": 215}, "uniqueid": "MTK1469:39ASUFLU6YEB4K6HKHNQQY9K8LFEXP", "dateTime": 1515897704997}, {"current_trial": 216, "trialdata": {"rt": -1, "trial_type": "single-stim", "word": "gavel", "stimulus": "<p id=\"stim\">GAVEL</p>", "conditions": [12, 800, "v", 12000], "internal_node_id": "0.0-162.0", "trial": 5, "time_elapsed": 959603, "serialpos": 7, "key_press": -1, "wordID": 626, "type": "PRES_VIS", "trial_index": 216}, "uniqueid": "MTK1469:39ASUFLU6YEB4K6HKHNQQY9K8LFEXP", "dateTime": 1515897706909}, {"current_trial": 217, "trialdata": {"rt": -1, "trial_type": "single-stim", "word": "compass", "stimulus": "<p id=\"stim\">COMPASS</p>", "conditions": [12, 800, "v", 12000], "internal_node_id": "0.0-163.0", "trial": 5, "time_elapsed": 961258, "serialpos": 8, "key_press": -1, "wordID": 357, "type": "PRES_VIS", "trial_index": 217}, "uniqueid": "MTK1469:39ASUFLU6YEB4K6HKHNQQY9K8LFEXP", "dateTime": 1515897708564}, {"current_trial": 218, "trialdata": {"rt": -1, "trial_type": "single-stim", "word": "peanut", "stimulus": "<p id=\"stim\">PEANUT</p>", "conditions": [12, 800, "v", 12000], "internal_node_id": "0.0-164.0", "trial": 5, "time_elapsed": 963016, "serialpos": 9, "key_press": -1, "wordID": 1031, "type": "PRES_VIS", "trial_index": 218}, "uniqueid": "MTK1469:39ASUFLU6YEB4K6HKHNQQY9K8LFEXP", "dateTime": 1515897710322}, {"current_trial": 219, "trialdata": {"rt": -1, "trial_type": "single-stim", "word": "pecan", "stimulus": "<p id=\"stim\">PECAN</p>", "conditions": [12, 800, "v", 12000], "internal_node_id": "0.0-165.0", "trial": 5, "time_elapsed": 964633, "serialpos": 10, "key_press": -1, "wordID": 1035, "type": "PRES_VIS", "trial_index": 219}, "uniqueid": "MTK1469:39ASUFLU6YEB4K6HKHNQQY9K8LFEXP", "dateTime": 1515897711939}, {"current_trial": 220, "trialdata": {"rt": -1, "trial_type": "single-stim", "word": "gallon", "stimulus": "<p id=\"stim\">GALLON</p>", "conditions": [12, 800, "v", 12000], "internal_node_id": "0.0-166.0", "trial": 5, "time_elapsed": 966623, "serialpos": 11, "key_press": -1, "wordID": 617, "type": "PRES_VIS", "trial_index": 220}, "uniqueid": "MTK1469:39ASUFLU6YEB4K6HKHNQQY9K8LFEXP", "dateTime": 1515897713929}, {"current_trial": 221, "trialdata": {"rt": -1, "trial_type": "single-stim", "stimulus": "", "internal_node_id": "0.0-167.0-0.0", "time_elapsed": 968887, "key_press": -1, "type": "PRE_RECALL_DELAY", "trial_index": 221}, "uniqueid": "MTK1469:39ASUFLU6YEB4K6HKHNQQY9K8LFEXP", "dateTime": 1515897716193}, {"current_trial": 222, "trialdata": {"rt": -1000, "trial_type": "single-audio", "stimulus": "/static/audio/400Hz.wav", "internal_node_id": "0.0-168.0", "time_elapsed": 969388, "key_press": -1, "type": "PRE_RECALL_ALERT", "trial_index": 222}, "uniqueid": "MTK1469:39ASUFLU6YEB4K6HKHNQQY9K8LFEXP", "dateTime": 1515897716694}, {"current_trial": 223, "trialdata": {"rt": [1689, 3329, 4604, 12253], "recwords": ["truck", "barrell", "peanut", "gravel"], "key_times": [997, 1066, 1204, 1352, 1485, 1689, 1943, 2045, 2232, 2659, 2861, 2994, 3125, 3329, 3819, 3929, 4068, 4208, 4271, 4391, 4604, 11447, 11499, 11717, 11885, 11954, 12112, 12253], "trial_type": "free-recall", "conditions": [12, 800, "v", 12000], "internal_node_id": "0.0-169.0-0.0", "key_presses": [84, 82, 85, 67, 75, 13, 66, 65, 82, 82, 69, 76, 76, 13, 80, 69, 65, 78, 85, 84, 13, 71, 82, 65, 86, 69, 76, 13], "trial": 5, "time_elapsed": 1029390, "type": "FREE_RECALL", "trial_index": 223}, "uniqueid": "MTK1469:39ASUFLU6YEB4K6HKHNQQY9K8LFEXP", "dateTime": 1515897776699}, {"current_trial": 224, "trialdata": {"rt": 1420, "trial_type": "text", "internal_node_id": "0.0-170.0", "time_elapsed": 1032814, "key_press": 13, "type": "INSTRUCTIONS", "trial_index": 224}, "uniqueid": "MTK1469:39ASUFLU6YEB4K6HKHNQQY9K8LFEXP", "dateTime": 1515897780120}, {"current_trial": 225, "trialdata": {"rt": [2191, 3801, 5739, 8363, 10050, 11435], "trial_type": "math-distractor", "key_times": [1826, 1931, 2191, 3530, 3801, 5311, 5408, 5739, 6027, 6774, 6914, 7026, 7962, 8058, 8363, 9748, 9809, 10050, 11236, 11435], "responses": ["17", "8", "13", "19", "15", "8"], "num2": [1, 6, 2, 9, 8, 4, 9], "num3": [9, 1, 8, 5, 3, 1, 4], "conditions": [24, 800, "v", 12000], "internal_node_id": "0.0-171.0", "key_presses": [97, 103, 13, 104, 13, 97, 99, 13, 96, 8, 8, 8, 97, 105, 13, 97, 101, 13, 104, 13], "trial": 6, "time_elapsed": 1046816, "type": "DISTRACTOR", "trial_index": 225, "num1": [7, 1, 3, 5, 4, 3, 1]}, "uniqueid": "MTK1469:39ASUFLU6YEB4K6HKHNQQY9K8LFEXP", "dateTime": 1515897794122}, {"current_trial": 226, "trialdata": {"rt": -1, "trial_type": "single-stim", "stimulus": "<p id=\"stim\">10</p>", "internal_node_id": "0.0-172.0-0.0", "time_elapsed": 1049818, "key_press": -1, "trial_index": 226}, "uniqueid": "MTK1469:39ASUFLU6YEB4K6HKHNQQY9K8LFEXP", "dateTime": 1515897797124}, {"current_trial": 227, "trialdata": {"rt": -1, "trial_type": "single-stim", "stimulus": "<p id=\"stim\">9</p>", "internal_node_id": "0.0-172.0-1.0", "time_elapsed": 1050822, "key_press": -1, "trial_index": 227}, "uniqueid": "MTK1469:39ASUFLU6YEB4K6HKHNQQY9K8LFEXP", "dateTime": 1515897798129}, {"current_trial": 228, "trialdata": {"rt": -1, "trial_type": "single-stim", "stimulus": "<p id=\"stim\">8</p>", "internal_node_id": "0.0-172.0-2.0", "time_elapsed": 1051827, "key_press": -1, "trial_index": 228}, "uniqueid": "MTK1469:39ASUFLU6YEB4K6HKHNQQY9K8LFEXP", "dateTime": 1515897799134}, {"current_trial": 229, "trialdata": {"rt": -1, "trial_type": "single-stim", "stimulus": "<p id=\"stim\">7</p>", "internal_node_id": "0.0-172.0-3.0", "time_elapsed": 1052830, "key_press": -1, "trial_index": 229}, "uniqueid": "MTK1469:39ASUFLU6YEB4K6HKHNQQY9K8LFEXP", "dateTime": 1515897800136}, {"current_trial": 230, "trialdata": {"rt": -1, "trial_type": "single-stim", "stimulus": "<p id=\"stim\">6</p>", "internal_node_id": "0.0-172.0-4.0", "time_elapsed": 1053832, "key_press": -1, "trial_index": 230}, "uniqueid": "MTK1469:39ASUFLU6YEB4K6HKHNQQY9K8LFEXP", "dateTime": 1515897801138}, {"current_trial": 231, "trialdata": {"rt": -1, "trial_type": "single-stim", "stimulus": "<p id=\"stim\">5</p>", "internal_node_id": "0.0-172.0-5.0", "time_elapsed": 1054832, "key_press": -1, "trial_index": 231}, "uniqueid": "MTK1469:39ASUFLU6YEB4K6HKHNQQY9K8LFEXP", "dateTime": 1515897802138}, {"current_trial": 232, "trialdata": {"rt": -1, "trial_type": "single-stim", "stimulus": "<p id=\"stim\">4</p>", "internal_node_id": "0.0-172.0-6.0", "time_elapsed": 1055834, "key_press": -1, "trial_index": 232}, "uniqueid": "MTK1469:39ASUFLU6YEB4K6HKHNQQY9K8LFEXP", "dateTime": 1515897803140}, {"current_trial": 233, "trialdata": {"rt": -1, "trial_type": "single-stim", "stimulus": "<p id=\"stim\">3</p>", "internal_node_id": "0.0-172.0-7.0", "time_elapsed": 1056837, "key_press": -1, "trial_index": 233}, "uniqueid": "MTK1469:39ASUFLU6YEB4K6HKHNQQY9K8LFEXP", "dateTime": 1515897804143}, {"current_trial": 234, "trialdata": {"rt": -1, "trial_type": "single-stim", "stimulus": "<p id=\"stim\">2</p>", "internal_node_id": "0.0-172.0-8.0", "time_elapsed": 1057838, "key_press": -1, "trial_index": 234}, "uniqueid": "MTK1469:39ASUFLU6YEB4K6HKHNQQY9K8LFEXP", "dateTime": 1515897805145}, {"current_trial": 235, "trialdata": {"rt": -1, "trial_type": "single-stim", "stimulus": "<p id=\"stim\">1</p>", "internal_node_id": "0.0-172.0-9.0", "time_elapsed": 1058839, "key_press": -1, "trial_index": 235}, "uniqueid": "MTK1469:39ASUFLU6YEB4K6HKHNQQY9K8LFEXP", "dateTime": 1515897806146}, {"current_trial": 236, "trialdata": {"rt": -1, "trial_type": "single-stim", "stimulus": "<p id=\"stim\">+</p>", "internal_node_id": "0.0-173.0-0.0", "time_elapsed": 1060341, "key_press": -1, "type": "FIXATION", "trial_index": 236}, "uniqueid": "MTK1469:39ASUFLU6YEB4K6HKHNQQY9K8LFEXP", "dateTime": 1515897807647}, {"current_trial": 237, "trialdata": {"rt": -1, "trial_type": "single-stim", "word": "apple", "stimulus": "<p id=\"stim\">APPLE</p>", "conditions": [24, 800, "v", 12000], "internal_node_id": "0.0-174.0", "trial": 6, "time_elapsed": 1061143, "serialpos": 0, "key_press": -1, "wordID": 32, "type": "PRES_VIS", "trial_index": 237}, "uniqueid": "MTK1469:39ASUFLU6YEB4K6HKHNQQY9K8LFEXP", "dateTime": 1515897808449}, {"current_trial": 238, "trialdata": {"rt": -1, "trial_type": "single-stim", "word": "slime", "stimulus": "<p id=\"stim\">SLIME</p>", "conditions": [24, 800, "v", 12000], "internal_node_id": "0.0-175.0", "trial": 6, "time_elapsed": 1062783, "serialpos": 1, "key_press": -1, "wordID": 1326, "type": "PRES_VIS", "trial_index": 238}, "uniqueid": "MTK1469:39ASUFLU6YEB4K6HKHNQQY9K8LFEXP", "dateTime": 1515897810089}, {"current_trial": 239, "trialdata": {"rt": -1, "trial_type": "single-stim", "word": "seagull", "stimulus": "<p id=\"stim\">SEAGULL</p>", "conditions": [24, 800, "v", 12000], "internal_node_id": "0.0-176.0", "trial": 6, "time_elapsed": 1064486, "serialpos": 2, "key_press": -1, "wordID": 1260, "type": "PRES_VIS", "trial_index": 239}, "uniqueid": "MTK1469:39ASUFLU6YEB4K6HKHNQQY9K8LFEXP", "dateTime": 1515897811792}, {"current_trial": 240, "trialdata": {"rt": -1, "trial_type": "single-stim", "word": "gift", "stimulus": "<p id=\"stim\">GIFT</p>", "conditions": [24, 800, "v", 12000], "internal_node_id": "0.0-177.0", "trial": 6, "time_elapsed": 1066240, "serialpos": 3, "key_press": -1, "wordID": 634, "type": "PRES_VIS", "trial_index": 240}, "uniqueid": "MTK1469:39ASUFLU6YEB4K6HKHNQQY9K8LFEXP", "dateTime": 1515897813547}, {"current_trial": 241, "trialdata": {"rt": -1, "trial_type": "single-stim", "word": "country", "stimulus": "<p id=\"stim\">COUNTRY</p>", "conditions": [24, 800, "v", 12000], "internal_node_id": "0.0-178.0", "trial": 6, "time_elapsed": 1068241, "serialpos": 4, "key_press": -1, "wordID": 387, "type": "PRES_VIS", "trial_index": 241}, "uniqueid": "MTK1469:39ASUFLU6YEB4K6HKHNQQY9K8LFEXP", "dateTime": 1515897815547}, {"current_trial": 242, "trialdata": {"rt": -1, "trial_type": "single-stim", "word": "bacon", "stimulus": "<p id=\"stim\">BACON</p>", "conditions": [24, 800, "v", 12000], "internal_node_id": "0.0-179.0", "trial": 6, "time_elapsed": 1070120, "serialpos": 5, "key_press": -1, "wordID": 66, "type": "PRES_VIS", "trial_index": 242}, "uniqueid": "MTK1469:39ASUFLU6YEB4K6HKHNQQY9K8LFEXP", "dateTime": 1515897817426}, {"current_trial": 243, "trialdata": {"rt": -1, "trial_type": "single-stim", "word": "blade", "stimulus": "<p id=\"stim\">BLADE</p>", "conditions": [24, 800, "v", 12000], "internal_node_id": "0.0-180.0", "trial": 6, "time_elapsed": 1072079, "serialpos": 6, "key_press": -1, "wordID": 133, "type": "PRES_VIS", "trial_index": 243}, "uniqueid": "MTK1469:39ASUFLU6YEB4K6HKHNQQY9K8LFEXP", "dateTime": 1515897819385}, {"current_trial": 244, "trialdata": {"rt": -1, "trial_type": "single-stim", "word": "world", "stimulus": "<p id=\"stim\">WORLD</p>", "conditions": [24, 800, "v", 12000], "internal_node_id": "0.0-181.0", "trial": 6, "time_elapsed": 1073835, "serialpos": 7, "key_press": -1, "wordID": 1621, "type": "PRES_VIS", "trial_index": 244}, "uniqueid": "MTK1469:39ASUFLU6YEB4K6HKHNQQY9K8LFEXP", "dateTime": 1515897821141}, {"current_trial": 245, "trialdata": {"rt": -1, "trial_type": "single-stim", "word": "girl", "stimulus": "<p id=\"stim\">GIRL</p>", "conditions": [24, 800, "v", 12000], "internal_node_id": "0.0-182.0", "trial": 6, "time_elapsed": 1075519, "serialpos": 8, "key_press": -1, "wordID": 636, "type": "PRES_VIS", "trial_index": 245}, "uniqueid": "MTK1469:39ASUFLU6YEB4K6HKHNQQY9K8LFEXP", "dateTime": 1515897822825}, {"current_trial": 246, "trialdata": {"rt": -1, "trial_type": "single-stim", "word": "child", "stimulus": "<p id=\"stim\">CHILD</p>", "conditions": [24, 800, "v", 12000], "internal_node_id": "0.0-183.0", "trial": 6, "time_elapsed": 1077345, "serialpos": 9, "key_press": -1, "wordID": 298, "type": "PRES_VIS", "trial_index": 246}, "uniqueid": "MTK1469:39ASUFLU6YEB4K6HKHNQQY9K8LFEXP", "dateTime": 1515897824651}, {"current_trial": 247, "trialdata": {"rt": -1, "trial_type": "single-stim", "word": "freezer", "stimulus": "<p id=\"stim\">FREEZER</p>", "conditions": [24, 800, "v", 12000], "internal_node_id": "0.0-184.0", "trial": 6, "time_elapsed": 1079154, "serialpos": 10, "key_press": -1, "wordID": 603, "type": "PRES_VIS", "trial_index": 247}, "uniqueid": "MTK1469:39ASUFLU6YEB4K6HKHNQQY9K8LFEXP", "dateTime": 1515897826460}, {"current_trial": 248, "trialdata": {"rt": -1, "trial_type": "single-stim", "word": "hound", "stimulus": "<p id=\"stim\">HOUND</p>", "conditions": [24, 800, "v", 12000], "internal_node_id": "0.0-185.0", "trial": 6, "time_elapsed": 1080950, "serialpos": 11, "key_press": -1, "wordID": 723, "type": "PRES_VIS", "trial_index": 248}, "uniqueid": "MTK1469:39ASUFLU6YEB4K6HKHNQQY9K8LFEXP", "dateTime": 1515897828256}, {"current_trial": 249, "trialdata": {"rt": -1, "trial_type": "single-stim", "word": "lodge", "stimulus": "<p id=\"stim\">LODGE</p>", "conditions": [24, 800, "v", 12000], "internal_node_id": "0.0-186.0", "trial": 6, "time_elapsed": 1082894, "serialpos": 12, "key_press": -1, "wordID": 838, "type": "PRES_VIS", "trial_index": 