{"assignmentId": "3TEM0PF1Q64YFOM6LANZB24OZPO0DT", "workerId": "MTK1718", "questiondata": {"avail_screen_height": 728, "color_depth": 24, "screen_width": 1366, "pixel_depth": 24, "avail_screen_width": 1366, "screen_height": 768}, "bonus": 0, "hitId": "366FYU4PTGW3X09GVW3ZBK5YVGUKEG", "counterbalance": 1088, "useragent": "Mozilla/5.0 (Windows NT 6.1) AppleWebKit/537.36 (KHTML, like Gecko) Chrome/63.0.3239.132 Safari/537.36", "eventdata": [{"eventtype": "initialized", "interval": 0, "value": null, "timestamp": 1516131303846}, {"eventtype": "window_resize", "interval": 0, "value": [1366, 722], "timestamp": 1516131303846}, {"eventtype": "focus", "interval": 8363, "value": "off", "timestamp": 1516131312209}, {"eventtype": "focus", "interval": 8215, "value": "on", "timestamp": 1516131320424}, {"eventtype": "focus", "interval": 4803, "value": "off", "timestamp": 1516131325227}, {"eventtype": "focus", "interval": 1779, "value": "on", "timestamp": 1516131327006}, {"eventtype": "focus", "interval": 1287, "value": "off", "timestamp": 1516131328293}, {"eventtype": "focus", "interval": 24953, "value": "on", "timestamp": 1516131353246}, {"eventtype": "focus", "interval": 2140, "value": "off", "timestamp": 1516131355386}, {"eventtype": "focus", "interval": 17066, "value": "on", "timestamp": 1516131372452}, {"eventtype": "focus", "interval": 17896, "value": "off", "timestamp": 1516131390348}, {"eventtype": "focus", "interval": 1, "value": "on", "timestamp": 1516131390349}, {"eventtype": "focus", "interval": 86926, "value": "off", "timestamp": 1516131477275}, {"eventtype": "focus", "interval": 3, "value": "on", "timestamp": 1516131477278}, {"eventtype": "focus", "interval": 351530, "value": "off", "timestamp": 1516131828808}, {"eventtype": "focus", "interval": 17356, "value": "on", "timestamp": 1516131846164}, {"eventtype": "focus", "interval": 251000, "value": "off", "timestamp": 1516132097164}, {"eventtype": "focus", "interval": 16777, "value": "on", "timestamp": 1516132113941}, {"eventtype": "focus", "interval": 162220, "value": "off", "timestamp": 1516132276161}, {"eventtype": "focus", "interval": 17351, "value": "on", "timestamp": 1516132293512}, {"eventtype": "focus", "interval": 215559, "value": "off", "timestamp": 1516132509071}, {"eventtype": "focus", "interval": 29681, "value": "on", "timestamp": 1516132538752}, {"eventtype": "focus", "interval": 293490, "value": "off", "timestamp": 1516132832242}, {"eventtype": "focus", "interval": 77650, "value": "on", "timestamp": 1516132909892}, {"eventtype": "focus", "interval": 156369, "value": "off", "timestamp": 1516133066261}, {"eventtype": "focus", "interval": 9794, "value": "on", "timestamp": 1516133076055}, {"eventtype": "focus", "interval": 278977, "value": "off", "timestamp": 1516133355032}, {"eventtype": "focus", "interval": 2836, "value": "on", "timestamp": 1516133357868}, {"eventtype": "focus", "interval": 11968, "value": "off", "timestamp": 1516133369836}, {"eventtype": "focus", "interval": 10604, "value": "on", "timestamp": 1516133380440}, {"eventtype": "focus", "interval": 313147, "value": "off", "timestamp": 1516133693587}, {"eventtype": "focus", "interval": 7512, "value": "on", "timestamp": 1516133701099}, {"eventtype": "focus", "interval": 270350, "value": "off", "timestamp": 1516133971449}, {"eventtype": "focus", "interval": 13080, "value": "on", "timestamp": 1516133984529}, {"eventtype": "focus", "interval": 87087, "value": "off", "timestamp": 1516134071616}, {"eventtype": "focus", "interval": 12540, "value": "on", "timestamp": 1516134084156}, {"eventtype": "focus", "interval": 18965, "value": "off", "timestamp": 1516134103121}, {"eventtype": "focus", "interval": 15459, "value": "on", "timestamp": 1516134118580}, {"eventtype": "focus", "interval": 65407, "value": "off", "timestamp": 1516134183987}, {"eventtype": "focus", "interval": 34634, "value": "on", "timestamp": 1516134218621}], "data": [{"current_trial": 0, "trialdata": {"rt": 23366, "trial_type": "text", "internal_node_id": "0.0-0.0", "time_elapsed": 23368, "key_press": 32, "type": "INSTRUCTIONS", "trial_index": 0}, "uniqueid": "MTK1718:3TEM0PF1Q64YFOM6LANZB24OZPO0DT", "dateTime": 1516131374107}, {"current_trial": 1, "trialdata": {"rt": 12925, "trial_type": "text", "internal_node_id": "0.0-1.0", "time_elapsed": 36297, "key_press": 32, "type": "INSTRUCTIONS", "trial_index": 1}, "uniqueid": "MTK1718:3TEM0PF1Q64YFOM6LANZB24OZPO0DT", "dateTime": 1516131387034}, {"current_trial": 2, "trialdata": {"rt": [1545, 8249], "trial_type": "audio-test", "responses": ["", "ocean"], "internal_node_id": "0.0-2.0", "time_elapsed": 44569, "type": "AUDIO_TEST", "trial_index": 2}, "uniqueid": "MTK1718:3TEM0PF1Q64YFOM6LANZB24OZPO0DT", "dateTime": 1516131395306}, {"current_trial": 3, "trialdata": {"rt": [9714], "trial_type": "audio-test", "responses": ["crystal"], "internal_node_id": "0.0-3.0", "time_elapsed": 54290, "type": "AUDIO_TEST", "trial_index": 3}, "uniqueid": "MTK1718:3TEM0PF1Q64YFOM6LANZB24OZPO0DT", "dateTime": 1516131405027}, {"current_trial": 4, "trialdata": {"rt": [4489, 82818], "trial_type": "audio-test", "responses": ["", "spice"], "internal_node_id": "0.0-4.0", "time_elapsed": 137116, "type": "AUDIO_TEST", "trial_index": 4}, "uniqueid": "MTK1718:3TEM0PF1Q64YFOM6LANZB24OZPO0DT", "dateTime": 1516131487854}, {"current_trial": 5, "trialdata": {"rt": 25491, "trial_type": "survey-text", "responses": "{\"Q0\":\"3:30\",\"Q1\":\"10\",\"Q2\":\"3\"}", "internal_node_id": "0.0-5.0", "time_elapsed": 163361, "type": "SLEEP_SURVEY", "trial_index": 5}, "uniqueid": "MTK1718:3TEM0PF1Q64YFOM6LANZB24OZPO0DT", "dateTime": 1516131514099}, {"current_trial": 6, "trialdata": {"rt": 35204, "trial_type": "text", "internal_node_id": "0.0-6.0", "time_elapsed": 199566, "key_press": 32, "type": "INSTRUCTIONS", "trial_index": 6}, "uniqueid": "MTK1718:3TEM0PF1Q64YFOM6LANZB24OZPO0DT", "dateTime": 1516131550304}, {"current_trial": 7, "trialdata": {"rt": 15967, "trial_type": "text", "internal_node_id": "0.0-7.0", "time_elapsed": 216035, "key_press": 32, "type": "INSTRUCTIONS", "trial_index": 7}, "uniqueid": "MTK1718:3TEM0PF1Q64YFOM6LANZB24OZPO0DT", "dateTime": 1516131566772}, {"current_trial": 8, "trialdata": {"rt": 7849, "trial_type": "text", "internal_node_id": "0.0-8.0", "time_elapsed": 224384, "key_press": 32, "type": "INSTRUCTIONS", "trial_index": 8}, "uniqueid": "MTK1718:3TEM0PF1Q64YFOM6LANZB24OZPO0DT", "dateTime": 1516131575121}, {"current_trial": 9, "trialdata": {"rt": [3630, 6187, 8353, 13151, 17623], "trial_type": "math-distractor", "key_times": [2809, 3150, 3630, 5186, 5853, 6187, 7894, 8353, 12245, 12462, 13151, 17212, 17368, 17623], "responses": ["17", "17", "4", "19", "20"], "num2": [7, 6, 1, 4, 9, 3], "num3": [9, 7, 2, 7, 4, 6], "conditions": [18, 1200, "a", 18000], "internal_node_id": "0.0-9.0", "key_presses": [49, 55, 13, 49, 55, 13, 52, 13, 49, 57, 13, 50, 48, 13], "trial": 0, "time_elapsed": 243393, "type": "DISTRACTOR", "trial_index": 9, "num1": [1, 4, 1, 8, 7, 1]}, "uniqueid": "MTK1718:3TEM0PF1Q64YFOM6LANZB24OZPO0DT", "dateTime": 1516131594130}, {"current_trial": 10, "trialdata": {"rt": -1, "trial_type": "single-stim", "stimulus": "<p id=\"stim\">10</p>", "internal_node_id": "0.0-10.0-0.0", "time_elapsed": 246396, "key_press": -1, "trial_index": 10}, "uniqueid": "MTK1718:3TEM0PF1Q64YFOM6LANZB24OZPO0DT", "dateTime": 1516131597133}, {"current_trial": 11, "trialdata": {"rt": -1, "trial_type": "single-stim", "stimulus": "<p id=\"stim\">9</p>", "internal_node_id": "0.0-10.0-1.0", "time_elapsed": 247397, "key_press": -1, "trial_index": 11}, "uniqueid": "MTK1718:3TEM0PF1Q64YFOM6LANZB24OZPO0DT", "dateTime": 1516131598134}, {"current_trial": 12, "trialdata": {"rt": -1, "trial_type": "single-stim", "stimulus": "<p id=\"stim\">8</p>", "internal_node_id": "0.0-10.0-2.0", "time_elapsed": 248397, "key_press": -1, "trial_index": 12}, "uniqueid": "MTK1718:3TEM0PF1Q64YFOM6LANZB24OZPO0DT", "dateTime": 1516131599134}, {"current_trial": 13, "trialdata": {"rt": -1, "trial_type": "single-stim", "stimulus": "<p id=\"stim\">7</p>", "internal_node_id": "0.0-10.0-3.0", "time_elapsed": 249398, "key_press": -1, "trial_index": 13}, "uniqueid": "MTK1718:3TEM0PF1Q64YFOM6LANZB24OZPO0DT", "dateTime": 1516131600135}, {"current_trial": 14, "trialdata": {"rt": -1, "trial_type": "single-stim", "stimulus": "<p id=\"stim\">6</p>", "internal_node_id": "0.0-10.0-4.0", "time_elapsed": 250399, "key_press": -1, "trial_index": 14}, "uniqueid": "MTK1718:3TEM0PF1Q64YFOM6LANZB24OZPO0DT", "dateTime": 1516131601136}, {"current_trial": 15, "trialdata": {"rt": -1, "trial_type": "single-stim", "stimulus": "<p id=\"stim\">5</p>", "internal_node_id": "0.0-10.0-5.0", "time_elapsed": 251399, "key_press": -1, "trial_index": 15}, "uniqueid": "MTK1718:3TEM0PF1Q64YFOM6LANZB24OZPO0DT", "dateTime": 1516131602137}, {"current_trial": 16, "trialdata": {"rt": -1, "trial_type": "single-stim", "stimulus": "<p id=\"stim\">4</p>", "internal_node_id": "0.0-10.0-6.0", "time_elapsed": 252401, "key_press": -1, "trial_index": 16}, "uniqueid": "MTK1718:3TEM0PF1Q64YFOM6LANZB24OZPO0DT", "dateTime": 1516131603138}, {"current_trial": 17, "trialdata": {"rt": -1, "trial_type": "single-stim", "stimulus": "<p id=\"stim\">3</p>", "internal_node_id": "0.0-10.0-7.0", "time_elapsed": 253402, "key_press": -1, "trial_index": 17}, "uniqueid": "MTK1718:3TEM0PF1Q64YFOM6LANZB24OZPO0DT", "dateTime": 1516131604139}, {"current_trial": 18, "trialdata": {"rt": -1, "trial_type": "single-stim", "stimulus": "<p id=\"stim\">2</p>", "internal_node_id": "0.0-10.0-8.0", "time_elapsed": 254403, "key_press": -1, "trial_index": 18}, "uniqueid": "MTK1718:3TEM0PF1Q64YFOM6LANZB24OZPO0DT", "dateTime": 1516131605140}, {"current_trial": 19, "trialdata": {"rt": -1, "trial_type": "single-stim", "stimulus": "<p id=\"stim\">1</p>", "internal_node_id": "0.0-10.0-9.0", "time_elapsed": 255404, "key_press": -1, "trial_index": 19}, "uniqueid": "MTK1718:3TEM0PF1Q64YFOM6LANZB24OZPO0DT", "dateTime": 1516131606141}, {"current_trial": 20, "trialdata": {"rt": -1, "trial_type": "single-stim", "stimulus": "<p id=\"stim\">+</p>", "internal_node_id": "0.0-11.0-0.0", "time_elapsed": 256905, "key_press": -1, "type": "FIXATION", "trial_index": 20}, "uniqueid": "MTK1718:3TEM0PF1Q64YFOM6LANZB24OZPO0DT", "dateTime": 1516131607642}, {"current_trial": 21, "trialdata": {"rt": -1000, "trial_type": "single-audio", "word": "gallon", "stimulus": "/static/audio/wordpool/GALLON.wav", "conditions": [18, 1200, "a", 18000], "internal_node_id": "0.0-12.0", "trial": 0, "time_elapsed": 258996, "serialpos": 0, "key_press": -1, "wordID": 617, "type": "PRES_AUD", "trial_index": 21}, "uniqueid": "MTK1718:3TEM0PF1Q64YFOM6LANZB24OZPO0DT", "dateTime": 1516131609733}, {"current_trial": 22, "trialdata": {"rt": -1000, "trial_type": "single-audio", "word": "globe", "stimulus": "/static/audio/wordpool/GLOBE.wav", "conditions": [18, 1200, "a", 18000], "internal_node_id": "0.0-13.0", "trial": 0, "time_elapsed": 261195, "serialpos": 1, "key_press": -1, "wordID": 640, "type": "PRES_AUD", "trial_index": 22}, "uniqueid": "MTK1718:3TEM0PF1Q64YFOM6LANZB24OZPO0DT", "dateTime": 1516131611932}, {"current_trial": 23, "trialdata": {"rt": 407.9365079364834, "trial_type": "single-audio", "word": "child", "stimulus": "/static/audio/wordpool/CHILD.wav", "conditions": [18, 1200, "a", 18000], "internal_node_id": "0.0-14.0", "trial": 0, "time_elapsed": 263483, "serialpos": 2, "key_press": 175, "wordID": 298, "type": "PRES_AUD", "trial_index": 23}, "uniqueid": "MTK1718:3TEM0PF1Q64YFOM6LANZB24OZPO0DT", "dateTime": 1516131614220}, {"current_trial": 24, "trialdata": {"rt": -1000, "trial_type": "single-audio", "word": "iceberg", "stimulus": "/static/audio/wordpool/ICEBERG.wav", "conditions": [18, 1200, "a", 18000], "internal_node_id": "0.0-15.0", "trial": 0, "time_elapsed": 265660, "serialpos": 3, "key_press": -1, "wordID": 730, "type": "PRES_AUD", "trial_index": 24}, "uniqueid": "MTK1718:3TEM0PF1Q64YFOM6LANZB24OZPO0DT", "dateTime": 1516131616397}, {"current_trial": 25, "trialdata": {"rt": -1000, "trial_type": "single-audio", "word": "shelf", "stimulus": "/static/audio/wordpool/SHELF.wav", "conditions": [18, 1200, "a", 18000], "internal_node_id": "0.0-16.0", "trial": 0, "time_elapsed": 267673, "serialpos": 4, "key_press": -1, "wordID": 1279, "type": "PRES_AUD", "trial_index": 25}, "uniqueid": "MTK1718:3TEM0PF1Q64YFOM6LANZB24OZPO0DT", "dateTime": 1516131618410}, {"current_trial": 26, "trialdata": {"rt": -1000, "trial_type": "single-audio", "word": "machine", "stimulus": "/static/audio/wordpool/MACHINE.wav", "conditions": [18, 1200, "a", 18000], "internal_node_id": "0.0-17.0", "trial": 0, "time_elapsed": 269770, "serialpos": 5, "key_press": -1, "wordID": 851, "type": "PRES_AUD", "trial_index": 26}, "uniqueid": "MTK1718:3TEM0PF1Q64YFOM6LANZB24OZPO0DT", "dateTime": 1516131620507}, {"current_trial": 27, "trialdata": {"rt": -1000, "trial_type": "single-audio", "word": "razor", "stimulus": "/static/audio/wordpool/RAZOR.wav", "conditions": [18, 1200, "a", 18000], "internal_node_id": "0.0-18.0", "trial": 0, "time_elapsed": 271849, "serialpos": 6, "key_press": -1, "wordID": 1170, "type": "PRES_AUD", "trial_index": 27}, "uniqueid": "MTK1718:3TEM0PF1Q64YFOM6LANZB24OZPO0DT", "dateTime": 1516131622586}, {"current_trial": 28, "trialdata": {"rt": -1000, "trial_type": "single-audio", "word": "lace", "stimulus": "/static/audio/wordpool/LACE.wav", "conditions": [18, 1200, "a", 18000], "internal_node_id": "0.0-19.0", "trial": 0, "time_elapsed": 273989, "serialpos": 7, "key_press": -1, "wordID": 791, "type": "PRES_AUD", "trial_index": 28}, "uniqueid": "MTK1718:3TEM0PF1Q64YFOM6LANZB24OZPO0DT", "dateTime": 1516131624726}, {"current_trial": 29, "trialdata": {"rt": -1000, "trial_type": "single-audio", "word": "woman", "stimulus": "/static/audio/wordpool/WOMAN.wav", "conditions": [18, 1200, "a", 18000], "internal_node_id": "0.0-20.0", "trial": 0, "time_elapsed": 276156, "serialpos": 8, "key_press": -1, "wordID": 1619, "type": "PRES_AUD", "trial_index": 29}, "uniqueid": "MTK1718:3TEM0PF1Q64YFOM6LANZB24OZPO0DT", "dateTime": 1516131626893}, {"current_trial": 30, "trialdata": {"rt": -1000, "trial_type": "single-audio", "word": "radish", "stimulus": "/static/audio/wordpool/RADISH.wav", "conditions": [18, 1200, "a", 18000], "internal_node_id": "0.0-21.0", "trial": 0, "time_elapsed": 278507, "serialpos": 9, "key_press": -1, "wordID": 1157, "type": "PRES_AUD", "trial_index": 30}, "uniqueid": "MTK1718:3TEM0PF1Q64YFOM6LANZB24OZPO0DT", "dateTime": 1516131629244}, {"current_trial": 31, "trialdata": {"rt": -1000, "trial_type": "single-audio", "word": "venus", "stimulus": "/static/audio/wordpool/VENUS.wav", "conditions": [18, 1200, "a", 18000], "internal_node_id": "0.0-22.0", "trial": 0, "time_elapsed": 280729, "serialpos": 10, "key_press": -1, "wordID": 1556, "type": "PRES_AUD", "trial_index": 31}, "uniqueid": "MTK1718:3TEM0PF1Q64YFOM6LANZB24OZPO0DT", "dateTime": 1516131631466}, {"current_trial": 32, "trialdata": {"rt": -1000, "trial_type": "single-audio", "word": "outdoors", "stimulus": "/static/audio/wordpool/OUTDOORS.wav", "conditions": [18, 1200, "a", 18000], "internal_node_id": "0.0-23.0", "trial": 0, "time_elapsed": 283101, "serialpos": 11, "key_press": -1, "wordID": 986, "type": "PRES_AUD", "trial_index": 32}, "uniqueid": "MTK1718:3TEM0PF1Q64YFOM6LANZB24OZPO0DT", "dateTime": 1516131633838}, {"current_trial": 33, "trialdata": {"rt": -1000, "trial_type": "single-audio", "word": "lunch", "stimulus": "/static/audio/wordpool/LUNCH.wav", "conditions": [18, 1200, "a", 18000], "internal_node_id": "0.0-24.0", "trial": 0, "time_elapsed": 285457, "serialpos": 12, "key_press": -1, "wordID": 848, "type": "PRES_AUD", "trial_index": 33}, "uniqueid": "MTK1718:3TEM0PF1Q64YFOM6LANZB24OZPO0DT", "dateTime": 1516131636194}, {"current_trial": 34, "trialdata": {"rt": -1000, "trial_type": "single-audio", "word": "fungus", "stimulus": "/static/audio/wordpool/FUNGUS.wav", "conditions": [18, 1200, "a", 18000], "internal_node_id": "0.0-25.0", "trial": 0, "time_elapsed": 287503, "serialpos": 13, "key_press": -1, "wordID": 613, "type": "PRES_AUD", "trial_index": 34}, "uniqueid": "MTK1718:3TEM0PF1Q64YFOM6LANZB24OZPO0DT", "dateTime": 1516131638240}, {"current_trial": 35, "trialdata": {"rt": -1000, "trial_type": "single-audio", "word": "cook", "stimulus": "/static/audio/wordpool/COOK.wav", "conditions": [18, 1200, "a", 18000], "internal_node_id": "0.0-26.0", "trial": 0, "time_elapsed": 289682, "serialpos": 14, "key_press": -1, "wordID": 371, "type": "PRES_AUD", "trial_index": 35}, "uniqueid": "MTK1718:3TEM0PF1Q64YFOM6LANZB24OZPO0DT", "dateTime": 1516131640419}, {"current_trial": 36, "trialdata": {"rt": -1000, "trial_type": "single-audio", "word": "paddle", "stimulus": "/static/audio/wordpool/PADDLE.wav", "conditions": [18, 1200, "a", 18000], "internal_node_id": "0.0-27.0", "trial": 0, "time_elapsed": 291865, "serialpos": 15, "key_press": -1, "wordID": 999, "type": "PRES_AUD", "trial_index": 36}, "uniqueid": "MTK1718:3TEM0PF1Q64YFOM6LANZB24OZPO0DT", "dateTime": 1516131642602}, {"current_trial": 37, "trialdata": {"rt": -1000, "trial_type": "single-audio", "word": "mattress", "stimulus": "/static/audio/wordpool/MATTRESS.wav", "conditions": [18, 1200, "a", 18000], "internal_node_id": "0.0-28.0", "trial": 0, "time_elapsed": 294167, "serialpos": 16, "key_press": -1, "wordID": 878, "type": "PRES_AUD", "trial_index": 37}, "uniqueid": "MTK1718:3TEM0PF1Q64YFOM6LANZB24OZPO0DT", "dateTime": 1516131644904}, {"current_trial": 38, "trialdata": {"rt": -1000, "trial_type": "single-audio", "word": "asia", "stimulus": "/static/audio/wordpool/ASIA.wav", "conditions": [18, 1200, "a", 18000], "internal_node_id": "0.0-29.0", "trial": 0, "time_elapsed": 296437, "serialpos": 17, "key_press": -1, "wordID": 45, "type": "PRES_AUD", "trial_index": 38}, "uniqueid": "MTK1718:3TEM0PF1Q64YFOM6LANZB24OZPO0DT", "dateTime": 1516131647174}, {"current_trial": 39, "trialdata": {"rt": -1, "trial_type": "single-stim", "stimulus": "", "internal_node_id": "0.0-30.0-0.0", "time_elapsed": 297715, "key_press": -1, "type": "PRE_RECALL_DELAY", "trial_index": 39}, "uniqueid": "MTK1718:3TEM0PF1Q64YFOM6LANZB24OZPO0DT", "dateTime": 1516131648452}, {"current_trial": 40, "trialdata": {"rt": -1000, "trial_type": "single-audio", "stimulus": "/static/audio/400Hz.wav", "internal_node_id": "0.0-31.0", "time_elapsed": 298223, "key_press": -1, "type": "PRE_RECALL_ALERT", "trial_index": 40}, "uniqueid": "MTK1718:3TEM0PF1Q64YFOM6LANZB24OZPO0DT", "dateTime": 1516131648960}, {"current_trial": 41, "trialdata": {"rt": [2172, 4241, 5923, 7066, 24098, 51719, 56100], "recwords": ["gallon", "iceberg", "woman", "asia", "book", "", "girl"], "key_times": [556, 850, 1262, 1475, 1685, 1902, 2172, 2833, 2935, 3153, 3303, 3434, 3506, 3739, 4241, 5066, 5205, 5380, 5467, 5629, 5923, 6216, 6382, 6559, 6730, 7066, 22444, 22934, 23166, 23374, 24098, 51719, 55172, 55333, 55526, 55733, 56100], "trial_type": "free-recall", "conditions": [18, 1200, "a", 18000], "internal_node_id": "0.0-32.0-0.0", "key_presses": [71, 65, 76, 76, 79, 78, 13, 73, 67, 69, 66, 69, 82, 71, 13, 87, 79, 77, 65, 78, 13, 65, 83, 73, 65, 13, 66, 79, 79, 75, 13, 13, 71, 73, 82, 76, 13], "trial": 0, "time_elapsed": 358224, "type": "FREE_RECALL", "trial_index": 41}, "uniqueid": "MTK1718:3TEM0PF1Q64YFOM6LANZB24OZPO0DT", "dateTime": 1516131708965}, {"current_trial": 42, "trialdata": {"rt": 1348, "trial_type": "text", "internal_node_id": "0.0-33.0", "time_elapsed": 361578, "key_press": 32, "type": "INSTRUCTIONS", "trial_index": 42}, "uniqueid": "MTK1718:3TEM0PF1Q64YFOM6LANZB24OZPO0DT", "dateTime": 1516131712315}, {"current_trial": 43, "trialdata": {"rt": [2073, 4381, 7797, 10821, 14527, 16545], "trial_type": "math-distractor", "key_times": [1456, 1832, 2073, 4088, 4381, 7120, 7481, 7797, 9949, 10451, 10821, 14048, 14270, 14527, 16128, 16334, 16545], "responses": ["16", "7", "16", "18", "20", "11"], "num2": [2, 2, 7, 6, 9, 1, 1], "num3": [6, 4, 8, 6, 8, 7, 2], "conditions": [18, 1200, "a", 18000], "internal_node_id": "0.0-34.0", "key_presses": [49, 54, 13, 55, 13, 49, 54, 13, 49, 56, 13, 50, 48, 13, 49, 49, 13], "trial": 1, "time_elapsed": 381582, "type": "DISTRACTOR", "trial_index": 43, "num1": [8, 1, 2, 6, 3, 3, 2]}, "uniqueid": "MTK1718:3TEM0PF1Q64YFOM6LANZB24OZPO0DT", "dateTime": 1516131732319}, {"current_trial": 44, "trialdata": {"rt": -1, "trial_type": "single-stim", "stimulus": "<p id=\"stim\">10</p>", "internal_node_id": "0.0-35.0-0.0", "time_elapsed": 384583, "key_press": -1, "trial_index": 44}, "uniqueid": "MTK1718:3TEM0PF1Q64YFOM6LANZB24OZPO0DT", "dateTime": 1516131735320}, {"current_trial": 45, "trialdata": {"rt": -1, "trial_type": "single-stim", "stimulus": "<p id=\"stim\">9</p>", "internal_node_id": "0.0-35.0-1.0", "time_elapsed": 385583, "key_press": -1, "trial_index": 45}, "uniqueid": "MTK1718:3TEM0PF1Q64YFOM6LANZB24OZPO0DT", "dateTime": 1516131736321}, {"current_trial": 46, "trialdata": {"rt": -1, "trial_type": "single-stim", "stimulus": "<p id=\"stim\">8</p>", "internal_node_id": "0.0-35.0-2.0", "time_elapsed": 386585, "key_press": -1, "trial_index": 46}, "uniqueid": "MTK1718:3TEM0PF1Q64YFOM6LANZB24OZPO0DT", "dateTime": 1516131737323}, {"current_trial": 47, "trialdata": {"rt": -1, "trial_type": "single-stim", "stimulus": "<p id=\"stim\">7</p>", "internal_node_id": "0.0-35.0-3.0", "time_elapsed": 387586, "key_press": -1, "trial_index": 47}, "uniqueid": "MTK1718:3TEM0PF1Q64YFOM6LANZB24OZPO0DT", "dateTime": 1516131738324}, {"current_trial": 48, "trialdata": {"rt": -1, "trial_type": "single-stim", "stimulus": "<p id=\"stim\">6</p>", "internal_node_id": "0.0-35.0-4.0", "time_elapsed": 388587, "key_press": -1, "trial_index": 48}, "uniqueid": "MTK1718:3TEM0PF1Q64YFOM6LANZB24OZPO0DT", "dateTime": 1516131739325}, {"current_trial": 49, "trialdata": {"rt": -1, "trial_type": "single-stim", "stimulus": "<p id=\"stim\">5</p>", "internal_node_id": "0.0-35.0-5.0", "time_elapsed": 389588, "key_press": -1, "trial_index": 49}, "uniqueid": "MTK1718:3TEM0PF1Q64YFOM6LANZB24OZPO0DT", "dateTime": 1516131740326}, {"current_trial": 50, "trialdata": {"rt": -1, "trial_type": "single-stim", "stimulus": "<p id=\"stim\">4</p>", "internal_node_id": "0.0-35.0-6.0", "time_elapsed": 390589, "key_press": -1, "trial_index": 50}, "uniqueid": "MTK1718:3TEM0PF1Q64YFOM6LANZB24OZPO0DT", "dateTime": 1516131741327}, {"current_trial": 51, "trialdata": {"rt": -1, "trial_type": "single-stim", "stimulus": "<p id=\"stim\">3</p>", "internal_node_id": "0.0-35.0-7.0", "time_elapsed": 391590, "key_press": -1, "trial_index": 51}, "uniqueid": "MTK1718:3TEM0PF1Q64YFOM6LANZB24OZPO0DT", "dateTime": 1516131742327}, {"current_trial": 52, "trialdata": {"rt": -1, "trial_type": "single-stim", "stimulus": "<p id=\"stim\">2</p>", "internal_node_id": "0.0-35.0-8.0", "time_elapsed": 392590, "key_press": -1, "trial_index": 52}, "uniqueid": "MTK1718:3TEM0PF1Q64YFOM6LANZB24OZPO0DT", "dateTime": 1516131743328}, {"current_trial": 53, "trialdata": {"rt": -1, "trial_type": "single-stim", "stimulus": "<p id=\"stim\">1</p>", "internal_node_id": "0.0-35.0-9.0", "time_elapsed": 393591, "key_press": -1, "trial_index": 53}, "uniqueid": "MTK1718:3TEM0PF1Q64YFOM6LANZB24OZPO0DT", "dateTime": 1516131744329}, {"current_trial": 54, "trialdata": {"rt": -1, "trial_type": "single-stim", "stimulus": "<p id=\"stim\">+</p>", "internal_node_id": "0.0-36.0-0.0", "time_elapsed": 395093, "key_press": -1, "type": "FIXATION", "trial_index": 54}, "uniqueid": "MTK1718:3TEM0PF1Q64YFOM6LANZB24OZPO0DT", "dateTime": 1516131745830}, {"current_trial": 55, "trialdata": {"rt": -1000, "trial_type": "single-audio", "word": "rifle", "stimulus": "/static/audio/wordpool/RIFLE.wav", "conditions": [18, 1200, "a", 18000], "internal_node_id": "0.0-37.0", "trial": 1, "time_elapsed": 397256, "serialpos": 0, "key_press": -1, "wordID": 1191, "type": "PRES_AUD", "trial_index": 55}, "uniqueid": "MTK1718:3TEM0PF1Q64YFOM6LANZB24OZPO0DT", "dateTime": 1516131747993}, {"current_trial": 56, "trialdata": {"rt": 997.1428571428191, "trial_type": "single-audio", "word": "brick", "stimulus": "/static/audio/wordpool/BRICK.wav", "conditions": [18, 1200, "a", 18000], "internal_node_id": "0.0-38.0", "trial": 1, "time_elapsed": 399546, "serialpos": 1, "key_press": 175, "wordID": 171, "type": "PRES_AUD", "trial_index": 56}, "uniqueid": "MTK1718:3TEM0PF1Q64YFOM6LANZB24OZPO0DT", "dateTime": 1516131750283}, {"current_trial": 57, "trialdata": {"rt": -1000, "trial_type": "single-audio", "word": "police", "stimulus": "/static/audio/wordpool/POLICE.wav", "conditions": [18, 1200, "a", 18000], "internal_node_id": "0.0-39.0", "trial": 1, "time_elapsed": 401609, "serialpos": 2, "key_press": -1, "wordID": 1097, "type": "PRES_AUD", "trial_index": 57}, "uniqueid": "MTK1718:3TEM0PF1Q64YFOM6LANZB24OZPO0DT", "dateTime": 1516131752346}, {"current_trial": 58, "trialdata": {"rt": -1000, "trial_type": "single-audio", "word": "ointment", "stimulus": "/static/audio/wordpool/OINTMENT.wav", "conditions": [18, 1200, "a", 18000], "internal_node_id": "0.0-40.0", "trial": 1, "time_elapsed": 403898, "serialpos": 3, "key_press": -1, "wordID": 973, "type": "PRES_AUD", "trial_index": 58}, "uniqueid": "MTK1718:3TEM0PF1Q64YFOM6LANZB24OZPO0DT", "dateTime": 1516131754635}, {"current_trial": 59, "trialdata": {"rt": -1000, "trial_type": "single-audio", "word": "cafe", "stimulus": "/static/audio/wordpool/CAFE.wav", "conditions": [18, 1200, "a", 18000], "internal_node_id": "0.0-41.0", "trial": 1, "time_elapsed": 406047, "serialpos": 4, "key_press": -1, "wordID": 215, "type": "PRES_AUD", "trial_index": 59}, "uniqueid": "MTK1718:3TEM0PF1Q64YFOM6LANZB24OZPO0DT", "dateTime": 1516131756785}, {"current_trial": 60, "trialdata": {"rt": -1000, "trial_type": "single-audio", "word": "cocktail", "stimulus": "/static/audio/wordpool/COCKTAIL.wav", "conditions": [18, 1200, "a", 18000], "internal_node_id": "0.0-42.0", "trial": 1, "time_elapsed": 408077, "serialpos": 5, "key_press": -1, "wordID": 337, "type": "PRES_AUD", "trial_index": 60}, "uniqueid": "MTK1718:3TEM0PF1Q64YFOM6LANZB24OZPO0DT", "dateTime": 1516131758814}, {"current_trial": 61, "trialdata": {"rt": -1000, "trial_type": "single-audio", "word": "blockade", "stimulus": "/static/audio/wordpool/BLOCKADE.wav", "conditions": [18, 1200, "a", 18000], "internal_node_id": "0.0-43.0", "trial": 1, "time_elapsed": 410173, "serialpos": 6, "key_press": -1, "wordID": 136, "type": "PRES_AUD", "trial_index": 61}, "uniqueid": "MTK1718:3TEM0PF1Q64YFOM6LANZB24OZPO0DT", "dateTime": 1516131760910}, {"current_trial": 62, "trialdata": {"rt": -1000, "trial_type": "single-audio", "word": "permit", "stimulus": "/static/audio/wordpool/PERMIT.wav", "conditions": [18, 1200, "a", 18000], "internal_node_id": "0.0-44.0", "trial": 1, "time_elapsed": 412199, "serialpos": 7, "key_press": -1, "wordID": 1050, "type": "PRES_AUD", "trial_index": 62}, "uniqueid": "MTK1718:3TEM0PF1Q64YFOM6LANZB24OZPO0DT", "dateTime": 1516131762936}, {"current_trial": 63, "trialdata": {"rt": -1000, "trial_type": "single-audio", "word": "cigar", "stimulus": "/static/audio/wordpool/CIGAR.wav", "conditions": [18, 1200, "a", 18000], "internal_node_id": "0.0-45.0", "trial": 1, "time_elapsed": 414494, "serialpos": 8, "key_press": -1, "wordID": 307, "type": "PRES_AUD", "trial_index": 63}, "uniqueid": "MTK1718:3TEM0PF1Q64YFOM6LANZB24OZPO0DT", "dateTime": 1516131765231}, {"current_trial": 64, "trialdata": {"rt": -1000, "trial_type": "single-audio", "word": "swimmer", "stimulus": "/static/audio/wordpool/SWIMMER.wav", "conditions": [18, 1200, "a", 18000], "internal_node_id": "0.0-46.0", "trial": 1, "time_elapsed": 416498, "serialpos": 9, "key_press": -1, "wordID": 1419, "type": "PRES_AUD", "trial_index": 64}, "uniqueid": "MTK1718:3TEM0PF1Q64YFOM6LANZB24OZPO0DT", "dateTime": 1516131767236}, {"current_trial": 65, "trialdata": {"rt": -1000, "trial_type": "single-audio", "word": "dragon", "stimulus": "/static/audio/wordpool/DRAGON.wav", "conditions": [18, 1200, "a", 18000], "internal_node_id": "0.0-47.0", "trial": 1, "time_elapsed": 418671, "serialpos": 10, "key_press": -1, "wordID": 491, "type": "PRES_AUD", "trial_index": 65}, "uniqueid": "MTK1718:3TEM0PF1Q64YFOM6LANZB24OZPO0DT", "dateTime": 1516131769408}, {"current_trial": 66, "trialdata": {"rt": -1000, "trial_type": "single-audio", "word": "cattle", "stimulus": "/static/audio/wordpool/CATTLE.wav", "conditions": [18, 1200, "a", 18000], "internal_node_id": "0.0-48.0", "trial": 1, "time_elapsed": 421054, "serialpos": 11, "key_press": -1, "wordID": 260, "type": "PRES_AUD", "trial_index": 66}, "uniqueid": "MTK1718:3TEM0PF1Q64YFOM6LANZB24OZPO0DT", "dateTime": 1516131771791}, {"current_trial": 67, "trialdata": {"rt": -1000, "trial_type": "single-audio", "word": "flipper", "stimulus": "/static/audio/wordpool/FLIPPER.wav", "conditions": [18, 1200, "a", 18000], "internal_node_id": "0.0-49.0", "trial": 1, "time_elapsed": 423430, "serialpos": 12, "key_press": -1, "wordID": 579, "type": "PRES_AUD", "trial_index": 67}, "uniqueid": "MTK1718:3TEM0PF1Q64YFOM6LANZB24OZPO0DT", "dateTime": 1516131774167}, {"current_trial": 68, "trialdata": {"rt": -1000, "trial_type": "single-audio", "word": "robin", "stimulus": "/static/audio/wordpool/ROBIN.wav", "conditions": [18, 1200, "a", 18000], "internal_node_id": "0.0-50.0", "trial": 1, "time_elapsed": 425668, "serialpos": 13, "key_press": -1, "wordID": 1198, "type": "PRES_AUD", "trial_index": 68}, "uniqueid": "MTK1718:3TEM0PF1Q64YFOM6LANZB24OZPO0DT", "dateTime": 1516131776405}, {"current_trial": 69, "trialdata": {"rt": -1000, "trial_type": "single-audio", "word": "pizza", "stimulus": "/static/audio/wordpool/PIZZA.wav", "conditions": [18, 1200, "a", 18000], "internal_node_id": "0.0-51.0", "trial": 1, "time_elapsed": 427987, "serialpos": 14, "key_press": -1, "wordID": 1078, "type": "PRES_AUD", "trial_index": 69}, "uniqueid": "MTK1718:3TEM0PF1Q64YFOM6LANZB24OZPO0DT", "dateTime": 1516131778724}, {"current_trial": 70, "trialdata": {"rt": -1000, "trial_type": "single-audio", "word": "infant", "stimulus": "/static/audio/wordpool/INFANT.wav", "conditions": [18, 1200, "a", 18000], "internal_node_id": "0.0-52.0", "trial": 1, "time_elapsed": 430318, "serialpos": 15, "key_press": -1, "wordID": 736, "type": "PRES_AUD", "trial_index": 70}, "uniqueid": "MTK1718:3TEM0PF1Q64YFOM6LANZB24OZPO0DT", "dateTime": 1516131781055}, {"current_trial": 71, "trialdata": {"rt": -1000, "trial_type": "single-audio", "word": "turnip", "stimulus": "/static/audio/wordpool/TURNIP.wav", "conditions": [18, 1200, "a", 18000], "internal_node_id": "0.0-53.0", "trial": 1, "time_elapsed": 432652, "serialpos": 16, "key_press": -1, "wordID": 1520, "type": "PRES_AUD", "trial_index": 71}, "uniqueid": "MTK1718:3TEM0PF1Q64YFOM6LANZB24OZPO0DT", "dateTime": 1516131783389}, {"current_trial": 72, "trialdata": {"rt": -1000, "trial_type": "single-audio", "word": "bacon", "stimulus": "/static/audio/wordpool/BACON.wav", "conditions": [18, 1200, "a", 18000], "internal_node_id": "0.0-54.0", "trial": 1, "time_elapsed": 434861, "serialpos": 17, "key_press": -1, "wordID": 66, "type": "PRES_AUD", "trial_index": 72}, "uniqueid": "MTK1718:3TEM0PF1Q64YFOM6LANZB24OZPO0DT", "dateTime": 1516131785598}, {"current_trial": 73, "trialdata": {"rt": -1, "trial_type": "single-stim", "stimulus": "", "internal_node_id": "0.0-55.0-0.0", "time_elapsed": 436137, "key_press": -1, "type": "PRE_RECALL_DELAY", "trial_index": 73}, "uniqueid": "MTK1718:3TEM0PF1Q64YFOM6LANZB24OZPO0DT", "dateTime": 1516131786874}, {"current_trial": 74, "trialdata": {"rt": -1000, "trial_type": "single-audio", "stimulus": "/static/audio/400Hz.wav", "internal_node_id": "0.0-56.0", "time_elapsed": 436638, "key_press": -1, "type": "PRE_RECALL_ALERT", "trial_index": 74}, "uniqueid": "MTK1718:3TEM0PF1Q64YFOM6LANZB24OZPO0DT", "dateTime": 1516131787375}, {"current_trial": 75, "trialdata": {"rt": [1656, 3275, 7353, 9771, 15218, 21459, 26134], "recwords": ["bacon", "turnip", "blockade", "policeman", "grape", "hospital", "cocktail"], "key_times": [653, 785, 1014, 1118, 1306, 1656, 2027, 2208, 2356, 2495, 2737, 2970, 3275, 3855, 4006, 4147, 4251, 4726, 5101, 5325, 5411, 5587, 5798, 6225, 6411, 6505, 6735, 7353, 7968, 8216, 8399, 8608, 8775, 8967, 9131, 9285, 9388, 9771, 14329, 14441, 14694, 14869, 15040, 15218, 19604, 19774, 19907, 20134, 20369, 20531, 20757, 20947, 21459, 24516, 24631, 24808, 24957, 25222, 25440, 25568, 25782, 26134], "trial_type": "free-recall", "conditions": [18, 1200, "a", 18000], "internal_node_id": "0.0-57.0-0.0", "key_presses": [66, 65, 67, 79, 78, 13, 84, 85, 82, 78, 73, 80, 13, 66, 76, 79, 67, 65, 8, 75, 65, 71, 69, 8, 8, 68, 69, 13, 80, 79, 76, 73, 67, 69, 77, 65, 78, 13, 71, 82, 65, 80, 69, 13, 72, 79, 83, 80, 73, 84, 65, 76, 13, 67, 79, 67, 75, 84, 65, 73, 76, 13], "trial": 1, "time_elapsed": 496638, "type": "FREE_RECALL", "trial_index": 75}, "uniqueid": "MTK1718:3TEM0PF1Q64YFOM6LANZB24OZPO0DT", "dateTime": 1516131847380}, {"current_trial": 76, "trialdata": {"rt": 2136, "trial_type": "text", "internal_node_id": "0.0-58.0", "time_elapsed": 500780, "key_press": 32, "type": "INSTRUCTIONS", "trial_index": 76}, "uniqueid": "MTK1718:3TEM0PF1Q64YFOM6LANZB24OZPO0DT", "dateTime": 1516131851517}, {"current_trial": 77, "trialdata": {"rt": [5033, 7241, 10064, 13670, 16617, 20686, 23722], "trial_type": "math-distractor", "key_times": [3444, 3633, 5033, 6848, 7073, 7241, 9528, 9787, 10064, 13250, 13522, 13670, 14915, 15102, 15111, 15624, 15960, 16617, 20179, 20429, 20686, 23286, 23501, 23722], "responses": ["20", "15", "17", "14", "13", "25", "13"], "num2": [9, 7, 5, 3, 6, 9, 7, 4], "num3": [3, 3, 3, 9, 3, 7, 3, 5], "conditions": [12, 1600, "a", 24000], "internal_node_id": "0.0-59.0", "key_presses": [50, 48, 13, 49, 53, 13, 49, 55, 13, 49, 52, 13, 49, 51, 52, 8, 16, 13, 50, 53, 13, 49, 51, 13], "trial": 2, "time_elapsed": 525782, "type": "DISTRACTOR", "trial_index": 77, "num1": [8, 5, 9, 2, 4, 7, 3, 9]}, "uniqueid": "MTK1718:3TEM0PF1Q64YFOM6LANZB24OZPO0DT", "dateTime": 1516131876519}, {"current_trial": 78, "trialdata": {"rt": -1, "trial_type": "single-stim", "stimulus": "<p id=\"stim\">10</p>", "internal_node_id": "0.0-60.0-0.0", "time_elapsed": 528782, "key_press": -1, "trial_index": 78}, "uniqueid": "MTK1718:3TEM0PF1Q64YFOM6LANZB24OZPO0DT", "dateTime": 1516131879520}, {"current_trial": 79, "trialdata": {"rt": -1, "trial_type": "single-stim", "stimulus": "<p id=\"stim\">9</p>", "internal_node_id": "0.0-60.0-1.0", "time_elapsed": 529783, "key_press": -1, "trial_index": 79}, "uniqueid": "MTK1718:3TEM0PF1Q64YFOM6LANZB24OZPO0DT", "dateTime": 1516131880521}, {"current_trial": 80, "trialdata": {"rt": -1, "trial_type": "single-stim", "stimulus": "<p id=\"stim\">8</p>", "internal_node_id": "0.0-60.0-2.0", "time_elapsed": 530784, "key_press": -1, "trial_index": 80}, "uniqueid": "MTK1718:3TEM0PF1Q64YFOM6LANZB24OZPO0DT", "dateTime": 1516131881522}, {"current_trial": 81, "trialdata": {"rt": -1, "trial_type": "single-stim", "stimulus": "<p id=\"stim\">7</p>", "internal_node_id": "0.0-60.0-3.0", "time_elapsed": 531785, "key_press": -1, "trial_index": 81}, "uniqueid": "MTK1718:3TEM0PF1Q64YFOM6LANZB24OZPO0DT", "dateTime": 1516131882523}, {"current_trial": 82, "trialdata": {"rt": -1, "trial_type": "single-stim", "stimulus": "<p id=\"stim\">6</p>", "internal_node_id": "0.0-60.0-4.0", "time_elapsed": 532794, "key_press": -1, "trial_index": 82}, "uniqueid": "MTK1718:3TEM0PF1Q64YFOM6LANZB24OZPO0DT", "dateTime": 1516131883531}, {"current_trial": 83, "trialdata": {"rt": -1, "trial_type": "single-stim", "stimulus": "<p id=\"stim\">5</p>", "internal_node_id": "0.0-60.0-5.0", "time_elapsed": 533795, "key_press": -1, "trial_index": 83}, "uniqueid": "MTK1718:3TEM0PF1Q64YFOM6LANZB24OZPO0DT", "dateTime": 1516131884533}, {"current_trial": 84, "trialdata": {"rt": -1, "trial_type": "single-stim", "stimulus": "<p id=\"stim\">4</p>", "internal_node_id": "0.0-60.0-6.0", "time_elapsed": 534796, "key_press": -1, "trial_index": 84}, "uniqueid": "MTK1718:3TEM0PF1Q64YFOM6LANZB24OZPO0DT", "dateTime": 1516131885534}, {"current_trial": 85, "trialdata": {"rt": -1, "trial_type": "single-stim", "stimulus": "<p id=\"stim\">3</p>", "internal_node_id": "0.0-60.0-7.0", "time_elapsed": 535797, "key_press": -1, "trial_index": 85}, "uniqueid": "MTK1718:3TEM0PF1Q64YFOM6LANZB24OZPO0DT", "dateTime": 1516131886535}, {"current_trial": 86, "trialdata": {"rt": -1, "trial_type": "single-stim", "stimulus": "<p id=\"stim\">2</p>", "internal_node_id": "0.0-60.0-8.0", "time_elapsed": 536798, "key_press": -1, "trial_index": 86}, "uniqueid": "MTK1718:3TEM0PF1Q64YFOM6LANZB24OZPO0DT", "dateTime": 1516131887536}, {"current_trial": 87, "trialdata": {"rt": -1, "trial_type": "single-stim", "stimulus": "<p id=\"stim\">1</p>", "internal_node_id": "0.0-60.0-9.0", "time_elapsed": 537799, "key_press": -1, "trial_index": 87}, "uniqueid": "MTK1718:3TEM0PF1Q64YFOM6LANZB24OZPO0DT", "dateTime": 1516131888537}, {"current_trial": 88, "trialdata": {"rt": -1, "trial_type": "single-stim", "stimulus": "<p id=\"stim\">+</p>", "internal_node_id": "0.0-61.0-0.0", "time_elapsed": 539301, "key_press": -1, "type": "FIXATION", "trial_index": 88}, "uniqueid": "MTK1718:3TEM0PF1Q64YFOM6LANZB24OZPO0DT", "dateTime": 1516131890038}, {"current_trial": 89, "trialdata": {"rt": -1000, "trial_type": "single-audio", "word": "shoulder", "stimulus": "/static/audio/wordpool/SHOULDER.wav", "conditions": [12, 1600, "a", 24000], "internal_node_id": "0.0-62.0", "trial": 2, "time_elapsed": 541812, "serialpos": 0, "key_press": -1, "wordID": 1293, "type": "PRES_AUD", "trial_index": 89}, "uniqueid": "MTK1718:3TEM0PF1Q64YFOM6LANZB24OZPO0DT", "dateTime": 1516131892549}, {"current_trial": 90, "trialdata": {"rt": -1000, "trial_type": "single-audio", "word": "dancer", "stimulus": "/static/audio/wordpool/DANCER.wav", "conditions": [12, 1600, "a", 24000], "internal_node_id": "0.0-63.0", "trial": 2, "time_elapsed": 544235, "serialpos": 1, "key_press": -1, "wordID": 436, "type": "PRES_AUD", "trial_index": 90}, "uniqueid": "MTK1718:3TEM0PF1Q64YFOM6LANZB24OZPO0DT", "dateTime": 1516131894972}, {"current_trial": 91, "trialdata": {"rt": -1000, "trial_type": "single-audio", "word": "cousin", "stimulus": "/static/audio/wordpool/COUSIN.wav", "conditions": [12, 1600, "a", 24000], "internal_node_id": "0.0-64.0", "trial": 2, "time_elapsed": 546804, "serialpos": 2, "key_press": -1, "wordID": 391, "type": "PRES_AUD", "trial_index": 91}, "uniqueid": "MTK1718:3TEM0PF1Q64YFOM6LANZB24OZPO0DT", "dateTime": 1516131897541}, {"current_trial": 92, "trialdata": {"rt": -1000, "trial_type": "single-audio", "word": "quail", "stimulus": "/static/audio/wordpool/QUAIL.wav", "conditions": [12, 1600, "a", 24000], "internal_node_id": "0.0-65.0", "trial": 2, "time_elapsed": 549438, "serialpos": 3, "key_press": -1, "wordID": 1146, "type": "PRES_AUD", "trial_index": 92}, "uniqueid": "MTK1718:3TEM0PF1Q64YFOM6LANZB24OZPO0DT", "dateTime": 1516131900175}, {"current_trial": 93, "trialdata": {"rt": -1000, "trial_type": "single-audio", "word": "ketchup", "stimulus": "/static/audio/wordpool/KETCHUP.wav", "conditions": [12, 1600, "a", 24000], "internal_node_id": "0.0-66.0", "trial": 2, "time_elapsed": 551890, "serialpos": 4, "key_press": -1, "wordID": 770, "type": "PRES_AUD", "trial_index": 93}, "uniqueid": "MTK1718:3TEM0PF1Q64YFOM6LANZB24OZPO0DT", "dateTime": 1516131902627}, {"current_trial": 94, "trialdata": {"rt": -1000, "trial_type": "single-audio", "word": "snack", "stimulus": "/static/audio/wordpool/SNACK.wav", "conditions": [12, 1600, "a", 24000], "internal_node_id": "0.0-67.0", "trial": 2, "time_elapsed": 554621, "serialpos": 5, "key_press": -1, "wordID": 1330, "type": "PRES_AUD", "trial_index": 94}, "uniqueid": "MTK1718:3TEM0PF1Q64YFOM6LANZB24OZPO0DT", "dateTime": 1516131905358}, {"current_trial": 95, "trialdata": {"rt": -1000, "trial_type": "single-audio", "word": "tile", "stimulus": "/static/audio/wordpool/TILE.wav", "conditions": [12, 1600, "a", 24000], "internal_node_id": "0.0-68.0", "trial": 2, "time_elapsed": 557114, "serialpos": 6, "key_press": -1, "wordID": 1467, "type": "PRES_AUD", "trial_index": 95}, "uniqueid": "MTK1718:3TEM0PF1Q64YFOM6LANZB24OZPO0DT", "dateTime": 1516131907851}, {"current_trial": 96, "trialdata": {"rt": -1000, "trial_type": "single-audio", "word": "peanut", "stimulus": "/static/audio/wordpool/PEANUT.wav", "conditions": [12, 1600, "a", 24000], "internal_node_id": "0.0-69.0", "trial": 2, "time_elapsed": 559868, "serialpos": 7, "key_press": -1, "wordID": 1031, "type": "PRES_AUD", "trial_index": 96}, "uniqueid": "MTK1718:3TEM0PF1Q64YFOM6LANZB24OZPO0DT", "dateTime": 1516131910605}, {"current_trial": 97, "trialdata": {"rt": -1000, "trial_type": "single-audio", "word": "pecan", "stimulus": "/static/audio/wordpool/PECAN.wav", "conditions": [12, 1600, "a", 24000], "internal_node_id": "0.0-70.0", "trial": 2, "time_elapsed": 562338, "serialpos": 8, "key_press": -1, "wordID": 1035, "type": "PRES_AUD", "trial_index": 97}, "uniqueid": "MTK1718:3TEM0PF1Q64YFOM6LANZB24OZPO0DT", "dateTime": 1516131913075}, {"current_trial": 98, "trialdata": {"rt": -1000, "trial_type": "single-audio", "word": "freezer", "stimulus": "/static/audio/wordpool/FREEZER.wav", "conditions": [12, 1600, "a", 24000], "internal_node_id": "0.0-71.0", "trial": 2, "time_elapsed": 564909, "serialpos": 9, "key_press": -1, "wordID": 603, "type": "PRES_AUD", "trial_index": 98}, "uniqueid": "MTK1718:3TEM0PF1Q64YFOM6LANZB24OZPO0DT", "dateTime": 1516131915646}, {"current_trial": 99, "trialdata": {"rt": -1000, "trial_type": "single-audio", "word": "turkey", "stimulus": "/static/audio/wordpool/TURKEY.wav", "conditions": [12, 1600, "a", 24000], "internal_node_id": "0.0-72.0", "trial": 2, "time_elapsed": 567678, "serialpos": 10, "key_press": -1, "wordID": 1519, "type": "PRES_AUD", "trial_index": 99}, "uniqueid": "MTK1718:3TEM0PF1Q64YFOM6LANZB24OZPO0DT", "dateTime": 1516131918415}, {"current_trial": 100, "trialdata": {"rt": -1000, "trial_type": "single-audio", "word": "crib", "stimulus": "/static/audio/wordpool/CRIB.wav", "conditions": [12, 1600, "a", 24000], "internal_node_id": "0.0-73.0", "trial": 2, "time_elapsed": 570227, "serialpos": 11, "key_press": -1, "wordID": 406, "type": "PRES_AUD", "trial_index": 100}, "uniqueid": "MTK1718:3TEM0PF1Q64YFOM6LANZB24OZPO0DT", "dateTime": 1516131920964}, {"current_trial": 101, "trialdata": {"rt": -1, "trial_type": "single-stim", "stimulus": "", "internal_node_id": "0.0-74.0-0.0", "time_elapsed": 571596, "key_press": -1, "type": "PRE_RECALL_DELAY", "trial_index": 101}, "uniqueid": "MTK1718:3TEM0PF1Q64YFOM6LANZB24OZPO0DT", "dateTime": 1516131922333}, {"current_trial": 102, "trialdata": {"rt": -1000, "trial_type": "single-audio", "stimulus": "/static/audio/400Hz.wav", "internal_node_id": "0.0-75.0", "time_elapsed": 572096, "key_press": -1, "type": "PRE_RECALL_ALERT", "trial_index": 102}, "uniqueid": "MTK1718:3TEM0PF1Q64YFOM6LANZB24OZPO0DT", "dateTime": 1516131922833}, {"current_trial": 103, "trialdata": {"rt": [2072, 3788, 5461, 7048, 9181, 10690, 27890, 31598, 33924, 35995, 37279, 45862, 50527], "recwords": ["crib", "turkey", "freezer", "cousin", "quail", "turkey", "shoulder", "ketchup", "snack", "peanut", "pecan", "pizza", "mirror"], "key_times": [1258, 1456, 1628, 1846, 2072, 2621, 2823, 2965, 3080, 3225, 3507, 3788, 4142, 4241, 4452, 4618, 4871, 5105, 5218, 5461, 6202, 6328, 6385, 6521, 6635, 6751, 7048, 7428, 7578, 7760, 7962, 8505, 8720, 8951, 9181, 9692, 9871, 10004, 10128, 10245, 10440, 10690, 26731, 26881, 27061, 27148, 27321, 27439, 27638, 27735, 27890, 28854, 28983, 29241, 29966, 30121, 30202, 30711, 31029, 31232, 31598, 31962, 32089, 32210, 32482, 33589, 33924, 35042, 35201, 35366, 35497, 35646, 35776, 35995, 36272, 36464, 36665, 36884, 37022, 37279, 44722, 45014, 45180, 45359, 45569, 45862, 49510, 49682, 49796, 49961, 50088, 50201, 50527], "trial_type": "free-recall", "conditions": [12, 1600, "a", 24000], "internal_node_id": "0.0-76.0-0.0", "key_presses": [67, 82, 73, 66, 13, 84, 85, 82, 75, 69, 89, 13, 70, 82, 69, 69, 90, 69, 82, 13, 67, 79, 85, 83, 73, 78, 13, 81, 85, 65, 76, 8, 73, 76, 13, 84, 85, 82, 75, 69, 89, 13, 83, 72, 79, 85, 76, 68, 69, 82, 13, 75, 69, 84, 67, 72, 73, 8, 85, 80, 13, 83, 78, 65, 67, 75, 13, 80, 69, 65, 78, 85, 84, 13, 80, 69, 67, 65, 78, 13, 80, 73, 90, 90, 65, 13, 77, 73, 82, 82, 79, 82, 13], "trial": 2, "time_elapsed": 632096, "type": "FREE_RECALL", "trial_index": 103}, "uniqueid": "MTK1718:3TEM0PF1Q64YFOM6LANZB24OZPO0DT", "dateTime": 1516131982837}, {"current_trial": 104, "trialdata": {"rt": 1622, "trial_type": "text", "internal_node_id": "0.0-77.0", "time_elapsed": 635723, "key_press": 32, "type": "INSTRUCTIONS", "trial_index": 104}, "uniqueid": "MTK1718:3TEM0PF1Q64YFOM6LANZB24OZPO0DT", "dateTime": 1516131986460}, {"current_trial": 105, "trialdata": {"rt": [1635, 4142, 6162, 7957, 11134, 12971, 16079, 19999, 22908], "trial_type": "math-distractor", "key_times": [1360, 1635, 3465, 3892, 4142, 5922, 6162, 7667, 7788, 7957, 10597, 10818, 11134, 12598, 12845, 12971, 15629, 15857, 16079, 19549, 19691, 19999, 22216, 22755, 22908], "responses": ["6", "15", "9", "12", "24", "14", "19", "21", "16"], "num2": [2, 7, 2, 3, 8, 6, 5, 7, 7, 8], "num3": [2, 3, 6, 7, 8, 2, 6, 9, 1, 5], "conditions": [12, 1600, "a", 24000], "internal_node_id": "0.0-78.0", "key_presses": [54, 13, 49, 53, 13, 57, 13, 49, 50, 13, 50, 52, 13, 49, 52, 13, 49, 57, 13, 50, 49, 13, 49, 54, 13], "trial": 3, "time_elapsed": 661726, "type": "DISTRACTOR", "trial_index": 105, "num1": [2, 5, 1, 2, 8, 6, 8, 5, 8, 1]}, "uniqueid": "MTK1718:3TEM0PF1Q64YFOM6LANZB24OZPO0DT", "dateTime": 1516132012463}, {"current_trial": 106, "trialdata": {"rt": -1, "trial_type": "single-stim", "stimulus": "<p id=\"stim\">10</p>", "internal_node_id": "0.0-79.0-0.0", "time_elapsed": 664726, "key_press": -1, "trial_index": 106}, "uniqueid": "MTK1718:3TEM0PF1Q64YFOM6LANZB24OZPO0DT", "dateTime": 1516132015464}, {"current_trial": 107, "trialdata": {"rt": -1, "trial_type": "single-stim", "stimulus": "<p id=\"stim\">9</p>", "internal_node_id": "0.0-79.0-1.0", "time_elapsed": 665727, "key_press": -1, "trial_index": 107}, "uniqueid": "MTK1718:3TEM0PF1Q64YFOM6LANZB24OZPO0DT", "dateTime": 1516132016464}, {"current_trial": 108, "trialdata": {"rt": -1, "trial_type": "single-stim", "stimulus": "<p id=\"stim\">8</p>", "internal_node_id": "0.0-79.0-2.0", "time_elapsed": 666729, "key_press": -1, "trial_index": 108}, "uniqueid": "MTK1718:3TEM0PF1Q64YFOM6LANZB24OZPO0DT", "dateTime": 1516132017466}, {"current_trial": 109, "trialdata": {"rt": -1, "trial_type": "single-stim", "stimulus": "<p id=\"stim\">7</p>", "internal_node_id": "0.0-79.0-3.0", "time_elapsed": 667729, "key_press": -1, "trial_index": 109}, "uniqueid": "MTK1718:3TEM0PF1Q64YFOM6LANZB24OZPO0DT", "dateTime": 1516132018467}, {"current_trial": 110, "trialdata": {"rt": -1, "trial_type": "single-stim", "stimulus": "<p id=\"stim\">6</p>", "internal_node_id": "0.0-79.0-4.0", "time_elapsed": 668731, "key_press": -1, "trial_index": 110}, "uniqueid": "MTK1718:3TEM0PF1Q64YFOM6LANZB24OZPO0DT", "dateTime": 1516132019468}, {"current_trial": 111, "trialdata": {"rt": -1, "trial_type": "single-stim", "stimulus": "<p id=\"stim\">5</p>", "internal_node_id": "0.0-79.0-5.0", "time_elapsed": 669732, "key_press": -1, "trial_index": 111}, "uniqueid": "MTK1718:3TEM0PF1Q64YFOM6LANZB24OZPO0DT", "dateTime": 1516132020469}, {"current_trial": 112, "trialdata": {"rt": -1, "trial_type": "single-stim", "stimulus": "<p id=\"stim\">4</p>", "internal_node_id": "0.0-79.0-6.0", "time_elapsed": 670733, "key_press": -1, "trial_index": 112}, "uniqueid": "MTK1718:3TEM0PF1Q64YFOM6LANZB24OZPO0DT", "dateTime": 1516132021471}, {"current_trial": 113, "trialdata": {"rt": -1, "trial_type": "single-stim", "stimulus": "<p id=\"stim\">3</p>", "internal_node_id": "0.0-79.0-7.0", "time_elapsed": 671734, "key_press": -1, "trial_index": 113}, "uniqueid": "MTK1718:3TEM0PF1Q64YFOM6LANZB24OZPO0DT", "dateTime": 1516132022472}, {"current_trial": 114, "trialdata": {"rt": -1, "trial_type": "single-stim", "stimulus": "<p id=\"stim\">2</p>", "internal_node_id": "0.0-79.0-8.0", "time_elapsed": 672735, "key_press": -1, "trial_index": 114}, "uniqueid": "MTK1718:3TEM0PF1Q64YFOM6LANZB24OZPO0DT", "dateTime": 1516132023473}, {"current_trial": 115, "trialdata": {"rt": -1, "trial_type": "single-stim", "stimulus": "<p id=\"stim\">1</p>", "internal_node_id": "0.0-79.0-9.0", "time_elapsed": 673736, "key_press": -1, "trial_index": 115}, "uniqueid": "MTK1718:3TEM0PF1Q64YFOM6LANZB24OZPO0DT", "dateTime": 1516132024474}, {"current_trial": 116, "trialdata": {"rt": -1, "trial_type": "single-stim", "stimulus": "<p id=\"stim\">+</p>", "internal_node_id": "0.0-80.0-0.0", "time_elapsed": 675238, "key_press": -1, "type": "FIXATION", "trial_index": 116}, "uniqueid": "MTK1718:3TEM0PF1Q64YFOM6LANZB24OZPO0DT", "dateTime": 1516132025975}, {"current_trial": 117, "trialdata": {"rt": -1000, "trial_type": "single-audio", "word": "bullet", "stimulus": "/static/audio/wordpool/BULLET.wav", "conditions": [12, 1600, "a", 24000], "internal_node_id": "0.0-81.0", "trial": 3, "time_elapsed": 677653, "serialpos": 0, "key_press": -1, "wordID": 193, "type": "PRES_AUD", "trial_index": 117}, "uniqueid": "MTK1718:3TEM0PF1Q64YFOM6LANZB24OZPO0DT", "dateTime": 1516132028390}, {"current_trial": 118, "trialdata": {"rt": -1000, "trial_type": "single-audio", "word": "sketch", "stimulus": "/static/audio/wordpool/SKETCH.wav", "conditions": [12, 1600, "a", 24000], "internal_node_id": "0.0-82.0", "trial": 3, "time_elapsed": 680077, "serialpos": 1, "key_press": -1, "wordID": 1314, "type": "PRES_AUD", "trial_index": 118}, "uniqueid": "MTK1718:3TEM0PF1Q64YFOM6LANZB24OZPO0DT", "dateTime": 1516132030814}, {"current_trial": 119, "trialdata": {"rt": -1000, "trial_type": "single-audio", "word": "church", "stimulus": "/static/audio/wordpool/CHURCH.wav", "conditions": [12, 1600, "a", 24000], "internal_node_id": "0.0-83.0", "trial": 3, "time_elapsed": 682625, "serialpos": 2, "key_press": -1, "wordID": 306, "type": "PRES_AUD", "trial_index": 119}, "uniqueid": "MTK1718:3TEM0PF1Q64YFOM6LANZB24OZPO0DT", "dateTime": 1516132033362}, {"current_trial": 120, "trialdata": {"rt": -1000, "trial_type": "single-audio", "word": "chapel", "stimulus": "/static/audio/wordpool/CHAPEL.wav", "conditions": [12, 1600, "a", 24000], "internal_node_id": "0.0-84.0", "trial": 3, "time_elapsed": 685220, "serialpos": 3, "key_press": -1, "wordID": 279, "type": "PRES_AUD", "trial_index": 120}, "uniqueid": "MTK1718:3TEM0PF1Q64YFOM6LANZB24OZPO0DT", "dateTime": 1516132035957}, {"current_trial": 121, "trialdata": {"rt": -1000, "trial_type": "single-audio", "word": "carrot", "stimulus": "/static/audio/wordpool/CARROT.wav", "conditions": [12, 1600, "a", 24000], "internal_node_id": "0.0-85.0", "trial": 3, "time_elapsed": 687961, "serialpos": 4, "key_press": -1, "wordID": 248, "type": "PRES_AUD", "trial_index": 121}, "uniqueid": "MTK1718:3TEM0PF1Q64YFOM6LANZB24OZPO0DT", "dateTime": 1516132038698}, {"current_trial": 122, "trialdata": {"rt": -1000, "trial_type": "single-audio", "word": "rattle", "stimulus": "/static/audio/wordpool/RATTLE.wav", "conditions": [12, 1600, "a", 24000], "internal_node_id": "0.0-86.0", "trial": 3, "time_elapsed": 690516, "serialpos": 5, "key_press": -1, "wordID": 1169, "type": "PRES_AUD", "trial_index": 122}, "uniqueid": "MTK1718:3TEM0PF1Q64YFOM6LANZB24OZPO0DT", "dateTime": 1516132041253}, {"current_trial": 123, "trialdata": {"rt": -1000, "trial_type": "single-audio", "word": "picture", "stimulus": "/static/audio/wordpool/PICTURE.wav", "conditions": [12, 1600, "a", 24000], "internal_node_id": "0.0-87.0", "trial": 3, "time_elapsed": 692947, "serialpos": 6, "key_press": -1, "wordID": 1060, "type": "PRES_AUD", "trial_index": 123}, "uniqueid": "MTK1718:3TEM0PF1Q64YFOM6LANZB24OZPO0DT", "dateTime": 1516132043684}, {"current_trial": 124, "trialdata": {"rt": -1000, "trial_type": "single-audio", "word": "marker", "stimulus": "/static/audio/wordpool/MARKER.wav", "conditions": [12, 1600, "a", 24000], "internal_node_id": "0.0-88.0", "trial": 3, "time_elapsed": 695476, "serialpos": 7, "key_press": -1, "wordID": 869, "type": "PRES_AUD", "trial_index": 124}, "uniqueid": "MTK1718:3TEM0PF1Q64YFOM6LANZB24OZPO0DT", "dateTime": 1516132046213}, {"current_trial": 125, "trialdata": {"rt": -1000, "trial_type": "single-audio", "word": "box", "stimulus": "/static/audio/wordpool/BOX.wav", "conditions": [12, 1600, "a", 24000], "internal_node_id": "0.0-89.0", "trial": 3, "time_elapsed": 697987, "serialpos": 8, "key_press": -1, "wordID": 158, "type": "PRES_AUD", "trial_index": 125}, "uniqueid": "MTK1718:3TEM0PF1Q64YFOM6LANZB24OZPO0DT", "dateTime": 1516132048724}, {"current_trial": 126, "trialdata": {"rt": -1000, "trial_type": "single-audio", "word": "bug", "stimulus": "/static/audio/wordpool/BUG.wav", "conditions": [12, 1600, "a", 24000], "internal_node_id": "0.0-90.0", "trial": 3, "time_elapsed": 700579, "serialpos": 9, "key_press": -1, "wordID": 186, "type": "PRES_AUD", "trial_index": 126}, "uniqueid": "MTK1718:3TEM0PF1Q64YFOM6LANZB24OZPO0DT", "dateTime": 1516132051316}, {"current_trial": 127, "trialdata": {"rt": -1000, "trial_type": "single-audio", "word": "portrait", "stimulus": "/static/audio/wordpool/PORTRAIT.wav", "conditions": [12, 1600, "a", 24000], "internal_node_id": "0.0-91.0", "trial": 3, "time_elapsed": 702984, "serialpos": 10, "key_press": -1, "wordID": 1110, "type": "PRES_AUD", "trial_index": 127}, "uniqueid": "MTK1718:3TEM0PF1Q64YFOM6LANZB24OZPO0DT", "dateTime": 1516132053721}, {"current_trial": 128, "trialdata": {"rt": -1000, "trial_type": "single-audio", "word": "relish", "stimulus": "/static/audio/wordpool/RELISH.wav", "conditions": [12, 1600, "a", 24000], "internal_node_id": "0.0-92.0", "trial": 3, "time_elapsed": 705747, "serialpos": 11, "key_press": -1, "wordID": 1182, "type": "PRES_AUD", "trial_index": 128}, "uniqueid": "MTK1718:3TEM0PF1Q64YFOM6LANZB24OZPO0DT", "dateTime": 1516132056484}, {"current_trial": 129, "trialdata": {"rt": -1, "trial_type": "single-stim", "stimulus": "", "internal_node_id": "0.0-93.0-0.0", "time_elapsed": 706995, "key_press": -1, "type": "PRE_RECALL_DELAY", "trial_index": 129}, "uniqueid": "MTK1718:3TEM0PF1Q64YFOM6LANZB24OZPO0DT", "dateTime": 1516132057732}, {"current_trial": 130, "trialdata": {"rt": -1000, "trial_type": "single-audio", "stimulus": "/static/audio/400Hz.wav", "internal_node_id": "0.0-94.0", "time_elapsed": 707496, "key_press": -1, "type": "PRE_RECALL_ALERT", "trial_index": 130}, "uniqueid": "MTK1718:3TEM0PF1Q64YFOM6LANZB24OZPO0DT", "dateTime": 1516132058233}, {"current_trial": 131, "trialdata": {"rt": [2268, 4274, 4734, 6089, 8302, 9904, 11661, 13720], "recwords": ["relish", "portrait", "", "bug", "church", "sketch", "chapel", "bullet"], "key_times": [934, 1079, 1589, 1710, 1870, 2008, 2268, 2549, 2785, 2967, 3231, 3458, 3652, 3815, 4021, 4274, 4734, 5004, 5407, 5556, 5717, 5850, 6089, 6740, 6857, 6954, 7119, 7523, 7620, 7860, 8022, 8302, 8694, 8837, 8997, 9076, 9320, 9632, 9904, 10286, 10407, 10605, 10984, 11220, 11370, 11661, 12491, 12679, 12960, 13128, 13260, 13450, 13720], "trial_type": "free-recall", "conditions": [12, 1600, "a", 24000], "internal_node_id": "0.0-95.0-0.0", "key_presses": [82, 69, 76, 73, 83, 72, 13, 80, 79, 82, 84, 82, 65, 73, 84, 13, 32, 85, 8, 66, 85, 71, 13, 67, 72, 85, 83, 8, 82, 67, 72, 13, 83, 75, 69, 84, 67, 72, 13, 67, 72, 65, 80, 69, 76, 13, 66, 85, 76, 76, 69, 84, 13], "trial": 3, "time_elapsed": 767496, "type": "FREE_RECALL", "trial_index": 131}, "uniqueid": "MTK1718:3TEM0PF1Q64YFOM6LANZB24OZPO0DT", "dateTime": 1516132118241}, {"current_trial": 132, "trialdata": {"rt": 1606, "trial_type": "text", "internal_node_id": "0.0-96.0", "time_elapsed": 771111, "key_press": 32, "type": "INSTRUCTIONS", "trial_index": 132}, "uniqueid": "MTK1718:3TEM0PF1Q64YFOM6LANZB24OZPO0DT", "dateTime": 1516132121848}, {"current_trial": 133, "trialdata": {"rt": [2666, 4379, 7024, 9654, 11852], "trial_type": "math-distractor", "key_times": [2167, 2325, 2666, 3969, 4156, 4379, 6320, 6499, 7024, 9294, 9484, 9654, 11409, 11535, 11852], "responses": ["18", "19", "11", "11", "18"], "num2": [8, 2, 6, 2, 4, 6], "num3": [4, 9, 2, 2, 6, 9], "conditions": [24, 800, "a", 12000], "internal_node_id": "0.0-97.0", "key_presses": [49, 56, 13, 49, 57, 13, 49, 49, 13, 49, 49, 13, 49, 56, 13], "trial": 4, "time_elapsed": 785114, "type": "DISTRACTOR", "trial_index": 133, "num1": [6, 8, 3, 7, 8, 2]}, "uniqueid": "MTK1718:3TEM0PF1Q64YFOM6LANZB24OZPO0DT", "dateTime": 1516132135851}, {"current_trial": 134, "trialdata": {"rt": -1, "trial_type": "single-stim", "stimulus": "<p id=\"stim\">10</p>", "internal_node_id": "0.0-98.0-0.0", "time_elapsed": 788114, "key_press": -1, "trial_index": 134}, "uniqueid": "MTK1718:3TEM0PF1Q64YFOM6LANZB24OZPO0DT", "dateTime": 1516132138852}, {"current_trial": 135, "trialdata": {"rt": -1, "trial_type": "single-stim", "stimulus": "<p id=\"stim\">9</p>", "internal_node_id": "0.0-98.0-1.0", "time_elapsed": 789115, "key_press": -1, "trial_index": 135}, "uniqueid": "MTK1718:3TEM0PF1Q64YFOM6LANZB24OZPO0DT", "dateTime": 1516132139853}, {"current_trial": 136, "trialdata": {"rt": -1, "trial_type": "single-stim", "stimulus": "<p id=\"stim\">8</p>", "internal_node_id": "0.0-98.0-2.0", "time_elapsed": 790116, "key_press": -1, "trial_index": 136}, "uniqueid": "MTK1718:3TEM0PF1Q64YFOM6LANZB24OZPO0DT", "dateTime": 1516132140853}, {"current_trial": 137, "trialdata": {"rt": -1, "trial_type": "single-stim", "stimulus": "<p id=\"stim\">7</p>", "internal_node_id": "0.0-98.0-3.0", "time_elapsed": 791118, "key_press": -1, "trial_index": 137}, "uniqueid": "MTK1718:3TEM0PF1Q64YFOM6LANZB24OZPO0DT", "dateTime": 1516132141855}, {"current_trial": 138, "trialdata": {"rt": -1, "trial_type": "single-stim", "stimulus": "<p id=\"stim\">6</p>", "internal_node_id": "0.0-98.0-4.0", "time_elapsed": 792118, "key_press": -1, "trial_index": 138}, "uniqueid": "MTK1718:3TEM0PF1Q64YFOM6LANZB24OZPO0DT", "dateTime": 1516132142856}, {"current_trial": 139, "trialdata": {"rt": -1, "trial_type": "single-stim", "stimulus": "<p id=\"stim\">5</p>", "internal_node_id": "0.0-98.0-5.0", "time_elapsed": 793120, "key_press": -1, "trial_index": 139}, "uniqueid": "MTK1718:3TEM0PF1Q64YFOM6LANZB24OZPO0DT", "dateTime": 1516132143857}, {"current_trial": 140, "trialdata": {"rt": -1, "trial_type": "single-stim", "stimulus": "<p id=\"stim\">4</p>", "internal_node_id": "0.0-98.0-6.0", "time_elapsed": 794120, "key_press": -1, "trial_index": 140}, "uniqueid": "MTK1718:3TEM0PF1Q64YFOM6LANZB24OZPO0DT", "dateTime": 1516132144858}, {"current_trial": 141, "trialdata": {"rt": -1, "trial_type": "single-stim", "stimulus": "<p id=\"stim\">3</p>", "internal_node_id": "0.0-98.0-7.0", "time_elapsed": 795121, "key_press": -1, "trial_index": 141}, "uniqueid": "MTK1718:3TEM0PF1Q64YFOM6LANZB24OZPO0DT", "dateTime": 1516132145859}, {"current_trial": 142, "trialdata": {"rt": -1, "trial_type": "single-stim", "stimulus": "<p id=\"stim\">2</p>", "internal_node_id": "0.0-98.0-8.0", "time_elapsed": 796123, "key_press": -1, "trial_index": 142}, "uniqueid": "MTK1718:3TEM0PF1Q64YFOM6LANZB24OZPO0DT", "dateTime": 1516132146860}, {"current_trial": 143, "trialdata": {"rt": -1, "trial_type": "single-stim", "stimulus": "<p id=\"stim\">1</p>", "internal_node_id": "0.0-98.0-9.0", "time_elapsed": 797165, "key_press": -1, "trial_index": 143}, "uniqueid": "MTK1718:3TEM0PF1Q64YFOM6LANZB24OZPO0DT", "dateTime": 1516132147902}, {"current_trial": 144, "trialdata": {"rt": -1, "trial_type": "single-stim", "stimulus": "<p id=\"stim\">+</p>", "internal_node_id": "0.0-99.0-0.0", "time_elapsed": 798665, "key_press": -1, "type": "FIXATION", "trial_index": 144}, "uniqueid": "MTK1718:3TEM0PF1Q64YFOM6LANZB24OZPO0DT", "dateTime": 1516132149402}, {"current_trial": 145, "trialdata": {"rt": -1000, "trial_type": "single-audio", "word": "orchid", "stimulus": "/static/audio/wordpool/ORCHID.wav", "conditions": [24, 800, "a", 12000], "internal_node_id": "0.0-100.0", "trial": 4, "time_elapsed": 800304, "serialpos": 0, "key_press": -1, "wordID": 981, "type": "PRES_AUD", "trial_index": 145}, "uniqueid": "MTK1718:3TEM0PF1Q64YFOM6LANZB24OZPO0DT", "dateTime": 1516132151041}, {"current_trial": 146, "trialdata": {"rt": -1000, "trial_type": "single-audio", "word": "garbage", "stimulus": "/static/audio/wordpool/GARBAGE.wav", "conditions": [24, 800, "a", 12000], "internal_node_id": "0.0-101.0", "trial": 4, "time_elapsed": 802103, "serialpos": 1, "key_press": -1, "wordID": 621, "type": "PRES_AUD", "trial_index": 146}, "uniqueid": "MTK1718:3TEM0PF1Q64YFOM6LANZB24OZPO0DT", "dateTime": 1516132152840}, {"current_trial": 147, "trialdata": {"rt": -1000, "trial_type": "single-audio", "word": "switch", "stimulus": "/static/audio/wordpool/SWITCH.wav", "conditions": [24, 800, "a", 12000], "internal_node_id": "0.0-102.0", "trial": 4, "time_elapsed": 803892, "serialpos": 2, "key_press": -1, "wordID": 1421, "type": "PRES_AUD", "trial_index": 147}, "uniqueid": "MTK1718:3TEM0PF1Q64YFOM6LANZB24OZPO0DT", "dateTime": 1516132154629}, {"current_trial": 148, "trialdata": {"rt": -1000, "trial_type": "single-audio", "word": "sticker", "stimulus": "/static/audio/wordpool/STICKER.wav", "conditions": [24, 800, "a", 12000], "internal_node_id": "0.0-103.0", "trial": 4, "time_elapsed": 805494, "serialpos": 3, "key_press": -1, "wordID": 1381, "type": "PRES_AUD", "trial_index": 148}, "uniqueid": "MTK1718:3TEM0PF1Q64YFOM6LANZB24OZPO0DT", "dateTime": 1516132156231}, {"current_trial": 149, "trialdata": {"rt": -1000, "trial_type": "single-audio", "word": "uncle", "stimulus": "/static/audio/wordpool/UNCLE.wav", "conditions": [24, 800, "a", 12000], "internal_node_id": "0.0-104.0", "trial": 4, "time_elapsed": 807372, "serialpos": 4, "key_press": -1, "wordID": 1535, "type": "PRES_AUD", "trial_index": 149}, "uniqueid": "MTK1718:3TEM0PF1Q64YFOM6LANZB24OZPO0DT", "dateTime": 1516132158109}, {"current_trial": 150, "trialdata": {"rt": -1000, "trial_type": "single-audio", "word": "plaza", "stimulus": "/static/audio/wordpool/PLAZA.wav", "conditions": [24, 800, "a", 12000], "internal_node_id": "0.0-105.0", "trial": 4, "time_elapsed": 809178, "serialpos": 5, "key_press": -1, "wordID": 1087, "type": "PRES_AUD", "trial_index": 150}, "uniqueid": "MTK1718:3TEM0PF1Q64YFOM6LANZB24OZPO0DT", "dateTime": 1516132159915}, {"current_trial": 151, "trialdata": {"rt": -1000, "trial_type": "single-audio", "word": "sidewalk", "stimulus": "/static/audio/wordpool/SIDEWALK.wav", "conditions": [24, 800, "a", 12000], "internal_node_id": "0.0-106.0", "trial": 4, "time_elapsed": 810927, "serialpos": 6, "key_press": -1, "wordID": 1302, "type": "PRES_AUD", "trial_index": 151}, "uniqueid": "MTK1718:3TEM0PF1Q64YFOM6LANZB24OZPO0DT", "dateTime": 1516132161664}, {"current_trial": 152, "trialdata": {"rt": -1000, "trial_type": "single-audio", "word": "teacher", "stimulus": "/static/audio/wordpool/TEACHER.wav", "conditions": [24, 800, "a", 12000], "internal_node_id": "0.0-107.0", "trial": 4, "time_elapsed": 812796, "serialpos": 7, "key_press": -1, "wordID": 1439, "type": "PRES_AUD", "trial_index": 152}, "uniqueid": "MTK1718:3TEM0PF1Q64YFOM6LANZB24OZPO0DT", "dateTime": 1516132163533}, {"current_trial": 153, "trialdata": {"rt": -1000, "trial_type": "single-audio", "word": "husband", "stimulus": "/static/audio/wordpool/HUSBAND.wav", "conditions": [24, 800, "a", 12000], "internal_node_id": "0.0-108.0", "trial": 4, "time_elapsed": 814767, "serialpos": 8, "key_press": -1, "wordID": 727, "type": "PRES_AUD", "trial_index": 153}, "uniqueid": "MTK1718:3TEM0PF1Q64YFOM6LANZB24OZPO0DT", "dateTime": 1516132165504}, {"current_trial": 154, "trialdata": {"rt": -1000, "trial_type": "single-audio", "word": "ankle", "stimulus": "/static/audio/wordpool/ANKLE.wav", "conditions": [24, 800, "a", 12000], "internal_node_id": "0.0-109.0", "trial": 4, "time_elapsed": 816735, "serialpos": 9, "key_press": -1, "wordID": 23, "type": "PRES_AUD", "trial_index": 154}, "uniqueid": "MTK1718:3TEM0PF1Q64YFOM6LANZB24OZPO0DT", "dateTime": 1516132167472}, {"current_trial": 155, "trialdata": {"rt": -1000, "trial_type": "single-audio", "word": "guard", "stimulus": "/static/audio/wordpool/GUARD.wav", "conditions": [24, 800, "a", 12000], "internal_node_id": "0.0-110.0", "trial": 4, "time_elapsed": 818429, "serialpos": 10, "key_press": -1, "wordID": 666, "type": "PRES_AUD", "trial_index": 155}, "uniqueid": "MTK1718:3TEM0PF1Q64YFOM6LANZB24OZPO0DT", "dateTime": 1516132169166}, {"current_trial": 156, "trialdata": {"rt": -1000, "trial_type": "single-audio", "word": "message", "stimulus": "/static/audio/wordpool/MESSAGE.wav", "conditions": [24, 800, "a", 12000], "internal_node_id": "0.0-111.0", "trial": 4, "time_elapsed": 820086, "serialpos": 11, "key_press": -1, "wordID": 887, "type": "PRES_AUD", "trial_index": 156}, "uniqueid": "MTK1718:3TEM0PF1Q64YFOM6LANZB24OZPO0DT", "dateTime": 1516132170823}, {"current_trial": 157, "trialdata": {"rt": -1000, "trial_type": "single-audio", "word": "chest", "stimulus": "/static/audio/wordpool/CHEST.wav", "conditions": [24, 800, "a", 12000], "internal_node_id": "0.0-112.0", "trial": 4, "time_elapsed": 821970, "serialpos": 12, "key_press": -1, "wordID": 294, "type": "PRES_AUD", "trial_index": 157}, "uniqueid": "MTK1718:3TEM0PF1Q64YFOM6LANZB24OZPO0DT", "dateTime": 1516132172707}, {"current_trial": 158, "trialdata": {"rt": -1000, "trial_type": "single-audio", "word": "wardrobe", "stimulus": "/static/audio/wordpool/WARDROBE.wav", "conditions": [24, 800, "a", 12000], "internal_node_id": "0.0-113.0", "trial": 4, "time_elapsed": 823754, "serialpos": 13, "key_press": -1, "wordID": 1586, "type": "PRES_AUD", "trial_index": 158}, "uniqueid": "MTK1718:3TEM0PF1Q64YFOM6LANZB24OZPO0DT", "dateTime": 1516132174491}, {"current_trial": 159, "trialdata": {"rt": -1000, "trial_type": "single-audio", "word": "cupboard", "stimulus": "/static/audio/wordpool/CUPBOARD.wav", "conditions": [24, 800, "a", 12000], "internal_node_id": "0.0-114.0", "trial": 4, "time_elapsed": 825610, "serialpos": 14, "key_press": -1, "wordID": 424, "type": "PRES_AUD", "trial_index": 159}, "uniqueid": "MTK1718:3TEM0PF1Q64YFOM6LANZB24OZPO0DT", "dateTime": 1516132176347}, {"current_trial": 160, "trialdata": {"rt": -1000, "trial_type": "single-audio", "word": "kitchen", "stimulus": "/static/audio/wordpool/KITCHEN.wav", "conditions": [24, 800, "a", 12000], "internal_node_id": "0.0-115.0", "trial": 4, "time_elapsed": 827551, "serialpos": 15, "key_press": -1, "wordID": 777, "type": "PRES_AUD", "trial_index": 160}, "uniqueid": "MTK1718:3TEM0PF1Q64YFOM6LANZB24OZPO0DT", "dateTime": 1516132178289}, {"current_trial": 161, "trialdata": {"rt": -1000, "trial_type": "single-audio", "word": "beast", "stimulus": "/static/audio/wordpool/BEAST.wav", "conditions": [24, 800, "a", 12000], "internal_node_id": "0.0-116.0", "trial": 4, "time_elapsed": 829285, "serialpos": 16, "key_press": -1, "wordID": 107, "type": "PRES_AUD", "trial_index": 161}, "uniqueid": "MTK1718:3TEM0PF1Q64YFOM6LANZB24OZPO0DT", "dateTime": 1516132180022}, {"current_trial": 162, "trialdata": {"rt": -1000, "trial_type": "single-audio", "word": "partner", "stimulus": "/static/audio/wordpool/PARTNER.wav", "conditions": [24, 800, "a", 12000], "internal_node_id": "0.0-117.0", "trial": 4, "time_elapsed": 830970, "serialpos": 17, "key_press": -1, "wordID": 1016, "type": "PRES_AUD", "trial_index": 162}, "uniqueid": "MTK1718:3TEM0PF1Q64YFOM6LANZB24OZPO0DT", "dateTime": 1516132181707}, {"current_trial": 163, "trialdata": {"rt": -1000, "trial_type": "single-audio", "word": "creature", "stimulus": "/static/audio/wordpool/CREATURE.wav", "conditions": [24, 800, "a", 12000], "internal_node_id": "0.0-118.0", "trial": 4, "time_elapsed": 832724, "serialpos": 18, "key_press": -1, "wordID": 402, "type": "PRES_AUD", "trial_index": 163}, "uniqueid": "MTK1718:3TEM0PF1Q64YFOM6LANZB24OZPO0DT", "dateTime": 1516132183461}, {"current_trial": 164, "trialdata": {"rt": -1000, "trial_type": "single-audio", "word": "softball", "stimulus": "/static/audio/wordpool/SOFTBALL.wav", "conditions": [24, 800, "a", 12000], "internal_node_id": "0.0-119.0", "trial": 4, "time_elapsed": 834431, "serialpos": 19, "key_press": -1, "wordID": 1342, "type": "PRES_AUD", "trial_index": 164}, "uniqueid": "MTK1718:3TEM0PF1Q64YFOM6LANZB24OZPO0DT", "dateTime": 1516132185168}, {"current_trial": 165, "trialdata": {"rt": -1000, "trial_type": "single-audio", "word": "dress", "stimulus": "/static/audio/wordpool/DRESS.wav", "conditions": [24, 800, "a", 12000], "internal_node_id": "0.0-120.0", "trial": 4, "time_elapsed": 836237, "serialpos": 20, "key_press": -1, "wordID": 494, "type": "PRES_AUD", "trial_index": 165}, "uniqueid": "MTK1718:3TEM0PF1Q64YFOM6LANZB24OZPO0DT", "dateTime": 1516132186974}, {"current_trial": 166, "trialdata": {"rt": -1000, "trial_type": "single-audio", "word": "arm", "stimulus": "/static/audio/wordpool/ARM.wav", "conditions": [24, 800, "a", 12000], "internal_node_id": "0.0-121.0", "trial": 4, "time_elapsed": 838210, "serialpos": 21, "key_press": -1, "wordID": 37, "type": "PRES_AUD", "trial_index": 166}, "uniqueid": "MTK1718:3TEM0PF1Q64YFOM6LANZB24OZPO0DT", "dateTime": 1516132188947}, {"current_trial": 167, "trialdata": {"rt": -1000, "trial_type": "single-audio", "word": "apron", "stimulus": "/static/audio/wordpool/APRON.wav", "conditions": [24, 800, "a", 12000], "internal_node_id": "0.0-122.0", "trial": 4, "time_elapsed": 840150, "serialpos": 22, "key_press": -1, "wordID": 34, "type": "PRES_AUD", "trial_index": 167}, "uniqueid": "MTK1718:3TEM0PF1Q64YFOM6LANZB24OZPO0DT", "dateTime": 1516132190887}, {"current_trial": 168, "trialdata": {"rt": -1000, "trial_type": "single-audio", "word": "gravel", "stimulus": "/static/audio/wordpool/GRAVEL.wav", "conditions": [24, 800, "a", 12000], "internal_node_id": "0.0-123.0", "trial": 4, "time_elapsed": 842131, "serialpos": 23, "key_press": -1, "wordID": 658, "type": "PRES_AUD", "trial_index": 168}, "uniqueid": "MTK1718:3TEM0PF1Q64YFOM6LANZB24OZPO0DT", "dateTime": 1516132192868}, {"current_trial": 169, "trialdata": {"rt": -1, "trial_type": "single-stim", "stimulus": "", "internal_node_id": "0.0-124.0-0.0", "time_elapsed": 843355, "key_press": -1, "type": "PRE_RECALL_DELAY", "trial_index": 169}, "uniqueid": "MTK1718:3TEM0PF1Q64YFOM6LANZB24OZPO0DT", "dateTime": 1516132194092}, {"current_trial": 170, "trialdata": {"rt": -1000, "trial_type": "single-audio", "stimulus": "/static/audio/400Hz.wav", "internal_node_id": "0.0-125.0", "time_elapsed": 843855, "key_press": -1, "type": "PRE_RECALL_ALERT", "trial_index": 170}, "uniqueid": "MTK1718:3TEM0PF1Q64YFOM6LANZB24OZPO0DT", "dateTime": 1516132194593}, {"current_trial": 171, "trialdata": {"rt": [2769, 3834, 5820, 7765, 10844, 17652, 21648, 41547, 48268, 54039], "recwords": ["gravel", "arm", "cupboard", "kitchen", "warddrobe", "softball", "grab", "dresser", "boyfriend", "partner"], "key_times": [1629, 1745, 1934, 2110, 2249, 2373, 2769, 3260, 3375, 3556, 3834, 4373, 4516, 4699, 4997, 5127, 5307, 5367, 5602, 5820, 6123, 6328, 6487, 6833, 7153, 7322, 7457, 7765, 7956, 8122, 8209, 8404, 8714, 8895, 10002, 10250, 10469, 10844, 16319, 16492, 16629, 16800, 16923, 17111, 17218, 17397, 17652, 19847, 20000, 20209, 20340, 20714, 21210, 21648, 39845, 40100, 40207, 40400, 40571, 40795, 40880, 41547, 46912, 47044, 47285, 47494, 47555, 47670, 47800, 47908, 48034, 48268, 53150, 53263, 53390, 53560, 53656, 53814, 53871, 54039], "trial_type": "free-recall", "conditions": [24, 800, "a", 12000], "internal_node_id": "0.0-126.0-0.0", "key_presses": [71, 82, 65, 86, 69, 76, 13, 65, 82, 77, 13, 67, 85, 80, 66, 79, 65, 82, 68, 13, 75, 73, 84, 67, 72, 69, 78, 13, 87, 65, 82, 68, 68, 82, 79, 66, 69, 13, 83, 79, 70, 84, 66, 65, 76, 76, 13, 71, 82, 65, 66, 222, 8, 13, 68, 82, 69, 83, 83, 69, 82, 13, 66, 79, 89, 70, 82, 73, 69, 78, 68, 13, 80, 65, 82, 84, 78, 69, 82, 13], "trial": 4, "time_elapsed": 903859, "type": "FREE_RECALL", "trial_index": 171}, "uniqueid": "MTK1718:3TEM0PF1Q64YFOM6LANZB24OZPO0DT", "dateTime": 1516132254603}, {"current_trial": 172, "trialdata": {"rt": 692, "trial_type": "text", "internal_node_id": "0.0-127.0", "time_elapsed": 906558, "key_press": 32, "type": "INSTRUCTIONS", "trial_index": 172}, "uniqueid": "MTK1718:3TEM0PF1Q64YFOM6LANZB24OZPO0DT", "dateTime": 1516132257296}, {"current_trial": 173, "trialdata": {"rt": [3549, 5451, 7493, 9975], "trial_type": "math-distractor", "key_times": [3241, 3549, 5092, 5227, 5451, 7085, 7253, 7493, 9570, 9752, 9975, 11497, 11732], "responses": ["9", "13", "14", "20"], "num2": [4, 1, 6, 7, 6], "num3": [3, 6, 6, 7, 6], "conditions": [12, 800, "a", 12000], "internal_node_id": "0.0-128.0", "key_presses": [57, 13, 49, 51, 13, 49, 52, 13, 50, 48, 13, 49, 56], "trial": 5, "time_elapsed": 920561, "type": "DISTRACTOR", "trial_index": 173, "num1": [2, 6, 2, 6, 6]}, "uniqueid": "MTK1718:3TEM0PF1Q64YFOM6LANZB24OZPO0DT", "dateTime": 1516132271298}, {"current_trial": 174, "trialdata": {"rt": -1, "trial_type": "single-stim", "stimulus": "<p id=\"stim\">10</p>", "internal_node_id": "0.0-129.0-0.0", "time_elapsed": 923562, "key_press": -1, "trial_index": 174}, "uniqueid": "MTK1718:3TEM0PF1Q64YFOM6LANZB24OZPO0DT", "dateTime": 1516132274300}, {"current_trial": 175, "trialdata": {"rt": -1, "trial_type": "single-stim", "stimulus": "<p id=\"stim\">9</p>", "internal_node_id": "0.0-129.0-1.0", "time_elapsed": 924563, "key_press": -1, "trial_index": 175}, "uniqueid": "MTK1718:3TEM0PF1Q64YFOM6LANZB24OZPO0DT", "dateTime": 1516132275301}, {"current_trial": 176, "trialdata": {"rt": -1, "trial_type": "single-stim", "stimulus": "<p id=\"stim\">8</p>", "internal_node_id": "0.0-129.0-2.0", "time_elapsed": 925564, "key_press": -1, "trial_index": 176}, "uniqueid": "MTK1718:3TEM0PF1Q64YFOM6LANZB24OZPO0DT", "dateTime": 1516132276301}, {"current_trial": 177, "trialdata": {"rt": -1, "trial_type": "single-stim", "stimulus": "<p id=\"stim\">7</p>", "internal_node_id": "0.0-129.0-3.0", "time_elapsed": 926565, "key_press": -1, "trial_index": 177}, "uniqueid": "MTK1718:3TEM0PF1Q64YFOM6LANZB24OZPO0DT", "dateTime": 1516132277303}, {"current_trial": 178, "trialdata": {"rt": -1, "trial_type": "single-stim", "stimulus": "<p id=\"stim\">6</p>", "internal_node_id": "0.0-129.0-4.0", "time_elapsed": 927567, "key_press": -1, "trial_index": 178}, "uniqueid": "MTK1718:3TEM0PF1Q64YFOM6LANZB24OZPO0DT", "dateTime": 1516132278305}, {"current_trial": 179, "trialdata": {"rt": -1, "trial_type": "single-stim", "stimulus": "<p id=\"stim\">5</p>", "internal_node_id": "0.0-129.0-5.0", "time_elapsed": 928569, "key_press": -1, "trial_index": 179}, "uniqueid": "MTK1718:3TEM0PF1Q64YFOM6LANZB24OZPO0DT", "dateTime": 1516132279306}, {"current_trial": 180, "trialdata": {"rt": -1, "trial_type": "single-stim", "stimulus": "<p id=\"stim\">4</p>", "internal_node_id": "0.0-129.0-6.0", "time_elapsed": 929569, "key_press": -1, "trial_index": 180}, "uniqueid": "MTK1718:3TEM0PF1Q64YFOM6LANZB24OZPO0DT", "dateTime": 1516132280307}, {"current_trial": 181, "trialdata": {"rt": -1, "trial_type": "single-stim", "stimulus": "<p id=\"stim\">3</p>", "internal_node_id": "0.0-129.0-7.0", "time_elapsed": 930570, "key_press": -1, "trial_index": 181}, "uniqueid": "MTK1718:3TEM0PF1Q64YFOM6LANZB24OZPO0DT", "dateTime": 1516132281308}, {"current_trial": 182, "trialdata": {"rt": -1, "trial_type": "single-stim", "stimulus": "<p id=\"stim\">2</p>", "internal_node_id": "0.0-129.0-8.0", "time_elapsed": 931571, "key_press": -1, "trial_index": 182}, "uniqueid": "MTK1718:3TEM0PF1Q64YFOM6LANZB24OZPO0DT", "dateTime": 1516132282308}, {"current_trial": 183, "trialdata": {"rt": -1, "trial_type": "single-stim", "stimulus": "<p id=\"stim\">1</p>", "internal_node_id": "0.0-129.0-9.0", "time_elapsed": 932572, "key_press": -1, "trial_index": 183}, "uniqueid": "MTK1718:3TEM0PF1Q64YFOM6LANZB24OZPO0DT", "dateTime": 1516132283310}, {"current_trial": 184, "trialdata": {"rt": -1, "trial_type": "single-stim", "stimulus": "<p id=\"stim\">+</p>", "internal_node_id": "0.0-130.0-0.0", "time_elapsed": 934073, "key_press": -1, "type": "FIXATION", "trial_index": 184}, "uniqueid": "MTK1718:3TEM0PF1Q64YFOM6LANZB24OZPO0DT", "dateTime": 1516132284810}, {"current_trial": 185, "trialdata": {"rt": -1000, "trial_type": "single-audio", "word": "sponge", "stimulus": "/static/audio/wordpool/SPONGE.wav", "conditions": [12, 800, "a", 12000], "internal_node_id": "0.0-131.0", "trial": 5, "time_elapsed": 935883, "serialpos": 0, "key_press": -1, "wordID": 1354, "type": "PRES_AUD", "trial_index": 185}, "uniqueid": "MTK1718:3TEM0PF1Q64YFOM6LANZB24OZPO0DT", "dateTime": 1516132286620}, {"current_trial": 186, "trialdata": {"rt": -1000, "trial_type": "single-audio", "word": "jelly", "stimulus": "/static/audio/wordpool/JELLY.wav", "conditions": [12, 800, "a", 12000], "internal_node_id": "0.0-132.0", "trial": 5, "time_elapsed": 937692, "serialpos": 1, "key_press": -1, "wordID": 754, "type": "PRES_AUD", "trial_index": 186}, "uniqueid": "MTK1718:3TEM0PF1Q64YFOM6LANZB24OZPO0DT", "dateTime": 1516132288429}, {"current_trial": 187, "trialdata": {"rt": -1000, "trial_type": "single-audio", "word": "candy", "stimulus": "/static/audio/wordpool/CANDY.wav", "conditions": [12, 800, "a", 12000], "internal_node_id": "0.0-133.0", "trial": 5, "time_elapsed": 939631, "serialpos": 2, "key_press": -1, "wordID": 229, "type": "PRES_AUD", "trial_index": 187}, "uniqueid": "MTK1718:3TEM0PF1Q64YFOM6LANZB24OZPO0DT", "dateTime": 1516132290368}, {"current_trial": 188, "trialdata": {"rt": -1000, "trial_type": "single-audio", "word": "bike", "stimulus": "/static/audio/wordpool/BIKE.wav", "conditions": [12, 800, "a", 12000], "internal_node_id": "0.0-134.0", "trial": 5, "time_elapsed": 941516, "serialpos": 3, "key_press": -1, "wordID": 124, "type": "PRES_AUD", "trial_index": 188}, "uniqueid": "MTK1718:3TEM0PF1Q64YFOM6LANZB24OZPO0DT", "dateTime": 1516132292253}, {"current_trial": 189, "trialdata": {"rt": -1000, "trial_type": "single-audio", "word": "peach", "stimulus": "/static/audio/wordpool/PEACH.wav", "conditions": [12, 800, "a", 12000], "internal_node_id": "0.0-135.0", "trial": 5, "time_elapsed": 943326, "serialpos": 4, "key_press": -1, "wordID": 1030, "type": "PRES_AUD", "trial_index": 189}, "uniqueid": "MTK1718:3TEM0PF1Q64YFOM6LANZB24OZPO0DT", "dateTime": 1516132294063}, {"current_trial": 190, "trialdata": {"rt": -1000, "trial_type": "single-audio", "word": "soda", "stimulus": "/static/audio/wordpool/SODA.wav", "conditions": [12, 800, "a", 12000], "internal_node_id": "0.0-136.0", "trial": 5, "time_elapsed": 945229, "serialpos": 5, "key_press": -1, "wordID": 1340, "type": "PRES_AUD", "trial_index": 190}, "uniqueid": "MTK1718:3TEM0PF1Q64YFOM6LANZB24OZPO0DT", "dateTime": 1516132295966}, {"current_trial": 191, "trialdata": {"rt": -1000, "trial_type": "single-audio", "word": "shirt", "stimulus": "/static/audio/wordpool/SHIRT.wav", "conditions": [12, 800, "a", 12000], "internal_node_id": "0.0-137.0", "trial": 5, "time_elapsed": 946860, "serialpos": 6, "key_press": -1, "wordID": 1286, "type": "PRES_AUD", "trial_index": 191}, "uniqueid": "MTK1718:3TEM0PF1Q64YFOM6LANZB24OZPO0DT", "dateTime": 1516132297597}, {"current_trial": 192, "trialdata": {"rt": -1000, "trial_type": "single-audio", "word": "hook", "stimulus": "/static/audio/wordpool/HOOK.wav", "conditions": [12, 800, "a", 12000], "internal_node_id": "0.0-138.0", "trial": 5, "time_elapsed": 948775, "serialpos": 7, "key_press": -1, "wordID": 714, "type": "PRES_AUD", "trial_index": 192}, "uniqueid": "MTK1718:3TEM0PF1Q64YFOM6LANZB24OZPO0DT", "dateTime": 1516132299512}, {"current_trial": 193, "trialdata": {"rt": -1000, "trial_type": "single-audio", "word": "skirt", "stimulus": "/static/audio/wordpool/SKIRT.wav", "conditions": [12, 800, "a", 12000], "internal_node_id": "0.0-139.0", "trial": 5, "time_elapsed": 950649, "serialpos": 8, "key_press": -1, "wordID": 1318, "type": "PRES_AUD", "trial_index": 193}, "uniqueid": "MTK1718:3TEM0PF1Q64YFOM6LANZB24OZPO0DT", "dateTime": 1516132301386}, {"current_trial": 194, "trialdata": {"rt": -1000, "trial_type": "single-audio", "word": "shovel", "stimulus": "/static/audio/wordpool/SHOVEL.wav", "conditions": [12, 800, "a", 12000], "internal_node_id": "0.0-140.0", "trial": 5, "time_elapsed": 952358, "serialpos": 9, "key_press": -1, "wordID": 1294, "type": "PRES_AUD", "trial_index": 194}, "uniqueid": "MTK1718:3TEM0PF1Q64YFOM6LANZB24OZPO0DT", "dateTime": 1516132303095}, {"current_trial": 195, "trialdata": {"rt": -1000, "trial_type": "single-audio", "word": "brother", "stimulus": "/static/audio/wordpool/BROTHER.wav", "conditions": [12, 800, "a", 12000], "internal_node_id": "0.0-141.0", "trial": 5, "time_elapsed": 954057, "serialpos": 10, "key_press": -1, "wordID": 178, "type": "PRES_AUD", "trial_index": 195}, "uniqueid": "MTK1718:3TEM0PF1Q64YFOM6LANZB24OZPO0DT", "dateTime": 1516132304794}, {"current_trial": 196, "trialdata": {"rt": -1000, "trial_type": "single-audio", "word": "sibling", "stimulus": "/static/audio/wordpool/SIBLING.wav", "conditions": [12, 800, "a", 12000], "internal_node_id": "0.0-142.0", "trial": 5, "time_elapsed": 955859, "serialpos": 11, "key_press": -1, "wordID": 1300, "type": "PRES_AUD", "trial_index": 196}, "uniqueid": "MTK1718:3TEM0PF1Q64YFOM6LANZB24OZPO0DT", "dateTime": 1516132306596}, {"current_trial": 197, "trialdata": {"rt": -1, "trial_type": "single-stim", "stimulus": "", "internal_node_id": "0.0-143.0-0.0", "time_elapsed": 957222, "key_press": -1, "type": "PRE_RECALL_DELAY", "trial_index": 197}, "uniqueid": "MTK1718:3TEM0PF1Q64YFOM6LANZB24OZPO0DT", "dateTime": 1516132307960}, {"current_trial": 198, "trialdata": {"rt": -1000, "trial_type": "single-audio", "stimulus": "/static/audio/400Hz.wav", "internal_node_id": "0.0-144.0", "time_elapsed": 957731, "key_press": -1, "type": "PRE_RECALL_ALERT", "trial_index": 198}, "uniqueid": "MTK1718:3TEM0PF1Q64YFOM6LANZB24OZPO0DT", "dateTime": 1516132308468}, {"current_trial": 199, "trialdata": {"rt": [1464, 2858, 3940, 7741, 13394, 23867], "recwords": ["brother", "sibling", "shirt", "candy", "shirt", "gavel"], "key_times": [362, 574, 764, 908, 995, 1101, 1181, 1464, 1724, 1904, 2051, 2191, 2311, 2530, 2634, 2858, 3129, 3275, 3354, 3549, 3769, 3940, 6897, 7107, 7217, 7324, 7534, 7741, 12462, 12593, 12691, 12825, 13045, 13394, 19314, 19517, 19727, 19958, 20087, 21009, 21631, 21672, 21706, 21740, 21774, 21810, 21843, 21877, 21911, 21944, 23014, 23226, 23377, 23539, 23640, 23867], "trial_type": "free-recall", "conditions": [12, 800, "a", 12000], "internal_node_id": "0.0-145.0-0.0", "key_presses": [66, 82, 79, 84, 72, 69, 82, 13, 83, 73, 66, 76, 73, 78, 71, 13, 83, 72, 73, 82, 84, 13, 67, 65, 78, 68, 89, 13, 83, 72, 73, 82, 84, 13, 71, 65, 86, 69, 76, 8, 8, 8, 8, 8, 8, 8, 8, 8, 8, 8, 71, 65, 86, 69, 76, 13], "trial": 5, "time_elapsed": 1017732, "type": "FREE_RECALL", "trial_index": 199}, "uniqueid": "MTK1718:3TEM0PF1Q64YFOM6LANZB24OZPO0DT", "dateTime": 1516132368477}, {"current_trial": 200, "trialdata": {"rt": 788, "trial_type": "text", "internal_node_id": "0.0-146.0", "time_elapsed": 1020529, "key_press": 32, "type": "INSTRUCTIONS", "trial_index": 200}, "uniqueid": "MTK1718:3TEM0PF1Q64YFOM6LANZB24OZPO0DT", "dateTime": 1516132371266}, {"current_trial": 201, "trialdata": {"rt": [2855, 4811, 6842, 8543, 10617], "trial_type": "math-distractor", "key_times": [2170, 2674, 2855, 4394, 4591, 4811, 6045, 6685, 6842, 8094, 8409, 8543, 10149, 10446, 10617], "responses": ["13", "10", "16", "15", "14"], "num2": [2, 4, 9, 9, 4, 4], "num3": [4, 4, 6, 1, 9, 7], "conditions": [24, 800, "a", 12000], "internal_node_id": "0.0-147.0", "key_presses": [49, 51, 13, 49, 48, 13, 49, 54, 13, 49, 53, 13, 49, 52, 13], "trial": 6, "time_elapsed": 1034533, "type": "DISTRACTOR", "trial_index": 201, "num1": [7, 2, 1, 5, 1, 7]}, "uniqueid": "MTK1718:3TEM0PF1Q64YFOM6LANZB24OZPO0DT", "dateTime": 1516132385270}, {"current_trial": 202, "trialdata": {"rt": -1, "trial_type": "single-stim", "stimulus": "<p id=\"stim\">10</p>", "internal_node_id": "0.0-148.0-0.0", "time_elapsed": 1037534, "key_press": -1, "trial_index": 202}, "uniqueid": "MTK1718:3TEM0PF1Q64YFOM6LANZB24OZPO0DT", "dateTime": 1516132388271}, {"current_trial": 203, "trialdata": {"rt": -1, "trial_type": "single-stim", "stimulus": "<p id=\"stim\">9</p>", "internal_node_id": "0.0-148.0-1.0", "time_elapsed": 1038536, "key_press": -1, "trial_index": 203}, "uniqueid": "MTK1718:3TEM0PF1Q64YFOM6LANZB24OZPO0DT", "dateTime": 1516132389273}, {"current_trial": 204, "trialdata": {"rt": -1, "trial_type": "single-stim", "stimulus": "<p id=\"stim\">8</p>", "internal_node_id": "0.0-148.0-2.0", "time_elapsed": 1039536, "key_press": -1, "trial_index": 204}, "uniqueid": "MTK1718:3TEM0PF1Q64YFOM6LANZB24OZPO0DT", "dateTime": 1516132390273}, {"current_trial": 205, "trialdata": {"rt": -1, "trial_type": "single-stim", "stimulus": "<p id=\"stim\">7</p>", "internal_node_id": "0.0-148.0-3.0", "time_elapsed": 1040537, "key_press": -1, "trial_index": 205}, "uniqueid": "MTK1718:3TEM0PF1Q64YFOM6LANZB24OZPO0DT", "dateTime": 1516132391274}, {"current_trial": 206, "trialdata": {"rt": -1, "trial_type": "single-stim", "stimulus": "<p id=\"stim\">6</p>", "internal_node_id": "0.0-148.0-4.0", "time_elapsed": 1041538, "key_press": -1, "trial_index": 206}, "uniqueid": "MTK1718:3TEM0PF1Q64YFOM6LANZB24OZPO0DT", "dateTime": 1516132392276}, {"current_trial": 207, "trialdata": {"rt": -1, "trial_type": "single-stim", "stimulus": "<p id=\"stim\">5</p>", "internal_node_id": "0.0-148.0-5.0", "time_elapsed": 1042543, "key_press": -1, "trial_index": 207}, "uniqueid": "MTK1718:3TEM0PF1Q64YFOM6LANZB24OZPO0DT", "dateTime": 1516132393280}, {"current_trial": 208, "trialdata": {"rt": -1, "trial_type": "single-stim", "stimulus": "<p id=\"stim\">4</p>", "internal_node_id": "0.0-148.0-6.0", "time_elapsed": 1043544, "key_press": -1, "trial_index": 208}, "uniqueid": "MTK1718:3TEM0PF1Q64YFOM6LANZB24OZPO0DT", "dateTime": 1516132394281}, {"current_trial": 209, "trialdata": {"rt": -1, "trial_type": "single-stim", "stimulus": "<p id=\"stim\">3</p>", "internal_node_id": "0.0-148.0-7.0", "time_elapsed": 1044544, "key_press": -1, "trial_index": 209}, "uniqueid": "MTK1718:3TEM0PF1Q64YFOM6LANZB24OZPO0DT", "dateTime": 1516132395283}, {"current_trial": 210, "trialdata": {"rt": -1, "trial_type": "single-stim", "stimulus": "<p id=\"stim\">2</p>", "internal_node_id": "0.0-148.0-8.0", "time_elapsed": 1045547, "key_press": -1, "trial_index": 210}, "uniqueid": "MTK1718:3TEM0PF1Q64YFOM6LANZB24OZPO0DT", "dateTime": 1516132396284}, {"current_trial": 211, "trialdata": {"rt": -1, "trial_type": "single-stim", "stimulus": "<p id=\"stim\">1</p>", "internal_node_id": "0.0-148.0-9.0", "time_elapsed": 1046547, "key_press": -1, "trial_index": 211}, "uniqueid": "MTK1718:3TEM0PF1Q64YFOM6LANZB24OZPO0DT", "dateTime": 1516132397285}, {"current_trial": 212, "trialdata": {"rt": -1, "trial_type": "single-stim", "stimulus": "<p id=\"stim\">+</p>", "internal_node_id": "0.0-149.0-0.0", "time_elapsed": 1048048, "key_press": -1, "type": "FIXATION", "trial_index": 212}, "uniqueid": "MTK1718:3TEM0PF1Q64YFOM6LANZB24OZPO0DT", "dateTime": 1516132398786}, {"current_trial": 213, "trialdata": {"rt": -1000, "trial_type": "single-audio", "word": "liver", "stimulus": "/static/audio/wordpool/LIVER.wav", "conditions": [24, 800, "a", 12000], "internal_node_id": "0.0-150.0", "trial": 6, "time_elapsed": 1050037, "serialpos": 0, "key_press": -1, "wordID": 832, "type": "PRES_AUD", "trial_index": 213}, "uniqueid": "MTK1718:3TEM0PF1Q64YFOM6LANZB24OZPO0DT", "dateTime": 1516132400774}, {"current_trial": 214, "trialdata": {"rt": -1000, "trial_type": "single-audio", "word": "palace", "stimulus": "/static/audio/wordpool/PALACE.wav", "conditions": [24, 800, "a", 12000], "internal_node_id": "0.0-151.0", "trial": 6, "time_elapsed": 1052007, "serialpos": 1, "key_press": -1, "wordID": 1005, "type": "PRES_AUD", "trial_index": 214}, "uniqueid": "MTK1718:3TEM0PF1Q64YFOM6LANZB24OZPO0DT", "dateTime": 1516132402744}, {"current_trial": 215, "trialdata": {"rt": -1000, "trial_type": "single-audio", "word": "rebel", "stimulus": "/static/audio/wordpool/REBEL.wav", "conditions": [24, 800, "a", 12000], "internal_node_id": "0.0-152.0", "trial": 6, "time_elapsed": 1053731, "serialpos": 2, "key_press": -1, "wordID": 1171, "type": "PRES_AUD", "trial_index": 215}, "uniqueid": "MTK1718:3TEM0PF1Q64YFOM6LANZB24OZPO0DT", "dateTime": 1516132404468}, {"current_trial": 216, "trialdata": {"rt": -1000, "trial_type": "single-audio", "word": "necklace", "stimulus": "/static/audio/wordpool/NECKLACE.wav", "conditions": [24, 800, "a", 12000], "internal_node_id": "0.0-153.0", "trial": 6, "time_elapsed": 1055426, "serialpos": 3, "key_press": -1, "wordID": 939, "type": "PRES_AUD", "trial_index": 216}, "uniqueid": "MTK1718:3TEM0PF1Q64YFOM6LANZB24OZPO0DT", "dateTime": 1516132406163}, {"current_trial": 217, "trialdata": {"rt": -1000, "trial_type": "single-audio", "word": "atlas", "stimulus": "/static/audio/wordpool/ATLAS.wav", "conditions": [24, 800, "a", 12000], "internal_node_id": "0.0-154.0", "trial": 6, "time_elapsed": 1057368, "serialpos": 4, "key_press": -1, "wordID": 52, "type": "PRES_AUD", "trial_index": 217}, "uniqueid": "MTK1718:3TEM0PF1Q64YFOM6LANZB24OZPO0DT", "dateTime": 1516132408105}, {"current_trial": 218, "trialdata": {"rt": -1000, "trial_type": "single-audio", "word": "silk", "stimulus": "/static/audio/wordpool/SILK.wav", "conditions": [24, 800, "a", 12000], "internal_node_id": "0.0-155.0", "trial": 6, "time_elapsed": 1059062, "serialpos": 5, "key_press": -1, "wordID": 1306, "type": "PRES_AUD", "trial_index": 218}, "uniqueid": "MTK1718:3TEM0PF1Q64YFOM6LANZB24OZPO0DT", "dateTime": 1516132409799}, {"current_trial": 219, "trialdata": {"rt": -1000, "trial_type": "single-audio", "word": "egypt", "stimulus": "/static/audio/wordpool/EGYPT.wav", "conditions": [24, 800, "a", 12000], "internal_node_id": "0.0-156.0", "trial": 6, "time_elapsed": 1060866, "serialpos": 6, "key_press": -1, "wordID": 518, "type": "PRES_AUD", "trial_index": 219}, "uniqueid": "MTK1718:3TEM0PF1Q64YFOM6LANZB24OZPO0DT", "dateTime": 1516132411603}, {"current_trial": 220, "trialdata": {"rt": -1000, "trial_type": "single-audio", "word": "briefcase", "stimulus": "/static/audio/wordpool/BRIEFCASE.wav", "conditions": [24, 800, "a", 12000], "internal_node_id": "0.0-157.0", "trial": 6, "time_elapsed": 1062559, "serialpos": 7, "key_press": -1, "wordID": 174, "type": "PRES_AUD", "trial_index": 220}, "uniqueid": "MTK1718:3TEM0PF1Q64YFOM6LANZB24OZPO0DT", "dateTime": 1516132413296}, {"current_trial": 221, "trialdata": {"rt": -1000, "trial_type": "single-audio", "word": "money", "stimulus": "/static/audio/wordpool/MONEY.wav", "conditions": [24, 800, "a", 12000], "internal_node_id": "0.0-158.0", "trial": 6, "time_elapsed": 1064358, "serialpos": 8, "key_press": -1, "wordID": 907, "type": "PRES_AUD", "trial_index": 221}, "uniqueid": "MTK1718:3TEM0PF1Q64YFOM6LANZB24OZPO0DT", "dateTime": 1516132415095}, {"current_trial": 222, "trialdata": {"rt": -1000, "trial_type": "single-audio", "word": "europe", "stimulus": "/static/audio/wordpool/EUROPE.wav", "conditions": [24, 800, "a", 12000], "internal_node_id": "0.0-159.0", "trial": 6, "time_elapsed": 1066343, "serialpos": 9, "key_press": -1, "wordID": 540, "type": "PRES_AUD", "trial_index": 222}, "uniqueid": "MTK1718:3TEM0PF1Q64YFOM6LANZB24OZPO0DT", "dateTime": 1516132417080}, {"current_trial": 223, "trialdata": {"rt": -1000, "trial_type": "single-audio", "word": "mailman", "stimulus": "/static/audio/wordpool/MAILMAN.wav", "conditions": [24, 800, "a", 12000], "internal_node_id": "0.0-160.0", "trial": 6, "time_elapsed": 1067945, "serialpos": 10, "key_press": -1, "wordID": 857, "type": "PRES_AUD", "trial_index": 223}, "uniqueid": "MTK1718:3TEM0PF1Q64YFOM6LANZB24OZPO0DT", "dateTime": 1516132418682}, {"current_trial": 224, "trialdata": {"rt": -1000, "trial_type": "single-audio", "word": "mailbox", "stimulus": "/static/audio/wordpool/MAILBOX.wav", "conditions": [24, 800, "a", 12000], "internal_node_id": "0.0-161.0", "trial": 6, "time_elapsed": 1069923, "serialpos": 11, "key_press": -1, "wordID": 856, "type": "PRES_AUD", "trial_index": 224}, "uniqueid": "MTK1718:3TEM0PF1Q64YFOM6LANZB24OZPO0DT", "dateTime": 1516132420660}, {"current_trial": 225, "trialdata": {"rt": -1000, "trial_type": "single-audio", "word": "salad", "stimulus": "/static/audio/wordpool/SALAD.wav", "conditions": [24, 800, "a", 12000], "internal_node_id": "0.0-162.0", "trial": 6, "time_elapsed": 1071702, "serialpos": 12, "key_press": -1, "wordID": 1223, "type": "PRES_AUD", "trial_index": 225}, "uniqueid": "MTK1718:3TEM0PF1Q64YFOM6LANZB24OZPO0DT", "dateTime": 1516132422439}, {"current_trial": 226, "trialdata": {"rt": -1000, "trial_type": "single-audio", "word": "waitress", "stimulus": "/static/audio/wordpool/WAITRESS.wav", "conditions": [24, 800, "a", 12000], "internal_node_id": "0.0-163.0", "trial": 6, "time_elapsed": 1073609, "serialpos": 13, "key_press": -1, "wordID": 1580, "type": "PRES_AUD", "trial_index": 226}, "uniqueid": "MTK1718:3TEM0PF1Q64YFOM6LANZB24OZPO0DT", "dateTime": 1516132424346}, {"current_trial": 227, "trialdata": {"rt": -1000, "trial_type": "single-audio", "word": "keeper", "stimulus": "/static/audio/wordpool/KEEPER.wav", "conditions": [24, 800, "a", 12000], "internal_node_id": "0.0-164.0", "trial": 6, "time_elapsed": 1075533, "serialpos": 14, "key_press": -1, "wordID": 768, "type": "PRES_AUD", "trial_index": 227}, "uniqueid": "MTK1718:3TEM0PF1Q64YFOM6LANZB24OZPO0DT", "dateTime": 1516132426270}, {"current_trial": 228, "trialdata": {"rt": -1000, "trial_type": "single-audio", "word": "costume", "stimulus": "/static/audio/wordpool/COSTUME.wav", "conditions": [24, 800, "a", 12000], "internal_node_id": "0.0-165.0", "trial": 6, "time_elapsed": 1077329, "serialpos": 15, "key_press": -1, "wordID": 382, "type": "PRES_AUD", "trial_index": 228}, "uniqueid": "MTK1718:3TEM0PF1Q64YFOM6LANZB24OZPO0DT", "dateTime": 1516132428066}, {"current_trial": 229, "trialdata": {"rt": -1000, "trial_type": "single-audio", "word": "grill", "stimulus": "/static/audio/wordpool/GRILL.wav", "conditions": [24, 800, "a", 12000], "internal_node_id": "0.0-166.0", "trial": 6, "time_elapsed": 1079023, "serialpos": 16, "key_press": -1, "wordID": 660, "type": "PRES_AUD", "trial_index": 229}, "uniqueid": "MTK1718:3TEM0PF1Q64YFOM6LANZB24OZPO0DT", "dateTime": 1516132429760}, {"current_trial": 230, "trialdata": {"rt": -1000, "trial_type": "single-audio", "word": "skillet", "stimulus": "/static/audio/wordpool/SKILLET.wav", "conditions": [24, 800, "a", 12000], "internal_node_id": "0.0-167.0", "trial": 6, "time_elapsed": 1080923, "serialpos": 17, "key_press": -1, "wordID": 1316, "type": "PRES_AUD", "trial_index": 230}, "uniqueid": "MTK1718:3TEM0PF1Q64YFOM6LANZB24OZPO0DT", "dateTime": 1516132431660}, {"current_trial": 231, "trialdata": {"rt": -1000, "trial_type": "single-audio", "word": "lizard", "stimulus": "/static/audio/wordpool/LIZARD.wav", "conditions": [24, 800, "a", 12000], "internal_node_id": "0.0-168.0", "trial": 6, "time_elapsed": 1082716, "serialpos": 18, "key_press": -1, "wordID": 833, "type": "PRES_AUD", "trial_index": 231}, "uniqueid": "MTK1718:3TEM0PF1Q64YFOM6LANZB24OZPO0DT", "dateTime": 1516132433453}, {"current_trial": 232, "trialdata": {"rt": -1000, "trial_type": "single-audio", "word": "cloud", "stimulus": "/static/audio/wordpool/CLOUD.wav", "conditions": [24, 800, "a", 12000], "internal_node_id": "0.0-169.0", "trial": 6, "time_elapsed": 1084561, "serialpos": 19, "key_press": -1, "wordID": 327, "type": "PRES_AUD", "trial_index": 232}, "uniqueid": "MTK1718:3TEM0PF1Q64YFOM6LANZB24OZPO0DT", "dateTime": 1516132435298}, {"current_trial": 233, "trialdata": {"rt": -1000, "trial_type": "single-audio", "word": "eagle", "stimulus": "/static/audio/wordpool/EAGLE.wav", "conditions": [24, 800, "a", 12000], "internal_node_id": "0.0-170.0", "trial": 6, "time_elapsed": 1086545, "serialpos": 20, "key_press": -1, "wordID": 511, "type": "PRES_AUD", "trial_index": 233}, "uniqueid": "MTK1718:3TEM0PF1Q64YFOM6LANZB24OZPO0DT", "dateTime": 1516132437282}, {"current_trial": 234, "trialdata": {"rt": -1000, "trial_type": "single-audio", "word": "cashew", "stimulus": "/static/audio/wordpool/CASHEW.wav", "conditions": [24, 800, "a", 12000], "internal_node_id": "0.0-171.0", "trial": 6, "time_elapsed": 1088444, "serialpos": 21, "key_press": -1, "wordID": 252, "type": "PRES_AUD", "trial_index": 234}, "uniqueid": "MTK1718:3TEM0PF1Q64YFOM6LANZB24OZPO0DT", "dateTime": 1516132439181}, {"current_trial": 235, "trialdata": {"rt": -1000, "trial_type": "single-audio", "word": "chipmunk", "stimulus": "/static/audio/wordpool/CHIPMUNK.wav", "conditions": [24, 800, "a", 12000], "internal_node_id": "0.0-172.0", "trial": 6, "time_elapsed": 1090205, "serialpos": 22, "key_press": -1, "wordID": 303, "type": "PRES_AUD", "trial_index": 235}, "uniqueid": "MTK1718:3TEM0PF1Q64YFOM6LANZB24OZPO0DT", "dateTime": 1516132440942}, {"current_trial": 236, "trialdata": {"rt": -1000, "trial_type": "single-audio", "word": "office", "stimulus": "/static/audio/wordpool/OFFICE.wav", "conditions": [24, 800, "a", 12000], "internal_node_id": "0.0-173.0", "trial": 6, "time_elapsed": 1092046, "serialpos": 23, "key_press": -1, "wordID": 971, "type": "PRES_AUD", "trial_index": 236}, "uniqueid": "MTK1718:3TEM0PF1Q64YFOM6LANZB24OZPO0DT", "dateTime": 1516132442783}, {"current_trial": 237, "trialdata": {"rt": -1, "trial_type": "single-stim", "stimulus": "", "internal_node_id": "0.0-174.0-0.0", "time_elapsed": 1093342, "key_press": -1, "type": "PRE_RECALL_DELAY", "trial_index": 237}, "uniqueid": "MTK1718:3TEM0PF1Q64YFOM6LANZB24OZPO0DT", "dateTime": 1516132444079}, {"current_trial": 238, "trialdata": {"rt": -1000, "trial_type": "single-audio", "stimulus": "/static/audio/400Hz.wav", "internal_node_id": "0.0-175.0", "time_elapsed": 1093848, "key_press": -1, "type": "PRE_RECALL_ALERT", "trial_index": 238}, "uniqueid": "MTK1718:3TEM0PF1Q64YFOM6LANZB24OZPO0DT", "dateTime": 1516132444585}, {"current_trial": 239, "trialdata": {"rt": [1656, 3619, 4997, 6688, 9978, 12341, 14914, 18769, 24790, 50550, 52672, 54526, 57280], "recwords": ["office", "chipmunk", "cashew", "egypt", "necklace", "eagle", "palace", "chip", "office", "salad", "waittress", "keeper", "closet"], "key_times": [841, 842, 842, 949, 1204, 1483, 1656, 2085, 2286, 2364, 2592, 2810, 3041, 3290, 3374, 3619, 3911, 4158, 4281, 4427, 4607, 4805, 4997, 5617, 5880, 6208, 6392, 6504, 6688, 8527, 8781, 8994, 9099, 9291, 9401, 9581, 9790, 9978, 11525, 11691, 11851, 11990, 12148, 12341, 14014, 14208, 14361, 14451, 14620, 14824, 14914, 17830, 17919, 18117, 18477, 18769, 23901, 24047, 24231, 24303, 24460, 24694, 24790, 49565, 49756, 49942, 50242, 50429, 50550, 50788, 50970, 51125, 51261, 51651, 51849, 51936, 52234, 52464, 52672, 53004, 53224, 53490, 53755, 53910, 54007, 54526, 55498, 55827, 56030, 56216, 56541, 56763, 57280], "trial_type": "free-recall", "conditions": [24, 800, "a", 12000], "internal_node_id": "0.0-176.0-0.0", "key_presses": [79, 70, 70, 73, 67, 69, 13, 67, 72, 73, 80, 77, 85, 78, 75, 13, 67, 65, 83, 72, 69, 87, 13, 69, 71, 89, 80, 84, 13, 78, 69, 67, 75, 76, 65, 67, 69, 13, 69, 65, 71, 76, 69, 13, 80, 65, 76, 65, 67, 69, 13, 67, 72, 73, 80, 13, 79, 70, 70, 73, 67, 69, 13, 83, 65, 76, 65, 68, 13, 87, 65, 73, 84, 84, 82, 69, 83, 83, 13, 75, 69, 69, 80, 69, 82, 13, 67, 76, 79, 83, 69, 84, 13], "trial": 6, "time_elapsed": 1153849, "type": "FREE_RECALL", "trial_index": 239}, "uniqueid": "MTK1718:3TEM0PF1Q64YFOM6LANZB24OZPO0DT", "dateTime": 1516132504595}, {"current_trial": 240, "trialdata": {"rt": 32683, "trial_type": "text", "internal_node_id": "0.0-177.0", "time_elapsed": 1188541, "key_press": 32, "type": "INSTRUCTIONS", "trial_index": 240}, "uniqueid": "MTK1718:3TEM0PF1Q64YFOM6LANZB24OZPO0DT", "dateTime": 1516132539278}, {"current_trial": 241, "trialdata": {"rt": [1804, 4196, 12157, 16023, 18674, 21948], "trial_type": "math-distractor", "key_times": [1382, 1594, 1804, 3828, 4022, 4196, 11686, 11934, 12157, 15508, 15750, 16023, 18058, 18485, 18674, 21245, 21657, 21948, 23976], "responses": ["14", "11", "24", "19", "17", "21"], "num2": [3, 2, 8, 4, 2, 8, 9], "num3": [4, 1, 9, 6, 9, 8, 4], "conditions": [24, 1600, "a", 24000], "internal_node_id"