{"condition": 0, "counterbalance": 1055, "assignmentId": "3TEM0PF1Q64YFOM6LANZB24OWUZ0DB", "workerId": "MTK1222", "hitId": "3BKZLF990Z6NE8O282ZQE99NC5UYQI", "currenttrial": 626, "bonus": 0, "data": [{"uniqueid": "MTK1222:3TEM0PF1Q64YFOM6LANZB24OWUZ0DB", "current_trial": 0, "dateTime": 1513461860574, "trialdata": {"rt": 2060, "key_press": 72, "type": "INSTRUCTIONS", "trial_type": "text", "trial_index": 0, "time_elapsed": 2088, "internal_node_id": "0.0-0.0"}}, {"uniqueid": "MTK1222:3TEM0PF1Q64YFOM6LANZB24OWUZ0DB", "current_trial": 1, "dateTime": 1513461860581, "trialdata": {"rt": 5, "key_press": 74, "type": "INSTRUCTIONS", "trial_type": "text", "trial_index": 1, "time_elapsed": 2095, "internal_node_id": "0.0-1.0"}}, {"uniqueid": "MTK1222:3TEM0PF1Q64YFOM6LANZB24OWUZ0DB", "current_trial": 2, "dateTime": 1513461869179, "trialdata": {"rt": [8586], "responses": ["ocean"], "type": "AUDIO_TEST", "trial_type": "audio-test", "trial_index": 2, "time_elapsed": 10694, "internal_node_id": "0.0-2.0"}}, {"uniqueid": "MTK1222:3TEM0PF1Q64YFOM6LANZB24OWUZ0DB", "current_trial": 3, "dateTime": 1513461878011, "trialdata": {"rt": [8823], "responses": ["crystal"], "type": "AUDIO_TEST", "trial_type": "audio-test", "trial_index": 3, "time_elapsed": 19526, "internal_node_id": "0.0-3.0"}}, {"uniqueid": "MTK1222:3TEM0PF1Q64YFOM6LANZB24OWUZ0DB", "current_trial": 4, "dateTime": 1513461882267, "trialdata": {"rt": [4250], "responses": ["spice"], "type": "AUDIO_TEST", "trial_type": "audio-test", "trial_index": 4, "time_elapsed": 23781, "internal_node_id": "0.0-4.0"}}, {"uniqueid": "MTK1222:3TEM0PF1Q64YFOM6LANZB24OWUZ0DB", "current_trial": 5, "dateTime": 1513461900907, "trialdata": {"rt": 17888, "responses": "{\"Q0\":\"1:00am\",\"Q1\":\"10:30am\",\"Q2\":\"3.5\"}", "type": "SLEEP_SURVEY", "trial_type": "survey-text", "trial_index": 5, "time_elapsed": 42422, "internal_node_id": "0.0-5.0"}}, {"uniqueid": "MTK1222:3TEM0PF1Q64YFOM6LANZB24OWUZ0DB", "current_trial": 6, "dateTime": 1513461949354, "trialdata": {"rt": 47446, "key_press": 32, "type": "INSTRUCTIONS", "trial_type": "text", "trial_index": 6, "time_elapsed": 90869, "internal_node_id": "0.0-6.0"}}, {"uniqueid": "MTK1222:3TEM0PF1Q64YFOM6LANZB24OWUZ0DB", "current_trial": 7, "dateTime": 1513463092594, "trialdata": {"rt": 1142740, "key_press": 32, "type": "INSTRUCTIONS", "trial_type": "text", "trial_index": 7, "time_elapsed": 1234109, "internal_node_id": "0.0-7.0"}}, {"uniqueid": "MTK1222:3TEM0PF1Q64YFOM6LANZB24OWUZ0DB", "current_trial": 8, "dateTime": 1513463098347, "trialdata": {"rt": 5252, "key_press": 32, "type": "INSTRUCTIONS", "trial_type": "text", "trial_index": 8, "time_elapsed": 1239862, "internal_node_id": "0.0-8.0"}}, {"uniqueid": "MTK1222:3TEM0PF1Q64YFOM6LANZB24OWUZ0DB", "current_trial": 9, "dateTime": 1513463117351, "trialdata": {"rt": [7220, 9683, 11499, 15324, 17468], "responses": ["19", "17", "14", "21", "8"], "num1": [7, 2, 7, 8, 1, 4], "num2": [5, 7, 3, 8, 2, 1], "num3": [7, 8, 4, 5, 5, 8], "type": "DISTRACTOR", "conditions": [18, 1200, "v", 18000], "trial": 0, "trial_type": "math-distractor", "trial_index": 9, "time_elapsed": 1258866, "internal_node_id": "0.0-9.0"}}, {"uniqueid": "MTK1222:3TEM0PF1Q64YFOM6LANZB24OWUZ0DB", "current_trial": 10, "dateTime": 1513463120352, "trialdata": {"rt": -1, "stimulus": "<p id=\"stim\">10</p>", "key_press": -1, "trial_type": "single-stim", "trial_index": 10, "time_elapsed": 1261867, "internal_node_id": "0.0-10.0-0.0"}}, {"uniqueid": "MTK1222:3TEM0PF1Q64YFOM6LANZB24OWUZ0DB", "current_trial": 11, "dateTime": 1513463121352, "trialdata": {"rt": -1, "stimulus": "<p id=\"stim\">9</p>", "key_press": -1, "trial_type": "single-stim", "trial_index": 11, "time_elapsed": 1262867, "internal_node_id": "0.0-10.0-1.0"}}, {"uniqueid": "MTK1222:3TEM0PF1Q64YFOM6LANZB24OWUZ0DB", "current_trial": 12, "dateTime": 1513463122353, "trialdata": {"rt": -1, "stimulus": "<p id=\"stim\">8</p>", "key_press": -1, "trial_type": "single-stim", "trial_index": 12, "time_elapsed": 1263868, "internal_node_id": "0.0-10.0-2.0"}}, {"uniqueid": "MTK1222:3TEM0PF1Q64YFOM6LANZB24OWUZ0DB", "current_trial": 13, "dateTime": 1513463123354, "trialdata": {"rt": -1, "stimulus": "<p id=\"stim\">7</p>", "key_press": -1, "trial_type": "single-stim", "trial_index": 13, "time_elapsed": 1264869, "internal_node_id": "0.0-10.0-3.0"}}, {"uniqueid": "MTK1222:3TEM0PF1Q64YFOM6LANZB24OWUZ0DB", "current_trial": 14, "dateTime": 1513463124356, "trialdata": {"rt": -1, "stimulus": "<p id=\"stim\">6</p>", "key_press": -1, "trial_type": "single-stim", "trial_index": 14, "time_elapsed": 1265870, "internal_node_id": "0.0-10.0-4.0"}}, {"uniqueid": "MTK1222:3TEM0PF1Q64YFOM6LANZB24OWUZ0DB", "current_trial": 15, "dateTime": 1513463125357, "trialdata": {"rt": -1, "stimulus": "<p id=\"stim\">5</p>", "key_press": -1, "trial_type": "single-stim", "trial_index": 15, "time_elapsed": 1266872, "internal_node_id": "0.0-10.0-5.0"}}, {"uniqueid": "MTK1222:3TEM0PF1Q64YFOM6LANZB24OWUZ0DB", "current_trial": 16, "dateTime": 1513463126357, "trialdata": {"rt": -1, "stimulus": "<p id=\"stim\">4</p>", "key_press": -1, "trial_type": "single-stim", "trial_index": 16, "time_elapsed": 1267872, "internal_node_id": "0.0-10.0-6.0"}}, {"uniqueid": "MTK1222:3TEM0PF1Q64YFOM6LANZB24OWUZ0DB", "current_trial": 17, "dateTime": 1513463127357, "trialdata": {"rt": -1, "stimulus": "<p id=\"stim\">3</p>", "key_press": -1, "trial_type": "single-stim", "trial_index": 17, "time_elapsed": 1268872, "internal_node_id": "0.0-10.0-7.0"}}, {"uniqueid": "MTK1222:3TEM0PF1Q64YFOM6LANZB24OWUZ0DB", "current_trial": 18, "dateTime": 1513463128357, "trialdata": {"rt": -1, "stimulus": "<p id=\"stim\">2</p>", "key_press": -1, "trial_type": "single-stim", "trial_index": 18, "time_elapsed": 1269872, "internal_node_id": "0.0-10.0-8.0"}}, {"uniqueid": "MTK1222:3TEM0PF1Q64YFOM6LANZB24OWUZ0DB", "current_trial": 19, "dateTime": 1513463129358, "trialdata": {"rt": -1, "stimulus": "<p id=\"stim\">1</p>", "key_press": -1, "trial_type": "single-stim", "trial_index": 19, "time_elapsed": 1270873, "internal_node_id": "0.0-10.0-9.0"}}, {"uniqueid": "MTK1222:3TEM0PF1Q64YFOM6LANZB24OWUZ0DB", "current_trial": 20, "dateTime": 1513463130859, "trialdata": {"rt": -1, "stimulus": "<p id=\"stim\">+</p>", "key_press": -1, "type": "FIXATION", "trial_type": "single-stim", "trial_index": 20, "time_elapsed": 1272374, "internal_node_id": "0.0-11.0-0.0"}}, {"uniqueid": "MTK1222:3TEM0PF1Q64YFOM6LANZB24OWUZ0DB", "current_trial": 21, "dateTime": 1513463132060, "trialdata": {"rt": -1, "stimulus": "<p id=\"stim\">SERVER</p>", "key_press": -1, "type": "PRES_VIS", "word": "server", "wordID": 1271, "conditions": [18, 1200, "v", 18000], "trial": 0, "serialpos": 0, "trial_type": "single-stim", "trial_index": 21, "time_elapsed": 1273575, "internal_node_id": "0.0-12.0"}}, {"uniqueid": "MTK1222:3TEM0PF1Q64YFOM6LANZB24OWUZ0DB", "current_trial": 22, "dateTime": 1513463134257, "trialdata": {"rt": -1, "stimulus": "<p id=\"stim\">RATTLE</p>", "key_press": -1, "type": "PRES_VIS", "word": "rattle", "wordID": 1169, "conditions": [18, 1200, "v", 18000], "trial": 0, "serialpos": 1, "trial_type": "single-stim", "trial_index": 22, "time_elapsed": 1275772, "internal_node_id": "0.0-13.0"}}, {"uniqueid": "MTK1222:3TEM0PF1Q64YFOM6LANZB24OWUZ0DB", "current_trial": 23, "dateTime": 1513463136267, "trialdata": {"rt": -1, "stimulus": "<p id=\"stim\">STATUE</p>", "key_press": -1, "type": "PRES_VIS", "word": "statue", "wordID": 1373, "conditions": [18, 1200, "v", 18000], "trial": 0, "serialpos": 2, "trial_type": "single-stim", "trial_index": 23, "time_elapsed": 1277782, "internal_node_id": "0.0-14.0"}}, {"uniqueid": "MTK1222:3TEM0PF1Q64YFOM6LANZB24OWUZ0DB", "current_trial": 24, "dateTime": 1513463138650, "trialdata": {"rt": -1, "stimulus": "<p id=\"stim\">SHOULDER</p>", "key_press": -1, "type": "PRES_VIS", "word": "shoulder", "wordID": 1293, "conditions": [18, 1200, "v", 18000], "trial": 0, "serialpos": 3, "trial_type": "single-stim", "trial_index": 24, "time_elapsed": 1280165, "internal_node_id": "0.0-15.0"}}, {"uniqueid": "MTK1222:3TEM0PF1Q64YFOM6LANZB24OWUZ0DB", "current_trial": 25, "dateTime": 1513463140737, "trialdata": {"rt": -1, "stimulus": "<p id=\"stim\">WHISTLE</p>", "key_press": -1, "type": "PRES_VIS", "word": "whistle", "wordID": 1605, "conditions": [18, 1200, "v", 18000], "trial": 0, "serialpos": 4, "trial_type": "single-stim", "trial_index": 25, "time_elapsed": 1282252, "internal_node_id": "0.0-16.0"}}, {"uniqueid": "MTK1222:3TEM0PF1Q64YFOM6LANZB24OWUZ0DB", "current_trial": 26, "dateTime": 1513463142796, "trialdata": {"rt": -1, "stimulus": "<p id=\"stim\">KETCHUP</p>", "key_press": -1, "type": "PRES_VIS", "word": "ketchup", "wordID": 770, "conditions": [18, 1200, "v", 18000], "trial": 0, "serialpos": 5, "trial_type": "single-stim", "trial_index": 26, "time_elapsed": 1284311, "internal_node_id": "0.0-17.0"}}, {"uniqueid": "MTK1222:3TEM0PF1Q64YFOM6LANZB24OWUZ0DB", "current_trial": 27, "dateTime": 1513463144962, "trialdata": {"rt": -1, "stimulus": "<p id=\"stim\">MASK</p>", "key_press": -1, "type": "PRES_VIS", "word": "mask", "wordID": 875, "conditions": [18, 1200, "v", 18000], "trial": 0, "serialpos": 6, "trial_type": "single-stim", "trial_index": 27, "time_elapsed": 1286477, "internal_node_id": "0.0-18.0"}}, {"uniqueid": "MTK1222:3TEM0PF1Q64YFOM6LANZB24OWUZ0DB", "current_trial": 28, "dateTime": 1513463147281, "trialdata": {"rt": -1, "stimulus": "<p id=\"stim\">SOFTBALL</p>", "key_press": -1, "type": "PRES_VIS", "word": "softball", "wordID": 1342, "conditions": [18, 1200, "v", 18000], "trial": 0, "serialpos": 7, "trial_type": "single-stim", "trial_index": 28, "time_elapsed": 1288796, "internal_node_id": "0.0-19.0"}}, {"uniqueid": "MTK1222:3TEM0PF1Q64YFOM6LANZB24OWUZ0DB", "current_trial": 29, "dateTime": 1513463149447, "trialdata": {"rt": -1, "stimulus": "<p id=\"stim\">TREAT</p>", "key_press": -1, "type": "PRES_VIS", "word": "treat", "wordID": 1500, "conditions": [18, 1200, "v", 18000], "trial": 0, "serialpos": 8, "trial_type": "single-stim", "trial_index": 29, "time_elapsed": 1290962, "internal_node_id": "0.0-20.0"}}, {"uniqueid": "MTK1222:3TEM0PF1Q64YFOM6LANZB24OWUZ0DB", "current_trial": 30, "dateTime": 1513463151535, "trialdata": {"rt": -1, "stimulus": "<p id=\"stim\">CHILD</p>", "key_press": -1, "type": "PRES_VIS", "word": "child", "wordID": 298, "conditions": [18, 1200, "v", 18000], "trial": 0, "serialpos": 9, "trial_type": "single-stim", "trial_index": 30, "time_elapsed": 1293050, "internal_node_id": "0.0-21.0"}}, {"uniqueid": "MTK1222:3TEM0PF1Q64YFOM6LANZB24OWUZ0DB", "current_trial": 31, "dateTime": 1513463153571, "trialdata": {"rt": -1, "stimulus": "<p id=\"stim\">STONE</p>", "key_press": -1, "type": "PRES_VIS", "word": "stone", "wordID": 1384, "conditions": [18, 1200, "v", 18000], "trial": 0, "serialpos": 10, "trial_type": "single-stim", "trial_index": 31, "time_elapsed": 1295086, "internal_node_id": "0.0-22.0"}}, {"uniqueid": "MTK1222:3TEM0PF1Q64YFOM6LANZB24OWUZ0DB", "current_trial": 32, "dateTime": 1513463155574, "trialdata": {"rt": -1, "stimulus": "<p id=\"stim\">CAFE</p>", "key_press": -1, "type": "PRES_VIS", "word": "cafe", "wordID": 215, "conditions": [18, 1200, "v", 18000], "trial": 0, "serialpos": 11, "trial_type": "single-stim", "trial_index": 32, "time_elapsed": 1297089, "internal_node_id": "0.0-23.0"}}, {"uniqueid": "MTK1222:3TEM0PF1Q64YFOM6LANZB24OWUZ0DB", "current_trial": 33, "dateTime": 1513463157763, "trialdata": {"rt": -1, "stimulus": "<p id=\"stim\">TOURIST</p>", "key_press": -1, "type": "PRES_VIS", "word": "tourist", "wordID": 1487, "conditions": [18, 1200, "v", 18000], "trial": 0, "serialpos": 12, "trial_type": "single-stim", "trial_index": 33, "time_elapsed": 1299278, "internal_node_id": "0.0-24.0"}}, {"uniqueid": "MTK1222:3TEM0PF1Q64YFOM6LANZB24OWUZ0DB", "current_trial": 34, "dateTime": 1513463159863, "trialdata": {"rt": -1, "stimulus": "<p id=\"stim\">BASEMENT</p>", "key_press": -1, "type": "PRES_VIS", "word": "basement", "wordID": 93, "conditions": [18, 1200, "v", 18000], "trial": 0, "serialpos": 13, "trial_type": "single-stim", "trial_index": 34, "time_elapsed": 1301378, "internal_node_id": "0.0-25.0"}}, {"uniqueid": "MTK1222:3TEM0PF1Q64YFOM6LANZB24OWUZ0DB", "current_trial": 35, "dateTime": 1513463162246, "trialdata": {"rt": -1, "stimulus": "<p id=\"stim\">CABBAGE</p>", "key_press": -1, "type": "PRES_VIS", "word": "cabbage", "wordID": 209, "conditions": [18, 1200, "v", 18000], "trial": 0, "serialpos": 14, "trial_type": "single-stim", "trial_index": 35, "time_elapsed": 1303761, "internal_node_id": "0.0-26.0"}}, {"uniqueid": "MTK1222:3TEM0PF1Q64YFOM6LANZB24OWUZ0DB", "current_trial": 36, "dateTime": 1513463164319, "trialdata": {"rt": -1, "stimulus": "<p id=\"stim\">DORM</p>", "key_press": -1, "type": "PRES_VIS", "word": "dorm", "wordID": 487, "conditions": [18, 1200, "v", 18000], "trial": 0, "serialpos": 15, "trial_type": "single-stim", "trial_index": 36, "time_elapsed": 1305834, "internal_node_id": "0.0-27.0"}}, {"uniqueid": "MTK1222:3TEM0PF1Q64YFOM6LANZB24OWUZ0DB", "current_trial": 37, "dateTime": 1513463166602, "trialdata": {"rt": -1, "stimulus": "<p id=\"stim\">MATCH</p>", "key_press": -1, "type": "PRES_VIS", "word": "match", "wordID": 877, "conditions": [18, 1200, "v", 18000], "trial": 0, "serialpos": 16, "trial_type": "single-stim", "trial_index": 37, "time_elapsed": 1308117, "internal_node_id": "0.0-28.0"}}, {"uniqueid": "MTK1222:3TEM0PF1Q64YFOM6LANZB24OWUZ0DB", "current_trial": 38, "dateTime": 1513463168904, "trialdata": {"rt": -1, "stimulus": "<p id=\"stim\">ATOM</p>", "key_press": -1, "type": "PRES_VIS", "word": "atom", "wordID": 54, "conditions": [18, 1200, "v", 18000], "trial": 0, "serialpos": 17, "trial_type": "single-stim", "trial_index": 38, "time_elapsed": 1310419, "internal_node_id": "0.0-29.0"}}, {"uniqueid": "MTK1222:3TEM0PF1Q64YFOM6LANZB24OWUZ0DB", "current_trial": 39, "dateTime": 1513463171274, "trialdata": {"rt": -1, "stimulus": "", "key_press": -1, "type": "PRE_RECALL_DELAY", "trial_type": "single-stim", "trial_index": 39, "time_elapsed": 1312789, "internal_node_id": "0.0-30.0-0.0"}}, {"uniqueid": "MTK1222:3TEM0PF1Q64YFOM6LANZB24OWUZ0DB", "current_trial": 40, "dateTime": 1513463171780, "trialdata": {"rt": -1000, "stimulus": "/static/audio/400Hz.wav", "key_press": -1, "type": "PRE_RECALL_ALERT", "trial_type": "single-audio", "trial_index": 40, "time_elapsed": 1313294, "internal_node_id": "0.0-31.0"}}, {"uniqueid": "MTK1222:3TEM0PF1Q64YFOM6LANZB24OWUZ0DB", "current_trial": 41, "dateTime": 1513463231785, "trialdata": {"rt": [1917, 2850, 3876, 4794, 5466, 6846, 9619, 13435, 15592, 19060, 29109], "recwords": ["atom", "server", "rattle", "child", "cafe", "server", "rattle", "tourist", "atom", "snake", "child"], "type": "FREE_RECALL", "conditions": [18, 1200, "v", 18000], "trial": 0, "trial_type": "free-recall", "trial_index": 41, "time_elapsed": 1373298, "internal_node_id": "0.0-32.0-0.0"}}, {"uniqueid": "MTK1222:3TEM0PF1Q64YFOM6LANZB24OWUZ0DB", "current_trial": 42, "dateTime": 1513463235235, "trialdata": {"rt": 1450, "key_press": 32, "type": "INSTRUCTIONS", "trial_type": "text", "trial_index": 42, "time_elapsed": 1376750, "internal_node_id": "0.0-33.0"}}, {"uniqueid": "MTK1222:3TEM0PF1Q64YFOM6LANZB24OWUZ0DB", "current_trial": 43, "dateTime": 1513463255237, "trialdata": {"rt": [2495, 3983, 6079, 9343, 14047, 17318], "responses": ["13", "8", "8", "22", "12", "16"], "num1": [6, 3, 1, 9, 1, 5, 2], "num2": [1, 4, 2, 9, 5, 9, 9], "num3": [6, 1, 5, 4, 6, 2, 4], "type": "DISTRACTOR", "conditions": [18, 1200, "a", 18000], "trial": 1, "trial_type": "math-distractor", "trial_index": 43, "time_elapsed": 1396752, "internal_node_id": "0.0-34.0"}}, {"uniqueid": "MTK1222:3TEM0PF1Q64YFOM6LANZB24OWUZ0DB", "current_trial": 44, "dateTime": 1513463258237, "trialdata": {"rt": -1, "stimulus": "<p id=\"stim\">10</p>", "key_press": -1, "trial_type": "single-stim", "trial_index": 44, "time_elapsed": 1399752, "internal_node_id": "0.0-35.0-0.0"}}, {"uniqueid": "MTK1222:3TEM0PF1Q64YFOM6LANZB24OWUZ0DB", "current_trial": 45, "dateTime": 1513463259237, "trialdata": {"rt": -1, "stimulus": "<p id=\"stim\">9</p>", "key_press": -1, "trial_type": "single-stim", "trial_index": 45, "time_elapsed": 1400752, "internal_node_id": "0.0-35.0-1.0"}}, {"uniqueid": "MTK1222:3TEM0PF1Q64YFOM6LANZB24OWUZ0DB", "current_trial": 46, "dateTime": 1513463260238, "trialdata": {"rt": -1, "stimulus": "<p id=\"stim\">8</p>", "key_press": -1, "trial_type": "single-stim", "trial_index": 46, "time_elapsed": 1401753, "internal_node_id": "0.0-35.0-2.0"}}, {"uniqueid": "MTK1222:3TEM0PF1Q64YFOM6LANZB24OWUZ0DB", "current_trial": 47, "dateTime": 1513463261239, "trialdata": {"rt": -1, "stimulus": "<p id=\"stim\">7</p>", "key_press": -1, "trial_type": "single-stim", "trial_index": 47, "time_elapsed": 1402754, "internal_node_id": "0.0-35.0-3.0"}}, {"uniqueid": "MTK1222:3TEM0PF1Q64YFOM6LANZB24OWUZ0DB", "current_trial": 48, "dateTime": 1513463262239, "trialdata": {"rt": -1, "stimulus": "<p id=\"stim\">6</p>", "key_press": -1, "trial_type": "single-stim", "trial_index": 48, "time_elapsed": 1403754, "internal_node_id": "0.0-35.0-4.0"}}, {"uniqueid": "MTK1222:3TEM0PF1Q64YFOM6LANZB24OWUZ0DB", "current_trial": 49, "dateTime": 1513463263240, "trialdata": {"rt": -1, "stimulus": "<p id=\"stim\">5</p>", "key_press": -1, "trial_type": "single-stim", "trial_index": 49, "time_elapsed": 1404755, "internal_node_id": "0.0-35.0-5.0"}}, {"uniqueid": "MTK1222:3TEM0PF1Q64YFOM6LANZB24OWUZ0DB", "current_trial": 50, "dateTime": 1513463264239, "trialdata": {"rt": -1, "stimulus": "<p id=\"stim\">4</p>", "key_press": -1, "trial_type": "single-stim", "trial_index": 50, "time_elapsed": 1405754, "internal_node_id": "0.0-35.0-6.0"}}, {"uniqueid": "MTK1222:3TEM0PF1Q64YFOM6LANZB24OWUZ0DB", "current_trial": 51, "dateTime": 1513463265239, "trialdata": {"rt": -1, "stimulus": "<p id=\"stim\">3</p>", "key_press": -1, "trial_type": "single-stim", "trial_index": 51, "time_elapsed": 1406754, "internal_node_id": "0.0-35.0-7.0"}}, {"uniqueid": "MTK1222:3TEM0PF1Q64YFOM6LANZB24OWUZ0DB", "current_trial": 52, "dateTime": 1513463266242, "trialdata": {"rt": -1, "stimulus": "<p id=\"stim\">2</p>", "key_press": -1, "trial_type": "single-stim", "trial_index": 52, "time_elapsed": 1407756, "internal_node_id": "0.0-35.0-8.0"}}, {"uniqueid": "MTK1222:3TEM0PF1Q64YFOM6LANZB24OWUZ0DB", "current_trial": 53, "dateTime": 1513463267242, "trialdata": {"rt": -1, "stimulus": "<p id=\"stim\">1</p>", "key_press": -1, "trial_type": "single-stim", "trial_index": 53, "time_elapsed": 1408757, "internal_node_id": "0.0-35.0-9.0"}}, {"uniqueid": "MTK1222:3TEM0PF1Q64YFOM6LANZB24OWUZ0DB", "current_trial": 54, "dateTime": 1513463268743, "trialdata": {"rt": -1, "stimulus": "<p id=\"stim\">+</p>", "key_press": -1, "type": "FIXATION", "trial_type": "single-stim", "trial_index": 54, "time_elapsed": 1410258, "internal_node_id": "0.0-36.0-0.0"}}, {"uniqueid": "MTK1222:3TEM0PF1Q64YFOM6LANZB24OWUZ0DB", "current_trial": 55, "dateTime": 1513463270776, "trialdata": {"rt": -1000, "stimulus": "/static/audio/wordpool/ORANGE.wav", "key_press": -1, "type": "PRES_AUD", "word": "orange", "wordID": 979, "conditions": [18, 1200, "a", 18000], "trial": 1, "serialpos": 0, "trial_type": "single-audio", "trial_index": 55, "time_elapsed": 1412291, "internal_node_id": "0.0-37.0"}}, {"uniqueid": "MTK1222:3TEM0PF1Q64YFOM6LANZB24OWUZ0DB", "current_trial": 56, "dateTime": 1513463272790, "trialdata": {"rt": -1000, "stimulus": "/static/audio/wordpool/SAUSAGE.wav", "key_press": -1, "type": "PRES_AUD", "word": "sausage", "wordID": 1237, "conditions": [18, 1200, "a", 18000], "trial": 1, "serialpos": 1, "trial_type": "single-audio", "trial_index": 56, "time_elapsed": 1414305, "internal_node_id": "0.0-38.0"}}, {"uniqueid": "MTK1222:3TEM0PF1Q64YFOM6LANZB24OWUZ0DB", "current_trial": 57, "dateTime": 1513463274868, "trialdata": {"rt": -1000, "stimulus": "/static/audio/wordpool/WRENCH.wav", "key_press": -1, "type": "PRES_AUD", "word": "wrench", "wordID": 1624, "conditions": [18, 1200, "a", 18000], "trial": 1, "serialpos": 2, "trial_type": "single-audio", "trial_index": 57, "time_elapsed": 1416383, "internal_node_id": "0.0-39.0"}}, {"uniqueid": "MTK1222:3TEM0PF1Q64YFOM6LANZB24OWUZ0DB", "current_trial": 58, "dateTime": 1513463276967, "trialdata": {"rt": -1000, "stimulus": "/static/audio/wordpool/MARINE.wav", "key_press": -1, "type": "PRES_AUD", "word": "marine", "wordID": 868, "conditions": [18, 1200, "a", 18000], "trial": 1, "serialpos": 3, "trial_type": "single-audio", "trial_index": 58, "time_elapsed": 1418482, "internal_node_id": "0.0-40.0"}}, {"uniqueid": "MTK1222:3TEM0PF1Q64YFOM6LANZB24OWUZ0DB", "current_trial": 59, "dateTime": 1513463279009, "trialdata": {"rt": -1000, "stimulus": "/static/audio/wordpool/HEDGE.wav", "key_press": -1, "type": "PRES_AUD", "word": "hedge", "wordID": 698, "conditions": [18, 1200, "a", 18000], "trial": 1, "serialpos": 4, "trial_type": "single-audio", "trial_index": 59, "time_elapsed": 1420524, "internal_node_id": "0.0-41.0"}}, {"uniqueid": "MTK1222:3TEM0PF1Q64YFOM6LANZB24OWUZ0DB", "current_trial": 60, "dateTime": 1513463281126, "trialdata": {"rt": -1000, "stimulus": "/static/audio/wordpool/POCKET.wav", "key_press": -1, "type": "PRES_AUD", "word": "pocket", "wordID": 1092, "conditions": [18, 1200, "a", 18000], "trial": 1, "serialpos": 5, "trial_type": "single-audio", "trial_index": 60, "time_elapsed": 1422641, "internal_node_id": "0.0-42.0"}}, {"uniqueid": "MTK1222:3TEM0PF1Q64YFOM6LANZB24OWUZ0DB", "current_trial": 61, "dateTime": 1513463283435, "trialdata": {"rt": -1000, "stimulus": "/static/audio/wordpool/BARREL.wav", "key_press": -1, "type": "PRES_AUD", "word": "barrel", "wordID": 90, "conditions": [18, 1200, "a", 18000], "trial": 1, "serialpos": 6, "trial_type": "single-audio", "trial_index": 61, "time_elapsed": 1424950, "internal_node_id": "0.0-43.0"}}, {"uniqueid": "MTK1222:3TEM0PF1Q64YFOM6LANZB24OWUZ0DB", "current_trial": 62, "dateTime": 1513463285571, "trialdata": {"rt": -1000, "stimulus": "/static/audio/wordpool/SCALPEL.wav", "key_press": -1, "type": "PRES_AUD", "word": "scalpel", "wordID": 1242, "conditions": [18, 1200, "a", 18000], "trial": 1, "serialpos": 7, "trial_type": "single-audio", "trial_index": 62, "time_elapsed": 1427086, "internal_node_id": "0.0-44.0"}}, {"uniqueid": "MTK1222:3TEM0PF1Q64YFOM6LANZB24OWUZ0DB", "current_trial": 63, "dateTime": 1513463287950, "trialdata": {"rt": -1000, "stimulus": "/static/audio/wordpool/POSSUM.wav", "key_press": -1, "type": "PRES_AUD", "word": "possum", "wordID": 1111, "conditions": [18, 1200, "a", 18000], "trial": 1, "serialpos": 8, "trial_type": "single-audio", "trial_index": 63, "time_elapsed": 1429465, "internal_node_id": "0.0-45.0"}}, {"uniqueid": "MTK1222:3TEM0PF1Q64YFOM6LANZB24OWUZ0DB", "current_trial": 64, "dateTime": 1513463290119, "trialdata": {"rt": -1000, "stimulus": "/static/audio/wordpool/SHORTS.wav", "key_press": -1, "type": "PRES_AUD", "word": "shorts", "wordID": 1292, "conditions": [18, 1200, "a", 18000], "trial": 1, "serialpos": 9, "trial_type": "single-audio", "trial_index": 64, "time_elapsed": 1431634, "internal_node_id": "0.0-46.0"}}, {"uniqueid": "MTK1222:3TEM0PF1Q64YFOM6LANZB24OWUZ0DB", "current_trial": 65, "dateTime": 1513463292509, "trialdata": {"rt": -1000, "stimulus": "/static/audio/wordpool/COMET.wav", "key_press": -1, "type": "PRES_AUD", "word": "comet", "wordID": 352, "conditions": [18, 1200, "a", 18000], "trial": 1, "serialpos": 10, "trial_type": "single-audio", "trial_index": 65, "time_elapsed": 1434024, "internal_node_id": "0.0-47.0"}}, {"uniqueid": "MTK1222:3TEM0PF1Q64YFOM6LANZB24OWUZ0DB", "current_trial": 66, "dateTime": 1513463294861, "trialdata": {"rt": -1000, "stimulus": "/static/audio/wordpool/SILK.wav", "key_press": -1, "type": "PRES_AUD", "word": "silk", "wordID": 1306, "conditions": [18, 1200, "a", 18000], "trial": 1, "serialpos": 11, "trial_type": "single-audio", "trial_index": 66, "time_elapsed": 1436376, "internal_node_id": "0.0-48.0"}}, {"uniqueid": "MTK1222:3TEM0PF1Q64YFOM6LANZB24OWUZ0DB", "current_trial": 67, "dateTime": 1513463297103, "trialdata": {"rt": -1000, "stimulus": "/static/audio/wordpool/COIN.wav", "key_press": -1, "type": "PRES_AUD", "word": "coin", "wordID": 342, "conditions": [18, 1200, "a", 18000], "trial": 1, "serialpos": 12, "trial_type": "single-audio", "trial_index": 67, "time_elapsed": 1438618, "internal_node_id": "0.0-49.0"}}, {"uniqueid": "MTK1222:3TEM0PF1Q64YFOM6LANZB24OWUZ0DB", "current_trial": 68, "dateTime": 1513463299383, "trialdata": {"rt": -1000, "stimulus": "/static/audio/wordpool/CRAB.wav", "key_press": -1, "type": "PRES_AUD", "word": "crab", "wordID": 396, "conditions": [18, 1200, "a", 18000], "trial": 1, "serialpos": 13, "trial_type": "single-audio", "trial_index": 68, "time_elapsed": 1440898, "internal_node_id": "0.0-50.0"}}, {"uniqueid": "MTK1222:3TEM0PF1Q64YFOM6LANZB24OWUZ0DB", "current_trial": 69, "dateTime": 1513463301695, "trialdata": {"rt": -1000, "stimulus": "/static/audio/wordpool/SNAIL.wav", "key_press": -1, "type": "PRES_AUD", "word": "snail", "wordID": 1331, "conditions": [18, 1200, "a", 18000], "trial": 1, "serialpos": 14, "trial_type": "single-audio", "trial_index": 69, "time_elapsed": 1443210, "internal_node_id": "0.0-51.0"}}, {"uniqueid": "MTK1222:3TEM0PF1Q64YFOM6LANZB24OWUZ0DB", "current_trial": 70, "dateTime": 1513463303946, "trialdata": {"rt": -1000, "stimulus": "/static/audio/wordpool/HUMAN.wav", "key_press": -1, "type": "PRES_AUD", "word": "human", "wordID": 725, "conditions": [18, 1200, "a", 18000], "trial": 1, "serialpos": 15, "trial_type": "single-audio", "trial_index": 70, "time_elapsed": 1445461, "internal_node_id": "0.0-52.0"}}, {"uniqueid": "MTK1222:3TEM0PF1Q64YFOM6LANZB24OWUZ0DB", "current_trial": 71, "dateTime": 1513463306157, "trialdata": {"rt": -1000, "stimulus": "/static/audio/wordpool/SANDWICH.wav", "key_press": -1, "type": "PRES_AUD", "word": "sandwich", "wordID": 1231, "conditions": [18, 1200, "a", 18000], "trial": 1, "serialpos": 16, "trial_type": "single-audio", "trial_index": 71, "time_elapsed": 1447672, "internal_node_id": "0.0-53.0"}}, {"uniqueid": "MTK1222:3TEM0PF1Q64YFOM6LANZB24OWUZ0DB", "current_trial": 72, "dateTime": 1513463308320, "trialdata": {"rt": -1000, "stimulus": "/static/audio/wordpool/COUSIN.wav", "key_press": -1, "type": "PRES_AUD", "word": "cousin", "wordID": 391, "conditions": [18, 1200, "a", 18000], "trial": 1, "serialpos": 17, "trial_type": "single-audio", "trial_index": 72, "time_elapsed": 1449835, "internal_node_id": "0.0-54.0"}}, {"uniqueid": "MTK1222:3TEM0PF1Q64YFOM6LANZB24OWUZ0DB", "current_trial": 73, "dateTime": 1513463309540, "trialdata": {"rt": -1, "stimulus": "", "key_press": -1, "type": "PRE_RECALL_DELAY", "trial_type": "single-stim", "trial_index": 73, "time_elapsed": 1451055, "internal_node_id": "0.0-55.0-0.0"}}, {"uniqueid": "MTK1222:3TEM0PF1Q64YFOM6LANZB24OWUZ0DB", "current_trial": 74, "dateTime": 1513463310048, "trialdata": {"rt": -1000, "stimulus": "/static/audio/400Hz.wav", "key_press": -1, "type": "PRE_RECALL_ALERT", "trial_type": "single-audio", "trial_index": 74, "time_elapsed": 1451563, "internal_node_id": "0.0-56.0"}}, {"uniqueid": "MTK1222:3TEM0PF1Q64YFOM6LANZB24OWUZ0DB", "current_trial": 75, "dateTime": 1513463370052, "trialdata": {"rt": [1701, 3880, 5302, 7521, 8618, 10348, 12255, 13404, 15707, 17038, 37409], "recwords": ["human", "cousin", "possum", "sandwich", "marine", "wrench", "orange", "sausage", "cousin", "human", "snail"], "type": "FREE_RECALL", "conditions": [18, 1200, "a", 18000], "trial": 1, "trial_type": "free-recall", "trial_index": 75, "time_elapsed": 1511565, "internal_node_id": "0.0-57.0-0.0"}}, {"uniqueid": "MTK1222:3TEM0PF1Q64YFOM6LANZB24OWUZ0DB", "current_trial": 76, "dateTime": 1513463375422, "trialdata": {"rt": 3366, "key_press": 32, "type": "INSTRUCTIONS", "trial_type": "text", "trial_index": 76, "time_elapsed": 1516933, "internal_node_id": "0.0-58.0"}}, {"uniqueid": "MTK1222:3TEM0PF1Q64YFOM6LANZB24OWUZ0DB", "current_trial": 77, "dateTime": 1513463400423, "trialdata": {"rt": [4635, 6675, 9067, 13059, 20627], "responses": ["24", "9", "13", "11", "20"], "num1": [9, 3, 2, 6, 7, 8], "num2": [9, 4, 7, 1, 5, 5], "num3": [6, 2, 4, 4, 8, 8], "type": "DISTRACTOR", "conditions": [12, 800, "a", 24000], "trial": 2, "trial_type": "math-distractor", "trial_index": 77, "time_elapsed": 1541938, "internal_node_id": "0.0-59.0"}}, {"uniqueid": "MTK1222:3TEM0PF1Q64YFOM6LANZB24OWUZ0DB", "current_trial": 78, "dateTime": 1513463403424, "trialdata": {"rt": -1, "stimulus": "<p id=\"stim\">10</p>", "key_press": -1, "trial_type": "single-stim", "trial_index": 78, "time_elapsed": 1544939, "internal_node_id": "0.0-60.0-0.0"}}, {"uniqueid": "MTK1222:3TEM0PF1Q64YFOM6LANZB24OWUZ0DB", "current_trial": 79, "dateTime": 1513463404426, "trialdata": {"rt": -1, "stimulus": "<p id=\"stim\">9</p>", "key_press": -1, "trial_type": "single-stim", "trial_index": 79, "time_elapsed": 1545941, "internal_node_id": "0.0-60.0-1.0"}}, {"uniqueid": "MTK1222:3TEM0PF1Q64YFOM6LANZB24OWUZ0DB", "current_trial": 80, "dateTime": 1513463405427, "trialdata": {"rt": -1, "stimulus": "<p id=\"stim\">8</p>", "key_press": -1, "trial_type": "single-stim", "trial_index": 80, "time_elapsed": 1546942, "internal_node_id": "0.0-60.0-2.0"}}, {"uniqueid": "MTK1222:3TEM0PF1Q64YFOM6LANZB24OWUZ0DB", "current_trial": 81, "dateTime": 1513463406427, "trialdata": {"rt": -1, "stimulus": "<p id=\"stim\">7</p>", "key_press": -1, "trial_type": "single-stim", "trial_index": 81, "time_elapsed": 1547942, "internal_node_id": "0.0-60.0-3.0"}}, {"uniqueid": "MTK1222:3TEM0PF1Q64YFOM6LANZB24OWUZ0DB", "current_trial": 82, "dateTime": 1513463407428, "trialdata": {"rt": -1, "stimulus": "<p id=\"stim\">6</p>", "key_press": -1, "trial_type": "single-stim", "trial_index": 82, "time_elapsed": 1548943, "internal_node_id": "0.0-60.0-4.0"}}, {"uniqueid": "MTK1222:3TEM0PF1Q64YFOM6LANZB24OWUZ0DB", "current_trial": 83, "dateTime": 1513463408428, "trialdata": {"rt": -1, "stimulus": "<p id=\"stim\">5</p>", "key_press": -1, "trial_type": "single-stim", "trial_index": 83, "time_elapsed": 1549943, "internal_node_id": "0.0-60.0-5.0"}}, {"uniqueid": "MTK1222:3TEM0PF1Q64YFOM6LANZB24OWUZ0DB", "current_trial": 84, "dateTime": 1513463409428, "trialdata": {"rt": -1, "stimulus": "<p id=\"stim\">4</p>", "key_press": -1, "trial_type": "single-stim", "trial_index": 84, "time_elapsed": 1550943, "internal_node_id": "0.0-60.0-6.0"}}, {"uniqueid": "MTK1222:3TEM0PF1Q64YFOM6LANZB24OWUZ0DB", "current_trial": 85, "dateTime": 1513463410428, "trialdata": {"rt": -1, "stimulus": "<p id=\"stim\">3</p>", "key_press": -1, "trial_type": "single-stim", "trial_index": 85, "time_elapsed": 1551943, "internal_node_id": "0.0-60.0-7.0"}}, {"uniqueid": "MTK1222:3TEM0PF1Q64YFOM6LANZB24OWUZ0DB", "current_trial": 86, "dateTime": 1513463411429, "trialdata": {"rt": -1, "stimulus": "<p id=\"stim\">2</p>", "key_press": -1, "trial_type": "single-stim", "trial_index": 86, "time_elapsed": 1552944, "internal_node_id": "0.0-60.0-8.0"}}, {"uniqueid": "MTK1222:3TEM0PF1Q64YFOM6LANZB24OWUZ0DB", "current_trial": 87, "dateTime": 1513463412430, "trialdata": {"rt": -1, "stimulus": "<p id=\"stim\">1</p>", "key_press": -1, "trial_type": "single-stim", "trial_index": 87, "time_elapsed": 1553945, "internal_node_id": "0.0-60.0-9.0"}}, {"uniqueid": "MTK1222:3TEM0PF1Q64YFOM6LANZB24OWUZ0DB", "current_trial": 88, "dateTime": 1513463413930, "trialdata": {"rt": -1, "stimulus": "<p id=\"stim\">+</p>", "key_press": -1, "type": "FIXATION", "trial_type": "single-stim", "trial_index": 88, "time_elapsed": 1555445, "internal_node_id": "0.0-61.0-0.0"}}, {"uniqueid": "MTK1222:3TEM0PF1Q64YFOM6LANZB24OWUZ0DB", "current_trial": 89, "dateTime": 1513463415740, "trialdata": {"rt": -1000, "stimulus": "/static/audio/wordpool/COFFEE.wav", "key_press": -1, "type": "PRES_AUD", "word": "coffee", "wordID": 340, "conditions": [12, 800, "a", 24000], "trial": 2, "serialpos": 0, "trial_type": "single-audio", "trial_index": 89, "time_elapsed": 1557255, "internal_node_id": "0.0-62.0"}}, {"uniqueid": "MTK1222:3TEM0PF1Q64YFOM6LANZB24OWUZ0DB", "current_trial": 90, "dateTime": 1513463417588, "trialdata": {"rt": -1000, "stimulus": "/static/audio/wordpool/BINDER.wav", "key_press": -1, "type": "PRES_AUD", "word": "binder", "wordID": 126, "conditions": [12, 800, "a", 24000], "trial": 2, "serialpos": 1, "trial_type": "single-audio", "trial_index": 90, "time_elapsed": 1559103, "internal_node_id": "0.0-63.0"}}, {"uniqueid": "MTK1222:3TEM0PF1Q64YFOM6LANZB24OWUZ0DB", "current_trial": 91, "dateTime": 1513463419381, "trialdata": {"rt": -1000, "stimulus": "/static/audio/wordpool/BLOCKADE.wav", "key_press": -1, "type": "PRES_AUD", "word": "blockade", "wordID": 136, "conditions": [12, 800, "a", 24000], "trial": 2, "serialpos": 2, "trial_type": "single-audio", "trial_index": 91, "time_elapsed": 1560896, "internal_node_id": "0.0-64.0"}}, {"uniqueid": "MTK1222:3TEM0PF1Q64YFOM6LANZB24OWUZ0DB", "current_trial": 92, "dateTime": 1513463421348, "trialdata": {"rt": -1000, "stimulus": "/static/audio/wordpool/CANAL.wav", "key_press": -1, "type": "PRES_AUD", "word": "canal", "wordID": 225, "conditions": [12, 800, "a", 24000], "trial": 2, "serialpos": 3, "trial_type": "single-audio", "trial_index": 92, "time_elapsed": 1562863, "internal_node_id": "0.0-65.0"}}, {"uniqueid": "MTK1222:3TEM0PF1Q64YFOM6LANZB24OWUZ0DB", "current_trial": 93, "dateTime": 1513463423204, "trialdata": {"rt": -1000, "stimulus": "/static/audio/wordpool/HOSTESS.wav", "key_press": -1, "type": "PRES_AUD", "word": "hostess", "wordID": 722, "conditions": [12, 800, "a", 24000], "trial": 2, "serialpos": 4, "trial_type": "single-audio", "trial_index": 93, "time_elapsed": 1564719, "internal_node_id": "0.0-66.0"}}, {"uniqueid": "MTK1222:3TEM0PF1Q64YFOM6LANZB24OWUZ0DB", "current_trial": 94, "dateTime": 1513463424924, "trialdata": {"rt": -1000, "stimulus": "/static/audio/wordpool/ROCKET.wav", "key_press": -1, "type": "PRES_AUD", "word": "rocket", "wordID": 1201, "conditions": [12, 800, "a", 24000], "trial": 2, "serialpos": 5, "trial_type": "single-audio", "trial_index": 94, "time_elapsed": 1566439, "internal_node_id": "0.0-67.0"}}, {"uniqueid": "MTK1222:3TEM0PF1Q64YFOM6LANZB24OWUZ0DB", "current_trial": 95, "dateTime": 1513463426787, "trialdata": {"rt": -1000, "stimulus": "/static/audio/wordpool/EUROPE.wav", "key_press": -1, "type": "PRES_AUD", "word": "europe", "wordID": 540, "conditions": [12, 800, "a", 24000], "trial": 2, "serialpos": 6, "trial_type": "single-audio", "trial_index": 95, "time_elapsed": 1568302, "internal_node_id": "0.0-68.0"}}, {"uniqueid": "MTK1222:3TEM0PF1Q64YFOM6LANZB24OWUZ0DB", "current_trial": 96, "dateTime": 1513463428583, "trialdata": {"rt": -1000, "stimulus": "/static/audio/wordpool/EGYPT.wav", "key_press": -1, "type": "PRES_AUD", "word": "egypt", "wordID": 518, "conditions": [12, 800, "a", 24000], "trial": 2, "serialpos": 7, "trial_type": "single-audio", "trial_index": 96, "time_elapsed": 1570098, "internal_node_id": "0.0-69.0"}}, {"uniqueid": "MTK1222:3TEM0PF1Q64YFOM6LANZB24OWUZ0DB", "current_trial": 97, "dateTime": 1513463430300, "trialdata": {"rt": -1000, "stimulus": "/static/audio/wordpool/WAITRESS.wav", "key_press": -1, "type": "PRES_AUD", "word": "waitress", "wordID": 1580, "conditions": [12, 800, "a", 24000], "trial": 2, "serialpos": 8, "trial_type": "single-audio", "trial_index": 97, "time_elapsed": 1571815, "internal_node_id": "0.0-70.0"}}, {"uniqueid": "MTK1222:3TEM0PF1Q64YFOM6LANZB24OWUZ0DB", "current_trial": 98, "dateTime": 1513463432118, "trialdata": {"rt": -1000, "stimulus": "/static/audio/wordpool/HANDBAG.wav", "key_press": -1, "type": "PRES_AUD", "word": "handbag", "wordID": 683, "conditions": [12, 800, "a", 24000], "trial": 2, "serialpos": 9, "trial_type": "single-audio", "trial_index": 98, "time_elapsed": 1573633, "internal_node_id": "0.0-71.0"}}, {"uniqueid": "MTK1222:3TEM0PF1Q64YFOM6LANZB24OWUZ0DB", "current_trial": 99, "dateTime": 1513463434091, "trialdata": {"rt": -1000, "stimulus": "/static/audio/wordpool/PERCH.wav", "key_press": -1, "type": "PRES_AUD", "word": "perch", "wordID": 1047, "conditions": [12, 800, "a", 24000], "trial": 2, "serialpos": 10, "trial_type": "single-audio", "trial_index": 99, "time_elapsed": 1575606, "internal_node_id": "0.0-72.0"}}, {"uniqueid": "MTK1222:3TEM0PF1Q64YFOM6LANZB24OWUZ0DB", "current_trial": 100, "dateTime": 1513463435761, "trialdata": {"rt": -1000, "stimulus": "/static/audio/wordpool/FREEZER.wav", "key_press": -1, "type": "PRES_AUD", "word": "freezer", "wordID": 603, "conditions": [12, 800, "a", 24000], "trial": 2, "serialpos": 11, "trial_type": "single-audio", "trial_index": 100, "time_elapsed": 1577276, "internal_node_id": "0.0-73.0"}}, {"uniqueid": "MTK1222:3TEM0PF1Q64YFOM6LANZB24OWUZ0DB", "current_trial": 101, "dateTime": 1513463437114, "trialdata": {"rt": -1, "stimulus": "", "key_press": -1, "type": "PRE_RECALL_DELAY", "trial_type": "single-stim", "trial_index": 101, "time_elapsed": 1578629, "internal_node_id": "0.0-74.0-0.0"}}, {"uniqueid": "MTK1222:3TEM0PF1Q64YFOM6LANZB24OWUZ0DB", "current_trial": 102, "dateTime": 1513463437628, "trialdata": {"rt": -1000, "stimulus": "/static/audio/400Hz.wav", "key_press": -1, "type": "PRE_RECALL_ALERT", "trial_type": "single-audio", "trial_index": 102, "time_elapsed": 1579143, "internal_node_id": "0.0-75.0"}}, {"uniqueid": "MTK1222:3TEM0PF1Q64YFOM6LANZB24OWUZ0DB", "current_trial": 103, "dateTime": 1513463497633, "trialdata": {"rt": [1937, 3321, 4402, 5572, 7625, 9131, 12699, 54198], "recwords": ["freezer", "handbag", "coffee", "waitress", "europe", "handbag", "freezer", "blockade"], "type": "FREE_RECALL", "conditions": [12, 800, "a", 24000], "trial": 2, "trial_type": "free-recall", "trial_index": 103, "time_elapsed": 1639145, "internal_node_id": "0.0-76.0-0.0"}}, {"uniqueid": "MTK1222:3TEM0PF1Q64YFOM6LANZB24OWUZ0DB", "current_trial": 104, "dateTime": 1513463502301, "trialdata": {"rt": 2665, "key_press": 74, "type": "INSTRUCTIONS", "trial_type": "text", "trial_index": 104, "time_elapsed": 1643815, "internal_node_id": "0.0-77.0"}}, {"uniqueid": "MTK1222:3TEM0PF1Q64YFOM6LANZB24OWUZ0DB", "current_trial": 105, "dateTime": 1513463516302, "trialdata": {"rt": [5165, 8573], "responses": ["22", "23"], "num1": [8, 9, 9], "num2": [6, 9, 6], "num3": [8, 5, 6], "type": "DISTRACTOR", "conditions": [12, 1600, "a", 12000], "trial": 3, "trial_type": "math-distractor", "trial_index": 105, "time_elapsed": 1657817, "internal_node_id": "0.0-78.0"}}, {"uniqueid": "MTK1222:3TEM0PF1Q64YFOM6LANZB24OWUZ0DB", "current_trial": 106, "dateTime": 1513463519302, "trialdata": {"rt": -1, "stimulus": "<p id=\"stim\">10</p>", "key_press": -1, "trial_type": "single-stim", "trial_index": 106, "time_elapsed": 1660817, "internal_node_id": "0.0-79.0-0.0"}}, {"uniqueid": "MTK1222:3TEM0PF1Q64YFOM6LANZB24OWUZ0DB", "current_trial": 107, "dateTime": 1513463520302, "trialdata": {"rt": -1, "stimulus": "<p id=\"stim\">9</p>", "key_press": -1, "trial_type": "single-stim", "trial_index": 107, "time_elapsed": 1661817, "internal_node_id": "0.0-79.0-1.0"}}, {"uniqueid": "MTK1222:3TEM0PF1Q64YFOM6LANZB24OWUZ0DB", "current_trial": 108, "dateTime": 1513463521302, "trialdata": {"rt": -1, "stimulus": "<p id=\"stim\">8</p>", "key_press": -1, "trial_type": "single-stim", "trial_index": 108, "time_elapsed": 1662817, "internal_node_id": "0.0-79.0-2.0"}}, {"uniqueid": "MTK1222:3TEM0PF1Q64YFOM6LANZB24OWUZ0DB", "current_trial": 109, "dateTime": 1513463522302, "trialdata": {"rt": -1, "stimulus": "<p id=\"stim\">7</p>", "key_press": -1, "trial_type": "single-stim", "trial_index": 109, "time_elapsed": 1663817, "internal_node_id": "0.0-79.0-3.0"}}, {"uniqueid": "MTK1222:3TEM0PF1Q64YFOM6LANZB24OWUZ0DB", "current_trial": 110, "dateTime": 1513463523302, "trialdata": {"rt": -1, "stimulus": "<p id=\"stim\">6</p>", "key_press": -1, "trial_type": "single-stim", "trial_index": 110, "time_elapsed": 1664817, "internal_node_id": "0.0-79.0-4.0"}}, {"uniqueid": "MTK1222:3TEM0PF1Q64YFOM6LANZB24OWUZ0DB", "current_trial": 111, "dateTime": 1513463524303, "trialdata": {"rt": -1, "stimulus": "<p id=\"stim\">5</p>", "key_press": -1, "trial_type": "single-stim", "trial_index": 111, "time_elapsed": 1665818, "internal_node_id": "0.0-79.0-5.0"}}, {"uniqueid": "MTK1222:3TEM0PF1Q64YFOM6LANZB24OWUZ0DB", "current_trial": 112, "dateTime": 1513463525304, "trialdata": {"rt": -1, "stimulus": "<p id=\"stim\">4</p>", "key_press": -1, "trial_type": "single-stim", "trial_index": 112, "time_elapsed": 1666819, "internal_node_id": "0.0-79.0-6.0"}}, {"uniqueid": "MTK1222:3TEM0PF1Q64YFOM6LANZB24OWUZ0DB", "current_trial": 113, "dateTime": 1513463526304, "trialdata": {"rt": -1, "stimulus": "<p id=\"stim\">3</p>", "key_press": -1, "trial_type": "single-stim", "trial_index": 113, "time_elapsed": 1667819, "internal_node_id": "0.0-79.0-7.0"}}, {"uniqueid": "MTK1222:3TEM0PF1Q64YFOM6LANZB24OWUZ0DB", "current_trial": 114, "dateTime": 1513463527304, "trialdata": {"rt": -1, "stimulus": "<p id=\"stim\">2</p>", "key_press": -1, "trial_type": "single-stim", "trial_index": 114, "time_elapsed": 1668819, "internal_node_id": "0.0-79.0-8.0"}}, {"uniqueid": "MTK1222:3TEM0PF1Q64YFOM6LANZB24OWUZ0DB", "current_trial": 115, "dateTime": 1513463528305, "trialdata": {"rt": -1, "stimulus": "<p id=\"stim\">1</p>", "key_press": -1, "trial_type": "single-stim", "trial_index": 115, "time_elapsed": 1669820, "internal_node_id": "0.0-79.0-9.0"}}, {"uniqueid": "MTK1222:3TEM0PF1Q64YFOM6LANZB24OWUZ0DB", "current_trial": 116, "dateTime": 1513463529806, "trialdata": {"rt": -1, "stimulus": "<p id=\"stim\">+</p>", "key_press": -1, "type": "FIXATION", "trial_type": "single-stim", "trial_index": 116, "time_elapsed": 1671321, "internal_node_id": "0.0-80.0-0.0"}}, {"uniqueid": "MTK1222:3TEM0PF1Q64YFOM6LANZB24OWUZ0DB", "current_trial": 117, "dateTime": 1513463532478, "trialdata": {"rt": -1000, "stimulus": "/static/audio/wordpool/PADDING.wav", "key_press": -1, "type": "PRES_AUD", "word": "padding", "wordID": 998, "conditions": [12, 1600, "a", 12000], "trial": 3, "serialpos": 0, "trial_type": "single-audio", "trial_index": 117, "time_elapsed": 1673993, "internal_node_id": "0.0-81.0"}}, {"uniqueid": "MTK1222:3TEM0PF1Q64YFOM6LANZB24OWUZ0DB", "current_trial": 118, "dateTime": 1513463535211, "trialdata": {"rt": -1000, "stimulus": "/static/audio/wordpool/BRANCH.wav", "key_press": -1, "type": "PRES_AUD", "word": "branch", "wordID": 167, "conditions": [12, 1600, "a", 12000], "trial": 3, "serialpos": 1, "trial_type": "single-audio", "trial_index": 118, "time_elapsed": 1676726, "internal_node_id": "0.0-82.0"}}, {"uniqueid": "MTK1222:3TEM0PF1Q64YFOM6LANZB24OWUZ0DB", "current_trial": 119, "dateTime": 1513463537668, "trialdata": {"rt": -1000, "stimulus": "/static/audio/wordpool/OX.wav", "key_press": -1, "type": "PRES_AUD", "word": "ox", "wordID": 993, "conditions": [12, 1600, "a", 12000], "trial": 3, "serialpos": 2, "trial_type": "single-audio", "trial_index": 119, "time_elapsed": 1679183, "internal_node_id": "0.0-83.0"}}, {"uniqueid": "MTK1222:3TEM0PF1Q64YFOM6LANZB24OWUZ0DB", "current_trial": 120, "dateTime": 1513463540284, "trialdata": {"rt": -1000, "stimulus": "/static/audio/wordpool/DRUG.wav", "key_press": -1, "type": "PRES_AUD", "word": "drug", "wordID": 500, "conditions": [12, 1600, "a", 12000], "trial": 3, "serialpos": 3, "trial_type": "single-audio", "trial_index": 120, "time_elapsed": 1681799, "internal_node_id": "0.0-84.0"}}, {"uniqueid": "MTK1222:3TEM0PF1Q64YFOM6LANZB24OWUZ0DB", "current_trial": 121, "dateTime": 1513463543068, "trialdata": {"rt": -1000, "stimulus": "/static/audio/wordpool/FRUIT.wav", "key_press": -1, "type": "PRES_AUD", "word": "fruit", "wordID": 609, "conditions": [12, 1600, "a", 12000], "trial": 3, "serialpos": 4, "trial_type": "single-audio", "trial_index": 121, "time_elapsed": 1684583, "internal_node_id": "0.0-85.0"}}, {"uniqueid": "MTK1222:3TEM0PF1Q64YFOM6LANZB24OWUZ0DB", "current_trial": 122, "dateTime": 1513463545656, "trialdata": {"rt": -1000, "stimulus": "/static/audio/wordpool/LETTUCE.wav", "key_press": -1, "type": "PRES_AUD", "word": "lettuce", "wordID": 813, "conditions": [12, 1600, "a", 12000], "trial": 3, "serialpos": 5, "trial_type": "single-audio", "trial_index": 122, "time_elapsed": 1687171, "internal_node_id": "0.0-86.0"}}, {"uniqueid": "MTK1222:3TEM0PF1Q64YFOM6LANZB24OWUZ0DB", "current_trial": 123, "dateTime": 1513463548152, "trialdata": {"rt": -1000, "stimulus": "/static/audio/wordpool/BREAST.wav", "key_press": -1, "type": "PRES_AUD", "word": "breast", "wordID": 170, "conditions": [12, 1600, "a", 12000], "trial": 3, "serialpos": 6, "trial_type": "single-audio", "trial_index": 123, "time_elapsed": 1689667, "internal_node_id": "0.0-87.0"}}, {"uniqueid": "MTK1222:3TEM0PF1Q64YFOM6LANZB24OWUZ0DB", "current_trial": 124, "dateTime": 1513463550657, "trialdata": {"rt": -1000, "stimulus": "/static/audio/wordpool/ICING.wav", "key_press": -1, "type": "PRES_AUD", "word": "icing", "wordID": 731, "conditions": [12, 1600, "a", 12000], "trial": 3, "serialpos": 7, "trial_type": "single-audio", "trial_index": 124, "time_elapsed": 1692172, "internal_node_id": "0.0-88.0"}}, {"uniqueid": "MTK1222:3TEM0PF1Q64YFOM6LANZB24OWUZ0DB", "current_trial": 125, "dateTime": 1513463553435, "trialdata": {"rt": -1000, "stimulus": "/static/audio/wordpool/BANK.wav", "key_press": -1, "type": "PRES_AUD", "word": "bank", "wordID": 82, "conditions": [12, 1600, "a", 12000], "trial": 3, "serialpos": 8, "trial_type": "single-audio", "trial_index": 125, "time_elapsed": 1694950, "internal_node_id": "0.0-89.0"}}, {"uniqueid": "MTK1222:3TEM0PF1Q64YFOM6LANZB24OWUZ0DB", "current_trial": 126, "dateTime": 1513463555952, "trialdata": {"rt": -1000, "stimulus": "/static/audio/wordpool/SALT.wav", "key_press": -1, "type": "PRES_AUD", "word": "salt", "wordID": 1228, "conditions": [12, 1600, "a", 12000], "trial": 3, "serialpos": 9, "trial_type": "single-audio", "trial_index": 126, "time_elapsed": 1697467, "internal_node_id": "0.0-90.0"}}, {"uniqueid": "MTK1222:3TEM0PF1Q64YFOM6LANZB24OWUZ0DB", "current_trial": 127, "dateTime": 1513463558574, "trialdata": {"rt": -1000, "stimulus": "/static/audio/wordpool/GARLIC.wav", "key_press": -1, "type": "PRES_AUD", "word": "garlic", "wordID": 623, "conditions": [12, 1600, "a", 12000], "trial": 3, "serialpos": 10, "trial_type": "single-audio", "trial_index": 127, "time_elapsed": 1700089, "internal_node_id": "0.0-91.0"}}, {"uniqueid": "MTK1222:3TEM0PF1Q64YFOM6LANZB24OWUZ0DB", "current_trial": 128, "dateTime": 1513463561264, "trialdata": {"rt": -1000, "stimulus": "/static/audio/wordpool/PRINCESS.wav", "key_press": -1, "type": "PRES_AUD", "word": "princess", "wordID": 1124, "conditions": [12, 1600, "a", 12000], "trial": 3, "serialpos": 11, "trial_type": "single-audio", "trial_index": 128, "time_elapsed": 1702779, "internal_node_id": "0.0-92.0"}}, {"uniqueid": "MTK1222:3TEM0PF1Q64YFOM6LANZB24OWUZ0DB", "current_trial": 129, "dateTime": 1513463562562, "trialdata": {"rt": -1, "stimulus": "", "key_press": -1, "type": "PRE_RECALL_DELAY", "trial_type": "single-stim", "trial_index": 129, "time_elapsed": 1704077, "internal_node_id": "0.0-93.0-0.0"}}, {"uniqueid": "MTK1222:3TEM0PF1Q64YFOM6LANZB24OWUZ0DB", "current_trial": 130, "dateTime": 1513463563070, "trialdata": {"rt": -1000, "stimulus": "/static/audio/400Hz.wav", "key_press": -1, "type": "PRE_RECALL_ALERT", "trial_type": "single-audio", "trial_index": 130, "time_elapsed": 1704585, "internal_node_id": "0.0-94.0"}}, {"uniqueid": "MTK1222:3TEM0PF1Q64YFOM6LANZB24OWUZ0DB", "current_trial": 131, "dateTime": 1513463623074, "trialdata": {"rt": [862, 2282, 3211, 4115, 5131, 6677, 7690, 9002, 13035, 19463, 34587, 46770], "recwords": ["ox", "princess", "garlic", "salt", "fruit", "padding", "breast", "ox", "icing", "branch", "onion", "webbing"], "type": "FREE_RECALL", "conditions": [12, 1600, "a", 12000], "trial": 3, "trial_type": "free-recall", "trial_index": 131, "time_elapsed": 1764587, "internal_node_id": "0.0-95.0-0.0"}}, {"uniqueid": "MTK1222:3TEM0PF1Q64YFOM6LANZB24OWUZ0DB", "current_trial": 132, "dateTime": 1513463627451, "trialdata": {"rt": 2376, "key_press": 72, "type": "INSTRUCTIONS", "trial_type": "text", "trial_index": 132, "time_elapsed": 1768966, "internal_node_id": "0.0-96.0"}}, {"uniqueid": "MTK1222:3TEM0PF1Q64YFOM6LANZB24OWUZ0DB", "current_trial": 133, "dateTime": 1513463641453, "trialdata": {"rt": [5542, 8414, 10358], "responses": ["19", "13", "13"], "num1": [6, 8, 7, 9], "num2": [7, 1, 2, 6], "num3": [6, 4, 4, 5], "type": "DISTRACTOR", "conditions": [24, 1600, "v", 12000], "trial": 4, "trial_type": "math-distractor", "trial_index": 133, "time_elapsed": 1782967, "internal_node_id": "0.0-97.0"}}, {"uniqueid": "MTK1222:3TEM0PF1Q64YFOM6LANZB24OWUZ0DB", "current_trial": 134, "dateTime": 1513463644453, "trialdata": {"rt": -1, "stimulus": "<p id=\"stim\">10</p>", "key_press": -1, "trial_type": "single-stim", "trial_index": 134, "time_elapsed": 1785968, "internal_node_id": "0.0-98.0-0.0"}}, {"uniqueid": "MTK1222:3TEM0PF1Q64YFOM6LANZB24OWUZ0DB", "current_trial": 135, "dateTime": 1513463645453, "trialdata": {"rt": -1, "stimulus": "<p id=\"stim\">9</p>", "key_press": -1, "trial_type": "single-stim", "trial_index": 135, "time_elapsed": 1786968, "internal_node_id": "0.0-98.0-1.0"}}, {"uniqueid": "MTK1222:3TEM0PF1Q64YFOM6LANZB24OWUZ0DB", "current_trial": 136, "dateTime": 1513463646453, "trialdata": {"rt": -1, "stimulus": "<p id=\"stim\">8</p>", "key_press": -1, "trial_type": "single-stim", "trial_index": 136, "time_elapsed": 1787968, "internal_node_id": "0.0-98.0-2.0"}}, {"uniqueid": "MTK1222:3TEM0PF1Q64YFOM6LANZB24OWUZ0DB", "current_trial": 137, "dateTime": 1513463647454, "trialdata": {"rt": -1, "stimulus": "<p id=\"stim\">7</p>", "key_press": -1, "trial_type": "single-stim", "trial_index": 137, "time_elapsed": 1788969, "internal_node_id": "0.0-98.0-3.0"}}, {"uniqueid": "MTK1222:3TEM0PF1Q64YFOM6LANZB24OWUZ0DB", "current_trial": 138, "dateTime": 1513463648454, "trialdata": {"rt": -1, "stimulus": "<p id=\"stim\">6</p>", "key_press": -1, "trial_type": "single-stim", "trial_index": 138, "time_elapsed": 1789969, "internal_node_id": "0.0-98.0-4.0"}}, {"uniqueid": "MTK1222:3TEM0PF1Q64YFOM6LANZB24OWUZ0DB", "current_trial": 139, "dateTime": 1513463649454, "trialdata": {"rt": -1, "stimulus": "<p id=\"stim\">5</p>", "key_press": -1, "trial_type": "single-stim", "trial_index": 139, "time_elapsed": 1790969, "internal_node_id": "0.0-98.0-5.0"}}, {"uniqueid": "MTK1222:3TEM0PF1Q64YFOM6LANZB24OWUZ0DB", "current_trial": 140, "dateTime": 1513463650455, "trialdata": {"rt": -1, "stimulus": "<p id=\"stim\">4</p>", "key_press": -1, "trial_type": "single-stim", "trial_index": 140, "time_elapsed": 1791970, "internal_node_id": "0.0-98.0-6.0"}}, {"uniqueid": "MTK1222:3TEM0PF1Q64YFOM6LANZB24OWUZ0DB", "current_trial": 141, "dateTime": 1513463651455, "trialdata": {"rt": -1, "stimulus": "<p id=\"stim\">3</p>", "key_press": -1, "trial_type": "single-stim", "trial_index": 141, "time_elapsed": 1792970, "internal_node_id": "0.0-98.0-7.0"}}, {"uniqueid": "MTK1222:3TEM0PF1Q64YFOM6LANZB24OWUZ0DB", "current_trial": 142, "dateTime": 1513463652456, "trialdata": {"rt": -1, "stimulus": "<p id=\"stim\">2</p>", "key_press": -1, "trial_type": "single-stim", "trial_index": 142, "time_elapsed": 1793971, "internal_node_id": "0.0-98.0-8.0"}}, {"uniqueid": "MTK1222:3TEM0PF1Q64YFOM6LANZB24OWUZ0DB", "current_trial": 143, "dateTime": 1513463653457, "trialdata": {"rt": -1, "stimulus": "<p id=\"stim\">1</p>", "key_press": -1, "trial_type": "single-stim", "trial_index": 143, "time_elapsed": 1794972, "internal_node_id": "0.0-98.0-9.0"}}, {"uniqueid": "MTK1222:3TEM0PF1Q64YFOM6LANZB24OWUZ0DB", "current_trial": 144, "dateTime": 1513463654958, "trialdata": {"rt": -1, "stimulus": "<p id=\"stim\">+</p>", "key_press": -1, "type": "FIXATION", "trial_type": "single-stim", "trial_index": 144, "time_elapsed": 1796473, "internal_node_id": "0.0-99.0-0.0"}}, {"uniqueid": "MTK1222:3TEM0PF1Q64YFOM6LANZB24OWUZ0DB", "current_trial": 145, "dateTime": 1513463656560, "trialdata": {"rt": -1, "stimulus": "<p id=\"stim\">MISTER</p>", "key_press": -1, "type": "PRES_VIS", "word": "mister", "wordID": 900, "conditions": [24, 1600, "v", 12000], "trial": 4, "serialpos": 0, "trial_type": "single-stim", "trial_index": 145, "time_elapsed": 1798074, "internal_node_id": "0.0-100.0"}}, {"uniqueid": "MTK1222:3TEM0PF1Q64YFOM6LANZB24OWUZ0DB", "current_trial": 146, "dateTime": 1513463658964, "trialdata": {"rt": -1, "stimulus": "<p id=\"stim\">SPARROW</p>", "key_press": -1, "type": "PRES_VIS", "word": "sparrow", "wordID": 1346, "conditions": [24, 1600, "v", 12000], "trial": 4, "serialpos": 1, "trial_type": "single-stim", "trial_index": 146, "time_elapsed": 1800479, "internal_node_id": "0.0-101.0"}}, {"uniqueid": "MTK1222:3TEM0PF1Q64YFOM6LANZB24OWUZ0DB", "current_trial": 147, "dateTime": 1513463661694, "trialdata": {"rt": -1, "stimulus": "<p id=\"stim\">WOMAN</p>", "key_press": -1, "type": "PRES_VIS", "word": "woman", "wordID": 1619, "conditions": [24, 1600, "v", 12000], "trial": 4, "serialpos": 2, "trial_type": "single-stim", "trial_index": 147, "time_elapsed": 1803209, "internal_node_id": "0.0-102.0"}}, {"uniqueid": "MTK1222:3TEM0PF1Q64YFOM6LANZB24OWUZ0DB", "current_trial": 148, "dateTime": 1513463664357, "trialdata": {"rt": -1, "stimulus": "<p id=\"stim\">LACE</p>", "key_press": -1, "type": "PRES_VIS", "word": "lace", "wordID": 791, "conditions": [24, 1600, "v", 12000], "trial": 4, "serialpos": 3, "trial_type": "single-stim", "trial_index": 148, "time_elapsed": 1805872, "internal_node_id": "0.0-103.0"}}, {"uniqueid": "MTK1222:3TEM0PF1Q64YFOM6LANZB24OWUZ0DB", "current_trial": 149, "dateTime": 1513463667072, "trialdata": {"rt": -1, "stimulus": "<p id=\"stim\">CHEST</p>", "key_press": -1, "type": "PRES_VIS", "word": "chest", "wordID": 294, "conditions": [24, 1600, "v", 12000], "trial": 4, "serialpos": 4, "trial_type": "single-stim", "trial_index": 149, "time_elapsed": 1808587, "internal_node_id": "0.0-104.0"}}, {"uniqueid": "MTK1222:3TEM0PF1Q64YFOM6LANZB24OWUZ0DB", "current_trial": 150, "dateTime": 1513463669714, "trialdata": {"rt": -1, "stimulus": "<p id=\"stim\">FOREHEAD</p>", "key_press": -1, "type": "PRES_VIS", "word": "forehead", "wordID": 591, "conditions": [24, 1600, "v", 12000], "trial": 4, "serialpos": 5, "trial_type": "single-stim", "trial_index": 150, "time_elapsed": 1811229, "internal_node_id": "0.0-105.0"}}, {"uniqueid": "MTK1222:3TEM0PF1Q64YFOM6LANZB24OWUZ0DB", "current_trial": 151, "dateTime": 1513463672304, "trialdata": {"rt": -1, "stimulus": "<p id=\"stim\">LADY</p>", "key_press": -1, "type": "PRES_VIS", "word": "lady", "wordID": 793, "conditions": [24, 1600, "v", 12000], "trial": 4, "serialpos": 6, "trial_type": "single-stim", "trial_index": 151, "time_elapsed": 1813819, "internal_node_id": "0.0-106.0"}}, {"uniqueid": "MTK1222:3TEM0PF1Q64YFOM6LANZB24OWUZ0DB", "current_trial": 152, "dateTime": 1513463674886, "trialdata": {"rt": -1, "stimulus": "<p id=\"stim\">TOASTER</p>", "key_press": -1, "type": "PRES_VIS", "word": "toaster", "wordID": 1471, "conditions": [24, 1600, "v", 12000], "trial": 4, "serialpos": 7, "trial_type": "single-stim", "trial_index": 152, "time_elapsed": 1816401, "internal_node_id": "0.0-107.0"}}, {"uniqueid": "MTK1222:3TEM0PF1Q64YFOM6LANZB24OWUZ0DB", "current_trial": 153, "dateTime": 1513463677611, "trialdata": {"rt": -1, "stimulus": "<p id=\"stim\">CRIB</p>", "key_press": -1, "type": "PRES_VIS", "word": "crib", "wordID": 406, "conditions": [24, 1600, "v", 12000], "trial": 4, "serialpos": 8, "trial_type": "single-stim", "trial_index": 153, "time_elapsed": 1819126, "internal_node_id": "0.0-108.0"}}, {"uniqueid": "MTK1222:3TEM0PF1Q64YFOM6LANZB24OWUZ0DB", "current_trial": 154, "dateTime": 1513463680145, "trialdata": {"rt": -1, "stimulus": "<p id=\"stim\">MAILMAN</p>", "key_press": -1, "type": "PRES_VIS", "word": "mailman", "wordID": 857, "conditions": [24, 1600, "v", 12000], "trial": 4, "serialpos": 9, "trial_type": "single-stim", "trial_index": 154, "time_elapsed": 1821660, "internal_node_id": "0.0-109.0"}}, {"uniqueid": "MTK1222:3TEM0PF1Q64YFOM6LANZB24OWUZ0DB", "current_trial": 155, "dateTime": 1513463682888, "trialdata": {"rt": -1, "stimulus": "<p id=\"stim\">PLAID</p>", "key_press": -1, "type": "PRES_VIS", "word": "plaid", "wordID": 1079, "conditions": [24, 1600, "v", 12000], "trial": 4, "serialpos": 10, "trial_type": "single-stim", "trial_index": 155, "time_elapsed": 1824403, "internal_node_id": "0.0-110.0"}}, {"uniqueid": "MTK1222:3TEM0PF1Q64YFOM6LANZB24OWUZ0DB", "current_trial": 156, "dateTime": 1513463685562, "trialdata": {"rt": -1, "stimulus": "<p id=\"stim\">CRAYON</p>", "key_press": -1, "type": "PRES_VIS", "word": "crayon", "wordID": 400, "conditions": [24, 1600, "v", 12000], "trial": 4, "serialpos": 11, "trial_type": "single-stim", "trial_index": 156, "time_elapsed": 1827077, "internal_node_id": "0.0-111.0"}}, {"uniqueid": "MTK1222:3TEM0PF1Q64YFOM6LANZB24OWUZ0DB", "current_trial": 157, "dateTime": 1513463688016, "trialdata": {"rt": -1, "stimulus": "<p id=\"stim\">JURY</p>", "key_press": -1, "type": "PRES_VIS", "word": "jury", "wordID": 765, "conditions": [24, 1600, "v", 12000], "trial": 4, "serialpos": 12, "trial_type": "single-stim", "trial_index": 157, "time_elapsed": 1829531, "internal_node_id": "0.0-112.0"}}, {"uniqueid": "MTK1222:3TEM0PF1Q64YFOM6LANZB24OWUZ0DB", "current_trial": 158, "dateTime": 1513463690787, "trialdata": {"rt": -1, "stimulus": "<p id=\"stim\">JUDGE</p>", "key_press": -1, "type": "PRES_VIS", "word": "judge", "wordID": 760, "conditions": [24, 1600, "v", 12000], "trial": 4, "serialpos": 13, "trial_type": "single-stim", "trial_index": 158, "time_elapsed": 1832302, "internal_node_id": "0.0-113.0"}}, {"uniqueid": "MTK1222:3TEM0PF1Q64YFOM6LANZB24OWUZ0DB", "current_trial": 159, "dateTime": 1513463693251, "trialdata": {"rt": -1, "stimulus": "<p id=\"stim\">SUITCASE</p>", "key_press": -1, "type": "PRES_VIS", "word": "suitcase", "wordID": 1402, "conditions": [24, 1600, "v", 12000], "trial": 4, "serialpos": 14, "trial_type": "single-stim", "trial_index": 159, "time_elapsed": 1834766, "internal_node_id": "0.0-114.0"}}, {"uniqueid": "MTK1222:3TEM0PF1Q64YFOM6LANZB24OWUZ0DB", "current_trial": 160, "dateTime": 1513463695829, "trialdata": {"rt": -1, "stimulus": "<p id=\"stim\">BODY</p>", "key_press": -1, "type": "PRES_VIS", "word": "body", "wordID": 144, "conditions": [24, 1600, "v", 12000], "trial": 4, "serialpos": 15, "trial_type": "single-stim", "trial_index": 160, "time_elapsed": 1837344, "internal_node_id": "0.0-115.0"}}, {"uniqueid": "MTK1222:3TEM0PF1Q64YFOM6LANZB24OWUZ0DB", "current_trial": 161, "dateTime": 1513463698571, "trialdata": {"rt": -1, "stimulus": "<p id=\"stim\">CANDY</p>", "key_press": -1, "type": "PRES_VIS", "word": "candy", "wordID": 229, "conditions": [24, 1600, "v", 12000], "trial": 4, "serialpos": 16, "trial_type": "single-stim", "trial_index": 161, "time_elapsed": 1840086, "internal_node_id": "0.0-116.0"}}, {"uniqueid": "MTK1222:3TEM0PF1Q64YFOM6LANZB24OWUZ0DB", "current_trial": 162, "dateTime": 1513463701209, "trialdata": {"rt": -1, "stimulus": "<p id=\"stim\">PANTHER</p>", "key_press": -1, "type": "PRES_VIS", "word": "panther", "wordID": 1008, "conditions": [24, 1600, "v", 12000], "trial": 4, "serialpos": 17, "trial_type": "single-stim", "trial_index": 162, "time_elapsed": 1842724, "internal_node_id": "0.0-117.0"}}, {"uniqueid": "MTK1222:3TEM0PF1Q64YFOM6LANZB24OWUZ0DB", "current_trial": 163, "dateTime": 1513463703661, "trialdata": {"rt": -1, "stimulus": "<p id=\"stim\">BISON</p>", "key_press": -1, "type": "PRES_VIS", "word": "bison", "wordID": 130, "conditions": [24, 1600, "v", 12000], "trial": 4, "serialpos": 18, "trial_type": "single-stim", "trial_index": 163, "time_elapsed": 1845176, "internal_node_id": "0.0-118.0"}}, {"uniqueid": "MTK1222:3TEM0PF1Q64YFOM6LANZB24OWUZ0DB", "current_trial": 164, "dateTime": 1513463706224, "trialdata": {"rt": -1, "stimulus": "<p id=\"stim\">SERVANT</p>", "key_press": -1, "type": "PRES_VIS", "word": "servant", "wordID": 1270, "conditions": [24, 1600, "v", 12000], "trial": 4, "serialpos": 19, "trial_type": "single-stim", "trial_index": 164, "time_elapsed": 1847739, "internal_node_id": "0.0-119.0"}}, {"uniqueid": "MTK1222:3TEM0PF1Q64YFOM6LANZB24OWUZ0DB", "current_trial": 165, "dateTime": 1513463709020, "trialdata": {"rt": -1, "stimulus": "<p id=\"stim\">LILY</p>", "key_press": -1, "type": "PRES_VIS", "word": "lily", "wordID": 820, "conditions": [24, 1600, "v", 12000], "trial": 4, "serialpos": 20, "trial_type": "single-stim", "trial_index": 165, "time_elapsed": 1850535, "internal_node_id": "0.0-120.0"}}, {"uniqueid": "MTK1222:3TEM0PF1Q64YFOM6LANZB24OWUZ0DB", "current_trial": 166, "dateTime": 1513463711511, "trialdata": {"rt": -1, "stimulus": "<p id=\"stim\">HAMPER</p>", "key_press": -1, "type": "PRES_VIS", "word": "hamper", "wordID": 681, "conditions": [24, 1600, "v", 12000], "trial": 4, "serialpos": 21, "trial_type": "single-stim", "trial_index": 166, "time_elapsed": 1853026, "internal_node_id": "0.0-121.0"}}, {"uniqueid": "MTK1222:3TEM0PF1Q64YFOM6LANZB24OWUZ0DB", "current_trial": 167, "dateTime": 1513463714205, "trialdata": {"rt": -1, "stimulus": "<p id=\"stim\">MATTRESS</p>", "key_press": -1, "type": "PRES_VIS", "word": "mattress", "wordID": 878, "conditions": [24, 1600, "v", 12000], "trial": 4, "serialpos": 22, "trial_type": "single-stim", "trial_index": 167, "time_elapsed": 1855720, "internal_node_id": "0.0-122.0"}}, {"uniqueid": "MTK1222:3TEM0PF1Q64YFOM6LANZB24OWUZ0DB", "current_trial": 168, "dateTime": 1513463716950, "trialdata": {"rt": -1, "stimulus": "<p id=\"stim\">ZEBRA</p>", "key_press": -1, "type": "PRES_VIS", "word": "zebra", "wordID": 1634, "conditions": [24, 1600, "v", 12000], "trial": 4, "serialpos": 23, "trial_type": "single-stim", "trial_index": 168, "time_elapsed": 1858465, "internal_node_id": "0.0-123.0"}}, {"uniqueid": "MTK1222:3TEM0PF1Q64YFOM6LANZB24OWUZ0DB", "current_trial": 169, "dateTime": 1513463719293, "trialdata": {"rt": -1, "stimulus": "", "key_press": -1, "type": "PRE_RECALL_DELAY", "trial_type": "single-stim", "trial_index": 169, "time_elapsed": 1860808, "internal_node_id": "0.0-124.0-0.0"}}, {"uniqueid": "MTK1222:3TEM0PF1Q64YFOM6LANZB24OWUZ0DB", "current_trial": 170, "dateTime": 1513463719806, "trialdata": {"rt": -1000, "stimulus": "/static/audio/400Hz.wav", "key_press": -1, "type": "PRE_RECALL_ALERT", "trial_type": "single-audio", "trial_index": 170, "time_elapsed": 1861321, "internal_node_id": "0.0-125.0"}}, {"uniqueid": "MTK1222:3TEM0PF1Q64YFOM6LANZB24OWUZ0DB", "current_trial": 171, "dateTime": 1513463779810, "trialdata": {"rt": [1779, 2934, 4465, 8230, 9371, 11080, 12723, 17778, 26096, 33083, 50115], "recwords": ["zebra", "hamper", "mailman", "sparrow", "mister", "woman", "chest", "bison", "zebra", "hamper", "lady"], "type": "FREE_RECALL", "conditions": [24, 1600, "v", 12000], "trial": 4, "trial_type": "free-recall", "trial_index": 171, "time_elapsed": 1921323, "internal_node_id": "0.0-126.0-0.0"}}, {"uniqueid": "MTK1222:3TEM0PF1Q64YFOM6LANZB24OWUZ0DB", "current_trial": 172, "dateTime": 1513463783403, "trialdata": {"rt": 1592, "key_press": 72, "type": "INSTRUCTIONS", "trial_type": "text", "trial_index": 172, "time_elapsed": 1924918, "internal_node_id": "0.0-127.0"}}, {"uniqueid": "MTK1222:3TEM0PF1Q64YFOM6LANZB24OWUZ0DB", "current_trial": 173, "dateTime": 1513463797404, "trialdata": {"rt": [5670, 8438, 9614], "responses": ["20", "15", "3"], "num1": [6, 9, 1, 5], "num2": [7, 5, 1, 9], "num3": [7, 1, 1, 6], "type": "DISTRACTOR", "conditions": [12, 800, "v", 12000], "trial": 5, "trial_type": "math-distractor", "trial_index": 173, "time_elapsed": 1938919, "internal_node_id": "0.0-128.0"}}, {"uniqueid": "MTK1222:3TEM0PF1Q64YFOM6LANZB24OWUZ0DB", "current_trial": 174, "dateTime": 1513463800405, "trialdata": {"rt": -1, "stimulus": "<p id=\"stim\">10</p>", "key_press": -1, "trial_type": "single-stim", "trial_index": 174, "time_elapsed": 1941920, "internal_node_id": "0.0-129.0-0.0"}}, {"uniqueid": "MTK1222:3TEM0PF1Q64YFOM6LANZB24OWUZ0DB", "current_trial": 175, "dateTime": 1513463801405, "trialdata": {"rt": -1, "stimulus": "<p id=\"stim\">9</p>", "key_press": -1, "trial_type": "single-stim", "trial_index": 175, "time_elapsed": 1942920, "internal_node_id": "0.0-129.0-1.0"}}, {"uniqueid": "MTK1222:3TEM0PF1Q64YFOM6LANZB24OWUZ0DB", "current_trial": 176, "dateTime": 1513463802405, "trialdata": {"rt": -1, "stimulus": "<p id=\"stim\">8</p>", "key_press": -1, "trial_type": "single-stim", "trial_index": 176, "time_elapsed": 1943920, "internal_node_id": "0.0-129.0-2.0"}}, {"uniqueid": "MTK1222:3TEM0PF1Q64YFOM6LANZB24OWUZ0DB", "current_trial": 177, "dateTime": 1513463803406, "trialdata": {"rt": -1, "stimulus": "<p id=\"stim\">7</p>", "key_press": -1, "trial_type": "single-stim", "trial_index": 177, "time_elapsed": 1944921, "internal_node_id": "0.0-129.0-3.0"}}, {"uniqueid": "MTK1222:3TEM0PF1Q64YFOM6LANZB24OWUZ0DB", "current_trial": 178, "dateTime": 1513463804406, "trialdata": {"rt": -1, "stimulus": "<p id=\"stim\">6</p>", "key_press": -1, "trial_type": "single-stim", "trial_index": 178, "time_elapsed": 1945921, "internal_node_id": "0.0-129.0-4.0"}}, {"uniqueid": "MTK1222:3TEM0PF1Q64YFOM6LANZB24OWUZ0DB", "current_trial": 179, "dateTime": 1513463805406, "trialdata": {"rt": -1, "stimulus": "<p id=\"stim\">5</p>", "key_press": -1, "trial_type": "single-stim", "trial_index": 179, "time_elapsed": 1946921, "internal_node_id": "0.0-129.0-5.0"}}, {"uniqueid": "MTK1222:3TEM0PF1Q64YFOM6LANZB24OWUZ0DB", "current_trial": 180, "dateTime": 1513463806406, "trialdata": {"rt": -1, "stimulus": "<p id=\"stim\">4</p>", "key_press": -1, "trial_type": "single-stim", "trial_index": 180, "time_elapsed": 1947921, "internal_node_id": "0.0-129.0-6.0"}}, {"uniqueid": "MTK1222:3TEM0PF1Q64YFOM6LANZB24OWUZ0DB", "current_trial": 181, "dateTime": 1513463807406, "trialdata": {"rt": -1, "stimulus": "<p id=\"stim\">3</p>", "key_press": -1, "trial_type": "single-stim", "trial_index": 181, "time_elapsed": 1948921, "internal_node_id": "0.0-129.0-7.0"}}, {"uniqueid": "MTK1222:3TEM0PF1Q64YFOM6LANZB24OWUZ0DB", "current_trial": 182, "dateTime": 1513463808406, "trialdata": {"rt": -1, "stimulus": "<p id=\"stim\">2</p>", "key_press": -1, "trial_type": "single-stim", "trial_index": 182, "time_elapsed": 1949921, "internal_node_id": "0.0-129.0-8.0"}}, {"uniqueid": "MTK1222:3TEM0PF1Q64YFOM6LANZB24OWUZ0DB", "current_trial": 183, "dateTime": 1513463809407, "trialdata": {"rt": -1, "stimulus": "<p id=\"stim\">1</p>", "key_press": -1, "trial_type": "single-stim", "trial_index": 183, "time_elapsed": 1950922, "internal_node_id": "0.0-129.0-9.0"}}, {"uniqueid": "MTK1222:3TEM0PF1Q64YFOM6LANZB24OWUZ0DB", "current_trial": 184, "dateTime": 1513463810908, "trialdata": {"rt": -1, "stimulus": "<p id=\"stim\">+</p>", "key_press": -1, "type": "FIXATION", "trial_type": "single-stim", "trial_index": 184, "time_elapsed": 1952423, "internal_node_id": "0.0-130.0-0.0"}}, {"uniqueid": "MTK1222:3TEM0PF1Q64YFOM6LANZB24OWUZ0DB", "current_trial": 185, "dateTime": 1513463811708, "trialdata": {"rt": -1, "stimulus": "<p id=\"stim\">CYCLONE</p>", "key_press": -1, "type": "PRES_VIS", "word": "cyclone", "wordID": 430, "conditions": [12, 800, "v", 12000], "trial": 5, "serialpos": 0, "trial_type": "single-stim", "trial_index": 185, "time_elapsed": 1953223, "internal_node_id": "0.0-131.0"}}, {"uniqueid": "MTK1222:3TEM0PF1Q64YFOM6LANZB24OWUZ0DB", "current_trial": 186, "dateTime": 1513463813657, "trialdata": {"rt": -1, "stimulus": "<p id=\"stim\">BUNNY</p>", "key_press": -1, "type": "PRES_VIS", "word": "bunny", "wordID": 197, "conditions": [12, 800, "v", 12000], "trial": 5, "serialpos": 1, "trial_type": "single-stim", "trial_index": 186, "time_elapsed": 1955172, "internal_node_id": "0.0-132.0"}}, {"uniqueid": "MTK1222:3TEM0PF1Q64YFOM6LANZB24OWUZ0DB", "current_trial": 187, "dateTime": 1513463815510, "trialdata": {"rt": -1, "stimulus": "<p id=\"stim\">RABBIT</p>", "key_press": -1, "type": "PRES_VIS", "word": "rabbit", "wordID": 1151, "conditions": [12, 800, "v", 12000], "trial": 5, "serialpos": 2, "trial_type": "single-stim", "trial_index": 187, "time_elapsed": 1957025, "internal_node_id": "0.0-133.0"}}, {"uniqueid": "MTK1222:3TEM0PF1Q64YFOM6LANZB24OWUZ0DB", "current_trial": 188, "dateTime": 1513463817313, "trialdata": {"rt": -1, "stimulus": "<p id=\"stim\">TWEEZERS</p>", "key_press": -1, "type": "PRES_VIS", "word": "tweezers", "wordID": 1525, "conditions": [12, 800, "v", 12000], "trial": 5, "serialpos": 3, "trial_type": "single-stim", "trial_index": 188, "time_elapsed": 1958828, "internal_node_id": "0.0-134.0"}}, {"uniqueid": "MTK1222:3TEM0PF1Q64YFOM6LANZB24OWUZ0DB", "current_trial": 189, "dateTime": 1513463819236, "trialdata": {"rt": -1, "stimulus": "<p id=\"stim\">PECAN</p>", "key_press": -1, "type": "PRES_VIS", "word": "pecan", "wordID": 1035, "conditions": [12, 800, "v", 12000], "trial": 5, "serialpos": 4, "trial_type": "single-stim", "trial_index": 189, "time_elapsed": 1960751, "internal_node_id": "0.0-135.0"}}, {"uniqueid": "MTK1222:3TEM0PF1Q64YFOM6LANZB24OWUZ0DB", "current_trial": 190, "dateTime": 1513463821041, "trialdata": {"rt": -1, "stimulus": "<p id=\"stim\">RIVER</p>", "key_press": -1, "type": "PRES_VIS", "word": "river", "wordID": 1193, "conditions": [12, 800, "v", 12000], "trial": 5, "serialpos": 5, "trial_type": "single-stim", "trial_index": 190, "time_elapsed": 1962556, "internal_node_id": "0.0-136.0"}}, {"uniqueid": "MTK1222:3TEM0PF1Q64YFOM6LANZB24OWUZ0DB", "current_trial": 191, "dateTime": 1513463822913, "trialdata": {"rt": -1, "stimulus": "<p id=\"stim\">SUNSET</p>", "key_press": -1, "type": "PRES_VIS", "word": "sunset", "wordID": 1407, "conditions": [12, 800, "v", 12000], "trial": 5, "serialpos": 6, "trial_type": "single-stim", "trial_index": 191, "time_elapsed": 1964428, "internal_node_id": "0.0-137.0"}}, {"uniqueid": "MTK1222:3TEM0PF1Q64YFOM6LANZB24OWUZ0DB", "current_trial": 192, "dateTime": 1513463824595, "trialdata": {"rt": -1, "stimulus": "<p id=\"stim\">BRANDY</p>", "key_press": -1, "type": "PRES_VIS", "word": "brandy", "wordID": 168, "conditions": [12, 800, "v", 12000], "trial": 5, "serialpos": 7, "trial_type": "single-stim", "trial_index": 192, "time_elapsed": 1966110, "internal_node_id": "0.0-138.0"}}, {"uniqueid": "MTK1222:3TEM0PF1Q64YFOM6LANZB24OWUZ0DB", "current_trial": 193, "dateTime": 1513463826370, "trialdata": {"rt": -1, "stimulus": "<p id=\"stim\">DIVER</p>", "key_press": -1, "type": "PRES_VIS", "word": "diver", "wordID": 475, "conditions": [12, 800, "v", 12000], "trial": 5, "serialpos": 8, "trial_type": "single-stim", "trial_index": 193, "time_elapsed": 1967885, "internal_node_id": "0.0-139.0"}}, {"uniqueid": "MTK1222:3TEM0PF1Q64YFOM6LANZB24OWUZ0DB", "current_trial": 194, "dateTime": 1513463827994, "trialdata": {"rt": -1, "stimulus": "<p id=\"stim\">FARMER</p>", "key_press": -1, "type": "PRES_VIS", "word": "farmer", "wordID": 552, "conditions": [12, 800, "v", 12000], "trial": 5, "serialpos": 9, "trial_type": "single-stim", "trial_index": 194, "time_elapsed": 1969509, "internal_node_id": "0.0-140.0"}}, {"uniqueid": "MTK1222:3TEM0PF1Q64YFOM6LANZB24OWUZ0DB", "current_trial": 195, "dateTime": 1513463829859, "trialdata": {"rt": -1, "stimulus": "<p id=\"stim\">GANGSTER</p>", "key_press": -1, "type": "PRES_VIS", "word": "gangster", "wordID": 619, "conditions": [12, 800, "v", 12000], "trial": 5, "serialpos": 10, "trial_type": "single-stim", "trial_index": 195, "time_elapsed": 1971374, "internal_node_id": "0.0-141.0"}}, {"uniqueid": "MTK1222:3TEM0PF1Q64YFOM6LANZB24OWUZ0DB", "current_trial": 196, "dateTime": 1513463831775, "trialdata": {"rt": -1, "stimulus": "<p id=\"stim\">CITRUS</p>", "key_press": -1, "type": "PRES_VIS", "word": "citrus", "wordID": 312, "conditions": [12, 800, "v", 12000], "trial": 5, "serialpos": 11, "trial_type": "single-stim", "trial_index": 196, "time_elapsed": 1973290, "internal_node_id": "0.0-142.0"}}, {"uniqueid": "MTK1222:3TEM0PF1Q64YFOM6LANZB24OWUZ0DB", "current_trial": 197, "dateTime": 1513463834113, "trialdata": {"rt": -1, "stimulus": "", "key_press": -1, "type": "PRE_RECALL_DELAY", "trial_type": "single-stim", "trial_index": 197, "time_elapsed": 1975628, "internal_node_id": "0.0-143.0-0.0"}}, {"uniqueid": "MTK1222:3TEM0PF1Q64YFOM6LANZB24OWUZ0DB", "current_trial": 198, "dateTime": 1513463834626, "trialdata": {"rt": -1000, "stimulus": "/static/audio/400Hz.wav", "key_press": -1, "type": "PRE_RECALL_ALERT", "trial_type": "single-audio", "trial_index": 198, "time_elapsed": 1976141, "internal_node_id": "0.0-144.0"}}, {"uniqueid": "MTK1222:3TEM0PF1Q64YFOM6LANZB24OWUZ0DB", "current_trial": 199, "dateTime": 1513463894631, "trialdata": {"rt": [1855, 2801, 4596, 6755, 12407, 14972, 35359], "recwords": ["citrus", "diver", "brandy", "bunny", "pecan", "citrus", "driver"], "type": "FREE_RECALL", "conditions": [12, 800, "v", 12000], "trial": 5, "trial_type": "free-recall", "trial_index": 199, "time_elapsed": 2036143, "internal_node_id": "0.0-145.0-0.0"}}, {"uniqueid": "MTK1222:3TEM0PF1Q64YFOM6LANZB24OWUZ0DB", "current_trial": 200, "dateTime": 1513463909003, "trialdata": {"rt": 12371, "key_press": 68, "type": "INSTRUCTIONS", "trial_type": "text", "trial_index": 200, "time_elapsed": 2050518, "internal_node_id": "0.0-146.0"}}, {"uniqueid": "MTK1222:3TEM0PF1Q64YFOM6LANZB24OWUZ0DB", "current_trial": 201, "dateTime": 1513463935005, "trialdata": {"rt": [2150, 6606, 7934, 11910, 13254, 19398], "responses": ["12", "20", "12", "13", "15", "25"], "num1": [2, 4, 5, 4, 5, 9, 5], "num2": [5, 7, 5, 1, 5, 7, 9], "num3": [5, 9, 2, 8, 5, 9, 9], "type": "DISTRACTOR", "conditions": [24, 800, "a", 24000], "trial": 6, "trial_type": "math-distractor", "trial_index": 201, "time_elapsed": 2076519, "internal_node_id": "0.0-147.0"}}, {"uniqueid": "MTK1222:3TEM0PF1Q64YFOM6LANZB24OWUZ0DB", "current_trial": 202, "dateTime": 1513463938005, "trialdata": {"rt": -1, "stimulus": "<p id=\"stim\">10</p>", "key_press": -1, "trial_type": "single-stim", "trial_index": 202, "time_elapsed": 2079520, "internal_node_id": "0.0-148.0-0.0"}}, {"uniqueid": "MTK1222:3TEM0PF1Q64YFOM6LANZB24OWUZ0DB", "current_trial": 203, "dateTime": 1513463939006, "trialdata": {"rt": -1, "stimulus": "<p id=\"stim\">9</p>", "key_press": -1, "trial_type": "single-stim", "trial_index": 203, "time_elapsed": 2080521, "internal_node_id": "0.0-148.0-1.0"}}, {"uniqueid": "MTK1222:3TEM0PF1Q64YFOM6LANZB24OWUZ0DB", "current_trial": 204, "dateTime": 1513463940007, "trialdata": {"rt": -1, "stimulus": "<p id=\"stim\">8</p>", "key_press": -1, "trial_type": "single-stim", "trial_index": 204, "time_elapsed": 2081522, "internal_node_id": "0.0-148.0-2.0"}}, {"uniqueid": "MTK1222:3TEM0PF1Q64YFOM6LANZB24OWUZ0DB", "current_trial": 205, "dateTime": 1513463941008, "trialdata": {"rt": -1, "stimulus": "<p id=\"stim\">7</p>", "key_press": -1, "trial_type": "single-stim", "trial_index": 205, "time_elapsed": 2082523, "internal_node_id": "0.0-148.0-3.0"}}, {"uniqueid": "MTK1222:3TEM0PF1Q64YFOM6LANZB24OWUZ0DB", "current_trial": 206, "dateTime": 1513463942009, "trialdata": {"rt": -1, "stimulus": "<p id=\"stim\">6</p>", "key_press": -1, "trial_type": "single-stim", "trial_index": 206, "time_elapsed": 2083524, "internal_node_id": "0.0-148.0-4.0"}}, {"uniqueid": "MTK1222:3TEM0PF1Q64YFOM6LANZB24OWUZ0DB", "current_trial": 207, "dateTime": 1513463943010, "trialdata": {"rt": -1, "stimulus": "<p id=\"stim\">5</p>", "key_press": -1, "trial_type": "single-stim", "trial_index": 207, "time_elapsed": 2084525, "internal_node_id": "0.0-148.0-5.0"}}, {"uniqueid": "MTK1222:3TEM0PF1Q64YFOM6LANZB24OWUZ0DB", "current_trial": 208, "dateTime": 1513463944011, "trialdata": {"rt": -1, "stimulus": "<p id=\"stim\">4</p>", "key_press": -1, "trial_type": "single-stim", "trial_index": 208, "time_elapsed": 2085526, "internal_node_id": "0.0-148.0-6.0"}}, {"uniqueid": "MTK1222:3TEM0PF1Q64YFOM6LANZB24OWUZ0DB", "current_trial": 209, "dateTime": 1513463945012, "trialdata": {"rt": -1, "stimulus": "<p id=\"stim\">3</p>", "key_press": -1, "trial_type": "single-stim", "trial_index": 209, "time_elapsed": 2086527, "internal_node_id": "0.0-148.0-7.0"}}, {"uniqueid": "MTK1222:3TEM0PF1Q64YFOM6LANZB24OWUZ0DB", "current_trial": 210, "dateTime": 1513463946014, "trialdata": {"rt": -1, "stimulus": "<p id=\"stim\">2</p>", "key_press": -1, "trial_type": "single-stim", "trial_index": 210, "time_elapsed": 2087529, "internal_node_id": "0.0-148.0-8.0"}}, {"uniqueid": "MTK1222:3TEM0PF1Q64YFOM6LANZB24OWUZ0DB", "current_trial": 211, "dateTime": 1513463947014, "trialdata": {"rt": -1, "stimulus": "<p id=\"stim\">1</p>", "key_press": -1, "trial_type": "single-stim", "trial_index": 211, "time_elapsed": 2088529, "internal_node_id": "0.0-148.0-9.0"}}, {"uniqueid": "MTK1222:3TEM0PF1Q64YFOM6LANZB24OWUZ0DB", "current_trial": 212, "dateTime": 1513463948515, "trialdata": {"rt": -1, "stimulus": "<p id=\"stim\">+</p>", "key_press": -1, "type": "FIXATION", "trial_type": "single-stim", "trial_index": 212, "time_elapsed": 2090030, "internal_node_id": "0.0-149.0-0.0"}}, {"uniqueid": "MTK1222:3TEM0PF1Q64YFOM6LANZB24OWUZ0DB", "current_trial": 213, "dateTime": 1513463950312, "trialdata": {"rt": -1000, "stimulus": "/static/audio/wordpool/YARN.wav", "key_press": -1, "type": "PRES_AUD", "word": "yarn", "wordID": 1630, "conditions": [24, 800, "a", 24000], "trial": 6, "serialpos": 0, "trial_type": "single-audio", "trial_index": 213, "time_elapsed": 2091827, "internal_node_id": "0.0-150.0"}}, {"uniqueid": "MTK1222:3TEM0PF1Q64YFOM6LANZB24OWUZ0DB", "current_trial": 214, "dateTime": 1513463952104, "trialdata": {"rt": -1000, "stimulus": "/static/audio/wordpool/DOUGHNUT.wav", "key_press": -1, "type": "PRES_AUD", "word": "doughnut", "wordID": 489, "conditions": [24, 800, "a", 24000], "trial": 6, "serialpos": 1, "trial_type": "single-audio", "trial_index": 214, "time_elapsed": 2093619, "internal_node_id": "0.0-151.0"}}, {"uniqueid": "MTK1222:3TEM0PF1Q64YFOM6LANZB24OWUZ0DB", "current_trial": 215, "dateTime": 1513463953928, "trialdata": {"rt": -1000, "stimulus": "/static/audio/wordpool/NURSE.wav", "key_press": -1, "type": "PRES_AUD", "word": "nurse", "wordID": 962, "conditions": [24, 800, "a", 24000], "trial": 6, "serialpos": 2, "trial_type": "single-audio", "trial_index": 215, "time_elapsed": 2095443, "internal_node_id": "0.0-152.0"}}, {"uniqueid": "MTK1222:3TEM0PF1Q64YFOM6LANZB24OWUZ0DB", "current_trial": 216, "dateTime": 1513463955577, "trialdata": {"rt": -1000, "stimulus": "/static/audio/wordpool/COUNTY.wav", "key_press": -1, "type": "PRES_AUD", "word": "county", "wordID": 388, "conditions": [24, 800, "a", 24000], "trial": 6, "serialpos": 3, "trial_type": "single-audio", "trial_index": 216, "time_elapsed": 2097092, "internal_node_id": "0.0-153.0"}}, {"uniqueid": "MTK1222:3TEM0PF1Q64YFOM6LANZB24OWUZ0DB", "current_trial": 217, "dateTime": 1513463957264, "trialdata": {"rt": -1000, "stimulus": "/static/audio/wordpool/SHERIFF.wav", "key_press": -1, "type": "PRES_AUD", "word": "sheriff", "wordID": 1283, "conditions": [24, 800, "a", 24000], "trial": 6, "serialpos": 4, "trial_type": "single-audio", "trial_index": 217, "time_elapsed": 2098779, "internal_node_id": "0.0-154.0"}}, {"uniqueid": "MTK1222:3TEM0PF1Q64YFOM6LANZB24OWUZ0DB", "current_trial": 218, "dateTime": 1513463959108, "trialdata": {"rt": -1000, "stimulus": "/static/audio/wordpool/PATIENT.wav", "key_press": -1, "type": "PRES_AUD", "word": "patient", "wordID": 1023, "conditions": [24, 800, "a", 24000], "trial": 6, "serialpos": 5, "trial_type": "single-audio", "trial_index": 218, "time_elapsed": 2100623, "internal_node_id": "0.0-155.0"}}, {"uniqueid": "MTK1222:3TEM0PF1Q64YFOM6LANZB24OWUZ0DB", "current_trial": 219, "dateTime": 1513463961011, "trialdata": {"rt": -1000, "stimulus": "/static/audio/wordpool/HOOD.wav", "key_press": -1, "type": "PRES_AUD", "word": "hood", "wordID": 713, "conditions": [24, 800, "a", 24000], "trial": 6, "serialpos": 6, "trial_type": "single-audio", "trial_index": 219, "time_elapsed": 2102526, "internal_node_id": "0.0-156.0"}}, {"uniqueid": "MTK1222:3TEM0PF1Q64YFOM6LANZB24OWUZ0DB", "current_trial": 220, "dateTime": 1513463962984, "trialdata": {"rt": -1000, "stimulus": "/static/audio/wordpool/CABIN.wav", "key_press": -1, "type": "PRES_AUD", "word": "cabin", "wordID": 210, "conditions": [24, 800, "a", 24000], "trial": 6, "serialpos": 7, "trial_type": "single-audio", "trial_index": 220, "time_elapsed": 2104499, "internal_node_id": "0.0-157.0"}}, {"uniqueid": "MTK1222:3TEM0PF1Q64YFOM6LANZB24OWUZ0DB", "current_trial": 221, "dateTime": 1513463964639, "trialdata": {"rt": -1000, "stimulus": "/static/audio/wordpool/PASTRY.wav", "key_press": -1, "type": "PRES_AUD", "word": "pastry", "wordID": 1021, "conditions": [24, 800, "a", 24000], "trial": 6, "serialpos": 8, "trial_type": "single-audio", "trial_index": 221, "time_elapsed": 2106154, "internal_node_id": "0.0-158.0"}}, {"uniqueid": "MTK1222:3TEM0PF1Q64YFOM6LANZB24OWUZ0DB", "current_trial": 222, "dateTime": 1513463966405, "trialdata": {"rt": -1000, "stimulus": "/static/audio/wordpool/BOUQUET.wav", "key_press": -1, "type": "PRES_AUD", "word": "bouquet", "wordID": 156, "conditions": [24, 800, "a", 24000], "trial": 6, "serialpos": 9, "trial_type": "single-audio", "trial_index": 222, "time_elapsed": 2107920, "internal_node_id": "0.0-159.0"}}, {"uniqueid": "MTK1222:3TEM0PF1Q64YFOM6LANZB24OWUZ0DB", "current_trial": 223, "dateTime": 1513463968327, "trialdata": {"rt": -1000, "stimulus": "/static/audio/wordpool/YACHT.wav", "key_press": -1, "type": "PRES_AUD", "word": "yacht", "wordID": 1628, "conditions": [24, 800, "a", 24000], "trial": 6, "serialpos": 10, "trial_type": "single-audio", "trial_index": 223, "time_elapsed": 2109842, "internal_node_id": "0.0-160.0"}}, {"uniqueid": "MTK1222:3TEM0PF1Q64YFOM6LANZB24OWUZ0DB", "current_trial": 224, "dateTime": 1513463970016, "trialdata": {"rt": -1000, "stimulus": "/static/audio/wordpool/SHORTCAKE.wav", "key_press": -1, "type": "PRES_AUD", "word": "shortcake", "wordID": 1291, "conditions": [24, 800, "a", 24000], "trial": 6, "serialpos": 11, "trial_type": "single-audio", "trial_index": 224, "time_elapsed": 2111531, "internal_node_id": "0.0-161.0"}}, {"uniqueid": "MTK1222:3TEM0PF1Q64YFOM6LANZB24OWUZ0DB", "current_trial": 225, "dateTime": 1513463971929, "trialdata": {"rt": -1000, "stimulus": "/static/audio/wordpool/ROBOT.wav", "key_press": -1, "type": "PRES_AUD", "word": "robot", "wordID": 1199, "conditions": [24, 800, "a", 24000], "trial": 6, "serialpos": 12, "trial_type": "single-audio", "trial_index": 225, "time_elapsed": 2113444, "internal_node_id": "0.0-162.0"}}, {"uniqueid": "MTK1222:3TEM0PF1Q64YFOM6LANZB24OWUZ0DB", "current_trial": 226, "dateTime": 1513463973906, "trialdata": {"rt": -1000, "stimulus": "/static/audio/wordpool/TURKEY.wav", "key_press": -1, "type": "PRES_AUD", "word": "turkey", "wordID": 1519, "conditions": [24, 800, "a", 24000], "trial": 6, "serialpos": 13, "trial_type": "single-audio", "trial_index": 226, "time_elapsed": 2115421, "internal_node_id": "0.0-163.0"}}, {"uniqueid": "MTK1222:3TEM0PF1Q64YFOM6LANZB24OWUZ0DB", "current_trial": 227, "dateTime": 1513463975529, "trialdata": {"rt": -1000, "stimulus": "/static/audio/wordpool/KITCHEN.wav", "key_press": -1, "type": "PRES_AUD", "word": "kitchen", "wordID": 777, "conditions": [24, 800, "a", 24000], "trial": 6, "serialpos": 14, "trial_type": "single-audio", "trial_index": 227, "time_elapsed": 2117044, "internal_node_id": "0.0-164.0"}}, {"uniqueid": "MTK1222:3TEM0PF1Q64YFOM6LANZB24OWUZ0DB", "current_trial": 228, "dateTime": 1513463977312, "trialdata": {"rt": -1000, "stimulus": "/static/audio/wordpool/POISON.wav", "key_press": -1, "type": "PRES_AUD", "word": "poison", "wordID": 1095, "conditions": [24, 800, "a", 24000], "trial": 6, "serialpos": 15, "trial_type": "single-audio", "trial_index": 228, "time_elapsed": 2118827, "internal_node_id": "0.0-165.0"}}, {"uniqueid": "MTK1222:3TEM0PF1Q64YFOM6LANZB24OWUZ0DB", "current_trial": 229, "dateTime": 1513463979295, "trialdata": {"rt": -1000, "stimulus": "/static/audio/wordpool/CONTRACT.wav", "key_press": -1, "type": "PRES_AUD", "word": "contract", "wordID": 367, "conditions": [24, 800, "a", 24000], "trial": 6, "serialpos": 16, "trial_type": "single-audio", "trial_index": 229, "time_elapsed": 2120810, "internal_node_id": "0.0-166.0"}}, {"uniqueid": "MTK1222:3TEM0PF1Q64YFOM6LANZB24OWUZ0DB", "current_trial": 230, "dateTime": 1513463981264, "trialdata": {"rt": -1000, "stimulus": "/static/audio/wordpool/BACON.wav", "key_press": -1, "type": "PRES_AUD", "word": "bacon", "wordID": 66, "conditions": [24, 800, "a", 24000], "trial": 6, "serialpos": 17, "trial_type": "single-audio", "trial_index": 230, "time_elapsed": 2122779, "internal_node_id": "0.0-167.0"}}, {"uniqueid": "MTK1222:3TEM0PF1Q64YFOM6LANZB24OWUZ0DB", "current_trial": 231, "dateTime": 1513463982934, "trialdata": {"rt": -1000, "stimulus": "/static/audio/wordpool/BURGLAR.wav", "key_press": -1, "type": "PRES_AUD", "word": "burglar", "wordID": 199, "conditions": [24, 800, "a", 24000], "trial": 6, "serialpos": 18, "trial_type": "single-audio", "trial_index": 231, "time_elapsed": 2124449, "internal_node_id": "0.0-168.0"}}, {"uniqueid": "MTK1222:3TEM0PF1Q64YFOM6LANZB24OWUZ0DB", "current_trial": 232, "dateTime": 1513463984770, "trialdata": {"rt": -1000, "stimulus": "/static/audio/wordpool/SWIMMER.wav", "key_press": -1, "type": "PRES_AUD", "word": "swimmer", "wordID": 1419, "conditions": [24, 800, "a", 24000], "trial": 6, "serialpos": 19, "trial_type": "single-audio", "trial_index": 232, "time_elapsed": 2126285, "internal_node_id": "0.0-169.0"}}, {"uniqueid": "MTK1222:3TEM0PF1Q64YFOM6LANZB24OWUZ0DB", "current_trial": 233, "dateTime": 1513463986517, "trialdata": {"rt": -1000, "stimulus": "/static/audio/wordpool/STOVE.wav", "key_press": -1, "type": "PRES_AUD", "word": "stove", "wordID": 1387, "conditions": [24, 800, "a", 24000], "trial": 6, "serialpos": 20, "trial_type": "single-audio", "trial_index": 233, "time_elapsed": 2128032, "internal_node_id": "0.0-170.0"}}, {"uniqueid": "MTK1222:3TEM0PF1Q64YFOM6LANZB24OWUZ0DB", "current_trial": 234, "dateTime": 1513463988145, "trialdata": {"rt": -1000, "stimulus": "/static/audio/wordpool/FIREPLACE.wav", "key_press": -1, "type": "PRES_AUD", "word": "fireplace", "wordID": 569, "conditions": [24, 800, "a", 24000], "trial": 6, "serialpos": 21, "trial_type": "single-audio", "trial_index": 234, "time_elapsed": 2129660, "internal_node_id": "0.0-171.0"}}, {"uniqueid": "MTK1222:3TEM0PF1Q64YFOM6LANZB24OWUZ0DB", "current_trial": 235, "dateTime": 1513463990089, "trialdata": {"rt": -1000, "stimulus": "/static/audio/wordpool/BLACKBOARD.wav", "key_press": -1, "type": "PRES_AUD", "word": "blackboard", "wordID": 132, "conditions": [24, 800, "a", 24000], "trial": 6, "serialpos": 22, "trial_type": "single-audio", "trial_index": 235, "time_elapsed": 2131604, "internal_node_id": "0.0-172.0"}}, {"uniqueid": "MTK1222:3TEM0PF1Q64YFOM6LANZB24OWUZ0DB", "current_trial": 236, "dateTime": 1513463991936, "trialdata": {"rt": -1000, "stimulus": "/static/audio/wordpool/COUCH.wav", "key_press": -1, "type": "PRES_AUD", "word": "couch", "wordID": 385, "conditions": [24, 800, "a", 24000], "trial": 6, "serialpos": 23, "trial_type": "single-audio", "trial_index": 236, "time_elapsed": 2133451, "internal_node_id": "0.0-173.0"}}, {"uniqueid": "MTK1222:3TEM0PF1Q64YFOM6LANZB24OWUZ0DB", "current_trial": 237, "dateTime": 1513463993247, "trialdata": {"rt": -1, "stimulus": "", "key_press": -1, "type": "PRE_RECALL_DELAY", "trial_type": "single-stim", "trial_index": 237, "time_elapsed": 2134762, "internal_node_id": "0.0-174.0-0.0"}}, {"uniqueid": "MTK1222:3TEM0PF1Q64YFOM6LANZB24OWUZ0DB", "current_trial": 238, "dateTime": 1513463993759, "trialdata": {"rt": -1000, "stimulus": "/static/audio/400Hz.wav", "key_press": -1, "type": "PRE_RECALL_ALERT", "trial_type": "single-audio", "trial_index": 238, "time_elapsed": 2135274, "internal_node_id": "0.0-175.0"}}, {"uniqueid": "MTK1222:3TEM0PF1Q64YFOM6LANZB24OWUZ0DB", "current_trial": 239, "dateTime": 1513464053764, "trialdata": {"rt": [1939, 3284, 4881, 6090, 7721, 8634, 9671, 11276, 12671, 17402, 22643, 41370, 51762], "recwords": ["couch", "blackboard", "fireplace", "stove", "kitchen", "nurse", "patient", "contract", "turkey", "county", "pastry", "poison", "bacon"], "type": "FREE_RECALL", "conditions": [24, 800, "a", 24000], "trial": 6, "trial_type": "free-recall", "trial_index": 239, "time_elapsed": 2195276, "internal_node_id": "0.0-176.0-0.0"}}, {"uniqueid": "MTK1222:3TEM0PF1Q64YFOM6LANZB24OWUZ0DB", "current_trial": 240, "dateTime": 1513464056859, "trialdata": {"rt": 1095, "key_press": 70, "type": "INSTRUCTIONS", "trial_type": "text", "trial_index": 240, "time_elapsed": 2198374, "internal_node_id": "0.0-177.0"}}, {"uniqueid": "MTK1222:3TEM0PF1Q64YFOM6LANZB24OWUZ0DB", "current_trial": 241, "dateTime": 1513464082862, "trialdata": {"rt": [2437, 5501, 6637, 11133, 13958, 17030, 19517, 21717], "responses": ["8", "12", "3", "19", "11", "13", "15", "16"], "num1": [3, 2, 1, 6, 5, 5, 8, 5, 9], "num2": [4, 2, 1, 6, 5, 7, 4, 2, 5], "num3": [1, 7, 1, 7, 1, 1, 3, 9, 2], "type": "DISTRACTOR", "conditions": [12, 800, "v", 24000], "trial": 7, "trial_type": "math-distractor", "trial_index": 241, "time_elapsed": 2224377, "internal_node_id": "0.0-178.0"}}, {"uniqueid": "MTK1222:3TEM0PF1Q64YFOM6LANZB24OWUZ0DB", "current_trial": 242, "dateTime": 1513464085863, "trialdata": {"rt": -1, "stimulus": "<p id=\"stim\">10</p>", "key_press": -1, "trial_type": "single-stim", "trial_index": 242, "time_elapsed": 2227378, "internal_node_id": "0.0-179.0-0.0"}}, {"uniqueid": "MTK1222:3TEM0PF1Q64YFOM6LANZB24OWUZ0DB", "current_trial": 243, "dateTime": 1513464086864, "trialdata": {"rt": -1, "stimulus": "<p id=\"stim\">9</p>", "key_press": -1, "trial_type": "single-stim", "trial_index": 243, "time_elapsed": 2228379, "internal_node_id": "0.0-179.0-1.0"}}, {"uniqueid": "MTK1222:3TEM0PF1Q64YFOM6LANZB24OWUZ0DB", "current_trial": 244, "dateTime": 1513464087865, "trialdata": {"rt": -1, "stimulus": "<p id=\"stim\">8</p>", "key_press": -1, "trial_type": "single-stim", "trial_index": 244, "time_elapsed": 2229380, "internal_node_id": "0.0-179.0-2.0"}}, {"uniqueid": "MTK1222:3TEM0PF1Q64YFOM6LANZB24OWUZ0DB", "current_trial": 245, "dateTime": 1513464088867, "trialdata": {"rt": -1, "stimulus": "<p id=\"stim\">7</p>", "key_press": -1, "trial_type": "single-stim", "trial_index": 245, "time_elapsed": 2230381, "internal_node_id": "0.0-179.0-3.0"}}, {"uniqueid": "MTK1222:3TEM0PF1Q64YFOM6LANZB24OWUZ0DB", "current_trial": 246, "dateTime": 1513464089867, "trialdata": {"rt": -1, "stimulus": "<p id=\"stim\">6</p>", "key_press": -1, "trial_type": "single-stim", "trial_index": 246, "time_elapsed": 2231382, "internal_node_id": "0.0-179.0-4.0"}}, {"uniqueid": "MTK1222:3TEM0PF1Q64YFOM6LANZB24OWUZ0DB", "current_trial": 247, "dateTime": 1513464090869, "trialdata": {"rt": -1, "stimulus": "<p id=\"stim\">5</p>", "key_press": -1, "trial_type": "single-stim", "trial_index": 247, "time_elapsed": 2232383, "internal_node_id": "0.0-179.0-5.0"}}, {"uniqueid": "MTK1222:3TEM0PF1Q64YFOM6LANZB24OWUZ0DB", "current_trial": 248, "dateTime": 1513464091869, "trialdata": {"rt": -1, "stimulus": "<p id=\"stim\">4</p>", "key_press": -1, "trial_type": "single-stim", "trial_index": 248, "time_elapsed": 2233384, "internal_node_id": "0.0-179.0-6.0"}}, {"uniqueid": "MTK1222:3TEM0PF1Q64YFOM6LANZB24OWUZ0DB", "current_trial": 249, "dateTime": 1513464092870, "trialdata": {"rt": -1, "stimulus": "<p id=\"stim\">3</p>", "key_press": -1, "trial_type": "single-stim", "trial_index": 249, "time_elapsed": 2234385, "internal_node_id": "0.0-179.0-7.0"}}, {"uniqueid": "MTK1222:3TEM0PF1Q64YFOM6LANZB24OWUZ0DB", "current_trial": 250, "dateTime": 1513464093871, "trialdata": {"rt": -1, "stimulus": "<p id=\"stim\">2</p>", "key_press": -1, "trial_type": "single-stim", "trial_index": 250, "time_elapsed": 2235386, "internal_node_id": "0.0-179.0-8.0"}}, {"uniqueid": "MTK1222:3TEM0PF1Q64YFOM6LANZB24OWUZ0DB", "current_trial": 251, "dateTime": 1513464094872, "trialdata": {"rt": -1, "stimulus": "<p id=\"stim\">1</p>", "key_press": -1, "trial_type": "single-stim", "trial_index": 251, "time_elapsed": 2236387, "internal_node_id": "0.0-179.0-9.0"}}, {"uniqueid": "MTK1222:3TEM0PF1Q64YFOM6LANZB24OWUZ0DB", "current_trial": 252, "dateTime": 1513464096373, "trialdata": {"rt": -1, "stimulus": "<p id=\"stim\">+</p>", "key_press": -1, "type": "FIXATION", "trial_type": "single-stim", "trial_index": 252, "time_elapsed": 2237888, "internal_node_id": "0.0-180.0-0.0"}}, {"uniqueid": "MTK1222:3TEM0PF1Q64YFOM6LANZB24OWUZ0DB", "current_trial": 253, "dateTime": 1513464097174, "trialdata": {"rt": -1, "stimulus": "<p id=\"stim\">HORNET</p>", "key_press": -1, "type": "PRES_VIS", "word": "hornet", "wordID": 717, "conditions": [12, 800, "v", 24000], "trial": 7, "serialpos": 0, "trial_type": "single-stim", "trial_index": 253, "time_elapsed": 2238689, "internal_node_id": "0.0-181.0"}}, {"uniqueid": "MTK1222:3TEM0PF1Q64YFOM6LANZB24OWUZ0DB", "current_trial": 254, "dateTime": 1513464098872, "trialdata": {"rt": -1, "stimulus": "<p id=\"stim\">CRUTCH</p>", "key_press": -1, "type": "PRES_VIS", "word": "crutch", "wordID": 416, "conditions": [12, 800, "v", 24000], "trial": 7, "serialpos": 1, "trial_type": "single-stim", "trial_index": 254, "time_elapsed": 2240387, "internal_node_id": "0.0-182.0"}}, {"uniqueid": "MTK1222:3TEM0PF1Q64YFOM6LANZB24OWUZ0DB", "current_trial": 255, "dateTime": 1513464100836, "trialdata": {"rt": -1, "stimulus": "<p id=\"stim\">SHOVEL</p>", "key_press": -1, "type": "PRES_VIS", "word": "shovel", "wordID": 1294, "conditions": [12, 800, "v", 24000], "trial": 7, "serialpos": 2, "trial_type": "single-stim", "trial_index": 255, "time_elapsed": 2242351, "internal_node_id": "0.0-183.0"}}, {"uniqueid": "MTK1222:3TEM0PF1Q64YFOM6LANZB24OWUZ0DB", "current_trial": 256, "dateTime": 1513464102801, "trialdata": {"rt": -1, "stimulus": "<p id=\"stim\">SHIRT</p>", "key_press": -1, "type": "PRES_VIS", "word": "shirt", "wordID": 1286, "conditions": [12, 800, "v", 24000], "trial": 7, "serialpos": 3, "trial_type": "single-stim", "trial_index": 256, "time_elapsed": 2244316, "internal_node_id": "0.0-184.0"}}, {"uniqueid": "MTK1222:3TEM0PF1Q64YFOM6LANZB24OWUZ0DB", "current_trial": 257, "dateTime": 1513464104466, "trialdata": {"rt": -1, "stimulus": "<p id=\"stim\">SCARF</p>", "key_press": -1, "type": "PRES_VIS", "word": "scarf", "wordID": 1245, "conditions": [12, 800, "v", 24000], "trial": 7, "serialpos": 4, "trial_type": "single-stim", "trial_index": 257, "time_elapsed": 2245981, "internal_node_id": "0.0-185.0"}}, {"uniqueid": "MTK1222:3TEM0PF1Q64YFOM6LANZB24OWUZ0DB", "current_trial": 258, "dateTime": 1513464106110, "trialdata": {"rt": -1, "stimulus": "<p id=\"stim\">WASP</p>", "key_press": -1, "type": "PRES_VIS", "word": "wasp", "wordID": 1592, "conditions": [12, 800, "v", 24000], "trial": 7, "serialpos": 5, "trial_type": "single-stim", "trial_index": 258, "time_elapsed": 2247625, "internal_node_id": "0.0-186.0"}}, {"uniqueid": "MTK1222:3TEM0PF1Q64YFOM6LANZB24OWUZ0DB", "current_trial": 259, "dateTime": 1513464107973, "trialdata": {"rt": -1, "stimulus": "<p id=\"stim\">SLUG</p>", "key_press": -1, "type": "PRES_VIS", "word": "slug", "wordID": 1328, "conditions": [12, 800, "v", 24000], "trial": 7, "serialpos": 6, "trial_type": "single-stim", "trial_index": 259, "time_elapsed": 2249488, "internal_node_id": "0.0-187.0"}}, {"uniqueid": "MTK1222:3TEM0PF1Q64YFOM6LANZB24OWUZ0DB", "current_trial": 260, "dateTime": 1513464109596, "trialdata": {"rt": -1, "stimulus": "<p id=\"stim\">EAGLE</p>", "key_press": -1, "type": "PRES_VIS", "word": "eagle", "wordID": 511, "conditions": [12, 800, "v", 24000], "trial": 7, "serialpos": 7, "trial_type": "single-stim", "trial_index": 260, "time_elapsed": 2251111, "internal_node_id": "0.0-188.0"}}, {"uniqueid": "MTK1222:3TEM0PF1Q64YFOM6LANZB24OWUZ0DB", "current_trial": 261, "dateTime": 1513464111347, "trialdata": {"rt": -1, "stimulus": "<p id=\"stim\">LAVA</p>", "key_press": -1, "type": "PRES_VIS", "word": "lava", "wordID": 803, "conditions": [12, 800, "v", 24000], "trial": 7, "serialpos": 8, "trial_type": "single-stim", "trial_index": 261, "time_elapsed": 2252862, "internal_node_id": "0.0-189.0"}}, {"uniqueid": "MTK1222:3TEM0PF1Q64YFOM6LANZB24OWUZ0DB", "current_trial": 262, "dateTime": 1513464113315, "trialdata": {"rt": -1, "stimulus": "<p id=\"stim\">SWAMP</p>", "key_press": -1, "type": "PRES_VIS", "word": "swamp", "wordID": 1415, "conditions": [12, 800, "v", 24000], "trial": 7, "serialpos": 9, "trial_type": "single-stim", "trial_index": 262, "time_elapsed": 2254830, "internal_node_id": "0.0-190.0"}}, {"uniqueid": "MTK1222:3TEM0PF1Q64YFOM6LANZB24OWUZ0DB", "current_trial": 263, "dateTime": 1513464115002, "trialdata": {"rt": -1, "stimulus": "<p id=\"stim\">HARP</p>", "key_press": -1, "type": "PRES_VIS", "word": "harp", "wordID": 688, "conditions": [12, 800, "v", 24000], "trial": 7, "serialpos": 10, "trial_type": "single-stim", "trial_index": 263, "time_elapsed": 2256517, "internal_node_id": "0.0-191.0"}}, {"uniqueid": "MTK1222:3TEM0PF1Q64YFOM6LANZB24OWUZ0DB", "current_trial": 264, "dateTime": 1513464116699, "trialdata": {"rt": -1, "stimulus": "<p id=\"stim\">HUSBAND</p>", "key_press": -1, "type": "PRES_VIS", "word": "husband", "wordID": 727, "conditions": [12, 800, "v", 24000], "trial": 7, "serialpos": 11, "trial_type": "single-stim", "trial_index": 264, "time_elapsed": 2258214, "internal_node_id": "0.0-192.0"}}, {"uniqueid": "MTK1222:3TEM0PF1Q64YFOM6LANZB24OWUZ0DB", "current_trial": 265, "dateTime": 1513464119033, "trialdata": {"rt": -1, "stimulus": "", "key_press": -1, "type": "PRE_RECALL_DELAY", "trial_type": "single-stim", "trial_index": 265, "time_elapsed": 2260548, "internal_node_id": "0.0-193.0-0.0"}}, {"uniqueid": "MTK1222:3TEM0PF1Q64YFOM6LANZB24OWUZ0DB", "current_trial": 266, "dateTime": 1513464119533, "trialdata": {"rt": -1000, "stimulus": "/static/audio/400Hz.wav", "key_press": -1, "type": "PRE_RECALL_ALERT", "trial_type": "single-audio", "trial_index": 266, "time_elapsed": 2261048, "internal_node_id": "0.0-194.0"}}, {"uniqueid": "MTK1222:3TEM0PF1Q64YFOM6LANZB24OWUZ0DB", "current_trial": 267, "dateTime": 1513464179538, "trialdata": {"rt": [1628, 3082, 4475, 6484, 8397, 14980, 20340, 31140], "recwords": ["harp", "husband", "lava", "hornet", "wasp", "husband", "scorch", "eagle"], "type": "FREE_RECALL", "conditions": [12, 800, "v", 24000], "trial": 7, "trial_type": "free-recall", "trial_index": 267, "time_elapsed": 2321050, "internal_node_id": "0.0-195.0-0.0"}}, {"uniqueid": "MTK1222:3TEM0PF1Q64YFOM6LANZB24OWUZ0DB", "current_trial": 268, "dateTime": 1513464190667, "trialdata": {"rt": 9127, "key_press": 32, "type": "INSTRUCTIONS", "trial_type": "text", "trial_index": 268, "time_elapsed": 2332182, "internal_node_id": "0.0-196.0"}}, {"uniqueid": "MTK1222:3TEM0PF1Q64YFOM6LANZB24OWUZ0DB", "current_trial": 269, "dateTime": 1513464216668, "trialdata": {"rt": [6062, 10534, 15590, 17855, 20367, 23838], "responses": ["26", "15", "17", "15", "18", "14"], "num1": [9, 2, 6, 6, 8, 2, 2], "num2": [9, 4, 8, 4, 5, 9, 9], "num3": [8, 9, 3, 5, 5, 3, 6], "type": "DISTRACTOR", "conditions": [24, 800, "v", 24000], "trial": 8, "trial_type": "math-distractor", "trial_index": 269, "time_elapsed": 2358183, "internal_node_id": "0.0-197.0"}}, {"uniqueid": "MTK1222:3TEM0PF1Q64YFOM6LANZB24OWUZ0DB", "current_trial": 270, "dateTime": 1513464219669, "trialdata": {"rt": -1, "stimulus": "<p id=\"stim\">10</p>", "key_press": -1, "trial_type": "single-stim", "trial_index": 270, "time_elapsed": 2361184, "internal_node_id": "0.0-198.0-0.0"}}, {"uniqueid": "MTK1222:3TEM0PF1Q64YFOM6LANZB24OWUZ0DB", "current_trial": 271, "dateTime": 1513464220669, "trialdata": {"rt": -1, "stimulus": "<p id=\"stim\">9</p>", "key_press": -1, "trial_type": "single-stim", "trial_index": 271, "time_elapsed": 2362184, "internal_node_id": "0.0-198.0-1.0"}}, {"uniqueid": "MTK1222:3TEM0PF1Q64YFOM6LANZB24OWUZ0DB", "current_trial": 272, "dateTime": 1513464221670, "trialdata": {"rt": -1, "stimulus": "<p id=\"stim\">8</p>", "key_press": -1, "trial_type": "single-stim", "trial_index": 272