{"condition": 0, "counterbalance": 2726, "assignmentId": "340UGXU9DZ80PRY8A21D6VY2CGEUVU", "workerId": "MTK1083", "hitId": "3EPG8DX9LKX4C8D3XNF437LKB1DP54", "currenttrial": 628, "bonus": 0, "data": [{"uniqueid": "MTK1083:340UGXU9DZ80PRY8A21D6VY2CGEUVU", "current_trial": 0, "dateTime": 1513098292522, "trialdata": {"rt": 15467, "key_press": 32, "type": "INSTRUCTIONS", "trial_type": "text", "trial_index": 0, "time_elapsed": 15471, "internal_node_id": "0.0-0.0"}}, {"uniqueid": "MTK1083:340UGXU9DZ80PRY8A21D6VY2CGEUVU", "current_trial": 1, "dateTime": 1513098312897, "trialdata": {"rt": 20372, "key_press": 32, "type": "INSTRUCTIONS", "trial_type": "text", "trial_index": 1, "time_elapsed": 35848, "internal_node_id": "0.0-1.0"}}, {"uniqueid": "MTK1083:340UGXU9DZ80PRY8A21D6VY2CGEUVU", "current_trial": 2, "dateTime": 1513098321047, "trialdata": {"rt": [8127], "responses": ["ocean"], "type": "AUDIO_TEST", "trial_type": "audio-test", "trial_index": 2, "time_elapsed": 43998, "internal_node_id": "0.0-2.0"}}, {"uniqueid": "MTK1083:340UGXU9DZ80PRY8A21D6VY2CGEUVU", "current_trial": 3, "dateTime": 1513098328506, "trialdata": {"rt": [7449], "responses": ["crystal"], "type": "AUDIO_TEST", "trial_type": "audio-test", "trial_index": 3, "time_elapsed": 51457, "internal_node_id": "0.0-3.0"}}, {"uniqueid": "MTK1083:340UGXU9DZ80PRY8A21D6VY2CGEUVU", "current_trial": 4, "dateTime": 1513098338790, "trialdata": {"rt": [10274], "responses": ["spice"], "type": "AUDIO_TEST", "trial_type": "audio-test", "trial_index": 4, "time_elapsed": 61741, "internal_node_id": "0.0-4.0"}}, {"uniqueid": "MTK1083:340UGXU9DZ80PRY8A21D6VY2CGEUVU", "current_trial": 5, "dateTime": 1513098365048, "trialdata": {"rt": 25504, "responses": "{\"Q0\":\"5 am\",\"Q1\":\"9 am\",\"Q2\":\"8\"}", "type": "SLEEP_SURVEY", "trial_type": "survey-text", "trial_index": 5, "time_elapsed": 87999, "internal_node_id": "0.0-5.0"}}, {"uniqueid": "MTK1083:340UGXU9DZ80PRY8A21D6VY2CGEUVU", "current_trial": 6, "dateTime": 1513098411499, "trialdata": {"rt": 45449, "key_press": 32, "type": "INSTRUCTIONS", "trial_type": "text", "trial_index": 6, "time_elapsed": 134450, "internal_node_id": "0.0-6.0"}}, {"uniqueid": "MTK1083:340UGXU9DZ80PRY8A21D6VY2CGEUVU", "current_trial": 7, "dateTime": 1513098430769, "trialdata": {"rt": 18768, "key_press": 32, "type": "INSTRUCTIONS", "trial_type": "text", "trial_index": 7, "time_elapsed": 153720, "internal_node_id": "0.0-7.0"}}, {"uniqueid": "MTK1083:340UGXU9DZ80PRY8A21D6VY2CGEUVU", "current_trial": 8, "dateTime": 1513098448787, "trialdata": {"rt": 17515, "key_press": 32, "type": "INSTRUCTIONS", "trial_type": "text", "trial_index": 8, "time_elapsed": 171737, "internal_node_id": "0.0-8.0"}}, {"uniqueid": "MTK1083:340UGXU9DZ80PRY8A21D6VY2CGEUVU", "current_trial": 9, "dateTime": 1513098467798, "trialdata": {"rt": [3308, 5451, 8923, 11643, 13217, 17391], "responses": ["13", "10", "21", "15", "5", "17"], "num1": [8, 1, 5, 2, 3, 5, 3], "num2": [1, 5, 9, 7, 1, 9, 4], "num3": [4, 4, 7, 6, 1, 3, 9], "type": "DISTRACTOR", "conditions": [18, 1200, "a", 18000], "trial": 0, "trial_type": "math-distractor", "trial_index": 9, "time_elapsed": 190749, "internal_node_id": "0.0-9.0"}}, {"uniqueid": "MTK1083:340UGXU9DZ80PRY8A21D6VY2CGEUVU", "current_trial": 10, "dateTime": 1513098470802, "trialdata": {"rt": -1, "stimulus": "<p id=\"stim\">10</p>", "key_press": -1, "trial_type": "single-stim", "trial_index": 10, "time_elapsed": 193753, "internal_node_id": "0.0-10.0-0.0"}}, {"uniqueid": "MTK1083:340UGXU9DZ80PRY8A21D6VY2CGEUVU", "current_trial": 11, "dateTime": 1513098471805, "trialdata": {"rt": -1, "stimulus": "<p id=\"stim\">9</p>", "key_press": -1, "trial_type": "single-stim", "trial_index": 11, "time_elapsed": 194756, "internal_node_id": "0.0-10.0-1.0"}}, {"uniqueid": "MTK1083:340UGXU9DZ80PRY8A21D6VY2CGEUVU", "current_trial": 12, "dateTime": 1513098472807, "trialdata": {"rt": -1, "stimulus": "<p id=\"stim\">8</p>", "key_press": -1, "trial_type": "single-stim", "trial_index": 12, "time_elapsed": 195757, "internal_node_id": "0.0-10.0-2.0"}}, {"uniqueid": "MTK1083:340UGXU9DZ80PRY8A21D6VY2CGEUVU", "current_trial": 13, "dateTime": 1513098473809, "trialdata": {"rt": -1, "stimulus": "<p id=\"stim\">7</p>", "key_press": -1, "trial_type": "single-stim", "trial_index": 13, "time_elapsed": 196759, "internal_node_id": "0.0-10.0-3.0"}}, {"uniqueid": "MTK1083:340UGXU9DZ80PRY8A21D6VY2CGEUVU", "current_trial": 14, "dateTime": 1513098474811, "trialdata": {"rt": -1, "stimulus": "<p id=\"stim\">6</p>", "key_press": -1, "trial_type": "single-stim", "trial_index": 14, "time_elapsed": 197762, "internal_node_id": "0.0-10.0-4.0"}}, {"uniqueid": "MTK1083:340UGXU9DZ80PRY8A21D6VY2CGEUVU", "current_trial": 15, "dateTime": 1513098475813, "trialdata": {"rt": -1, "stimulus": "<p id=\"stim\">5</p>", "key_press": -1, "trial_type": "single-stim", "trial_index": 15, "time_elapsed": 198764, "internal_node_id": "0.0-10.0-5.0"}}, {"uniqueid": "MTK1083:340UGXU9DZ80PRY8A21D6VY2CGEUVU", "current_trial": 16, "dateTime": 1513098476815, "trialdata": {"rt": -1, "stimulus": "<p id=\"stim\">4</p>", "key_press": -1, "trial_type": "single-stim", "trial_index": 16, "time_elapsed": 199766, "internal_node_id": "0.0-10.0-6.0"}}, {"uniqueid": "MTK1083:340UGXU9DZ80PRY8A21D6VY2CGEUVU", "current_trial": 17, "dateTime": 1513098477817, "trialdata": {"rt": -1, "stimulus": "<p id=\"stim\">3</p>", "key_press": -1, "trial_type": "single-stim", "trial_index": 17, "time_elapsed": 200768, "internal_node_id": "0.0-10.0-7.0"}}, {"uniqueid": "MTK1083:340UGXU9DZ80PRY8A21D6VY2CGEUVU", "current_trial": 18, "dateTime": 1513098478820, "trialdata": {"rt": -1, "stimulus": "<p id=\"stim\">2</p>", "key_press": -1, "trial_type": "single-stim", "trial_index": 18, "time_elapsed": 201771, "internal_node_id": "0.0-10.0-8.0"}}, {"uniqueid": "MTK1083:340UGXU9DZ80PRY8A21D6VY2CGEUVU", "current_trial": 19, "dateTime": 1513098479822, "trialdata": {"rt": -1, "stimulus": "<p id=\"stim\">1</p>", "key_press": -1, "trial_type": "single-stim", "trial_index": 19, "time_elapsed": 202773, "internal_node_id": "0.0-10.0-9.0"}}, {"uniqueid": "MTK1083:340UGXU9DZ80PRY8A21D6VY2CGEUVU", "current_trial": 20, "dateTime": 1513098481324, "trialdata": {"rt": -1, "stimulus": "<p id=\"stim\">+</p>", "key_press": -1, "type": "FIXATION", "trial_type": "single-stim", "trial_index": 20, "time_elapsed": 204275, "internal_node_id": "0.0-11.0-0.0"}}, {"uniqueid": "MTK1083:340UGXU9DZ80PRY8A21D6VY2CGEUVU", "current_trial": 21, "dateTime": 1513098483675, "trialdata": {"rt": -1000, "stimulus": "/static/audio/wordpool/CATTLE.wav", "key_press": -1, "type": "PRES_AUD", "word": "cattle", "wordID": 260, "conditions": [18, 1200, "a", 18000], "trial": 0, "serialpos": 0, "trial_type": "single-audio", "trial_index": 21, "time_elapsed": 206626, "internal_node_id": "0.0-12.0"}}, {"uniqueid": "MTK1083:340UGXU9DZ80PRY8A21D6VY2CGEUVU", "current_trial": 22, "dateTime": 1513098485932, "trialdata": {"rt": -1000, "stimulus": "/static/audio/wordpool/PIZZA.wav", "key_press": -1, "type": "PRES_AUD", "word": "pizza", "wordID": 1078, "conditions": [18, 1200, "a", 18000], "trial": 0, "serialpos": 1, "trial_type": "single-audio", "trial_index": 22, "time_elapsed": 208883, "internal_node_id": "0.0-13.0"}}, {"uniqueid": "MTK1083:340UGXU9DZ80PRY8A21D6VY2CGEUVU", "current_trial": 23, "dateTime": 1513098487941, "trialdata": {"rt": -1000, "stimulus": "/static/audio/wordpool/RABBIT.wav", "key_press": -1, "type": "PRES_AUD", "word": "rabbit", "wordID": 1151, "conditions": [18, 1200, "a", 18000], "trial": 0, "serialpos": 2, "trial_type": "single-audio", "trial_index": 23, "time_elapsed": 210891, "internal_node_id": "0.0-14.0"}}, {"uniqueid": "MTK1083:340UGXU9DZ80PRY8A21D6VY2CGEUVU", "current_trial": 24, "dateTime": 1513098490212, "trialdata": {"rt": -1000, "stimulus": "/static/audio/wordpool/ROCKET.wav", "key_press": -1, "type": "PRES_AUD", "word": "rocket", "wordID": 1201, "conditions": [18, 1200, "a", 18000], "trial": 0, "serialpos": 3, "trial_type": "single-audio", "trial_index": 24, "time_elapsed": 213163, "internal_node_id": "0.0-15.0"}}, {"uniqueid": "MTK1083:340UGXU9DZ80PRY8A21D6VY2CGEUVU", "current_trial": 25, "dateTime": 1513098492519, "trialdata": {"rt": -1000, "stimulus": "/static/audio/wordpool/HEADBAND.wav", "key_press": -1, "type": "PRES_AUD", "word": "headband", "wordID": 695, "conditions": [18, 1200, "a", 18000], "trial": 0, "serialpos": 4, "trial_type": "single-audio", "trial_index": 25, "time_elapsed": 215470, "internal_node_id": "0.0-16.0"}}, {"uniqueid": "MTK1083:340UGXU9DZ80PRY8A21D6VY2CGEUVU", "current_trial": 26, "dateTime": 1513098494691, "trialdata": {"rt": -1000, "stimulus": "/static/audio/wordpool/RECEIPT.wav", "key_press": -1, "type": "PRES_AUD", "word": "receipt", "wordID": 1172, "conditions": [18, 1200, "a", 18000], "trial": 0, "serialpos": 5, "trial_type": "single-audio", "trial_index": 26, "time_elapsed": 217642, "internal_node_id": "0.0-17.0"}}, {"uniqueid": "MTK1083:340UGXU9DZ80PRY8A21D6VY2CGEUVU", "current_trial": 27, "dateTime": 1513098496908, "trialdata": {"rt": -1000, "stimulus": "/static/audio/wordpool/RAFT.wav", "key_press": -1, "type": "PRES_AUD", "word": "raft", "wordID": 1158, "conditions": [18, 1200, "a", 18000], "trial": 0, "serialpos": 6, "trial_type": "single-audio", "trial_index": 27, "time_elapsed": 219859, "internal_node_id": "0.0-18.0"}}, {"uniqueid": "MTK1083:340UGXU9DZ80PRY8A21D6VY2CGEUVU", "current_trial": 28, "dateTime": 1513098499276, "trialdata": {"rt": -1000, "stimulus": "/static/audio/wordpool/DENIM.wav", "key_press": -1, "type": "PRES_AUD", "word": "denim", "wordID": 445, "conditions": [18, 1200, "a", 18000], "trial": 0, "serialpos": 7, "trial_type": "single-audio", "trial_index": 28, "time_elapsed": 222227, "internal_node_id": "0.0-19.0"}}, {"uniqueid": "MTK1083:340UGXU9DZ80PRY8A21D6VY2CGEUVU", "current_trial": 29, "dateTime": 1513098501573, "trialdata": {"rt": -1000, "stimulus": "/static/audio/wordpool/BUCKET.wav", "key_press": -1, "type": "PRES_AUD", "word": "bucket", "wordID": 183, "conditions": [18, 1200, "a", 18000], "trial": 0, "serialpos": 8, "trial_type": "single-audio", "trial_index": 29, "time_elapsed": 224524, "internal_node_id": "0.0-20.0"}}, {"uniqueid": "MTK1083:340UGXU9DZ80PRY8A21D6VY2CGEUVU", "current_trial": 30, "dateTime": 1513098503653, "trialdata": {"rt": -1000, "stimulus": "/static/audio/wordpool/SUITCASE.wav", "key_press": -1, "type": "PRES_AUD", "word": "suitcase", "wordID": 1402, "conditions": [18, 1200, "a", 18000], "trial": 0, "serialpos": 9, "trial_type": "single-audio", "trial_index": 30, "time_elapsed": 226604, "internal_node_id": "0.0-21.0"}}, {"uniqueid": "MTK1083:340UGXU9DZ80PRY8A21D6VY2CGEUVU", "current_trial": 31, "dateTime": 1513098505938, "trialdata": {"rt": -1000, "stimulus": "/static/audio/wordpool/PUPPY.wav", "key_press": -1, "type": "PRES_AUD", "word": "puppy", "wordID": 1143, "conditions": [18, 1200, "a", 18000], "trial": 0, "serialpos": 10, "trial_type": "single-audio", "trial_index": 31, "time_elapsed": 228889, "internal_node_id": "0.0-22.0"}}, {"uniqueid": "MTK1083:340UGXU9DZ80PRY8A21D6VY2CGEUVU", "current_trial": 32, "dateTime": 1513098508008, "trialdata": {"rt": -1000, "stimulus": "/static/audio/wordpool/SEAFOOD.wav", "key_press": -1, "type": "PRES_AUD", "word": "seafood", "wordID": 1259, "conditions": [18, 1200, "a", 18000], "trial": 0, "serialpos": 11, "trial_type": "single-audio", "trial_index": 32, "time_elapsed": 230959, "internal_node_id": "0.0-23.0"}}, {"uniqueid": "MTK1083:340UGXU9DZ80PRY8A21D6VY2CGEUVU", "current_trial": 33, "dateTime": 1513098510023, "trialdata": {"rt": -1000, "stimulus": "/static/audio/wordpool/LAKE.wav", "key_press": -1, "type": "PRES_AUD", "word": "lake", "wordID": 795, "conditions": [18, 1200, "a", 18000], "trial": 0, "serialpos": 12, "trial_type": "single-audio", "trial_index": 33, "time_elapsed": 232973, "internal_node_id": "0.0-24.0"}}, {"uniqueid": "MTK1083:340UGXU9DZ80PRY8A21D6VY2CGEUVU", "current_trial": 34, "dateTime": 1513098512054, "trialdata": {"rt": -1000, "stimulus": "/static/audio/wordpool/BLACKBOARD.wav", "key_press": -1, "type": "PRES_AUD", "word": "blackboard", "wordID": 132, "conditions": [18, 1200, "a", 18000], "trial": 0, "serialpos": 13, "trial_type": "single-audio", "trial_index": 34, "time_elapsed": 235004, "internal_node_id": "0.0-25.0"}}, {"uniqueid": "MTK1083:340UGXU9DZ80PRY8A21D6VY2CGEUVU", "current_trial": 35, "dateTime": 1513098514246, "trialdata": {"rt": -1000, "stimulus": "/static/audio/wordpool/OUTDOORS.wav", "key_press": -1, "type": "PRES_AUD", "word": "outdoors", "wordID": 986, "conditions": [18, 1200, "a", 18000], "trial": 0, "serialpos": 14, "trial_type": "single-audio", "trial_index": 35, "time_elapsed": 237196, "internal_node_id": "0.0-26.0"}}, {"uniqueid": "MTK1083:340UGXU9DZ80PRY8A21D6VY2CGEUVU", "current_trial": 36, "dateTime": 1513098516454, "trialdata": {"rt": -1000, "stimulus": "/static/audio/wordpool/TROMBONE.wav", "key_press": -1, "type": "PRES_AUD", "word": "trombone", "wordID": 1507, "conditions": [18, 1200, "a", 18000], "trial": 0, "serialpos": 15, "trial_type": "single-audio", "trial_index": 36, "time_elapsed": 239405, "internal_node_id": "0.0-27.0"}}, {"uniqueid": "MTK1083:340UGXU9DZ80PRY8A21D6VY2CGEUVU", "current_trial": 37, "dateTime": 1513098518756, "trialdata": {"rt": -1000, "stimulus": "/static/audio/wordpool/HAMPER.wav", "key_press": -1, "type": "PRES_AUD", "word": "hamper", "wordID": 681, "conditions": [18, 1200, "a", 18000], "trial": 0, "serialpos": 16, "trial_type": "single-audio", "trial_index": 37, "time_elapsed": 241707, "internal_node_id": "0.0-28.0"}}, {"uniqueid": "MTK1083:340UGXU9DZ80PRY8A21D6VY2CGEUVU", "current_trial": 38, "dateTime": 1513098520783, "trialdata": {"rt": -1000, "stimulus": "/static/audio/wordpool/ITEM.wav", "key_press": -1, "type": "PRES_AUD", "word": "item", "wordID": 745, "conditions": [18, 1200, "a", 18000], "trial": 0, "serialpos": 17, "trial_type": "single-audio", "trial_index": 38, "time_elapsed": 243734, "internal_node_id": "0.0-29.0"}}, {"uniqueid": "MTK1083:340UGXU9DZ80PRY8A21D6VY2CGEUVU", "current_trial": 39, "dateTime": 1513098522063, "trialdata": {"rt": -1, "stimulus": "", "key_press": -1, "type": "PRE_RECALL_DELAY", "trial_type": "single-stim", "trial_index": 39, "time_elapsed": 245014, "internal_node_id": "0.0-30.0-0.0"}}, {"uniqueid": "MTK1083:340UGXU9DZ80PRY8A21D6VY2CGEUVU", "current_trial": 40, "dateTime": 1513098522565, "trialdata": {"rt": -1000, "stimulus": "/static/audio/400Hz.wav", "key_press": -1, "type": "PRE_RECALL_ALERT", "trial_type": "single-audio", "trial_index": 40, "time_elapsed": 245516, "internal_node_id": "0.0-31.0"}}, {"uniqueid": "MTK1083:340UGXU9DZ80PRY8A21D6VY2CGEUVU", "current_trial": 41, "dateTime": 1513098582576, "trialdata": {"rt": [2892, 6499, 7981, 9484, 11921, 14776], "recwords": ["hamper", "trombone", "item", "receipt", "rabbit", "headband"], "type": "FREE_RECALL", "conditions": [18, 1200, "a", 18000], "trial": 0, "trial_type": "free-recall", "trial_index": 41, "time_elapsed": 305522, "internal_node_id": "0.0-32.0-0.0"}}, {"uniqueid": "MTK1083:340UGXU9DZ80PRY8A21D6VY2CGEUVU", "current_trial": 42, "dateTime": 1513098604852, "trialdata": {"rt": 20274, "key_press": 32, "type": "INSTRUCTIONS", "trial_type": "text", "trial_index": 42, "time_elapsed": 327803, "internal_node_id": "0.0-33.0"}}, {"uniqueid": "MTK1083:340UGXU9DZ80PRY8A21D6VY2CGEUVU", "current_trial": 43, "dateTime": 1513098624858, "trialdata": {"rt": [2679, 5158, 8580, 11404, 13507], "responses": ["14", "17", "15", "14", "18"], "num1": [6, 8, 5, 4, 7, 7], "num2": [1, 1, 4, 7, 7, 6], "num3": [7, 8, 6, 3, 4, 5], "type": "DISTRACTOR", "conditions": [18, 1200, "v", 18000], "trial": 1, "trial_type": "math-distractor", "trial_index": 43, "time_elapsed": 347809, "internal_node_id": "0.0-34.0"}}, {"uniqueid": "MTK1083:340UGXU9DZ80PRY8A21D6VY2CGEUVU", "current_trial": 44, "dateTime": 1513098627862, "trialdata": {"rt": -1, "stimulus": "<p id=\"stim\">10</p>", "key_press": -1, "trial_type": "single-stim", "trial_index": 44, "time_elapsed": 350811, "internal_node_id": "0.0-35.0-0.0"}}, {"uniqueid": "MTK1083:340UGXU9DZ80PRY8A21D6VY2CGEUVU", "current_trial": 45, "dateTime": 1513098628864, "trialdata": {"rt": -1, "stimulus": "<p id=\"stim\">9</p>", "key_press": -1, "trial_type": "single-stim", "trial_index": 45, "time_elapsed": 351815, "internal_node_id": "0.0-35.0-1.0"}}, {"uniqueid": "MTK1083:340UGXU9DZ80PRY8A21D6VY2CGEUVU", "current_trial": 46, "dateTime": 1513098629866, "trialdata": {"rt": -1, "stimulus": "<p id=\"stim\">8</p>", "key_press": -1, "trial_type": "single-stim", "trial_index": 46, "time_elapsed": 352817, "internal_node_id": "0.0-35.0-2.0"}}, {"uniqueid": "MTK1083:340UGXU9DZ80PRY8A21D6VY2CGEUVU", "current_trial": 47, "dateTime": 1513098630867, "trialdata": {"rt": -1, "stimulus": "<p id=\"stim\">7</p>", "key_press": -1, "trial_type": "single-stim", "trial_index": 47, "time_elapsed": 353818, "internal_node_id": "0.0-35.0-3.0"}}, {"uniqueid": "MTK1083:340UGXU9DZ80PRY8A21D6VY2CGEUVU", "current_trial": 48, "dateTime": 1513098631869, "trialdata": {"rt": -1, "stimulus": "<p id=\"stim\">6</p>", "key_press": -1, "trial_type": "single-stim", "trial_index": 48, "time_elapsed": 354820, "internal_node_id": "0.0-35.0-4.0"}}, {"uniqueid": "MTK1083:340UGXU9DZ80PRY8A21D6VY2CGEUVU", "current_trial": 49, "dateTime": 1513098632872, "trialdata": {"rt": -1, "stimulus": "<p id=\"stim\">5</p>", "key_press": -1, "trial_type": "single-stim", "trial_index": 49, "time_elapsed": 355822, "internal_node_id": "0.0-35.0-5.0"}}, {"uniqueid": "MTK1083:340UGXU9DZ80PRY8A21D6VY2CGEUVU", "current_trial": 50, "dateTime": 1513098633874, "trialdata": {"rt": -1, "stimulus": "<p id=\"stim\">4</p>", "key_press": -1, "trial_type": "single-stim", "trial_index": 50, "time_elapsed": 356824, "internal_node_id": "0.0-35.0-6.0"}}, {"uniqueid": "MTK1083:340UGXU9DZ80PRY8A21D6VY2CGEUVU", "current_trial": 51, "dateTime": 1513098634876, "trialdata": {"rt": -1, "stimulus": "<p id=\"stim\">3</p>", "key_press": -1, "trial_type": "single-stim", "trial_index": 51, "time_elapsed": 357826, "internal_node_id": "0.0-35.0-7.0"}}, {"uniqueid": "MTK1083:340UGXU9DZ80PRY8A21D6VY2CGEUVU", "current_trial": 52, "dateTime": 1513098635878, "trialdata": {"rt": -1, "stimulus": "<p id=\"stim\">2</p>", "key_press": -1, "trial_type": "single-stim", "trial_index": 52, "time_elapsed": 358829, "internal_node_id": "0.0-35.0-8.0"}}, {"uniqueid": "MTK1083:340UGXU9DZ80PRY8A21D6VY2CGEUVU", "current_trial": 53, "dateTime": 1513098636880, "trialdata": {"rt": -1, "stimulus": "<p id=\"stim\">1</p>", "key_press": -1, "trial_type": "single-stim", "trial_index": 53, "time_elapsed": 359831, "internal_node_id": "0.0-35.0-9.0"}}, {"uniqueid": "MTK1083:340UGXU9DZ80PRY8A21D6VY2CGEUVU", "current_trial": 54, "dateTime": 1513098638382, "trialdata": {"rt": -1, "stimulus": "<p id=\"stim\">+</p>", "key_press": -1, "type": "FIXATION", "trial_type": "single-stim", "trial_index": 54, "time_elapsed": 361333, "internal_node_id": "0.0-36.0-0.0"}}, {"uniqueid": "MTK1083:340UGXU9DZ80PRY8A21D6VY2CGEUVU", "current_trial": 55, "dateTime": 1513098639584, "trialdata": {"rt": -1, "stimulus": "<p id=\"stim\">JUGGLER</p>", "key_press": -1, "type": "PRES_VIS", "word": "juggler", "wordID": 762, "conditions": [18, 1200, "v", 18000], "trial": 1, "serialpos": 0, "trial_type": "single-stim", "trial_index": 55, "time_elapsed": 362535, "internal_node_id": "0.0-37.0"}}, {"uniqueid": "MTK1083:340UGXU9DZ80PRY8A21D6VY2CGEUVU", "current_trial": 56, "dateTime": 1513098641656, "trialdata": {"rt": -1, "stimulus": "<p id=\"stim\">CAPTIVE</p>", "key_press": -1, "type": "PRES_VIS", "word": "captive", "wordID": 239, "conditions": [18, 1200, "v", 18000], "trial": 1, "serialpos": 1, "trial_type": "single-stim", "trial_index": 56, "time_elapsed": 364607, "internal_node_id": "0.0-38.0"}}, {"uniqueid": "MTK1083:340UGXU9DZ80PRY8A21D6VY2CGEUVU", "current_trial": 57, "dateTime": 1513098644032, "trialdata": {"rt": -1, "stimulus": "<p id=\"stim\">MACHINE</p>", "key_press": -1, "type": "PRES_VIS", "word": "machine", "wordID": 851, "conditions": [18, 1200, "v", 18000], "trial": 1, "serialpos": 2, "trial_type": "single-stim", "trial_index": 57, "time_elapsed": 366982, "internal_node_id": "0.0-39.0"}}, {"uniqueid": "MTK1083:340UGXU9DZ80PRY8A21D6VY2CGEUVU", "current_trial": 58, "dateTime": 1513098646059, "trialdata": {"rt": -1, "stimulus": "<p id=\"stim\">TUNNEL</p>", "key_press": -1, "type": "PRES_VIS", "word": "tunnel", "wordID": 1518, "conditions": [18, 1200, "v", 18000], "trial": 1, "serialpos": 3, "trial_type": "single-stim", "trial_index": 58, "time_elapsed": 369009, "internal_node_id": "0.0-40.0"}}, {"uniqueid": "MTK1083:340UGXU9DZ80PRY8A21D6VY2CGEUVU", "current_trial": 59, "dateTime": 1513098648194, "trialdata": {"rt": -1, "stimulus": "<p id=\"stim\">FEMALE</p>", "key_press": -1, "type": "PRES_VIS", "word": "female", "wordID": 558, "conditions": [18, 1200, "v", 18000], "trial": 1, "serialpos": 4, "trial_type": "single-stim", "trial_index": 59, "time_elapsed": 371145, "internal_node_id": "0.0-41.0"}}, {"uniqueid": "MTK1083:340UGXU9DZ80PRY8A21D6VY2CGEUVU", "current_trial": 60, "dateTime": 1513098650326, "trialdata": {"rt": -1, "stimulus": "<p id=\"stim\">AGENT</p>", "key_press": -1, "type": "PRES_VIS", "word": "agent", "wordID": 9, "conditions": [18, 1200, "v", 18000], "trial": 1, "serialpos": 5, "trial_type": "single-stim", "trial_index": 60, "time_elapsed": 373277, "internal_node_id": "0.0-42.0"}}, {"uniqueid": "MTK1083:340UGXU9DZ80PRY8A21D6VY2CGEUVU", "current_trial": 61, "dateTime": 1513098652492, "trialdata": {"rt": -1, "stimulus": "<p id=\"stim\">QUEEN</p>", "key_press": -1, "type": "PRES_VIS", "word": "queen", "wordID": 1148, "conditions": [18, 1200, "v", 18000], "trial": 1, "serialpos": 6, "trial_type": "single-stim", "trial_index": 61, "time_elapsed": 375443, "internal_node_id": "0.0-43.0"}}, {"uniqueid": "MTK1083:340UGXU9DZ80PRY8A21D6VY2CGEUVU", "current_trial": 62, "dateTime": 1513098654888, "trialdata": {"rt": -1, "stimulus": "<p id=\"stim\">EUROPE</p>", "key_press": -1, "type": "PRES_VIS", "word": "europe", "wordID": 540, "conditions": [18, 1200, "v", 18000], "trial": 1, "serialpos": 7, "trial_type": "single-stim", "trial_index": 62, "time_elapsed": 377839, "internal_node_id": "0.0-44.0"}}, {"uniqueid": "MTK1083:340UGXU9DZ80PRY8A21D6VY2CGEUVU", "current_trial": 63, "dateTime": 1513098657208, "trialdata": {"rt": -1, "stimulus": "<p id=\"stim\">SPACE</p>", "key_press": -1, "type": "PRES_VIS", "word": "space", "wordID": 1344, "conditions": [18, 1200, "v", 18000], "trial": 1, "serialpos": 8, "trial_type": "single-stim", "trial_index": 63, "time_elapsed": 380159, "internal_node_id": "0.0-45.0"}}, {"uniqueid": "MTK1083:340UGXU9DZ80PRY8A21D6VY2CGEUVU", "current_trial": 64, "dateTime": 1513098659418, "trialdata": {"rt": -1, "stimulus": "<p id=\"stim\">PENGUIN</p>", "key_press": -1, "type": "PRES_VIS", "word": "penguin", "wordID": 1043, "conditions": [18, 1200, "v", 18000], "trial": 1, "serialpos": 9, "trial_type": "single-stim", "trial_index": 64, "time_elapsed": 382369, "internal_node_id": "0.0-46.0"}}, {"uniqueid": "MTK1083:340UGXU9DZ80PRY8A21D6VY2CGEUVU", "current_trial": 65, "dateTime": 1513098661615, "trialdata": {"rt": -1, "stimulus": "<p id=\"stim\">SPIDER</p>", "key_press": -1, "type": "PRES_VIS", "word": "spider", "wordID": 1350, "conditions": [18, 1200, "v", 18000], "trial": 1, "serialpos": 10, "trial_type": "single-stim", "trial_index": 65, "time_elapsed": 384566, "internal_node_id": "0.0-47.0"}}, {"uniqueid": "MTK1083:340UGXU9DZ80PRY8A21D6VY2CGEUVU", "current_trial": 66, "dateTime": 1513098663671, "trialdata": {"rt": -1, "stimulus": "<p id=\"stim\">PADDING</p>", "key_press": -1, "type": "PRES_VIS", "word": "padding", "wordID": 998, "conditions": [18, 1200, "v", 18000], "trial": 1, "serialpos": 11, "trial_type": "single-stim", "trial_index": 66, "time_elapsed": 386621, "internal_node_id": "0.0-48.0"}}, {"uniqueid": "MTK1083:340UGXU9DZ80PRY8A21D6VY2CGEUVU", "current_trial": 67, "dateTime": 1513098665980, "trialdata": {"rt": -1, "stimulus": "<p id=\"stim\">LUNCH</p>", "key_press": -1, "type": "PRES_VIS", "word": "lunch", "wordID": 848, "conditions": [18, 1200, "v", 18000], "trial": 1, "serialpos": 12, "trial_type": "single-stim", "trial_index": 67, "time_elapsed": 388930, "internal_node_id": "0.0-49.0"}}, {"uniqueid": "MTK1083:340UGXU9DZ80PRY8A21D6VY2CGEUVU", "current_trial": 68, "dateTime": 1513098668340, "trialdata": {"rt": -1, "stimulus": "<p id=\"stim\">ELBOW</p>", "key_press": -1, "type": "PRES_VIS", "word": "elbow", "wordID": 519, "conditions": [18, 1200, "v", 18000], "trial": 1, "serialpos": 13, "trial_type": "single-stim", "trial_index": 68, "time_elapsed": 391290, "internal_node_id": "0.0-50.0"}}, {"uniqueid": "MTK1083:340UGXU9DZ80PRY8A21D6VY2CGEUVU", "current_trial": 69, "dateTime": 1513098670625, "trialdata": {"rt": -1, "stimulus": "<p id=\"stim\">GUITAR</p>", "key_press": -1, "type": "PRES_VIS", "word": "guitar", "wordID": 669, "conditions": [18, 1200, "v", 18000], "trial": 1, "serialpos": 14, "trial_type": "single-stim", "trial_index": 69, "time_elapsed": 393576, "internal_node_id": "0.0-51.0"}}, {"uniqueid": "MTK1083:340UGXU9DZ80PRY8A21D6VY2CGEUVU", "current_trial": 70, "dateTime": 1513098672954, "trialdata": {"rt": -1, "stimulus": "<p id=\"stim\">GANGSTER</p>", "key_press": -1, "type": "PRES_VIS", "word": "gangster", "wordID": 619, "conditions": [18, 1200, "v", 18000], "trial": 1, "serialpos": 15, "trial_type": "single-stim", "trial_index": 70, "time_elapsed": 395905, "internal_node_id": "0.0-52.0"}}, {"uniqueid": "MTK1083:340UGXU9DZ80PRY8A21D6VY2CGEUVU", "current_trial": 71, "dateTime": 1513098675215, "trialdata": {"rt": -1, "stimulus": "<p id=\"stim\">PIANO</p>", "key_press": -1, "type": "PRES_VIS", "word": "piano", "wordID": 1056, "conditions": [18, 1200, "v", 18000], "trial": 1, "serialpos": 16, "trial_type": "single-stim", "trial_index": 71, "time_elapsed": 398166, "internal_node_id": "0.0-53.0"}}, {"uniqueid": "MTK1083:340UGXU9DZ80PRY8A21D6VY2CGEUVU", "current_trial": 72, "dateTime": 1513098677557, "trialdata": {"rt": -1, "stimulus": "<p id=\"stim\">LAVA</p>", "key_press": -1, "type": "PRES_VIS", "word": "lava", "wordID": 803, "conditions": [18, 1200, "v", 18000], "trial": 1, "serialpos": 17, "trial_type": "single-stim", "trial_index": 72, "time_elapsed": 400508, "internal_node_id": "0.0-54.0"}}, {"uniqueid": "MTK1083:340UGXU9DZ80PRY8A21D6VY2CGEUVU", "current_trial": 73, "dateTime": 1513098679795, "trialdata": {"rt": -1, "stimulus": "", "key_press": -1, "type": "PRE_RECALL_DELAY", "trial_type": "single-stim", "trial_index": 73, "time_elapsed": 402746, "internal_node_id": "0.0-55.0-0.0"}}, {"uniqueid": "MTK1083:340UGXU9DZ80PRY8A21D6VY2CGEUVU", "current_trial": 74, "dateTime": 1513098680297, "trialdata": {"rt": -1000, "stimulus": "/static/audio/400Hz.wav", "key_press": -1, "type": "PRE_RECALL_ALERT", "trial_type": "single-audio", "trial_index": 74, "time_elapsed": 403248, "internal_node_id": "0.0-56.0"}}, {"uniqueid": "MTK1083:340UGXU9DZ80PRY8A21D6VY2CGEUVU", "current_trial": 75, "dateTime": 1513098740302, "trialdata": {"rt": [16736, 24445, 26241, 27966, 31112, 33020, 36978, 40306, 56522], "recwords": ["lava", "penguin", "female", "queen", "europe", "space", "spider", "penguin", "padding"], "type": "FREE_RECALL", "conditions": [18, 1200, "v", 18000], "trial": 1, "trial_type": "free-recall", "trial_index": 75, "time_elapsed": 463248, "internal_node_id": "0.0-57.0-0.0"}}, {"uniqueid": "MTK1083:340UGXU9DZ80PRY8A21D6VY2CGEUVU", "current_trial": 76, "dateTime": 1513098744498, "trialdata": {"rt": 2184, "key_press": 32, "type": "INSTRUCTIONS", "trial_type": "text", "trial_index": 76, "time_elapsed": 467438, "internal_node_id": "0.0-58.0"}}, {"uniqueid": "MTK1083:340UGXU9DZ80PRY8A21D6VY2CGEUVU", "current_trial": 77, "dateTime": 1513098769509, "trialdata": {"rt": [2254, 5551, 10394, 13389, 15073, 17165, 19353, 20853, 22570], "responses": ["10", "13", "18", "12", "12", "13", "15", "12", "13"], "num1": [1, 4, 3, 7, 1, 9, 6, 2, 3, 5], "num2": [3, 7, 9, 1, 6, 3, 6, 6, 6, 1], "num3": [6, 2, 6, 4, 5, 1, 3, 4, 4, 7], "type": "DISTRACTOR", "conditions": [24, 1600, "v", 24000], "trial": 2, "trial_type": "math-distractor", "trial_index": 77, "time_elapsed": 492460, "internal_node_id": "0.0-59.0"}}, {"uniqueid": "MTK1083:340UGXU9DZ80PRY8A21D6VY2CGEUVU", "current_trial": 78, "dateTime": 1513098772514, "trialdata": {"rt": -1, "stimulus": "<p id=\"stim\">10</p>", "key_press": -1, "trial_type": "single-stim", "trial_index": 78, "time_elapsed": 495462, "internal_node_id": "0.0-60.0-0.0"}}, {"uniqueid": "MTK1083:340UGXU9DZ80PRY8A21D6VY2CGEUVU", "current_trial": 79, "dateTime": 1513098773517, "trialdata": {"rt": -1, "stimulus": "<p id=\"stim\">9</p>", "key_press": -1, "trial_type": "single-stim", "trial_index": 79, "time_elapsed": 496467, "internal_node_id": "0.0-60.0-1.0"}}, {"uniqueid": "MTK1083:340UGXU9DZ80PRY8A21D6VY2CGEUVU", "current_trial": 80, "dateTime": 1513098774519, "trialdata": {"rt": -1, "stimulus": "<p id=\"stim\">8</p>", "key_press": -1, "trial_type": "single-stim", "trial_index": 80, "time_elapsed": 497470, "internal_node_id": "0.0-60.0-2.0"}}, {"uniqueid": "MTK1083:340UGXU9DZ80PRY8A21D6VY2CGEUVU", "current_trial": 81, "dateTime": 1513098775521, "trialdata": {"rt": -1, "stimulus": "<p id=\"stim\">7</p>", "key_press": -1, "trial_type": "single-stim", "trial_index": 81, "time_elapsed": 498472, "internal_node_id": "0.0-60.0-3.0"}}, {"uniqueid": "MTK1083:340UGXU9DZ80PRY8A21D6VY2CGEUVU", "current_trial": 82, "dateTime": 1513098776523, "trialdata": {"rt": -1, "stimulus": "<p id=\"stim\">6</p>", "key_press": -1, "trial_type": "single-stim", "trial_index": 82, "time_elapsed": 499474, "internal_node_id": "0.0-60.0-4.0"}}, {"uniqueid": "MTK1083:340UGXU9DZ80PRY8A21D6VY2CGEUVU", "current_trial": 83, "dateTime": 1513098777525, "trialdata": {"rt": -1, "stimulus": "<p id=\"stim\">5</p>", "key_press": -1, "trial_type": "single-stim", "trial_index": 83, "time_elapsed": 500476, "internal_node_id": "0.0-60.0-5.0"}}, {"uniqueid": "MTK1083:340UGXU9DZ80PRY8A21D6VY2CGEUVU", "current_trial": 84, "dateTime": 1513098778527, "trialdata": {"rt": -1, "stimulus": "<p id=\"stim\">4</p>", "key_press": -1, "trial_type": "single-stim", "trial_index": 84, "time_elapsed": 501478, "internal_node_id": "0.0-60.0-6.0"}}, {"uniqueid": "MTK1083:340UGXU9DZ80PRY8A21D6VY2CGEUVU", "current_trial": 85, "dateTime": 1513098779529, "trialdata": {"rt": -1, "stimulus": "<p id=\"stim\">3</p>", "key_press": -1, "trial_type": "single-stim", "trial_index": 85, "time_elapsed": 502480, "internal_node_id": "0.0-60.0-7.0"}}, {"uniqueid": "MTK1083:340UGXU9DZ80PRY8A21D6VY2CGEUVU", "current_trial": 86, "dateTime": 1513098780531, "trialdata": {"rt": -1, "stimulus": "<p id=\"stim\">2</p>", "key_press": -1, "trial_type": "single-stim", "trial_index": 86, "time_elapsed": 503482, "internal_node_id": "0.0-60.0-8.0"}}, {"uniqueid": "MTK1083:340UGXU9DZ80PRY8A21D6VY2CGEUVU", "current_trial": 87, "dateTime": 1513098781533, "trialdata": {"rt": -1, "stimulus": "<p id=\"stim\">1</p>", "key_press": -1, "trial_type": "single-stim", "trial_index": 87, "time_elapsed": 504484, "internal_node_id": "0.0-60.0-9.0"}}, {"uniqueid": "MTK1083:340UGXU9DZ80PRY8A21D6VY2CGEUVU", "current_trial": 88, "dateTime": 1513098783035, "trialdata": {"rt": -1, "stimulus": "<p id=\"stim\">+</p>", "key_press": -1, "type": "FIXATION", "trial_type": "single-stim", "trial_index": 88, "time_elapsed": 505986, "internal_node_id": "0.0-61.0-0.0"}}, {"uniqueid": "MTK1083:340UGXU9DZ80PRY8A21D6VY2CGEUVU", "current_trial": 89, "dateTime": 1513098784637, "trialdata": {"rt": -1, "stimulus": "<p id=\"stim\">WHISKERS</p>", "key_press": -1, "type": "PRES_VIS", "word": "whiskers", "wordID": 1604, "conditions": [24, 1600, "v", 24000], "trial": 2, "serialpos": 0, "trial_type": "single-stim", "trial_index": 89, "time_elapsed": 507588, "internal_node_id": "0.0-62.0"}}, {"uniqueid": "MTK1083:340UGXU9DZ80PRY8A21D6VY2CGEUVU", "current_trial": 90, "dateTime": 1513098787307, "trialdata": {"rt": -1, "stimulus": "<p id=\"stim\">BANKER</p>", "key_press": -1, "type": "PRES_VIS", "word": "banker", "wordID": 83, "conditions": [24, 1600, "v", 24000], "trial": 2, "serialpos": 1, "trial_type": "single-stim", "trial_index": 90, "time_elapsed": 510258, "internal_node_id": "0.0-63.0"}}, {"uniqueid": "MTK1083:340UGXU9DZ80PRY8A21D6VY2CGEUVU", "current_trial": 91, "dateTime": 1513098790088, "trialdata": {"rt": -1, "stimulus": "<p id=\"stim\">BACKBONE</p>", "key_press": -1, "type": "PRES_VIS", "word": "backbone", "wordID": 65, "conditions": [24, 1600, "v", 24000], "trial": 2, "serialpos": 2, "trial_type": "single-stim", "trial_index": 91, "time_elapsed": 513038, "internal_node_id": "0.0-64.0"}}, {"uniqueid": "MTK1083:340UGXU9DZ80PRY8A21D6VY2CGEUVU", "current_trial": 92, "dateTime": 1513098792549, "trialdata": {"rt": -1, "stimulus": "<p id=\"stim\">ARM</p>", "key_press": -1, "type": "PRES_VIS", "word": "arm", "wordID": 37, "conditions": [24, 1600, "v", 24000], "trial": 2, "serialpos": 3, "trial_type": "single-stim", "trial_index": 92, "time_elapsed": 515499, "internal_node_id": "0.0-65.0"}}, {"uniqueid": "MTK1083:340UGXU9DZ80PRY8A21D6VY2CGEUVU", "current_trial": 93, "dateTime": 1513098795099, "trialdata": {"rt": -1, "stimulus": "<p id=\"stim\">PORK</p>", "key_press": -1, "type": "PRES_VIS", "word": "pork", "wordID": 1107, "conditions": [24, 1600, "v", 24000], "trial": 2, "serialpos": 4, "trial_type": "single-stim", "trial_index": 93, "time_elapsed": 518049, "internal_node_id": "0.0-66.0"}}, {"uniqueid": "MTK1083:340UGXU9DZ80PRY8A21D6VY2CGEUVU", "current_trial": 94, "dateTime": 1513098797876, "trialdata": {"rt": -1, "stimulus": "<p id=\"stim\">JUDGE</p>", "key_press": -1, "type": "PRES_VIS", "word": "judge", "wordID": 760, "conditions": [24, 1600, "v", 24000], "trial": 2, "serialpos": 5, "trial_type": "single-stim", "trial_index": 94, "time_elapsed": 520826, "internal_node_id": "0.0-67.0"}}, {"uniqueid": "MTK1083:340UGXU9DZ80PRY8A21D6VY2CGEUVU", "current_trial": 95, "dateTime": 1513098800601, "trialdata": {"rt": -1, "stimulus": "<p id=\"stim\">JURY</p>", "key_press": -1, "type": "PRES_VIS", "word": "jury", "wordID": 765, "conditions": [24, 1600, "v", 24000], "trial": 2, "serialpos": 6, "trial_type": "single-stim", "trial_index": 95, "time_elapsed": 523552, "internal_node_id": "0.0-68.0"}}, {"uniqueid": "MTK1083:340UGXU9DZ80PRY8A21D6VY2CGEUVU", "current_trial": 96, "dateTime": 1513098803323, "trialdata": {"rt": -1, "stimulus": "<p id=\"stim\">BANK</p>", "key_press": -1, "type": "PRES_VIS", "word": "bank", "wordID": 82, "conditions": [24, 1600, "v", 24000], "trial": 2, "serialpos": 7, "trial_type": "single-stim", "trial_index": 96, "time_elapsed": 526274, "internal_node_id": "0.0-69.0"}}, {"uniqueid": "MTK1083:340UGXU9DZ80PRY8A21D6VY2CGEUVU", "current_trial": 97, "dateTime": 1513098805772, "trialdata": {"rt": -1, "stimulus": "<p id=\"stim\">VICTIM</p>", "key_press": -1, "type": "PRES_VIS", "word": "victim", "wordID": 1561, "conditions": [24, 1600, "v", 24000], "trial": 2, "serialpos": 8, "trial_type": "single-stim", "trial_index": 97, "time_elapsed": 528723, "internal_node_id": "0.0-70.0"}}, {"uniqueid": "MTK1083:340UGXU9DZ80PRY8A21D6VY2CGEUVU", "current_trial": 98, "dateTime": 1513098808477, "trialdata": {"rt": -1, "stimulus": "<p id=\"stim\">QUAIL</p>", "key_press": -1, "type": "PRES_VIS", "word": "quail", "wordID": 1146, "conditions": [24, 1600, "v", 24000], "trial": 2, "serialpos": 9, "trial_type": "single-stim", "trial_index": 98, "time_elapsed": 531428, "internal_node_id": "0.0-71.0"}}, {"uniqueid": "MTK1083:340UGXU9DZ80PRY8A21D6VY2CGEUVU", "current_trial": 99, "dateTime": 1513098810942, "trialdata": {"rt": -1, "stimulus": "<p id=\"stim\">MILDEW</p>", "key_press": -1, "type": "PRES_VIS", "word": "mildew", "wordID": 892, "conditions": [24, 1600, "v", 24000], "trial": 2, "serialpos": 10, "trial_type": "single-stim", "trial_index": 99, "time_elapsed": 533892, "internal_node_id": "0.0-72.0"}}, {"uniqueid": "MTK1083:340UGXU9DZ80PRY8A21D6VY2CGEUVU", "current_trial": 100, "dateTime": 1513098813667, "trialdata": {"rt": -1, "stimulus": "<p id=\"stim\">SCISSORS</p>", "key_press": -1, "type": "PRES_VIS", "word": "scissors", "wordID": 1249, "conditions": [24, 1600, "v", 24000], "trial": 2, "serialpos": 11, "trial_type": "single-stim", "trial_index": 100, "time_elapsed": 536617, "internal_node_id": "0.0-73.0"}}, {"uniqueid": "MTK1083:340UGXU9DZ80PRY8A21D6VY2CGEUVU", "current_trial": 101, "dateTime": 1513098816227, "trialdata": {"rt": -1, "stimulus": "<p id=\"stim\">KNAPSACK</p>", "key_press": -1, "type": "PRES_VIS", "word": "knapsack", "wordID": 782, "conditions": [24, 1600, "v", 24000], "trial": 2, "serialpos": 12, "trial_type": "single-stim", "trial_index": 101, "time_elapsed": 539178, "internal_node_id": "0.0-74.0"}}, {"uniqueid": "MTK1083:340UGXU9DZ80PRY8A21D6VY2CGEUVU", "current_trial": 102, "dateTime": 1513098818676, "trialdata": {"rt": -1, "stimulus": "<p id=\"stim\">BLOCKADE</p>", "key_press": -1, "type": "PRES_VIS", "word": "blockade", "wordID": 136, "conditions": [24, 1600, "v", 24000], "trial": 2, "serialpos": 13, "trial_type": "single-stim", "trial_index": 102, "time_elapsed": 541627, "internal_node_id": "0.0-75.0"}}, {"uniqueid": "MTK1083:340UGXU9DZ80PRY8A21D6VY2CGEUVU", "current_trial": 103, "dateTime": 1513098821238, "trialdata": {"rt": -1, "stimulus": "<p id=\"stim\">BOX</p>", "key_press": -1, "type": "PRES_VIS", "word": "box", "wordID": 158, "conditions": [24, 1600, "v", 24000], "trial": 2, "serialpos": 14, "trial_type": "single-stim", "trial_index": 103, "time_elapsed": 544189, "internal_node_id": "0.0-76.0"}}, {"uniqueid": "MTK1083:340UGXU9DZ80PRY8A21D6VY2CGEUVU", "current_trial": 104, "dateTime": 1513098823752, "trialdata": {"rt": -1, "stimulus": "<p id=\"stim\">BOUQUET</p>", "key_press": -1, "type": "PRES_VIS", "word": "bouquet", "wordID": 156, "conditions": [24, 1600, "v", 24000], "trial": 2, "serialpos": 15, "trial_type": "single-stim", "trial_index": 104, "time_elapsed": 546703, "internal_node_id": "0.0-77.0"}}, {"uniqueid": "MTK1083:340UGXU9DZ80PRY8A21D6VY2CGEUVU", "current_trial": 105, "dateTime": 1513098826181, "trialdata": {"rt": -1, "stimulus": "<p id=\"stim\">BRIEFCASE</p>", "key_press": -1, "type": "PRES_VIS", "word": "briefcase", "wordID": 174, "conditions": [24, 1600, "v", 24000], "trial": 2, "serialpos": 16, "trial_type": "single-stim", "trial_index": 105, "time_elapsed": 549131, "internal_node_id": "0.0-78.0"}}, {"uniqueid": "MTK1083:340UGXU9DZ80PRY8A21D6VY2CGEUVU", "current_trial": 106, "dateTime": 1513098828599, "trialdata": {"rt": -1, "stimulus": "<p id=\"stim\">BATHTUB</p>", "key_press": -1, "type": "PRES_VIS", "word": "bathtub", "wordID": 99, "conditions": [24, 1600, "v", 24000], "trial": 2, "serialpos": 17, "trial_type": "single-stim", "trial_index": 106, "time_elapsed": 551550, "internal_node_id": "0.0-79.0"}}, {"uniqueid": "MTK1083:340UGXU9DZ80PRY8A21D6VY2CGEUVU", "current_trial": 107, "dateTime": 1513098831272, "trialdata": {"rt": -1, "stimulus": "<p id=\"stim\">HUSBAND</p>", "key_press": -1, "type": "PRES_VIS", "word": "husband", "wordID": 727, "conditions": [24, 1600, "v", 24000], "trial": 2, "serialpos": 18, "trial_type": "single-stim", "trial_index": 107, "time_elapsed": 554223, "internal_node_id": "0.0-80.0"}}, {"uniqueid": "MTK1083:340UGXU9DZ80PRY8A21D6VY2CGEUVU", "current_trial": 108, "dateTime": 1513098833999, "trialdata": {"rt": -1, "stimulus": "<p id=\"stim\">STAPLE</p>", "key_press": -1, "type": "PRES_VIS", "word": "staple", "wordID": 1370, "conditions": [24, 1600, "v", 24000], "trial": 2, "serialpos": 19, "trial_type": "single-stim", "trial_index": 108, "time_elapsed": 556950, "internal_node_id": "0.0-81.0"}}, {"uniqueid": "MTK1083:340UGXU9DZ80PRY8A21D6VY2CGEUVU", "current_trial": 109, "dateTime": 1513098836534, "trialdata": {"rt": -1, "stimulus": "<p id=\"stim\">BEAST</p>", "key_press": -1, "type": "PRES_VIS", "word": "beast", "wordID": 107, "conditions": [24, 1600, "v", 24000], "trial": 2, "serialpos": 20, "trial_type": "single-stim", "trial_index": 109, "time_elapsed": 559485, "internal_node_id": "0.0-82.0"}}, {"uniqueid": "MTK1083:340UGXU9DZ80PRY8A21D6VY2CGEUVU", "current_trial": 110, "dateTime": 1513098839334, "trialdata": {"rt": -1, "stimulus": "<p id=\"stim\">DAUGHTER</p>", "key_press": -1, "type": "PRES_VIS", "word": "daughter", "wordID": 441, "conditions": [24, 1600, "v", 24000], "trial": 2, "serialpos": 21, "trial_type": "single-stim", "trial_index": 110, "time_elapsed": 562285, "internal_node_id": "0.0-83.0"}}, {"uniqueid": "MTK1083:340UGXU9DZ80PRY8A21D6VY2CGEUVU", "current_trial": 111, "dateTime": 1513098842073, "trialdata": {"rt": -1, "stimulus": "<p id=\"stim\">FRIEND</p>", "key_press": -1, "type": "PRES_VIS", "word": "friend", "wordID": 605, "conditions": [24, 1600, "v", 24000], "trial": 2, "serialpos": 22, "trial_type": "single-stim", "trial_index": 111, "time_elapsed": 565023, "internal_node_id": "0.0-84.0"}}, {"uniqueid": "MTK1083:340UGXU9DZ80PRY8A21D6VY2CGEUVU", "current_trial": 112, "dateTime": 1513098844842, "trialdata": {"rt": -1, "stimulus": "<p id=\"stim\">DRINK</p>", "key_press": -1, "type": "PRES_VIS", "word": "drink", "wordID": 497, "conditions": [24, 1600, "v", 24000], "trial": 2, "serialpos": 23, "trial_type": "single-stim", "trial_index": 112, "time_elapsed": 567792, "internal_node_id": "0.0-85.0"}}, {"uniqueid": "MTK1083:340UGXU9DZ80PRY8A21D6VY2CGEUVU", "current_trial": 113, "dateTime": 1513098847280, "trialdata": {"rt": -1, "stimulus": "", "key_press": -1, "type": "PRE_RECALL_DELAY", "trial_type": "single-stim", "trial_index": 113, "time_elapsed": 570231, "internal_node_id": "0.0-86.0-0.0"}}, {"uniqueid": "MTK1083:340UGXU9DZ80PRY8A21D6VY2CGEUVU", "current_trial": 114, "dateTime": 1513098847782, "trialdata": {"rt": -1000, "stimulus": "/static/audio/400Hz.wav", "key_press": -1, "type": "PRE_RECALL_ALERT", "trial_type": "single-audio", "trial_index": 114, "time_elapsed": 570733, "internal_node_id": "0.0-87.0"}}, {"uniqueid": "MTK1083:340UGXU9DZ80PRY8A21D6VY2CGEUVU", "current_trial": 115, "dateTime": 1513098907790, "trialdata": {"rt": [8309, 9667, 11645, 13893, 17982, 21799, 26326, 35544, 50665, 52644, 54317, 58385], "recwords": ["drink", "friend", "daughter", "husband", "backbone", "knapsack", "quail", "bouquet", "banker", "judge", "jury", "pork"], "type": "FREE_RECALL", "conditions": [24, 1600, "v", 24000], "trial": 2, "trial_type": "free-recall", "trial_index": 115, "time_elapsed": 630736, "internal_node_id": "0.0-88.0-0.0"}}, {"uniqueid": "MTK1083:340UGXU9DZ80PRY8A21D6VY2CGEUVU", "current_trial": 116, "dateTime": 1513098917768, "trialdata": {"rt": 7976, "key_press": 32, "type": "INSTRUCTIONS", "trial_type": "text", "trial_index": 116, "time_elapsed": 640718, "internal_node_id": "0.0-89.0"}}, {"uniqueid": "MTK1083:340UGXU9DZ80PRY8A21D6VY2CGEUVU", "current_trial": 117, "dateTime": 1513098943773, "trialdata": {"rt": [3861, 5518, 7519, 9578, 13213, 15263, 17195, 19809], "responses": ["18", "15", "12", "11", "15", "8", "15", "1"], "num1": [9, 7, 8, 6, 4, 4, 8, 8, 6], "num2": [3, 1, 2, 3, 7, 2, 6, 4, 9], "num3": [6, 7, 2, 2, 4, 2, 1, 4, 5], "type": "DISTRACTOR", "conditions": [12, 1600, "a", 24000], "trial": 3, "trial_type": "math-distractor", "trial_index": 117, "time_elapsed": 666724, "internal_node_id": "0.0-90.0"}}, {"uniqueid": "MTK1083:340UGXU9DZ80PRY8A21D6VY2CGEUVU", "current_trial": 118, "dateTime": 1513098946776, "trialdata": {"rt": -1, "stimulus": "<p id=\"stim\">10</p>", "key_press": -1, "trial_type": "single-stim", "trial_index": 118, "time_elapsed": 669727, "internal_node_id": "0.0-91.0-0.0"}}, {"uniqueid": "MTK1083:340UGXU9DZ80PRY8A21D6VY2CGEUVU", "current_trial": 119, "dateTime": 1513098947778, "trialdata": {"rt": -1, "stimulus": "<p id=\"stim\">9</p>", "key_press": -1, "trial_type": "single-stim", "trial_index": 119, "time_elapsed": 670729, "internal_node_id": "0.0-91.0-1.0"}}, {"uniqueid": "MTK1083:340UGXU9DZ80PRY8A21D6VY2CGEUVU", "current_trial": 120, "dateTime": 1513098948780, "trialdata": {"rt": -1, "stimulus": "<p id=\"stim\">8</p>", "key_press": -1, "trial_type": "single-stim", "trial_index": 120, "time_elapsed": 671731, "internal_node_id": "0.0-91.0-2.0"}}, {"uniqueid": "MTK1083:340UGXU9DZ80PRY8A21D6VY2CGEUVU", "current_trial": 121, "dateTime": 1513098949782, "trialdata": {"rt": -1, "stimulus": "<p id=\"stim\">7</p>", "key_press": -1, "trial_type": "single-stim", "trial_index": 121, "time_elapsed": 672733, "internal_node_id": "0.0-91.0-3.0"}}, {"uniqueid": "MTK1083:340UGXU9DZ80PRY8A21D6VY2CGEUVU", "current_trial": 122, "dateTime": 1513098950784, "trialdata": {"rt": -1, "stimulus": "<p id=\"stim\">6</p>", "key_press": -1, "trial_type": "single-stim", "trial_index": 122, "time_elapsed": 673735, "internal_node_id": "0.0-91.0-4.0"}}, {"uniqueid": "MTK1083:340UGXU9DZ80PRY8A21D6VY2CGEUVU", "current_trial": 123, "dateTime": 1513098951786, "trialdata": {"rt": -1, "stimulus": "<p id=\"stim\">5</p>", "key_press": -1, "trial_type": "single-stim", "trial_index": 123, "time_elapsed": 674737, "internal_node_id": "0.0-91.0-5.0"}}, {"uniqueid": "MTK1083:340UGXU9DZ80PRY8A21D6VY2CGEUVU", "current_trial": 124, "dateTime": 1513098952788, "trialdata": {"rt": -1, "stimulus": "<p id=\"stim\">4</p>", "key_press": -1, "trial_type": "single-stim", "trial_index": 124, "time_elapsed": 675739, "internal_node_id": "0.0-91.0-6.0"}}, {"uniqueid": "MTK1083:340UGXU9DZ80PRY8A21D6VY2CGEUVU", "current_trial": 125, "dateTime": 1513098953790, "trialdata": {"rt": -1, "stimulus": "<p id=\"stim\">3</p>", "key_press": -1, "trial_type": "single-stim", "trial_index": 125, "time_elapsed": 676741, "internal_node_id": "0.0-91.0-7.0"}}, {"uniqueid": "MTK1083:340UGXU9DZ80PRY8A21D6VY2CGEUVU", "current_trial": 126, "dateTime": 1513098954792, "trialdata": {"rt": -1, "stimulus": "<p id=\"stim\">2</p>", "key_press": -1, "trial_type": "single-stim", "trial_index": 126, "time_elapsed": 677743, "internal_node_id": "0.0-91.0-8.0"}}, {"uniqueid": "MTK1083:340UGXU9DZ80PRY8A21D6VY2CGEUVU", "current_trial": 127, "dateTime": 1513098955794, "trialdata": {"rt": -1, "stimulus": "<p id=\"stim\">1</p>", "key_press": -1, "trial_type": "single-stim", "trial_index": 127, "time_elapsed": 678745, "internal_node_id": "0.0-91.0-9.0"}}, {"uniqueid": "MTK1083:340UGXU9DZ80PRY8A21D6VY2CGEUVU", "current_trial": 128, "dateTime": 1513098957297, "trialdata": {"rt": -1, "stimulus": "<p id=\"stim\">+</p>", "key_press": -1, "type": "FIXATION", "trial_type": "single-stim", "trial_index": 128, "time_elapsed": 680247, "internal_node_id": "0.0-92.0-0.0"}}, {"uniqueid": "MTK1083:340UGXU9DZ80PRY8A21D6VY2CGEUVU", "current_trial": 129, "dateTime": 1513098959814, "trialdata": {"rt": -1000, "stimulus": "/static/audio/wordpool/DAISY.wav", "key_press": -1, "type": "PRES_AUD", "word": "daisy", "wordID": 434, "conditions": [12, 1600, "a", 24000], "trial": 3, "serialpos": 0, "trial_type": "single-audio", "trial_index": 129, "time_elapsed": 682765, "internal_node_id": "0.0-93.0"}}, {"uniqueid": "MTK1083:340UGXU9DZ80PRY8A21D6VY2CGEUVU", "current_trial": 130, "dateTime": 1513098962319, "trialdata": {"rt": -1000, "stimulus": "/static/audio/wordpool/SWORD.wav", "key_press": -1, "type": "PRES_AUD", "word": "sword", "wordID": 1422, "conditions": [12, 1600, "a", 24000], "trial": 3, "serialpos": 1, "trial_type": "single-audio", "trial_index": 130, "time_elapsed": 685270, "internal_node_id": "0.0-94.0"}}, {"uniqueid": "MTK1083:340UGXU9DZ80PRY8A21D6VY2CGEUVU", "current_trial": 131, "dateTime": 1513098964966, "trialdata": {"rt": -1000, "stimulus": "/static/audio/wordpool/FLAG.wav", "key_press": -1, "type": "PRES_AUD", "word": "flag", "wordID": 572, "conditions": [12, 1600, "a", 24000], "trial": 3, "serialpos": 2, "trial_type": "single-audio", "trial_index": 131, "time_elapsed": 687916, "internal_node_id": "0.0-95.0"}}, {"uniqueid": "MTK1083:340UGXU9DZ80PRY8A21D6VY2CGEUVU", "current_trial": 132, "dateTime": 1513098967458, "trialdata": {"rt": -1000, "stimulus": "/static/audio/wordpool/HIGHWAY.wav", "key_press": -1, "type": "PRES_AUD", "word": "highway", "wordID": 706, "conditions": [12, 1600, "a", 24000], "trial": 3, "serialpos": 3, "trial_type": "single-audio", "trial_index": 132, "time_elapsed": 690408, "internal_node_id": "0.0-96.0"}}, {"uniqueid": "MTK1083:340UGXU9DZ80PRY8A21D6VY2CGEUVU", "current_trial": 133, "dateTime": 1513098970031, "trialdata": {"rt": -1000, "stimulus": "/static/audio/wordpool/GAZELLE.wav", "key_press": -1, "type": "PRES_AUD", "word": "gazelle", "wordID": 627, "conditions": [12, 1600, "a", 24000], "trial": 3, "serialpos": 4, "trial_type": "single-audio", "trial_index": 133, "time_elapsed": 692981, "internal_node_id": "0.0-97.0"}}, {"uniqueid": "MTK1083:340UGXU9DZ80PRY8A21D6VY2CGEUVU", "current_trial": 134, "dateTime": 1513098972824, "trialdata": {"rt": -1000, "stimulus": "/static/audio/wordpool/SUPPER.wav", "key_press": -1, "type": "PRES_AUD", "word": "supper", "wordID": 1410, "conditions": [12, 1600, "a", 24000], "trial": 3, "serialpos": 5, "trial_type": "single-audio", "trial_index": 134, "time_elapsed": 695775, "internal_node_id": "0.0-98.0"}}, {"uniqueid": "MTK1083:340UGXU9DZ80PRY8A21D6VY2CGEUVU", "current_trial": 135, "dateTime": 1513098975414, "trialdata": {"rt": -1000, "stimulus": "/static/audio/wordpool/GRAVEL.wav", "key_press": -1, "type": "PRES_AUD", "word": "gravel", "wordID": 658, "conditions": [12, 1600, "a", 24000], "trial": 3, "serialpos": 6, "trial_type": "single-audio", "trial_index": 135, "time_elapsed": 698365, "internal_node_id": "0.0-99.0"}}, {"uniqueid": "MTK1083:340UGXU9DZ80PRY8A21D6VY2CGEUVU", "current_trial": 136, "dateTime": 1513098977957, "trialdata": {"rt": -1000, "stimulus": "/static/audio/wordpool/MARROW.wav", "key_press": -1, "type": "PRES_AUD", "word": "marrow", "wordID": 871, "conditions": [12, 1600, "a", 24000], "trial": 3, "serialpos": 7, "trial_type": "single-audio", "trial_index": 136, "time_elapsed": 700908, "internal_node_id": "0.0-100.0"}}, {"uniqueid": "MTK1083:340UGXU9DZ80PRY8A21D6VY2CGEUVU", "current_trial": 137, "dateTime": 1513098980642, "trialdata": {"rt": -1000, "stimulus": "/static/audio/wordpool/STONE.wav", "key_press": -1, "type": "PRES_AUD", "word": "stone", "wordID": 1384, "conditions": [12, 1600, "a", 24000], "trial": 3, "serialpos": 8, "trial_type": "single-audio", "trial_index": 137, "time_elapsed": 703593, "internal_node_id": "0.0-101.0"}}, {"uniqueid": "MTK1083:340UGXU9DZ80PRY8A21D6VY2CGEUVU", "current_trial": 138, "dateTime": 1513098983414, "trialdata": {"rt": -1000, "stimulus": "/static/audio/wordpool/BANQUET.wav", "key_press": -1, "type": "PRES_AUD", "word": "banquet", "wordID": 85, "conditions": [12, 1600, "a", 24000], "trial": 3, "serialpos": 9, "trial_type": "single-audio", "trial_index": 138, "time_elapsed": 706365, "internal_node_id": "0.0-102.0"}}, {"uniqueid": "MTK1083:340UGXU9DZ80PRY8A21D6VY2CGEUVU", "current_trial": 139, "dateTime": 1513098985855, "trialdata": {"rt": -1000, "stimulus": "/static/audio/wordpool/LEG.wav", "key_press": -1, "type": "PRES_AUD", "word": "leg", "wordID": 808, "conditions": [12, 1600, "a", 24000], "trial": 3, "serialpos": 10, "trial_type": "single-audio", "trial_index": 139, "time_elapsed": 708806, "internal_node_id": "0.0-103.0"}}, {"uniqueid": "MTK1083:340UGXU9DZ80PRY8A21D6VY2CGEUVU", "current_trial": 140, "dateTime": 1513098988308, "trialdata": {"rt": -1000, "stimulus": "/static/audio/wordpool/SHOULDER.wav", "key_press": -1, "type": "PRES_AUD", "word": "shoulder", "wordID": 1293, "conditions": [12, 1600, "a", 24000], "trial": 3, "serialpos": 11, "trial_type": "single-audio", "trial_index": 140, "time_elapsed": 711258, "internal_node_id": "0.0-104.0"}}, {"uniqueid": "MTK1083:340UGXU9DZ80PRY8A21D6VY2CGEUVU", "current_trial": 141, "dateTime": 1513098989561, "trialdata": {"rt": -1, "stimulus": "", "key_press": -1, "type": "PRE_RECALL_DELAY", "trial_type": "single-stim", "trial_index": 141, "time_elapsed": 712512, "internal_node_id": "0.0-105.0-0.0"}}, {"uniqueid": "MTK1083:340UGXU9DZ80PRY8A21D6VY2CGEUVU", "current_trial": 142, "dateTime": 1513098990063, "trialdata": {"rt": -1000, "stimulus": "/static/audio/400Hz.wav", "key_press": -1, "type": "PRE_RECALL_ALERT", "trial_type": "single-audio", "trial_index": 142, "time_elapsed": 713014, "internal_node_id": "0.0-106.0"}}, {"uniqueid": "MTK1083:340UGXU9DZ80PRY8A21D6VY2CGEUVU", "current_trial": 143, "dateTime": 1513099050072, "trialdata": {"rt": [6939, 17693, 25372], "recwords": ["shoulder", "leg", "sword"], "type": "FREE_RECALL", "conditions": [12, 1600, "a", 24000], "trial": 3, "trial_type": "free-recall", "trial_index": 143, "time_elapsed": 773018, "internal_node_id": "0.0-107.0-0.0"}}, {"uniqueid": "MTK1083:340UGXU9DZ80PRY8A21D6VY2CGEUVU", "current_trial": 144, "dateTime": 1513099052942, "trialdata": {"rt": 867, "key_press": 32, "type": "INSTRUCTIONS", "trial_type": "text", "trial_index": 144, "time_elapsed": 775893, "internal_node_id": "0.0-108.0"}}, {"uniqueid": "MTK1083:340UGXU9DZ80PRY8A21D6VY2CGEUVU", "current_trial": 145, "dateTime": 1513099066949, "trialdata": {"rt": [3245, 5600, 7498, 9670], "responses": ["11", "13", "13", "14"], "num1": [7, 5, 2, 7, 3], "num2": [1, 6, 6, 1, 6], "num3": [3, 2, 5, 6, 9], "type": "DISTRACTOR", "conditions": [24, 1600, "a", 12000], "trial": 4, "trial_type": "math-distractor", "trial_index": 145, "time_elapsed": 789899, "internal_node_id": "0.0-109.0"}}, {"uniqueid": "MTK1083:340UGXU9DZ80PRY8A21D6VY2CGEUVU", "current_trial": 146, "dateTime": 1513099069952, "trialdata": {"rt": -1, "stimulus": "<p id=\"stim\">10</p>", "key_press": -1, "trial_type": "single-stim", "trial_index": 146, "time_elapsed": 792903, "internal_node_id": "0.0-110.0-0.0"}}, {"uniqueid": "MTK1083:340UGXU9DZ80PRY8A21D6VY2CGEUVU", "current_trial": 147, "dateTime": 1513099070954, "trialdata": {"rt": -1, "stimulus": "<p id=\"stim\">9</p>", "key_press": -1, "trial_type": "single-stim", "trial_index": 147, "time_elapsed": 793905, "internal_node_id": "0.0-110.0-1.0"}}, {"uniqueid": "MTK1083:340UGXU9DZ80PRY8A21D6VY2CGEUVU", "current_trial": 148, "dateTime": 1513099071956, "trialdata": {"rt": -1, "stimulus": "<p id=\"stim\">8</p>", "key_press": -1, "trial_type": "single-stim", "trial_index": 148, "time_elapsed": 794907, "internal_node_id": "0.0-110.0-2.0"}}, {"uniqueid": "MTK1083:340UGXU9DZ80PRY8A21D6VY2CGEUVU", "current_trial": 149, "dateTime": 1513099072958, "trialdata": {"rt": -1, "stimulus": "<p id=\"stim\">7</p>", "key_press": -1, "trial_type": "single-stim", "trial_index": 149, "time_elapsed": 795909, "internal_node_id": "0.0-110.0-3.0"}}, {"uniqueid": "MTK1083:340UGXU9DZ80PRY8A21D6VY2CGEUVU", "current_trial": 150, "dateTime": 1513099073960, "trialdata": {"rt": -1, "stimulus": "<p id=\"stim\">6</p>", "key_press": -1, "trial_type": "single-stim", "trial_index": 150, "time_elapsed": 796911, "internal_node_id": "0.0-110.0-4.0"}}, {"uniqueid": "MTK1083:340UGXU9DZ80PRY8A21D6VY2CGEUVU", "current_trial": 151, "dateTime": 1513099074963, "trialdata": {"rt": -1, "stimulus": "<p id=\"stim\">5</p>", "key_press": -1, "trial_type": "single-stim", "trial_index": 151, "time_elapsed": 797913, "internal_node_id": "0.0-110.0-5.0"}}, {"uniqueid": "MTK1083:340UGXU9DZ80PRY8A21D6VY2CGEUVU", "current_trial": 152, "dateTime": 1513099075965, "trialdata": {"rt": -1, "stimulus": "<p id=\"stim\">4</p>", "key_press": -1, "trial_type": "single-stim", "trial_index": 152, "time_elapsed": 798915, "internal_node_id": "0.0-110.0-6.0"}}, {"uniqueid": "MTK1083:340UGXU9DZ80PRY8A21D6VY2CGEUVU", "current_trial": 153, "dateTime": 1513099076967, "trialdata": {"rt": -1, "stimulus": "<p id=\"stim\">3</p>", "key_press": -1, "trial_type": "single-stim", "trial_index": 153, "time_elapsed": 799917, "internal_node_id": "0.0-110.0-7.0"}}, {"uniqueid": "MTK1083:340UGXU9DZ80PRY8A21D6VY2CGEUVU", "current_trial": 154, "dateTime": 1513099077969, "trialdata": {"rt": -1, "stimulus": "<p id=\"stim\">2</p>", "key_press": -1, "trial_type": "single-stim", "trial_index": 154, "time_elapsed": 800920, "internal_node_id": "0.0-110.0-8.0"}}, {"uniqueid": "MTK1083:340UGXU9DZ80PRY8A21D6VY2CGEUVU", "current_trial": 155, "dateTime": 1513099078971, "trialdata": {"rt": -1, "stimulus": "<p id=\"stim\">1</p>", "key_press": -1, "trial_type": "single-stim", "trial_index": 155, "time_elapsed": 801921, "internal_node_id": "0.0-110.0-9.0"}}, {"uniqueid": "MTK1083:340UGXU9DZ80PRY8A21D6VY2CGEUVU", "current_trial": 156, "dateTime": 1513099080473, "trialdata": {"rt": -1, "stimulus": "<p id=\"stim\">+</p>", "key_press": -1, "type": "FIXATION", "trial_type": "single-stim", "trial_index": 156, "time_elapsed": 803424, "internal_node_id": "0.0-111.0-0.0"}}, {"uniqueid": "MTK1083:340UGXU9DZ80PRY8A21D6VY2CGEUVU", "current_trial": 157, "dateTime": 1513099083041, "trialdata": {"rt": -1000, "stimulus": "/static/audio/wordpool/SALAD.wav", "key_press": -1, "type": "PRES_AUD", "word": "salad", "wordID": 1223, "conditions": [24, 1600, "a", 12000], "trial": 4, "serialpos": 0, "trial_type": "single-audio", "trial_index": 157, "time_elapsed": 805991, "internal_node_id": "0.0-112.0"}}, {"uniqueid": "MTK1083:340UGXU9DZ80PRY8A21D6VY2CGEUVU", "current_trial": 158, "dateTime": 1513099085833, "trialdata": {"rt": -1000, "stimulus": "/static/audio/wordpool/PARSLEY.wav", "key_press": -1, "type": "PRES_AUD", "word": "parsley", "wordID": 1015, "conditions": [24, 1600, "a", 12000], "trial": 4, "serialpos": 1, "trial_type": "single-audio", "trial_index": 158, "time_elapsed": 808783, "internal_node_id": "0.0-113.0"}}, {"uniqueid": "MTK1083:340UGXU9DZ80PRY8A21D6VY2CGEUVU", "current_trial": 159, "dateTime": 1513099088616, "trialdata": {"rt": -1000, "stimulus": "/static/audio/wordpool/BLOUSE.wav", "key_press": -1, "type": "PRES_AUD", "word": "blouse", "wordID": 138, "conditions": [24, 1600, "a", 12000], "trial": 4, "serialpos": 2, "trial_type": "single-audio", "trial_index": 159, "time_elapsed": 811567, "internal_node_id": "0.0-114.0"}}, {"uniqueid": "MTK1083:340UGXU9DZ80PRY8A21D6VY2CGEUVU", "current_trial": 160, "dateTime": 1513099091406, "trialdata": {"rt": -1000, "stimulus": "/static/audio/wordpool/DRESS.wav", "key_press": -1, "type": "PRES_AUD", "word": "dress", "wordID": 494, "conditions": [24, 1600, "a", 12000], "trial": 4, "serialpos": 3, "trial_type": "single-audio", "trial_index": 160, "time_elapsed": 814357, "internal_node_id": "0.0-115.0"}}, {"uniqueid": "MTK1083:340UGXU9DZ80PRY8A21D6VY2CGEUVU", "current_trial": 161, "dateTime": 1513099094189, "trialdata": {"rt": -1000, "stimulus": "/static/audio/wordpool/OMELET.wav", "key_press": -1, "type": "PRES_AUD", "word": "omelet", "wordID": 975, "conditions": [24, 1600, "a", 12000], "trial": 4, "serialpos": 4, "trial_type": "single-audio", "trial_index": 161, "time_elapsed": 817140, "internal_node_id": "0.0-116.0"}}, {"uniqueid": "MTK1083:340UGXU9DZ80PRY8A21D6VY2CGEUVU", "current_trial": 162, "dateTime": 1513099096907, "trialdata": {"rt": -1000, "stimulus": "/static/audio/wordpool/MAMMAL.wav", "key_press": -1, "type": "PRES_AUD", "word": "mammal", "wordID": 860, "conditions": [24, 1600, "a", 12000], "trial": 4, "serialpos": 5, "trial_type": "single-audio", "trial_index": 162, "time_elapsed": 819858, "internal_node_id": "0.0-117.0"}}, {"uniqueid": "MTK1083:340UGXU9DZ80PRY8A21D6VY2CGEUVU", "current_trial": 163, "dateTime": 1513099099535, "trialdata": {"rt": -1000, "stimulus": "/static/audio/wordpool/JELLO.wav", "key_press": -1, "type": "PRES_AUD", "word": "jello", "wordID": 753, "conditions": [24, 1600, "a", 12000], "trial": 4, "serialpos": 6, "trial_type": "single-audio", "trial_index": 163, "time_elapsed": 822485, "internal_node_id": "0.0-118.0"}}, {"uniqueid": "MTK1083:340UGXU9DZ80PRY8A21D6VY2CGEUVU", "current_trial": 164, "dateTime": 1513099101971, "trialdata": {"rt": -1000, "stimulus": "/static/audio/wordpool/STATUE.wav", "key_press": -1, "type": "PRES_AUD", "word": "statue", "wordID": 1373, "conditions": [24, 1600, "a", 12000], "trial": 4, "serialpos": 7, "trial_type": "single-audio", "trial_index": 164, "time_elapsed": 824922, "internal_node_id": "0.0-119.0"}}, {"uniqueid": "MTK1083:340UGXU9DZ80PRY8A21D6VY2CGEUVU", "current_trial": 165, "dateTime": 1513099104484, "trialdata": {"rt": -1000, "stimulus": "/static/audio/wordpool/SCALLOP.wav", "key_press": -1, "type": "PRES_AUD", "word": "scallop", "wordID": 1241, "conditions": [24, 1600, "a", 12000], "trial": 4, "serialpos": 8, "trial_type": "single-audio", "trial_index": 165, "time_elapsed": 827434, "internal_node_id": "0.0-120.0"}}, {"uniqueid": "MTK1083:340UGXU9DZ80PRY8A21D6VY2CGEUVU", "current_trial": 166, "dateTime": 1513099107104, "trialdata": {"rt": -1000, "stimulus": "/static/audio/wordpool/WINDOW.wav", "key_press": -1, "type": "PRES_AUD", "word": "window", "wordID": 1610, "conditions": [24, 1600, "a", 12000], "trial": 4, "serialpos": 9, "trial_type": "single-audio", "trial_index": 166, "time_elapsed": 830055, "internal_node_id": "0.0-121.0"}}, {"uniqueid": "MTK1083:340UGXU9DZ80PRY8A21D6VY2CGEUVU", "current_trial": 167, "dateTime": 1513099109583, "trialdata": {"rt": -1000, "stimulus": "/static/audio/wordpool/FLASHLIGHT.wav", "key_press": -1, "type": "PRES_AUD", "word": "flashlight", "wordID": 574, "conditions": [24, 1600, "a", 12000], "trial": 4, "serialpos": 10, "trial_type": "single-audio", "trial_index": 167, "time_elapsed": 832532, "internal_node_id": "0.0-122.0"}}, {"uniqueid": "MTK1083:340UGXU9DZ80PRY8A21D6VY2CGEUVU", "current_trial": 168, "dateTime": 1513099112282, "trialdata": {"rt": -1000, "stimulus": "/static/audio/wordpool/SKETCH.wav", "key_press": -1, "type": "PRES_AUD", "word": "sketch", "wordID": 1314, "conditions": [24, 1600, "a", 12000], "trial": 4, "serialpos": 11, "trial_type": "single-audio", "trial_index": 168, "time_elapsed": 835233, "internal_node_id": "0.0-123.0"}}, {"uniqueid": "MTK1083:340UGXU9DZ80PRY8A21D6VY2CGEUVU", "current_trial": 169, "dateTime": 1513099114902, "trialdata": {"rt": -1000, "stimulus": "/static/audio/wordpool/OZONE.wav", "key_press": -1, "type": "PRES_AUD", "word": "ozone", "wordID": 995, "conditions": [24, 1600, "a", 12000], "trial": 4, "serialpos": 12, "trial_type": "single-audio", "trial_index": 169, "time_elapsed": 837853, "internal_node_id": "0.0-124.0"}}, {"uniqueid": "MTK1083:340UGXU9DZ80PRY8A21D6VY2CGEUVU", "current_trial": 170, "dateTime": 1513099117557, "trialdata": {"rt": -1000, "stimulus": "/static/audio/wordpool/SMOG.wav", "key_press": -1, "type": "PRES_AUD", "word": "smog", "wordID": 1329, "conditions": [24, 1600, "a", 12000], "trial": 4, "serialpos": 13, "trial_type": "single-audio", "trial_index": 170, "time_elapsed": 840508, "internal_node_id": "0.0-125.0"}}, {"uniqueid": "MTK1083:340UGXU9DZ80PRY8A21D6VY2CGEUVU", "current_trial": 171, "dateTime": 1513099120280, "trialdata": {"rt": -1000, "stimulus": "/static/audio/wordpool/TWEEZERS.wav", "key_press": -1, "type": "PRES_AUD", "word": "tweezers", "wordID": 1525, "conditions": [24, 1600, "a", 12000], "trial": 4, "serialpos": 14, "trial_type": "single-audio", "trial_index": 171, "time_elapsed": 843231, "internal_node_id": "0.0-126.0"}}, {"uniqueid": "MTK1083:340UGXU9DZ80PRY8A21D6VY2CGEUVU", "current_trial": 172, "dateTime": 1513099122890, "trialdata": {"rt": -1000, "stimulus": "/static/audio/wordpool/STUDENT.wav", "key_press": -1, "type": "PRES_AUD", "word": "student", "wordID": 1394, "conditions": [24, 1600, "a", 12000], "trial": 4, "serialpos": 15, "trial_type": "single-audio", "trial_index": 172, "time_elapsed": 845840, "internal_node_id": "0.0-127.0"}}, {"uniqueid": "MTK1083:340UGXU9DZ80PRY8A21D6VY2CGEUVU", "current_trial": 173, "dateTime": 1513099125474, "trialdata": {"rt": -1000, "stimulus": "/static/audio/wordpool/PARENT.wav", "key_press": -1, "type": "PRES_AUD", "word": "parent", "wordID": 1012, "conditions": [24, 1600, "a", 12000], "trial": 4, "serialpos": 16, "trial_type": "single-audio", "trial_index": 173, "time_elapsed": 848425, "internal_node_id": "0.0-128.0"}}, {"uniqueid": "MTK1083:340UGXU9DZ80PRY8A21D6VY2CGEUVU", "current_trial": 174, "dateTime": 1513099128004, "trialdata": {"rt": -1000, "stimulus": "/static/audio/wordpool/PLUTO.wav", "key_press": -1, "type": "PRES_AUD", "word": "pluto", "wordID": 1091, "conditions": [24, 1600, "a", 12000], "trial": 4, "serialpos": 17, "trial_type": "single-audio", "trial_index": 174, "time_elapsed": 850955, "internal_node_id": "0.0-129.0"}}, {"uniqueid": "MTK1083:340UGXU9DZ80PRY8A21D6VY2CGEUVU", "current_trial": 175, "dateTime": 1513099130464, "trialdata": {"rt": -1000, "stimulus": "/static/audio/wordpool/CRAB.wav", "key_press": -1, "type": "PRES_AUD", "word": "crab", "wordID": 396, "conditions": [24, 1600, "a", 12000], "trial": 4, "serialpos": 18, "trial_type": "single-audio", "trial_index": 175, "time_elapsed": 853415, "internal_node_id": "0.0-130.0"}}, {"uniqueid": "MTK1083:340UGXU9DZ80PRY8A21D6VY2CGEUVU", "current_trial": 176, "dateTime": 1513099132966, "trialdata": {"rt": -1000, "stimulus": "/static/audio/wordpool/CLOUD.wav", "key_press": -1, "type": "PRES_AUD", "word": "cloud", "wordID": 327, "conditions": [24, 1600, "a", 12000], "trial": 4, "serialpos": 19, "trial_type": "single-audio", "trial_index": 176, "time_elapsed": 855917, "internal_node_id": "0.0-131.0"}}, {"uniqueid": "MTK1083:340UGXU9DZ80PRY8A21D6VY2CGEUVU", "current_trial": 177, "dateTime": 1513099135601, "trialdata": {"rt": -1000, "stimulus": "/static/audio/wordpool/CONVICT.wav", "key_press": -1, "type": "PRES_AUD", "word": "convict", "wordID": 370, "conditions": [24, 1600, "a", 12000], "trial": 4, "serialpos": 20, "trial_type": "single-audio", "trial_index": 177, "time_elapsed": 858552, "internal_node_id": "0.0-132.0"}}, {"uniqueid": "MTK1083:340UGXU9DZ80PRY8A21D6VY2CGEUVU", "current_trial": 178, "dateTime": 1513099138266, "trialdata": {"rt": -1000, "stimulus": "/static/audio/wordpool/CLAM.wav", "key_press": -1, "type": "PRES_AUD", "word": "clam", "wordID": 314, "conditions": [24, 1600, "a", 12000], "trial": 4, "serialpos": 21, "trial_type": "single-audio", "trial_index": 178, "time_elapsed": 861216, "internal_node_id": "0.0-133.0"}}, {"uniqueid": "MTK1083:340UGXU9DZ80PRY8A21D6VY2CGEUVU", "current_trial": 179, "dateTime": 1513099140997, "trialdata": {"rt": -1000, "stimulus": "/static/audio/wordpool/PLATE.wav", "key_press": -1, "type": "PRES_AUD", "word": "plate", "wordID": 1085, "conditions": [24, 1600, "a", 12000], "trial": 4, "serialpos": 22, "trial_type": "single-audio", "trial_index": 179, "time_elapsed": 863948, "internal_node_id": "0.0-134.0"}}, {"uniqueid": "MTK1083:340UGXU9DZ80PRY8A21D6VY2CGEUVU", "current_trial": 180, "dateTime": 1513099143475, "trialdata": {"rt": -1000, "stimulus": "/static/audio/wordpool/THREAD.wav", "key_press": -1, "type": "PRES_AUD", "word": "thread", "wordID": 1459, "conditions": [24, 1600, "a", 12000], "trial": 4, "serialpos": 23, "trial_type": "single-audio", "trial_index": 180, "time_elapsed": 866425, "internal_node_id": "0.0-135.0"}}, {"uniqueid": "MTK1083:340UGXU9DZ80PRY8A21D6VY2CGEUVU", "current_trial": 181, "dateTime": 1513099144876, "trialdata": {"rt": -1, "stimulus": "", "key_press": -1, "type": "PRE_RECALL_DELAY", "trial_type": "single-stim", "trial_index": 181, "time_elapsed": 867827, "internal_node_id": "0.0-136.0-0.0"}}, {"uniqueid": "MTK1083:340UGXU9DZ80PRY8A21D6VY2CGEUVU", "current_trial": 182, "dateTime": 1513099145378, "trialdata": {"rt": -1000, "stimulus": "/static/audio/400Hz.wav", "key_press": -1, "type": "PRE_RECALL_ALERT", "trial_type": "single-audio", "trial_index": 182, "time_elapsed": 868329, "internal_node_id": "0.0-137.0"}}, {"uniqueid": "MTK1083:340UGXU9DZ80PRY8A21D6VY2CGEUVU", "current_trial": 183, "dateTime": 1513099205391, "trialdata": {"rt": [9090, 11221, 12560, 14569, 16997, 23769, 29137, 31400, 39701, 49959, 59539], "recwords": ["plate", "convict", "salad", "thread", "parsley", "omelette", "jello", "stutue", "flashlight", "tweezers", "crab"], "type": "FREE_RECALL", "conditions": [24, 1600, "a", 12000], "trial": 4, "trial_type": "free-recall", "trial_index": 183, "time_elapsed": 928334, "internal_node_id": "0.0-138.0-0.0"}}, {"uniqueid": "MTK1083:340UGXU9DZ80PRY8A21D6VY2CGEUVU", "current_trial": 184, "dateTime": 1513099215152, "trialdata": {"rt": 7759, "key_press": 32, "type": "INSTRUCTIONS", "trial_type": "text", "trial_index": 184, "time_elapsed": 938103, "internal_node_id": "0.0-139.0"}}, {"uniqueid": "MTK1083:340UGXU9DZ80PRY8A21D6VY2CGEUVU", "current_trial": 185, "dateTime": 1513099241158, "trialdata": {"rt": [4178, 7566, 10743, 13200, 15858, 17899, 20734, 22791], "responses": ["14", "13", "15", "15", "7", "14", "16", "13"], "num1": [8, 8, 5, 4, 2, 6, 8, 6, 7], "num2": [1, 2, 1, 9, 1, 2, 4, 5, 7], "num3": [5, 3, 9, 2, 4, 6, 4, 2, 1], "type": "DISTRACTOR", "conditions": [12, 1600, "v", 24000], "trial": 5, "trial_type": "math-distractor", "trial_index": 185, "time_elapsed": 964108, "internal_node_id": "0.0-140.0"}}, {"uniqueid": "MTK1083:340UGXU9DZ80PRY8A21D6VY2CGEUVU", "current_trial": 186, "dateTime": 1513099244161, "trialdata": {"rt": -1, "stimulus": "<p id=\"stim\">10</p>", "key_press": -1, "trial_type": "single-stim", "trial_index": 186, "time_elapsed": 967112, "internal_node_id": "0.0-141.0-0.0"}}, {"uniqueid": "MTK1083:340UGXU9DZ80PRY8A21D6VY2CGEUVU", "current_trial": 187, "dateTime": 1513099245164, "trialdata": {"rt": -1, "stimulus": "<p id=\"stim\">9</p>", "key_press": -1, "trial_type": "single-stim", "trial_index": 187, "time_elapsed": 968115, "internal_node_id": "0.0-141.0-1.0"}}, {"uniqueid": "MTK1083:340UGXU9DZ80PRY8A21D6VY2CGEUVU", "current_trial": 188, "dateTime": 1513099246166, "trialdata": {"rt": -1, "stimulus": "<p id=\"stim\">8</p>", "key_press": -1, "trial_type": "single-stim", "trial_index": 188, "time_elapsed": 969117, "internal_node_id": "0.0-141.0-2.0"}}, {"uniqueid": "MTK1083:340UGXU9DZ80PRY8A21D6VY2CGEUVU", "current_trial": 189, "dateTime": 1513099247168, "trialdata": {"rt": -1, "stimulus": "<p id=\"stim\">7</p>", "key_press": -1, "trial_type": "single-stim", "trial_index": 189, "time_elapsed": 970119, "internal_node_id": "0.0-141.0-3.0"}}, {"uniqueid": "MTK1083:340UGXU9DZ80PRY8A21D6VY2CGEUVU", "current_trial": 190, "dateTime": 1513099248170, "trialdata": {"rt": -1, "stimulus": "<p id=\"stim\">6</p>", "key_press": -1, "trial_type": "single-stim", "trial_index": 190, "time_elapsed": 971121, "internal_node_id": "0.0-141.0-4.0"}}, {"uniqueid": "MTK1083:340UGXU9DZ80PRY8A21D6VY2CGEUVU", "current_trial": 191, "dateTime": 1513099249172, "trialdata": {"rt": -1, "stimulus": "<p id=\"stim\">5</p>", "key_press": -1, "trial_type": "single-stim", "trial_index": 191, "time_elapsed": 972123, "internal_node_id": "0.0-141.0-5.0"}}, {"uniqueid": "MTK1083:340UGXU9DZ80PRY8A21D6VY2CGEUVU", "current_trial": 192, "dateTime": 1513099250174, "trialdata": {"rt": -1, "stimulus": "<p id=\"stim\">4</p>", "key_press": -1, "trial_type": "single-stim", "trial_index": 192, "time_elapsed": 973125, "internal_node_id": "0.0-141.0-6.0"}}, {"uniqueid": "MTK1083:340UGXU9DZ80PRY8A21D6VY2CGEUVU", "current_trial": 193, "dateTime": 1513099251176, "trialdata": {"rt": -1, "stimulus": "<p id=\"stim\">3</p>", "key_press": -1, "trial_type": "single-stim", "trial_index": 193, "time_elapsed": 974127, "internal_node_id": "0.0-141.0-7.0"}}, {"uniqueid": "MTK1083:340UGXU9DZ80PRY8A21D6VY2CGEUVU", "current_trial": 194, "dateTime": 1513099252178, "trialdata": {"rt": -1, "stimulus": "<p id=\"stim\">2</p>", "key_press": -1, "trial_type": "single-stim", "trial_index": 194, "time_elapsed": 975129, "internal_node_id": "0.0-141.0-8.0"}}, {"uniqueid": "MTK1083:340UGXU9DZ80PRY8A21D6VY2CGEUVU", "current_trial": 195, "dateTime": 1513099253180, "trialdata": {"rt": -1, "stimulus": "<p id=\"stim\">1</p>", "key_press": -1, "trial_type": "single-stim", "trial_index": 195, "time_elapsed": 976131, "internal_node_id": "0.0-141.0-9.0"}}, {"uniqueid": "MTK1083:340UGXU9DZ80PRY8A21D6VY2CGEUVU", "current_trial": 196, "dateTime": 1513099254701, "trialdata": {"rt": -1, "stimulus": "<p id=\"stim\">+</p>", "key_press": -1, "type": "FIXATION", "trial_type": "single-stim", "trial_index": 196, "time_elapsed": 977633, "internal_node_id": "0.0-142.0-0.0"}}, {"uniqueid": "MTK1083:340UGXU9DZ80PRY8A21D6VY2CGEUVU", "current_trial": 197, "dateTime": 1513099256303, "trialdata": {"rt": -1, "stimulus": "<p id=\"stim\">BACON</p>", "key_press": -1, "type": "PRES_VIS", "word": "bacon", "wordID": 66, "conditions": [12, 1600, "v", 24000], "trial": 5, "serialpos": 0, "trial_type": "single-stim", "trial_index": 197, "time_elapsed": 979254, "internal_node_id": "0.0-143.0"}}, {"uniqueid": "MTK1083:340UGXU9DZ80PRY8A21D6VY2CGEUVU", "current_trial": 198, "dateTime": 1513099258995, "trialdata": {"rt": -1, "stimulus": "<p id=\"stim\">DINER</p>", "key_press": -1, "type": "PRES_VIS", "word": "diner", "wordID": 466, "conditions": [12, 1600, "v", 24000], "trial": 5, "serialpos": 1, "trial_type": "single-stim", "trial_index": 198, "time_elapsed": 981946, "internal_node_id": "0.0-144.0"}}, {"uniqueid": "MTK1083:340UGXU9DZ80PRY8A21D6VY2CGEUVU", "current_trial": 199, "dateTime": 1513099261573, "trialdata": {"rt": -1, "stimulus": "<p id=\"stim\">HIKER</p>", "key_press": -1, "type": "PRES_VIS", "word": "hiker", "wordID": 707, "conditions": [12, 1600, "v", 24000], "trial": 5, "serialpos": 2, "trial_type": "single-stim", "trial_index": 199, "time_elapsed": 984523, "internal_node_id": "0.0-145.0"}}, {"uniqueid": "MTK1083:340UGXU9DZ80PRY8A21D6VY2CGEUVU", "current_trial": 200, "dateTime": 1513099264230, "trialdata": {"rt": -1, "stimulus": "<p id=\"stim\">CLIMBER</p>", "key_press": -1, "type": "PRES_VIS", "word": "climber", "wordID": 322, "conditions": [12, 1600, "v", 24000], "trial": 5, "serialpos": 3, "trial_type": "single-stim", "trial_index": 200, "time_elapsed": 987180, "internal_node_id": "0.0-146.0"}}, {"uniqueid": "MTK1083:340UGXU9DZ80PRY8A21D6VY2CGEUVU", "current_trial": 201, "dateTime": 1513099266777, "trialdata": {"rt": -1, "stimulus": "<p id=\"stim\">TRENCH</p>", "key_press": -1, "type": "PRES_VIS", "word": "trench", "wordID": 1502, "conditions": [12, 1600, "v", 24000], "trial": 5, "serialpos": 4, "trial_type": "single-stim", "trial_index": 201, "time_elapsed": 989728, "internal_node_id": "0.0-147.0"}}, {"uniqueid": "MTK1083:340UGXU9DZ80PRY8A21D6VY2CGEUVU", "current_trial": 202, "dateTime": 1513099269490, "trialdata": {"rt": -1, "stimulus": "<p id=\"stim\">TERMITE</p>", "key_press": -1, "type": "PRES_VIS", "word": "termite", "wordID": 1450, "conditions": [12, 1600, "v", 24000], "trial": 5, "serialpos": 5, "trial_type": "single-stim", "trial_index": 202, "time_elapsed": 992441, "internal_node_id": "0.0-148.0"}}, {"uniqueid": "MTK1083:340UGXU9DZ80PRY8A21D6VY2CGEUVU", "current_trial": 203, "dateTime": 1513099271995, "trialdata": {"rt": -1, "stimulus": "<p id=\"stim\">ROBIN</p>", "key_press": -1, "type": "PRES_VIS", "word": "robin", "wordID": 1198, "conditions": [12, 1600, "v", 24000], "trial": 5, "serialpos": 6, "trial_type": "single-stim", "trial_index": 203, "time_elapsed": 994946, "internal_node_id": "0.0-149.0"}}, {"uniqueid": "MTK1083:340UGXU9DZ80PRY8A21D6VY2CGEUVU", "current_trial": 204, "dateTime": 1513099274739, "trialdata": {"rt": -1, "stimulus": "<p id=\"stim\">SANDWICH</p>", "key_press": -1, "type": "PRES_VIS", "word": "sandwich", "wordID": 1231, "conditions": [12, 1600, "v", 24000], "trial": 5, "serialpos": 7, "trial_type": "single-stim", "trial_index": 204, "time_elapsed": 997690, "internal_node_id": "0.0-150.0"}}, {"uniqueid": "MTK1083:340UGXU9DZ80PRY8A21D6VY2CGEUVU", "current_trial": 205, "dateTime": 1513099277180, "trialdata": {"rt": -1, "stimulus": "<p id=\"stim\">TOASTER</p>", "key_press": -1, "type": "PRES_VIS", "word": "toaster", "wordID": 1471, "conditions": [12, 1600, "v", 24000], "trial": 5, "serialpos": 8, "trial_type": "single-stim", "trial_index": 205, "time_elapsed": 1000131, "internal_node_id": "0.0-151.0"}}, {"uniqueid": "MTK1083:340UGXU9DZ80PRY8A21D6VY2CGEUVU", "current_trial": 206, "dateTime": 1513099279810, "trialdata": {"rt": -1, "stimulus": "<p id=\"stim\">ULCER</p>", "key_press": -1, "type": "PRES_VIS", "word": "ulcer", "wordID": 1532, "conditions": [12, 1600, "v", 24000], "trial": 5, "serialpos": 9, "trial_type": "single-stim", "trial_index": 206, "time_elapsed": 1002760, "internal_node_id": "0.0-152.0"}}, {"uniqueid": "MTK1083:340UGXU9DZ80PRY8A21D6VY2CGEUVU", "current_trial": 207, "dateTime": 1513099282448, "trialdata": {"rt": -1, "stimulus": "<p id=\"stim\">FLEET</p>", "key_press": -1, "type": "PRES_VIS", "word": "fleet", "wordID": 577, "conditions": [12, 1600, "v", 24000], "trial": 5, "serialpos": 10, "trial_type": "single-stim", "trial_index": 207, "time_elapsed": 1005399, "internal_node_id": "0.0-153.0"}}, {"uniqueid": "MTK1083:340UGXU9DZ80PRY8A21D6VY2CGEUVU", "current_trial": 208, "dateTime": 1513099285007, "trialdata": {"rt": -1, "stimulus": "<p id=\"stim\">PACKAGE</p>", "key_press": -1, "type": "PRES_VIS", "word": "package", "wordID": 996, "conditions": [12, 1600, "v", 24000], "trial": 5, "serialpos": 11, "trial_type": "single-stim", "trial_index": 208, "time_elapsed": 1007958, "internal_node_id": "0.0-154.0"}}, {"uniqueid": "MTK1083:340UGXU9DZ80PRY8A21D6VY2CGEUVU", "current_trial": 209, "dateTime": 1513099287334, "trialdata": {"rt": -1, "stimulus": "", "key_press": -1, "type": "PRE_RECALL_DELAY", "trial_type": "single-stim", "trial_index": 209, "time_elapsed": 1010285, "internal_node_id": "0.0-155.0-0.0"}}, {"uniqueid": "MTK1083:340UGXU9DZ80PRY8A21D6VY2CGEUVU", "current_trial": 210, "dateTime": 1513099287837, "trialdata": {"rt": -1000, "stimulus": "/static/audio/400Hz.wav", "key_press": -1, "type": "PRE_RECALL_ALERT", "trial_type": "single-audio", "trial_index": 210, "time_elapsed": 1010787, "internal_node_id": "0.0-156.0"}}, {"uniqueid": "MTK1083:340UGXU9DZ80PRY8A21D6VY2CGEUVU", "current_trial": 211, "dateTime": 1513099347849, "trialdata": {"rt": [3291, 6111, 19538, 25605, 27353, 32685, 40434, 44889, 57907], "recwords": ["package", "fleet", "bacon", "climber", "hiker", "termite", "toaster", "robin", "fleet"], "type": "FREE_RECALL", "conditions": [12, 1600, "v", 24000], "trial": 5, "trial_type": "free-recall", "trial_index": 211, "time_elapsed": 1070793, "internal_node_id": "0.0-157.0-0.0"}}, {"uniqueid": "MTK1083:340UGXU9DZ80PRY8A21D6VY2CGEUVU", "current_trial": 212, "dateTime": 1513099351288, "trialdata": {"rt": 1436, "key_press": 32, "type": "INSTRUCTIONS", "trial_type": "text", "trial_index": 212, "time_elapsed": 1074238, "internal_node_id": "0.0-158.0"}}, {"uniqueid": "MTK1083:340UGXU9DZ80PRY8A21D6VY2CGEUVU", "current_trial": 213, "dateTime": 1513099365293, "trialdata": {"rt": [2388, 4674, 6903, 10167], "responses": ["14", "18", "15", "16"], "num1": [4, 8, 7, 1, 3], "num2": [9, 3, 4, 8, 3], "num3": [1, 6, 4, 7, 7], "type": "DISTRACTOR", "conditions": [24, 1600, "v", 12000], "trial": 6, "trial_type": "math-distractor", "trial_index": 213, "time_elapsed": 1088244, "internal_node_id": "0.0-159.0"}}, {"uniqueid": "MTK1083:340UGXU9DZ80PRY8A21D6VY2CGEUVU", "current_trial": 214, "dateTime": 1513099368296, "trialdata": {"rt": -1, "stimulus": "<p id=\"stim\">10</p>", "key_press": -1, "trial_type": "single-stim", "trial_index": 214, "time_elapsed": 1091246, "internal_node_id": "0.0-160.0-0.0"}}, {"uniqueid": "MTK1083:340UGXU9DZ80PRY8A21D6VY2CGEUVU", "current_trial": 215, "dateTime": 1513099369298, "trialdata": {"rt": -1, "stimulus": "<p id=\"stim\">9</p>", "key_press": -1, "trial_type": "single-stim", "trial_index": 215, "time_elapsed": 1092248, "internal_node_id": "0.0-160.0-1.0"}}, {"uniqueid": "MTK1083:340UGXU9DZ80PRY8A21D6VY2CGEUVU", "current_trial": 216, "dateTime": 1513099370300, "trialdata": {"rt": -1, "stimulus": "<p id=\"stim\">8</p>", "key_press": -1, "trial_type": "single-stim", "trial_index": 216, "time_elapsed": 1093250, "internal_node_id": "0.0-160.0-2.0"}}, {"uniqueid": "MTK1083:340UGXU9DZ80PRY8A21D6VY2CGEUVU", "current_trial": 217, "dateTime": 1513099371302, "trialdata": {"rt": -1, "stimulus": "<p id=\"stim\">7</p>", "key_press": -1, "trial_type": "single-stim", "trial_index": 217, "time_elapsed": 1094252, "internal_node_id": "0.0-160.0-3.0"}}, {"uniqueid": "MTK1083:340UGXU9DZ80PRY8A21D6VY2CGEUVU", "current_trial": 218, "dateTime": 1513099372306, "trialdata": {"rt": -1, "stimulus": "<p id=\"stim\">6</p>", "key_press": -1, "trial_type": "single-stim", "trial_index": 218, "time_elapsed": 1095254, "internal_node_id": "0.0-160.0-4.0"}}, {"uniqueid": "MTK1083:340UGXU9DZ80PRY8A21D6VY2CGEUVU", "current_trial": 219, "dateTime": 1513099373308, "trialdata": {"rt": -1, "stimulus": "<p id=\"stim\">5</p>", "key_press": -1, "trial_type": "single-stim", "trial_index": 219, "time_elapsed": 1096259, "internal_node_id": "0.0-160.0-5.0"}}, {"uniqueid": "MTK1083:340UGXU9DZ80PRY8A21D6VY2CGEUVU", "current_trial": 220, "dateTime": 1513099374310, "trialdata": {"rt": -1, "stimulus": "<p id=\"stim\">4</p>", "key_press": -1, "trial_type": "single-stim", "trial_index": 220, "time_elapsed": 1097261, "internal_node_id": "0.0-160.0-6.0"}}, {"uniqueid": "MTK1083:340UGXU9DZ80PRY8A21D6VY2CGEUVU", "current_trial": 221, "dateTime": 1513099375316, "trialdata": {"rt": -1, "stimulus": "<p id=\"stim\">3</p>", "key_press": -1, "trial_type": "single-stim", "trial_index": 221, "time_elapsed": 1098263, "internal_node_id": "0.0-160.0-7.0"}}, {"uniqueid": "MTK1083:340UGXU9DZ80PRY8A21D6VY2CGEUVU", "current_trial": 222, "dateTime": 1513099376318, "trialdata": {"rt": -1, "stimulus": "<p id=\"stim\">2</p>", "key_press": -1, "trial_type": "single-stim", "trial_index": 222, "time_elapsed": 1099269, "internal_node_id": "0.0-160.0-8.0"}}, {"uniqueid": "MTK1083:340UGXU9DZ80PRY8A21D6VY2CGEUVU", "current_trial": 223, "dateTime": 1513099377320, "trialdata": {"rt": -1, "stimulus": "<p id=\"stim\">1</p>", "key_press": -1, "trial_type": "single-stim", "trial_index": 223, "time_elapsed": 1100271, "internal_node_id": "0.0-160.0-9.0"}}, {"uniqueid": "MTK1083:340UGXU9DZ80PRY8A21D6VY2CGEUVU", "current_trial": 224, "dateTime": 1513099378822, "trialdata": {"rt": -1, "stimulus": "<p id=\"stim\">+</p>", "key_press": -1, "type": "FIXATION", "trial_type": "single-stim", "trial_index": 224, "time_elapsed": 1101773, "internal_node_id": "0.0-161.0-0.0"}}, {"uniqueid": "MTK1083:340UGXU9DZ80PRY8A21D6VY2CGEUVU", "current_trial": 225, "dateTime": 1513099380424, "trialdata": {"rt": -1, "stimulus": "<p id=\"stim\">CHILD</p>", "key_press": -1, "type": "PRES_VIS", "word": "child", "wordID": 298, "conditions": [24, 1600, "v", 12000], "trial": 6, "serialpos": 0, "trial_type": "single-stim", "trial_index": 225, "time_elapsed": 1103375, "internal_node_id": "0.0-162.0"}}, {"uniqueid": "MTK1083:340UGXU9DZ80PRY8A21D6VY2CGEUVU", "current_trial": 226, "dateTime": 1513099382993, "trialdata": {"rt": -1, "stimulus": "<p id=\"stim\">SCOTCH</p>", "key_press": -1, "type": "PRES_VIS", "word": "scotch", "wordID": 1250, "conditions": [24, 1600, "v", 12000], "trial": 6, "serialpos": 1, "trial_type": "single-stim", "trial_index": 226, "time_elapsed": 1105944, "internal_node_id": "0.0-163.0"}}, {"uniqueid": "MTK1083:340UGXU9DZ80PRY8A21D6VY2CGEUVU", "current_trial": 227, "dateTime": 1513099385573, "trialdata": {"rt": -1, "stimulus": "<p id=\"stim\">BELLY</p>", "key_press": -1, "type": "PRES_VIS", "word": "belly", "wordID": 118, "conditions": [24, 1600, "v", 12000], "trial": 6, "serialpos": 2, "trial_type": "single-stim", "trial_index": 227, "time_elapsed": 1108524, "internal_node_id": "0.0-164.0"}}, {"uniqueid": "MTK1083:340UGXU9DZ80PRY8A21D6VY2CGEUVU", "current_trial": 228, "dateTime": 1513099388089, "trialdata": {"rt": -1, "stimulus": "<p id=\"stim\">BABY</p>", "key_press": -1, "type": "PRES_VIS", "word": "baby", "wordID": 63, "conditions": [24, 1600, "v", 12000], "trial": 6, "serialpos": 3, "trial_type": "single-stim", "trial_index": 228, "time_elapsed": 1111039, "internal_node_id": "0.0-165.0"}}, {"uniqueid": "MTK1083:340UGXU9DZ80PRY8A21D6VY2CGEUVU", "current_trial": 229, "dateTime": 1513099390512, "trialdata": {"rt": -1, "stimulus": "<p id=\"stim\">WARDROBE</p>", "key_press": -1, "type": "PRES_VIS", "word": "wardrobe", "wordID": 1586, "conditions": [24, 1600, "v", 12000], "trial": 6, "serialpos": 4, "trial_type": "single-stim", "trial_index": 229, "time_elapsed": 1113463, "internal_node_id": "0.0-166.0"}}, {"uniqueid": "MTK1083:340UGXU9DZ80PRY8A21D6VY2CGEUVU", "current_trial": 230, "dateTime": 1513099393197, "trialdata": {"rt": -1, "stimulus": "<p id=\"stim\">COFFEE</p>", "key_press": -1, "type": "PRES_VIS", "word": "coffee", "wordID": 340, "conditions": [24, 1600, "v", 12000], "trial": 6, "serialpos": 5, "trial_type": "single-stim", "trial_index": 230, "time_elapsed": 1116148, "internal_node_id": "0.0-167.0"}}, {"uniqueid": "MTK1083:340UGXU9DZ80PRY8A21D6VY2CGEUVU", "current_trial": 231, "dateTime": 1513099395656, "trialdata": {"rt": -1, "stimulus": "<p id=\"stim\">MATTRESS</p>", "key_press": -1, "type": "PRES_VIS", "word": "mattress", "wordID": 878, "conditions": [24, 1600, "v", 12000], "trial": 6, "serialpos": 6, "trial_type": "single-stim", "trial_index": 231, "time_elapsed": 1118607, "internal_node_id": "0.0-168.0"}}, {"uniqueid": "MTK1083:340UGXU9DZ80PRY8A21D6VY2CGEUVU", "current_trial": 232, "dateTime": 1513099398426, "trialdata": {"rt": -1, "stimulus": "<p id=\"stim\">LAGOON</p>", "key_press": -1, "type": "PRES_VIS", "word": "lagoon", "wordID": 794, "conditions": [24, 1600, "v", 12000], "trial": 6, "serialpos": 7, "trial_type": "single-stim", "trial_index": 232, "time_elapsed": 1121376, "internal_node_id": "0.0-169.0"}}, {"uniqueid": "MTK1083:340UGXU9DZ80PRY8A21D6VY2CGEUVU", "current_trial": 233, "dateTime": 1513099401217, "trialdata": {"rt": -1, "stimulus": "<p id=\"stim\">CANAL</p>", "key_press": -1, "type": "PRES_VIS", "word": "canal", "wordID": 225, "conditions": [24, 1600, "v", 12000], "trial": 6, "serialpos": 8, "trial_type": "single-stim", "trial_index": 233, "time_elapsed": 1124168, "internal_node_id": "0.0-170.0"}}, {"uniqueid": "MTK1083:340UGXU9DZ80PRY8A21D6VY2CGEUVU", "current_trial": 234, "dateTime": 1513099403989, "trialdata": {"rt": -1, "stimulus": "<p id=\"stim\">BRANDY</p>", "key_press": -1, "type": "PRES_VIS", "word": "brandy", "wordID": 168, "conditions": [24, 1600, "v", 12000], "trial": 6, "serialpos": 9, "trial_type": "single-stim", "trial_index": 234, "time_elapsed": 1126940, "internal_node_id": "0.0-171.0"}}, {"uniqueid": "MTK1083:340UGXU9DZ80PRY8A21D6VY2CGEUVU", "current_trial": 235, "dateTime": 1513099406565, "trialdata": {"rt": -1, "stimulus": "<p id=\"stim\">CHURCH</p>", "key_press": -1, "type": "PRES_VIS", "word": "church", "wordID": 306, "conditions": [24, 1600, "v", 12000], "trial": 6, "serialpos": 10, "trial_type": "single-stim", "trial_index": 235, "time_elapsed": 1129516, "internal_node_id": "0.0-172.0"}}, {"uniqueid": "MTK1083:340UGXU9DZ80PRY8A21D6VY2CGEUVU", "current_trial": 236, "dateTime": 1513099409166, "trialdata": {"rt": -1, "stimulus": "<p id=\"stim\">LASER</p>", "key_press": -1, "type": "PRES_VIS", "word": "laser", "wordID": 800, "conditions": [24, 1600, "v", 12000], "trial": 6, "serialpos": 11, "trial_type": "single-stim", "trial_index": 236, "time_elapsed": 1132116, "internal_node_id": "0.0-173.0"}}, {"uniqueid": "MTK1083:340UGXU9DZ80PRY8A21D6VY2CGEUVU", "current_trial": 237, "dateTime": 1513099411744, "trialdata": {"rt": -1, "stimulus": "<p id=\"stim\">CANYON</p>", "key_press": -1, "type": "PRES_VIS", "word": "canyon", "wordID": 234, "conditions": [24, 1600, "v", 12000], "trial": 6, "serialpos": 12, "trial_type": "single-stim", "trial_index": 237, "time_elapsed": 1134694, "internal_node_id": "0.0-174.0"}}, {"uniqueid": "MTK1083:340UGXU9DZ80PRY8A21D6VY2CGEUVU", "current_trial": 238, "dateTime": 1513099414334, "trialdata": {"rt": -1, "stimulus": "<p id=\"stim\">STAMP</p>", "key_press": -1, "type": "PRES_VIS", "word": "stamp", "wordID": 1369, "conditions": [24, 1600, "v", 12000], "trial": 6, "serialpos": 13, "trial_type": "single-stim", "trial_index": 238, "time_elapsed": 1137285, "internal_node_id": "0.0-175.0"}}, {"uniqueid": "MTK1083:340UGXU9DZ80PRY8A21D6VY2CGEUVU", "current_trial": 239, "dateTime": 1513099416812, "trialdata": {"rt": -1, "stimulus": "<p id=\"stim\">CLOCK</p>", "key_press": -1, "type": "PRES_VIS", "word": "clock", "wordID": 324, "conditions": [24, 1600, "v", 12000], "trial": 6, "serialpos": 14, "trial_type": "single-stim", "trial_index": 239, "time_elapsed": 1139763, "internal_node_id": "0.0-176.0"}}, {"uniqueid": "MTK1083:340UGXU9DZ80PRY8A21D6VY2CGEUVU", "current_trial": 240, "dateTime": 1513099419431, "trialdata": {"rt": -1, "stimulus": "<p id=\"stim\">VALLEY</p>", "key_press": -1, "type": "PRES_VIS", "word": "valley", "wordID": 1544, "conditions": [24, 1600, "v", 12000], "trial": 6, "serialpos": 15, "trial_type": "single-stim", "trial_index": 240, "time_elapsed": 1142382, "internal_node_id": "0.0-177.0"}}, {"uniqueid": "MTK1083:340UGXU9DZ80PRY8A21D6VY2CGEUVU", "current_trial": 241, "dateTime": 1513099422017, "trialdata": {"rt": -1, "stimulus": "<p id=\"stim\">CLOTHES</p>", "key_press": -1, "type": "PRES_VIS", "word": "clothes", "wordID": 326, "conditions": [24, 1600, "v", 12000], "trial": 6, "serialpos": 16, "trial_type": "single-stim", "trial_index": 241, "time_elapsed": 1144968, "internal_node_id": "0.0-178.0"}}, {"uniqueid": "MTK1083:340UGXU9DZ80PRY8A21D6VY2CGEUVU", "current_trial": 242, "dateTime": 1513099424654, "trialdata": {"rt": -1, "stimulus": "<p id=\"stim\">NIGHTGOWN</p>", "key_press": -1, "type": "PRES_VIS", "word": "nightgown", "wordID": 952, "conditions": [24, 1600, "v", 12000], "trial": 6, "serialpos": 17, "trial_type": "single-stim", "trial_index": 242, "time_elapsed": 1147604, "internal_node_id": "0.0-179.0"}}, {"uniqueid": "MTK1083:340UGXU9DZ80PRY8A21D6VY2CGEUVU", "current_trial": 243, "dateTime": 1513099427282, "trialdata": {"rt": -1, "stimulus": "<p id=\"stim\">HOOD</p>", "key_press": -1, "type": "PRES_VIS", "word": "hood", "wordID": 713, "conditions": [24, 1600, "v", 12000], "trial": 6, "serialpos": 18, "trial_type": "single-stim", "trial_index": 243, "time_elapsed": 1150233, "internal_node_id": "0.0-180.0"}}, {"uniqueid": "MTK1083:340UGXU9DZ80PRY8A21D6VY2CGEUVU", "current_trial": 244, "dateTime": 1513099429866, "trialdata": {"rt": -1, "stimulus": "<p id=\"stim\">BEAKER</p>", "key_press": -1, "type": "PRES_VIS", "word": "beaker", "wordID": 103, "conditions": [24, 1600, "v", 12000], "trial": 6, "serialpos": 19, "trial_type": "single-stim", "trial_index": 244, "time_elapsed": 1152817, "internal_node_id": "0.0-181.0"}}, {"uniqueid": "MTK1083:340UGXU9DZ80PRY8A21D6VY2CGEUVU", "current_trial": 245, "dateTime": 1513099432320, "trialdata": {"rt": -1, "stimulus": "<p id=\"stim\">COUSIN</p>", "key_press": -1, "type": "PRES_VIS", "word": "cousin", "wordID": 391, "conditions": [24, 1600, "v", 12000], "trial": 6, "serialpos": 20, "trial_type": "single-stim", "trial_index": 245, "time_elapsed": 1155271, "internal_node_id": "0.0-182.0"}}, {"uniqueid": "MTK1083:340UGXU9DZ80PRY8A21D6VY2CGEUVU", "current_trial": 246, "dateTime": 1513099435063, "trialdata": {"rt": -1, "stimulus": "<p id=\"stim\">MUFFIN</p>", "key_press": -1, "type": "PRES_VIS", "word": "muffin", "wordID": 928, "conditions": [24, 1600, "v", 12000], "trial": 6, "serialpos": 21, "trial_type": "single-stim", "trial_index": 246, "time_elapsed": 1158013, "internal_node_id": "0.0-183.0"}}, {"uniqueid": "MTK1083:340UGXU9DZ80PRY8A21D6VY2CGEUVU", "current_trial": 247, "dateTime": 1513099437860, "trialdata": {"rt": -1, "stimulus": "<p id=\"stim\">CARROT</p>", "key_press": -1, "type": "PRES_VIS", "word": "carrot", "wordID": 248, "conditions": [24, 1600, "v", 12000], "trial": 6, "serialpos": 22, "trial_type": "single-stim", "trial_index": 247, "time_elapsed": 1160811, "internal_node_id": "0.0-184.0"}}, {"uniqueid": "MTK1083:340UGXU9DZ80PRY8A21D6VY2CGEUVU", "current_trial": 248, "dateTime": 1513099440597, "trialdata": {"rt": -1, "stimulus": "<p id=\"stim\">KITCHEN</p>", "key_press": -1, "type": "PRES_VIS", "word": "kitchen", "wordID": 777, "conditions": [24, 1600, "v", 12000], "trial": 6, "serialpos": 23, "trial_type": "single-stim", "trial_index": 248, "time_elapsed": 1163544, "internal_node_id": "0.0-185.0"}}, {"uniqueid": "MTK1083:340UGXU9DZ80PRY8A21D6VY2CGEUVU", "current_trial": 249, "dateTime": 1513099442673, "trialdata": {"rt": -1, "stimulus": "", "key_press": -1, "type": "PRE_RECALL_DELAY", "trial_type": "single-stim", "trial_index": 249, "time_elapsed": 1165623, "internal_node_id": "0.0-186.0-0.0"}}, {"uniqueid": "MTK1083:340UGXU9DZ80PRY8A21D6VY2CGEUVU", "current_trial": 250, "dateTime": 1513099443174, "trialdata": {"rt": -1000, "stimulus": "/static/audio/400Hz.wav", "key_press": -1, "type": "PRE_RECALL_ALERT", "trial_type": "single-audio", "trial_index": 250, "time_elapsed": 1166125, "internal_node_id": "0.0-187.0"}}, {"uniqueid": "MTK1083:340UGXU9DZ80PRY8A21D6VY2CGEUVU", "current_trial": 251, "dateTime": 1513099503190, "trialdata": {"rt": [3412, 4802, 6394, 8443, 13371, 16820, 29079, 32314, 38684, 40509, 56485], "recwords": ["cousin", "carrot", "muffin", "kitchen", "child", "brandy", "coffee", "wardrobe", "trnch", "church", "clothes"], "type": "FREE_RECALL", "conditions": [24, 1600, "v", 12000], "trial": 6, "trial_type": "free-recall", "trial_index": 251, "time_elapsed": 1226131, "internal_node_id": "0.0-188.0-0.0"}}, {"uniqueid": "MTK1083:340UGXU9DZ80PRY8A21D6VY2CGEUVU", "current_trial": 252, "dateTime": 1513099512183, "trialdata": {"rt": 6991, "key_press": 32, "type": "INSTRUCTIONS", "trial_type": "text", "trial_index": 252, "time_elapsed": 1235134, "internal_node_id": "0.0-189.0"}}, {"uniqueid": "MTK1083:340UGXU9DZ80PRY8A21D6VY2CGEUVU", "current_trial": 253, "dateTime": 1513099526188, "trialdata": {"rt": [2359, 6053, 8601], "responses": ["11", "18", "19"], "num1": [4, 6, 4, 9], "num2": [4, 7, 8, 3], "num3": [3, 5, 7, 2], "type": "DISTRACTOR", "conditions": [12, 800, "a", 12000], "trial": 7, "trial_type": "math-distractor", "trial_index": 253, "time_elapsed": 1249139, "internal_node_id": "0.0-190.0"}}, {"uniqueid": "MTK1083:340UGXU9DZ80PRY8A21D6VY2CGEUVU", "current_trial": 254, "dateTime": 1513099529192, "trialdata": {"rt": -1, "stimulus": "<p id=\"stim\">10</p>", "key_press": -1, "trial_type": "single-stim", "trial_index": 254, "time_elapsed": 1252142, "internal_node_id": "0.0-191.0-0.0"}}, {"uniqueid": "MTK1083:340UGXU9DZ80PRY8A21D6VY2CGEUVU", "current_trial": 255, "dateTime": 1513099530194, "trialdata": {"rt": -1, "stimulus": "<p id=\"stim\">9</p>", "key_press": -1, "trial_type": "single-stim", "trial_index": 255, "time_elapsed": 1253145, "internal_node_id": "0.0-191.0-1.0"}}, {"uniqueid": "MTK1083:340UGXU9DZ80PRY8A21D6VY2CGEUVU", "current_trial": 256, "dateTime": 1513099531196, "trialdata": {"rt": -1, "stimulus": "<p id=\"stim\">8</p>", "key_press": -1, "trial_type": "single-stim", "trial_index": 256, "time_elapsed": 1254147, "internal_node_id": "0.0-191.0-2.0"}}, {"uniqueid": "MTK1083:340UGXU9DZ80PRY8A21D6VY2CGEUVU", "current_trial": 257, "dateTime": 1513099532198, "trialdata": {"rt": -1, "stimulus": "<p id=\"stim\">7</p>", "key_press": -1, "trial_type": "single-stim", "trial_index": 257, "time_elapsed": 1255149, "internal_node_id": "0.0-191.0-3.0"}}, {"uniqueid": "MTK1083:340UGXU9DZ80PRY8A21D6VY2CGEUVU", "current_trial": 258, "dateTime": 1513099533200, "trialdata": {"rt": -1, "stimulus": "<p id=\"stim\">6</p>", "key_press": -1, "trial_type": "single-stim", "trial_index": 258, "time_elapsed": 1256151, "internal_node_id": "0.0-191.0-4.0"}}, {"uniqueid": "MTK1083:340UGXU9DZ80PRY8A21D6VY2CGEUVU", "current_trial": 259, "dateTime": 1513099534202, "trialdata": {"rt": -1, "stimulus": "<p id=\"stim\">5</p>", "key_press": -1, "trial_type": "single-stim", "trial_index": 259, "time_elapsed": 1257153, "internal_node_id": "0.0-191.0-5.0"}}, {"uniqueid": "MTK1083:340UGXU9DZ80PRY8A21D6VY2CGEUVU", "current_trial": 260, "dateTime": 1513099535208, "trialdata": {"rt": -1, "stimulus": "<p id=\"stim\">4</p>", "key_press": -1, "trial_type": "single-stim", "trial_index": 260, "time_elapsed": 1258155, "internal_node_id": "0.0-191.0-6.0"}}, {"uniqueid": "MTK1083:340UGXU9DZ80PRY8A21D6VY2CGEUVU", "current_trial": 261, "dateTime": 1513099536210, "trialdata": {"rt": -1, "stimulus": "<p id=\"stim\">3</p>", "key_press": -1, "trial_type": "single-stim", "trial_index": 261, "time_elapsed": 1259161, "internal_node_id": "0.0-191.0-7.0"}}, {"uniqueid": "MTK1083:340UGXU9DZ80PRY8A21D6VY2CGEUVU", "current_trial": 262, "dateTime": 1513099537212, "trialdata": {"rt": -1, "stimulus": "<p id=\"stim\">2</p>", "key_press": -1, "trial_type": "single-stim", "trial_index": 262, "time_elapsed": 1260163, "internal_node_id": "0.0-191.0-8.0"}}, {"uniqueid": "MTK1083:340UGXU9DZ80PRY8A21D6VY2CGEUVU", "current_trial": 263, "dateTime": 1513099538214, "trialdata": {"rt": -1, "stimulus": "<p id=\"stim\">1</p>", "key_press": -1, "trial_type": "single-stim", "trial_index": 263, "time_elapsed": 1261165, "internal_node_id": "0.0-191.0-9.0"}}, {"uniqueid": "MTK1083:340UGXU9DZ80PRY8A21D6VY2CGEUVU", "current_trial": 264, "dateTime": 1513099539716, "trialdata": {"rt": -1, "stimulus": "<p id=\"stim\">+</p>", "key_press": -1, "type": "FIXATION", "trial_type": "single-stim", "trial_index": 264, "time_elapsed": 1262667, "internal_node_id": "0.0-192.0-0.0"}}, {"uniqueid": "MTK1083:340UGXU9DZ80PRY8A21D6VY2CGEUVU", "current_trial": 265, "dateTime": 1513099541398, "trialdata": {"rt": -1000, "stimulus": "/static/audio/wordpool/BRICK.wav", "key_press": -1, "type": "PRES_AUD", "word": "brick", "wordID": 171, "conditions": [12, 800, "a", 12000], "trial": 7, "serialpos": 0, "trial_type": "single-audio", "trial_index": 265, "time_elapsed": 1264349, "internal_node_id": "0.0-193.0"}}, {"uniqueid": "MTK1083:340UGXU9DZ80PRY8A21D6VY2CGEUVU", "current_trial": 266, "dateTime": 1513099543111, "trialdata": {"rt": -1000, "stimulus": "/static/audio/wordpool/PANTHER.wav", "key_press": -1, "type": "PRES_AUD", "word": "panther", "wordID": 1008, "conditions": [12, 800, "a", 12000], "trial": 7, "serialpos": 1, "trial_type": "single-audio", "trial_index": 266, "time_elapsed": 1266062, "internal_node_id": "0.0-194.0"}}, {"uniqueid": "MTK1083:340UGXU9DZ80PRY8A21D6VY2CGEUVU", "current_trial": 267, "dateTime": 1513099544731, "trialdata": {"rt": -1000, "stimulus": "/static/audio/wordpool/SKILLET.wav", "key_press": -1, "type": "PRES_AUD", "word": "skillet", "wordID": 1316, "conditions": [12, 800, "a", 12000], "trial": 7, "serialpos": 2, "trial_type": "single-audio", "trial_index": 267, "time_elapsed": 1267681, "internal_node_id": "0.0-195.0"}}, {"uniqueid": "MTK1083:340UGXU9DZ80PRY8A21D6VY2CGEUVU", "current_trial": 268, "dateTime": 1513099546630, "trialdata": {"rt": -1000, "stimulus": "/static/audio/wordpool/ORANGE.wav", "key_press": -1, "type": "PRES_AUD", "word": "orange", "wordID": 979, "conditions": [12, 800, "a", 12000], "trial": 7, "serialpos": 3, "trial_type": "single-audio", "trial_index": 268, "time_elapsed": 1269581, "internal_node_id": "0.0-196.0"}}, {"uniqueid": "MTK1083:340UGXU9DZ80PRY8A21D6VY2CGEUVU", "current_trial": 269, "dateTime": 1513099548466, "trialdata": {"rt": -1000, "stimulus": "/static/audio/wordpool/SHORTS.wav", "key_press": -1, "type": "PRES_AUD", "word": "shorts", "wordID": 1292, "conditions": [12, 800, "a", 12000], "trial": 7, "serialpos": 4, "trial_type": "single-audio", "trial_index": 269, "time_elapsed": 1271416, "internal_node_id": "0.0-197.0"}}, {"uniqueid": "MTK1083:340UGXU9DZ80PRY8A21D6VY2CGEUVU", "current_trial": 270, "dateTime": 1513099550105, "trialdata": {"rt": -1000, "stimulus": "/static/audio/wordpool/EMPIRE.wav", "key_press": -1, "type": "PRES_AUD", "word": "empire", "wordID": 529, "conditions": [12, 800, "a", 12000], "trial": 7, "serialpos": 5, "trial_type": "single-audio", "trial_index": 270, "time_elapsed": 1273055, "internal_node_id": "0.0-198.0"}}, {"uniqueid": "MTK1083:340UGXU9DZ80PRY8A21D6VY2CGEUVU", "current_trial": 271, "dateTime": 1513099552090, "trialdata": {"rt": -1000, "stimulus": "/static/audio/wordpool/FOX.wav", "key_press": -1, "type": "PRES_AUD", "word": "fox", "wordID": 597, "conditions": [12, 800, "a", 12000], "trial": 7, "