{"assignmentId": "3GU1KF0O4J88O8S6OZBJVDHW4S5PBV", "workerId": "MTK1757", "questiondata": {"origin": "United States", "strat-rehearsal": "28", "marital": "Married/Domestic Partnership", "education": "Some college", "ethnicity": "Not Hispanic", "color_depth": 24, "distracted": "No", "wrote-notes": "No", "strat-other": "", "screen_width": 1360, "avail_screen_width": 1360, "avail_screen_height": 728, "strat-image": "40", "language": "english", "gender": "Female", "age": "31", "gender_other": "", "race": ["White"], "strat-categorize": "63", "pixel_depth": 24, "strat-spatial": "1", "strat-story": "5", "race_other": "", "screen_height": 768}, "bonus": 0, "hitId": "3UZUVSO3P72YNO9JG8GFQXX2KP1ME7", "counterbalance": 608, "useragent": "Mozilla/5.0 (Windows NT 10.0; Win64; x64) AppleWebKit/537.36 (KHTML, like Gecko) Chrome/63.0.3239.132 Safari/537.36", "eventdata": [{"eventtype": "initialized", "interval": 0, "value": null, "timestamp": 1516295005142}, {"eventtype": "window_resize", "interval": 0, "value": [1360, 677], "timestamp": 1516295005142}, {"eventtype": "focus", "interval": 9687, "value": "off", "timestamp": 1516295014829}, {"eventtype": "focus", "interval": 35504, "value": "on", "timestamp": 1516295050333}, {"eventtype": "window_resize", "interval": 70200, "value": [956, 641], "timestamp": 1516295120533}, {"eventtype": "window_resize", "interval": 2248, "value": [1360, 677], "timestamp": 1516295122781}, {"eventtype": "focus", "interval": 2900, "value": "off", "timestamp": 1516295125681}, {"eventtype": "focus", "interval": 153, "value": "on", "timestamp": 1516295125834}, {"eventtype": "focus", "interval": 27173, "value": "off", "timestamp": 1516295153007}, {"eventtype": "focus", "interval": 2272, "value": "on", "timestamp": 1516295155279}, {"eventtype": "focus", "interval": 393803, "value": "off", "timestamp": 1516295549082}, {"eventtype": "focus", "interval": 4370, "value": "on", "timestamp": 1516295553452}, {"eventtype": "focus", "interval": 3774, "value": "off", "timestamp": 1516295557226}, {"eventtype": "focus", "interval": 7096, "value": "on", "timestamp": 1516295564322}, {"eventtype": "focus", "interval": 1400993, "value": "off", "timestamp": 1516296965315}, {"eventtype": "focus", "interval": 16108, "value": "on", "timestamp": 1516296981423}, {"eventtype": "focus", "interval": 260780, "value": "off", "timestamp": 1516297242203}, {"eventtype": "focus", "interval": 58402, "value": "on", "timestamp": 1516297300605}, {"eventtype": "focus", "interval": 156133, "value": "off", "timestamp": 1516297456738}, {"eventtype": "focus", "interval": 34948, "value": "on", "timestamp": 1516297491686}, {"eventtype": "focus", "interval": 101302, "value": "off", "timestamp": 1516297592988}, {"eventtype": "focus", "interval": 25576, "value": "on", "timestamp": 1516297618564}, {"eventtype": "focus", "interval": 137444, "value": "off", "timestamp": 1516297756008}, {"eventtype": "focus", "interval": 3169, "value": "on", "timestamp": 1516297759177}, {"eventtype": "focus", "interval": 1045, "value": "off", "timestamp": 1516297760222}, {"eventtype": "focus", "interval": 51685, "value": "on", "timestamp": 1516297811907}, {"eventtype": "focus", "interval": 120041, "value": "off", "timestamp": 1516297931948}, {"eventtype": "focus", "interval": 16481, "value": "on", "timestamp": 1516297948429}, {"eventtype": "window_resize", "interval": 172884, "value": [956, 641], "timestamp": 1516298121313}, {"eventtype": "window_resize", "interval": 2232, "value": [1360, 677], "timestamp": 1516298123545}, {"eventtype": "focus", "interval": 1158, "value": "off", "timestamp": 1516298124703}, {"eventtype": "focus", "interval": 26450, "value": "on", "timestamp": 1516298151153}, {"eventtype": "focus", "interval": 10338, "value": "off", "timestamp": 1516298161491}, {"eventtype": "focus", "interval": 217074, "value": "on", "timestamp": 1516298378565}], "data": [{"current_trial": 0, "trialdata": {"rt": 9662, "trial_type": "text", "internal_node_id": "0.0-0.0", "time_elapsed": 9670, "key_press": 32, "type": "INSTRUCTIONS", "trial_index": 0}, "uniqueid": "MTK1757:3GU1KF0O4J88O8S6OZBJVDHW4S5PBV", "dateTime": 1516295052306}, {"current_trial": 1, "trialdata": {"rt": 87548, "trial_type": "text", "internal_node_id": "0.0-1.0", "time_elapsed": 97224, "key_press": 32, "type": "INSTRUCTIONS", "trial_index": 1}, "uniqueid": "MTK1757:3GU1KF0O4J88O8S6OZBJVDHW4S5PBV", "dateTime": 1516295139857}, {"current_trial": 2, "trialdata": {"rt": [20830], "trial_type": "audio-test", "responses": ["ocean"], "internal_node_id": "0.0-2.0", "time_elapsed": 118109, "type": "AUDIO_TEST", "trial_index": 2}, "uniqueid": "MTK1757:3GU1KF0O4J88O8S6OZBJVDHW4S5PBV", "dateTime": 1516295160742}, {"current_trial": 3, "trialdata": {"rt": [7614], "trial_type": "audio-test", "responses": ["crystal"], "internal_node_id": "0.0-3.0", "time_elapsed": 125727, "type": "AUDIO_TEST", "trial_index": 3}, "uniqueid": "MTK1757:3GU1KF0O4J88O8S6OZBJVDHW4S5PBV", "dateTime": 1516295168360}, {"current_trial": 4, "trialdata": {"rt": [8023], "trial_type": "audio-test", "responses": ["spice"], "internal_node_id": "0.0-4.0", "time_elapsed": 133754, "type": "AUDIO_TEST", "trial_index": 4}, "uniqueid": "MTK1757:3GU1KF0O4J88O8S6OZBJVDHW4S5PBV", "dateTime": 1516295176387}, {"current_trial": 5, "trialdata": {"rt": 35003, "trial_type": "survey-text", "responses": "{\"Q0\":\"11 pm\",\"Q1\":\"6:30 am\",\"Q2\":\"5\"}", "internal_node_id": "0.0-5.0", "time_elapsed": 169514, "type": "SLEEP_SURVEY", "trial_index": 5}, "uniqueid": "MTK1757:3GU1KF0O4J88O8S6OZBJVDHW4S5PBV", "dateTime": 1516295212147}, {"current_trial": 6, "trialdata": {"rt": 65967, "trial_type": "text", "internal_node_id": "0.0-6.0", "time_elapsed": 236483, "key_press": 32, "type": "INSTRUCTIONS", "trial_index": 6}, "uniqueid": "MTK1757:3GU1KF0O4J88O8S6OZBJVDHW4S5PBV", "dateTime": 1516295279117}, {"current_trial": 7, "trialdata": {"rt": 226274, "trial_type": "text", "internal_node_id": "0.0-7.0", "time_elapsed": 463261, "key_press": 32, "type": "INSTRUCTIONS", "trial_index": 7}, "uniqueid": "MTK1757:3GU1KF0O4J88O8S6OZBJVDHW4S5PBV", "dateTime": 1516295505894}, {"current_trial": 8, "trialdata": {"rt": 38978, "trial_type": "text", "internal_node_id": "0.0-8.0", "time_elapsed": 502744, "key_press": 32, "type": "INSTRUCTIONS", "trial_index": 8}, "uniqueid": "MTK1757:3GU1KF0O4J88O8S6OZBJVDHW4S5PBV", "dateTime": 1516295545377}, {"current_trial": 9, "trialdata": {"rt": [8864], "trial_type": "math-distractor", "key_times": [7995, 8449, 8864], "responses": ["24"], "num2": [8, 9], "num3": [8, 8], "conditions": [18, 1200, "a", 18000], "internal_node_id": "0.0-9.0", "key_presses": [50, 52, 13], "trial": 0, "time_elapsed": 521756, "type": "DISTRACTOR", "trial_index": 9, "num1": [8, 3]}, "uniqueid": "MTK1757:3GU1KF0O4J88O8S6OZBJVDHW4S5PBV", "dateTime": 1516295564389}, {"current_trial": 10, "trialdata": {"rt": -1, "trial_type": "single-stim", "stimulus": "<p id=\"stim\">10</p>", "internal_node_id": "0.0-10.0-0.0", "time_elapsed": 524759, "key_press": -1, "trial_index": 10}, "uniqueid": "MTK1757:3GU1KF0O4J88O8S6OZBJVDHW4S5PBV", "dateTime": 1516295567393}, {"current_trial": 11, "trialdata": {"rt": -1, "trial_type": "single-stim", "stimulus": "<p id=\"stim\">9</p>", "internal_node_id": "0.0-10.0-1.0", "time_elapsed": 525762, "key_press": -1, "trial_index": 11}, "uniqueid": "MTK1757:3GU1KF0O4J88O8S6OZBJVDHW4S5PBV", "dateTime": 1516295568395}, {"current_trial": 12, "trialdata": {"rt": -1, "trial_type": "single-stim", "stimulus": "<p id=\"stim\">8</p>", "internal_node_id": "0.0-10.0-2.0", "time_elapsed": 526767, "key_press": -1, "trial_index": 12}, "uniqueid": "MTK1757:3GU1KF0O4J88O8S6OZBJVDHW4S5PBV", "dateTime": 1516295569400}, {"current_trial": 13, "trialdata": {"rt": -1, "trial_type": "single-stim", "stimulus": "<p id=\"stim\">7</p>", "internal_node_id": "0.0-10.0-3.0", "time_elapsed": 527768, "key_press": -1, "trial_index": 13}, "uniqueid": "MTK1757:3GU1KF0O4J88O8S6OZBJVDHW4S5PBV", "dateTime": 1516295570402}, {"current_trial": 14, "trialdata": {"rt": -1, "trial_type": "single-stim", "stimulus": "<p id=\"stim\">6</p>", "internal_node_id": "0.0-10.0-4.0", "time_elapsed": 528771, "key_press": -1, "trial_index": 14}, "uniqueid": "MTK1757:3GU1KF0O4J88O8S6OZBJVDHW4S5PBV", "dateTime": 1516295571404}, {"current_trial": 15, "trialdata": {"rt": -1, "trial_type": "single-stim", "stimulus": "<p id=\"stim\">5</p>", "internal_node_id": "0.0-10.0-5.0", "time_elapsed": 529773, "key_press": -1, "trial_index": 15}, "uniqueid": "MTK1757:3GU1KF0O4J88O8S6OZBJVDHW4S5PBV", "dateTime": 1516295572407}, {"current_trial": 16, "trialdata": {"rt": -1, "trial_type": "single-stim", "stimulus": "<p id=\"stim\">4</p>", "internal_node_id": "0.0-10.0-6.0", "time_elapsed": 530776, "key_press": -1, "trial_index": 16}, "uniqueid": "MTK1757:3GU1KF0O4J88O8S6OZBJVDHW4S5PBV", "dateTime": 1516295573409}, {"current_trial": 17, "trialdata": {"rt": -1, "trial_type": "single-stim", "stimulus": "<p id=\"stim\">3</p>", "internal_node_id": "0.0-10.0-7.0", "time_elapsed": 531779, "key_press": -1, "trial_index": 17}, "uniqueid": "MTK1757:3GU1KF0O4J88O8S6OZBJVDHW4S5PBV", "dateTime": 1516295574412}, {"current_trial": 18, "trialdata": {"rt": -1, "trial_type": "single-stim", "stimulus": "<p id=\"stim\">2</p>", "internal_node_id": "0.0-10.0-8.0", "time_elapsed": 532783, "key_press": -1, "trial_index": 18}, "uniqueid": "MTK1757:3GU1KF0O4J88O8S6OZBJVDHW4S5PBV", "dateTime": 1516295575416}, {"current_trial": 19, "trialdata": {"rt": -1, "trial_type": "single-stim", "stimulus": "<p id=\"stim\">1</p>", "internal_node_id": "0.0-10.0-9.0", "time_elapsed": 533784, "key_press": -1, "trial_index": 19}, "uniqueid": "MTK1757:3GU1KF0O4J88O8S6OZBJVDHW4S5PBV", "dateTime": 1516295576417}, {"current_trial": 20, "trialdata": {"rt": -1, "trial_type": "single-stim", "stimulus": "<p id=\"stim\">+</p>", "internal_node_id": "0.0-11.0-0.0", "time_elapsed": 535286, "key_press": -1, "type": "FIXATION", "trial_index": 20}, "uniqueid": "MTK1757:3GU1KF0O4J88O8S6OZBJVDHW4S5PBV", "dateTime": 1516295577919}, {"current_trial": 21, "trialdata": {"rt": -1000, "trial_type": "single-audio", "word": "hornet", "stimulus": "/static/audio/wordpool/HORNET.wav", "conditions": [18, 1200, "a", 18000], "internal_node_id": "0.0-12.0", "trial": 0, "time_elapsed": 537488, "serialpos": 0, "key_press": -1, "wordID": 717, "type": "PRES_AUD", "trial_index": 21}, "uniqueid": "MTK1757:3GU1KF0O4J88O8S6OZBJVDHW4S5PBV", "dateTime": 1516295580121}, {"current_trial": 22, "trialdata": {"rt": -1000, "trial_type": "single-audio", "word": "captive", "stimulus": "/static/audio/wordpool/CAPTIVE.wav", "conditions": [18, 1200, "a", 18000], "internal_node_id": "0.0-13.0", "trial": 0, "time_elapsed": 539840, "serialpos": 1, "key_press": -1, "wordID": 239, "type": "PRES_AUD", "trial_index": 22}, "uniqueid": "MTK1757:3GU1KF0O4J88O8S6OZBJVDHW4S5PBV", "dateTime": 1516295582473}, {"current_trial": 23, "trialdata": {"rt": -1000, "trial_type": "single-audio", "word": "washer", "stimulus": "/static/audio/wordpool/WASHER.wav", "conditions": [18, 1200, "a", 18000], "internal_node_id": "0.0-14.0", "trial": 0, "time_elapsed": 542089, "serialpos": 2, "key_press": -1, "wordID": 1591, "type": "PRES_AUD", "trial_index": 23}, "uniqueid": "MTK1757:3GU1KF0O4J88O8S6OZBJVDHW4S5PBV", "dateTime": 1516295584723}, {"current_trial": 24, "trialdata": {"rt": -1000, "trial_type": "single-audio", "word": "flag", "stimulus": "/static/audio/wordpool/FLAG.wav", "conditions": [18, 1200, "a", 18000], "internal_node_id": "0.0-15.0", "trial": 0, "time_elapsed": 544369, "serialpos": 3, "key_press": -1, "wordID": 572, "type": "PRES_AUD", "trial_index": 24}, "uniqueid": "MTK1757:3GU1KF0O4J88O8S6OZBJVDHW4S5PBV", "dateTime": 1516295587002}, {"current_trial": 25, "trialdata": {"rt": -1000, "trial_type": "single-audio", "word": "france", "stimulus": "/static/audio/wordpool/FRANCE.wav", "conditions": [18, 1200, "a", 18000], "internal_node_id": "0.0-16.0", "trial": 0, "time_elapsed": 546528, "serialpos": 4, "key_press": -1, "wordID": 600, "type": "PRES_AUD", "trial_index": 25}, "uniqueid": "MTK1757:3GU1KF0O4J88O8S6OZBJVDHW4S5PBV", "dateTime": 1516295589161}, {"current_trial": 26, "trialdata": {"rt": -1000, "trial_type": "single-audio", "word": "hedge", "stimulus": "/static/audio/wordpool/HEDGE.wav", "conditions": [18, 1200, "a", 18000], "internal_node_id": "0.0-17.0", "trial": 0, "time_elapsed": 548888, "serialpos": 5, "key_press": -1, "wordID": 698, "type": "PRES_AUD", "trial_index": 26}, "uniqueid": "MTK1757:3GU1KF0O4J88O8S6OZBJVDHW4S5PBV", "dateTime": 1516295591522}, {"current_trial": 27, "trialdata": {"rt": 1908.5260770974628, "trial_type": "single-audio", "word": "sponge", "stimulus": "/static/audio/wordpool/SPONGE.wav", "conditions": [18, 1200, "a", 18000], "internal_node_id": "0.0-18.0", "trial": 0, "time_elapsed": 551198, "serialpos": 6, "key_press": 175, "wordID": 1354, "type": "PRES_AUD", "trial_index": 27}, "uniqueid": "MTK1757:3GU1KF0O4J88O8S6OZBJVDHW4S5PBV", "dateTime": 1516295593831}, {"current_trial": 28, "trialdata": {"rt": -50.65759637193423, "trial_type": "single-audio", "word": "hiker", "stimulus": "/static/audio/wordpool/HIKER.wav", "conditions": [18, 1200, "a", 18000], "internal_node_id": "0.0-19.0", "trial": 0, "time_elapsed": 553298, "serialpos": 7, "key_press": 175, "wordID": 707, "type": "PRES_AUD", "trial_index": 28}, "uniqueid": "MTK1757:3GU1KF0O4J88O8S6OZBJVDHW4S5PBV", "dateTime": 1516295595931}, {"current_trial": 29, "trialdata": {"rt": -1000, "trial_type": "single-audio", "word": "college", "stimulus": "/static/audio/wordpool/COLLEGE.wav", "conditions": [18, 1200, "a", 18000], "internal_node_id": "0.0-20.0", "trial": 0, "time_elapsed": 555371, "serialpos": 8, "key_press": -1, "wordID": 345, "type": "PRES_AUD", "trial_index": 29}, "uniqueid": "MTK1757:3GU1KF0O4J88O8S6OZBJVDHW4S5PBV", "dateTime": 1516295598005}, {"current_trial": 30, "trialdata": {"rt": -1000, "trial_type": "single-audio", "word": "sidewalk", "stimulus": "/static/audio/wordpool/SIDEWALK.wav", "conditions": [18, 1200, "a", 18000], "internal_node_id": "0.0-21.0", "trial": 0, "time_elapsed": 557436, "serialpos": 9, "key_press": -1, "wordID": 1302, "type": "PRES_AUD", "trial_index": 30}, "uniqueid": "MTK1757:3GU1KF0O4J88O8S6OZBJVDHW4S5PBV", "dateTime": 1516295600070}, {"current_trial": 31, "trialdata": {"rt": -1000, "trial_type": "single-audio", "word": "fragrance", "stimulus": "/static/audio/wordpool/FRAGRANCE.wav", "conditions": [18, 1200, "a", 18000], "internal_node_id": "0.0-22.0", "trial": 0, "time_elapsed": 559807, "serialpos": 10, "key_press": -1, "wordID": 598, "type": "PRES_AUD", "trial_index": 31}, "uniqueid": "MTK1757:3GU1KF0O4J88O8S6OZBJVDHW4S5PBV", "dateTime": 1516295602441}, {"current_trial": 32, "trialdata": {"rt": -1000, "trial_type": "single-audio", "word": "cocoon", "stimulus": "/static/audio/wordpool/COCOON.wav", "conditions": [18, 1200, "a", 18000], "internal_node_id": "0.0-23.0", "trial": 0, "time_elapsed": 561916, "serialpos": 11, "key_press": -1, "wordID": 338, "type": "PRES_AUD", "trial_index": 32}, "uniqueid": "MTK1757:3GU1KF0O4J88O8S6OZBJVDHW4S5PBV", "dateTime": 1516295604549}, {"current_trial": 33, "trialdata": {"rt": -1000, "trial_type": "single-audio", "word": "hawk", "stimulus": "/static/audio/wordpool/HAWK.wav", "conditions": [18, 1200, "a", 18000], "internal_node_id": "0.0-24.0", "trial": 0, "time_elapsed": 564285, "serialpos": 12, "key_press": -1, "wordID": 691, "type": "PRES_AUD", "trial_index": 33}, "uniqueid": "MTK1757:3GU1KF0O4J88O8S6OZBJVDHW4S5PBV", "dateTime": 1516295606918}, {"current_trial": 34, "trialdata": {"rt": -1000, "trial_type": "single-audio", "word": "barley", "stimulus": "/static/audio/wordpool/BARLEY.wav", "conditions": [18, 1200, "a", 18000], "internal_node_id": "0.0-25.0", "trial": 0, "time_elapsed": 566405, "serialpos": 13, "key_press": -1, "wordID": 87, "type": "PRES_AUD", "trial_index": 34}, "uniqueid": "MTK1757:3GU1KF0O4J88O8S6OZBJVDHW4S5PBV", "dateTime": 1516295609038}, {"current_trial": 35, "trialdata": {"rt": -1000, "trial_type": "single-audio", "word": "paddle", "stimulus": "/static/audio/wordpool/PADDLE.wav", "conditions": [18, 1200, "a", 18000], "internal_node_id": "0.0-26.0", "trial": 0, "time_elapsed": 568704, "serialpos": 14, "key_press": -1, "wordID": 999, "type": "PRES_AUD", "trial_index": 35}, "uniqueid": "MTK1757:3GU1KF0O4J88O8S6OZBJVDHW4S5PBV", "dateTime": 1516295611337}, {"current_trial": 36, "trialdata": {"rt": -1000, "trial_type": "single-audio", "word": "husband", "stimulus": "/static/audio/wordpool/HUSBAND.wav", "conditions": [18, 1200, "a", 18000], "internal_node_id": "0.0-27.0", "trial": 0, "time_elapsed": 570764, "serialpos": 15, "key_press": -1, "wordID": 727, "type": "PRES_AUD", "trial_index": 36}, "uniqueid": "MTK1757:3GU1KF0O4J88O8S6OZBJVDHW4S5PBV", "dateTime": 1516295613397}, {"current_trial": 37, "trialdata": {"rt": -1000, "trial_type": "single-audio", "word": "carriage", "stimulus": "/static/audio/wordpool/CARRIAGE.wav", "conditions": [18, 1200, "a", 18000], "internal_node_id": "0.0-28.0", "trial": 0, "time_elapsed": 572954, "serialpos": 16, "key_press": -1, "wordID": 247, "type": "PRES_AUD", "trial_index": 37}, "uniqueid": "MTK1757:3GU1KF0O4J88O8S6OZBJVDHW4S5PBV", "dateTime": 1516295615587}, {"current_trial": 38, "trialdata": {"rt": -1000, "trial_type": "single-audio", "word": "quarter", "stimulus": "/static/audio/wordpool/QUARTER.wav", "conditions": [18, 1200, "a", 18000], "internal_node_id": "0.0-29.0", "trial": 0, "time_elapsed": 575080, "serialpos": 17, "key_press": -1, "wordID": 1147, "type": "PRES_AUD", "trial_index": 38}, "uniqueid": "MTK1757:3GU1KF0O4J88O8S6OZBJVDHW4S5PBV", "dateTime": 1516295617713}, {"current_trial": 39, "trialdata": {"rt": -1, "trial_type": "single-stim", "stimulus": "", "internal_node_id": "0.0-30.0-0.0", "time_elapsed": 576373, "key_press": -1, "type": "PRE_RECALL_DELAY", "trial_index": 39}, "uniqueid": "MTK1757:3GU1KF0O4J88O8S6OZBJVDHW4S5PBV", "dateTime": 1516295619006}, {"current_trial": 40, "trialdata": {"rt": -1000, "trial_type": "single-audio", "stimulus": "/static/audio/400Hz.wav", "internal_node_id": "0.0-31.0", "time_elapsed": 576874, "key_press": -1, "type": "PRE_RECALL_ALERT", "trial_index": 40}, "uniqueid": "MTK1757:3GU1KF0O4J88O8S6OZBJVDHW4S5PBV", "dateTime": 1516295619507}, {"current_trial": 41, "trialdata": {"rt": [4056, 5016, 6952, 10810, 13239, 17112, 29052], "recwords": ["quarter", "flag", "fragrance", "", "barley", "", "sidewalk"], "key_times": [2952, 3063, 3306, 3487, 3657, 3737, 3884, 4056, 4292, 4456, 4604, 4833, 5016, 5329, 5504, 5618, 5942, 6153, 6269, 6473, 6636, 6743, 6952, 10810, 10866, 11328, 11642, 11769, 12116, 12234, 12411, 12527, 12594, 12706, 12861, 12958, 13239, 17112, 27316, 27533, 27732, 28157, 28419, 28635, 28711, 28819, 29052], "trial_type": "free-recall", "conditions": [18, 1200, "a", 18000], "internal_node_id": "0.0-32.0-0.0", "key_presses": [81, 85, 65, 82, 84, 69, 82, 13, 70, 76, 65, 71, 13, 70, 82, 65, 71, 82, 65, 78, 67, 69, 13, 186, 66, 8, 65, 66, 8, 8, 66, 65, 82, 76, 69, 89, 13, 13, 83, 73, 68, 69, 87, 65, 76, 75, 13], "trial": 0, "time_elapsed": 636881, "type": "FREE_RECALL", "trial_index": 41}, "uniqueid": "MTK1757:3GU1KF0O4J88O8S6OZBJVDHW4S5PBV", "dateTime": 1516295679520}, {"current_trial": 42, "trialdata": {"rt": 3217, "trial_type": "text", "internal_node_id": "0.0-33.0", "time_elapsed": 642105, "key_press": 32, "type": "INSTRUCTIONS", "trial_index": 42}, "uniqueid": "MTK1757:3GU1KF0O4J88O8S6OZBJVDHW4S5PBV", "dateTime": 1516295684739}, {"current_trial": 43, "trialdata": {"rt": [6186, 11166, 16034], "trial_type": "math-distractor", "key_times": [4949, 5439, 6186, 10402, 10658, 11166, 15222, 15596, 16034], "responses": ["20", "12", "16"], "num2": [8, 4, 1, 6], "num3": [7, 5, 8, 7], "conditions": [18, 1200, "a", 18000], "internal_node_id": "0.0-34.0", "key_presses": [50, 48, 13, 49, 50, 13, 49, 54, 13], "trial": 1, "time_elapsed": 662110, "type": "DISTRACTOR", "trial_index": 43, "num1": [5, 3, 7, 7]}, "uniqueid": "MTK1757:3GU1KF0O4J88O8S6OZBJVDHW4S5PBV", "dateTime": 1516295704743}, {"current_trial": 44, "trialdata": {"rt": -1, "trial_type": "single-stim", "stimulus": "<p id=\"stim\">10</p>", "internal_node_id": "0.0-35.0-0.0", "time_elapsed": 665113, "key_press": -1, "trial_index": 44}, "uniqueid": "MTK1757:3GU1KF0O4J88O8S6OZBJVDHW4S5PBV", "dateTime": 1516295707747}, {"current_trial": 45, "trialdata": {"rt": -1, "trial_type": "single-stim", "stimulus": "<p id=\"stim\">9</p>", "internal_node_id": "0.0-35.0-1.0", "time_elapsed": 666116, "key_press": -1, "trial_index": 45}, "uniqueid": "MTK1757:3GU1KF0O4J88O8S6OZBJVDHW4S5PBV", "dateTime": 1516295708749}, {"current_trial": 46, "trialdata": {"rt": -1, "trial_type": "single-stim", "stimulus": "<p id=\"stim\">8</p>", "internal_node_id": "0.0-35.0-2.0", "time_elapsed": 667118, "key_press": -1, "trial_index": 46}, "uniqueid": "MTK1757:3GU1KF0O4J88O8S6OZBJVDHW4S5PBV", "dateTime": 1516295709752}, {"current_trial": 47, "trialdata": {"rt": -1, "trial_type": "single-stim", "stimulus": "<p id=\"stim\">7</p>", "internal_node_id": "0.0-35.0-3.0", "time_elapsed": 668121, "key_press": -1, "trial_index": 47}, "uniqueid": "MTK1757:3GU1KF0O4J88O8S6OZBJVDHW4S5PBV", "dateTime": 1516295710754}, {"current_trial": 48, "trialdata": {"rt": -1, "trial_type": "single-stim", "stimulus": "<p id=\"stim\">6</p>", "internal_node_id": "0.0-35.0-4.0", "time_elapsed": 669124, "key_press": -1, "trial_index": 48}, "uniqueid": "MTK1757:3GU1KF0O4J88O8S6OZBJVDHW4S5PBV", "dateTime": 1516295711758}, {"current_trial": 49, "trialdata": {"rt": -1, "trial_type": "single-stim", "stimulus": "<p id=\"stim\">5</p>", "internal_node_id": "0.0-35.0-5.0", "time_elapsed": 670129, "key_press": -1, "trial_index": 49}, "uniqueid": "MTK1757:3GU1KF0O4J88O8S6OZBJVDHW4S5PBV", "dateTime": 1516295712762}, {"current_trial": 50, "trialdata": {"rt": -1, "trial_type": "single-stim", "stimulus": "<p id=\"stim\">4</p>", "internal_node_id": "0.0-35.0-6.0", "time_elapsed": 671131, "key_press": -1, "trial_index": 50}, "uniqueid": "MTK1757:3GU1KF0O4J88O8S6OZBJVDHW4S5PBV", "dateTime": 1516295713764}, {"current_trial": 51, "trialdata": {"rt": -1, "trial_type": "single-stim", "stimulus": "<p id=\"stim\">3</p>", "internal_node_id": "0.0-35.0-7.0", "time_elapsed": 672134, "key_press": -1, "trial_index": 51}, "uniqueid": "MTK1757:3GU1KF0O4J88O8S6OZBJVDHW4S5PBV", "dateTime": 1516295714768}, {"current_trial": 52, "trialdata": {"rt": -1, "trial_type": "single-stim", "stimulus": "<p id=\"stim\">2</p>", "internal_node_id": "0.0-35.0-8.0", "time_elapsed": 673138, "key_press": -1, "trial_index": 52}, "uniqueid": "MTK1757:3GU1KF0O4J88O8S6OZBJVDHW4S5PBV", "dateTime": 1516295715772}, {"current_trial": 53, "trialdata": {"rt": -1, "trial_type": "single-stim", "stimulus": "<p id=\"stim\">1</p>", "internal_node_id": "0.0-35.0-9.0", "time_elapsed": 674142, "key_press": -1, "trial_index": 53}, "uniqueid": "MTK1757:3GU1KF0O4J88O8S6OZBJVDHW4S5PBV", "dateTime": 1516295716775}, {"current_trial": 54, "trialdata": {"rt": -1, "trial_type": "single-stim", "stimulus": "<p id=\"stim\">+</p>", "internal_node_id": "0.0-36.0-0.0", "time_elapsed": 675644, "key_press": -1, "type": "FIXATION", "trial_index": 54}, "uniqueid": "MTK1757:3GU1KF0O4J88O8S6OZBJVDHW4S5PBV", "dateTime": 1516295718278}, {"current_trial": 55, "trialdata": {"rt": -1000, "trial_type": "single-audio", "word": "bank", "stimulus": "/static/audio/wordpool/BANK.wav", "conditions": [18, 1200, "a", 18000], "internal_node_id": "0.0-37.0", "trial": 1, "time_elapsed": 677690, "serialpos": 0, "key_press": -1, "wordID": 82, "type": "PRES_AUD", "trial_index": 55}, "uniqueid": "MTK1757:3GU1KF0O4J88O8S6OZBJVDHW4S5PBV", "dateTime": 1516295720324}, {"current_trial": 56, "trialdata": {"rt": -1000, "trial_type": "single-audio", "word": "honey", "stimulus": "/static/audio/wordpool/HONEY.wav", "conditions": [18, 1200, "a", 18000], "internal_node_id": "0.0-38.0", "trial": 1, "time_elapsed": 679743, "serialpos": 1, "key_press": -1, "wordID": 712, "type": "PRES_AUD", "trial_index": 56}, "uniqueid": "MTK1757:3GU1KF0O4J88O8S6OZBJVDHW4S5PBV", "dateTime": 1516295722376}, {"current_trial": 57, "trialdata": {"rt": -1000, "trial_type": "single-audio", "word": "preacher", "stimulus": "/static/audio/wordpool/PREACHER.wav", "conditions": [18, 1200, "a", 18000], "internal_node_id": "0.0-39.0", "trial": 1, "time_elapsed": 681831, "serialpos": 2, "key_press": -1, "wordID": 1118, "type": "PRES_AUD", "trial_index": 57}, "uniqueid": "MTK1757:3GU1KF0O4J88O8S6OZBJVDHW4S5PBV", "dateTime": 1516295724465}, {"current_trial": 58, "trialdata": {"rt": -1000, "trial_type": "single-audio", "word": "turtle", "stimulus": "/static/audio/wordpool/TURTLE.wav", "conditions": [18, 1200, "a", 18000], "internal_node_id": "0.0-40.0", "trial": 1, "time_elapsed": 684148, "serialpos": 3, "key_press": -1, "wordID": 1521, "type": "PRES_AUD", "trial_index": 58}, "uniqueid": "MTK1757:3GU1KF0O4J88O8S6OZBJVDHW4S5PBV", "dateTime": 1516295726781}, {"current_trial": 59, "trialdata": {"rt": -1000, "trial_type": "single-audio", "word": "orange", "stimulus": "/static/audio/wordpool/ORANGE.wav", "conditions": [18, 1200, "a", 18000], "internal_node_id": "0.0-41.0", "trial": 1, "time_elapsed": 686447, "serialpos": 4, "key_press": -1, "wordID": 979, "type": "PRES_AUD", "trial_index": 59}, "uniqueid": "MTK1757:3GU1KF0O4J88O8S6OZBJVDHW4S5PBV", "dateTime": 1516295729080}, {"current_trial": 60, "trialdata": {"rt": -1000, "trial_type": "single-audio", "word": "freckle", "stimulus": "/static/audio/wordpool/FRECKLE.wav", "conditions": [18, 1200, "a", 18000], "internal_node_id": "0.0-42.0", "trial": 1, "time_elapsed": 688716, "serialpos": 5, "key_press": -1, "wordID": 601, "type": "PRES_AUD", "trial_index": 60}, "uniqueid": "MTK1757:3GU1KF0O4J88O8S6OZBJVDHW4S5PBV", "dateTime": 1516295731349}, {"current_trial": 61, "trialdata": {"rt": -1000, "trial_type": "single-audio", "word": "suitcase", "stimulus": "/static/audio/wordpool/SUITCASE.wav", "conditions": [18, 1200, "a", 18000], "internal_node_id": "0.0-43.0", "trial": 1, "time_elapsed": 690861, "serialpos": 6, "key_press": -1, "wordID": 1402, "type": "PRES_AUD", "trial_index": 61}, "uniqueid": "MTK1757:3GU1KF0O4J88O8S6OZBJVDHW4S5PBV", "dateTime": 1516295733494}, {"current_trial": 62, "trialdata": {"rt": -1000, "trial_type": "single-audio", "word": "girl", "stimulus": "/static/audio/wordpool/GIRL.wav", "conditions": [18, 1200, "a", 18000], "internal_node_id": "0.0-44.0", "trial": 1, "time_elapsed": 693155, "serialpos": 7, "key_press": -1, "wordID": 636, "type": "PRES_AUD", "trial_index": 62}, "uniqueid": "MTK1757:3GU1KF0O4J88O8S6OZBJVDHW4S5PBV", "dateTime": 1516295735788}, {"current_trial": 63, "trialdata": {"rt": -1000, "trial_type": "single-audio", "word": "poison", "stimulus": "/static/audio/wordpool/POISON.wav", "conditions": [18, 1200, "a", 18000], "internal_node_id": "0.0-45.0", "trial": 1, "time_elapsed": 695346, "serialpos": 8, "key_press": -1, "wordID": 1095, "type": "PRES_AUD", "trial_index": 63}, "uniqueid": "MTK1757:3GU1KF0O4J88O8S6OZBJVDHW4S5PBV", "dateTime": 1516295737979}, {"current_trial": 64, "trialdata": {"rt": -1000, "trial_type": "single-audio", "word": "twig", "stimulus": "/static/audio/wordpool/TWIG.wav", "conditions": [18, 1200, "a", 18000], "internal_node_id": "0.0-46.0", "trial": 1, "time_elapsed": 697631, "serialpos": 9, "key_press": -1, "wordID": 1526, "type": "PRES_AUD", "trial_index": 64}, "uniqueid": "MTK1757:3GU1KF0O4J88O8S6OZBJVDHW4S5PBV", "dateTime": 1516295740264}, {"current_trial": 65, "trialdata": {"rt": -1000, "trial_type": "single-audio", "word": "fruit", "stimulus": "/static/audio/wordpool/FRUIT.wav", "conditions": [18, 1200, "a", 18000], "internal_node_id": "0.0-47.0", "trial": 1, "time_elapsed": 699658, "serialpos": 10, "key_press": -1, "wordID": 609, "type": "PRES_AUD", "trial_index": 65}, "uniqueid": "MTK1757:3GU1KF0O4J88O8S6OZBJVDHW4S5PBV", "dateTime": 1516295742291}, {"current_trial": 66, "trialdata": {"rt": -1000, "trial_type": "single-audio", "word": "lover", "stimulus": "/static/audio/wordpool/LOVER.wav", "conditions": [18, 1200, "a", 18000], "internal_node_id": "0.0-48.0", "trial": 1, "time_elapsed": 701748, "serialpos": 11, "key_press": -1, "wordID": 845, "type": "PRES_AUD", "trial_index": 66}, "uniqueid": "MTK1757:3GU1KF0O4J88O8S6OZBJVDHW4S5PBV", "dateTime": 1516295744382}, {"current_trial": 67, "trialdata": {"rt": -1000, "trial_type": "single-audio", "word": "xerox", "stimulus": "/static/audio/wordpool/XEROX.wav", "conditions": [18, 1200, "a", 18000], "internal_node_id": "0.0-49.0", "trial": 1, "time_elapsed": 704058, "serialpos": 12, "key_press": -1, "wordID": 1627, "type": "PRES_AUD", "trial_index": 67}, "uniqueid": "MTK1757:3GU1KF0O4J88O8S6OZBJVDHW4S5PBV", "dateTime": 1516295746692}, {"current_trial": 68, "trialdata": {"rt": -1000, "trial_type": "single-audio", "word": "lamp", "stimulus": "/static/audio/wordpool/LAMP.wav", "conditions": [18, 1200, "a", 18000], "internal_node_id": "0.0-50.0", "trial": 1, "time_elapsed": 706231, "serialpos": 13, "key_press": -1, "wordID": 797, "type": "PRES_AUD", "trial_index": 68}, "uniqueid": "MTK1757:3GU1KF0O4J88O8S6OZBJVDHW4S5PBV", "dateTime": 1516295748869}, {"current_trial": 69, "trialdata": {"rt": -1000, "trial_type": "single-audio", "word": "couch", "stimulus": "/static/audio/wordpool/COUCH.wav", "conditions": [18, 1200, "a", 18000], "internal_node_id": "0.0-51.0", "trial": 1, "time_elapsed": 708405, "serialpos": 14, "key_press": -1, "wordID": 385, "type": "PRES_AUD", "trial_index": 69}, "uniqueid": "MTK1757:3GU1KF0O4J88O8S6OZBJVDHW4S5PBV", "dateTime": 1516295751038}, {"current_trial": 70, "trialdata": {"rt": -1000, "trial_type": "single-audio", "word": "mars", "stimulus": "/static/audio/wordpool/MARS.wav", "conditions": [18, 1200, "a", 18000], "internal_node_id": "0.0-52.0", "trial": 1, "time_elapsed": 710655, "serialpos": 15, "key_press": -1, "wordID": 872, "type": "PRES_AUD", "trial_index": 70}, "uniqueid": "MTK1757:3GU1KF0O4J88O8S6OZBJVDHW4S5PBV", "dateTime": 1516295753289}, {"current_trial": 71, "trialdata": {"rt": -1000, "trial_type": "single-audio", "word": "snack", "stimulus": "/static/audio/wordpool/SNACK.wav", "conditions": [18, 1200, "a", 18000], "internal_node_id": "0.0-53.0", "trial": 1, "time_elapsed": 712699, "serialpos": 16, "key_press": -1, "wordID": 1330, "type": "PRES_AUD", "trial_index": 71}, "uniqueid": "MTK1757:3GU1KF0O4J88O8S6OZBJVDHW4S5PBV", "dateTime": 1516295755333}, {"current_trial": 72, "trialdata": {"rt": -1000, "trial_type": "single-audio", "word": "velvet", "stimulus": "/static/audio/wordpool/VELVET.wav", "conditions": [18, 1200, "a", 18000], "internal_node_id": "0.0-54.0", "trial": 1, "time_elapsed": 715071, "serialpos": 17, "key_press": -1, "wordID": 1554, "type": "PRES_AUD", "trial_index": 72}, "uniqueid": "MTK1757:3GU1KF0O4J88O8S6OZBJVDHW4S5PBV", "dateTime": 1516295757704}, {"current_trial": 73, "trialdata": {"rt": -1, "trial_type": "single-stim", "stimulus": "", "internal_node_id": "0.0-55.0-0.0", "time_elapsed": 716307, "key_press": -1, "type": "PRE_RECALL_DELAY", "trial_index": 73}, "uniqueid": "MTK1757:3GU1KF0O4J88O8S6OZBJVDHW4S5PBV", "dateTime": 1516295758941}, {"current_trial": 74, "trialdata": {"rt": -1000, "trial_type": "single-audio", "stimulus": "/static/audio/400Hz.wav", "internal_node_id": "0.0-56.0", "time_elapsed": 716809, "key_press": -1, "type": "PRE_RECALL_ALERT", "trial_index": 74}, "uniqueid": "MTK1757:3GU1KF0O4J88O8S6OZBJVDHW4S5PBV", "dateTime": 1516295759443}, {"current_trial": 75, "trialdata": {"rt": [3203, 5254, 6612, 7549, 8954, 10488, 12640, 15367, 17696, 19200], "recwords": ["turtle", "twig", "lover", "lamp", "mars", "velvet", "honey", "girl", "lamp", "couch"], "key_times": [2136, 2313, 2460, 2632, 2776, 2888, 3203, 4641, 4834, 4986, 5106, 5254, 6005, 6163, 6237, 6369, 6480, 6612, 6963, 7119, 7200, 7301, 7549, 8452, 8568, 8634, 8820, 8954, 9426, 9858, 10003, 10118, 10254, 10407, 10488, 11981, 12096, 12209, 12317, 12440, 12640, 14767, 14904, 15022, 15163, 15367, 17147, 17265, 17335, 17449, 17696, 18625, 18737, 18853, 18937, 19042, 19200], "trial_type": "free-recall", "conditions": [18, 1200, "a", 18000], "internal_node_id": "0.0-57.0-0.0", "key_presses": [84, 85, 82, 84, 76, 69, 13, 84, 87, 73, 71, 13, 76, 79, 86, 69, 82, 13, 76, 65, 77, 80, 13, 77, 65, 82, 83, 13, 86, 69, 76, 86, 69, 84, 13, 72, 79, 78, 69, 89, 13, 71, 73, 82, 76, 13, 76, 65, 77, 80, 13, 67, 79, 85, 67, 72, 13], "trial": 1, "time_elapsed": 776816, "type": "FREE_RECALL", "trial_index": 75}, "uniqueid": "MTK1757:3GU1KF0O4J88O8S6OZBJVDHW4S5PBV", "dateTime": 1516295819453}, {"current_trial": 76, "trialdata": {"rt": 12511, "trial_type": "text", "internal_node_id": "0.0-58.0", "time_elapsed": 791334, "key_press": 32, "type": "INSTRUCTIONS", "trial_index": 76}, "uniqueid": "MTK1757:3GU1KF0O4J88O8S6OZBJVDHW4S5PBV", "dateTime": 1516295833968}, {"current_trial": 77, "trialdata": {"rt": [2745, 6894, 10382, 12964, 15067, 21325], "trial_type": "math-distractor", "key_times": [2432, 2587, 2745, 6293, 6649, 6894, 9646, 10123, 10382, 12309, 12767, 12964, 14716, 14885, 15067, 19098, 19885, 20066, 20241, 21325, 23513, 23808], "responses": ["11", "14", "17", "16", "11", "22"], "num2": [3, 8, 3, 3, 1, 8, 6], "num3": [6, 3, 6, 4, 8, 8, 7], "conditions": [24, 800, "a", 24000], "internal_node_id": "0.0-59.0", "key_presses": [49, 49, 13, 49, 52, 13, 49, 55, 13, 49, 54, 13, 49, 49, 13, 51, 8, 50, 50, 13, 49, 54], "trial": 2, "time_elapsed": 816341, "type": "DISTRACTOR", "trial_index": 77, "num1": [2, 3, 7, 9, 2, 6, 3]}, "uniqueid": "MTK1757:3GU1KF0O4J88O8S6OZBJVDHW4S5PBV", "dateTime": 1516295858974}, {"current_trial": 78, "trialdata": {"rt": -1, "trial_type": "single-stim", "stimulus": "<p id=\"stim\">10</p>", "internal_node_id": "0.0-60.0-0.0", "time_elapsed": 819345, "key_press": -1, "trial_index": 78}, "uniqueid": "MTK1757:3GU1KF0O4J88O8S6OZBJVDHW4S5PBV", "dateTime": 1516295861978}, {"current_trial": 79, "trialdata": {"rt": -1, "trial_type": "single-stim", "stimulus": "<p id=\"stim\">9</p>", "internal_node_id": "0.0-60.0-1.0", "time_elapsed": 820346, "key_press": -1, "trial_index": 79}, "uniqueid": "MTK1757:3GU1KF0O4J88O8S6OZBJVDHW4S5PBV", "dateTime": 1516295862980}, {"current_trial": 80, "trialdata": {"rt": -1, "trial_type": "single-stim", "stimulus": "<p id=\"stim\">8</p>", "internal_node_id": "0.0-60.0-2.0", "time_elapsed": 821348, "key_press": -1, "trial_index": 80}, "uniqueid": "MTK1757:3GU1KF0O4J88O8S6OZBJVDHW4S5PBV", "dateTime": 1516295863982}, {"current_trial": 81, "trialdata": {"rt": -1, "trial_type": "single-stim", "stimulus": "<p id=\"stim\">7</p>", "internal_node_id": "0.0-60.0-3.0", "time_elapsed": 822351, "key_press": -1, "trial_index": 81}, "uniqueid": "MTK1757:3GU1KF0O4J88O8S6OZBJVDHW4S5PBV", "dateTime": 1516295864984}, {"current_trial": 82, "trialdata": {"rt": -1, "trial_type": "single-stim", "stimulus": "<p id=\"stim\">6</p>", "internal_node_id": "0.0-60.0-4.0", "time_elapsed": 823353, "key_press": -1, "trial_index": 82}, "uniqueid": "MTK1757:3GU1KF0O4J88O8S6OZBJVDHW4S5PBV", "dateTime": 1516295865986}, {"current_trial": 83, "trialdata": {"rt": -1, "trial_type": "single-stim", "stimulus": "<p id=\"stim\">5</p>", "internal_node_id": "0.0-60.0-5.0", "time_elapsed": 824355, "key_press": -1, "trial_index": 83}, "uniqueid": "MTK1757:3GU1KF0O4J88O8S6OZBJVDHW4S5PBV", "dateTime": 1516295866988}, {"current_trial": 84, "trialdata": {"rt": -1, "trial_type": "single-stim", "stimulus": "<p id=\"stim\">4</p>", "internal_node_id": "0.0-60.0-6.0", "time_elapsed": 825358, "key_press": -1, "trial_index": 84}, "uniqueid": "MTK1757:3GU1KF0O4J88O8S6OZBJVDHW4S5PBV", "dateTime": 1516295867991}, {"current_trial": 85, "trialdata": {"rt": -1, "trial_type": "single-stim", "stimulus": "<p id=\"stim\">3</p>", "internal_node_id": "0.0-60.0-7.0", "time_elapsed": 826360, "key_press": -1, "trial_index": 85}, "uniqueid": "MTK1757:3GU1KF0O4J88O8S6OZBJVDHW4S5PBV", "dateTime": 1516295868994}, {"current_trial": 86, "trialdata": {"rt": -1, "trial_type": "single-stim", "stimulus": "<p id=\"stim\">2</p>", "internal_node_id": "0.0-60.0-8.0", "time_elapsed": 827362, "key_press": -1, "trial_index": 86}, "uniqueid": "MTK1757:3GU1KF0O4J88O8S6OZBJVDHW4S5PBV", "dateTime": 1516295869995}, {"current_trial": 87, "trialdata": {"rt": -1, "trial_type": "single-stim", "stimulus": "<p id=\"stim\">1</p>", "internal_node_id": "0.0-60.0-9.0", "time_elapsed": 828364, "key_press": -1, "trial_index": 87}, "uniqueid": "MTK1757:3GU1KF0O4J88O8S6OZBJVDHW4S5PBV", "dateTime": 1516295870997}, {"current_trial": 88, "trialdata": {"rt": -1, "trial_type": "single-stim", "stimulus": "<p id=\"stim\">+</p>", "internal_node_id": "0.0-61.0-0.0", "time_elapsed": 829866, "key_press": -1, "type": "FIXATION", "trial_index": 88}, "uniqueid": "MTK1757:3GU1KF0O4J88O8S6OZBJVDHW4S5PBV", "dateTime": 1516295872499}, {"current_trial": 89, "trialdata": {"rt": -1000, "trial_type": "single-audio", "word": "cashier", "stimulus": "/static/audio/wordpool/CASHIER.wav", "conditions": [24, 800, "a", 24000], "internal_node_id": "0.0-62.0", "trial": 2, "time_elapsed": 831813, "serialpos": 0, "key_press": -1, "wordID": 253, "type": "PRES_AUD", "trial_index": 89}, "uniqueid": "MTK1757:3GU1KF0O4J88O8S6OZBJVDHW4S5PBV", "dateTime": 1516295874446}, {"current_trial": 90, "trialdata": {"rt": -1000, "trial_type": "single-audio", "word": "army", "stimulus": "/static/audio/wordpool/ARMY.wav", "conditions": [24, 800, "a", 24000], "internal_node_id": "0.0-63.0", "trial": 2, "time_elapsed": 833652, "serialpos": 1, "key_press": -1, "wordID": 38, "type": "PRES_AUD", "trial_index": 90}, "uniqueid": "MTK1757:3GU1KF0O4J88O8S6OZBJVDHW4S5PBV", "dateTime": 1516295876285}, {"current_trial": 91, "trialdata": {"rt": -1000, "trial_type": "single-audio", "word": "rod", "stimulus": "/static/audio/wordpool/ROD.wav", "conditions": [24, 800, "a", 24000], "internal_node_id": "0.0-64.0", "trial": 2, "time_elapsed": 835558, "serialpos": 2, "key_press": -1, "wordID": 1202, "type": "PRES_AUD", "trial_index": 91}, "uniqueid": "MTK1757:3GU1KF0O4J88O8S6OZBJVDHW4S5PBV", "dateTime": 1516295878191}, {"current_trial": 92, "trialdata": {"rt": -1000, "trial_type": "single-audio", "word": "machine", "stimulus": "/static/audio/wordpool/MACHINE.wav", "conditions": [24, 800, "a", 24000], "internal_node_id": "0.0-65.0", "trial": 2, "time_elapsed": 837502, "serialpos": 3, "key_press": -1, "wordID": 851, "type": "PRES_AUD", "trial_index": 92}, "uniqueid": "MTK1757:3GU1KF0O4J88O8S6OZBJVDHW4S5PBV", "dateTime": 1516295880135}, {"current_trial": 93, "trialdata": {"rt": -1000, "trial_type": "single-audio", "word": "bison", "stimulus": "/static/audio/wordpool/BISON.wav", "conditions": [24, 800, "a", 24000], "internal_node_id": "0.0-66.0", "trial": 2, "time_elapsed": 839154, "serialpos": 4, "key_press": -1, "wordID": 130, "type": "PRES_AUD", "trial_index": 93}, "uniqueid": "MTK1757:3GU1KF0O4J88O8S6OZBJVDHW4S5PBV", "dateTime": 1516295881787}, {"current_trial": 94, "trialdata": {"rt": -1000, "trial_type": "single-audio", "word": "cook", "stimulus": "/static/audio/wordpool/COOK.wav", "conditions": [24, 800, "a", 24000], "internal_node_id": "0.0-67.0", "trial": 2, "time_elapsed": 840830, "serialpos": 5, "key_press": -1, "wordID": 371, "type": "PRES_AUD", "trial_index": 94}, "uniqueid": "MTK1757:3GU1KF0O4J88O8S6OZBJVDHW4S5PBV", "dateTime": 1516295883463}, {"current_trial": 95, "trialdata": {"rt": -1000, "trial_type": "single-audio", "word": "beaker", "stimulus": "/static/audio/wordpool/BEAKER.wav", "conditions": [24, 800, "a", 24000], "internal_node_id": "0.0-68.0", "trial": 2, "time_elapsed": 842614, "serialpos": 6, "key_press": -1, "wordID": 103, "type": "PRES_AUD", "trial_index": 95}, "uniqueid": "MTK1757:3GU1KF0O4J88O8S6OZBJVDHW4S5PBV", "dateTime": 1516295885248}, {"current_trial": 96, "trialdata": {"rt": -1000, "trial_type": "single-audio", "word": "rooster", "stimulus": "/static/audio/wordpool/ROOSTER.wav", "conditions": [24, 800, "a", 24000], "internal_node_id": "0.0-69.0", "trial": 2, "time_elapsed": 844362, "serialpos": 7, "key_press": -1, "wordID": 1208, "type": "PRES_AUD", "trial_index": 96}, "uniqueid": "MTK1757:3GU1KF0O4J88O8S6OZBJVDHW4S5PBV", "dateTime": 1516295886995}, {"current_trial": 97, "trialdata": {"rt": -1000, "trial_type": "single-audio", "word": "stove", "stimulus": "/static/audio/wordpool/STOVE.wav", "conditions": [24, 800, "a", 24000], "internal_node_id": "0.0-70.0", "trial": 2, "time_elapsed": 845966, "serialpos": 8, "key_press": -1, "wordID": 1387, "type": "PRES_AUD", "trial_index": 97}, "uniqueid": "MTK1757:3GU1KF0O4J88O8S6OZBJVDHW4S5PBV", "dateTime": 1516295888599}, {"current_trial": 98, "trialdata": {"rt": -1000, "trial_type": "single-audio", "word": "burglar", "stimulus": "/static/audio/wordpool/BURGLAR.wav", "conditions": [24, 800, "a", 24000], "internal_node_id": "0.0-71.0", "trial": 2, "time_elapsed": 847682, "serialpos": 9, "key_press": -1, "wordID": 199, "type": "PRES_AUD", "trial_index": 98}, "uniqueid": "MTK1757:3GU1KF0O4J88O8S6OZBJVDHW4S5PBV", "dateTime": 1516295890315}, {"current_trial": 99, "trialdata": {"rt": -1000, "trial_type": "single-audio", "word": "swimmer", "stimulus": "/static/audio/wordpool/SWIMMER.wav", "conditions": [24, 800, "a", 24000], "internal_node_id": "0.0-72.0", "trial": 2, "time_elapsed": 849334, "serialpos": 10, "key_press": -1, "wordID": 1419, "type": "PRES_AUD", "trial_index": 99}, "uniqueid": "MTK1757:3GU1KF0O4J88O8S6OZBJVDHW4S5PBV", "dateTime": 1516295891967}, {"current_trial": 100, "trialdata": {"rt": -1000, "trial_type": "single-audio", "word": "diver", "stimulus": "/static/audio/wordpool/DIVER.wav", "conditions": [24, 800, "a", 24000], "internal_node_id": "0.0-73.0", "trial": 2, "time_elapsed": 851181, "serialpos": 11, "key_press": -1, "wordID": 475, "type": "PRES_AUD", "trial_index": 100}, "uniqueid": "MTK1757:3GU1KF0O4J88O8S6OZBJVDHW4S5PBV", "dateTime": 1516295893814}, {"current_trial": 101, "trialdata": {"rt": -1000, "trial_type": "single-audio", "word": "thief", "stimulus": "/static/audio/wordpool/THIEF.wav", "conditions": [24, 800, "a", 24000], "internal_node_id": "0.0-74.0", "trial": 2, "time_elapsed": 853062, "serialpos": 12, "key_press": -1, "wordID": 1455, "type": "PRES_AUD", "trial_index": 101}, "uniqueid": "MTK1757:3GU1KF0O4J88O8S6OZBJVDHW4S5PBV", "dateTime": 1516295895696}, {"current_trial": 102, "trialdata": {"rt": -1000, "trial_type": "single-audio", "word": "popcorn", "stimulus": "/static/audio/wordpool/POPCORN.wav", "conditions": [24, 800, "a", 24000], "internal_node_id": "0.0-75.0", "trial": 2, "time_elapsed": 854712, "serialpos": 13, "key_press": -1, "wordID": 1103, "type": "PRES_AUD", "trial_index": 102}, "uniqueid": "MTK1757:3GU1KF0O4J88O8S6OZBJVDHW4S5PBV", "dateTime": 1516295897345}, {"current_trial": 103, "trialdata": {"rt": -1000, "trial_type": "single-audio", "word": "softball", "stimulus": "/static/audio/wordpool/SOFTBALL.wav", "conditions": [24, 800, "a", 24000], "internal_node_id": "0.0-76.0", "trial": 2, "time_elapsed": 856661, "serialpos": 14, "key_press": -1, "wordID": 1342, "type": "PRES_AUD", "trial_index": 103}, "uniqueid": "MTK1757:3GU1KF0O4J88O8S6OZBJVDHW4S5PBV", "dateTime": 1516295899295}, {"current_trial": 104, "trialdata": {"rt": -1000, "trial_type": "single-audio", "word": "cricket", "stimulus": "/static/audio/wordpool/CRICKET.wav", "conditions": [24, 800, "a", 24000], "internal_node_id": "0.0-77.0", "trial": 2, "time_elapsed": 858306, "serialpos": 15, "key_press": -1, "wordID": 407, "type": "PRES_AUD", "trial_index": 104}, "uniqueid": "MTK1757:3GU1KF0O4J88O8S6OZBJVDHW4S5PBV", "dateTime": 1516295900939}, {"current_trial": 105, "trialdata": {"rt": -1000, "trial_type": "single-audio", "word": "atlas", "stimulus": "/static/audio/wordpool/ATLAS.wav", "conditions": [24, 800, "a", 24000], "internal_node_id": "0.0-78.0", "trial": 2, "time_elapsed": 860028, "serialpos": 16, "key_press": -1, "wordID": 52, "type": "PRES_AUD", "trial_index": 105}, "uniqueid": "MTK1757:3GU1KF0O4J88O8S6OZBJVDHW4S5PBV", "dateTime": 1516295902661}, {"current_trial": 106, "trialdata": {"rt": -1000, "trial_type": "single-audio", "word": "crevice", "stimulus": "/static/audio/wordpool/CREVICE.wav", "conditions": [24, 800, "a", 24000], "internal_node_id": "0.0-79.0", "trial": 2, "time_elapsed": 861795, "serialpos": 17, "key_press": -1, "wordID": 404, "type": "PRES_AUD", "trial_index": 106}, "uniqueid": "MTK1757:3GU1KF0O4J88O8S6OZBJVDHW4S5PBV", "dateTime": 1516295904429}, {"current_trial": 107, "trialdata": {"rt": -1000, "trial_type": "single-audio", "word": "brandy", "stimulus": "/static/audio/wordpool/BRANDY.wav", "conditions": [24, 800, "a", 24000], "internal_node_id": "0.0-80.0", "trial": 2, "time_elapsed": 863699, "serialpos": 18, "key_press": -1, "wordID": 168, "type": "PRES_AUD", "trial_index": 107}, "uniqueid": "MTK1757:3GU1KF0O4J88O8S6OZBJVDHW4S5PBV", "dateTime": 1516295906332}, {"current_trial": 108, "trialdata": {"rt": -1000, "trial_type": "single-audio", "word": "scotch", "stimulus": "/static/audio/wordpool/SCOTCH.wav", "conditions": [24, 800, "a", 24000], "internal_node_id": "0.0-81.0", "trial": 2, "time_elapsed": 865483, "serialpos": 19, "key_press": -1, "wordID": 1250, "type": "PRES_AUD", "trial_index": 108}, "uniqueid": "MTK1757:3GU1KF0O4J88O8S6OZBJVDHW4S5PBV", "dateTime": 1516295908116}, {"current_trial": 109, "trialdata": {"rt": -1000, "trial_type": "single-audio", "word": "slope", "stimulus": "/static/audio/wordpool/SLOPE.wav", "conditions": [24, 800, "a", 24000], "internal_node_id": "0.0-82.0", "trial": 2, "time_elapsed": 867088, "serialpos": 20, "key_press": -1, "wordID": 1327, "type": "PRES_AUD", "trial_index": 109}, "uniqueid": "MTK1757:3GU1KF0O4J88O8S6OZBJVDHW4S5PBV", "dateTime": 1516295909721}, {"current_trial": 110, "trialdata": {"rt": -1000, "trial_type": "single-audio", "word": "casket", "stimulus": "/static/audio/wordpool/CASKET.wav", "conditions": [24, 800, "a", 24000], "internal_node_id": "0.0-83.0", "trial": 2, "time_elapsed": 868848, "serialpos": 21, "key_press": -1, "wordID": 254, "type": "PRES_AUD", "trial_index": 110}, "uniqueid": "MTK1757:3GU1KF0O4J88O8S6OZBJVDHW4S5PBV", "dateTime": 1516295911481}, {"current_trial": 111, "trialdata": {"rt": -1000, "trial_type": "single-audio", "word": "kitchen", "stimulus": "/static/audio/wordpool/KITCHEN.wav", "conditions": [24, 800, "a", 24000], "internal_node_id": "0.0-84.0", "trial": 2, "time_elapsed": 870550, "serialpos": 22, "key_press": -1, "wordID": 777, "type": "PRES_AUD", "trial_index": 111}, "uniqueid": "MTK1757:3GU1KF0O4J88O8S6OZBJVDHW4S5PBV", "dateTime": 1516295913184}, {"current_trial": 112, "trialdata": {"rt": -1000, "trial_type": "single-audio", "word": "robber", "stimulus": "/static/audio/wordpool/ROBBER.wav", "conditions": [24, 800, "a", 24000], "internal_node_id": "0.0-85.0", "trial": 2, "time_elapsed": 872249, "serialpos": 23, "key_press": -1, "wordID": 1196, "type": "PRES_AUD", "trial_index": 112}, "uniqueid": "MTK1757:3GU1KF0O4J88O8S6OZBJVDHW4S5PBV", "dateTime": 1516295914882}, {"current_trial": 113, "trialdata": {"rt": -1, "trial_type": "single-stim", "stimulus": "", "internal_node_id": "0.0-86.0-0.0", "time_elapsed": 873564, "key_press": -1, "type": "PRE_RECALL_DELAY", "trial_index": 113}, "uniqueid": "MTK1757:3GU1KF0O4J88O8S6OZBJVDHW4S5PBV", "dateTime": 1516295916197}, {"current_trial": 114, "trialdata": {"rt": -1000, "trial_type": "single-audio", "stimulus": "/static/audio/400Hz.wav", "internal_node_id": "0.0-87.0", "time_elapsed": 874066, "key_press": -1, "type": "PRE_RECALL_ALERT", "trial_index": 114}, "uniqueid": "MTK1757:3GU1KF0O4J88O8S6OZBJVDHW4S5PBV", "dateTime": 1516295916699}, {"current_trial": 115, "trialdata": {"rt": [4510, 6565, 7579, 9729, 11536, 14582, 16495, 17328, 18482, 19776, 20935, 22070, 23296, 25196, 26316, 27648, 28775, 30255, 31162, 36670, 39787], "recwords": ["cashier", "brandy", "slope", "kitchen", "thief", "cricket", "popcorn", "soft", "ball", "rod", "bison", "beaker", "rooster", "stove", "burglar", "swimmer", "diver", "machine", "army", "rooster", "atlas"], "key_times": [2277, 2547, 3063, 3173, 3683, 3807, 3921, 3989, 4064, 4173, 4282, 4510, 5563, 5688, 5805, 5918, 6060, 6319, 6565, 6841, 6956, 7118, 7267, 7416, 7579, 8696, 8853, 8961, 9216, 9331, 9403, 9520, 9729, 10667, 10799, 10932, 11046, 11229, 11536, 12060, 12259, 12376, 12482, 12606, 12716, 13867, 13969, 14150, 14305, 14405, 14582, 14992, 15150, 15267, 15353, 15805, 15919, 16027, 16170, 16281, 16495, 16723, 16873, 16983, 17100, 17328, 17499, 17609, 18155, 18311, 18482, 19435, 19548, 19656, 19776, 20262, 20380, 20496, 20604, 20719, 20935, 21404, 21476, 21590, 21696, 21774, 21923, 22070, 22375, 22567, 22708, 22780, 22932, 23009, 23118, 23296, 24161, 24560, 24780, 24932, 25051, 25196, 25424, 25591, 25667, 25845, 25964, 26077, 26184, 26316, 26814, 26984, 27095, 27245, 27395, 27467, 27540, 27648, 28042, 28156, 28297, 28439, 28587, 28775, 29523, 29639, 29762, 29835, 29920, 30030, 30102, 30255, 30496, 30604, 30715, 30938, 31162, 31636, 31787, 31867, 32021, 32531, 32684, 32817, 33020, 35674, 35842, 35997, 36069, 36255, 36387, 36497, 36670, 38940, 39195, 39380, 39494, 39598, 39787], "trial_type": "free-recall", "conditions": [24, 800, "a", 24000], "internal_node_id": "0.0-88.0-0.0", "key_presses": [67, 65, 72, 83, 8, 8, 83, 72, 73, 69, 82, 13, 66, 82, 65, 78, 68, 89, 13, 83, 76, 79, 80, 69, 13, 75, 73, 84, 67, 72, 69, 78, 13, 84, 72, 73, 69, 70, 13, 67, 82, 73, 67, 69, 75, 8, 8, 75, 69, 84, 13, 80, 79, 80, 79, 8, 67, 79, 82, 78, 13, 83, 79, 70, 84, 32, 66, 65, 76, 76, 13, 82, 79, 68, 13, 66, 73, 83, 79, 78, 13, 66, 69, 65, 75, 69, 82, 13, 82, 79, 79, 83, 84, 69, 82, 13, 83, 84, 79, 86, 69, 13, 66, 85, 82, 71, 76, 65, 82, 13, 83, 87, 73, 77, 77, 69, 82, 13, 68, 73, 86, 69, 82, 13, 77, 65, 67, 72, 73, 78, 69, 13, 65, 82, 77, 89, 13, 67, 72, 65, 83, 8, 8, 8, 8, 82, 79, 79, 83, 84, 69, 82, 13, 65, 84, 76, 65, 83, 13], "trial": 2, "time_elapsed": 934073, "type": "FREE_RECALL", "trial_index": 115}, "uniqueid": "MTK1757:3GU1KF0O4J88O8S6OZBJVDHW4S5PBV", "dateTime": 1516295976715}, {"current_trial": 116, "trialdata": {"rt": 2923, "trial_type": "text", "internal_node_id": "0.0-89.0", "time_elapsed": 939008, "key_press": 32, "type": "INSTRUCTIONS", "trial_index": 116}, "uniqueid": "MTK1757:3GU1KF0O4J88O8S6OZBJVDHW4S5PBV", "dateTime": 1516295981641}, {"current_trial": 117, "trialdata": {"rt": [4530, 6739, 8543, 10577], "trial_type": "math-distractor", "key_times": [4109, 4352, 4530, 5886, 6526, 6739, 8105, 8345, 8543, 10357, 10577], "responses": ["14", "16", "12", "8"], "num2": [4, 4, 5, 4, 4], "num3": [4, 4, 3, 1, 7], "conditions": [24, 800, "a", 12000], "internal_node_id": "0.0-90.0", "key_presses": [49, 52, 13, 49, 54, 13, 49, 50, 13, 56, 13], "trial": 3, "time_elapsed": 953015, "type": "DISTRACTOR", "trial_index": 117, "num1": [6, 4, 4, 3, 7]}, "uniqueid": "MTK1757:3GU1KF0O4J88O8S6OZBJVDHW4S5PBV", "dateTime": 1516295995648}, {"current_trial": 118, "trialdata": {"rt": -1, "trial_type": "single-stim", "stimulus": "<p id=\"stim\">10</p>", "internal_node_id": "0.0-91.0-0.0", "time_elapsed": 956018, "key_press": -1, "trial_index": 118}, "uniqueid": "MTK1757:3GU1KF0O4J88O8S6OZBJVDHW4S5PBV", "dateTime": 1516295998651}, {"current_trial": 119, "trialdata": {"rt": -1, "trial_type": "single-stim", "stimulus": "<p id=\"stim\">9</p>", "internal_node_id": "0.0-91.0-1.0", "time_elapsed": 957020, "key_press": -1, "trial_index": 119}, "uniqueid": "MTK1757:3GU1KF0O4J88O8S6OZBJVDHW4S5PBV", "dateTime": 1516295999653}, {"current_trial": 120, "trialdata": {"rt": -1, "trial_type": "single-stim", "stimulus": "<p id=\"stim\">8</p>", "internal_node_id": "0.0-91.0-2.0", "time_elapsed": 958022, "key_press": -1, "trial_index": 120}, "uniqueid": "MTK1757:3GU1KF0O4J88O8S6OZBJVDHW4S5PBV", "dateTime": 1516296000655}, {"current_trial": 121, "trialdata": {"rt": -1, "trial_type": "single-stim", "stimulus": "<p id=\"stim\">7</p>", "internal_node_id": "0.0-91.0-3.0", "time_elapsed": 959024, "key_press": -1, "trial_index": 121}, "uniqueid": "MTK1757:3GU1KF0O4J88O8S6OZBJVDHW4S5PBV", "dateTime": 1516296001657}, {"current_trial": 122, "trialdata": {"rt": -1, "trial_type": "single-stim", "stimulus": "<p id=\"stim\">6</p>", "internal_node_id": "0.0-91.0-4.0", "time_elapsed": 960026, "key_press": -1, "trial_index": 122}, "uniqueid": "MTK1757:3GU1KF0O4J88O8S6OZBJVDHW4S5PBV", "dateTime": 1516296002659}, {"current_trial": 123, "trialdata": {"rt": -1, "trial_type": "single-stim", "stimulus": "<p id=\"stim\">5</p>", "internal_node_id": "0.0-91.0-5.0", "time_elapsed": 961028, "key_press": -1, "trial_index": 123}, "uniqueid": "MTK1757:3GU1KF0O4J88O8S6OZBJVDHW4S5PBV", "dateTime": 1516296003661}, {"current_trial": 124, "trialdata": {"rt": -1, "trial_type": "single-stim", "stimulus": "<p id=\"stim\">4</p>", "internal_node_id": "0.0-91.0-6.0", "time_elapsed": 962031, "key_press": -1, "trial_index": 124}, "uniqueid": "MTK1757:3GU1KF0O4J88O8S6OZBJVDHW4S5PBV", "dateTime": 1516296004664}, {"current_trial": 125, "trialdata": {"rt": -1, "trial_type": "single-stim", "stimulus": "<p id=\"stim\">3</p>", "internal_node_id": "0.0-91.0-7.0", "time_elapsed": 963033, "key_press": -1, "trial_index": 125}, "uniqueid": "MTK1757:3GU1KF0O4J88O8S6OZBJVDHW4S5PBV", "dateTime": 1516296005667}, {"current_trial": 126, "trialdata": {"rt": -1, "trial_type": "single-stim", "stimulus": "<p id=\"stim\">2</p>", "internal_node_id": "0.0-91.0-8.0", "time_elapsed": 964037, "key_press": -1, "trial_index": 126}, "uniqueid": "MTK1757:3GU1KF0O4J88O8S6OZBJVDHW4S5PBV", "dateTime": 1516296006670}, {"current_trial": 127, "trialdata": {"rt": -1, "trial_type": "single-stim", "stimulus": "<p id=\"stim\">1</p>", "internal_node_id": "0.0-91.0-9.0", "time_elapsed": 965039, "key_press": -1, "trial_index": 127}, "uniqueid": "MTK1757:3GU1KF0O4J88O8S6OZBJVDHW4S5PBV", "dateTime": 1516296007672}, {"current_trial": 128, "trialdata": {"rt": -1, "trial_type": "single-stim", "stimulus": "<p id=\"stim\">+</p>", "internal_node_id": "0.0-92.0-0.0", "time_elapsed": 966541, "key_press": -1, "type": "FIXATION", "trial_index": 128}, "uniqueid": "MTK1757:3GU1KF0O4J88O8S6OZBJVDHW4S5PBV", "dateTime": 1516296009174}, {"current_trial": 129, "trialdata": {"rt": -1000, "trial_type": "single-audio", "word": "blouse", "stimulus": "/static/audio/wordpool/BLOUSE.wav", "conditions": [24, 800, "a", 12000], "internal_node_id": "0.0-93.0", "trial": 3, "time_elapsed": 968169, "serialpos": 0, "key_press": -1, "wordID": 138, "type": "PRES_AUD", "trial_index": 129}, "uniqueid": "MTK1757:3GU1KF0O4J88O8S6OZBJVDHW4S5PBV", "dateTime": 1516296010803}, {"current_trial": 130, "trialdata": {"rt": -1000, "trial_type": "single-audio", "word": "flute", "stimulus": "/static/audio/wordpool/FLUTE.wav", "conditions": [24, 800, "a", 12000], "internal_node_id": "0.0-94.0", "trial": 3, "time_elapsed": 970059, "serialpos": 1, "key_press": -1, "wordID": 584, "type": "PRES_AUD", "trial_index": 130}, "uniqueid": "MTK1757:3GU1KF0O4J88O8S6OZBJVDHW4S5PBV", "dateTime": 1516296012692}, {"current_trial": 131, "trialdata": {"rt": -1000, "trial_type": "single-audio", "word": "scissors", "stimulus": "/static/audio/wordpool/SCISSORS.wav", "conditions": [24, 800, "a", 12000], "internal_node_id": "0.0-95.0", "trial": 3, "time_elapsed": 971777, "serialpos": 2, "key_press": -1, "wordID": 1249, "type": "PRES_AUD", "trial_index": 131}, "uniqueid": "MTK1757:3GU1KF0O4J88O8S6OZBJVDHW4S5PBV", "dateTime": 1516296014410}, {"current_trial": 132, "trialdata": {"rt": -1000, "trial_type": "single-audio", "word": "skirt", "stimulus": "/static/audio/wordpool/SKIRT.wav", "conditions": [24, 800, "a", 12000], "internal_node_id": "0.0-96.0", "trial": 3, "time_elapsed": 973665, "serialpos": 3, "key_press": -1, "wordID": 1318, "type": "PRES_AUD", "trial_index": 132}, "uniqueid": "MTK1757:3GU1KF0O4J88O8S6OZBJVDHW4S5PBV", "dateTime": 1516296016298}, {"current_trial": 133, "trialdata": {"rt": -1000, "trial_type": "single-audio", "word": "briefcase", "stimulus": "/static/audio/wordpool/BRIEFCASE.wav", "conditions": [24, 800, "a", 12000], "internal_node_id": "0.0-97.0", "trial": 3, "time_elapsed": 975395, "serialpos": 4, "key_press": -1, "wordID": 174, "type": "PRES_AUD", "trial_index": 133}, "uniqueid": "MTK1757:3GU1KF0O4J88O8S6OZBJVDHW4S5PBV", "dateTime": 1516296018028}, {"current_trial": 134, "trialdata": {"rt": -1000, "trial_type": "single-audio", "word": "pocket", "stimulus": "/static/audio/wordpool/POCKET.wav", "conditions": [24, 800, "a", 12000], "internal_node_id": "0.0-98.0", "trial": 3, "time_elapsed": 977216, "serialpos": 5, "key_press": -1, "wordID": 1092, "type": "PRES_AUD", "trial_index": 134}, "uniqueid": "MTK1757:3GU1KF0O4J88O8S6OZBJVDHW4S5PBV", "dateTime": 1516296019849}, {"current_trial": 135, "trialdata": {"rt": -1000, "trial_type": "single-audio", "word": "temple", "stimulus": "/static/audio/wordpool/TEMPLE.wav", "conditions": [24, 800, "a", 12000], "internal_node_id": "0.0-99.0", "trial": 3, "time_elapsed": 978864, "serialpos": 6, "key_press": -1, "wordID": 1447, "type": "PRES_AUD", "trial_index": 135}, "uniqueid": "MTK1757:3GU1KF0O4J88O8S6OZBJVDHW4S5PBV", "dateTime": 1516296021497}, {"current_trial": 136, "trialdata": {"rt": -1000, "trial_type": "single-audio", "word": "paper", "stimulus": "/static/audio/wordpool/PAPER.wav", "conditions": [24, 800, "a", 12000], "internal_node_id": "0.0-100.0", "trial": 3, "time_elapsed": 980566, "serialpos": 7, "key_press": -1, "wordID": 1010, "type": "PRES_AUD", "trial_index": 136}, "uniqueid": "MTK1757:3GU1KF0O4J88O8S6OZBJVDHW4S5PBV", "dateTime": 1516296023199}, {"current_trial": 137, "trialdata": {"rt": -1000, "trial_type": "single-audio", "word": "sculpture", "stimulus": "/static/audio/wordpool/SCULPTURE.wav", "conditions": [24, 800, "a", 12000], "internal_node_id": "0.0-101.0", "trial": 3, "time_elapsed": 982558, "serialpos": 8, "key_press": -1, "wordID": 1257, "type": "PRES_AUD", "trial_index": 137}, "uniqueid": "MTK1757:3GU1KF0O4J88O8S6OZBJVDHW4S5PBV", "dateTime": 1516296025191}, {"current_trial": 138, "trialdata": {"rt": -1000, "trial_type": "single-audio", "word": "spoon", "stimulus": "/static/audio/wordpool/SPOON.wav", "conditions": [24, 800, "a", 12000], "internal_node_id": "0.0-102.0", "trial": 3, "time_elapsed": 984204, "serialpos": 9, "key_press": -1, "wordID": 1356, "type": "PRES_AUD", "trial_index": 138}, "uniqueid": "MTK1757:3GU1KF0O4J88O8S6OZBJVDHW4S5PBV", "dateTime": 1516296026838}, {"current_trial": 139, "trialdata": {"rt": -1000, "trial_type": "single-audio", "word": "milk", "stimulus": "/static/audio/wordpool/MILK.wav", "conditions": [24, 800, "a", 12000], "internal_node_id": "0.0-103.0", "trial": 3, "time_elapsed": 985819, "serialpos": 10, "key_press": -1, "wordID": 894, "type": "PRES_AUD", "trial_index": 139}, "uniqueid": "MTK1757:3GU1KF0O4J88O8S6OZBJVDHW4S5PBV", "dateTime": 1516296028452}, {"current_trial": 140, "trialdata": {"rt": -1000, "trial_type": "single-audio", "word": "sword", "stimulus": "/static/audio/wordpool/SWORD.wav", "conditions": [24, 800, "a", 12000], "internal_node_id": "0.0-104.0", "trial": 3, "time_elapsed": 987687, "serialpos": 11, "key_press": -1, "wordID": 1422, "type": "PRES_AUD", "trial_index": 140}, "uniqueid": "MTK1757:3GU1KF0O4J88O8S6OZBJVDHW4S5PBV", "dateTime": 1516296030320}, {"current_trial": 141, "trialdata": {"rt": -1000, "trial_type": "single-audio", "word": "jury", "stimulus": "/static/audio/wordpool/JURY.wav", "conditions": [24, 800, "a", 12000], "internal_node_id": "0.0-105.0", "trial": 3, "time_elapsed": 989612, "serialpos": 12, "key_press": -1, "wordID": 765, "type": "PRES_AUD", "trial_index": 141}, "uniqueid": "MTK1757:3GU1KF0O4J88O8S6OZBJVDHW4S5PBV", "dateTime": 1516296032245}, {"current_trial": 142, "trialdata": {"rt": -1000, "trial_type": "single-audio", "word": "cookbook", "stimulus": "/static/audio/wordpool/COOKBOOK.wav", "conditions": [24, 800, "a", 12000], "internal_node_id": "0.0-106.0", "trial": 3, "time_elapsed": 991311, "serialpos": 13, "key_press": -1, "wordID": 372, "type": "PRES_AUD", "trial_index": 142}, "uniqueid": "MTK1757:3GU1KF0O4J88O8S6OZBJVDHW4S5PBV", "dateTime": 1516296033944}, {"current_trial": 143, "trialdata": {"rt": -1000, "trial_type": "single-audio", "word": "county", "stimulus": "/static/audio/wordpool/COUNTY.wav", "conditions": [24, 800, "a", 12000], "internal_node_id": "0.0-107.0", "trial": 3, "time_elapsed": 993310, "serialpos": 14, "key_press": -1, "wordID": 388, "type": "PRES_AUD", "trial_index": 143}, "uniqueid": "MTK1757:3GU1KF0O4J88O8S6OZBJVDHW4S5PBV", "dateTime": 1516296035943}, {"current_trial": 144, "trialdata": {"rt": -1000, "trial_type": "single-audio", "word": "tourist", "stimulus": "/static/audio/wordpool/TOURIST.wav", "conditions": [24, 800, "a", 12000], "internal_node_id": "0.0-108.0", "trial": 3, "time_elapsed": 995261, "serialpos": 15, "key_press": -1, "wordID": 1487, "type": "PRES_AUD", "trial_index": 144}, "uniqueid": "MTK1757:3GU1KF0O4J88O8S6OZBJVDHW4S5PBV", "dateTime": 1516296037894}, {"current_trial": 145, "trialdata": {"rt": -1000, "trial_type": "single-audio", "word": "blueprint", "stimulus": "/static/audio/wordpool/BLUEPRINT.wav", "conditions": [24, 800, "a", 12000], "internal_node_id": "0.0-109.0", "trial": 3, "time_elapsed": 996946, "serialpos": 16, "key_press": -1, "wordID": 141, "type": "PRES_AUD", "trial_index": 145}, "uniqueid": "MTK1757:3GU1KF0O4J88O8S6OZBJVDHW4S5PBV", "dateTime": 1516296039579}, {"current_trial": 146, "trialdata": {"rt": -1000, "trial_type": "single-audio", "word": "box", "stimulus": "/static/audio/wordpool/BOX.wav", "conditions": [24, 800, "a", 12000], "internal_node_id": "0.0-110.0", "trial": 3, "time_elapsed": 998758, "serialpos": 17, "key_press": -1, "wordID": 158, "type": "PRES_AUD", "trial_index": 146}, "uniqueid": "MTK1757:3GU1KF0O4J88O8S6OZBJVDHW4S5PBV", "dateTime": 1516296041391}, {"current_trial": 147, "trialdata": {"rt": -1000, "trial_type": "single-audio", "word": "cabbage", "stimulus": "/static/audio/wordpool/CABBAGE.wav", "conditions": [24, 800, "a", 12000], "internal_node_id": "0.0-111.0", "trial": 3, "time_elapsed": 1000736, "serialpos": 18, "key_press": -1, "wordID": 209, "type": "PRES_AUD", "trial_index": 147}, "uniqueid": "MTK1757:3GU1KF0O4J88O8S6OZBJVDHW4S5PBV", "dateTime": 1516296043369}, {"current_trial": 148, "trialdata": {"rt": -1000, "trial_type": "single-audio", "word": "turnip", "stimulus": "/static/audio/wordpool/TURNIP.wav", "conditions": [24, 800, "a", 12000], "internal_node_id": "0.0-112.0", "trial": 3, "time_elapsed": 1002705, "serialpos": 19, "key_press": -1, "wordID": 1520, "type": "PRES_AUD", "trial_index": 148}, "uniqueid": "MTK1757:3GU1KF0O4J88O8S6OZBJVDHW4S5PBV", "dateTime": 1516296045338}, {"current_trial": 149, "trialdata": {"rt": -1000, "trial_type": "single-audio", "word": "judge", "stimulus": "/static/audio/wordpool/JUDGE.wav", "conditions": [24, 800, "a", 12000], "internal_node_id": "0.0-113.0", "trial": 3, "time_elapsed": 1004465, "serialpos": 20, "key_press": -1, "wordID": 760, "type": "PRES_AUD", "trial_index": 149}, "uniqueid": "MTK1757:3GU1KF0O4J88O8S6OZBJVDHW4S5PBV", "dateTime": 1516296047098}, {"current_trial": 150, "trialdata": {"rt": -1000, "trial_type": "single-audio", "word": "robot", "stimulus": "/static/audio/wordpool/ROBOT.wav", "conditions": [24, 800, "a", 12000], "internal_node_id": "0.0-114.0", "trial": 3, "time_elapsed": 1006205, "serialpos": 21, "key_press": -1, "wordID": 1199, "type": "PRES_AUD", "trial_index": 150}, "uniqueid": "MTK1757:3GU1KF0O4J88O8S6OZBJVDHW4S5PBV", "dateTime": 1516296048838}, {"current_trial": 151, "trialdata": {"rt": -1000, "trial_type": "single-audio", "word": "jelly", "stimulus": "/static/audio/wordpool/JELLY.wav", "conditions": [24, 800, "a", 12000], "internal_node_id": "0.0-115.0", "trial": 3, "time_elapsed": 1008165, "serialpos": 22, "key_press": -1, "wordID": 754, "type": "PRES_AUD", "trial_index": 151}, "uniqueid": "MTK1757:3GU1KF0O4J88O8S6OZBJVDHW4S5PBV", "dateTime": 1516296050798}, {"current_trial": 152, "trialdata": {"rt": -1000, "trial_type": "single-audio", "word": "spool", "stimulus": "/static/audio/wordpool/SPOOL.wav", "conditions": [24, 800, "a", 12000], "internal_node_id": "0.0-116.0", "trial": 3, "time_elapsed": 1009852, "serialpos": 23, "key_press": -1, "wordID": 1355, "type": "PRES_AUD", "trial_index": 152}, "uniqueid": "MTK1757:3GU1KF0O4J88O8S6OZBJVDHW4S5PBV", "dateTime": 1516296052485}, {"current_trial": 153, "trialdata": {"rt": -1, "trial_type": "single-stim", "stimulus": "", "internal_node_id": "0.0-117.0-0.0", "time_elapsed": 1011082, "key_press": -1, "type": "PRE_RECALL_DELAY", "trial_index": 153}, "uniqueid": "MTK1757:3GU1KF0O4J88O8S6OZBJVDHW4S5PBV", "dateTime": 1516296053715}, {"current_trial": 154, "trialdata": {"rt": -1000, "trial_type": "single-audio", "stimulus": "/static/audio/400Hz.wav", "internal_node_id": "0.0-118.0", "time_elapsed": 1011586, "key_press": -1, "type": "PRE_RECALL_ALERT", "trial_index": 154}, "uniqueid": "MTK1757:3GU1KF0O4J88O8S6OZBJVDHW4S5PBV", "dateTime": 1516296054219}, {"current_trial": 155, "trialdata": {"rt": [3348, 4888, 5899, 9132, 10212, 11340, 12280, 13131, 15920, 17585, 20085, 21154, 22376, 23819, 24881, 25937, 27560, 29991, 32198, 33280, 35005, 36280, 37498], "recwords": ["spool", "cookbook", "county", "skirt", "pocket", "paper", "spoon", "milk", "blouse", "flute", "cookbook", "county", "torusit", "cabbage", "jury", "judge", "robot", "flute", "temple", "pocket", "box", "cabbage", "turnip"], "key_times": [2394, 2610, 2836, 2990, 3157, 3348, 3631, 3781, 3905, 4052, 4251, 4391, 4552, 4698, 4888, 5106, 5216, 5293, 5452, 5561, 5700, 5899, 8276, 8439, 8577, 8728, 8933, 9132, 9519, 9690, 9801, 9911, 9978, 10128, 10212, 10708, 10861, 10963, 11119, 11221, 11340, 11536, 11690, 11837, 11969, 12101, 12280, 12476, 12632, 12794, 12904, 13131, 13815, 14047, 14279, 14944, 15392, 15506, 15586, 15694, 15920, 16999, 17148, 17288, 17404, 17472, 17585, 18846, 18956, 19110, 19260, 19408, 19542, 19689, 19886, 20085, 20412, 20483, 20598, 20723, 20839, 20962, 21154, 21473, 21622, 21732, 21778, 21924, 22002, 22172, 22376, 22776, 22972, 23248, 23385, 23498, 23608, 23704, 23819, 24272, 24452, 24561, 24711, 24881, 25136, 25298, 25415, 25676, 25820, 25937, 26295, 26409, 26525, 26637, 27116, 27276, 27383, 27560, 28654, 29163, 29282, 29381, 29638, 29750, 29863, 29991, 31411, 31585, 31738, 31843, 31965, 32078, 32198, 32612, 32759, 32878, 32989, 33066, 33166, 33280, 34600, 34715, 34866, 35005, 35369, 35592, 35700, 35802, 35955, 36062, 36171, 36280, 36484, 36597, 36677, 36850, 37123, 37287, 37498], "trial_type": "free-recall", "conditions": [24, 800, "a", 12000], "internal_node_id": "0.0-119.0-0.0", "key_presses": [83, 80, 79, 79, 76, 13, 67, 79, 79, 75, 66, 79, 79, 75, 13, 67, 79, 85, 78, 84, 89, 13, 83, 75, 73, 82, 84, 13, 80, 79, 67, 75, 69, 84, 13, 80, 65, 80, 69, 82, 13, 83, 80, 79, 79, 78, 13, 77, 73, 76, 75, 13, 66, 76, 79, 83, 8, 85, 83, 69, 13, 70, 76, 85, 84, 69, 13, 67, 79, 79, 75, 66, 79, 79, 75, 13, 67, 79, 85, 78, 84, 89, 13, 84, 79, 82, 85, 83, 73, 84, 13, 67, 65, 66, 66, 65, 71, 69, 13, 74, 85, 82, 89, 13, 74, 85, 68, 71, 69, 13, 82, 79, 66, 69, 8, 79, 84, 13, 76, 8, 70, 76, 85, 84, 69, 13, 84, 69, 77, 80, 76, 69, 13, 80, 79, 67, 75, 69, 84, 13, 66, 79, 88, 13, 67, 65, 66, 66, 65, 71, 69, 13, 84, 85, 82, 78, 73, 80, 13], "trial": 3, "time_elapsed": 1071593, "type": "FREE_RECALL", "trial_index": 155}, "uniqueid": "MTK1757:3GU1KF0O4J88O8S6OZBJVDHW4S5PBV", "dateTime": 1516296114232}, {"current_trial": 156, "trialdata": {"rt": 745, "trial_type": "text", "internal_node_id": "0.0-120.0", "time_elapsed": 1074347, "key_press": 32, "type": "INSTRUCTIONS", "trial_index": 156}, "uniqueid": "MTK1757:3GU1KF0O4J88O8S6OZBJVDHW4S5PBV", "dateTime": 1516296116980}, {"current_trial": 157, "trialdata": {"rt": [3896, 6515, 9726, 12117, 14314, 18568, 21490, 23858], "trial_type": "math-distractor", "key_times": [3206, 3444, 3896, 5456, 5799, 6515, 8623, 8890, 9726, 11614, 11931, 12117, 13911, 14116, 14314, 17855, 18344, 18568, 21038, 21232, 21490, 23335, 23627, 23858], "responses": ["14", "16", "16", "14", "21", "12", "20", "10"], "num2": [9, 5, 8, 2, 2, 8, 9, 1, 8], "num3": [1, 6, 6, 3, 9, 9, 9, 3, 8], "conditions": [24, 800, "a", 24000], "internal_node_id": "0.0-121.0", "key_presses": [49, 52, 13, 49, 54, 13, 49, 54, 13, 49, 52, 13, 50, 49, 13, 49, 50, 13, 50, 48, 13, 49, 48, 13], "trial": 4, "time_elapsed": 1100354, "type": "DISTRACTOR", "trial_index": 157, "num1": [4, 5, 5, 9, 9, 5, 2, 6, 6]}, "uniqueid": "MTK1757:3GU1KF0O4J88O8S6OZBJVDHW4S5PBV", "dateTime": 1516296142987}, {"current_trial": 158, "trialdata": {"rt": -1, "trial_type": "single-stim", "stimulus": "<p id=\"stim\">10</p>", "internal_node_id": "0.0-122.0-0.0", "time_elapsed": 1103358, "key_press": -1, "trial_index": 158}, "uniqueid": "MTK1757:3GU1KF0O4J88O8S6OZBJVDHW4S5PBV", "dateTime": 1516296145991}, {"current_trial": 159, "trialdata": {"rt": -1, "trial_type": "single-stim", "stimulus": "<p id=\"stim\">9</p>", "internal_node_id": "0.0-122.0-1.0", "time_elapsed": 1104360, "key_press": -1, "trial_index": 159}, "uniqueid": "MTK1757:3GU1KF0O4J88O8S6OZBJVDHW4S5PBV", "dateTime": 1516296146993}, {"current_trial": 160, "trialdata": {"rt": -1, "trial_type": "single-stim", "stimulus": "<p id=\"stim\">8</p>", "internal_node_id": "0.0-122.0-2.0", "time_elapsed": 1105362, "key_press": -1, "trial_index": 160}, "uniqueid": "MTK1757:3GU1KF0O4J88O8S6OZBJVDHW4S5PBV", "dateTime": 1516296147995}, {"current_trial": 161, "trialdata": {"rt": -1, "trial_type": "single-stim", "stimulus": "<p id=\"stim\">7</p>", "internal_node_id": "0.0-122.0-3.0", "time_elapsed": 1106366, "key_press": -1, "trial_index": 161}, "uniqueid": "MTK1757:3GU1KF0O4J88O8S6OZBJVDHW4S5PBV", "dateTime": 1516296148999}, {"current_trial": 162, "trialdata": {"rt": -1, "trial_type": "single-stim", "stimulus": "<p id=\"stim\">6</p>", "internal_node_id": "0.0-122.0-4.0", "time_elapsed": 1107368, "key_press": -1, "trial_index": 162}, "uniqueid": "MTK1757:3GU1KF0O4J88O8S6OZBJVDHW4S5PBV", "dateTime": 1516296150001}, {"current_trial": 163, "trialdata": {"rt": -1, "trial_type": "single-stim", "stimulus": "<p id=\"stim\">5</p>", "internal_node_id": "0.0-122.0-5.0", "time_elapsed": 1108370, "key_press": -1, "trial_index": 163}, "uniqueid": "MTK1757:3GU1KF0O4J88O8S6OZBJVDHW4S5PBV", "dateTime": 1516296151003}, {"current_trial": 164, "trialdata": {"rt": -1, "trial_type": "single-stim", "stimulus": "<p id=\"stim\">4</p>", "internal_node_id": "0.0-122.0-6.0", "time_elapsed": 1109372, "key_press": -1, "trial_index": 164}, "uniqueid": "MTK1757:3GU1KF0O4J88O8S6OZBJVDHW4S5PBV", "dateTime": 1516296152005}, {"current_trial": 165, "trialdata": {"rt": -1, "trial_type": "single-stim", "stimulus": "<p id=\"stim\">3</p>", "internal_node_id": "0.0-122.0-7.0", "time_elapsed": 1110374, "key_press": -1, "trial_index": 165}, "uniqueid": "MTK1757:3GU1KF0O4J88O8S6OZBJVDHW4S5PBV", "dateTime": 1516296153007}, {"current_trial": 166, "trialdata": {"rt": -1, "trial_type": "single-stim", "stimulus": "<p id=\"stim\">2</p>", "internal_node_id": "0.0-122.0-8.0", "time_elapsed": 1111377, "key_press": -1, "trial_index": 166}, "uniqueid": "MTK1757:3GU1KF0O4J88O8S6OZBJVDHW4S5PBV", "dateTime": 1516296154010}, {"current_trial": 167, "trialdata": {"rt": -1, "trial_type": "single-stim", "stimulus": "<p id=\"stim\">1</p>", "internal_node_id": "0.0-122.0-9.0", "time_elapsed": 1112379, "key_press": -1, "trial_index": 167}, "uniqueid": "MTK1757:3GU1KF0O4J88O8S6OZBJVDHW4S5PBV", "dateTime": 1516296155012}, {"current_trial": 168, "trialdata": {"rt": -1, "trial_type": "single-stim", "stimulus": "<p id=\"stim\">+</p>", "internal_node_id": "0.0-123.0-0.0", "time_elapsed": 1113881, "key_press": -1, "type": "FIXATION", "trial_index": 168}, "uniqueid": "MTK1757:3GU1KF0O4J88O8S6OZBJVDHW4S5PBV", "dateTime": 1516296156517}, {"current_trial": 169, "trialdata": {"rt": -1000, "trial_type": "single-audio", "word": "actor", "stimulus": "/static/audio/wordpool/ACTOR.wav", "conditions": [24, 800, "a", 24000], "internal_node_id": "0.0-124.0", "trial": 4, "time_elapsed": 1115863, "serialpos": 0, "key_press": -1, "wordID": 4, "type": "PRES_AUD", "trial_index": 169}, "uniqueid": "MTK1757:3GU1KF0O4J88O8S6OZBJVDHW4S5PBV", "dateTime": 1516296158496}, {"current_trial": 170, "trialdata": {"rt": -1000, "trial_type": "single-audio", "word": "stream", "stimulus": "/static/audio/wordpool/STREAM.wav", "conditions": [24, 800, "a", 24000], "internal_node_id": "0.0-125.0", "trial": 4, "time_elapsed": 1117720, "serialpos": 1, "key_press": -1, "wordID": 1391, "type": "PRES_AUD", "trial_index": 170}, "uniqueid": "MTK1757:3GU1KF0O4J88O8S6OZBJVDHW4S5PBV", "dateTime": 1516296160353}, {"current_trial": 171, "trialdata": {"rt": -1000, "trial_type": "single-audio", "word": "waitress", "stimulus": "/static/audio/wordpool/WAITRESS.wav", "conditions": [24, 800, "a", 24000], "internal_node_id": "0.0-126.0", "trial": 4, "time_elapsed": 1119680, "serialpos": 2, "key_press": -1, "wordID": 1580, "type": "PRES_AUD", "trial_index": 171}, "uniqueid": "MTK1757:3GU1KF0O4J88O8S6OZBJVDHW4S5PBV", "dateTime": 1516296162313}, {"current_trial": 172, "trialdata": {"rt": -1000, "trial_type": "single-audio", "word": "sticker", "stimulus": "/static/audio/wordpool/STICKER.wav", "conditions": [24, 800, "a", 24000], "internal_node_id": "0.0-127.0", "trial": 4, "time_elapsed": 1121672, "serialpos": 3, "key_press": -1, "wordID": 1381, "type": "PRES_AUD", "trial_index": 172}, "uniqueid": "MTK1757:3GU1KF0O4J88O8S6OZBJVDHW4S5PBV", "dateTime": 1516296164306}, {"current_trial": 173, "trialdata": {"rt": -1000, "trial_type": "single-audio", "word": "donor", "stimulus": "/static/audio/wordpool/DONOR.wav", "conditions": [24, 800, "a", 24000], "internal_node_id": "0.0-128.0", "trial": 4, "time_elapsed": 1123629, "serialpos": 4, "key_press": -1, "wordID": 484, "type": "PRES_AUD", "trial_index": 173}, "uniqueid": "MTK1757:3GU1KF0O4J88O8S6OZBJVDHW4S5PBV", "dateTime": 1516296166262}, {"current_trial": 174, "trialdata": {"rt": -1000, "trial_type": "single-audio", "word": "foot", "stimulus": "/static/audio/wordpool/FOOT.wav", "conditions": [24, 800, "a", 24000], "internal_node_id": "0.0-129.0", "trial": 4, "time_elapsed": 1125355, "serialpos": 5, "key_press": -1, "wordID": 589, "type": "PRES_AUD", "trial_index": 174}, "uniqueid": "MTK1757:3GU1KF0O4J88O8S6OZBJVDHW4S5PBV", "dateTime": 1516296167989}, {"current_trial": 175, "trialdata": {"rt": -1000, "trial_type": "single-audio", "word": "badge", "stimulus": "/static/audio/wordpool/BADGE.wav", "conditions": [24, 800, "a", 24000], "internal_node_id": "0.0-130.0", "trial": 4, "time_elapsed": 1127100, "serialpos": 6, "key_press": -1, "wordID": 67, "type": "PRES_AUD", "trial_index": 175}, "uniqueid": "MTK1757:3GU1KF0O4J88O8S6OZBJVDHW4S5PBV", "dateTime": 1516296169733}, {"current_trial": 176, "trialdata": {"rt": -1000, "trial_type": "single-audio", "word": "stone", "stimulus": "/static/audio/wordpool/STONE.wav", "conditions": [24, 800, "a", 24000], "internal_node_id": "0.0-131.0", "trial": 4, "time_elapsed": 1129013, "serialpos": 7, "key_press": -1, "wordID": 1384, "type": "PRES_AUD", "trial_index": 176}, "uniqueid": "MTK1757:3GU1KF0O4J88O8S6OZBJVDHW4S5PBV", "dateTime": 1516296171646}, {"current_trial": 177, "trialdata": {"rt": -1000, "trial_type": "single-audio", "word": "sparrow", "stimulus": "/static/audio/wordpool/SPARROW.wav", "conditions": [24, 800, "a", 24000], "internal_node_id": "0.0-132.0", "trial": 4, "time_elapsed": 1130741, "serialpos": 8, "key_press": -1, "wordID": 1346, "type": "PRES_AUD", "trial_index": 177}, "uniqueid": "MTK1757:3GU1KF0O4J88O8S6OZBJVDHW4S5PBV", "dateTime": 1516296173374}, {"current_trial": 178, "trialdata": {"rt": -1000, "trial_type": "single-audio", "word": "pecan", "stimulus": "/static/audio/wordpool/PECAN.wav", "conditions": [24, 800, "a", 24000], "internal_node_id": "0.0-133.0", "trial": 4, "time_elapsed": 1132501, "serialpos": 9, "key_press": -1, "wordID": 1035, "type": "PRES_AUD", "trial_index": 178}, "uniqueid": "MTK1757:3GU1KF0O4J88O8S6OZBJVDHW4S5PBV", "dateTime": 1516296175135}, {"current_trial": 179, "trialdata": {"rt": -1000, "trial_type": "single-audio", "word": "citrus", "stimulus": "/static/audio/wordpool/CITRUS.wav", "conditions": [24, 800, "a", 24000], "internal_node_id": "0.0-134.0", "trial": 4, "time_elapsed": 1134500, "serialpos": 10, "key_press": -1, "wordID": 312, "type": "PRES_AUD", "trial_index": 179}, "uniqueid": "MTK1757:3GU1KF0O4J88O8S6OZBJVDHW4S5PBV", "dateTime": 1516296177133}, {"current_trial": 180, "trialdata": {"rt": -1000, "trial_type": "single-audio", "word": "kidney", "stimulus": "/static/audio/wordpool/KIDNEY.wav", "conditions": [24, 800, "a", 24000], "internal_node_id": "0.0-135.0", "trial": 4, "time_elapsed": 1136130, "serialpos": 11, "key_press": -1, "wordID": 775, "type": "PRES_AUD", "trial_index": 180}, "uniqueid": "MTK1757:3GU1KF0O4J88O8S6OZBJVDHW4S5PBV", "dateTime": 1516296178763}, {"current_trial": 181, "trialdata": {"rt": -1000, "trial_type": "single-audio", "word": "tuba", "stimulus": "/static/audio/wordpool/TUBA.wav", "conditions": [24, 800, "a", 24000], "internal_node_id": "0.0-136.0", "trial": 4, "time_elapsed": 1137929, "serialpos": 12, "key_press": -1, "wordID": 1514, "type": "PRES_AUD", "trial_index": 181}, "uniqueid": "MTK1757:3GU1KF0O4J88O8S6OZBJVDHW4S5PBV", "dateTime": 1516296180562}, {"current_trial": 182, "trialdata": {"rt": -1000, "trial_type": "single-audio", "word": "stallion", "stimulus": "/static/audio/wordpool/STALLION.wav", "conditions": [24, 800, "a", 24000], "internal_node_id": "0.0-137.0", "trial": 4, "time_elapsed": 1139536, "serialpos": 13, "key_press": -1, "wordID": 1368, "type": "PRES_AUD", "trial_index": 182}, "uniqueid": "MTK1757:3GU1KF0O4J88O8S6OZBJVDHW4S5PBV", "dateTime": 1516296182169}, {"current_trial": 183, "trialdata": {"rt": -1000, "trial_type": "single-audio", "word": "panther", "stimulus": "/static/audio/wordpool/PANTHER.wav", "conditions": [24, 800, "a", 24000], "internal_node_id": "0.0-138.0", "trial": 4, "time_elapsed": 1141287, "serialpos": 14, "key_press": -1, "wordID": 1008, "type": "PRES_AUD", "trial_index": 183}, "uniqueid": "MTK1757:3GU1KF0O4J88O8S6OZBJVDHW4S5PBV", "dateTime": 1516296183920}, {"current_trial": 184, "trialdata": {"rt": -1000, "trial_type": "single-audio", "word": "globe", "stimulus": "/static/audio/wordpool/GLOBE.wav", "conditions": [24, 800, "a", 24000], "internal_node_id": "0.0-139.0", "trial": 4, "time_elapsed": 1143069, "serialpos": 15, "key_press": -1, "wordID": 640, "type": "PRES_AUD", "trial_index": 184}, "uniqueid": "MTK1757:3GU1KF0O4J88O8S6OZBJVDHW4S5PBV", "dateTime": 1516296185702}, {"current_trial": 185, "trialdata": {"rt": -1000, "trial_type": "single-audio", "word": "fungus", "stimulus": "/static/audio/wordpool/FUNGUS.wav", "conditions": [24, 800, "a", 24000], "internal_node_id": "0.0-140.0", "trial": 4, "time_elapsed": 1144906, "serialpos": 16, "key_press": -1, "wordID": 613, "type": "PRES_AUD", "trial_index": 185}, "uniqueid": "MTK1757:3GU1KF0O4J88O8S6OZBJVDHW4S5PBV", "dateTime": 1516296187540}, {"current_trial": 186, "trialdata": {"rt": -1000, "trial_type": "single-audio", "word": "wasp", "stimulus": "/static/audio/wordpool/WASP.wav", "conditions": [24, 800, "a", 24000], "internal_node_id": "0.0-141.0", "trial": 4, "time_elapsed": 1146568, "serialpos": 17, "key_press": -1, "wordID": 1592, "type": "PRES_AUD", "trial_index": 186}, "uniqueid": "MTK1757:3GU1KF0O4J88O8S6OZBJVDHW4S5PBV", "dateTime": 1516296189201}, {"current_trial": 187, "trialdata": {"rt": -1000, "trial_type": "single-audio", "word": "grape", "stimulus": "/static/audio/wordpool/GRAPE.wav", "conditions": [24, 800, "a", 24000], "internal_node_id": "0.0-142.0", "trial": 4, "time_elapsed": 1148190, "serialpos": 18, "key_press": -1, "wordID": 653, "type": "PRES_AUD", "trial_index": 187}, "uniqueid": "MTK1757:3GU1KF0O4J88O8S6OZBJVDHW4S5PBV", "dateTime": 1516296190824}, {"current_trial": 188, "trialdata": {"rt": -1000, "trial_type": "single-audio", "word": "convict", "stimulus": "/static/audio/wordpool/CONVICT.wav", "conditions": [24, 800, "a", 24000], "internal_node_id": "0.0-143.0", "trial": 4, "time_elapsed": 1149979, "serialpos": 19, "key_press": -1, "wordID": 370, "type": "PRES_AUD", "trial_index": 188}, "uniqueid": "MTK1757:3GU1KF0O4J88O8S6OZBJVDHW4S5PBV", "dateTime": 1516296192612}, {"current_trial": 189, "trialdata": {"rt": -1000, "trial_type": "single-audio", "word": "piano", "stimulus": "/static/audio/wordpool/PIANO.wav", "conditions": [24, 800, "a", 24000], "internal_node_id": "0.0-144.0", "trial": 4, "time_elapsed": 1151647, "serialpos": 20, "key_press": -1, "wordID": 1056, "type": "PRES_AUD", "trial_index": 189}, "uniqueid": "MTK1757:3GU1KF0O4J88O8S6OZBJVDHW4S5PBV", "dateTime": 1516296194280}, {"current_trial": 190, "trialdata": {"rt": -1000, "trial_type": "single-audio", "word": "lumber", "stimulus": "/static/audio/wordpool/LUMBER.wav", "conditions": [24, 800, "a", 24000], "internal_node_id": "0.0-145.0", "trial": 4, "time_elapsed": 1153297, "serialpos": 21, "key_press": -1, "wordID": 847, "type": "PRES_AUD", "trial_index": 190}, "uniqueid": "MTK1757:3GU1KF0O4J88O8S6OZBJVDHW4S5PBV", "dateTime": 1516296195931}, {"current_trial": 191, "trialdata": {"rt": -1000, "trial_type": "single-audio", "word": "beast", "stimulus": "/static/audio/wordpool/BEAST.wav", "conditions": [24, 800, "a", 24000], "internal_node_id": "0.0-146.0", "trial": 4, "time_elapsed": 1155200, "serialpos": 22, "key_press": -1, "wordID": 107, "type": "PRES_AUD", "trial_index": 191}, "uniqueid": "MTK1757:3GU1KF0O4J88O8S6OZBJVDHW4S5PBV", "dateTime": 1516296197833}, {"current_trial": 192, "trialdata": {"rt": -1000, "trial_type": "single-audio", "word": "jello", "stimulus": "/static/audio/wordpool/JELLO.wav", "conditions": [24, 800, "a", 24000], "internal_node_id": "0.0-147.0", "trial": 4, "time_elapsed": 1156927, "serialpos": 23, "key_press": -1, "wordID": 753, "type": "PRES_AUD", "trial_index": 192}, "uniqueid": "MTK1757:3GU1KF0O4J88O8S6OZBJVDHW4S5PBV", "dateTime": 1516296199560}, {"current_trial": 193, "trialdata": {"rt": -1, "trial_type": "single-stim", "stimulus": "", "internal_node_id": "0.0-148.0-0.0", "time_elapsed": 1158278, "key_press": -1, "type": "PRE_RECALL_DELAY", "trial_index": 193}, "uniqueid": "MTK1757:3GU1KF0O4J88O8S6OZBJVDHW4S5PBV", "dateTime": 1516296200911}, {"current_trial": 194, "trialdata": {"rt": -1000, "trial_type": "single-audio", "stimulus": "/static/audio/400Hz.wav", "internal_node_id": "0.0-149.0", "time_elapsed": 1158779, "key_press": -1, "type": "PRE_RECALL_ALERT", "trial_index": 194}, "uniqueid": "MTK1757:3GU1KF0O4J88O8S6OZBJVDHW4S5PBV", "dateTime": 1516296201413}, {"current_trial": 195, "trialdata": {"rt": [2231, 4477, 5890, 6781, 7708, 8939, 10057, 11494, 12967, 14534, 16858, 17833, 19103, 21598, 23372, 24718, 26018, 27378, 28709, 30108, 32743], "recwords": ["jello", "actor", "fooot", "donor", "sticker", "waitress", "stream", "stone", "sparrow", "beast", "lumber", "wasp", "grape", "fungus", "citrus", "kidney", "peacon", "sparrow", "stone", "badge", "convict"], "key_times": [1389, 1585, 1738, 1858, 2009, 2231, 3687, 3804, 4048, 4165, 4310, 4477, 5235, 5343, 5494, 5592, 5746, 5890, 6201, 6316, 6401, 6532, 6644, 6781, 6963, 7110, 7186, 7337, 7417, 7518, 7627, 7708, 7971, 8086, 8228, 8274, 8440, 8508, 8652, 8833, 8939, 9093, 9245, 9395, 9505, 9617, 9766, 10057, 10846, 11048, 11175, 11295, 11367, 11494, 11766, 11875, 12030, 12133, 12279, 12392, 12705, 12967, 13891, 13967, 14085, 14227, 14399, 14534, 14791, 14948, 15138, 15302, 15733, 16013, 16128, 16232, 16858, 17132, 17280, 17391, 17548, 17833, 18339, 18615, 18727, 18871, 18936, 19103, 19292, 19435, 19620, 19654, 19877, 21034, 21598, 22275, 22440, 22595, 22731, 22883, 23006, 23372, 23693, 23837, 24084, 24230, 24353, 24533, 24718, 25000, 25105, 25179, 25382, 25491, 25649, 26018, 26363, 26549, 26655, 26767, 26952, 27104, 27218, 27378, 28114, 28282, 28365, 28479, 28582, 28709, 29456, 29574, 29682, 29833, 29985, 30108, 31356, 31464, 31651, 31796, 32274, 32421, 32657, 32743], "trial_type": "free-recall", "conditions": [24, 800, "a", 24000], "internal_node_id": "0.0-150.0-0.0", "key_presses": [74, 69, 76, 76, 79, 13, 65, 67, 84, 79, 82, 13, 70, 79, 79, 79, 84, 13, 68, 79, 78, 79, 82, 13, 83, 84, 73, 67, 75, 69, 82, 13, 87, 65, 73, 84, 82, 69, 83, 83, 13, 83, 84, 82, 69, 65, 77, 13, 83, 84, 79, 78, 69, 13, 83, 80, 65, 82, 82, 79, 87, 13, 66, 69, 65, 83, 84, 13, 76, 85, 77, 80, 8, 66, 69, 82, 13, 87, 65, 83, 80, 13, 71, 82, 65, 80, 69, 13, 70, 85, 78, 71, 85, 83, 13, 67, 73, 84, 82, 85, 83, 13, 75, 73, 68, 78, 69, 89, 13, 80, 69, 65, 67, 79, 78, 13, 83, 80, 65, 82, 82, 79, 87, 13, 83, 84, 79, 78, 69, 13, 66, 65, 68, 71, 69, 13, 67, 79, 78, 86, 73, 67, 84, 13], "trial": 4, "time_elapsed": 1218783, "type": "FREE_RECALL", "trial_index": 195}, "uniqueid": "MTK1757:3GU1KF0O4J88O8S6OZBJVDHW4S5PBV", "dateTime": 1516296261424}, {"current_trial": 196, "trialdata": {"rt": 4421, "trial_type": "text", "internal_node_id": "0.0-151.0", "time_elapsed": 1225214, "key_press": 32, "type": "INSTRUCTIONS", "trial_index": 196}, "uniqueid": "MTK1757:3GU1KF0O4J88O8S6OZBJVDHW4S5PBV", "dateTime": 1516296267847}, {"current_trial": 197, "trialdata": {"rt": [2610, 4699, 8090, 10798], "trial_type": "math-distractor", "key_times": [2199, 2417, 2610, 3667, 4325, 4699, 6240, 7819, 8090, 10315, 10568, 10798], "responses": ["12", "13", "17", "29"], "num2": [6, 6, 2, 9, 4], "num3": [5, 6, 8, 7, 4], "conditions": [24, 1600, "a", 12000], "internal_node_id": "0.0-152.0", "key_presses": [49, 50, 13, 49, 51, 13, 49, 55, 13, 50, 57, 13], "trial": 5, "time_elapsed": 1239221, "type": "DISTRACTOR", "trial_index": 197, "num1": [1, 1, 7, 8, 7]}, "uniqueid": "MTK1757:3GU1KF0O4J88O8S6OZBJVDHW4S5PBV", "dateTime": 1516296281855}, {"current_trial": 198, "trialdata": {"rt": -1, "trial_type": "single-stim", "stimulus": "<p id=\"stim\">10</p>", "internal_node_id": "0.0-153.0-0.0", "time_elapsed": 1242225, "key_press": -1, "trial_index": 198}, "uniqueid": "MTK1757:3GU1KF0O4J88O8S6OZBJVDHW4S5PBV", "dateTime": 1516296284858}, {"current_trial": 199, "trialdata": {"rt": -1, "trial_type": "single-stim", "stimulus": "<p id=\"stim\">9</p>", "internal_node_id": "0.0-153.0-1.0", "time_elapsed": 1243227, "key_press": -1, "trial_index": 199}, "uniqueid": "MTK1757:3GU1KF0O4J88O8S6OZBJVDHW4S5PBV", "dateTime": 1516296285860}, {"current_trial": 200, "trialdata": {"rt": -1, "trial_type": "single-stim", "stimulus": "<p id=\"stim\">8</p>", "internal_node_id": "0.0-153.0-2.0", "time_elapsed": 1244229, "key_press": -1, "trial_index": 200}, "uniqueid": "MTK1757:3GU1KF0O4J88O8S6OZBJVDHW4S5PBV", "dateTime": 1516296286862}, {"current_trial": 201, "trialdata": {"rt": -1, "trial_type": "single-stim", "stimulus": "<p id=\"stim\">7</p>", "internal_node_id": "0.0-153.0-3.0", "time_elapsed": 1245231, "key_press": -1, "trial_index": 201}, "uniqueid": "MTK1757:3GU1KF0O4J88O8S6OZBJVDHW4S5PBV", "dateTime": 1516296287864}, {"current_trial": 202, "trialdata": {"rt": -1, "trial_type": "single-stim", "stimulus": "<p id=\"stim\">6</p>", "internal_node_id": "0.0-153.0-4.0", "time_elapsed": 1246233, "key_press": -1, "trial_index": 202}, "uniqueid": "MTK1757:3GU1KF0O4J88O8S6OZBJVDHW4S5PBV", "dateTime": 1516296288866}, {"current_trial": 203, "trialdata": {"rt": -1, "trial_type": "single-stim", "stimulus": "<p id=\"stim\">5</p>", "internal_node_id": "0.0-153.0-5.0", "time_elapsed": 1247235, "key_press": -1, "trial_index": 203}, "uniqueid": "MTK1757:3GU1KF0O4J88O8S6OZBJVDHW4S5PBV", "dateTime": 1516296289868}, {"current_trial": 204, "trialdata": {"rt": -1, "trial_type": "single-stim", "stimulus": "<p id=\"stim\">4</p>", "internal_node_id": "0.0-153.0-6.0", "time_elapsed": 1248237, "key_press": -1, "trial_index": 204}, "uniqueid": "MTK1757:3GU1KF0O4J88O8S6OZBJVDHW4S5PBV", "dateTime": 1516296290870}, {"current_trial": 205, "trialdata": {"rt": -1, "trial_type": "single-stim", "stimulus": "<p id=\"stim\">3</p>", "internal_node_id": "0.0-153.0-7.0", "time_elapsed": 1249239, "key_press": -1, "trial_index": 205}, "uniqueid": "MTK1757:3GU1KF0O4J88O8S6OZBJVDHW4S5PBV", "dateTime": 1516296291872}, {"current_trial": 206, "trialdata": {"rt": -1, "trial_type": "single-stim", "stimulus": "<p id=\"stim\">2</p>", "internal_node_id": "0.0-153.0-8.0", "time_elapsed": 1250240, "key_press": -1, "trial_index": 206}, "uniqueid": "MTK1757:3GU1KF0O4J88O8S6OZBJVDHW4S5PBV", "dateTime": 1516296292874}, {"current_trial": 207, "trialdata": {"rt": -1, "trial_type": "single-stim", "stimulus": "<p id=\"stim\">1</p>", "internal_node_id": "0.0-153.0-9.0", "time_elapsed": 1251243, "key_press": -1, "trial_index": 207}, "uniqueid": "MTK1757:3GU1KF0O4J88O8S6OZBJVDHW4S5PBV", "dateTime": 1516296293876}, {"current_trial": 208, "trialdata": {"rt": -1, "trial_type": "single-stim", "stimulus": "<p id=\"stim\">+</p>", "internal_node_id": "0.0-154.0-0.0", "time_elapsed": 1252747, "key_press": -1, "type": "FIXATION", "trial_index": 208}, "uniqueid": "MTK1757:3GU1KF0O4J88O8S6OZBJVDHW4S5PBV", "dateTime": 1516296295380}, {"current_trial": 209, "trialdata": {"rt": -1000, "trial_type": "single-audio", "word": "lily", "stimulus": "/static/audio/wordpool/LILY.wav", "conditions": [24, 1600, "a", 12000], "internal_node_id": "0.0-155.0", "trial": 5, "time_elapsed": 1255314, "serialpos": 0, "key_press": -1, "wordID": 820, "type": "PRES_AUD", "trial_index": 209}, "uniqueid": "MTK1757:3GU1KF0O4J88O8S6OZBJVDHW4S5PBV", "dateTime": 1516296297948}, {"current_trial": 210, "trialdata": {"rt": -1000, "trial_type": "single-audio", "word": "slide", "stimulus": "/static/audio/wordpool/SLIDE.wav", "conditions": [24, 1600, "a", 12000], "internal_node_id": "0.0-156.0", "trial": 5, "time_elapsed": 1257900, "serialpos": 1, "key_press": -1, "wordID": 1325, "type": "PRES_AUD", "trial_index": 210}, "uniqueid": "MTK1757:3GU1KF0O4J88O8S6OZBJVDHW4S5PBV", "dateTime": 1516296300534}, {"current_trial": 211, "trialdata": {"rt": -1000, "trial_type": "single-audio", "word": "princess", "stimulus": "/static/audio/wordpool/PRINCESS.wav", "conditions": [24, 1600, "a", 12000], "internal_node_id": "0.0-157.0", "trial": 5, "time_elapsed": 1260422, "serialpos": 2, "key_press": -1, "wordID": 1124, "type": "PRES_AUD", "trial_index": 211}, "uniqueid": "MTK1757:3GU1KF0O4J88O8S6OZBJVDHW4S5PBV", "dateTime": 1516296303056}, {"current_trial": 212, "trialdata": {"rt": -1000, "trial_type": "single-audio", "word": "keeper", "stimulus": "/static/audio/wordpool/KEEPER.wav", "conditions": [24, 1600, "a", 12000], "internal_node_id": "0.0-158.0", "trial": 5, "time_elapsed": 1263194, "serialpos": 3, "key_press": -1, "wordID": 768, "type": "PRES_AUD", "trial_index": 212}, "uniqueid": "MTK1757:3GU1KF0O4J88O8S6OZBJVDHW4S5PBV", "dateTime": 1516296305827}, {"current_trial": 213, "trialdata": {"rt": -1000, "trial_type": "single-audio", "word": "gallon", "stimulus": "/static/audio/wordpool/GALLON.wav", "conditions": [24, 1600, "a", 12000], "internal_node_id": "0.0-159.0", "trial": 5, "time_elapsed": 1265638, "serialpos": 4, "key_press": -1, "wordID": 617, "type": "PRES_AUD", "trial_index": 213}, "uniqueid": "MTK1757:3GU1KF0O4J88O8S6OZBJVDHW4S5PBV", "dateTime": 1516296308272}, {"current_trial": 214, "trialdata": {"rt": -1000, "trial_type": "single-audio", "word": "dustpan", "stimulus": "/static/audio/wordpool/DUSTPAN.wav", "conditions": [24, 1600, "a", 12000], "internal_node_id": "0.0-160.0", "trial": 5, "time_elapsed": 1268059, "serialpos": 5, "key_press": -1, "wordID": 508, "type": "PRES_AUD", "trial_index": 214}, "uniqueid": "MTK1757:3GU1KF0O4J88O8S6OZBJVDHW4S5PBV", "dateTime": 1516296310692}, {"current_trial": 215, "trialdata": {"rt": -1000, "trial_type": "single-audio", "word": "sheriff", "stimulus": "/static/audio/wordpool/SHERIFF.wav", "conditions": [24, 1600, "a", 12000], "internal_node_id": "0.0-161.0", "trial": 5, "time_elapsed": 1270600, "serialpos": 6, "key_press": -1, "wordID": 1283, "type": "PRES_AUD", "trial_index": 215}, "uniqueid": "MTK1757:3GU1KF0O4J88O8S6OZBJVDHW4S5PBV", "dateTime": 1516296313233}, {"current_trial": 216, "trialdata": {"rt": -1000, "trial_type": "single-audio", "word": "daisy", "stimulus": "/static/audio/wordpool/DAISY.wav", "conditions": [24, 1600, "a", 12000], "internal_node_id": "0.0-162.0", "trial": 5, "time_elapsed": 1273380, "serialpos": 7, "key_press": -1, "wordID": 434, "type": "PRES_AUD", "trial_index": 216}, "uniqueid": "MTK1757:3GU1KF0O4J88O8S6OZBJVDHW4S5PBV", "dateTime": 1516296316013}, {"current_trial": 217, "trialdata": {"rt": -1000, "trial_type": "single-audio", "word": "bike", "stimulus": "/static/audio/wordpool/BIKE.wav", "conditions": [24, 1600, "a", 12000], "internal_node_id": "0.0-163.0", "trial": 5, "time_elapsed": 1275935, "serialpos": 8, "key_press": -1, "wordID": 124, "type": "PRES_AUD", "trial_index": 217}, "uniqueid": "MTK1757:3GU1KF0O4J88O8S6OZBJVDHW4S5PBV", "dateTime": 1516296318569}, {"current_trial": 218, "trialdata": {"rt": -1000, "trial_type": "single-audio", "word": "valve", "stimulus": "/static/audio/wordpool/VALVE.wav", "conditions": [24, 1600, "a", 12000], "internal_node_id": "0.0-164.0", "trial": 5, "time_elapsed": 1278413, "serialpos": 9, "key_press": -1, "wordID": 1545, "type": "PRES_AUD", "trial_index": 218}, "uniqueid": "MTK1757:3GU1KF0O4J88O8S6OZBJVDHW4S5PBV", "dateTime": 1516296321047}, {"current_trial": 219, "trialdata": {"rt": -1000, "trial_type": "single-audio", "word": "piston", "stimulus": "/static/audio/wordpool/PISTON.wav", "conditions": [24, 1600, "a", 12000], "internal_node_id": "0.0-165.0", "trial": 5, "time_elapsed": 1280851, "serialpos": 10, "key_press": -1, "wordID": 1075, "type": "PRES_AUD", "trial_index": 219}, "uniqueid": "MTK1757:3GU1KF0O4J88O8S6OZBJVDHW4S5PBV", "dateTime": 1516296323485}, {"current_trial": 220, "trialdata": {"rt": -1000, "trial_type": "single-audio", "word": "pilot", "stimulus": "/static/audio/wordpool/PILOT.wav", "conditions": [24, 1600, "a", 12000], "internal_node_id": "0.0-166.0", "trial": 5, "time_elapsed": 1283494, "serialpos": 11, "key_press": -1, "wordID": 1069, "type": "PRES_AUD", "trial_index": 220}, "uniqueid": "MTK1757:3GU1KF0O4J88O8S6OZBJVDHW4S5PBV", "dateTime": 1516296326127}, {"current_trial": 221, "trialdata": {"rt": -1000, "trial_type": "single-audio", "word": "summit", "stimulus": "/static/audio/wordpool/SUMMIT.wav", "conditions": [24, 1600, "a", 12000], "internal_node_id": "0.0-167.0", "trial": 5, "time_elapsed": 1286276, "serialpos": 12, "key_press": -1, "wordID": 1404, "type": "PRES_AUD", "trial_index": 221}, "uniqueid": "MTK1757:3GU1KF0O4J88O8S6OZBJVDHW4S5PBV", "dateTime": 1516296328910}, {"current_trial": 222, "trialdata": {"rt": -1000, "trial_type": "single-audio", "word": "window", "stimulus": "/static/audio/wordpool/WINDOW.wav", "conditions": [24, 1600, "a", 12000], "internal_node_id": "0.0-168.0", "trial": 5, "time_elapsed": 1288763, "serialpos": 13, "key_press": -1, "wordID": 1610, "type": "PRES_AUD", "trial_index": 222}, "uniqueid": "MTK1757:3GU1KF0O4J88O8S6OZBJVDHW4S5PBV", "dateTime": 1516296331397}, {"current_trial": 223, "trialdata": {"rt": -1000, "trial_type": "single-audio", "word": "diner", "stimulus": "/static/audio/wordpool/DINER.wav", "conditions": [24, 1600, "a", 12000], "internal_node_id": "0.0-169.0", "trial": 5, "time_elapsed": 1291361, "serialpos": 14, "key_press": -1, "wordID": 466, "type": "PRES_AUD", "trial_index": 223}, "uniqueid": "MTK1757:3GU1KF0O4J88O8S6OZBJVDHW4S5PBV", "dateTime": 1516296333995}, {"current_trial": 224, "trialdata": {"rt": -1000, "trial_type": "single-audio", "word": "zebra", "stimulus": "/static/audio/wordpool/ZEBRA.wav", "conditions": [24, 1600, "a", 12000], "internal_node_id": "0.0-170.0", "trial": 5, "time_elapsed": 1294145, "serialpos": 15, "key_press": -1, "wordID": 1634, "type": "PRES_AUD", "trial_index": 224}, "uniqueid": "MTK1757:3GU1KF0O4J88O8S6OZBJVDHW4S5PBV", "dateTime": 1516296336778}, {"current_trial": 225, "trialdata": {"rt": -1000, "trial_type": "single-audio", "word": "sibling", "stimulus": "/static/audio/wordpool/SIBLING.wav", "conditions": [24, 1600, "a", 12000], "internal_node_id": "0.0-171.0", "trial": 5, "time_elapsed": 1296795, "serialpos": 16, "key_press": -1, "wordID": 1300, "type": "PRES_AUD", "trial_index": 225}, "uniqueid": "MTK1757:3GU1KF0O4J88O8S6OZBJVDHW4S5PBV", "dateTime": 1516296339428}, {"current_trial": 226, "trialdata": {"rt": -1000, "trial_type": "single-audio", "word": "salad", "stimulus": "/static/audio/wordpool/SALAD.wav", "conditions": [24, 1600, "a", 12000], "internal_node_id": "0.0-172.0", "trial": 5, "time_elapsed": 1299226, "serialpos": 17, "key_press": -1, "wordID": 1223, "type": "PRES_AUD", "trial_index": 226}, "uniqueid": "MTK1757:3GU1KF0O4J88O8S6OZBJVDHW4S5PBV", "dateTime": 1516296341860}, {"current_trial": 227, "trialdata": {"rt": -1000, "trial_type": "single-audio", "word": "custard", "stimulus": "/static/audio/wordpool/CUSTARD.wav", "conditions": [24, 1600, "a", 12000], "internal_node_id": "0.0-173.0", "trial": 5, "time_elapsed": 1301785, "serialpos": 18, "key_press": -1, "wordID": 428, "type": "PRES_AUD", "trial_index": 227}, "uniqueid": "MTK1757:3GU1KF0O4J88O8S6OZBJVDHW4S5PBV", "dateTime": 1516296344418}, {"current_trial": 228, "trialdata": {"rt": -1000, "trial_type": "single-audio", "word": "raft", "stimulus": "/static/audio/wordpool/RAFT.wav", "conditions": [24, 1600, "a", 12000], "internal_node_id": "0.0-174.0", "trial": 5, "time_elapsed": 1304207, "serialpos": 19, "key_press": -1, "wordID": 1158, "type": "PRES_AUD", "trial_index": 228}, "uniqueid": "MTK1757:3GU1KF0O4J88O8S6OZBJVDHW4S5PBV", "dateTime": 1516296346840}, {"current_trial": 229, "trialdata": {"rt": -1000, "trial_type": "single-audio", "word": "lapel", "stimulus": "/static/audio/wordpool/LAPEL.wav", "conditions": [24, 1600, "a", 12000], "internal_node_id": "0.0-175.0", "trial": 5, "time_elapsed": 1306856, "serialpos": 20, "key_press": -1, "wordID": 799, "type": "PRES_AUD", "trial_index": 229}, "uniqueid": "MTK1757:3GU1KF0O4J88O8S6OZBJVDHW4S5PBV", "dateTime": 1516296349489}, {"current_trial": 230, "trialdata": {"rt": -1000, "trial_type": "single-audio", "word": "cupboard", "stimulus": "/static/audio/wordpool/CUPBOARD.wav", "conditions": [24, 1600, "a", 12000], "internal_node_id": "0.0-176.0", "trial": 5, "time_elapsed": 1309462, "serialpos": 21, "key_press": -1, "wordID": 424, "type": "PRES_AUD", "trial_index": 230}, "uniqueid": "MTK1757:3GU1KF0O4J88O8S6OZBJVDHW4S5PBV", "dateTime": 1516296352095}, {"current_trial": 231, "trialdata": {"rt": -1000, "trial_type": "single-audio", "word": "dresser", "stimulus": "/static/audio/wordpool/DRESSER.wav", "conditions": [24, 1600, "a", 12000], "internal_node_id": "0.0-177.0", "trial": 5, "time_elapsed": 1311919, "serialpos": 22, "key_press": -1, "wordID": 495, "type": "PRES_AUD", "trial_index": 231}, "uniqueid": "MTK1757:3GU1KF0O4J88O8S6OZBJVDHW4S5PBV", "dateTime": 1516296354552}, {"current_trial": 232, "trialdata": {"rt": -1000, "trial_type": "single-audio", "word": "pudding", "stimulus": "/static/audio/wordpool/PUDDING.wav", "conditions": [24, 1600, "a", 12000], "internal_node_id": "0.0-178.0", "trial": 5, "time_elapsed": 1314394, "serialpos": 23, "key_press": -1, "wordID": 1138, "type": "PRES_AUD", "trial_index": 232}, "uniqueid": "MTK1757:3GU1KF0O4J88O8S6OZBJVDHW4S5PBV", "dateTime": 1516296357027}, {"current_trial": 233, "trialdata": {"rt": -1, "trial_type": "single-stim", "stimulus": "", "internal_node_id": "0.0-179.0-0.0", "time_elapsed": 1315721, "key_press": -1, "type": "PRE_RECALL_DELAY", "trial_index": 233}, "uniqueid": "MTK1757:3GU1KF0O4J88O8S6OZBJVDHW4S5PBV", "dateTime": 1516296358354}, {"current_trial": 234, "trialdata": {"rt": -1000, "trial_type": "single-audio", "stimulus": "/static/audio/400Hz.wav", "internal_node_id": "0.0-180.0", "time_elapsed": 1316223, "key_press": -1, "type": "PRE_RECALL_ALERT", "trial_index": 234}, "uniqueid": "MTK1757:3GU1KF0O4J88O8S6OZBJVDHW4S5PBV", "dateTime": 1516296358857}, {"current_trial": 235, "trialdata": {"rt": [3633, 4758, 6738, 7956, 8791, 9933, 11086, 12213, 13134, 14260, 15431, 16322, 19446, 20838, 23763, 25920, 52587, 57524], "recwords": ["pudding", "li