{"assignmentId": "30IQTZXKALDCDURNCAOB597GG1Z0XJ", "workerId": "MTK1917", "questiondata": {"origin": "United States", "strat-rehearsal": "90", "marital": "Married/Domestic Partnership", "education": "Master's degree", "ethnicity": "Not Hispanic", "color_depth": 24, "distracted": "No", "wrote-notes": "No", "strat-other": "None", "screen_width": 1366, "avail_screen_width": 1366, "avail_screen_height": 728, "strat-image": "85", "language": "English", "gender": "Female", "age": "45", "gender_other": "", "race": ["White"], "strat-categorize": "90", "pixel_depth": 24, "strat-spatial": "90", "strat-story": "90", "race_other": "", "screen_height": 768}, "bonus": 0, "hitId": "3ZVPAMTJWNAN4II2RB2KCZCO4U4GR0", "counterbalance": 467, "useragent": "Mozilla/5.0 (Windows NT 10.0; Win64; x64) AppleWebKit/537.36 (KHTML, like Gecko) Chrome/63.0.3239.132 Safari/537.36", "eventdata": [{"eventtype": "initialized", "interval": 0, "value": null, "timestamp": 1516555953588}, {"eventtype": "window_resize", "interval": 0, "value": [1366, 721], "timestamp": 1516555953588}], "data": [{"current_trial": 0, "trialdata": {"rt": 3384, "trial_type": "text", "internal_node_id": "0.0-0.0", "time_elapsed": 3392, "key_press": 13, "type": "INSTRUCTIONS", "trial_index": 0}, "uniqueid": "MTK1917:30IQTZXKALDCDURNCAOB597GG1Z0XJ", "dateTime": 1516555987903}, {"current_trial": 1, "trialdata": {"rt": 115335, "trial_type": "text", "internal_node_id": "0.0-1.0", "time_elapsed": 118743, "key_press": 32, "type": "INSTRUCTIONS", "trial_index": 1}, "uniqueid": "MTK1917:30IQTZXKALDCDURNCAOB597GG1Z0XJ", "dateTime": 1516556103254}, {"current_trial": 2, "trialdata": {"rt": [20472], "trial_type": "audio-test", "responses": ["ocean"], "internal_node_id": "0.0-2.0", "time_elapsed": 139239, "type": "AUDIO_TEST", "trial_index": 2}, "uniqueid": "MTK1917:30IQTZXKALDCDURNCAOB597GG1Z0XJ", "dateTime": 1516556123750}, {"current_trial": 3, "trialdata": {"rt": [10615], "trial_type": "audio-test", "responses": ["crystal"], "internal_node_id": "0.0-3.0", "time_elapsed": 149865, "type": "AUDIO_TEST", "trial_index": 3}, "uniqueid": "MTK1917:30IQTZXKALDCDURNCAOB597GG1Z0XJ", "dateTime": 1516556134376}, {"current_trial": 4, "trialdata": {"rt": [15014], "trial_type": "audio-test", "responses": ["spice"], "internal_node_id": "0.0-4.0", "time_elapsed": 164890, "type": "AUDIO_TEST", "trial_index": 4}, "uniqueid": "MTK1917:30IQTZXKALDCDURNCAOB597GG1Z0XJ", "dateTime": 1516556149401}, {"current_trial": 5, "trialdata": {"rt": 30026, "trial_type": "survey-text", "responses": "{\"Q0\":\"3\",\"Q1\":\"11\",\"Q2\":\"4\"}", "internal_node_id": "0.0-5.0", "time_elapsed": 195672, "type": "SLEEP_SURVEY", "trial_index": 5}, "uniqueid": "MTK1917:30IQTZXKALDCDURNCAOB597GG1Z0XJ", "dateTime": 1516556180183}, {"current_trial": 6, "trialdata": {"rt": 31510, "trial_type": "text", "internal_node_id": "0.0-6.0", "time_elapsed": 228184, "key_press": 76, "type": "INSTRUCTIONS", "trial_index": 6}, "uniqueid": "MTK1917:30IQTZXKALDCDURNCAOB597GG1Z0XJ", "dateTime": 1516556212699}, {"current_trial": 7, "trialdata": {"rt": 15516, "trial_type": "text", "internal_node_id": "0.0-7.0", "time_elapsed": 244204, "key_press": 13, "type": "INSTRUCTIONS", "trial_index": 7}, "uniqueid": "MTK1917:30IQTZXKALDCDURNCAOB597GG1Z0XJ", "dateTime": 1516556228715}, {"current_trial": 8, "trialdata": {"rt": 19823, "trial_type": "text", "internal_node_id": "0.0-8.0", "time_elapsed": 264847, "key_press": 13, "type": "INSTRUCTIONS", "trial_index": 8}, "uniqueid": "MTK1917:30IQTZXKALDCDURNCAOB597GG1Z0XJ", "dateTime": 1516556249358}, {"current_trial": 9, "trialdata": {"rt": [7060, 10344, 13740, 17677], "trial_type": "math-distractor", "key_times": [5374, 5603, 7060, 9144, 10344, 12651, 12807, 13740, 16843, 17057, 17677], "responses": ["18", "9", "15", "15"], "num2": [2, 1, 6, 7, 7], "num3": [7, 1, 5, 5, 2], "conditions": [18, 1200, "a", 18000], "internal_node_id": "0.0-9.0", "key_presses": [97, 104, 13, 105, 13, 97, 101, 13, 97, 101, 13], "trial": 0, "time_elapsed": 283869, "type": "DISTRACTOR", "trial_index": 9, "num1": [9, 7, 4, 3, 8]}, "uniqueid": "MTK1917:30IQTZXKALDCDURNCAOB597GG1Z0XJ", "dateTime": 1516556268380}, {"current_trial": 10, "trialdata": {"rt": -1, "trial_type": "single-stim", "stimulus": "<p id=\"stim\">10</p>", "internal_node_id": "0.0-10.0-0.0", "time_elapsed": 287066, "key_press": -1, "trial_index": 10}, "uniqueid": "MTK1917:30IQTZXKALDCDURNCAOB597GG1Z0XJ", "dateTime": 1516556271577}, {"current_trial": 11, "trialdata": {"rt": -1, "trial_type": "single-stim", "stimulus": "<p id=\"stim\">9</p>", "internal_node_id": "0.0-10.0-1.0", "time_elapsed": 288071, "key_press": -1, "trial_index": 11}, "uniqueid": "MTK1917:30IQTZXKALDCDURNCAOB597GG1Z0XJ", "dateTime": 1516556272582}, {"current_trial": 12, "trialdata": {"rt": -1, "trial_type": "single-stim", "stimulus": "<p id=\"stim\">8</p>", "internal_node_id": "0.0-10.0-2.0", "time_elapsed": 289074, "key_press": -1, "trial_index": 12}, "uniqueid": "MTK1917:30IQTZXKALDCDURNCAOB597GG1Z0XJ", "dateTime": 1516556273585}, {"current_trial": 13, "trialdata": {"rt": -1, "trial_type": "single-stim", "stimulus": "<p id=\"stim\">7</p>", "internal_node_id": "0.0-10.0-3.0", "time_elapsed": 290075, "key_press": -1, "trial_index": 13}, "uniqueid": "MTK1917:30IQTZXKALDCDURNCAOB597GG1Z0XJ", "dateTime": 1516556274586}, {"current_trial": 14, "trialdata": {"rt": -1, "trial_type": "single-stim", "stimulus": "<p id=\"stim\">6</p>", "internal_node_id": "0.0-10.0-4.0", "time_elapsed": 291075, "key_press": -1, "trial_index": 14}, "uniqueid": "MTK1917:30IQTZXKALDCDURNCAOB597GG1Z0XJ", "dateTime": 1516556275586}, {"current_trial": 15, "trialdata": {"rt": -1, "trial_type": "single-stim", "stimulus": "<p id=\"stim\">5</p>", "internal_node_id": "0.0-10.0-5.0", "time_elapsed": 292077, "key_press": -1, "trial_index": 15}, "uniqueid": "MTK1917:30IQTZXKALDCDURNCAOB597GG1Z0XJ", "dateTime": 1516556276588}, {"current_trial": 16, "trialdata": {"rt": -1, "trial_type": "single-stim", "stimulus": "<p id=\"stim\">4</p>", "internal_node_id": "0.0-10.0-6.0", "time_elapsed": 293078, "key_press": -1, "trial_index": 16}, "uniqueid": "MTK1917:30IQTZXKALDCDURNCAOB597GG1Z0XJ", "dateTime": 1516556277589}, {"current_trial": 17, "trialdata": {"rt": -1, "trial_type": "single-stim", "stimulus": "<p id=\"stim\">3</p>", "internal_node_id": "0.0-10.0-7.0", "time_elapsed": 294094, "key_press": -1, "trial_index": 17}, "uniqueid": "MTK1917:30IQTZXKALDCDURNCAOB597GG1Z0XJ", "dateTime": 1516556278605}, {"current_trial": 18, "trialdata": {"rt": -1, "trial_type": "single-stim", "stimulus": "<p id=\"stim\">2</p>", "internal_node_id": "0.0-10.0-8.0", "time_elapsed": 295208, "key_press": -1, "trial_index": 18}, "uniqueid": "MTK1917:30IQTZXKALDCDURNCAOB597GG1Z0XJ", "dateTime": 1516556279719}, {"current_trial": 19, "trialdata": {"rt": -1, "trial_type": "single-stim", "stimulus": "<p id=\"stim\">1</p>", "internal_node_id": "0.0-10.0-9.0", "time_elapsed": 296212, "key_press": -1, "trial_index": 19}, "uniqueid": "MTK1917:30IQTZXKALDCDURNCAOB597GG1Z0XJ", "dateTime": 1516556280723}, {"current_trial": 20, "trialdata": {"rt": -1, "trial_type": "single-stim", "stimulus": "<p id=\"stim\">+</p>", "internal_node_id": "0.0-11.0-0.0", "time_elapsed": 297715, "key_press": -1, "type": "FIXATION", "trial_index": 20}, "uniqueid": "MTK1917:30IQTZXKALDCDURNCAOB597GG1Z0XJ", "dateTime": 1516556282226}, {"current_trial": 21, "trialdata": {"rt": -1000, "trial_type": "single-audio", "word": "knapsack", "stimulus": "/static/audio/wordpool/KNAPSACK.wav", "conditions": [18, 1200, "a", 18000], "internal_node_id": "0.0-12.0", "trial": 0, "time_elapsed": 300014, "serialpos": 0, "key_press": -1, "wordID": 782, "type": "PRES_AUD", "trial_index": 21}, "uniqueid": "MTK1917:30IQTZXKALDCDURNCAOB597GG1Z0XJ", "dateTime": 1516556284525}, {"current_trial": 22, "trialdata": {"rt": -1000, "trial_type": "single-audio", "word": "crater", "stimulus": "/static/audio/wordpool/CRATER.wav", "conditions": [18, 1200, "a", 18000], "internal_node_id": "0.0-13.0", "trial": 0, "time_elapsed": 302412, "serialpos": 1, "key_press": -1, "wordID": 399, "type": "PRES_AUD", "trial_index": 22}, "uniqueid": "MTK1917:30IQTZXKALDCDURNCAOB597GG1Z0XJ", "dateTime": 1516556286923}, {"current_trial": 23, "trialdata": {"rt": -1000, "trial_type": "single-audio", "word": "passage", "stimulus": "/static/audio/wordpool/PASSAGE.wav", "conditions": [18, 1200, "a", 18000], "internal_node_id": "0.0-14.0", "trial": 0, "time_elapsed": 304559, "serialpos": 2, "key_press": -1, "wordID": 1018, "type": "PRES_AUD", "trial_index": 23}, "uniqueid": "MTK1917:30IQTZXKALDCDURNCAOB597GG1Z0XJ", "dateTime": 1516556289070}, {"current_trial": 24, "trialdata": {"rt": -1000, "trial_type": "single-audio", "word": "breast", "stimulus": "/static/audio/wordpool/BREAST.wav", "conditions": [18, 1200, "a", 18000], "internal_node_id": "0.0-15.0", "trial": 0, "time_elapsed": 306937, "serialpos": 3, "key_press": -1, "wordID": 170, "type": "PRES_AUD", "trial_index": 24}, "uniqueid": "MTK1917:30IQTZXKALDCDURNCAOB597GG1Z0XJ", "dateTime": 1516556291448}, {"current_trial": 25, "trialdata": {"rt": -1000, "trial_type": "single-audio", "word": "canal", "stimulus": "/static/audio/wordpool/CANAL.wav", "conditions": [18, 1200, "a", 18000], "internal_node_id": "0.0-16.0", "trial": 0, "time_elapsed": 309312, "serialpos": 4, "key_press": -1, "wordID": 225, "type": "PRES_AUD", "trial_index": 25}, "uniqueid": "MTK1917:30IQTZXKALDCDURNCAOB597GG1Z0XJ", "dateTime": 1516556293823}, {"current_trial": 26, "trialdata": {"rt": -1000, "trial_type": "single-audio", "word": "message", "stimulus": "/static/audio/wordpool/MESSAGE.wav", "conditions": [18, 1200, "a", 18000], "internal_node_id": "0.0-17.0", "trial": 0, "time_elapsed": 311709, "serialpos": 5, "key_press": -1, "wordID": 887, "type": "PRES_AUD", "trial_index": 26}, "uniqueid": "MTK1917:30IQTZXKALDCDURNCAOB597GG1Z0XJ", "dateTime": 1516556296220}, {"current_trial": 27, "trialdata": {"rt": -1000, "trial_type": "single-audio", "word": "radish", "stimulus": "/static/audio/wordpool/RADISH.wav", "conditions": [18, 1200, "a", 18000], "internal_node_id": "0.0-18.0", "trial": 0, "time_elapsed": 314075, "serialpos": 6, "key_press": -1, "wordID": 1157, "type": "PRES_AUD", "trial_index": 27}, "uniqueid": "MTK1917:30IQTZXKALDCDURNCAOB597GG1Z0XJ", "dateTime": 1516556298586}, {"current_trial": 28, "trialdata": {"rt": -1000, "trial_type": "single-audio", "word": "lake", "stimulus": "/static/audio/wordpool/LAKE.wav", "conditions": [18, 1200, "a", 18000], "internal_node_id": "0.0-19.0", "trial": 0, "time_elapsed": 316347, "serialpos": 7, "key_press": -1, "wordID": 795, "type": "PRES_AUD", "trial_index": 28}, "uniqueid": "MTK1917:30IQTZXKALDCDURNCAOB597GG1Z0XJ", "dateTime": 1516556300858}, {"current_trial": 29, "trialdata": {"rt": -1000, "trial_type": "single-audio", "word": "quarter", "stimulus": "/static/audio/wordpool/QUARTER.wav", "conditions": [18, 1200, "a", 18000], "internal_node_id": "0.0-20.0", "trial": 0, "time_elapsed": 318637, "serialpos": 8, "key_press": -1, "wordID": 1147, "type": "PRES_AUD", "trial_index": 29}, "uniqueid": "MTK1917:30IQTZXKALDCDURNCAOB597GG1Z0XJ", "dateTime": 1516556303149}, {"current_trial": 30, "trialdata": {"rt": -1000, "trial_type": "single-audio", "word": "trout", "stimulus": "/static/audio/wordpool/TROUT.wav", "conditions": [18, 1200, "a", 18000], "internal_node_id": "0.0-21.0", "trial": 0, "time_elapsed": 321192, "serialpos": 9, "key_press": -1, "wordID": 1510, "type": "PRES_AUD", "trial_index": 30}, "uniqueid": "MTK1917:30IQTZXKALDCDURNCAOB597GG1Z0XJ", "dateTime": 1516556305703}, {"current_trial": 31, "trialdata": {"rt": -1000, "trial_type": "single-audio", "word": "twig", "stimulus": "/static/audio/wordpool/TWIG.wav", "conditions": [18, 1200, "a", 18000], "internal_node_id": "0.0-22.0", "trial": 0, "time_elapsed": 323416, "serialpos": 10, "key_press": -1, "wordID": 1526, "type": "PRES_AUD", "trial_index": 31}, "uniqueid": "MTK1917:30IQTZXKALDCDURNCAOB597GG1Z0XJ", "dateTime": 1516556307927}, {"current_trial": 32, "trialdata": {"rt": -1000, "trial_type": "single-audio", "word": "razor", "stimulus": "/static/audio/wordpool/RAZOR.wav", "conditions": [18, 1200, "a", 18000], "internal_node_id": "0.0-23.0", "trial": 0, "time_elapsed": 325825, "serialpos": 11, "key_press": -1, "wordID": 1170, "type": "PRES_AUD", "trial_index": 32}, "uniqueid": "MTK1917:30IQTZXKALDCDURNCAOB597GG1Z0XJ", "dateTime": 1516556310336}, {"current_trial": 33, "trialdata": {"rt": -1000, "trial_type": "single-audio", "word": "wagon", "stimulus": "/static/audio/wordpool/WAGON.wav", "conditions": [18, 1200, "a", 18000], "internal_node_id": "0.0-24.0", "trial": 0, "time_elapsed": 327918, "serialpos": 12, "key_press": -1, "wordID": 1577, "type": "PRES_AUD", "trial_index": 33}, "uniqueid": "MTK1917:30IQTZXKALDCDURNCAOB597GG1Z0XJ", "dateTime": 1516556312429}, {"current_trial": 34, "trialdata": {"rt": -1000, "trial_type": "single-audio", "word": "tribe", "stimulus": "/static/audio/wordpool/TRIBE.wav", "conditions": [18, 1200, "a", 18000], "internal_node_id": "0.0-25.0", "trial": 0, "time_elapsed": 330210, "serialpos": 13, "key_press": -1, "wordID": 1504, "type": "PRES_AUD", "trial_index": 34}, "uniqueid": "MTK1917:30IQTZXKALDCDURNCAOB597GG1Z0XJ", "dateTime": 1516556314722}, {"current_trial": 35, "trialdata": {"rt": -1000, "trial_type": "single-audio", "word": "spool", "stimulus": "/static/audio/wordpool/SPOOL.wav", "conditions": [18, 1200, "a", 18000], "internal_node_id": "0.0-26.0", "trial": 0, "time_elapsed": 332559, "serialpos": 14, "key_press": -1, "wordID": 1355, "type": "PRES_AUD", "trial_index": 35}, "uniqueid": "MTK1917:30IQTZXKALDCDURNCAOB597GG1Z0XJ", "dateTime": 1516556317071}, {"current_trial": 36, "trialdata": {"rt": -1000, "trial_type": "single-audio", "word": "cocktail", "stimulus": "/static/audio/wordpool/COCKTAIL.wav", "conditions": [18, 1200, "a", 18000], "internal_node_id": "0.0-27.0", "trial": 0, "time_elapsed": 334794, "serialpos": 15, "key_press": -1, "wordID": 337, "type": "PRES_AUD", "trial_index": 36}, "uniqueid": "MTK1917:30IQTZXKALDCDURNCAOB597GG1Z0XJ", "dateTime": 1516556319305}, {"current_trial": 37, "trialdata": {"rt": -1000, "trial_type": "single-audio", "word": "penguin", "stimulus": "/static/audio/wordpool/PENGUIN.wav", "conditions": [18, 1200, "a", 18000], "internal_node_id": "0.0-28.0", "trial": 0, "time_elapsed": 336873, "serialpos": 16, "key_press": -1, "wordID": 1043, "type": "PRES_AUD", "trial_index": 37}, "uniqueid": "MTK1917:30IQTZXKALDCDURNCAOB597GG1Z0XJ", "dateTime": 1516556321385}, {"current_trial": 38, "trialdata": {"rt": -1000, "trial_type": "single-audio", "word": "paper", "stimulus": "/static/audio/wordpool/PAPER.wav", "conditions": [18, 1200, "a", 18000], "internal_node_id": "0.0-29.0", "trial": 0, "time_elapsed": 338916, "serialpos": 17, "key_press": -1, "wordID": 1010, "type": "PRES_AUD", "trial_index": 38}, "uniqueid": "MTK1917:30IQTZXKALDCDURNCAOB597GG1Z0XJ", "dateTime": 1516556323427}, {"current_trial": 39, "trialdata": {"rt": -1, "trial_type": "single-stim", "stimulus": "", "internal_node_id": "0.0-30.0-0.0", "time_elapsed": 340185, "key_press": -1, "type": "PRE_RECALL_DELAY", "trial_index": 39}, "uniqueid": "MTK1917:30IQTZXKALDCDURNCAOB597GG1Z0XJ", "dateTime": 1516556324696}, {"current_trial": 40, "trialdata": {"rt": -1000, "trial_type": "single-audio", "stimulus": "/static/audio/400Hz.wav", "internal_node_id": "0.0-31.0", "time_elapsed": 340689, "key_press": -1, "type": "PRE_RECALL_ALERT", "trial_index": 40}, "uniqueid": "MTK1917:30IQTZXKALDCDURNCAOB597GG1Z0XJ", "dateTime": 1516556325200}, {"current_trial": 41, "trialdata": {"rt": [2923, 6282, 10555, 13189, 15498, 26849, 29896, 40726], "recwords": ["paper", "spool", "napsack", "crater", "lake", "radish", "water", "cocktail"], "key_times": [1791, 1835, 1988, 2198, 2403, 2923, 3392, 3631, 4618, 4794, 5635, 6282, 8273, 8437, 8637, 9067, 9573, 9833, 10033, 10555, 11158, 11468, 11614, 12489, 12695, 12814, 13189, 13690, 14338, 14889, 15053, 15498, 23054, 23145, 23395, 23530, 23655, 24353, 24468, 24894, 25259, 26112, 26221, 26432, 26849, 28640, 28837, 28994, 29199, 29332, 29896, 38096, 38332, 38488, 39618, 39869, 40037, 40149, 40354, 40726], "trial_type": "free-recall", "conditions": [18, 1200, "a", 18000], "internal_node_id": "0.0-32.0-0.0", "key_presses": [80, 65, 80, 69, 82, 13, 83, 80, 79, 79, 76, 13, 78, 65, 80, 83, 65, 67, 75, 13, 67, 82, 65, 84, 69, 82, 13, 76, 65, 75, 69, 13, 82, 65, 68, 79, 83, 74, 8, 8, 8, 73, 83, 72, 13, 87, 65, 84, 69, 82, 13, 67, 79, 67, 75, 84, 65, 73, 76, 13], "trial": 0, "time_elapsed": 401058, "type": "FREE_RECALL", "trial_index": 41}, "uniqueid": "MTK1917:30IQTZXKALDCDURNCAOB597GG1Z0XJ", "dateTime": 1516556385573}, {"current_trial": 42, "trialdata": {"rt": 1770, "trial_type": "text", "internal_node_id": "0.0-33.0", "time_elapsed": 404835, "key_press": 75, "type": "INSTRUCTIONS", "trial_index": 42}, "uniqueid": "MTK1917:30IQTZXKALDCDURNCAOB597GG1Z0XJ", "dateTime": 1516556389346}, {"current_trial": 43, "trialdata": {"rt": [4476, 8388, 11262, 13628, 15750, 17876], "trial_type": "math-distractor", "key_times": [3704, 3910, 4476, 6573, 6900, 8388, 10086, 10469, 11262, 13212, 13628, 15128, 15308, 15750, 17467, 17876], "responses": ["19", "14", "12", "7", "13", "5"], "num2": [3, 4, 5, 2, 1, 1, 9], "num3": [7, 9, 3, 2, 3, 2, 5], "conditions": [18, 1200, "a", 18000], "internal_node_id": "0.0-34.0", "key_presses": [97, 105, 13, 97, 100, 13, 97, 98, 13, 103, 13, 97, 99, 13, 101, 13], "trial": 1, "time_elapsed": 424847, "type": "DISTRACTOR", "trial_index": 43, "num1": [9, 1, 4, 3, 9, 2, 4]}, "uniqueid": "MTK1917:30IQTZXKALDCDURNCAOB597GG1Z0XJ", "dateTime": 1516556409358}, {"current_trial": 44, "trialdata": {"rt": -1, "trial_type": "single-stim", "stimulus": "<p id=\"stim\">10</p>", "internal_node_id": "0.0-35.0-0.0", "time_elapsed": 428001, "key_press": -1, "trial_index": 44}, "uniqueid": "MTK1917:30IQTZXKALDCDURNCAOB597GG1Z0XJ", "dateTime": 1516556412512}, {"current_trial": 45, "trialdata": {"rt": -1, "trial_type": "single-stim", "stimulus": "<p id=\"stim\">9</p>", "internal_node_id": "0.0-35.0-1.0", "time_elapsed": 429004, "key_press": -1, "trial_index": 45}, "uniqueid": "MTK1917:30IQTZXKALDCDURNCAOB597GG1Z0XJ", "dateTime": 1516556413515}, {"current_trial": 46, "trialdata": {"rt": -1, "trial_type": "single-stim", "stimulus": "<p id=\"stim\">8</p>", "internal_node_id": "0.0-35.0-2.0", "time_elapsed": 430006, "key_press": -1, "trial_index": 46}, "uniqueid": "MTK1917:30IQTZXKALDCDURNCAOB597GG1Z0XJ", "dateTime": 1516556414517}, {"current_trial": 47, "trialdata": {"rt": -1, "trial_type": "single-stim", "stimulus": "<p id=\"stim\">7</p>", "internal_node_id": "0.0-35.0-3.0", "time_elapsed": 431010, "key_press": -1, "trial_index": 47}, "uniqueid": "MTK1917:30IQTZXKALDCDURNCAOB597GG1Z0XJ", "dateTime": 1516556415521}, {"current_trial": 48, "trialdata": {"rt": -1, "trial_type": "single-stim", "stimulus": "<p id=\"stim\">6</p>", "internal_node_id": "0.0-35.0-4.0", "time_elapsed": 432013, "key_press": -1, "trial_index": 48}, "uniqueid": "MTK1917:30IQTZXKALDCDURNCAOB597GG1Z0XJ", "dateTime": 1516556416525}, {"current_trial": 49, "trialdata": {"rt": -1, "trial_type": "single-stim", "stimulus": "<p id=\"stim\">5</p>", "internal_node_id": "0.0-35.0-5.0", "time_elapsed": 433016, "key_press": -1, "trial_index": 49}, "uniqueid": "MTK1917:30IQTZXKALDCDURNCAOB597GG1Z0XJ", "dateTime": 1516556417527}, {"current_trial": 50, "trialdata": {"rt": -1, "trial_type": "single-stim", "stimulus": "<p id=\"stim\">4</p>", "internal_node_id": "0.0-35.0-6.0", "time_elapsed": 434019, "key_press": -1, "trial_index": 50}, "uniqueid": "MTK1917:30IQTZXKALDCDURNCAOB597GG1Z0XJ", "dateTime": 1516556418530}, {"current_trial": 51, "trialdata": {"rt": -1, "trial_type": "single-stim", "stimulus": "<p id=\"stim\">3</p>", "internal_node_id": "0.0-35.0-7.0", "time_elapsed": 435027, "key_press": -1, "trial_index": 51}, "uniqueid": "MTK1917:30IQTZXKALDCDURNCAOB597GG1Z0XJ", "dateTime": 1516556419538}, {"current_trial": 52, "trialdata": {"rt": -1, "trial_type": "single-stim", "stimulus": "<p id=\"stim\">2</p>", "internal_node_id": "0.0-35.0-8.0", "time_elapsed": 436034, "key_press": -1, "trial_index": 52}, "uniqueid": "MTK1917:30IQTZXKALDCDURNCAOB597GG1Z0XJ", "dateTime": 1516556420545}, {"current_trial": 53, "trialdata": {"rt": -1, "trial_type": "single-stim", "stimulus": "<p id=\"stim\">1</p>", "internal_node_id": "0.0-35.0-9.0", "time_elapsed": 437036, "key_press": -1, "trial_index": 53}, "uniqueid": "MTK1917:30IQTZXKALDCDURNCAOB597GG1Z0XJ", "dateTime": 1516556421547}, {"current_trial": 54, "trialdata": {"rt": -1, "trial_type": "single-stim", "stimulus": "<p id=\"stim\">+</p>", "internal_node_id": "0.0-36.0-0.0", "time_elapsed": 438538, "key_press": -1, "type": "FIXATION", "trial_index": 54}, "uniqueid": "MTK1917:30IQTZXKALDCDURNCAOB597GG1Z0XJ", "dateTime": 1516556423049}, {"current_trial": 55, "trialdata": {"rt": -1000, "trial_type": "single-audio", "word": "jungle", "stimulus": "/static/audio/wordpool/JUNGLE.wav", "conditions": [18, 1200, "a", 18000], "internal_node_id": "0.0-37.0", "trial": 1, "time_elapsed": 440671, "serialpos": 0, "key_press": -1, "wordID": 763, "type": "PRES_AUD", "trial_index": 55}, "uniqueid": "MTK1917:30IQTZXKALDCDURNCAOB597GG1Z0XJ", "dateTime": 1516556425183}, {"current_trial": 56, "trialdata": {"rt": -1000, "trial_type": "single-audio", "word": "bubble", "stimulus": "/static/audio/wordpool/BUBBLE.wav", "conditions": [18, 1200, "a", 18000], "internal_node_id": "0.0-38.0", "trial": 1, "time_elapsed": 443034, "serialpos": 1, "key_press": -1, "wordID": 182, "type": "PRES_AUD", "trial_index": 56}, "uniqueid": "MTK1917:30IQTZXKALDCDURNCAOB597GG1Z0XJ", "dateTime": 1516556427545}, {"current_trial": 57, "trialdata": {"rt": -1000, "trial_type": "single-audio", "word": "clothes", "stimulus": "/static/audio/wordpool/CLOTHES.wav", "conditions": [18, 1200, "a", 18000], "internal_node_id": "0.0-39.0", "trial": 1, "time_elapsed": 445139, "serialpos": 2, "key_press": -1, "wordID": 326, "type": "PRES_AUD", "trial_index": 57}, "uniqueid": "MTK1917:30IQTZXKALDCDURNCAOB597GG1Z0XJ", "dateTime": 1516556429651}, {"current_trial": 58, "trialdata": {"rt": -1000, "trial_type": "single-audio", "word": "plaid", "stimulus": "/static/audio/wordpool/PLAID.wav", "conditions": [18, 1200, "a", 18000], "internal_node_id": "0.0-40.0", "trial": 1, "time_elapsed": 447141, "serialpos": 3, "key_press": -1, "wordID": 1079, "type": "PRES_AUD", "trial_index": 58}, "uniqueid": "MTK1917:30IQTZXKALDCDURNCAOB597GG1Z0XJ", "dateTime": 1516556431653}, {"current_trial": 59, "trialdata": {"rt": -1000, "trial_type": "single-audio", "word": "parrot", "stimulus": "/static/audio/wordpool/PARROT.wav", "conditions": [18, 1200, "a", 18000], "internal_node_id": "0.0-41.0", "trial": 1, "time_elapsed": 449255, "serialpos": 4, "key_press": -1, "wordID": 1014, "type": "PRES_AUD", "trial_index": 59}, "uniqueid": "MTK1917:30IQTZXKALDCDURNCAOB597GG1Z0XJ", "dateTime": 1516556433766}, {"current_trial": 60, "trialdata": {"rt": -1000, "trial_type": "single-audio", "word": "money", "stimulus": "/static/audio/wordpool/MONEY.wav", "conditions": [18, 1200, "a", 18000], "internal_node_id": "0.0-42.0", "trial": 1, "time_elapsed": 451446, "serialpos": 5, "key_press": -1, "wordID": 907, "type": "PRES_AUD", "trial_index": 60}, "uniqueid": "MTK1917:30IQTZXKALDCDURNCAOB597GG1Z0XJ", "dateTime": 1516556435957}, {"current_trial": 61, "trialdata": {"rt": -1000, "trial_type": "single-audio", "word": "grape", "stimulus": "/static/audio/wordpool/GRAPE.wav", "conditions": [18, 1200, "a", 18000], "internal_node_id": "0.0-43.0", "trial": 1, "time_elapsed": 453725, "serialpos": 6, "key_press": -1, "wordID": 653, "type": "PRES_AUD", "trial_index": 61}, "uniqueid": "MTK1917:30IQTZXKALDCDURNCAOB597GG1Z0XJ", "dateTime": 1516556438237}, {"current_trial": 62, "trialdata": {"rt": -1000, "trial_type": "single-audio", "word": "country", "stimulus": "/static/audio/wordpool/COUNTRY.wav", "conditions": [18, 1200, "a", 18000], "internal_node_id": "0.0-44.0", "trial": 1, "time_elapsed": 455910, "serialpos": 7, "key_press": -1, "wordID": 387, "type": "PRES_AUD", "trial_index": 62}, "uniqueid": "MTK1917:30IQTZXKALDCDURNCAOB597GG1Z0XJ", "dateTime": 1516556440421}, {"current_trial": 63, "trialdata": {"rt": -1000, "trial_type": "single-audio", "word": "burglar", "stimulus": "/static/audio/wordpool/BURGLAR.wav", "conditions": [18, 1200, "a", 18000], "internal_node_id": "0.0-45.0", "trial": 1, "time_elapsed": 458260, "serialpos": 8, "key_press": -1, "wordID": 199, "type": "PRES_AUD", "trial_index": 63}, "uniqueid": "MTK1917:30IQTZXKALDCDURNCAOB597GG1Z0XJ", "dateTime": 1516556442771}, {"current_trial": 64, "trialdata": {"rt": -1000, "trial_type": "single-audio", "word": "bullet", "stimulus": "/static/audio/wordpool/BULLET.wav", "conditions": [18, 1200, "a", 18000], "internal_node_id": "0.0-46.0", "trial": 1, "time_elapsed": 461160, "serialpos": 9, "key_press": -1, "wordID": 193, "type": "PRES_AUD", "trial_index": 64}, "uniqueid": "MTK1917:30IQTZXKALDCDURNCAOB597GG1Z0XJ", "dateTime": 1516556445672}, {"current_trial": 65, "trialdata": {"rt": -1000, "trial_type": "single-audio", "word": "tractor", "stimulus": "/static/audio/wordpool/TRACTOR.wav", "conditions": [18, 1200, "a", 18000], "internal_node_id": "0.0-47.0", "trial": 1, "time_elapsed": 463473, "serialpos": 10, "key_press": -1, "wordID": 1492, "type": "PRES_AUD", "trial_index": 65}, "uniqueid": "MTK1917:30IQTZXKALDCDURNCAOB597GG1Z0XJ", "dateTime": 1516556447984}, {"current_trial": 66, "trialdata": {"rt": -1000, "trial_type": "single-audio", "word": "flashlight", "stimulus": "/static/audio/wordpool/FLASHLIGHT.wav", "conditions": [18, 1200, "a", 18000], "internal_node_id": "0.0-48.0", "trial": 1, "time_elapsed": 465643, "serialpos": 11, "key_press": -1, "wordID": 574, "type": "PRES_AUD", "trial_index": 66}, "uniqueid": "MTK1917:30IQTZXKALDCDURNCAOB597GG1Z0XJ", "dateTime": 1516556450154}, {"current_trial": 67, "trialdata": {"rt": -1000, "trial_type": "single-audio", "word": "wife", "stimulus": "/static/audio/wordpool/WIFE.wav", "conditions": [18, 1200, "a", 18000], "internal_node_id": "0.0-49.0", "trial": 1, "time_elapsed": 467969, "serialpos": 12, "key_press": -1, "wordID": 1608, "type": "PRES_AUD", "trial_index": 67}, "uniqueid": "MTK1917:30IQTZXKALDCDURNCAOB597GG1Z0XJ", "dateTime": 1516556452481}, {"current_trial": 68, "trialdata": {"rt": -1000, "trial_type": "single-audio", "word": "brick", "stimulus": "/static/audio/wordpool/BRICK.wav", "conditions": [18, 1200, "a", 18000], "internal_node_id": "0.0-50.0", "trial": 1, "time_elapsed": 470091, "serialpos": 13, "key_press": -1, "wordID": 171, "type": "PRES_AUD", "trial_index": 68}, "uniqueid": "MTK1917:30IQTZXKALDCDURNCAOB597GG1Z0XJ", "dateTime": 1516556454602}, {"current_trial": 69, "trialdata": {"rt": -1000, "trial_type": "single-audio", "word": "woman", "stimulus": "/static/audio/wordpool/WOMAN.wav", "conditions": [18, 1200, "a", 18000], "internal_node_id": "0.0-51.0", "trial": 1, "time_elapsed": 472127, "serialpos": 14, "key_press": -1, "wordID": 1619, "type": "PRES_AUD", "trial_index": 69}, "uniqueid": "MTK1917:30IQTZXKALDCDURNCAOB597GG1Z0XJ", "dateTime": 1516556456639}, {"current_trial": 70, "trialdata": {"rt": -1000, "trial_type": "single-audio", "word": "racket", "stimulus": "/static/audio/wordpool/RACKET.wav", "conditions": [18, 1200, "a", 18000], "internal_node_id": "0.0-52.0", "trial": 1, "time_elapsed": 474157, "serialpos": 15, "key_press": -1, "wordID": 1154, "type": "PRES_AUD", "trial_index": 70}, "uniqueid": "MTK1917:30IQTZXKALDCDURNCAOB597GG1Z0XJ", "dateTime": 1516556458668}, {"current_trial": 71, "trialdata": {"rt": -1000, "trial_type": "single-audio", "word": "ulcer", "stimulus": "/static/audio/wordpool/ULCER.wav", "conditions": [18, 1200, "a", 18000], "internal_node_id": "0.0-53.0", "trial": 1, "time_elapsed": 476430, "serialpos": 16, "key_press": -1, "wordID": 1532, "type": "PRES_AUD", "trial_index": 71}, "uniqueid": "MTK1917:30IQTZXKALDCDURNCAOB597GG1Z0XJ", "dateTime": 1516556460942}, {"current_trial": 72, "trialdata": {"rt": -1000, "trial_type": "single-audio", "word": "xerox", "stimulus": "/static/audio/wordpool/XEROX.wav", "conditions": [18, 1200, "a", 18000], "internal_node_id": "0.0-54.0", "trial": 1, "time_elapsed": 478619, "serialpos": 17, "key_press": -1, "wordID": 1627, "type": "PRES_AUD", "trial_index": 72}, "uniqueid": "MTK1917:30IQTZXKALDCDURNCAOB597GG1Z0XJ", "dateTime": 1516556463130}, {"current_trial": 73, "trialdata": {"rt": -1, "trial_type": "single-stim", "stimulus": "", "internal_node_id": "0.0-55.0-0.0", "time_elapsed": 479917, "key_press": -1, "type": "PRE_RECALL_DELAY", "trial_index": 73}, "uniqueid": "MTK1917:30IQTZXKALDCDURNCAOB597GG1Z0XJ", "dateTime": 1516556464428}, {"current_trial": 74, "trialdata": {"rt": -1000, "trial_type": "single-audio", "stimulus": "/static/audio/400Hz.wav", "internal_node_id": "0.0-56.0", "time_elapsed": 480419, "key_press": -1, "type": "PRE_RECALL_ALERT", "trial_index": 74}, "uniqueid": "MTK1917:30IQTZXKALDCDURNCAOB597GG1Z0XJ", "dateTime": 1516556464930}, {"current_trial": 75, "trialdata": {"rt": [4851, 7576, 11327, 13833, 16360, 19045, 26979, 31073, 59185], "recwords": ["xerox", "women", "bubble", "country", "xerox", "tractor", "jungle", "tribe", "wife"], "key_times": [2953, 3355, 3515, 3726, 4331, 4851, 6498, 6580, 6880, 6989, 7157, 7576, 8040, 8175, 8462, 8646, 8796, 9286, 9505, 9666, 10492, 10702, 10832, 10962, 11327, 12333, 12443, 12589, 12861, 12976, 13160, 13326, 13833, 14727, 15088, 15215, 15366, 15849, 16360, 17559, 17729, 17847, 18120, 18420, 18567, 18685, 19045, 25601, 25893, 26196, 26326, 26473, 26621, 26979, 28252, 28492, 29498, 30323, 30755, 31073, 58229, 58515, 58687, 58885, 59185], "trial_type": "free-recall", "conditions": [18, 1200, "a", 18000], "internal_node_id": "0.0-57.0-0.0", "key_presses": [88, 69, 82, 79, 88, 13, 87, 79, 77, 69, 78, 13, 66, 85, 71, 71, 76, 8, 8, 8, 66, 66, 76, 69, 13, 67, 79, 85, 78, 84, 82, 89, 13, 88, 69, 82, 79, 88, 13, 84, 82, 65, 67, 84, 79, 82, 13, 74, 85, 78, 71, 76, 69, 13, 84, 82, 73, 66, 69, 13, 87, 73, 70, 69, 13], "trial": 1, "time_elapsed": 540426, "type": "FREE_RECALL", "trial_index": 75}, "uniqueid": "MTK1917:30IQTZXKALDCDURNCAOB597GG1Z0XJ", "dateTime": 1516556524941}, {"current_trial": 76, "trialdata": {"rt": 2239, "trial_type": "text", "internal_node_id": "0.0-58.0", "time_elapsed": 545249, "key_press": 75, "type": "INSTRUCTIONS", "trial_index": 76}, "uniqueid": "MTK1917:30IQTZXKALDCDURNCAOB597GG1Z0XJ", "dateTime": 1516556529760}, {"current_trial": 77, "trialdata": {"rt": [2633, 4715, 8712], "trial_type": "math-distractor", "key_times": [2073, 2206, 2633, 4093, 4438, 4715, 8359, 8520, 8712], "responses": ["16", "18", "22"], "num2": [7, 7, 8, 3], "num3": [3, 3, 8, 9], "conditions": [24, 800, "a", 12000], "internal_node_id": "0.0-59.0", "key_presses": [97, 102, 13, 97, 104, 13, 98, 98, 13], "trial": 2, "time_elapsed": 558253, "type": "DISTRACTOR", "trial_index": 77, "num1": [6, 8, 6, 8]}, "uniqueid": "MTK1917:30IQTZXKALDCDURNCAOB597GG1Z0XJ", "dateTime": 1516556542764}, {"current_trial": 78, "trialdata": {"rt": -1, "trial_type": "single-stim", "stimulus": "<p id=\"stim\">10</p>", "internal_node_id": "0.0-60.0-0.0", "time_elapsed": 561255, "key_press": -1, "trial_index": 78}, "uniqueid": "MTK1917:30IQTZXKALDCDURNCAOB597GG1Z0XJ", "dateTime": 1516556545766}, {"current_trial": 79, "trialdata": {"rt": -1, "trial_type": "single-stim", "stimulus": "<p id=\"stim\">9</p>", "internal_node_id": "0.0-60.0-1.0", "time_elapsed": 562256, "key_press": -1, "trial_index": 79}, "uniqueid": "MTK1917:30IQTZXKALDCDURNCAOB597GG1Z0XJ", "dateTime": 1516556546767}, {"current_trial": 80, "trialdata": {"rt": -1, "trial_type": "single-stim", "stimulus": "<p id=\"stim\">8</p>", "internal_node_id": "0.0-60.0-2.0", "time_elapsed": 563261, "key_press": -1, "trial_index": 80}, "uniqueid": "MTK1917:30IQTZXKALDCDURNCAOB597GG1Z0XJ", "dateTime": 1516556547772}, {"current_trial": 81, "trialdata": {"rt": -1, "trial_type": "single-stim", "stimulus": "<p id=\"stim\">7</p>", "internal_node_id": "0.0-60.0-3.0", "time_elapsed": 564264, "key_press": -1, "trial_index": 81}, "uniqueid": "MTK1917:30IQTZXKALDCDURNCAOB597GG1Z0XJ", "dateTime": 1516556548775}, {"current_trial": 82, "trialdata": {"rt": -1, "trial_type": "single-stim", "stimulus": "<p id=\"stim\">6</p>", "internal_node_id": "0.0-60.0-4.0", "time_elapsed": 565264, "key_press": -1, "trial_index": 82}, "uniqueid": "MTK1917:30IQTZXKALDCDURNCAOB597GG1Z0XJ", "dateTime": 1516556549775}, {"current_trial": 83, "trialdata": {"rt": -1, "trial_type": "single-stim", "stimulus": "<p id=\"stim\">5</p>", "internal_node_id": "0.0-60.0-5.0", "time_elapsed": 566268, "key_press": -1, "trial_index": 83}, "uniqueid": "MTK1917:30IQTZXKALDCDURNCAOB597GG1Z0XJ", "dateTime": 1516556550779}, {"current_trial": 84, "trialdata": {"rt": -1, "trial_type": "single-stim", "stimulus": "<p id=\"stim\">4</p>", "internal_node_id": "0.0-60.0-6.0", "time_elapsed": 567269, "key_press": -1, "trial_index": 84}, "uniqueid": "MTK1917:30IQTZXKALDCDURNCAOB597GG1Z0XJ", "dateTime": 1516556551780}, {"current_trial": 85, "trialdata": {"rt": -1, "trial_type": "single-stim", "stimulus": "<p id=\"stim\">3</p>", "internal_node_id": "0.0-60.0-7.0", "time_elapsed": 568273, "key_press": -1, "trial_index": 85}, "uniqueid": "MTK1917:30IQTZXKALDCDURNCAOB597GG1Z0XJ", "dateTime": 1516556552784}, {"current_trial": 86, "trialdata": {"rt": -1, "trial_type": "single-stim", "stimulus": "<p id=\"stim\">2</p>", "internal_node_id": "0.0-60.0-8.0", "time_elapsed": 569273, "key_press": -1, "trial_index": 86}, "uniqueid": "MTK1917:30IQTZXKALDCDURNCAOB597GG1Z0XJ", "dateTime": 1516556553784}, {"current_trial": 87, "trialdata": {"rt": -1, "trial_type": "single-stim", "stimulus": "<p id=\"stim\">1</p>", "internal_node_id": "0.0-60.0-9.0", "time_elapsed": 570275, "key_press": -1, "trial_index": 87}, "uniqueid": "MTK1917:30IQTZXKALDCDURNCAOB597GG1Z0XJ", "dateTime": 1516556554786}, {"current_trial": 88, "trialdata": {"rt": -1, "trial_type": "single-stim", "stimulus": "<p id=\"stim\">+</p>", "internal_node_id": "0.0-61.0-0.0", "time_elapsed": 571776, "key_press": -1, "type": "FIXATION", "trial_index": 88}, "uniqueid": "MTK1917:30IQTZXKALDCDURNCAOB597GG1Z0XJ", "dateTime": 1516556556287}, {"current_trial": 89, "trialdata": {"rt": -1000, "trial_type": "single-audio", "word": "japan", "stimulus": "/static/audio/wordpool/JAPAN.wav", "conditions": [24, 800, "a", 12000], "internal_node_id": "0.0-62.0", "trial": 2, "time_elapsed": 573465, "serialpos": 0, "key_press": -1, "wordID": 748, "type": "PRES_AUD", "trial_index": 89}, "uniqueid": "MTK1917:30IQTZXKALDCDURNCAOB597GG1Z0XJ", "dateTime": 1516556557977}, {"current_trial": 90, "trialdata": {"rt": -1000, "trial_type": "single-audio", "word": "coin", "stimulus": "/static/audio/wordpool/COIN.wav", "conditions": [24, 800, "a", 12000], "internal_node_id": "0.0-63.0", "trial": 2, "time_elapsed": 575085, "serialpos": 1, "key_press": -1, "wordID": 342, "type": "PRES_AUD", "trial_index": 90}, "uniqueid": "MTK1917:30IQTZXKALDCDURNCAOB597GG1Z0XJ", "dateTime": 1516556559596}, {"current_trial": 91, "trialdata": {"rt": -1000, "trial_type": "single-audio", "word": "notebook", "stimulus": "/static/audio/wordpool/NOTEBOOK.wav", "conditions": [24, 800, "a", 12000], "internal_node_id": "0.0-64.0", "trial": 2, "time_elapsed": 576890, "serialpos": 2, "key_press": -1, "wordID": 958, "type": "PRES_AUD", "trial_index": 91}, "uniqueid": "MTK1917:30IQTZXKALDCDURNCAOB597GG1Z0XJ", "dateTime": 1516556561402}, {"current_trial": 92, "trialdata": {"rt": -1000, "trial_type": "single-audio", "word": "spider", "stimulus": "/static/audio/wordpool/SPIDER.wav", "conditions": [24, 800, "a", 12000], "internal_node_id": "0.0-65.0", "trial": 2, "time_elapsed": 578655, "serialpos": 3, "key_press": -1, "wordID": 1350, "type": "PRES_AUD", "trial_index": 92}, "uniqueid": "MTK1917:30IQTZXKALDCDURNCAOB597GG1Z0XJ", "dateTime": 1516556563166}, {"current_trial": 93, "trialdata": {"rt": -1000, "trial_type": "single-audio", "word": "plaza", "stimulus": "/static/audio/wordpool/PLAZA.wav", "conditions": [24, 800, "a", 12000], "internal_node_id": "0.0-66.0", "trial": 2, "time_elapsed": 580325, "serialpos": 4, "key_press": -1, "wordID": 1087, "type": "PRES_AUD", "trial_index": 93}, "uniqueid": "MTK1917:30IQTZXKALDCDURNCAOB597GG1Z0XJ", "dateTime": 1516556564836}, {"current_trial": 94, "trialdata": {"rt": -1000, "trial_type": "single-audio", "word": "sidewalk", "stimulus": "/static/audio/wordpool/SIDEWALK.wav", "conditions": [24, 800, "a", 12000], "internal_node_id": "0.0-67.0", "trial": 2, "time_elapsed": 582120, "serialpos": 5, "key_press": -1, "wordID": 1302, "type": "PRES_AUD", "trial_index": 94}, "uniqueid": "MTK1917:30IQTZXKALDCDURNCAOB597GG1Z0XJ", "dateTime": 1516556566631}, {"current_trial": 95, "trialdata": {"rt": -1000, "trial_type": "single-audio", "word": "bouquet", "stimulus": "/static/audio/wordpool/BOUQUET.wav", "conditions": [24, 800, "a", 12000], "internal_node_id": "0.0-68.0", "trial": 2, "time_elapsed": 584041, "serialpos": 6, "key_press": -1, "wordID": 156, "type": "PRES_AUD", "trial_index": 95}, "uniqueid": "MTK1917:30IQTZXKALDCDURNCAOB597GG1Z0XJ", "dateTime": 1516556568552}, {"current_trial": 96, "trialdata": {"rt": -1000, "trial_type": "single-audio", "word": "stone", "stimulus": "/static/audio/wordpool/STONE.wav", "conditions": [24, 800, "a", 12000], "internal_node_id": "0.0-69.0", "trial": 2, "time_elapsed": 585785, "serialpos": 7, "key_press": -1, "wordID": 1384, "type": "PRES_AUD", "trial_index": 96}, "uniqueid": "MTK1917:30IQTZXKALDCDURNCAOB597GG1Z0XJ", "dateTime": 1516556570296}, {"current_trial": 97, "trialdata": {"rt": -1000, "trial_type": "single-audio", "word": "rust", "stimulus": "/static/audio/wordpool/RUST.wav", "conditions": [24, 800, "a", 12000], "internal_node_id": "0.0-70.0", "trial": 2, "time_elapsed": 587592, "serialpos": 8, "key_press": -1, "wordID": 1218, "type": "PRES_AUD", "trial_index": 97}, "uniqueid": "MTK1917:30IQTZXKALDCDURNCAOB597GG1Z0XJ", "dateTime": 1516556572104}, {"current_trial": 98, "trialdata": {"rt": -1000, "trial_type": "single-audio", "word": "flag", "stimulus": "/static/audio/wordpool/FLAG.wav", "conditions": [24, 800, "a", 12000], "internal_node_id": "0.0-71.0", "trial": 2, "time_elapsed": 589207, "serialpos": 9, "key_press": -1, "wordID": 572, "type": "PRES_AUD", "trial_index": 98}, "uniqueid": "MTK1917:30IQTZXKALDCDURNCAOB597GG1Z0XJ", "dateTime": 1516556573719}, {"current_trial": 99, "trialdata": {"rt": -1000, "trial_type": "single-audio", "word": "asia", "stimulus": "/static/audio/wordpool/ASIA.wav", "conditions": [24, 800, "a", 12000], "internal_node_id": "0.0-72.0", "trial": 2, "time_elapsed": 591039, "serialpos": 10, "key_press": -1, "wordID": 45, "type": "PRES_AUD", "trial_index": 99}, "uniqueid": "MTK1917:30IQTZXKALDCDURNCAOB597GG1Z0XJ", "dateTime": 1516556575550}, {"current_trial": 100, "trialdata": {"rt": -1000, "trial_type": "single-audio", "word": "farmer", "stimulus": "/static/audio/wordpool/FARMER.wav", "conditions": [24, 800, "a", 12000], "internal_node_id": "0.0-73.0", "trial": 2, "time_elapsed": 592777, "serialpos": 11, "key_press": -1, "wordID": 552, "type": "PRES_AUD", "trial_index": 100}, "uniqueid": "MTK1917:30IQTZXKALDCDURNCAOB597GG1Z0XJ", "dateTime": 1516556577288}, {"current_trial": 101, "trialdata": {"rt": -1000, "trial_type": "single-audio", "word": "teacher", "stimulus": "/static/audio/wordpool/TEACHER.wav", "conditions": [24, 800, "a", 12000], "internal_node_id": "0.0-74.0", "trial": 2, "time_elapsed": 594742, "serialpos": 12, "key_press": -1, "wordID": 1439, "type": "PRES_AUD", "trial_index": 101}, "uniqueid": "MTK1917:30IQTZXKALDCDURNCAOB597GG1Z0XJ", "dateTime": 1516556579253}, {"current_trial": 102, "trialdata": {"rt": -1000, "trial_type": "single-audio", "word": "velvet", "stimulus": "/static/audio/wordpool/VELVET.wav", "conditions": [24, 800, "a", 12000], "internal_node_id": "0.0-75.0", "trial": 2, "time_elapsed": 596927, "serialpos": 13, "key_press": -1, "wordID": 1554, "type": "PRES_AUD", "trial_index": 102}, "uniqueid": "MTK1917:30IQTZXKALDCDURNCAOB597GG1Z0XJ", "dateTime": 1516556581438}, {"current_trial": 103, "trialdata": {"rt": -1000, "trial_type": "single-audio", "word": "seal", "stimulus": "/static/audio/wordpool/SEAL.wav", "conditions": [24, 800, "a", 12000], "internal_node_id": "0.0-76.0", "trial": 2, "time_elapsed": 598704, "serialpos": 14, "key_press": -1, "wordID": 1261, "type": "PRES_AUD", "trial_index": 103}, "uniqueid": "MTK1917:30IQTZXKALDCDURNCAOB597GG1Z0XJ", "dateTime": 1516556583221}, {"current_trial": 104, "trialdata": {"rt": -1000, "trial_type": "single-audio", "word": "crayon", "stimulus": "/static/audio/wordpool/CRAYON.wav", "conditions": [24, 800, "a", 12000], "internal_node_id": "0.0-77.0", "trial": 2, "time_elapsed": 600322, "serialpos": 15, "key_press": -1, "wordID": 400, "type": "PRES_AUD", "trial_index": 104}, "uniqueid": "MTK1917:30IQTZXKALDCDURNCAOB597GG1Z0XJ", "dateTime": 1516556584833}, {"current_trial": 105, "trialdata": {"rt": -1000, "trial_type": "single-audio", "word": "student", "stimulus": "/static/audio/wordpool/STUDENT.wav", "conditions": [24, 800, "a", 12000], "internal_node_id": "0.0-78.0", "trial": 2, "time_elapsed": 602188, "serialpos": 16, "key_press": -1, "wordID": 1394, "type": "PRES_AUD", "trial_index": 105}, "uniqueid": "MTK1917:30IQTZXKALDCDURNCAOB597GG1Z0XJ", "dateTime": 1516556586699}, {"current_trial": 106, "trialdata": {"rt": -1000, "trial_type": "single-audio", "word": "donor", "stimulus": "/static/audio/wordpool/DONOR.wav", "conditions": [24, 800, "a", 12000], "internal_node_id": "0.0-79.0", "trial": 2, "time_elapsed": 603836, "serialpos": 17, "key_press": -1, "wordID": 484, "type": "PRES_AUD", "trial_index": 106}, "uniqueid": "MTK1917:30IQTZXKALDCDURNCAOB597GG1Z0XJ", "dateTime": 1516556588347}, {"current_trial": 107, "trialdata": {"rt": -1000, "trial_type": "single-audio", "word": "cafe", "stimulus": "/static/audio/wordpool/CAFE.wav", "conditions": [24, 800, "a", 12000], "internal_node_id": "0.0-80.0", "trial": 2, "time_elapsed": 605718, "serialpos": 18, "key_press": -1, "wordID": 215, "type": "PRES_AUD", "trial_index": 107}, "uniqueid": "MTK1917:30IQTZXKALDCDURNCAOB597GG1Z0XJ", "dateTime": 1516556590229}, {"current_trial": 108, "trialdata": {"rt": -1000, "trial_type": "single-audio", "word": "proton", "stimulus": "/static/audio/wordpool/PROTON.wav", "conditions": [24, 800, "a", 12000], "internal_node_id": "0.0-81.0", "trial": 2, "time_elapsed": 607567, "serialpos": 19, "key_press": -1, "wordID": 1131, "type": "PRES_AUD", "trial_index": 108}, "uniqueid": "MTK1917:30IQTZXKALDCDURNCAOB597GG1Z0XJ", "dateTime": 1516556592079}, {"current_trial": 109, "trialdata": {"rt": -1000, "trial_type": "single-audio", "word": "ground", "stimulus": "/static/audio/wordpool/GROUND.wav", "conditions": [24, 800, "a", 12000], "internal_node_id": "0.0-82.0", "trial": 2, "time_elapsed": 609486, "serialpos": 20, "key_press": -1, "wordID": 665, "type": "PRES_AUD", "trial_index": 109}, "uniqueid": "MTK1917:30IQTZXKALDCDURNCAOB597GG1Z0XJ", "dateTime": 1516556593997}, {"current_trial": 110, "trialdata": {"rt": -1000, "trial_type": "single-audio", "word": "cashier", "stimulus": "/static/audio/wordpool/CASHIER.wav", "conditions": [24, 800, "a", 12000], "internal_node_id": "0.0-83.0", "trial": 2, "time_elapsed": 611392, "serialpos": 21, "key_press": -1, "wordID": 253, "type": "PRES_AUD", "trial_index": 110}, "uniqueid": "MTK1917:30IQTZXKALDCDURNCAOB597GG1Z0XJ", "dateTime": 1516556595903}, {"current_trial": 111, "trialdata": {"rt": -1000, "trial_type": "single-audio", "word": "waitress", "stimulus": "/static/audio/wordpool/WAITRESS.wav", "conditions": [24, 800, "a", 12000], "internal_node_id": "0.0-84.0", "trial": 2, "time_elapsed": 613242, "serialpos": 22, "key_press": -1, "wordID": 1580, "type": "PRES_AUD", "trial_index": 111}, "uniqueid": "MTK1917:30IQTZXKALDCDURNCAOB597GG1Z0XJ", "dateTime": 1516556597754}, {"current_trial": 112, "trialdata": {"rt": -1000, "trial_type": "single-audio", "word": "cookbook", "stimulus": "/static/audio/wordpool/COOKBOOK.wav", "conditions": [24, 800, "a", 12000], "internal_node_id": "0.0-85.0", "trial": 2, "time_elapsed": 615607, "serialpos": 23, "key_press": -1, "wordID": 372, "type": "PRES_AUD", "trial_index": 112}, "uniqueid": "MTK1917:30IQTZXKALDCDURNCAOB597GG1Z0XJ", "dateTime": 1516556600118}, {"current_trial": 113, "trialdata": {"rt": -1, "trial_type": "single-stim", "stimulus": "", "internal_node_id": "0.0-86.0-0.0", "time_elapsed": 616962, "key_press": -1, "type": "PRE_RECALL_DELAY", "trial_index": 113}, "uniqueid": "MTK1917:30IQTZXKALDCDURNCAOB597GG1Z0XJ", "dateTime": 1516556601474}, {"current_trial": 114, "trialdata": {"rt": -1000, "trial_type": "single-audio", "stimulus": "/static/audio/400Hz.wav", "internal_node_id": "0.0-87.0", "time_elapsed": 617466, "key_press": -1, "type": "PRE_RECALL_ALERT", "trial_index": 114}, "uniqueid": "MTK1917:30IQTZXKALDCDURNCAOB597GG1Z0XJ", "dateTime": 1516556601977}, {"current_trial": 115, "trialdata": {"rt": [3050, 6578, 8321, 13342, 15802, 17891, 27574, 30348, 53222, 57177], "recwords": ["cashier", "waitress", "flag", "student", "crayon", "japan", "farmer", "coin", "waitress", "teacher"], "key_times": [1016, 1194, 1929, 2140, 2271, 2350, 2477, 3050, 3532, 4357, 4359, 5035, 5307, 5422, 5758, 6005, 6578, 7180, 7350, 7479, 7727, 8321, 9404, 9577, 10494, 10618, 10878, 11768, 12735, 12739, 12741, 13342, 13936, 14276, 14461, 14724, 15034, 15450, 15802, 16241, 16326, 16598, 16862, 17189, 17437, 17891, 26081, 26276, 26393, 26621, 26760, 27571, 27574, 29323, 29472, 29619, 29985, 30348, 51597, 51838, 52137, 52283, 52484, 52566, 52882, 53059, 53222, 55696, 55871, 56588, 56592, 56592, 56719, 56834, 57177], "trial_type": "free-recall", "conditions": [24, 800, "a", 12000], "internal_node_id": "0.0-88.0-0.0", "key_presses": [67, 65, 83, 72, 73, 69, 82, 13, 87, 65, 73, 84, 82, 69, 83, 83, 13, 70, 76, 65, 71, 13, 83, 85, 8, 84, 85, 68, 69, 78, 84, 13, 67, 82, 65, 89, 79, 78, 13, 16, 74, 65, 80, 65, 78, 13, 70, 65, 82, 77, 69, 82, 13, 67, 79, 73, 78, 13, 87, 65, 73, 84, 82, 69, 83, 83, 13, 84, 69, 65, 67, 72, 69, 82, 13], "trial": 2, "time_elapsed": 677471, "type": "FREE_RECALL", "trial_index": 115}, "uniqueid": "MTK1917:30IQTZXKALDCDURNCAOB597GG1Z0XJ", "dateTime": 1516556661990}, {"current_trial": 116, "trialdata": {"rt": 201, "trial_type": "text", "internal_node_id": "0.0-89.0", "time_elapsed": 679683, "key_press": 65, "type": "INSTRUCTIONS", "trial_index": 116}, "uniqueid": "MTK1917:30IQTZXKALDCDURNCAOB597GG1Z0XJ", "dateTime": 1516556664194}, {"current_trial": 117, "trialdata": {"rt": [3533, 9360, 11655, 13790, 17496, 19204, 21552], "trial_type": "math-distractor", "key_times": [2263, 2418, 3533, 8775, 9066, 9360, 11089, 11362, 11655, 13302, 13527, 13790, 16802, 17009, 17496, 18837, 19204, 21082, 21552], "responses": ["13", "21", "14", "11", "22", "6", "7"], "num2": [7, 9, 7, 7, 9, 2, 4, 8], "num3": [3, 5, 3, 2, 7, 2, 2, 4], "conditions": [12, 1600, "a", 24000], "internal_node_id": "0.0-90.0", "key_presses": [97, 99, 13, 98, 97, 13, 97, 100, 13, 97, 97, 13, 98, 98, 13, 102, 13, 103, 13], "trial": 3, "time_elapsed": 705692, "type": "DISTRACTOR", "trial_index": 117, "num1": [3, 7, 4, 2, 6, 2, 1, 5]}, "uniqueid": "MTK1917:30IQTZXKALDCDURNCAOB597GG1Z0XJ", "dateTime": 1516556690203}, {"current_trial": 118, "trialdata": {"rt": -1, "trial_type": "single-stim", "stimulus": "<p id=\"stim\">10</p>", "internal_node_id": "0.0-91.0-0.0", "time_elapsed": 708699, "key_press": -1, "trial_index": 118}, "uniqueid": "MTK1917:30IQTZXKALDCDURNCAOB597GG1Z0XJ", "dateTime": 1516556693210}, {"current_trial": 119, "trialdata": {"rt": -1, "trial_type": "single-stim", "stimulus": "<p id=\"stim\">9</p>", "internal_node_id": "0.0-91.0-1.0", "time_elapsed": 709700, "key_press": -1, "trial_index": 119}, "uniqueid": "MTK1917:30IQTZXKALDCDURNCAOB597GG1Z0XJ", "dateTime": 1516556694211}, {"current_trial": 120, "trialdata": {"rt": -1, "trial_type": "single-stim", "stimulus": "<p id=\"stim\">8</p>", "internal_node_id": "0.0-91.0-2.0", "time_elapsed": 710703, "key_press": -1, "trial_index": 120}, "uniqueid": "MTK1917:30IQTZXKALDCDURNCAOB597GG1Z0XJ", "dateTime": 1516556695214}, {"current_trial": 121, "trialdata": {"rt": -1, "trial_type": "single-stim", "stimulus": "<p id=\"stim\">7</p>", "internal_node_id": "0.0-91.0-3.0", "time_elapsed": 711705, "key_press": -1, "trial_index": 121}, "uniqueid": "MTK1917:30IQTZXKALDCDURNCAOB597GG1Z0XJ", "dateTime": 1516556696216}, {"current_trial": 122, "trialdata": {"rt": -1, "trial_type": "single-stim", "stimulus": "<p id=\"stim\">6</p>", "internal_node_id": "0.0-91.0-4.0", "time_elapsed": 712707, "key_press": -1, "trial_index": 122}, "uniqueid": "MTK1917:30IQTZXKALDCDURNCAOB597GG1Z0XJ", "dateTime": 1516556697218}, {"current_trial": 123, "trialdata": {"rt": -1, "trial_type": "single-stim", "stimulus": "<p id=\"stim\">5</p>", "internal_node_id": "0.0-91.0-5.0", "time_elapsed": 713707, "key_press": -1, "trial_index": 123}, "uniqueid": "MTK1917:30IQTZXKALDCDURNCAOB597GG1Z0XJ", "dateTime": 1516556698218}, {"current_trial": 124, "trialdata": {"rt": -1, "trial_type": "single-stim", "stimulus": "<p id=\"stim\">4</p>", "internal_node_id": "0.0-91.0-6.0", "time_elapsed": 714708, "key_press": -1, "trial_index": 124}, "uniqueid": "MTK1917:30IQTZXKALDCDURNCAOB597GG1Z0XJ", "dateTime": 1516556699219}, {"current_trial": 125, "trialdata": {"rt": -1, "trial_type": "single-stim", "stimulus": "<p id=\"stim\">3</p>", "internal_node_id": "0.0-91.0-7.0", "time_elapsed": 715712, "key_press": -1, "trial_index": 125}, "uniqueid": "MTK1917:30IQTZXKALDCDURNCAOB597GG1Z0XJ", "dateTime": 1516556700223}, {"current_trial": 126, "trialdata": {"rt": -1, "trial_type": "single-stim", "stimulus": "<p id=\"stim\">2</p>", "internal_node_id": "0.0-91.0-8.0", "time_elapsed": 717035, "key_press": -1, "trial_index": 126}, "uniqueid": "MTK1917:30IQTZXKALDCDURNCAOB597GG1Z0XJ", "dateTime": 1516556701546}, {"current_trial": 127, "trialdata": {"rt": -1, "trial_type": "single-stim", "stimulus": "<p id=\"stim\">1</p>", "internal_node_id": "0.0-91.0-9.0", "time_elapsed": 718039, "key_press": -1, "trial_index": 127}, "uniqueid": "MTK1917:30IQTZXKALDCDURNCAOB597GG1Z0XJ", "dateTime": 1516556702550}, {"current_trial": 128, "trialdata": {"rt": -1, "trial_type": "single-stim", "stimulus": "<p id=\"stim\">+</p>", "internal_node_id": "0.0-92.0-0.0", "time_elapsed": 719541, "key_press": -1, "type": "FIXATION", "trial_index": 128}, "uniqueid": "MTK1917:30IQTZXKALDCDURNCAOB597GG1Z0XJ", "dateTime": 1516556704052}, {"current_trial": 129, "trialdata": {"rt": -1000, "trial_type": "single-audio", "word": "leg", "stimulus": "/static/audio/wordpool/LEG.wav", "conditions": [12, 1600, "a", 24000], "internal_node_id": "0.0-93.0", "trial": 3, "time_elapsed": 722325, "serialpos": 0, "key_press": -1, "wordID": 808, "type": "PRES_AUD", "trial_index": 129}, "uniqueid": "MTK1917:30IQTZXKALDCDURNCAOB597GG1Z0XJ", "dateTime": 1516556706836}, {"current_trial": 130, "trialdata": {"rt": -1000, "trial_type": "single-audio", "word": "napkin", "stimulus": "/static/audio/wordpool/NAPKIN.wav", "conditions": [12, 1600, "a", 24000], "internal_node_id": "0.0-94.0", "trial": 3, "time_elapsed": 725041, "serialpos": 1, "key_press": -1, "wordID": 936, "type": "PRES_AUD", "trial_index": 130}, "uniqueid": "MTK1917:30IQTZXKALDCDURNCAOB597GG1Z0XJ", "dateTime": 1516556709552}, {"current_trial": 131, "trialdata": {"rt": -1000, "trial_type": "single-audio", "word": "pocket", "stimulus": "/static/audio/wordpool/POCKET.wav", "conditions": [12, 1600, "a", 24000], "internal_node_id": "0.0-95.0", "trial": 3, "time_elapsed": 727765, "serialpos": 2, "key_press": -1, "wordID": 1092, "type": "PRES_AUD", "trial_index": 131}, "uniqueid": "MTK1917:30IQTZXKALDCDURNCAOB597GG1Z0XJ", "dateTime": 1516556712276}, {"current_trial": 132, "trialdata": {"rt": -1000, "trial_type": "single-audio", "word": "human", "stimulus": "/static/audio/wordpool/HUMAN.wav", "conditions": [12, 1600, "a", 24000], "internal_node_id": "0.0-96.0", "trial": 3, "time_elapsed": 730713, "serialpos": 3, "key_press": -1, "wordID": 725, "type": "PRES_AUD", "trial_index": 132}, "uniqueid": "MTK1917:30IQTZXKALDCDURNCAOB597GG1Z0XJ", "dateTime": 1516556715224}, {"current_trial": 133, "trialdata": {"rt": -1000, "trial_type": "single-audio", "word": "camel", "stimulus": "/static/audio/wordpool/CAMEL.wav", "conditions": [12, 1600, "a", 24000], "internal_node_id": "0.0-97.0", "trial": 3, "time_elapsed": 733484, "serialpos": 4, "key_press": -1, "wordID": 222, "type": "PRES_AUD", "trial_index": 133}, "uniqueid": "MTK1917:30IQTZXKALDCDURNCAOB597GG1Z0XJ", "dateTime": 1516556717995}, {"current_trial": 134, "trialdata": {"rt": -1000, "trial_type": "single-audio", "word": "receipt", "stimulus": "/static/audio/wordpool/RECEIPT.wav", "conditions": [12, 1600, "a", 24000], "internal_node_id": "0.0-98.0", "trial": 3, "time_elapsed": 736088, "serialpos": 5, "key_press": -1, "wordID": 1172, "type": "PRES_AUD", "trial_index": 134}, "uniqueid": "MTK1917:30IQTZXKALDCDURNCAOB597GG1Z0XJ", "dateTime": 1516556720600}, {"current_trial": 135, "trialdata": {"rt": -1000, "trial_type": "single-audio", "word": "foot", "stimulus": "/static/audio/wordpool/FOOT.wav", "conditions": [12, 1600, "a", 24000], "internal_node_id": "0.0-99.0", "trial": 3, "time_elapsed": 738583, "serialpos": 6, "key_press": -1, "wordID": 589, "type": "PRES_AUD", "trial_index": 135}, "uniqueid": "MTK1917:30IQTZXKALDCDURNCAOB597GG1Z0XJ", "dateTime": 1516556723095}, {"current_trial": 136, "trialdata": {"rt": -1000, "trial_type": "single-audio", "word": "swimmer", "stimulus": "/static/audio/wordpool/SWIMMER.wav", "conditions": [12, 1600, "a", 24000], "internal_node_id": "0.0-100.0", "trial": 3, "time_elapsed": 741055, "serialpos": 7, "key_press": -1, "wordID": 1419, "type": "PRES_AUD", "trial_index": 136}, "uniqueid": "MTK1917:30IQTZXKALDCDURNCAOB597GG1Z0XJ", "dateTime": 1516556725566}, {"current_trial": 137, "trialdata": {"rt": -1000, "trial_type": "single-audio", "word": "dancer", "stimulus": "/static/audio/wordpool/DANCER.wav", "conditions": [12, 1600, "a", 24000], "internal_node_id": "0.0-101.0", "trial": 3, "time_elapsed": 743801, "serialpos": 8, "key_press": -1, "wordID": 436, "type": "PRES_AUD", "trial_index": 137}, "uniqueid": "MTK1917:30IQTZXKALDCDURNCAOB597GG1Z0XJ", "dateTime": 1516556728312}, {"current_trial": 138, "trialdata": {"rt": -1000, "trial_type": "single-audio", "word": "luggage", "stimulus": "/static/audio/wordpool/LUGGAGE.wav", "conditions": [12, 1600, "a", 24000], "internal_node_id": "0.0-102.0", "trial": 3, "time_elapsed": 746545, "serialpos": 9, "key_press": -1, "wordID": 846, "type": "PRES_AUD", "trial_index": 138}, "uniqueid": "MTK1917:30IQTZXKALDCDURNCAOB597GG1Z0XJ", "dateTime": 1516556731056}, {"current_trial": 139, "trialdata": {"rt": -1000, "trial_type": "single-audio", "word": "suitcase", "stimulus": "/static/audio/wordpool/SUITCASE.wav", "conditions": [12, 1600, "a", 24000], "internal_node_id": "0.0-103.0", "trial": 3, "time_elapsed": 748976, "serialpos": 10, "key_press": -1, "wordID": 1402, "type": "PRES_AUD", "trial_index": 139}, "uniqueid": "MTK1917:30IQTZXKALDCDURNCAOB597GG1Z0XJ", "dateTime": 1516556733487}, {"current_trial": 140, "trialdata": {"rt": -1000, "trial_type": "single-audio", "word": "briefcase", "stimulus": "/static/audio/wordpool/BRIEFCASE.wav", "conditions": [12, 1600, "a", 24000], "internal_node_id": "0.0-104.0", "trial": 3, "time_elapsed": 751459, "serialpos": 11, "key_press": -1, "wordID": 174, "type": "PRES_AUD", "trial_index": 140}, "uniqueid": "MTK1917:30IQTZXKALDCDURNCAOB597GG1Z0XJ", "dateTime": 1516556735970}, {"current_trial": 141, "trialdata": {"rt": -1, "trial_type": "single-stim", "stimulus": "", "internal_node_id": "0.0-105.0-0.0", "time_elapsed": 752854, "key_press": -1, "type": "PRE_RECALL_DELAY", "trial_index": 141}, "uniqueid": "MTK1917:30IQTZXKALDCDURNCAOB597GG1Z0XJ", "dateTime": 1516556737365}, {"current_trial": 142, "trialdata": {"rt": -1000, "trial_type": "single-audio", "stimulus": "/static/audio/400Hz.wav", "internal_node_id": "0.0-106.0", "time_elapsed": 753358, "key_press": -1, "type": "PRE_RECALL_ALERT", "trial_index": 142}, "uniqueid": "MTK1917:30IQTZXKALDCDURNCAOB597GG1Z0XJ", "dateTime": 1516556737870}, {"current_trial": 143, "trialdata": {"rt": [6045, 8334, 12009, 13622, 15961, 17693, 20221, 22731, 24781, 44498], "recwords": ["luggage", "suitcase", "briefcase", "leg", "napkin", "human", "pocket", "receipt", "camel", "human"], "key_times": [1479, 1745, 1872, 2602, 2638, 2842, 3050, 3240, 3940, 4278, 4505, 4673, 4801, 5405, 5581, 6045, 6473, 6641, 6832, 6987, 7377, 7622, 7772, 7902, 8334, 8741, 9766, 9904, 10085, 10711, 11162, 11359, 11605, 11670, 12009, 12488, 12626, 12921, 13622, 14311, 14425, 14642, 15261, 15483, 15703, 15961, 16363, 16636, 16954, 17103, 17283, 17693, 18813, 19048, 19275, 19485, 19676, 19971, 20221, 20643, 20716, 21157, 21402, 21912, 22068, 22458, 22731, 23568, 23718, 23958, 24153, 24401, 24781, 43533, 43642, 43958, 44033, 44242, 44498], "trial_type": "free-recall", "conditions": [12, 1600, "a", 24000], "internal_node_id": "0.0-107.0-0.0", "key_presses": [74, 85, 71, 71, 8, 8, 8, 8, 76, 85, 71, 71, 65, 71, 69, 13, 83, 85, 73, 84, 67, 65, 83, 69, 13, 66, 82, 73, 69, 70, 67, 65, 83, 69, 13, 76, 69, 71, 13, 78, 65, 80, 75, 73, 78, 13, 72, 85, 77, 65, 78, 13, 80, 79, 67, 75, 69, 84, 13, 82, 69, 67, 69, 73, 80, 84, 13, 67, 65, 77, 69, 76, 13, 72, 85, 77, 65, 78, 13], "trial": 3, "time_elapsed": 813367, "type": "FREE_RECALL", "trial_index": 143}, "uniqueid": "MTK1917:30IQTZXKALDCDURNCAOB597GG1Z0XJ", "dateTime": 1516556797886}, {"current_trial": 144, "trialdata": {"rt": 2035, "trial_type": "text", "internal_node_id": "0.0-108.0", "time_elapsed": 817416, "key_press": 79, "type": "INSTRUCTIONS", "trial_index": 144}, "uniqueid": "MTK1917:30IQTZXKALDCDURNCAOB597GG1Z0XJ", "dateTime": 1516556801927}, {"current_trial": 145, "trialdata": {"rt": [3095, 7064, 9655], "trial_type": "math-distractor", "key_times": [2499, 3095, 6673, 6843, 7064, 8986, 9314, 9655], "responses": ["8", "22", "20"], "num2": [3, 7, 8, 8], "num3": [3, 6, 3, 8], "conditions": [24, 1600, "a", 12000], "internal_node_id": "0.0-109.0", "key_presses": [104, 13, 98, 98, 13, 98, 96, 13], "trial": 4, "time_elapsed": 831418, "type": "DISTRACTOR", "trial_index": 145, "num1": [2, 9, 9, 4]}, "uniqueid": "MTK1917:30IQTZXKALDCDURNCAOB597GG1Z0XJ", "dateTime": 1516556815929}, {"current_trial": 146, "trialdata": {"rt": -1, "trial_type": "single-stim", "stimulus": "<p id=\"stim\">10</p>", "internal_node_id": "0.0-110.0-0.0", "time_elapsed": 834419, "key_press": -1, "trial_index": 146}, "uniqueid": "MTK1917:30IQTZXKALDCDURNCAOB597GG1Z0XJ", "dateTime": 1516556818930}, {"current_trial": 147, "trialdata": {"rt": -1, "trial_type": "single-stim", "stimulus": "<p id=\"stim\">9</p>", "internal_node_id": "0.0-110.0-1.0", "time_elapsed": 835422, "key_press": -1, "trial_index": 147}, "uniqueid": "MTK1917:30IQTZXKALDCDURNCAOB597GG1Z0XJ", "dateTime": 1516556819933}, {"current_trial": 148, "trialdata": {"rt": -1, "trial_type": "single-stim", "stimulus": "<p id=\"stim\">8</p>", "internal_node_id": "0.0-110.0-2.0", "time_elapsed": 836424, "key_press": -1, "trial_index": 148}, "uniqueid": "MTK1917:30IQTZXKALDCDURNCAOB597GG1Z0XJ", "dateTime": 1516556820935}, {"current_trial": 149, "trialdata": {"rt": -1, "trial_type": "single-stim", "stimulus": "<p id=\"stim\">7</p>", "internal_node_id": "0.0-110.0-3.0", "time_elapsed": 837425, "key_press": -1, "trial_index": 149}, "uniqueid": "MTK1917:30IQTZXKALDCDURNCAOB597GG1Z0XJ", "dateTime": 1516556821936}, {"current_trial": 150, "trialdata": {"rt": -1, "trial_type": "single-stim", "stimulus": "<p id=\"stim\">6</p>", "internal_node_id": "0.0-110.0-4.0", "time_elapsed": 838426, "key_press": -1, "trial_index": 150}, "uniqueid": "MTK1917:30IQTZXKALDCDURNCAOB597GG1Z0XJ", "dateTime": 1516556822937}, {"current_trial": 151, "trialdata": {"rt": -1, "trial_type": "single-stim", "stimulus": "<p id=\"stim\">5</p>", "internal_node_id": "0.0-110.0-5.0", "time_elapsed": 839428, "key_press": -1, "trial_index": 151}, "uniqueid": "MTK1917:30IQTZXKALDCDURNCAOB597GG1Z0XJ", "dateTime": 1516556823939}, {"current_trial": 152, "trialdata": {"rt": -1, "trial_type": "single-stim", "stimulus": "<p id=\"stim\">4</p>", "internal_node_id": "0.0-110.0-6.0", "time_elapsed": 840430, "key_press": -1, "trial_index": 152}, "uniqueid": "MTK1917:30IQTZXKALDCDURNCAOB597GG1Z0XJ", "dateTime": 1516556824941}, {"current_trial": 153, "trialdata": {"rt": -1, "trial_type": "single-stim", "stimulus": "<p id=\"stim\">3</p>", "internal_node_id": "0.0-110.0-7.0", "time_elapsed": 841434, "key_press": -1, "trial_index": 153}, "uniqueid": "MTK1917:30IQTZXKALDCDURNCAOB597GG1Z0XJ", "dateTime": 1516556825945}, {"current_trial": 154, "trialdata": {"rt": -1, "trial_type": "single-stim", "stimulus": "<p id=\"stim\">2</p>", "internal_node_id": "0.0-110.0-8.0", "time_elapsed": 842435, "key_press": -1, "trial_index": 154}, "uniqueid": "MTK1917:30IQTZXKALDCDURNCAOB597GG1Z0XJ", "dateTime": 1516556826947}, {"current_trial": 155, "trialdata": {"rt": -1, "trial_type": "single-stim", "stimulus": "<p id=\"stim\">1</p>", "internal_node_id": "0.0-110.0-9.0", "time_elapsed": 844050, "key_press": -1, "trial_index": 155}, "uniqueid": "MTK1917:30IQTZXKALDCDURNCAOB597GG1Z0XJ", "dateTime": 1516556828561}, {"current_trial": 156, "trialdata": {"rt": -1, "trial_type": "single-stim", "stimulus": "<p id=\"stim\">+</p>", "internal_node_id": "0.0-111.0-0.0", "time_elapsed": 845553, "key_press": -1, "type": "FIXATION", "trial_index": 156}, "uniqueid": "MTK1917:30IQTZXKALDCDURNCAOB597GG1Z0XJ", "dateTime": 1516556830064}, {"current_trial": 157, "trialdata": {"rt": -1000, "trial_type": "single-audio", "word": "loft", "stimulus": "/static/audio/wordpool/LOFT.wav", "conditions": [24, 1600, "a", 12000], "internal_node_id": "0.0-112.0", "trial": 4, "time_elapsed": 848323, "serialpos": 0, "key_press": -1, "wordID": 839, "type": "PRES_AUD", "trial_index": 157}, "uniqueid": "MTK1917:30IQTZXKALDCDURNCAOB597GG1Z0XJ", "dateTime": 1516556832835}, {"current_trial": 158, "trialdata": {"rt": -1000, "trial_type": "single-audio", "word": "outdoors", "stimulus": "/static/audio/wordpool/OUTDOORS.wav", "conditions": [24, 1600, "a", 12000], "internal_node_id": "0.0-113.0", "trial": 4, "time_elapsed": 851003, "serialpos": 1, "key_press": -1, "wordID": 986, "type": "PRES_AUD", "trial_index": 158}, "uniqueid": "MTK1917:30IQTZXKALDCDURNCAOB597GG1Z0XJ", "dateTime": 1516556835515}, {"current_trial": 159, "trialdata": {"rt": -1000, "trial_type": "single-audio", "word": "kitchen", "stimulus": "/static/audio/wordpool/KITCHEN.wav", "conditions": [24, 1600, "a", 12000], "internal_node_id": "0.0-114.0", "trial": 4, "time_elapsed": 853554, "serialpos": 2, "key_press": -1, "wordID": 777, "type": "PRES_AUD", "trial_index": 159}, "uniqueid": "MTK1917:30IQTZXKALDCDURNCAOB597GG1Z0XJ", "dateTime": 1516556838066}, {"current_trial": 160, "trialdata": {"rt": -1000, "trial_type": "single-audio", "word": "necklace", "stimulus": "/static/audio/wordpool/NECKLACE.wav", "conditions": [24, 1600, "a", 12000], "internal_node_id": "0.0-115.0", "trial": 4, "time_elapsed": 856315, "serialpos": 3, "key_press": -1, "wordID": 939, "type": "PRES_AUD", "trial_index": 160}, "uniqueid": "MTK1917:30IQTZXKALDCDURNCAOB597GG1Z0XJ", "dateTime": 1516556840827}, {"current_trial": 161, "trialdata": {"rt": -1000, "trial_type": "single-audio", "word": "london", "stimulus": "/static/audio/wordpool/LONDON.wav", "conditions": [24, 1600, "a", 12000], "internal_node_id": "0.0-116.0", "trial": 4, "time_elapsed": 859077, "serialpos": 4, "key_press": -1, "wordID": 842, "type": "PRES_AUD", "trial_index": 161}, "uniqueid": "MTK1917:30IQTZXKALDCDURNCAOB597GG1Z0XJ", "dateTime": 1516556843588}, {"current_trial": 162, "trialdata": {"rt": -1000, "trial_type": "single-audio", "word": "rocket", "stimulus": "/static/audio/wordpool/ROCKET.wav", "conditions": [24, 1600, "a", 12000], "internal_node_id": "0.0-117.0", "trial": 4, "time_elapsed": 861629, "serialpos": 5, "key_press": -1, "wordID": 1201, "type": "PRES_AUD", "trial_index": 162}, "uniqueid": "MTK1917:30IQTZXKALDCDURNCAOB597GG1Z0XJ", "dateTime": 1516556846140}, {"current_trial": 163, "trialdata": {"rt": -1000, "trial_type": "single-audio", "word": "missile", "stimulus": "/static/audio/wordpool/MISSILE.wav", "conditions": [24, 1600, "a", 12000], "internal_node_id": "0.0-118.0", "trial": 4, "time_elapsed": 864326, "serialpos": 6, "key_press": -1, "wordID": 899, "type": "PRES_AUD", "trial_index": 163}, "uniqueid": "MTK1917:30IQTZXKALDCDURNCAOB597GG1Z0XJ", "dateTime": 1516556848837}, {"current_trial": 164, "trialdata": {"rt": -1000, "trial_type": "single-audio", "word": "cattle", "stimulus": "/static/audio/wordpool/CATTLE.wav", "conditions": [24, 1600, "a", 12000], "internal_node_id": "0.0-119.0", "trial": 4, "time_elapsed": 867101, "serialpos": 7, "key_press": -1, "wordID": 260, "type": "PRES_AUD", "trial_index": 164}, "uniqueid": "MTK1917:30IQTZXKALDCDURNCAOB597GG1Z0XJ", "dateTime": 1516556851612}, {"current_trial": 165, "trialdata": {"rt": -1000, "trial_type": "single-audio", "word": "gallon", "stimulus": "/static/audio/wordpool/GALLON.wav", "conditions": [24, 1600, "a", 12000], "internal_node_id": "0.0-120.0", "trial": 4, "time_elapsed": 869785, "serialpos": 8, "key_press": -1, "wordID": 617, "type": "PRES_AUD", "trial_index": 165}, "uniqueid": "MTK1917:30IQTZXKALDCDURNCAOB597GG1Z0XJ", "dateTime": 1516556854297}, {"current_trial": 166, "trialdata": {"rt": -1000, "trial_type": "single-audio", "word": "chauffeur", "stimulus": "/static/audio/wordpool/CHAUFFEUR.wav", "conditions": [24, 1600, "a", 12000], "internal_node_id": "0.0-121.0", "trial": 4, "time_elapsed": 872454, "serialpos": 9, "key_press": -1, "wordID": 282, "type": "PRES_AUD", "trial_index": 166}, "uniqueid": "MTK1917:30IQTZXKALDCDURNCAOB597GG1Z0XJ", "dateTime": 1516556856965}, {"current_trial": 167, "trialdata": {"rt": -1000, "trial_type": "single-audio", "word": "pigment", "stimulus": "/static/audio/wordpool/PIGMENT.wav", "conditions": [24, 1600, "a", 12000], "internal_node_id": "0.0-122.0", "trial": 4, "time_elapsed": 874989, "serialpos": 10, "key_press": -1, "wordID": 1065, "type": "PRES_AUD", "trial_index": 167}, "uniqueid": "MTK1917:30IQTZXKALDCDURNCAOB597GG1Z0XJ", "dateTime": 1516556859500}, {"current_trial": 168, "trialdata": {"rt": -1000, "trial_type": "single-audio", "word": "bison", "stimulus": "/static/audio/wordpool/BISON.wav", "conditions": [24, 1600, "a", 12000], "internal_node_id": "0.0-123.0", "trial": 4, "time_elapsed": 877772, "serialpos": 11, "key_press": -1, "wordID": 130, "type": "PRES_AUD", "trial_index": 168}, "uniqueid": "MTK1917:30IQTZXKALDCDURNCAOB597GG1Z0XJ", "dateTime": 1516556862283}, {"current_trial": 169, "trialdata": {"rt": -1000, "trial_type": "single-audio", "word": "convict", "stimulus": "/static/audio/wordpool/CONVICT.wav", "conditions": [24, 1600, "a", 12000], "internal_node_id": "0.0-124.0", "trial": 4, "time_elapsed": 880265, "serialpos": 12, "key_press": -1, "wordID": 370, "type": "PRES_AUD", "trial_index": 169}, "uniqueid": "MTK1917:30IQTZXKALDCDURNCAOB597GG1Z0XJ", "dateTime": 1516556864776}, {"current_trial": 170, "trialdata": {"rt": -1000, "trial_type": "single-audio", "word": "icing", "stimulus": "/static/audio/wordpool/ICING.wav", "conditions": [24, 1600, "a", 12000], "internal_node_id": "0.0-125.0", "trial": 4, "time_elapsed": 882994, "serialpos": 13, "key_press": -1, "wordID": 731, "type": "PRES_AUD", "trial_index": 170}, "uniqueid": "MTK1917:30IQTZXKALDCDURNCAOB597GG1Z0XJ", "dateTime": 1516556867505}, {"current_trial": 171, "trialdata": {"rt": -1000, "trial_type": "single-audio", "word": "hostess", "stimulus": "/static/audio/wordpool/HOSTESS.wav", "conditions": [24, 1600, "a", 12000], "internal_node_id": "0.0-126.0", "trial": 4, "time_elapsed": 885523, "serialpos": 14, "key_press": -1, "wordID": 722, "type": "PRES_AUD", "trial_index": 171}, "uniqueid": "MTK1917:30IQTZXKALDCDURNCAOB597GG1Z0XJ", "dateTime": 1516556870035}, {"current_trial": 172, "trialdata": {"rt": -1000, "trial_type": "single-audio", "word": "witness", "stimulus": "/static/audio/wordpool/WITNESS.wav", "conditions": [24, 1600, "a", 12000], "internal_node_id": "0.0-127.0", "trial": 4, "time_elapsed": 888281, "serialpos": 15, "key_press": -1, "wordID": 1617, "type": "PRES_AUD", "trial_index": 172}, "uniqueid": "MTK1917:30IQTZXKALDCDURNCAOB597GG1Z0XJ", "dateTime": 1516556872793}, {"current_trial": 173, "trialdata": {"rt": -1000, "trial_type": "single-audio", "word": "finger", "stimulus": "/static/audio/wordpool/FINGER.wav", "conditions": [24, 1600, "a", 12000], "internal_node_id": "0.0-128.0", "trial": 4, "time_elapsed": 890722, "serialpos": 16, "key_press": -1, "wordID": 566, "type": "PRES_AUD", "trial_index": 173}, "uniqueid": "MTK1917:30IQTZXKALDCDURNCAOB597GG1Z0XJ", "dateTime": 1516556875233}, {"current_trial": 174, "trialdata": {"rt": -1000, "trial_type": "single-audio", "word": "staple", "stimulus": "/static/audio/wordpool/STAPLE.wav", "conditions": [24, 1600, "a", 12000], "internal_node_id": "0.0-129.0", "trial": 4, "time_elapsed": 893236, "serialpos": 17, "key_press": -1, "wordID": 1370, "type": "PRES_AUD", "trial_index": 174}, "uniqueid": "MTK1917:30IQTZXKALDCDURNCAOB597GG1Z0XJ", "dateTime": 1516556877747}, {"current_trial": 175, "trialdata": {"rt": -1000, "trial_type": "single-audio", "word": "kidney", "stimulus": "/static/audio/wordpool/KIDNEY.wav", "conditions": [24, 1600, "a", 12000], "internal_node_id": "0.0-130.0", "trial": 4, "time_elapsed": 895807, "serialpos": 18, "key_press": -1, "wordID": 775, "type": "PRES_AUD", "trial_index": 175}, "uniqueid": "MTK1917:30IQTZXKALDCDURNCAOB597GG1Z0XJ", "dateTime": 1516556880318}, {"current_trial": 176, "trialdata": {"rt": -1000, "trial_type": "single-audio", "word": "venus", "stimulus": "/static/audio/wordpool/VENUS.wav", "conditions": [24, 1600, "a", 12000], "internal_node_id": "0.0-131.0", "trial": 4, "time_elapsed": 898479, "serialpos": 19, "key_press": -1, "wordID": 1556, "type": "PRES_AUD", "trial_index": 176}, "uniqueid": "MTK1917:30IQTZXKALDCDURNCAOB597GG1Z0XJ", "dateTime": 1516556882991}, {"current_trial": 177, "trialdata": {"rt": -1000, "trial_type": "single-audio", "word": "blade", "stimulus": "/static/audio/wordpool/BLADE.wav", "conditions": [24, 1600, "a", 12000], "internal_node_id": "0.0-132.0", "trial": 4, "time_elapsed": 901104, "serialpos": 20, "key_press": -1, "wordID": 133, "type": "PRES_AUD", "trial_index": 177}, "uniqueid": "MTK1917:30IQTZXKALDCDURNCAOB597GG1Z0XJ", "dateTime": 1516556885616}, {"current_trial": 178, "trialdata": {"rt": -1000, "trial_type": "single-audio", "word": "picture", "stimulus": "/static/audio/wordpool/PICTURE.wav", "conditions": [24, 1600, "a", 12000], "internal_node_id": "0.0-133.0", "trial": 4, "time_elapsed": 903689, "serialpos": 21, "key_press": -1, "wordID": 1060, "type": "PRES_AUD", "trial_index": 178}, "uniqueid": "MTK1917:30IQTZXKALDCDURNCAOB597GG1Z0XJ", "dateTime": 1516556888200}, {"current_trial": 179, "trialdata": {"rt": -1000, "trial_type": "single-audio", "word": "portrait", "stimulus": "/static/audio/wordpool/PORTRAIT.wav", "conditions": [24, 1600, "a", 12000], "internal_node_id": "0.0-134.0", "trial": 4, "time_elapsed": 906340, "serialpos": 22, "key_press": -1, "wordID": 1110, "type": "PRES_AUD", "trial_index": 179}, "uniqueid": "MTK1917:30IQTZXKALDCDURNCAOB597GG1Z0XJ", "dateTime": 1516556890852}, {"current_trial": 180, "trialdata": {"rt": -1000, "trial_type": "single-audio", "word": "wrist", "stimulus": "/static/audio/wordpool/WRIST.wav", "conditions": [24, 1600, "a", 12000], "internal_node_id": "0.0-135.0", "trial": 4, "time_elapsed": 909195, "serialpos": 23, "key_press": -1, "wordID": 1625, "type": "PRES_AUD", "trial_index": 180}, "uniqueid": "MTK1917:30IQTZXKALDCDURNCAOB597GG1Z0XJ", "dateTime": 1516556893707}, {"current_trial": 181, "trialdata": {"rt": -1, "trial_type": "single-stim", "stimulus": "", "internal_node_id": "0.0-136.0-0.0", "time_elapsed": 910571, "key_press": -1, "type": "PRE_RECALL_DELAY", "trial_index": 181}, "uniqueid": "MTK1917:30IQTZXKALDCDURNCAOB597GG1Z0XJ", "dateTime": 1516556895082}, {"current_trial": 182, "trialdata": {"rt": -1000, "trial_type": "single-audio", "stimulus": "/static/audio/400Hz.wav", "internal_node_id": "0.0-137.0", "time_elapsed": 911076, "key_press": -1, "type": "PRE_RECALL_ALERT", "trial_index": 182}, "uniqueid": "MTK1917:30IQTZXKALDCDURNCAOB597GG1Z0XJ", "dateTime": 1516556895587}, {"current_trial": 183, "trialdata": {"rt": [4347, 7506, 10072, 14570, 18763, 21772, 25401, 27568, 30948, 33866], "recwords": ["wrist", "picture", "portrait", "blade", "chauffer", "rockets", "london", "loft", "outdoors", "velvet"], "key_times": [1174, 1612, 1908, 2651, 3450, 3613, 4345, 4347, 5972, 6179, 6347, 6677, 6848, 7015, 7052, 7506, 8011, 8284, 8421, 8791, 9059, 9134, 9375, 9537, 10072, 11662, 12175, 12871, 13111, 13262, 13968, 13971, 14570, 15624, 15820, 15935, 16264, 16674, 17441, 17696, 17848, 18763, 19845, 19954, 20247, 20524, 20666, 20909, 21350, 21772, 22247, 22481, 23958, 24130, 24633, 24922, 25401, 25904, 26186, 26315, 26708, 27568, 28000, 28181, 28491, 29195, 29508, 29709, 29850, 30390, 30948, 31453, 31677, 31917, 32887, 33175, 33533, 33866], "trial_type": "free-recall", "conditions": [24, 1600, "a", 12000], "internal_node_id": "0.0-138.0-0.0", "key_presses": [87, 82, 73, 84, 8, 83, 84, 13, 80, 73, 67, 84, 85, 82, 69, 13, 80, 79, 82, 84, 82, 65, 73, 84, 13, 71, 8, 66, 76, 65, 68, 69, 13, 67, 72, 65, 85, 70, 70, 69, 82, 13, 82, 79, 67, 75, 69, 84, 83, 13, 76, 79, 78, 68, 79, 78, 13, 76, 79, 70, 84, 13, 79, 85, 84, 68, 79, 79, 82, 83, 13, 86, 69, 76, 86, 69, 84, 13], "trial": 4, "time_elapsed": 971083, "type": "FREE_RECALL", "trial_index": 183}, "uniqueid": "MTK1917:30IQTZXKALDCDURNCAOB597GG1Z0XJ", "dateTime": 1516556955600}, {"current_trial": 184, "trialdata": {"rt": 1931, "trial_type": "text", "internal_node_id": "0.0-139.0", "time_elapsed": 975024, "key_press": 76, "type": "INSTRUCTIONS", "trial_index": 184}, "uniqueid": "MTK1917:30IQTZXKALDCDURNCAOB597GG1Z0XJ", "dateTime": 1516556959535}, {"current_trial": 185, "trialdata": {"rt": [2482, 6102, 7994, 11179], "trial_type": "math-distractor", "key_times": [1959, 2069, 2482, 5529, 5775, 6102, 7473, 7781, 7994, 10577, 10831, 11179], "responses": ["13", "19", "14", "18"], "num2": [8, 5, 7, 9, 4], "num3": [3, 6, 1, 7, 2], "conditions": [12, 1600, "a", 12000], "internal_node_id": "0.0-140.0", "key_presses": [97, 99, 13, 97, 105, 13, 97, 100, 13, 97, 104, 13], "trial": 5, "time_elapsed": 989217, "type": "DISTRACTOR", "trial_index": 185, "num1": [2, 9, 6, 2, 8]}, "uniqueid": "MTK1917:30IQTZXKALDCDURNCAOB597GG1Z0XJ", "dateTime": 1516556973728}, {"current_trial": 186, "trialdata": {"rt": -1, "trial_type": "single-stim", "stimulus": "<p id=\"stim\">10</p>", "internal_node_id": "0.0-141.0-0.0", "time_elapsed": 992223, "key_press": -1, "trial_index": 186}, "uniqueid": "MTK1917:30IQTZXKALDCDURNCAOB597GG1Z0XJ", "dateTime": 1516556976734}, {"current_trial": 187, "trialdata": {"rt": -1, "trial_type": "single-stim", "stimulus": "<p id=\"stim\">9</p>", "internal_node_id": "0.0-141.0-1.0", "time_elapsed": 993223, "key_press": -1, "trial_index": 187}, "uniqueid": "MTK1917:30IQTZXKALDCDURNCAOB597GG1Z0XJ", "dateTime": 1516556977734}, {"current_trial": 188, "trialdata": {"rt": -1, "trial_type": "single-stim", "stimulus": "<p id=\"stim\">8</p>", "internal_node_id": "0.0-141.0-2.0", "time_elapsed": 994224, "key_press": -1, "trial_index": 188}, "uniqueid": "MTK1917:30IQTZXKALDCDURNCAOB597GG1Z0XJ", "dateTime": 1516556978735}, {"current_trial": 189, "trialdata": {"rt": -1, "trial_type": "single-stim", "stimulus": "<p id=\"stim\">7</p>", "internal_node_id": "0.0-141.0-3.0", "time_elapsed": 995226, "key_press": -1, "trial_index": 189}, "uniqueid": "MTK1917:30IQTZXKALDCDURNCAOB597GG1Z0XJ", "dateTime": 1516556979737}, {"current_trial": 190, "trialdata": {"rt": -1, "trial_type": "single-stim", "stimulus": "<p id=\"stim\">6</p>", "internal_node_id": "0.0-141.0-4.0", "time_elapsed": 996229, "key_press": -1, "trial_index": 190}, "uniqueid": "MTK1917:30IQTZXKALDCDURNCAOB597GG1Z0XJ", "dateTime": 1516556980740}, {"current_trial": 191, "trialdata": {"rt": -1, "trial_type": "single-stim", "stimulus": "<p id=\"stim\">5</p>", "internal_node_id": "0.0-141.0-5.0", "time_elapsed": 997231, "key_press": -1, "trial_index": 191}, "uniqueid": "MTK1917:30IQTZXKALDCDURNCAOB597GG1Z0XJ", "dateTime": 1516556981742}, {"current_trial": 192, "trialdata": {"rt": -1, "trial_type": "single-stim", "stimulus": "<p id=\"stim\">4</p>", "internal_node_id": "0.0-141.0-6.0", "time_elapsed": 998261, "key_press": -1, "trial_index": 192}, "uniqueid": "MTK1917:30IQTZXKALDCDURNCAOB597GG1Z0XJ", "dateTime": 1516556982772}, {"current_trial": 193, "trialdata": {"rt": -1, "trial_type": "single-stim", "stimulus": "<p id=\"stim\">3</p>", "internal_node_id": "0.0-141.0-7.0", "time_elapsed": 999265, "key_press": -1, "trial_index": 193}, "uniqueid": "MTK1917:30IQTZXKALDCDURNCAOB597GG1Z0XJ", "dateTime": 1516556983776}, {"current_trial": 194, "trialdata": {"rt": -1, "trial_type": "single-stim", "stimulus": "<p id=\"stim\">2</p>", "internal_node_id": "0.0-141.0-8.0", "time_elapsed": 1000267, "key_press": -1, "trial_index": 194}, "uniqueid": "MTK1917:30IQTZXKALDCDURNCAOB597GG1Z0XJ", "dateTime": 1516556984778}, {"current_trial": 195, "trialdata": {"rt": -1, "trial_type": "single-stim", "stimulus": "<p id=\"stim\">1</p>", "internal_node_id": "0.0-141.0-9.0", "time_elapsed": 1001269, "key_press": -1, "trial_index": 195}, "uniqueid": "MTK1917:30IQTZXKALDCDURNCAOB597GG1Z0XJ", "dateTime": 1516556985780}, {"current_trial": 196, "trialdata": {"rt": -1, "trial_type": "single-stim", "stimulus": "<p id=\"stim\">+</p>", "internal_node_id": "0.0-142.0-0.0", "time_elapsed": 1002773, "key_press": -1, "type": "FIXATION", "trial_index": 196}, "uniqueid": "MTK1917:30IQTZXKALDCDURNCAOB597GG1Z0XJ", "dateTime": 1516556987284}, {"current_trial": 197, "trialdata": {"rt": -1000, "trial_type": "single-audio", "word": "poison", "stimulus": "/static/audio/wordpool/POISON.wav", "conditions": [12, 1600, "a", 12000], "internal_node_id": "0.0-143.0", "trial": 5, "time_elapsed": 1005287, "serialpos": 0, "key_press": -1, "wordID": 1095, "type": "PRES_AUD", "trial_index": 197}, "uniqueid": "MTK1917:30IQTZXKALDCDURNCAOB597GG1Z0XJ", "dateTime": 1516556989798}, {"current_trial": 198, "trialdata": {"rt": -1000, "trial_type": "single-audio", "word": "bacon", "stimulus": "/static/audio/wordpool/BACON.wav", "conditions": [12, 1600, "a", 12000], "internal_node_id": "0.0-144.0", "trial": 5, "time_elapsed": 1007796, "serialpos": 1, "key_press": -1, "wordID": 66, "type": "PRES_AUD", "trial_index": 198}, "uniqueid": "MTK1917:30IQTZXKALDCDURNCAOB597GG1Z0XJ", "dateTime": 1516556992307}, {"current_trial": 199, "trialdata": {"rt": -1000, "trial_type": "single-audio", "word": "flower", "stimulus": "/static/audio/wordpool/FLOWER.wav", "conditions": [12, 1600, "a", 12000], "internal_node_id": "0.0-145.0", "trial": 5, "time_elapsed": 1010289, "serialpos": 2, "key_press": -1, "wordID": 583, "type": "PRES_AUD", "trial_index": 199}, "uniqueid": "MTK1917:30IQTZXKALDCDURNCAOB597GG1Z0XJ", "dateTime": 1516556994800}, {"current_trial": 200, "trialdata": {"rt": -1000, "trial_type": "single-audio", "word": "sunrise", "stimulus": "/static/audio/wordpool/SUNRISE.wav", "conditions": [12, 1600, "a", 12000], "internal_node_id": "0.0-146.0", "trial": 5, "time_elapsed": 1012986, "serialpos": 3, "key_press": -1, "wordID": 1406, "type": "PRES_AUD", "trial_index": 200}, "uniqueid": "MTK1917:30IQTZXKALDCDURNCAOB597GG1Z0XJ", "dateTime": 1516556997497}, {"current_trial": 201, "trialdata": {"rt": -1000, "trial_type": "single-audio", "word": "kleenex", "stimulus": "/static/audio/wordpool/KLEENEX.wav", "conditions": [12, 1600, "a", 12000], "internal_node_id": "0.0-147.0", "trial": 5, "time_elapsed": 1015652, "serialpos": 4, "key_press": -1, "wordID": 781, "type": "PRES_AUD", "trial_index": 201}, "uniqueid": "MTK1917:30IQTZXKALDCDURNCAOB597GG1Z0XJ", "dateTime": 1516557000163}, {"current_trial": 202, "trialdata": {"rt": -1000, "trial_type": "single-audio", "word": "seagull", "stimulus": "/static/audio/wordpool/SEAGULL.wav", "conditions": [12, 1600, "a", 12000], "internal_node_id": "0.0-148.0", "trial": 5, "time_elapsed": 1018342, "serialpos": 5, "key_press": -1, "wordID": 1260, "type": "PRES_AUD", "trial_index": 202}, "uniqueid": "MTK1917:30IQTZXKALDCDURNCAOB597GG1Z0XJ", "dateTime": 1516557002854}, {"current_trial": 203, "trialdata": {"rt": -1000, "trial_type": "single-audio", "word": "orchid", "stimulus": "/static/audio/wordpool/ORCHID.wav", "conditions": [12, 1600, "a", 12000], "internal_node_id": "0.0-149.0", "trial": 5, "time_elapsed": 1020880, "serialpos": 6, "key_press": -1, "wordID": 981, "type": "PRES_AUD", "trial_index": 203}, "uniqueid": "MTK1917:30IQTZXKALDCDURNCAOB597GG1Z0XJ", "dateTime": 1516557005392}, {"current_trial": 204, "trialdata": {"rt": -1000, "trial_type": "single-audio", "word": "sibling", "stimulus": "/static/audio/wordpool/SIBLING.wav", "conditions": [12, 1600, "a", 12000], "internal_node_id": "0.0-150.0", "trial": 5, "time_elapsed": 1023662, "serialpos": 7, "key_press": -1, "wordID": 1300, "type": "PRES_AUD", "trial_index": 204}, "uniqueid": "MTK1917:30IQTZXKALDCDURNCAOB597GG1Z0XJ", "dateTime": 1516557008173}, {"current_trial": 205, "trialdata": {"rt": -1000, "trial_type": "single-audio", "word": "jury", "stimulus": "/static/audio/wordpool/JURY.wav", "conditions": [12, 1600, "a", 12000], "internal_node_id": "0.0-151.0", "trial": 5, "time_elapsed": 1026244, "serialpos": 8, "key_press": -1, "wordID": 765, "type": "PRES_AUD", "trial_index": 205}, "uniqueid": "MTK1917:30IQTZXKALDCDURNCAOB597GG1Z0XJ", "dateTime": 1516557010756}, {"current_trial": 206, "trialdata": {"rt": -1000, "trial_type": "single-audio", "word": "judge", "stimulus": "/static/audio/wordpool/JUDGE.wav", "conditions": [12, 1600, "a", 12000], "internal_node_id": "0.0-152.0", "trial": 5, "time_elapsed": 1028860, "serialpos": 9, "key_press": -1, "wordID": 760, "type": "PRES_AUD", "trial_index": 206}, "uniqueid": "MTK1917:30IQTZXKALDCDURNCAOB597GG1Z0XJ", "dateTime": 1516557013371}, {"current_trial": 207, "trialdata": {"rt": -1000, "trial_type": "single-audio", "word": "tunnel", "stimulus": "/static/audio/wordpool/TUNNEL.wav", "conditions": [12, 1600, "a", 12000], "internal_node_id": "0.0-153.0", "trial": 5, "time_elapsed": 1031452, "serialpos": 10, "key_press": -1, "wordID": 1518, "type": "PRES_AUD", "trial_index": 207}, "uniqueid": "MTK1917:30IQTZXKALDCDURNCAOB597GG1Z0XJ", "dateTime": 1516557015963}, {"current_trial": 208, "trialdata": {"rt": -1000, "trial_type": "single-audio", "word": "window", "stimulus": "/static/audio/wordpool/WINDOW.wav", "conditions": [12, 1600, "a", 12000], "internal_node_id": "0.0-154.0", "trial": 5, "time_elapsed": 1034202, "serialpos": 11, "key_press": -1, "wordID": 1610, "type": "PRES_AUD", "trial_index": 208}, "uniqueid": "MTK1917:30IQTZXKALDCDURNCAOB597GG1Z0XJ", "dateTime": 1516557018714}, {"current_trial": 209, "trialdata": {"rt": -1, "trial_type": "single-stim", "stimulus": "", "internal_node_id": "0.0-155.0-0.0", "time_elapsed": 1035593, "key_press": -1, "type": "PRE_RECALL_DELAY", "trial_index": 209}, "uniqueid": "MTK1917:30IQTZXKALDCDURNCAOB597GG1Z0XJ", "dateTime": 1516557020104}, {"current_trial": 210, "trialdata": {"rt": -1000, "trial_type": "single-audio", "stimulus": "/static/audio/400Hz.wav", "internal_node_id": "0.0-156.0", "time_elapsed": 1036365, "key_press": -1, "type": "PRE_RECALL_ALERT", "trial_index": 210}, "uniqueid": "MTK1917:30IQTZXKALDCDURNCAOB597GG1Z0XJ", "dateTime": 1516557020876}, {"current_trial": 211, "trialdata": {"rt": [3046, 5064, 7546, 9207, 11904, 16432, 21024, 23978, 28601, 31321, 48118], "recwords": ["poison", "bacon", "sunrise", "flower", "jury", "judge", "orchid", "judge", "kleenex", "window", "convict"], "key_times": [1239, 1578, 1868, 2058, 2219, 2492, 3046, 3486, 3737, 4092, 4258, 4504, 5064, 5857, 6573, 6574, 6611, 6726, 6991, 7113, 7546, 7958, 8096, 8370, 8522, 8572, 8747, 9207, 10538, 10882, 11084, 11400, 11904, 12804, 13093, 13483, 13784, 14054, 14554, 14752, 15786, 15788, 16432, 16958, 17097, 17738, 17873, 19125, 19336, 19677, 19877, 19982, 20297, 21024, 21809, 22155, 22430, 23122, 23324, 23978, 25324, 25686, 25961, 26156, 26413, 26599, 27614, 27616, 28143, 28601, 30358, 30438, 30610, 30724, 30850, 31002, 31321, 46589, 46693, 46857, 47149, 47273, 47469, 47801, 48118], "trial_type": "free-recall", "conditions": [12, 1600, "a", 12000], "internal_node_id": "0.0-157.0-0.0", "key_presses": [80, 79, 73, 83, 79, 78, 13, 66, 65, 67, 79, 78, 13, 83, 85, 78, 82, 73, 83, 69, 13, 70, 76, 79, 87, 69, 82, 13, 74, 85, 82, 89, 13, 74, 85, 68, 78, 71, 8, 8, 71, 69, 13, 79, 82, 72, 73, 8, 8, 67, 72, 73, 68, 13, 74, 85, 68, 71, 69, 13, 75, 76, 69, 69, 78, 73, 8, 69, 88, 13, 87, 73, 78, 68, 79, 87, 13, 67, 79, 78, 86, 73, 67, 84, 13], "trial": 5, "time_elapsed": 1096373, "type": "FREE_RECALL", "trial_index": 211}, "uniqueid": "MTK1917:30IQTZXKALDCDURNCAOB597GG1Z0XJ", "dateTime": 1516557080894}, {"current_trial": 212, "trialdata": {"rt": 2904, "trial_type": "text", "internal_node_id": "0.0-158.0", "time_elapsed": 1101293, "key_press": 13, "type": "INSTRUCTIONS", "trial_index": 212}, "uniqueid": "MTK1917:30IQTZXKALDCDURNCAOB597GG1Z0XJ", "dateTime": 1516557085804}, {"current_trial": 213, "trialdata": {"rt": [3087, 4897, 6684, 11288], "trial_type": "math-distractor", "key_times": [1820, 1824, 3087, 4526, 4897, 6307, 6684, 10626, 10921, 11288], "responses": ["10", "7", "7", "19"], "num2": [3, 1, 1, 8, 2], "num3": [5, 1, 3, 7, 1], "conditions": [24, 1600, "a", 12000], "internal_node_id": "0.0-159.0", "key_presses": [97, 96, 13, 103, 13, 103, 13, 97, 105, 13], "trial": 6, "time_elapsed": 1115931, "type": "DISTRACTOR", "trial_index": 213, "num1": [2, 5, 3, 4, 6]}, "uniqueid": "MTK1917:30IQTZXKALDCDURNCAOB597GG1Z0XJ", "dateTime": 1516557100442}, {"current_trial": 214, "trialdata": {"rt": -1, "trial_type": "single-stim", "stimulus": "<p id=\"stim\">10</p>", "internal_node_id": "0.0-160.0-0.0", "time_elapsed": 1118937, "key_press": -1, "trial_index": 214}, "uniqueid": "MTK1917:30IQTZXKALDCDURNCAOB597GG1Z0XJ", "dateTime": 1516557103448}, {"current_trial": 215, "trialdata": {"rt": -1, "trial_type": "single-stim", "stimulus": "<p id=\"stim\">9</p>", "internal_node_id": "0.0-160.0-1.0", "time_elapsed": 1119941, "key_press": -1, "trial_index": 215}, "uniqueid": "MTK1917:30IQTZXKALDCDURNCAOB597GG1Z0XJ", "dateTime": 1516557104452}, {"current_trial": 216, "trialdata": {"rt": -1, "trial_type": "single-stim", "stimulus": "<p id=\"stim\">8</p>", "internal_node_id": "0.0-160.0-2.0", "time_elapsed": 1120945, "key_press": -1, "trial_index": 216}, "uniqueid": "MTK1917:30IQTZXKALDCDURNCAOB597GG1Z0XJ", "dateTime": 1516557105456}, {"current_trial": 217, "trialdata": {"rt": -1, "trial_type": "single-stim", "stimulus": "<p id=\"stim\">7</p>", "internal_node_id": "0.0-160.0-3.0", "time_elapsed": 1121945, "key_press": -1, "trial_index": 217}, "uniqueid": "MTK1917:30IQTZXKALDCDURNCAOB597GG1Z0XJ", "dateTime": 1516557106456}, {"current_trial": 218, "trialdata": {"rt": -1, "trial_type": "single-stim", "stimulus": "<p id=\"stim\">6</p>", "internal_node_id": "0.0-160.0-4.0", "time_elapsed": 1123037, "key_press": -1, "trial_index": 218}, "uniqueid": "MTK1917:30IQTZXKALDCDURNCAOB597GG1Z0XJ", "dateTime": 1516557107548}, {"current_trial": 219, "trialdata": {"rt": -1, "trial_type": "single-stim", "stimulus": "<p id=\"stim\">5</p>", "internal_node_id": "0.0-160.0-5.0", "time_elapsed": 1124075, "key_press": -1, "trial_index": 219}, "uniqueid": "MTK1917:30IQTZXKALDCDURNCAOB597GG1Z0XJ", "dateTime": 1516557108590}, {"current_trial": 220, "trialdata": {"rt": -1, "trial_type": "single-stim", "stimulus": "<p id=\"stim\">4</p>", "internal_node_id": "0.0-160.0-6.0", "time_elapsed": 1125083, "key_press": -1, "trial_index": 220}, "uniqueid": "MTK1917:30IQTZXKALDCDURNCAOB597GG1Z0XJ", "dateTime": 1516557109594}, {"current_trial": 221, "trialdata": {"rt": -1, "trial_type": "single-stim", "stimulus": "<p id=\"stim\">3</p>", "internal_node_id": "0.0-160.0-7.0", "time_elapsed": 1126086, "key_press": -1, "trial_index": 221}, "uniqueid": "MTK1917:30IQTZXKALDCDURNCAOB597GG1Z0XJ", "dateTime": 1516557110597}, {"current_trial": 222, "trialdata": {"rt": -1, "trial_type": "single-stim", "stimulus": "<p id=\"stim\">2</p>", "internal_node_id": "0.0-160.0-8.0", "time_elapsed": 1127089, "key_press": -1, "trial_index": 222}, "uniqueid": "MTK1917:30IQTZXKALDCDURNCAOB597GG1Z0XJ", "dateTime": 1516557111600}, {"current_trial": 223, "trialdata": {"rt": -1, "trial_type": "single-stim", "stimulus": "<p id=\"stim\">1</p>", "internal_node_id": "0.0-160.0-9.0", "time_elapsed": 1128092, "key_press": -1, "trial_index": 223}, "uniqueid": "MTK1917:30IQTZXKALDCDURNCAOB597GG1Z0XJ", "dateTime": 1516557112603}, {"current_trial": 224, "trialdata": {"rt": -1, "trial_type": "single-stim", "stimulus": "<p id=\"stim\">+</p>", "internal_node_id": "0.0-161.0-0.0", "time_elapsed": 1129593, "key_press": -1, "type": "FIXATION", "trial_index": 224}, "uniqueid": "MTK1917:30IQTZXKALDCDURNCAOB597GG1Z0XJ", "dateTime": 1516557114104}, {"current_trial": 225, "trialdata": {"rt": -1000, "trial_type": "single-audio", "word": "frame", "stimulus": "/static/audio/wordpool/FRAME.wav", "conditions": [24, 1600, "a", 12000], "internal_node_id": "0.0-162.0", "trial": 6, "time_elapsed": 1132159, "serialpos": 0, "key_press": -1, "wordID": 599, "type": "PRES_AUD", "trial_index": 225}, "uniqueid": "MTK1917:30IQTZXKALDCDURNCAOB597GG1Z0XJ", "dateTime": 1516557116671}, {"current_trial": 226, "trialdata": {"rt": -1000, "trial_type": "single-audio", "word": "statue", "stimulus": "/static/audio/wordpool/STATUE.wav", "conditions": [24, 1600, "a", 12000], "internal_node_id": "0.0-163.0", "trial": 6, "time_elapsed": 1134946, "serialpos": 1, "key_press": -1, "wordID": 1373, "type": "PRES_AUD", "trial_index": 226}, "uniqueid": "MTK1917:30IQTZXKALDCDURNCAOB597GG1Z0XJ", "dateTime": 1516557119457}, {"current_trial": 227, "trialdata": {"rt": -1000, "trial_type": "single-audio", "word": "world", "stimulus": "/static/audio/wordpool/WORLD.wav", "conditions": [24, 1600, "a", 12000], "internal_node_id": "0.0-164.0", "trial": 6, "time_elapsed": 1137623, "serialpos": 2, "key_press": -1, "wordID": 1621, "type": "PRES_AUD", "trial_index": 227}, "uniqueid": "MTK1917:30IQTZXKALDCDURNCAOB597GG1Z0XJ", "dateTime": 1516557122134}, {"current_trial": 228, "trialdata": {"rt": -1000, "trial_type": "single-audio", "word": "europe", "stimulus": "/static/audio/wordpool/EUROPE.wav", "conditions": [24, 1600, "a", 12000], "internal_node_id": "0.0-165.0", "trial": 6, "time_elapsed": 1140364, "serialpos": 3, "key_press": -1, "wordID": 540, "type": "PRES_AUD", "trial_index": 228}, "uniqueid": "MTK1917:30IQTZXKALDCDURNCAOB597GG1Z0XJ", "dateTime": 1516557124875}, {"current_trial": 229, "trialdata": {"rt": -1000, "trial_type": "single-audio", "word": "egypt", "stimulus": "/static/audio/wordpool/EGYPT.wav", "conditions": [24, 1600, "a", 12000], "internal_node_id": "0.0-166.0", "trial": 6, "time_elapsed": 1142940, "serialpos": 4, "key_press": -1, "wordID": 518, "type": "PRES_AUD", "trial_index": 229}, "uniqueid": "MTK1917:30IQTZXKALDCDURNCAOB597GG1Z0XJ", "dateTime": 1516557127451}, {"current_trial": 230, "trialdata": {"rt": -1000, "trial_type": "single-audio", "word": "creature", "stimulus": "/static/audio/wordpool/CREATURE.wav", "conditions": [24, 1600, "a", 12000], "internal_node_id": "0.0-167.0", "trial": 6, "time_elapsed": 1145428, "serialpos": 5, "key_press": -1, "wordID": 402, "type": "PRES_AUD", "trial_index": 230}, "uniqueid": "MTK1917:30IQTZXKALDCDURNCAOB597GG1Z0XJ", "dateTime": 1516557129939}, {"current_trial": 231, "trialdata": {"rt": -1000, "trial_type": "single-audio", "word": "slime", "stimulus": "/static/audio/wordpool/SLIME.wav", "conditions": [24, 1600, "a", 12000], "internal_node_id": "0.0-168.0", "trial": 6, "time_elapsed": 1148147, "serialpos": 6, "key_press": -1, "wordID": 1326, "type": "PRES_AUD", "trial_index": 231}, "uniqueid": "MTK1917:30IQTZXKALDCDURNCAOB597GG1Z0XJ", "dateTime": 1516557132658}, {"current_trial": 232, "trialdata": {"rt": -1000, "trial_type": "single-audio", "word": "yarn", "stimulus": "/static/audio/wordpool/YARN.wav", "conditions": [24, 1600, "a", 12000], "internal_node_id": "0.0-169.0", "trial": 6, "time_elapsed": 1150877, "serialpos": 7, "key_press": -1, "wordID": 1630, "type": "PRES_AUD", "trial_index": 232}, "uniqueid": "MTK1917:30IQTZXKALDCDURNCAOB597GG1Z0XJ", "dateTime": 1516557135389}, {"current_trial": 233, "trialdata": {"rt": -1000, "trial_type": "single-audio", "word": "army", "stimulus": "/static/audio/wordpool/ARMY.wav", "conditions": [24, 1600, "a", 12000], "internal_node_id": "0.0-170.0", "trial": 6, "time_elapsed": 1153357, "serialpos": 8, "key_press": -1, "wordID": 38, "type": "PRES_AUD", "trial_index": 233}, "uniqueid": "MTK1917:30IQTZXKALDCDURNCAOB597GG1Z0XJ", "dateTime": 1516557137868}, {"current_trial": 234, "trialdata": {"rt": -1000, "trial_type": "single-audio", "word": "glass", "stimulus": "/static/audio/wordpool/GLASS.wav", "conditions": [24, 1600, "a", 12000], "internal_node_id": "0.0-171.0", "trial": 6, "time_elapsed": 1156132, "serialpos": 9, "key_press": -1, "wordID": 638, "type": "PRES_AUD", "trial_index": 234}, "uniqueid": "MTK1917:30IQTZXKALDCDURNCAOB597GG1Z0XJ", "dateTime": 1516557140643}, {"current_trial": 235, "trialdata": {"rt": -1000, "trial_type": "single-audio", "word": "drink", "stimulus": "/static/audio/wordpool/DRINK.wav", "conditions": [24, 1600, "a", 12000], "internal_node_id": "0.0-172.0", "trial": 6, "time_elapsed": 1158823, "serialpos": 10, "key_press": -1, "wordID": 497, "type": "PRES_AUD", "trial_index": 235}, "uniqueid": "MTK1917:30IQTZXKALDCDURNCAOB597GG1Z0XJ", "dateTime": 1516557143334}, {"current_trial": 236, "trialdata": {"rt": -1000, "trial_type": "single-audio", "word": "globe", "stimulus": "/static/audio/wordpool/GLOBE.wav", "conditions": [24, 1600, "a", 12000], "internal_node_id": "0.0-173.0", "trial": 6, "time_elapsed": 1161284, "serialpos": 11, "key_press": -1, "wordID": 640, "type": "PRES_AUD", "trial_index": 236}, "uniqueid": "MTK1917:30IQTZXKALDCDURNCAOB597GG1Z0XJ", "dateTime": 1516557145795}, {"current_trial": 237, "trialdata": {"rt": -1000, "trial_type": "single-audio", "word": "diver", "stimulus": "/static/audio/wordpool/DIVER.wav", "conditions": [24, 1600, "a", 12000], "internal_node_id": "0.0-174.0", "trial": 6, "time_elapsed": 1163768, "serialpos": 12, "key_press": -1, "wordID": 475, "type": "PRES_AUD", "trial_index": 237}, "uniqueid": "MTK1917:30IQTZXKALDCDURNCAOB597GG1Z0XJ", "dateTime": 1516557148280}, {"current_trial": 238, "trialdata": {"rt": -1000, "trial_type": "single-audio", "word": "film", "stimulus": "/static/audio/wordpool/FILM.wav", "conditions": [24, 1600, "a", 12000], "internal_node_id": "0.0-175.0", "trial": 6, "time_elapsed": 1166232, "serialpos": 13, "key_press": -1, "wordID": 564, "type": "PRES_AUD", "trial_index": 238}, "uniqueid": "MTK1917:30IQTZXKALDCDURNCAOB597GG1Z0XJ", "dateTime": 1516557150743}, {"current_trial": 239, "trialdata": {"rt": -1000, "trial_type": "single-audio", "word": "queen", "stimulus": "/static/audio/wordpool/QUEEN.wav", "conditions": [24, 1600, "a", 12000], "internal_node_id": "0.0-176.0", "trial": 6, "time_elapsed": 1168789, "serialpos": 14, "key_press": -1, "wordID": 1148, "type": "PRES_AUD", "trial_index": 239}, "uniqueid": "MTK1917:30IQTZXKALDCDURNCAOB597GG1Z0XJ", "dateTime": 1516557153300}, {"current_trial": 240, "trialdata": {"rt": -1000, "trial_type": "single-audio", "word": "princess", "stimulus": "/static/audio/wordpool/PRINCESS.wav", "conditions": [24, 1600, "a", 12000], "internal_node_id": "0.0-177.0", "trial": 6, "time_elapsed": 1171465, "serialpos": 15, "key_press": -1, "wordID": 1124, "type": "PRES_AUD", "trial_index": 240}, "uniqueid": "MTK1917:30IQTZXKALDCDURNCAOB597GG1Z0XJ", "dateTime": 1516557155976}, {"current_trial": 241, "trialdata": {"rt": -1000, "trial_type": "single-audio", "word": "girl", "stimulus": "/static/audio/wordpool/GIRL.wav", "conditions": [24, 1600, "a", 12000], "internal_node_id": "0.0-178.0", "trial": 6, "time_elapsed": 1173983, "serialpos": 16, "key_press": -1, "wordID": 636, "type": "PRES_AUD", "trial_index": 241}, "uniqueid": "MTK1917:30IQTZXKALDCDURNCAOB597GG1Z0XJ", "dateTime": 1516557158494}, {"current_trial": 242, "trialdata": {"rt": -1000, "trial_type": "single-audio", "word": "brandy", "stimulus": "/static/audio/wordpool/BRANDY.wav", "conditions": [24, 1600, "a", 12000], "internal_node_id": "0.0-179.0", "trial": 6, "time_elapsed": 1176766, "serialpos": 17, "key_press": -1, "wordID": 168, "type": "PRES_AUD", "trial_index": 242}, "uniqueid": "MTK1917:30IQTZXKALDCDURNCAOB597GG1Z0XJ", "dateTime": 1516557161278}, {"current_trial": 243, "trialdata": {"rt": -1000, "trial_type": "single-audio", "word": "actor", "stimulus": "/static/audio/wordpool/ACTOR.wav", "conditions": [24, 1600, "a", 12000], "internal_node_id": "0.0-180.0", "trial": 6, "time_elapsed": 1179521, "serialpos": 18, "key_press": -1, "wordID": 4, "type": "PRES_AUD", "trial_index": 243}, "uniqueid": "MTK1917:30IQTZXKALDCDURNCAOB597GG1Z0XJ", "dateTime": 1516557164032}, {"current_trial": 244, "trialdata": {"rt": -1000, "trial_type": "single-audio", "word": "onion", "stimulus": "/static/audio/wordpool/ONION.wav", "conditions": [24, 1600, "a", 12000], "internal_node_id": "0.0-181.0", "trial": 6, "time_elapsed": 1182145, "serialpos": 19, "key_press": -1, "wordID": 976, "type": "PRES_AUD", "trial_index": 244}, "uniqueid": "MTK1917:30IQTZXKALDCDURNCAOB597GG1Z0XJ", "dateTime": 1516557166656}, {"current_trial": 245, "trialdata": {"rt": -1000, "trial_type": "single-audio", "word": "treat", "stimulus": "/static/audio/wordpool/TREAT.wav", "conditions": [24, 1600, "a", 12000], "internal_node_id": "0.0-182.0", "trial": 6, "time_elapsed": 1185075, "serialpos": 20, "key_press": -1, "wordID": 1500, "type": "PRES_AUD", "trial_index": 245}, "uniqueid": "MTK1917:30IQTZXKALDCDURNCAOB597GG1Z0XJ", "dateTime": 1516557169586}, {"current_trial": 246, "trialdata": {"rt": -1000, "trial_type": "single-audio", "word": "flipper", "stimulus": "/static/audio/wordpool/FLIPPER.wav", "conditions": [24, 1600, "a", 12000], "internal_node_id": "0.0-183.0", "trial": 6, "time_elapsed": 1187536, "serialpos": 21, "key_press": -1, "wordID": 579, "type": "PRES_AUD", "trial_index": 246}, "uniqueid": "MTK1917:30IQTZXKALDCDURNCAOB597GG1Z0XJ", "dateTime": 1516557172048}, {"current_trial": 247, "trialdata": {"rt": -1000, "trial_type": "single-audio", "word": "ketchup", "stimulus": "/static/audio/wordpool/KETCHUP.wav", "conditions": [24, 1600, "a", 12000], "internal_node_id": "0.0-184.0", "trial": 6, "time_elapsed": 1189952, "serialpos": 22, "key_press": -1, "wordID": 770, "type": "PRES_AUD", "trial_index": 247}, "uniqueid": "MTK1917:30IQTZXKALDCDURNCAOB597GG1Z0XJ", "dateTime": 1516557174464}, {"current_trial": 248, "trialdata": {"rt": -1000, "trial_type": "single-audio", "word": "pork", "stimulus": "/static/audio/wordpool/PORK.wav", "conditions": [24, 1600, "a", 12000], "internal_node_id": "0.0-185.0", "trial": 6, "time_elapsed": 1192487, "serialpos": 23, "key_press": -1, "wordID": 1107, "type": "PRES_AUD", "trial_index": 248}, "uniqueid": "MTK1917:30IQTZXKALDCDURNCAOB597GG1Z0XJ", "dateTime": 1516557176998}, {"current_trial": 249, "trialdata": {"rt": -1, "trial_type": "single-stim", "stimulus": "", "internal_node_id": "0.0-186.0-0.0", "time_elapsed": 1193830, "key_press": -1, "type": "PRE_RECALL_DELAY", "trial_index": 249}, "uniqueid": "MTK1917:30IQTZXKALDCDURNCAOB597GG1Z0XJ", "dateTime": 15165571783