{"assignmentId": "3UOUJI6MTELSTG33AH2VUGVNU7BUXK", "workerId": "MTK1368", "questiondata": {"origin": "United States", "strat-rehearsal": "14", "marital": "Married/Domestic Partnership", "education": "Some college", "ethnicity": "Not Hispanic", "color_depth": 24, "distracted": "No", "wrote-notes": "No", "strat-other": "", "screen_width": 1366, "avail_screen_width": 1318, "avail_screen_height": 768, "strat-image": "76", "language": "English", "gender": "Female", "age": "48", "gender_other": "", "race": ["White"], "strat-categorize": "83", "pixel_depth": 24, "strat-spatial": "84", "strat-story": "1", "race_other": "", "screen_height": 768}, "bonus": 0, "hitId": "389A2A304OPMNCIYVCNM2CQMW020CC", "counterbalance": 1473, "useragent": "Mozilla/5.0 (X11; CrOS x86_64 9901.77.0) AppleWebKit/537.36 (KHTML, like Gecko) Chrome/62.0.3202.97 Safari/537.36", "eventdata": [{"eventtype": "initialized", "interval": 0, "value": null, "timestamp": 1515864786760}, {"eventtype": "window_resize", "interval": 1, "value": [1198, 640], "timestamp": 1515864786761}], "data": [{"current_trial": 0, "trialdata": {"rt": 3658, "trial_type": "text", "internal_node_id": "0.0-0.0", "time_elapsed": 3665, "key_press": 32, "type": "INSTRUCTIONS", "trial_index": 0}, "uniqueid": "MTK1368:3UOUJI6MTELSTG33AH2VUGVNU7BUXK", "dateTime": 1515864791251}, {"current_trial": 1, "trialdata": {"rt": 21790, "trial_type": "text", "internal_node_id": "0.0-1.0", "time_elapsed": 25460, "key_press": 32, "type": "INSTRUCTIONS", "trial_index": 1}, "uniqueid": "MTK1368:3UOUJI6MTELSTG33AH2VUGVNU7BUXK", "dateTime": 1515864813045}, {"current_trial": 2, "trialdata": {"rt": [13538], "trial_type": "audio-test", "responses": ["ocean"], "internal_node_id": "0.0-2.0", "time_elapsed": 39069, "type": "AUDIO_TEST", "trial_index": 2}, "uniqueid": "MTK1368:3UOUJI6MTELSTG33AH2VUGVNU7BUXK", "dateTime": 1515864826655}, {"current_trial": 3, "trialdata": {"rt": [14363], "trial_type": "audio-test", "responses": ["crystal"], "internal_node_id": "0.0-3.0", "time_elapsed": 53444, "type": "AUDIO_TEST", "trial_index": 3}, "uniqueid": "MTK1368:3UOUJI6MTELSTG33AH2VUGVNU7BUXK", "dateTime": 1515864841029}, {"current_trial": 4, "trialdata": {"rt": [8865], "trial_type": "audio-test", "responses": ["spice"], "internal_node_id": "0.0-4.0", "time_elapsed": 62321, "type": "AUDIO_TEST", "trial_index": 4}, "uniqueid": "MTK1368:3UOUJI6MTELSTG33AH2VUGVNU7BUXK", "dateTime": 1515864849906}, {"current_trial": 5, "trialdata": {"rt": 32228, "trial_type": "survey-text", "responses": "{\"Q0\":\"10:30\",\"Q1\":\"8;30\",\"Q2\":\"5\"}", "internal_node_id": "0.0-5.0", "time_elapsed": 95306, "type": "SLEEP_SURVEY", "trial_index": 5}, "uniqueid": "MTK1368:3UOUJI6MTELSTG33AH2VUGVNU7BUXK", "dateTime": 1515864882891}, {"current_trial": 6, "trialdata": {"rt": 46129, "trial_type": "text", "internal_node_id": "0.0-6.0", "time_elapsed": 142439, "key_press": 32, "type": "INSTRUCTIONS", "trial_index": 6}, "uniqueid": "MTK1368:3UOUJI6MTELSTG33AH2VUGVNU7BUXK", "dateTime": 1515864930024}, {"current_trial": 7, "trialdata": {"rt": 20704, "trial_type": "text", "internal_node_id": "0.0-7.0", "time_elapsed": 163646, "key_press": 32, "type": "INSTRUCTIONS", "trial_index": 7}, "uniqueid": "MTK1368:3UOUJI6MTELSTG33AH2VUGVNU7BUXK", "dateTime": 1515864951231}, {"current_trial": 8, "trialdata": {"rt": 304033, "trial_type": "text", "internal_node_id": "0.0-8.0", "time_elapsed": 468182, "key_press": 32, "type": "INSTRUCTIONS", "trial_index": 8}, "uniqueid": "MTK1368:3UOUJI6MTELSTG33AH2VUGVNU7BUXK", "dateTime": 1515865255768}, {"current_trial": 9, "trialdata": {"rt": [5017, 9214, 11694, 16846], "trial_type": "math-distractor", "key_times": [3649, 4043, 5017, 8264, 8362, 9214, 10916, 11694, 15865, 16073, 16846], "responses": ["23", "18", "9", "23"], "num2": [9, 3, 6, 7, 5], "num3": [5, 9, 2, 8, 5], "conditions": [18, 1200, "v", 18000], "internal_node_id": "0.0-9.0", "key_presses": [50, 51, 13, 49, 56, 13, 57, 13, 50, 51, 13], "trial": 0, "time_elapsed": 487219, "type": "DISTRACTOR", "trial_index": 9, "num1": [9, 6, 1, 8, 4]}, "uniqueid": "MTK1368:3UOUJI6MTELSTG33AH2VUGVNU7BUXK", "dateTime": 1515865274804}, {"current_trial": 10, "trialdata": {"rt": -1, "trial_type": "single-stim", "stimulus": "<p id=\"stim\">10</p>", "internal_node_id": "0.0-10.0-0.0", "time_elapsed": 490227, "key_press": -1, "trial_index": 10}, "uniqueid": "MTK1368:3UOUJI6MTELSTG33AH2VUGVNU7BUXK", "dateTime": 1515865277812}, {"current_trial": 11, "trialdata": {"rt": -1, "trial_type": "single-stim", "stimulus": "<p id=\"stim\">9</p>", "internal_node_id": "0.0-10.0-1.0", "time_elapsed": 491231, "key_press": -1, "trial_index": 11}, "uniqueid": "MTK1368:3UOUJI6MTELSTG33AH2VUGVNU7BUXK", "dateTime": 1515865278816}, {"current_trial": 12, "trialdata": {"rt": -1, "trial_type": "single-stim", "stimulus": "<p id=\"stim\">8</p>", "internal_node_id": "0.0-10.0-2.0", "time_elapsed": 492234, "key_press": -1, "trial_index": 12}, "uniqueid": "MTK1368:3UOUJI6MTELSTG33AH2VUGVNU7BUXK", "dateTime": 1515865279819}, {"current_trial": 13, "trialdata": {"rt": -1, "trial_type": "single-stim", "stimulus": "<p id=\"stim\">7</p>", "internal_node_id": "0.0-10.0-3.0", "time_elapsed": 493236, "key_press": -1, "trial_index": 13}, "uniqueid": "MTK1368:3UOUJI6MTELSTG33AH2VUGVNU7BUXK", "dateTime": 1515865280822}, {"current_trial": 14, "trialdata": {"rt": -1, "trial_type": "single-stim", "stimulus": "<p id=\"stim\">6</p>", "internal_node_id": "0.0-10.0-4.0", "time_elapsed": 494241, "key_press": -1, "trial_index": 14}, "uniqueid": "MTK1368:3UOUJI6MTELSTG33AH2VUGVNU7BUXK", "dateTime": 1515865281826}, {"current_trial": 15, "trialdata": {"rt": -1, "trial_type": "single-stim", "stimulus": "<p id=\"stim\">5</p>", "internal_node_id": "0.0-10.0-5.0", "time_elapsed": 495244, "key_press": -1, "trial_index": 15}, "uniqueid": "MTK1368:3UOUJI6MTELSTG33AH2VUGVNU7BUXK", "dateTime": 1515865282830}, {"current_trial": 16, "trialdata": {"rt": -1, "trial_type": "single-stim", "stimulus": "<p id=\"stim\">4</p>", "internal_node_id": "0.0-10.0-6.0", "time_elapsed": 496247, "key_press": -1, "trial_index": 16}, "uniqueid": "MTK1368:3UOUJI6MTELSTG33AH2VUGVNU7BUXK", "dateTime": 1515865283832}, {"current_trial": 17, "trialdata": {"rt": -1, "trial_type": "single-stim", "stimulus": "<p id=\"stim\">3</p>", "internal_node_id": "0.0-10.0-7.0", "time_elapsed": 497251, "key_press": -1, "trial_index": 17}, "uniqueid": "MTK1368:3UOUJI6MTELSTG33AH2VUGVNU7BUXK", "dateTime": 1515865284836}, {"current_trial": 18, "trialdata": {"rt": -1, "trial_type": "single-stim", "stimulus": "<p id=\"stim\">2</p>", "internal_node_id": "0.0-10.0-8.0", "time_elapsed": 498254, "key_press": -1, "trial_index": 18}, "uniqueid": "MTK1368:3UOUJI6MTELSTG33AH2VUGVNU7BUXK", "dateTime": 1515865285839}, {"current_trial": 19, "trialdata": {"rt": -1, "trial_type": "single-stim", "stimulus": "<p id=\"stim\">1</p>", "internal_node_id": "0.0-10.0-9.0", "time_elapsed": 499256, "key_press": -1, "trial_index": 19}, "uniqueid": "MTK1368:3UOUJI6MTELSTG33AH2VUGVNU7BUXK", "dateTime": 1515865286842}, {"current_trial": 20, "trialdata": {"rt": -1, "trial_type": "single-stim", "stimulus": "<p id=\"stim\">+</p>", "internal_node_id": "0.0-11.0-0.0", "time_elapsed": 500760, "key_press": -1, "type": "FIXATION", "trial_index": 20}, "uniqueid": "MTK1368:3UOUJI6MTELSTG33AH2VUGVNU7BUXK", "dateTime": 1515865288345}, {"current_trial": 21, "trialdata": {"rt": -1, "trial_type": "single-stim", "word": "skillet", "stimulus": "<p id=\"stim\">SKILLET</p>", "conditions": [18, 1200, "v", 18000], "internal_node_id": "0.0-12.0", "trial": 0, "time_elapsed": 501965, "serialpos": 0, "key_press": -1, "wordID": 1316, "type": "PRES_VIS", "trial_index": 21}, "uniqueid": "MTK1368:3UOUJI6MTELSTG33AH2VUGVNU7BUXK", "dateTime": 1515865289551}, {"current_trial": 22, "trialdata": {"rt": -1, "trial_type": "single-stim", "word": "marker", "stimulus": "<p id=\"stim\">MARKER</p>", "conditions": [18, 1200, "v", 18000], "internal_node_id": "0.0-13.0", "trial": 0, "time_elapsed": 504365, "serialpos": 1, "key_press": -1, "wordID": 869, "type": "PRES_VIS", "trial_index": 22}, "uniqueid": "MTK1368:3UOUJI6MTELSTG33AH2VUGVNU7BUXK", "dateTime": 1515865291950}, {"current_trial": 23, "trialdata": {"rt": -1, "trial_type": "single-stim", "word": "possum", "stimulus": "<p id=\"stim\">POSSUM</p>", "conditions": [18, 1200, "v", 18000], "internal_node_id": "0.0-14.0", "trial": 0, "time_elapsed": 506553, "serialpos": 2, "key_press": -1, "wordID": 1111, "type": "PRES_VIS", "trial_index": 23}, "uniqueid": "MTK1368:3UOUJI6MTELSTG33AH2VUGVNU7BUXK", "dateTime": 1515865294138}, {"current_trial": 24, "trialdata": {"rt": -1, "trial_type": "single-stim", "word": "cocoon", "stimulus": "<p id=\"stim\">COCOON</p>", "conditions": [18, 1200, "v", 18000], "internal_node_id": "0.0-15.0", "trial": 0, "time_elapsed": 508874, "serialpos": 3, "key_press": -1, "wordID": 338, "type": "PRES_VIS", "trial_index": 24}, "uniqueid": "MTK1368:3UOUJI6MTELSTG33AH2VUGVNU7BUXK", "dateTime": 1515865296459}, {"current_trial": 25, "trialdata": {"rt": -1, "trial_type": "single-stim", "word": "wardrobe", "stimulus": "<p id=\"stim\">WARDROBE</p>", "conditions": [18, 1200, "v", 18000], "internal_node_id": "0.0-16.0", "trial": 0, "time_elapsed": 511109, "serialpos": 4, "key_press": -1, "wordID": 1586, "type": "PRES_VIS", "trial_index": 25}, "uniqueid": "MTK1368:3UOUJI6MTELSTG33AH2VUGVNU7BUXK", "dateTime": 1515865298694}, {"current_trial": 26, "trialdata": {"rt": -1, "trial_type": "single-stim", "word": "shovel", "stimulus": "<p id=\"stim\">SHOVEL</p>", "conditions": [18, 1200, "v", 18000], "internal_node_id": "0.0-17.0", "trial": 0, "time_elapsed": 513499, "serialpos": 5, "key_press": -1, "wordID": 1294, "type": "PRES_VIS", "trial_index": 26}, "uniqueid": "MTK1368:3UOUJI6MTELSTG33AH2VUGVNU7BUXK", "dateTime": 1515865301084}, {"current_trial": 27, "trialdata": {"rt": -1, "trial_type": "single-stim", "word": "ointment", "stimulus": "<p id=\"stim\">OINTMENT</p>", "conditions": [18, 1200, "v", 18000], "internal_node_id": "0.0-18.0", "trial": 0, "time_elapsed": 515515, "serialpos": 6, "key_press": -1, "wordID": 973, "type": "PRES_VIS", "trial_index": 27}, "uniqueid": "MTK1368:3UOUJI6MTELSTG33AH2VUGVNU7BUXK", "dateTime": 1515865303100}, {"current_trial": 28, "trialdata": {"rt": -1, "trial_type": "single-stim", "word": "lace", "stimulus": "<p id=\"stim\">LACE</p>", "conditions": [18, 1200, "v", 18000], "internal_node_id": "0.0-19.0", "trial": 0, "time_elapsed": 517619, "serialpos": 7, "key_press": -1, "wordID": 791, "type": "PRES_VIS", "trial_index": 28}, "uniqueid": "MTK1368:3UOUJI6MTELSTG33AH2VUGVNU7BUXK", "dateTime": 1515865305205}, {"current_trial": 29, "trialdata": {"rt": -1, "trial_type": "single-stim", "word": "kidney", "stimulus": "<p id=\"stim\">KIDNEY</p>", "conditions": [18, 1200, "v", 18000], "internal_node_id": "0.0-20.0", "trial": 0, "time_elapsed": 519958, "serialpos": 8, "key_press": -1, "wordID": 775, "type": "PRES_VIS", "trial_index": 29}, "uniqueid": "MTK1368:3UOUJI6MTELSTG33AH2VUGVNU7BUXK", "dateTime": 1515865307543}, {"current_trial": 30, "trialdata": {"rt": -1, "trial_type": "single-stim", "word": "ankle", "stimulus": "<p id=\"stim\">ANKLE</p>", "conditions": [18, 1200, "v", 18000], "internal_node_id": "0.0-21.0", "trial": 0, "time_elapsed": 522160, "serialpos": 9, "key_press": -1, "wordID": 23, "type": "PRES_VIS", "trial_index": 30}, "uniqueid": "MTK1368:3UOUJI6MTELSTG33AH2VUGVNU7BUXK", "dateTime": 1515865309746}, {"current_trial": 31, "trialdata": {"rt": -1, "trial_type": "single-stim", "word": "stallion", "stimulus": "<p id=\"stim\">STALLION</p>", "conditions": [18, 1200, "v", 18000], "internal_node_id": "0.0-22.0", "trial": 0, "time_elapsed": 524200, "serialpos": 10, "key_press": -1, "wordID": 1368, "type": "PRES_VIS", "trial_index": 31}, "uniqueid": "MTK1368:3UOUJI6MTELSTG33AH2VUGVNU7BUXK", "dateTime": 1515865311785}, {"current_trial": 32, "trialdata": {"rt": -1, "trial_type": "single-stim", "word": "novel", "stimulus": "<p id=\"stim\">NOVEL</p>", "conditions": [18, 1200, "v", 18000], "internal_node_id": "0.0-23.0", "trial": 0, "time_elapsed": 526207, "serialpos": 11, "key_press": -1, "wordID": 959, "type": "PRES_VIS", "trial_index": 32}, "uniqueid": "MTK1368:3UOUJI6MTELSTG33AH2VUGVNU7BUXK", "dateTime": 1515865313792}, {"current_trial": 33, "trialdata": {"rt": -1, "trial_type": "single-stim", "word": "umpire", "stimulus": "<p id=\"stim\">UMPIRE</p>", "conditions": [18, 1200, "v", 18000], "internal_node_id": "0.0-24.0", "trial": 0, "time_elapsed": 528249, "serialpos": 12, "key_press": -1, "wordID": 1534, "type": "PRES_VIS", "trial_index": 33}, "uniqueid": "MTK1368:3UOUJI6MTELSTG33AH2VUGVNU7BUXK", "dateTime": 1515865315834}, {"current_trial": 34, "trialdata": {"rt": -1, "trial_type": "single-stim", "word": "finger", "stimulus": "<p id=\"stim\">FINGER</p>", "conditions": [18, 1200, "v", 18000], "internal_node_id": "0.0-25.0", "trial": 0, "time_elapsed": 530511, "serialpos": 13, "key_press": -1, "wordID": 566, "type": "PRES_VIS", "trial_index": 34}, "uniqueid": "MTK1368:3UOUJI6MTELSTG33AH2VUGVNU7BUXK", "dateTime": 1515865318096}, {"current_trial": 35, "trialdata": {"rt": -1, "trial_type": "single-stim", "word": "slide", "stimulus": "<p id=\"stim\">SLIDE</p>", "conditions": [18, 1200, "v", 18000], "internal_node_id": "0.0-26.0", "trial": 0, "time_elapsed": 532813, "serialpos": 14, "key_press": -1, "wordID": 1325, "type": "PRES_VIS", "trial_index": 35}, "uniqueid": "MTK1368:3UOUJI6MTELSTG33AH2VUGVNU7BUXK", "dateTime": 1515865320398}, {"current_trial": 36, "trialdata": {"rt": -1, "trial_type": "single-stim", "word": "viking", "stimulus": "<p id=\"stim\">VIKING</p>", "conditions": [18, 1200, "v", 18000], "internal_node_id": "0.0-27.0", "trial": 0, "time_elapsed": 534897, "serialpos": 15, "key_press": -1, "wordID": 1564, "type": "PRES_VIS", "trial_index": 36}, "uniqueid": "MTK1368:3UOUJI6MTELSTG33AH2VUGVNU7BUXK", "dateTime": 1515865322483}, {"current_trial": 37, "trialdata": {"rt": -1, "trial_type": "single-stim", "word": "nightgown", "stimulus": "<p id=\"stim\">NIGHTGOWN</p>", "conditions": [18, 1200, "v", 18000], "internal_node_id": "0.0-28.0", "trial": 0, "time_elapsed": 537164, "serialpos": 16, "key_press": -1, "wordID": 952, "type": "PRES_VIS", "trial_index": 37}, "uniqueid": "MTK1368:3UOUJI6MTELSTG33AH2VUGVNU7BUXK", "dateTime": 1515865324749}, {"current_trial": 38, "trialdata": {"rt": -1, "trial_type": "single-stim", "word": "puppy", "stimulus": "<p id=\"stim\">PUPPY</p>", "conditions": [18, 1200, "v", 18000], "internal_node_id": "0.0-29.0", "trial": 0, "time_elapsed": 539319, "serialpos": 17, "key_press": -1, "wordID": 1143, "type": "PRES_VIS", "trial_index": 38}, "uniqueid": "MTK1368:3UOUJI6MTELSTG33AH2VUGVNU7BUXK", "dateTime": 1515865326904}, {"current_trial": 39, "trialdata": {"rt": -1, "trial_type": "single-stim", "stimulus": "", "internal_node_id": "0.0-30.0-0.0", "time_elapsed": 541663, "key_press": -1, "type": "PRE_RECALL_DELAY", "trial_index": 39}, "uniqueid": "MTK1368:3UOUJI6MTELSTG33AH2VUGVNU7BUXK", "dateTime": 1515865329248}, {"current_trial": 40, "trialdata": {"rt": -1000, "trial_type": "single-audio", "stimulus": "/static/audio/400Hz.wav", "internal_node_id": "0.0-31.0", "time_elapsed": 542166, "key_press": -1, "type": "PRE_RECALL_ALERT", "trial_index": 40}, "uniqueid": "MTK1368:3UOUJI6MTELSTG33AH2VUGVNU7BUXK", "dateTime": 1515865329752}, {"current_trial": 41, "trialdata": {"rt": [3622, 7135, 9384, 14118, 16820, 18560, 21542, 29548, 32078, 59854], "recwords": ["puppy", "nightgown", "skillet", "opossum", "wardrobe", "slide", "finger", "blanket", "ointment", "cocoon"], "key_times": [1537, 1932, 2330, 2513, 2880, 3622, 4414, 4567, 4715, 4878, 5039, 5649, 6144, 6528, 6695, 7135, 7751, 7859, 8076, 8397, 8547, 8748, 9013, 9384, 11108, 11295, 12110, 12351, 12518, 12933, 13313, 14118, 14574, 14846, 15265, 15544, 15873, 16098, 16301, 16523, 16820, 17263, 17390, 17577, 18057, 18271, 18560, 19043, 19141, 19382, 19590, 19792, 19992, 21542, 27755, 28063, 28202, 28368, 28681, 28938, 29210, 29548, 30245, 30408, 30714, 30864, 31240, 31403, 31570, 31724, 32078, 57227, 57790, 58089, 58412, 58575, 59379, 59854], "trial_type": "free-recall", "conditions": [18, 1200, "v", 18000], "internal_node_id": "0.0-32.0-0.0", "key_presses": [80, 85, 80, 80, 89, 13, 78, 73, 71, 72, 84, 71, 79, 87, 78, 13, 83, 75, 73, 76, 76, 69, 84, 13, 79, 80, 79, 83, 83, 85, 77, 13, 87, 65, 82, 68, 82, 79, 66, 69, 13, 83, 76, 73, 68, 69, 13, 70, 73, 78, 71, 69, 82, 13, 66, 76, 65, 78, 75, 69, 84, 13, 79, 73, 78, 84, 77, 69, 78, 84, 13, 67, 79, 67, 79, 79, 78, 13], "trial": 0, "time_elapsed": 602174, "type": "FREE_RECALL", "trial_index": 41}, "uniqueid": "MTK1368:3UOUJI6MTELSTG33AH2VUGVNU7BUXK", "dateTime": 1515865389769}, {"current_trial": 42, "trialdata": {"rt": 2242, "trial_type": "text", "internal_node_id": "0.0-33.0", "time_elapsed": 606429, "key_press": 13, "type": "INSTRUCTIONS", "trial_index": 42}, "uniqueid": "MTK1368:3UOUJI6MTELSTG33AH2VUGVNU7BUXK", "dateTime": 1515865394019}, {"current_trial": 43, "trialdata": {"rt": [3692, 7384, 11454, 14880, 16995], "trial_type": "math-distractor", "key_times": [3190, 3692, 6092, 6944, 7384, 10669, 11068, 11454, 14070, 14507, 14880, 16321, 16528, 16995], "responses": ["9", "16", "19", "16", "10"], "num2": [2, 8, 7, 3, 1, 3], "num3": [4, 1, 4, 4, 8, 3], "conditions": [18, 1200, "v", 18000], "internal_node_id": "0.0-34.0", "key_presses": [57, 13, 49, 54, 13, 49, 57, 13, 49, 54, 13, 49, 48, 13], "trial": 1, "time_elapsed": 626444, "type": "DISTRACTOR", "trial_index": 43, "num1": [3, 7, 8, 9, 1, 2]}, "uniqueid": "MTK1368:3UOUJI6MTELSTG33AH2VUGVNU7BUXK", "dateTime": 1515865414029}, {"current_trial": 44, "trialdata": {"rt": -1, "trial_type": "single-stim", "stimulus": "<p id=\"stim\">10</p>", "internal_node_id": "0.0-35.0-0.0", "time_elapsed": 629446, "key_press": -1, "trial_index": 44}, "uniqueid": "MTK1368:3UOUJI6MTELSTG33AH2VUGVNU7BUXK", "dateTime": 1515865417032}, {"current_trial": 45, "trialdata": {"rt": -1, "trial_type": "single-stim", "stimulus": "<p id=\"stim\">9</p>", "internal_node_id": "0.0-35.0-1.0", "time_elapsed": 630448, "key_press": -1, "trial_index": 45}, "uniqueid": "MTK1368:3UOUJI6MTELSTG33AH2VUGVNU7BUXK", "dateTime": 1515865418034}, {"current_trial": 46, "trialdata": {"rt": -1, "trial_type": "single-stim", "stimulus": "<p id=\"stim\">8</p>", "internal_node_id": "0.0-35.0-2.0", "time_elapsed": 631450, "key_press": -1, "trial_index": 46}, "uniqueid": "MTK1368:3UOUJI6MTELSTG33AH2VUGVNU7BUXK", "dateTime": 1515865419036}, {"current_trial": 47, "trialdata": {"rt": -1, "trial_type": "single-stim", "stimulus": "<p id=\"stim\">7</p>", "internal_node_id": "0.0-35.0-3.0", "time_elapsed": 632452, "key_press": -1, "trial_index": 47}, "uniqueid": "MTK1368:3UOUJI6MTELSTG33AH2VUGVNU7BUXK", "dateTime": 1515865420037}, {"current_trial": 48, "trialdata": {"rt": -1, "trial_type": "single-stim", "stimulus": "<p id=\"stim\">6</p>", "internal_node_id": "0.0-35.0-4.0", "time_elapsed": 633454, "key_press": -1, "trial_index": 48}, "uniqueid": "MTK1368:3UOUJI6MTELSTG33AH2VUGVNU7BUXK", "dateTime": 1515865421040}, {"current_trial": 49, "trialdata": {"rt": -1, "trial_type": "single-stim", "stimulus": "<p id=\"stim\">5</p>", "internal_node_id": "0.0-35.0-5.0", "time_elapsed": 634457, "key_press": -1, "trial_index": 49}, "uniqueid": "MTK1368:3UOUJI6MTELSTG33AH2VUGVNU7BUXK", "dateTime": 1515865422043}, {"current_trial": 50, "trialdata": {"rt": -1, "trial_type": "single-stim", "stimulus": "<p id=\"stim\">4</p>", "internal_node_id": "0.0-35.0-6.0", "time_elapsed": 635460, "key_press": -1, "trial_index": 50}, "uniqueid": "MTK1368:3UOUJI6MTELSTG33AH2VUGVNU7BUXK", "dateTime": 1515865423046}, {"current_trial": 51, "trialdata": {"rt": -1, "trial_type": "single-stim", "stimulus": "<p id=\"stim\">3</p>", "internal_node_id": "0.0-35.0-7.0", "time_elapsed": 636462, "key_press": -1, "trial_index": 51}, "uniqueid": "MTK1368:3UOUJI6MTELSTG33AH2VUGVNU7BUXK", "dateTime": 1515865424048}, {"current_trial": 52, "trialdata": {"rt": -1, "trial_type": "single-stim", "stimulus": "<p id=\"stim\">2</p>", "internal_node_id": "0.0-35.0-8.0", "time_elapsed": 637464, "key_press": -1, "trial_index": 52}, "uniqueid": "MTK1368:3UOUJI6MTELSTG33AH2VUGVNU7BUXK", "dateTime": 1515865425049}, {"current_trial": 53, "trialdata": {"rt": -1, "trial_type": "single-stim", "stimulus": "<p id=\"stim\">1</p>", "internal_node_id": "0.0-35.0-9.0", "time_elapsed": 638466, "key_press": -1, "trial_index": 53}, "uniqueid": "MTK1368:3UOUJI6MTELSTG33AH2VUGVNU7BUXK", "dateTime": 1515865426051}, {"current_trial": 54, "trialdata": {"rt": -1, "trial_type": "single-stim", "stimulus": "<p id=\"stim\">+</p>", "internal_node_id": "0.0-36.0-0.0", "time_elapsed": 639970, "key_press": -1, "type": "FIXATION", "trial_index": 54}, "uniqueid": "MTK1368:3UOUJI6MTELSTG33AH2VUGVNU7BUXK", "dateTime": 1515865427555}, {"current_trial": 55, "trialdata": {"rt": -1, "trial_type": "single-stim", "word": "icing", "stimulus": "<p id=\"stim\">ICING</p>", "conditions": [18, 1200, "v", 18000], "internal_node_id": "0.0-37.0", "trial": 1, "time_elapsed": 641175, "serialpos": 0, "key_press": -1, "wordID": 731, "type": "PRES_VIS", "trial_index": 55}, "uniqueid": "MTK1368:3UOUJI6MTELSTG33AH2VUGVNU7BUXK", "dateTime": 1515865428760}, {"current_trial": 56, "trialdata": {"rt": -1, "trial_type": "single-stim", "word": "mailbox", "stimulus": "<p id=\"stim\">MAILBOX</p>", "conditions": [18, 1200, "v", 18000], "internal_node_id": "0.0-38.0", "trial": 1, "time_elapsed": 643541, "serialpos": 1, "key_press": -1, "wordID": 856, "type": "PRES_VIS", "trial_index": 56}, "uniqueid": "MTK1368:3UOUJI6MTELSTG33AH2VUGVNU7BUXK", "dateTime": 1515865431126}, {"current_trial": 57, "trialdata": {"rt": -1, "trial_type": "single-stim", "word": "penguin", "stimulus": "<p id=\"stim\">PENGUIN</p>", "conditions": [18, 1200, "v", 18000], "internal_node_id": "0.0-39.0", "trial": 1, "time_elapsed": 645862, "serialpos": 2, "key_press": -1, "wordID": 1043, "type": "PRES_VIS", "trial_index": 57}, "uniqueid": "MTK1368:3UOUJI6MTELSTG33AH2VUGVNU7BUXK", "dateTime": 1515865433447}, {"current_trial": 58, "trialdata": {"rt": -1, "trial_type": "single-stim", "word": "bullet", "stimulus": "<p id=\"stim\">BULLET</p>", "conditions": [18, 1200, "v", 18000], "internal_node_id": "0.0-40.0", "trial": 1, "time_elapsed": 648074, "serialpos": 3, "key_press": -1, "wordID": 193, "type": "PRES_VIS", "trial_index": 58}, "uniqueid": "MTK1368:3UOUJI6MTELSTG33AH2VUGVNU7BUXK", "dateTime": 1515865435660}, {"current_trial": 59, "trialdata": {"rt": -1, "trial_type": "single-stim", "word": "beast", "stimulus": "<p id=\"stim\">BEAST</p>", "conditions": [18, 1200, "v", 18000], "internal_node_id": "0.0-41.0", "trial": 1, "time_elapsed": 650151, "serialpos": 4, "key_press": -1, "wordID": 107, "type": "PRES_VIS", "trial_index": 59}, "uniqueid": "MTK1368:3UOUJI6MTELSTG33AH2VUGVNU7BUXK", "dateTime": 1515865437737}, {"current_trial": 60, "trialdata": {"rt": -1, "trial_type": "single-stim", "word": "drill", "stimulus": "<p id=\"stim\">DRILL</p>", "conditions": [18, 1200, "v", 18000], "internal_node_id": "0.0-42.0", "trial": 1, "time_elapsed": 652469, "serialpos": 5, "key_press": -1, "wordID": 496, "type": "PRES_VIS", "trial_index": 60}, "uniqueid": "MTK1368:3UOUJI6MTELSTG33AH2VUGVNU7BUXK", "dateTime": 1515865440054}, {"current_trial": 61, "trialdata": {"rt": -1, "trial_type": "single-stim", "word": "church", "stimulus": "<p id=\"stim\">CHURCH</p>", "conditions": [18, 1200, "v", 18000], "internal_node_id": "0.0-43.0", "trial": 1, "time_elapsed": 654828, "serialpos": 6, "key_press": -1, "wordID": 306, "type": "PRES_VIS", "trial_index": 61}, "uniqueid": "MTK1368:3UOUJI6MTELSTG33AH2VUGVNU7BUXK", "dateTime": 1515865442413}, {"current_trial": 62, "trialdata": {"rt": -1, "trial_type": "single-stim", "word": "banker", "stimulus": "<p id=\"stim\">BANKER</p>", "conditions": [18, 1200, "v", 18000], "internal_node_id": "0.0-44.0", "trial": 1, "time_elapsed": 656849, "serialpos": 7, "key_press": -1, "wordID": 83, "type": "PRES_VIS", "trial_index": 62}, "uniqueid": "MTK1368:3UOUJI6MTELSTG33AH2VUGVNU7BUXK", "dateTime": 1515865444434}, {"current_trial": 63, "trialdata": {"rt": -1, "trial_type": "single-stim", "word": "shark", "stimulus": "<p id=\"stim\">SHARK</p>", "conditions": [18, 1200, "v", 18000], "internal_node_id": "0.0-45.0", "trial": 1, "time_elapsed": 658978, "serialpos": 8, "key_press": -1, "wordID": 1274, "type": "PRES_VIS", "trial_index": 63}, "uniqueid": "MTK1368:3UOUJI6MTELSTG33AH2VUGVNU7BUXK", "dateTime": 1515865446564}, {"current_trial": 64, "trialdata": {"rt": -1, "trial_type": "single-stim", "word": "trout", "stimulus": "<p id=\"stim\">TROUT</p>", "conditions": [18, 1200, "v", 18000], "internal_node_id": "0.0-46.0", "trial": 1, "time_elapsed": 661176, "serialpos": 9, "key_press": -1, "wordID": 1510, "type": "PRES_VIS", "trial_index": 64}, "uniqueid": "MTK1368:3UOUJI6MTELSTG33AH2VUGVNU7BUXK", "dateTime": 1515865448762}, {"current_trial": 65, "trialdata": {"rt": -1, "trial_type": "single-stim", "word": "jury", "stimulus": "<p id=\"stim\">JURY</p>", "conditions": [18, 1200, "v", 18000], "internal_node_id": "0.0-47.0", "trial": 1, "time_elapsed": 663549, "serialpos": 10, "key_press": -1, "wordID": 765, "type": "PRES_VIS", "trial_index": 65}, "uniqueid": "MTK1368:3UOUJI6MTELSTG33AH2VUGVNU7BUXK", "dateTime": 1515865451135}, {"current_trial": 66, "trialdata": {"rt": -1, "trial_type": "single-stim", "word": "doughnut", "stimulus": "<p id=\"stim\">DOUGHNUT</p>", "conditions": [18, 1200, "v", 18000], "internal_node_id": "0.0-48.0", "trial": 1, "time_elapsed": 665735, "serialpos": 11, "key_press": -1, "wordID": 489, "type": "PRES_VIS", "trial_index": 66}, "uniqueid": "MTK1368:3UOUJI6MTELSTG33AH2VUGVNU7BUXK", "dateTime": 1515865453321}, {"current_trial": 67, "trialdata": {"rt": -1, "trial_type": "single-stim", "word": "critic", "stimulus": "<p id=\"stim\">CRITIC</p>", "conditions": [18, 1200, "v", 18000], "internal_node_id": "0.0-49.0", "trial": 1, "time_elapsed": 667959, "serialpos": 12, "key_press": -1, "wordID": 409, "type": "PRES_VIS", "trial_index": 67}, "uniqueid": "MTK1368:3UOUJI6MTELSTG33AH2VUGVNU7BUXK", "dateTime": 1515865455544}, {"current_trial": 68, "trialdata": {"rt": -1, "trial_type": "single-stim", "word": "award", "stimulus": "<p id=\"stim\">AWARD</p>", "conditions": [18, 1200, "v", 18000], "internal_node_id": "0.0-50.0", "trial": 1, "time_elapsed": 670097, "serialpos": 13, "key_press": -1, "wordID": 62, "type": "PRES_VIS", "trial_index": 68}, "uniqueid": "MTK1368:3UOUJI6MTELSTG33AH2VUGVNU7BUXK", "dateTime": 1515865457694}, {"current_trial": 69, "trialdata": {"rt": -1, "trial_type": "single-stim", "word": "waiter", "stimulus": "<p id=\"stim\">WAITER</p>", "conditions": [18, 1200, "v", 18000], "internal_node_id": "0.0-51.0", "trial": 1, "time_elapsed": 672445, "serialpos": 14, "key_press": -1, "wordID": 1579, "type": "PRES_VIS", "trial_index": 69}, "uniqueid": "MTK1368:3UOUJI6MTELSTG33AH2VUGVNU7BUXK", "dateTime": 1515865460030}, {"current_trial": 70, "trialdata": {"rt": -1, "trial_type": "single-stim", "word": "curtain", "stimulus": "<p id=\"stim\">CURTAIN</p>", "conditions": [18, 1200, "v", 18000], "internal_node_id": "0.0-52.0", "trial": 1, "time_elapsed": 674478, "serialpos": 15, "key_press": -1, "wordID": 426, "type": "PRES_VIS", "trial_index": 70}, "uniqueid": "MTK1368:3UOUJI6MTELSTG33AH2VUGVNU7BUXK", "dateTime": 1515865462064}, {"current_trial": 71, "trialdata": {"rt": -1, "trial_type": "single-stim", "word": "freckle", "stimulus": "<p id=\"stim\">FRECKLE</p>", "conditions": [18, 1200, "v", 18000], "internal_node_id": "0.0-53.0", "trial": 1, "time_elapsed": 676777, "serialpos": 16, "key_press": -1, "wordID": 601, "type": "PRES_VIS", "trial_index": 71}, "uniqueid": "MTK1368:3UOUJI6MTELSTG33AH2VUGVNU7BUXK", "dateTime": 1515865464362}, {"current_trial": 72, "trialdata": {"rt": -1, "trial_type": "single-stim", "word": "briefcase", "stimulus": "<p id=\"stim\">BRIEFCASE</p>", "conditions": [18, 1200, "v", 18000], "internal_node_id": "0.0-54.0", "trial": 1, "time_elapsed": 679021, "serialpos": 17, "key_press": -1, "wordID": 174, "type": "PRES_VIS", "trial_index": 72}, "uniqueid": "MTK1368:3UOUJI6MTELSTG33AH2VUGVNU7BUXK", "dateTime": 1515865466606}, {"current_trial": 73, "trialdata": {"rt": -1, "trial_type": "single-stim", "stimulus": "", "internal_node_id": "0.0-55.0-0.0", "time_elapsed": 681212, "key_press": -1, "type": "PRE_RECALL_DELAY", "trial_index": 73}, "uniqueid": "MTK1368:3UOUJI6MTELSTG33AH2VUGVNU7BUXK", "dateTime": 1515865468797}, {"current_trial": 74, "trialdata": {"rt": -1000, "trial_type": "single-audio", "stimulus": "/static/audio/400Hz.wav", "internal_node_id": "0.0-56.0", "time_elapsed": 681714, "key_press": -1, "type": "PRE_RECALL_ALERT", "trial_index": 74}, "uniqueid": "MTK1368:3UOUJI6MTELSTG33AH2VUGVNU7BUXK", "dateTime": 1515865469299}, {"current_trial": 75, "trialdata": {"rt": [1908, 5061, 8799, 11780, 26521, 36499, 52812], "recwords": ["lawyer", "briefcase", "shark", "waiter", "briefcase", "knife", "penguin"], "key_times": [521, 722, 1154, 1466, 1606, 1774, 1908, 2568, 2852, 3051, 3208, 3445, 3776, 4068, 4356, 4616, 5061, 5613, 5785, 5936, 6232, 6730, 8799, 9429, 10102, 10226, 10437, 10762, 10897, 11780, 23328, 23710, 23903, 24054, 24322, 24641, 25436, 25841, 26131, 26521, 35271, 35511, 35698, 36026, 36213, 36499, 51070, 51229, 51389, 51606, 51866, 52093, 52391, 52812], "trial_type": "free-recall", "conditions": [18, 1200, "v", 18000], "internal_node_id": "0.0-57.0-0.0", "key_presses": [76, 65, 87, 89, 69, 82, 13, 66, 82, 73, 69, 70, 67, 65, 83, 69, 13, 83, 72, 65, 82, 75, 13, 87, 65, 73, 84, 69, 82, 13, 66, 82, 73, 69, 70, 67, 65, 83, 69, 13, 75, 78, 73, 70, 69, 13, 80, 69, 78, 71, 85, 73, 78, 13], "trial": 1, "time_elapsed": 741720, "type": "FREE_RECALL", "trial_index": 75}, "uniqueid": "MTK1368:3UOUJI6MTELSTG33AH2VUGVNU7BUXK", "dateTime": 1515865529311}, {"current_trial": 76, "trialdata": {"rt": 3353, "trial_type": "text", "internal_node_id": "0.0-58.0", "time_elapsed": 747082, "key_press": 13, "type": "INSTRUCTIONS", "trial_index": 76}, "uniqueid": "MTK1368:3UOUJI6MTELSTG33AH2VUGVNU7BUXK", "dateTime": 1515865534667}, {"current_trial": 77, "trialdata": {"rt": [4041, 8869, 11950], "trial_type": "math-distractor", "key_times": [3497, 3599, 4041, 8109, 8375, 8869, 11631, 11950], "responses": ["20", "21", "9"], "num2": [7, 9, 3, 3], "num3": [9, 4, 4, 4], "conditions": [12, 1600, "v", 12000], "internal_node_id": "0.0-59.0", "key_presses": [50, 48, 13, 50, 49, 13, 57, 13], "trial": 2, "time_elapsed": 760089, "type": "DISTRACTOR", "trial_index": 77, "num1": [4, 8, 2, 2]}, "uniqueid": "MTK1368:3UOUJI6MTELSTG33AH2VUGVNU7BUXK", "dateTime": 1515865547674}, {"current_trial": 78, "trialdata": {"rt": -1, "trial_type": "single-stim", "stimulus": "<p id=\"stim\">10</p>", "internal_node_id": "0.0-60.0-0.0", "time_elapsed": 763093, "key_press": -1, "trial_index": 78}, "uniqueid": "MTK1368:3UOUJI6MTELSTG33AH2VUGVNU7BUXK", "dateTime": 1515865550678}, {"current_trial": 79, "trialdata": {"rt": -1, "trial_type": "single-stim", "stimulus": "<p id=\"stim\">9</p>", "internal_node_id": "0.0-60.0-1.0", "time_elapsed": 764097, "key_press": -1, "trial_index": 79}, "uniqueid": "MTK1368:3UOUJI6MTELSTG33AH2VUGVNU7BUXK", "dateTime": 1515865551683}, {"current_trial": 80, "trialdata": {"rt": -1, "trial_type": "single-stim", "stimulus": "<p id=\"stim\">8</p>", "internal_node_id": "0.0-60.0-2.0", "time_elapsed": 765100, "key_press": -1, "trial_index": 80}, "uniqueid": "MTK1368:3UOUJI6MTELSTG33AH2VUGVNU7BUXK", "dateTime": 1515865552685}, {"current_trial": 81, "trialdata": {"rt": -1, "trial_type": "single-stim", "stimulus": "<p id=\"stim\">7</p>", "internal_node_id": "0.0-60.0-3.0", "time_elapsed": 766102, "key_press": -1, "trial_index": 81}, "uniqueid": "MTK1368:3UOUJI6MTELSTG33AH2VUGVNU7BUXK", "dateTime": 1515865553687}, {"current_trial": 82, "trialdata": {"rt": -1, "trial_type": "single-stim", "stimulus": "<p id=\"stim\">6</p>", "internal_node_id": "0.0-60.0-4.0", "time_elapsed": 767104, "key_press": -1, "trial_index": 82}, "uniqueid": "MTK1368:3UOUJI6MTELSTG33AH2VUGVNU7BUXK", "dateTime": 1515865554690}, {"current_trial": 83, "trialdata": {"rt": -1, "trial_type": "single-stim", "stimulus": "<p id=\"stim\">5</p>", "internal_node_id": "0.0-60.0-5.0", "time_elapsed": 768108, "key_press": -1, "trial_index": 83}, "uniqueid": "MTK1368:3UOUJI6MTELSTG33AH2VUGVNU7BUXK", "dateTime": 1515865555699}, {"current_trial": 84, "trialdata": {"rt": -1, "trial_type": "single-stim", "stimulus": "<p id=\"stim\">4</p>", "internal_node_id": "0.0-60.0-6.0", "time_elapsed": 769116, "key_press": -1, "trial_index": 84}, "uniqueid": "MTK1368:3UOUJI6MTELSTG33AH2VUGVNU7BUXK", "dateTime": 1515865556701}, {"current_trial": 85, "trialdata": {"rt": -1, "trial_type": "single-stim", "stimulus": "<p id=\"stim\">3</p>", "internal_node_id": "0.0-60.0-7.0", "time_elapsed": 770119, "key_press": -1, "trial_index": 85}, "uniqueid": "MTK1368:3UOUJI6MTELSTG33AH2VUGVNU7BUXK", "dateTime": 1515865557704}, {"current_trial": 86, "trialdata": {"rt": -1, "trial_type": "single-stim", "stimulus": "<p id=\"stim\">2</p>", "internal_node_id": "0.0-60.0-8.0", "time_elapsed": 771123, "key_press": -1, "trial_index": 86}, "uniqueid": "MTK1368:3UOUJI6MTELSTG33AH2VUGVNU7BUXK", "dateTime": 1515865558709}, {"current_trial": 87, "trialdata": {"rt": -1, "trial_type": "single-stim", "stimulus": "<p id=\"stim\">1</p>", "internal_node_id": "0.0-60.0-9.0", "time_elapsed": 772127, "key_press": -1, "trial_index": 87}, "uniqueid": "MTK1368:3UOUJI6MTELSTG33AH2VUGVNU7BUXK", "dateTime": 1515865559712}, {"current_trial": 88, "trialdata": {"rt": -1, "trial_type": "single-stim", "stimulus": "<p id=\"stim\">+</p>", "internal_node_id": "0.0-61.0-0.0", "time_elapsed": 773629, "key_press": -1, "type": "FIXATION", "trial_index": 88}, "uniqueid": "MTK1368:3UOUJI6MTELSTG33AH2VUGVNU7BUXK", "dateTime": 1515865561214}, {"current_trial": 89, "trialdata": {"rt": -1, "trial_type": "single-stim", "word": "perfume", "stimulus": "<p id=\"stim\">PERFUME</p>", "conditions": [12, 1600, "v", 12000], "internal_node_id": "0.0-62.0", "trial": 2, "time_elapsed": 775231, "serialpos": 0, "key_press": -1, "wordID": 1048, "type": "PRES_VIS", "trial_index": 89}, "uniqueid": "MTK1368:3UOUJI6MTELSTG33AH2VUGVNU7BUXK", "dateTime": 1515865562817}, {"current_trial": 90, "trialdata": {"rt": -1, "trial_type": "single-stim", "word": "fragrance", "stimulus": "<p id=\"stim\">FRAGRANCE</p>", "conditions": [12, 1600, "v", 12000], "internal_node_id": "0.0-63.0", "trial": 2, "time_elapsed": 777775, "serialpos": 1, "key_press": -1, "wordID": 598, "type": "PRES_VIS", "trial_index": 90}, "uniqueid": "MTK1368:3UOUJI6MTELSTG33AH2VUGVNU7BUXK", "dateTime": 1515865565360}, {"current_trial": 91, "trialdata": {"rt": -1, "trial_type": "single-stim", "word": "blouse", "stimulus": "<p id=\"stim\">BLOUSE</p>", "conditions": [12, 1600, "v", 12000], "internal_node_id": "0.0-64.0", "trial": 2, "time_elapsed": 780570, "serialpos": 2, "key_press": -1, "wordID": 138, "type": "PRES_VIS", "trial_index": 91}, "uniqueid": "MTK1368:3UOUJI6MTELSTG33AH2VUGVNU7BUXK", "dateTime": 1515865568156}, {"current_trial": 92, "trialdata": {"rt": -1, "trial_type": "single-stim", "word": "crutch", "stimulus": "<p id=\"stim\">CRUTCH</p>", "conditions": [12, 1600, "v", 12000], "internal_node_id": "0.0-65.0", "trial": 2, "time_elapsed": 782990, "serialpos": 3, "key_press": -1, "wordID": 416, "type": "PRES_VIS", "trial_index": 92}, "uniqueid": "MTK1368:3UOUJI6MTELSTG33AH2VUGVNU7BUXK", "dateTime": 1515865570576}, {"current_trial": 93, "trialdata": {"rt": -1, "trial_type": "single-stim", "word": "seafood", "stimulus": "<p id=\"stim\">SEAFOOD</p>", "conditions": [12, 1600, "v", 12000], "internal_node_id": "0.0-66.0", "trial": 2, "time_elapsed": 785592, "serialpos": 4, "key_press": -1, "wordID": 1259, "type": "PRES_VIS", "trial_index": 93}, "uniqueid": "MTK1368:3UOUJI6MTELSTG33AH2VUGVNU7BUXK", "dateTime": 1515865573177}, {"current_trial": 94, "trialdata": {"rt": -1, "trial_type": "single-stim", "word": "tourist", "stimulus": "<p id=\"stim\">TOURIST</p>", "conditions": [12, 1600, "v", 12000], "internal_node_id": "0.0-67.0", "trial": 2, "time_elapsed": 788178, "serialpos": 5, "key_press": -1, "wordID": 1487, "type": "PRES_VIS", "trial_index": 94}, "uniqueid": "MTK1368:3UOUJI6MTELSTG33AH2VUGVNU7BUXK", "dateTime": 1515865575764}, {"current_trial": 95, "trialdata": {"rt": -1, "trial_type": "single-stim", "word": "expert", "stimulus": "<p id=\"stim\">EXPERT</p>", "conditions": [12, 1600, "v", 12000], "internal_node_id": "0.0-68.0", "trial": 2, "time_elapsed": 790730, "serialpos": 6, "key_press": -1, "wordID": 542, "type": "PRES_VIS", "trial_index": 95}, "uniqueid": "MTK1368:3UOUJI6MTELSTG33AH2VUGVNU7BUXK", "dateTime": 1515865578315}, {"current_trial": 96, "trialdata": {"rt": -1, "trial_type": "single-stim", "word": "perch", "stimulus": "<p id=\"stim\">PERCH</p>", "conditions": [12, 1600, "v", 12000], "internal_node_id": "0.0-69.0", "trial": 2, "time_elapsed": 793513, "serialpos": 7, "key_press": -1, "wordID": 1047, "type": "PRES_VIS", "trial_index": 96}, "uniqueid": "MTK1368:3UOUJI6MTELSTG33AH2VUGVNU7BUXK", "dateTime": 1515865581098}, {"current_trial": 97, "trialdata": {"rt": -1, "trial_type": "single-stim", "word": "scalpel", "stimulus": "<p id=\"stim\">SCALPEL</p>", "conditions": [12, 1600, "v", 12000], "internal_node_id": "0.0-70.0", "trial": 2, "time_elapsed": 796038, "serialpos": 8, "key_press": -1, "wordID": 1242, "type": "PRES_VIS", "trial_index": 97}, "uniqueid": "MTK1368:3UOUJI6MTELSTG33AH2VUGVNU7BUXK", "dateTime": 1515865583624}, {"current_trial": 98, "trialdata": {"rt": -1, "trial_type": "single-stim", "word": "plaster", "stimulus": "<p id=\"stim\">PLASTER</p>", "conditions": [12, 1600, "v", 12000], "internal_node_id": "0.0-71.0", "trial": 2, "time_elapsed": 798579, "serialpos": 9, "key_press": -1, "wordID": 1084, "type": "PRES_VIS", "trial_index": 98}, "uniqueid": "MTK1368:3UOUJI6MTELSTG33AH2VUGVNU7BUXK", "dateTime": 1515865586164}, {"current_trial": 99, "trialdata": {"rt": -1, "trial_type": "single-stim", "word": "skirt", "stimulus": "<p id=\"stim\">SKIRT</p>", "conditions": [12, 1600, "v", 12000], "internal_node_id": "0.0-72.0", "trial": 2, "time_elapsed": 801364, "serialpos": 10, "key_press": -1, "wordID": 1318, "type": "PRES_VIS", "trial_index": 99}, "uniqueid": "MTK1368:3UOUJI6MTELSTG33AH2VUGVNU7BUXK", "dateTime": 1515865588949}, {"current_trial": 100, "trialdata": {"rt": -1, "trial_type": "single-stim", "word": "flashlight", "stimulus": "<p id=\"stim\">FLASHLIGHT</p>", "conditions": [12, 1600, "v", 12000], "internal_node_id": "0.0-73.0", "trial": 2, "time_elapsed": 804109, "serialpos": 11, "key_press": -1, "wordID": 574, "type": "PRES_VIS", "trial_index": 100}, "uniqueid": "MTK1368:3UOUJI6MTELSTG33AH2VUGVNU7BUXK", "dateTime": 1515865591694}, {"current_trial": 101, "trialdata": {"rt": -1, "trial_type": "single-stim", "stimulus": "", "internal_node_id": "0.0-74.0-0.0", "time_elapsed": 806463, "key_press": -1, "type": "PRE_RECALL_DELAY", "trial_index": 101}, "uniqueid": "MTK1368:3UOUJI6MTELSTG33AH2VUGVNU7BUXK", "dateTime": 1515865594048}, {"current_trial": 102, "trialdata": {"rt": -1000, "trial_type": "single-audio", "stimulus": "/static/audio/400Hz.wav", "internal_node_id": "0.0-75.0", "time_elapsed": 806965, "key_press": -1, "type": "PRE_RECALL_ALERT", "trial_index": 102}, "uniqueid": "MTK1368:3UOUJI6MTELSTG33AH2VUGVNU7BUXK", "dateTime": 1515865594550}, {"current_trial": 103, "trialdata": {"rt": [2439, 5719, 7650, 9815, 12732, 16134, 40688], "recwords": ["perfume", "fragrance", "blouse", "seafood", "tourist", "crutch", "bandage"], "key_times": [435, 601, 732, 1028, 1208, 1607, 1867, 2439, 3056, 3291, 3649, 3958, 4226, 4507, 4775, 4899, 5157, 5719, 6198, 6342, 6609, 6871, 7088, 7316, 7650, 8008, 8181, 8452, 8697, 8949, 9109, 9315, 9815, 10809, 10954, 11252, 11389, 11631, 11831, 12199, 12732, 14093, 14501, 14675, 15169, 15495, 15695, 16134, 38763, 38970, 39114, 39421, 39663, 39924, 40107, 40688], "trial_type": "free-recall", "conditions": [12, 1600, "v", 12000], "internal_node_id": "0.0-76.0-0.0", "key_presses": [80, 69, 82, 70, 85, 77, 69, 13, 70, 82, 65, 71, 82, 65, 78, 67, 69, 13, 66, 76, 79, 85, 83, 69, 13, 83, 69, 65, 70, 79, 79, 68, 13, 84, 79, 85, 82, 73, 83, 84, 13, 67, 82, 85, 84, 67, 72, 13, 66, 65, 78, 68, 65, 71, 69, 13], "trial": 2, "time_elapsed": 866974, "type": "FREE_RECALL", "trial_index": 103}, "uniqueid": "MTK1368:3UOUJI6MTELSTG33AH2VUGVNU7BUXK", "dateTime": 1515865654574}, {"current_trial": 104, "trialdata": {"rt": 2753, "trial_type": "text", "internal_node_id": "0.0-77.0", "time_elapsed": 871745, "key_press": 13, "type": "INSTRUCTIONS", "trial_index": 104}, "uniqueid": "MTK1368:3UOUJI6MTELSTG33AH2VUGVNU7BUXK", "dateTime": 1515865659330}, {"current_trial": 105, "trialdata": {"rt": [3169, 5707, 9042, 11874], "trial_type": "math-distractor", "key_times": [2519, 2764, 3169, 5142, 5432, 5707, 8557, 9042, 11221, 11398, 11874], "responses": ["19", "21", "8", "18"], "num2": [7, 5, 4, 6, 7], "num3": [4, 8, 1, 9, 6], "conditions": [12, 800, "v", 12000], "internal_node_id": "0.0-78.0", "key_presses": [49, 57, 13, 50, 49, 13, 56, 13, 49, 56, 13], "trial": 3, "time_elapsed": 885752, "type": "DISTRACTOR", "trial_index": 105, "num1": [8, 8, 3, 3, 3]}, "uniqueid": "MTK1368:3UOUJI6MTELSTG33AH2VUGVNU7BUXK", "dateTime": 1515865673337}, {"current_trial": 106, "trialdata": {"rt": -1, "trial_type": "single-stim", "stimulus": "<p id=\"stim\">10</p>", "internal_node_id": "0.0-79.0-0.0", "time_elapsed": 888755, "key_press": -1, "trial_index": 106}, "uniqueid": "MTK1368:3UOUJI6MTELSTG33AH2VUGVNU7BUXK", "dateTime": 1515865676341}, {"current_trial": 107, "trialdata": {"rt": -1, "trial_type": "single-stim", "stimulus": "<p id=\"stim\">9</p>", "internal_node_id": "0.0-79.0-1.0", "time_elapsed": 889760, "key_press": -1, "trial_index": 107}, "uniqueid": "MTK1368:3UOUJI6MTELSTG33AH2VUGVNU7BUXK", "dateTime": 1515865677346}, {"current_trial": 108, "trialdata": {"rt": -1, "trial_type": "single-stim", "stimulus": "<p id=\"stim\">8</p>", "internal_node_id": "0.0-79.0-2.0", "time_elapsed": 890764, "key_press": -1, "trial_index": 108}, "uniqueid": "MTK1368:3UOUJI6MTELSTG33AH2VUGVNU7BUXK", "dateTime": 1515865678349}, {"current_trial": 109, "trialdata": {"rt": -1, "trial_type": "single-stim", "stimulus": "<p id=\"stim\">7</p>", "internal_node_id": "0.0-79.0-3.0", "time_elapsed": 891767, "key_press": -1, "trial_index": 109}, "uniqueid": "MTK1368:3UOUJI6MTELSTG33AH2VUGVNU7BUXK", "dateTime": 1515865679352}, {"current_trial": 110, "trialdata": {"rt": -1, "trial_type": "single-stim", "stimulus": "<p id=\"stim\">6</p>", "internal_node_id": "0.0-79.0-4.0", "time_elapsed": 892769, "key_press": -1, "trial_index": 110}, "uniqueid": "MTK1368:3UOUJI6MTELSTG33AH2VUGVNU7BUXK", "dateTime": 1515865680354}, {"current_trial": 111, "trialdata": {"rt": -1, "trial_type": "single-stim", "stimulus": "<p id=\"stim\">5</p>", "internal_node_id": "0.0-79.0-5.0", "time_elapsed": 893771, "key_press": -1, "trial_index": 111}, "uniqueid": "MTK1368:3UOUJI6MTELSTG33AH2VUGVNU7BUXK", "dateTime": 1515865681356}, {"current_trial": 112, "trialdata": {"rt": -1, "trial_type": "single-stim", "stimulus": "<p id=\"stim\">4</p>", "internal_node_id": "0.0-79.0-6.0", "time_elapsed": 894774, "key_press": -1, "trial_index": 112}, "uniqueid": "MTK1368:3UOUJI6MTELSTG33AH2VUGVNU7BUXK", "dateTime": 1515865682360}, {"current_trial": 113, "trialdata": {"rt": -1, "trial_type": "single-stim", "stimulus": "<p id=\"stim\">3</p>", "internal_node_id": "0.0-79.0-7.0", "time_elapsed": 895778, "key_press": -1, "trial_index": 113}, "uniqueid": "MTK1368:3UOUJI6MTELSTG33AH2VUGVNU7BUXK", "dateTime": 1515865683364}, {"current_trial": 114, "trialdata": {"rt": -1, "trial_type": "single-stim", "stimulus": "<p id=\"stim\">2</p>", "internal_node_id": "0.0-79.0-8.0", "time_elapsed": 896781, "key_press": -1, "trial_index": 114}, "uniqueid": "MTK1368:3UOUJI6MTELSTG33AH2VUGVNU7BUXK", "dateTime": 1515865684366}, {"current_trial": 115, "trialdata": {"rt": -1, "trial_type": "single-stim", "stimulus": "<p id=\"stim\">1</p>", "internal_node_id": "0.0-79.0-9.0", "time_elapsed": 897783, "key_press": -1, "trial_index": 115}, "uniqueid": "MTK1368:3UOUJI6MTELSTG33AH2VUGVNU7BUXK", "dateTime": 1515865685369}, {"current_trial": 116, "trialdata": {"rt": -1, "trial_type": "single-stim", "stimulus": "<p id=\"stim\">+</p>", "internal_node_id": "0.0-80.0-0.0", "time_elapsed": 899286, "key_press": -1, "type": "FIXATION", "trial_index": 116}, "uniqueid": "MTK1368:3UOUJI6MTELSTG33AH2VUGVNU7BUXK", "dateTime": 1515865686872}, {"current_trial": 117, "trialdata": {"rt": -1, "trial_type": "single-stim", "word": "garbage", "stimulus": "<p id=\"stim\">GARBAGE</p>", "conditions": [12, 800, "v", 12000], "internal_node_id": "0.0-81.0", "trial": 3, "time_elapsed": 900090, "serialpos": 0, "key_press": -1, "wordID": 621, "type": "PRES_VIS", "trial_index": 117}, "uniqueid": "MTK1368:3UOUJI6MTELSTG33AH2VUGVNU7BUXK", "dateTime": 1515865687676}, {"current_trial": 118, "trialdata": {"rt": -1, "trial_type": "single-stim", "word": "bacon", "stimulus": "<p id=\"stim\">BACON</p>", "conditions": [12, 800, "v", 12000], "internal_node_id": "0.0-82.0", "trial": 3, "time_elapsed": 901746, "serialpos": 1, "key_press": -1, "wordID": 66, "type": "PRES_VIS", "trial_index": 118}, "uniqueid": "MTK1368:3UOUJI6MTELSTG33AH2VUGVNU7BUXK", "dateTime": 1515865689331}, {"current_trial": 119, "trialdata": {"rt": -1, "trial_type": "single-stim", "word": "inmate", "stimulus": "<p id=\"stim\">INMATE</p>", "conditions": [12, 800, "v", 12000], "internal_node_id": "0.0-83.0", "trial": 3, "time_elapsed": 903434, "serialpos": 2, "key_press": -1, "wordID": 737, "type": "PRES_VIS", "trial_index": 119}, "uniqueid": "MTK1368:3UOUJI6MTELSTG33AH2VUGVNU7BUXK", "dateTime": 1515865691020}, {"current_trial": 120, "trialdata": {"rt": -1, "trial_type": "single-stim", "word": "gymnast", "stimulus": "<p id=\"stim\">GYMNAST</p>", "conditions": [12, 800, "v", 12000], "internal_node_id": "0.0-84.0", "trial": 3, "time_elapsed": 905280, "serialpos": 3, "key_press": -1, "wordID": 674, "type": "PRES_VIS", "trial_index": 120}, "uniqueid": "MTK1368:3UOUJI6MTELSTG33AH2VUGVNU7BUXK", "dateTime": 1515865692866}, {"current_trial": 121, "trialdata": {"rt": -1, "trial_type": "single-stim", "word": "hound", "stimulus": "<p id=\"stim\">HOUND</p>", "conditions": [12, 800, "v", 12000], "internal_node_id": "0.0-85.0", "trial": 3, "time_elapsed": 907120, "serialpos": 4, "key_press": -1, "wordID": 723, "type": "PRES_VIS", "trial_index": 121}, "uniqueid": "MTK1368:3UOUJI6MTELSTG33AH2VUGVNU7BUXK", "dateTime": 1515865694706}, {"current_trial": 122, "trialdata": {"rt": -1, "trial_type": "single-stim", "word": "necklace", "stimulus": "<p id=\"stim\">NECKLACE</p>", "conditions": [12, 800, "v", 12000], "internal_node_id": "0.0-86.0", "trial": 3, "time_elapsed": 908863, "serialpos": 5, "key_press": -1, "wordID": 939, "type": "PRES_VIS", "trial_index": 122}, "uniqueid": "MTK1368:3UOUJI6MTELSTG33AH2VUGVNU7BUXK", "dateTime": 1515865696448}, {"current_trial": 123, "trialdata": {"rt": -1, "trial_type": "single-stim", "word": "handbag", "stimulus": "<p id=\"stim\">HANDBAG</p>", "conditions": [12, 800, "v", 12000], "internal_node_id": "0.0-87.0", "trial": 3, "time_elapsed": 910862, "serialpos": 6, "key_press": -1, "wordID": 683, "type": "PRES_VIS", "trial_index": 123}, "uniqueid": "MTK1368:3UOUJI6MTELSTG33AH2VUGVNU7BUXK", "dateTime": 1515865698448}, {"current_trial": 124, "trialdata": {"rt": -1, "trial_type": "single-stim", "word": "sausage", "stimulus": "<p id=\"stim\">SAUSAGE</p>", "conditions": [12, 800, "v", 12000], "internal_node_id": "0.0-88.0", "trial": 3, "time_elapsed": 912674, "serialpos": 7, "key_press": -1, "wordID": 1237, "type": "PRES_VIS", "trial_index": 124}, "uniqueid": "MTK1368:3UOUJI6MTELSTG33AH2VUGVNU7BUXK", "dateTime": 1515865700259}, {"current_trial": 125, "trialdata": {"rt": -1, "trial_type": "single-stim", "word": "mildew", "stimulus": "<p id=\"stim\">MILDEW</p>", "conditions": [12, 800, "v", 12000], "internal_node_id": "0.0-89.0", "trial": 3, "time_elapsed": 914433, "serialpos": 8, "key_press": -1, "wordID": 892, "type": "PRES_VIS", "trial_index": 125}, "uniqueid": "MTK1368:3UOUJI6MTELSTG33AH2VUGVNU7BUXK", "dateTime": 1515865702018}, {"current_trial": 126, "trialdata": {"rt": -1, "trial_type": "single-stim", "word": "monster", "stimulus": "<p id=\"stim\">MONSTER</p>", "conditions": [12, 800, "v", 12000], "internal_node_id": "0.0-90.0", "trial": 3, "time_elapsed": 916094, "serialpos": 9, "key_press": -1, "wordID": 911, "type": "PRES_VIS", "trial_index": 126}, "uniqueid": "MTK1368:3UOUJI6MTELSTG33AH2VUGVNU7BUXK", "dateTime": 1515865703680}, {"current_trial": 127, "trialdata": {"rt": -1, "trial_type": "single-stim", "word": "table", "stimulus": "<p id=\"stim\">TABLE</p>", "conditions": [12, 800, "v", 12000], "internal_node_id": "0.0-91.0", "trial": 3, "time_elapsed": 917789, "serialpos": 10, "key_press": -1, "wordID": 1425, "type": "PRES_VIS", "trial_index": 127}, "uniqueid": "MTK1368:3UOUJI6MTELSTG33AH2VUGVNU7BUXK", "dateTime": 1515865705374}, {"current_trial": 128, "trialdata": {"rt": -1, "trial_type": "single-stim", "word": "fireplace", "stimulus": "<p id=\"stim\">FIREPLACE</p>", "conditions": [12, 800, "v", 12000], "internal_node_id": "0.0-92.0", "trial": 3, "time_elapsed": 919532, "serialpos": 11, "key_press": -1, "wordID": 569, "type": "PRES_VIS", "trial_index": 128}, "uniqueid": "MTK1368:3UOUJI6MTELSTG33AH2VUGVNU7BUXK", "dateTime": 1515865707117}, {"current_trial": 129, "trialdata": {"rt": -1, "trial_type": "single-stim", "stimulus": "", "internal_node_id": "0.0-93.0-0.0", "time_elapsed": 921798, "key_press": -1, "type": "PRE_RECALL_DELAY", "trial_index": 129}, "uniqueid": "MTK1368:3UOUJI6MTELSTG33AH2VUGVNU7BUXK", "dateTime": 1515865709383}, {"current_trial": 130, "trialdata": {"rt": -1000, "trial_type": "single-audio", "stimulus": "/static/audio/400Hz.wav", "internal_node_id": "0.0-94.0", "time_elapsed": 922300, "key_press": -1, "type": "PRE_RECALL_ALERT", "trial_index": 130}, "uniqueid": "MTK1368:3UOUJI6MTELSTG33AH2VUGVNU7BUXK", "dateTime": 1515865709885}, {"current_trial": 131, "trialdata": {"rt": [2303, 4012, 7590, 10268, 13379, 16027, 26394], "recwords": ["monster", "table", "fireplace", "suasage", "bacon", "hound", "purse"], "key_times": [499, 856, 1159, 1384, 1675, 1926, 2068, 2303, 2885, 3153, 3389, 3565, 3689, 4012, 4538, 4669, 4849, 4990, 5996, 6375, 6610, 6919, 7176, 7590, 8124, 8416, 8560, 8984, 9320, 9606, 9815, 10268, 10767, 10939, 11203, 11390, 11606, 11990, 12843, 13379, 14483, 14676, 14882, 15164, 15351, 16027, 24563, 25083, 25217, 25489, 25798, 26394], "trial_type": "free-recall", "conditions": [12, 800, "v", 12000], "internal_node_id": "0.0-95.0-0.0", "key_presses": [77, 79, 78, 83, 84, 69, 82, 13, 84, 65, 66, 76, 69, 13, 70, 73, 82, 69, 80, 76, 65, 67, 69, 13, 83, 85, 65, 83, 65, 71, 69, 13, 66, 65, 67, 79, 78, 222, 8, 13, 72, 79, 85, 78, 68, 13, 80, 85, 82, 83, 69, 13], "trial": 3, "time_elapsed": 982306, "type": "FREE_RECALL", "trial_index": 131}, "uniqueid": "MTK1368:3UOUJI6MTELSTG33AH2VUGVNU7BUXK", "dateTime": 1515865769898}, {"current_trial": 132, "trialdata": {"rt": 1468, "trial_type": "text", "internal_node_id": "0.0-96.0", "time_elapsed": 985783, "key_press": 13, "type": "INSTRUCTIONS", "trial_index": 132}, "uniqueid": "MTK1368:3UOUJI6MTELSTG33AH2VUGVNU7BUXK", "dateTime": 1515865773368}, {"current_trial": 133, "trialdata": {"rt": [3096, 6167, 7950, 10221], "trial_type": "math-distractor", "key_times": [2269, 2645, 3096, 5738, 5950, 6167, 7505, 7713, 7950, 9411, 9943, 10221], "responses": ["18", "11", "11", "13"], "num2": [7, 1, 9, 5, 1], "num3": [3, 6, 1, 3, 1], "conditions": [24, 1600, "v", 12000], "internal_node_id": "0.0-97.0", "key_presses": [49, 56, 13, 49, 49, 13, 49, 49, 13, 49, 51, 13], "trial": 4, "time_elapsed": 999789, "type": "DISTRACTOR", "trial_index": 133, "num1": [8, 4, 1, 5, 3]}, "uniqueid": "MTK1368:3UOUJI6MTELSTG33AH2VUGVNU7BUXK", "dateTime": 1515865787374}, {"current_trial": 134, "trialdata": {"rt": -1, "trial_type": "single-stim", "stimulus": "<p id=\"stim\">10</p>", "internal_node_id": "0.0-98.0-0.0", "time_elapsed": 1002793, "key_press": -1, "trial_index": 134}, "uniqueid": "MTK1368:3UOUJI6MTELSTG33AH2VUGVNU7BUXK", "dateTime": 1515865790379}, {"current_trial": 135, "trialdata": {"rt": -1, "trial_type": "single-stim", "stimulus": "<p id=\"stim\">9</p>", "internal_node_id": "0.0-98.0-1.0", "time_elapsed": 1003796, "key_press": -1, "trial_index": 135}, "uniqueid": "MTK1368:3UOUJI6MTELSTG33AH2VUGVNU7BUXK", "dateTime": 1515865791381}, {"current_trial": 136, "trialdata": {"rt": -1, "trial_type": "single-stim", "stimulus": "<p id=\"stim\">8</p>", "internal_node_id": "0.0-98.0-2.0", "time_elapsed": 1004798, "key_press": -1, "trial_index": 136}, "uniqueid": "MTK1368:3UOUJI6MTELSTG33AH2VUGVNU7BUXK", "dateTime": 1515865792383}, {"current_trial": 137, "trialdata": {"rt": -1, "trial_type": "single-stim", "stimulus": "<p id=\"stim\">7</p>", "internal_node_id": "0.0-98.0-3.0", "time_elapsed": 1005800, "key_press": -1, "trial_index": 137}, "uniqueid": "MTK1368:3UOUJI6MTELSTG33AH2VUGVNU7BUXK", "dateTime": 1515865793385}, {"current_trial": 138, "trialdata": {"rt": -1, "trial_type": "single-stim", "stimulus": "<p id=\"stim\">6</p>", "internal_node_id": "0.0-98.0-4.0", "time_elapsed": 1006802, "key_press": -1, "trial_index": 138}, "uniqueid": "MTK1368:3UOUJI6MTELSTG33AH2VUGVNU7BUXK", "dateTime": 1515865794387}, {"current_trial": 139, "trialdata": {"rt": -1, "trial_type": "single-stim", "stimulus": "<p id=\"stim\">5</p>", "internal_node_id": "0.0-98.0-5.0", "time_elapsed": 1007804, "key_press": -1, "trial_index": 139}, "uniqueid": "MTK1368:3UOUJI6MTELSTG33AH2VUGVNU7BUXK", "dateTime": 1515865795390}, {"current_trial": 140, "trialdata": {"rt": -1, "trial_type": "single-stim", "stimulus": "<p id=\"stim\">4</p>", "internal_node_id": "0.0-98.0-6.0", "time_elapsed": 1008807, "key_press": -1, "trial_index": 140}, "uniqueid": "MTK1368:3UOUJI6MTELSTG33AH2VUGVNU7BUXK", "dateTime": 1515865796392}, {"current_trial": 141, "trialdata": {"rt": -1, "trial_type": "single-stim", "stimulus": "<p id=\"stim\">3</p>", "internal_node_id": "0.0-98.0-7.0", "time_elapsed": 1009809, "key_press": -1, "trial_index": 141}, "uniqueid": "MTK1368:3UOUJI6MTELSTG33AH2VUGVNU7BUXK", "dateTime": 1515865797395}, {"current_trial": 142, "trialdata": {"rt": -1, "trial_type": "single-stim", "stimulus": "<p id=\"stim\">2</p>", "internal_node_id": "0.0-98.0-8.0", "time_elapsed": 1010811, "key_press": -1, "trial_index": 142}, "uniqueid": "MTK1368:3UOUJI6MTELSTG33AH2VUGVNU7BUXK", "dateTime": 1515865798397}, {"current_trial": 143, "trialdata": {"rt": -1, "trial_type": "single-stim", "stimulus": "<p id=\"stim\">1</p>", "internal_node_id": "0.0-98.0-9.0", "time_elapsed": 1011813, "key_press": -1, "trial_index": 143}, "uniqueid": "MTK1368:3UOUJI6MTELSTG33AH2VUGVNU7BUXK", "dateTime": 1515865799399}, {"current_trial": 144, "trialdata": {"rt": -1, "trial_type": "single-stim", "stimulus": "<p id=\"stim\">+</p>", "internal_node_id": "0.0-99.0-0.0", "time_elapsed": 1013315, "key_press": -1, "type": "FIXATION", "trial_index": 144}, "uniqueid": "MTK1368:3UOUJI6MTELSTG33AH2VUGVNU7BUXK", "dateTime": 1515865800900}, {"current_trial": 145, "trialdata": {"rt": -1, "trial_type": "single-stim", "word": "world", "stimulus": "<p id=\"stim\">WORLD</p>", "conditions": [24, 1600, "v", 12000], "internal_node_id": "0.0-100.0", "trial": 4, "time_elapsed": 1014919, "serialpos": 0, "key_press": -1, "wordID": 1621, "type": "PRES_VIS", "trial_index": 145}, "uniqueid": "MTK1368:3UOUJI6MTELSTG33AH2VUGVNU7BUXK", "dateTime": 1515865802504}, {"current_trial": 146, "trialdata": {"rt": -1, "trial_type": "single-stim", "word": "flesh", "stimulus": "<p id=\"stim\">FLESH</p>", "conditions": [24, 1600, "v", 12000], "internal_node_id": "0.0-101.0", "trial": 4, "time_elapsed": 1017335, "serialpos": 1, "key_press": -1, "wordID": 578, "type": "PRES_VIS", "trial_index": 146}, "uniqueid": "MTK1368:3UOUJI6MTELSTG33AH2VUGVNU7BUXK", "dateTime": 1515865804921}, {"current_trial": 147, "trialdata": {"rt": -1, "trial_type": "single-stim", "word": "keeper", "stimulus": "<p id=\"stim\">KEEPER</p>", "conditions": [24, 1600, "v", 12000], "internal_node_id": "0.0-102.0", "trial": 4, "time_elapsed": 1019893, "serialpos": 2, "key_press": -1, "wordID": 768, "type": "PRES_VIS", "trial_index": 147}, "uniqueid": "MTK1368:3UOUJI6MTELSTG33AH2VUGVNU7BUXK", "dateTime": 1515865807478}, {"current_trial": 148, "trialdata": {"rt": -1, "trial_type": "single-stim", "word": "drug", "stimulus": "<p id=\"stim\">DRUG</p>", "conditions": [24, 1600, "v", 12000], "internal_node_id": "0.0-103.0", "trial": 4, "time_elapsed": 1022540, "serialpos": 3, "key_press": -1, "wordID": 500, "type": "PRES_VIS", "trial_index": 148}, "uniqueid": "MTK1368:3UOUJI6MTELSTG33AH2VUGVNU7BUXK", "dateTime": 1515865810125}, {"current_trial": 149, "trialdata": {"rt": -1, "trial_type": "single-stim", "word": "flute", "stimulus": "<p id=\"stim\">FLUTE</p>", "conditions": [24, 1600, "v", 12000], "internal_node_id": "0.0-104.0", "trial": 4, "time_elapsed": 1025147, "serialpos": 4, "key_press": -1, "wordID": 584, "type": "PRES_VIS", "trial_index": 149}, "uniqueid": "MTK1368:3UOUJI6MTELSTG33AH2VUGVNU7BUXK", "dateTime": 1515865812733}, {"current_trial": 150, "trialdata": {"rt": -1, "trial_type": "single-stim", "word": "catcher", "stimulus": "<p id=\"stim\">CATCHER</p>", "conditions": [24, 1600, "v", 12000], "internal_node_id": "0.0-105.0", "trial": 4, "time_elapsed": 1027926, "serialpos": 5, "key_press": -1, "wordID": 257, "type": "PRES_VIS", "trial_index": 150}, "uniqueid": "MTK1368:3UOUJI6MTELSTG33AH2VUGVNU7BUXK", "dateTime": 1515865815511}, {"current_trial": 151, "trialdata": {"rt": -1, "trial_type": "single-stim", "word": "lettuce", "stimulus": "<p id=\"stim\">LETTUCE</p>", "conditions": [24, 1600, "v", 12000], "internal_node_id": "0.0-106.0", "trial": 4, "time_elapsed": 1030549, "serialpos": 6, "key_press": -1, "wordID": 813, "type": "PRES_VIS", "trial_index": 151}, "uniqueid": "MTK1368:3UOUJI6MTELSTG33AH2VUGVNU7BUXK", "dateTime": 1515865818135}, {"current_trial": 152, "trialdata": {"rt": -1, "trial_type": "single-stim", "word": "sunrise", "stimulus": "<p id=\"stim\">SUNRISE</p>", "conditions": [24, 1600, "v", 12000], "internal_node_id": "0.0-107.0", "trial": 4, "time_elapsed": 1033268, "serialpos": 7, "key_press": -1, "wordID": 1406, "type": "PRES_VIS", "trial_index": 152}, "uniqueid": "MTK1368:3UOUJI6MTELSTG33AH2VUGVNU7BUXK", "dateTime": 1515865820853}, {"current_trial": 153, "trialdata": {"rt": -1, "trial_type": "single-stim", "word": "sunset", "stimulus": "<p id=\"stim\">SUNSET</p>", "conditions": [24, 1600, "v", 12000], "internal_node_id": "0.0-108.0", "trial": 4, "time_elapsed": 1035796, "serialpos": 8, "key_press": -1, "wordID": 1407, "type": "PRES_VIS", "trial_index": 153}, "uniqueid": "MTK1368:3UOUJI6MTELSTG33AH2VUGVNU7BUXK", "dateTime": 1515865823381}, {"current_trial": 154, "trialdata": {"rt": -1, "trial_type": "single-stim", "word": "saddle", "stimulus": "<p id=\"stim\">SADDLE</p>", "conditions": [24, 1600, "v", 12000], "internal_node_id": "0.0-109.0", "trial": 4, "time_elapsed": 1038382, "serialpos": 9, "key_press": -1, "wordID": 1220, "type": "PRES_VIS", "trial_index": 154}, "uniqueid": "MTK1368:3UOUJI6MTELSTG33AH2VUGVNU7BUXK", "dateTime": 1515865825967}, {"current_trial": 155, "trialdata": {"rt": -1, "trial_type": "single-stim", "word": "country", "stimulus": "<p id=\"stim\">COUNTRY</p>", "conditions": [24, 1600, "v", 12000], "internal_node_id": "0.0-110.0", "trial": 4, "time_elapsed": 1040937, "serialpos": 10, "key_press": -1, "wordID": 387, "type": "PRES_VIS", "trial_index": 155}, "uniqueid": "MTK1368:3UOUJI6MTELSTG33AH2VUGVNU7BUXK", "dateTime": 1515865828522}, {"current_trial": 156, "trialdata": {"rt": -1, "trial_type": "single-stim", "word": "sculpture", "stimulus": "<p id=\"stim\">SCULPTURE</p>", "conditions": [24, 1600, "v", 12000], "internal_node_id": "0.0-111.0", "trial": 4, "time_elapsed": 1043636, "serialpos": 11, "key_press": -1, "wordID": 1257, "type": "PRES_VIS", "trial_index": 156}, "uniqueid": "MTK1368:3UOUJI6MTELSTG33AH2VUGVNU7BUXK", "dateTime": 1515865831222}, {"current_trial": 157, "trialdata": {"rt": -1, "trial_type": "single-stim", "word": "boyfriend", "stimulus": "<p id=\"stim\">BOYFRIEND</p>", "conditions": [24, 1600, "v", 12000], "internal_node_id": "0.0-112.0", "trial": 4, "time_elapsed": 1046179, "serialpos": 12, "key_press": -1, "wordID": 161, "type": "PRES_VIS", "trial_index": 157}, "uniqueid": "MTK1368:3UOUJI6MTELSTG33AH2VUGVNU7BUXK", "dateTime": 1515865833764}, {"current_trial": 158, "trialdata": {"rt": -1, "trial_type": "single-stim", "word": "brother", "stimulus": "<p id=\"stim\">BROTHER</p>", "conditions": [24, 1600, "v", 12000], "internal_node_id": "0.0-113.0", "trial": 4, "time_elapsed": 1048693, "serialpos": 13, "key_press": -1, "wordID": 178, "type": "PRES_VIS", "trial_index": 158}, "uniqueid": "MTK1368:3UOUJI6MTELSTG33AH2VUGVNU7BUXK", "dateTime": 1515865836278}, {"current_trial": 159, "trialdata": {"rt": -1, "trial_type": "single-stim", "word": "infant", "stimulus": "<p id=\"stim\">INFANT</p>", "conditions": [24, 1600, "v", 12000], "internal_node_id": "0.0-114.0", "trial": 4, "time_elapsed": 1051314, "serialpos": 14, "key_press": -1, "wordID": 736, "type": "PRES_VIS", "trial_index": 159}, "uniqueid": "MTK1368:3UOUJI6MTELSTG33AH2VUGVNU7BUXK", "dateTime": 1515865838899}, {"current_trial": 160, "trialdata": {"rt": -1, "trial_type": "single-stim", "word": "staple", "stimulus": "<p id=\"stim\">STAPLE</p>", "conditions": [24, 1600, "v", 12000], "internal_node_id": "0.0-115.0", "trial": 4, "time_elapsed": 1053995, "serialpos": 15, "key_press": -1, "wordID": 1370, "type": "PRES_VIS", "trial_index": 160}, "uniqueid": "MTK1368:3UOUJI6MTELSTG33AH2VUGVNU7BUXK", "dateTime": 1515865841580}, {"current_trial": 161, "trialdata": {"rt": -1, "trial_type": "single-stim", "word": "child", "stimulus": "<p id=\"stim\">CHILD</p>", "conditions": [24, 1600, "v", 12000], "internal_node_id": "0.0-116.0", "trial": 4, "time_elapsed": 1056680, "serialpos": 16, "key_press": -1, "wordID": 298, "type": "PRES_VIS", "trial_index": 161}, "uniqueid": "MTK1368:3UOUJI6MTELSTG33AH2VUGVNU7BUXK", "dateTime": 1515865844265}, {"current_trial": 162, "trialdata": {"rt": -1, "trial_type": "single-stim", "word": "dustpan", "stimulus": "<p id=\"stim\">DUSTPAN</p>", "conditions": [24, 1600, "v", 12000], "internal_node_id": "0.0-117.0", "trial": 4, "time_elapsed": 1059150, "serialpos": 17, "key_press": -1, "wordID": 508, "type": "PRES_VIS", "trial_index": 162}, "uniqueid": "MTK1368:3UOUJI6MTELSTG33AH2VUGVNU7BUXK", "dateTime": 1515865846735}, {"current_trial": 163, "trialdata": {"rt": -1, "trial_type": "single-stim", "word": "knife", "stimulus": "<p id=\"stim\">KNIFE</p>", "conditions": [24, 1600, "v", 12000], "internal_node_id": "0.0-118.0", "trial": 4, "time_elapsed": 1061863, "serialpos": 18, "key_press": -1, "wordID": 784, "type": "PRES_VIS", "trial_index": 163}, "uniqueid": "MTK1368:3UOUJI6MTELSTG33AH2VUGVNU7BUXK", "dateTime": 1515865849449}, {"current_trial": 164, "trialdata": {"rt": -1, "trial_type": "single-stim", "word": "witness", "stimulus": "<p id=\"stim\">WITNESS</p>", "conditions": [24, 1600, "v", 12000], "internal_node_id": "0.0-119.0", "trial": 4, "time_elapsed": 1064285, "serialpos": 19, "key_press": -1, "wordID": 1617, "type": "PRES_VIS", "trial_index": 164}, "uniqueid": "MTK1368:3UOUJI6MTELSTG33AH2VUGVNU7BUXK", "dateTime": 1515865851870}, {"current_trial": 165, "trialdata": {"rt": -1, "trial_type": "single-stim", "word": "yacht", "stimulus": "<p id=\"stim\">YACHT</p>", "conditions": [24, 1600, "v", 12000], "internal_node_id": "0.0-120.0", "trial": 4, "time_elapsed": 1066909, "serialpos": 20, "key_press": -1, "wordID": 1628, "type": "PRES_VIS", "trial_index": 165}, "uniqueid": "MTK1368:3UOUJI6MTELSTG33AH2VUGVNU7BUXK", "dateTime": 1515865854495}, {"current_trial": 166, "trialdata": {"rt": -1, "trial_type": "single-stim", "word": "globe", "stimulus": "<p id=\"stim\">GLOBE</p>", "conditions": [24, 1600, "v", 12000], "internal_node_id": "0.0-121.0", "trial": 4, "time_elapsed": 1069583, "serialpos": 21, "key_press": -1, "wordID": 640, "type": "PRES_VIS", "trial_index": 166}, "uniqueid": "MTK1368:3UOUJI6MTELSTG33AH2VUGVNU7BUXK", "dateTime": 1515865857168}, {"current_trial": 167, "trialdata": {"rt": -1, "trial_type": "single-stim", "word": "pasta", "stimulus": "<p id=\"stim\">PASTA</p>", "conditions": [24, 1600, "v", 12000], "internal_node_id": "0.0-122.0", "trial": 4, "time_elapsed": 1072280, "serialpos": 22, "key_press": -1, "wordID": 1020, "type": "PRES_VIS", "trial_index": 167}, "uniqueid": "MTK1368:3UOUJI6MTELSTG33AH2VUGVNU7BUXK", "dateTime": 1515865859865}, {"current_trial": 168, "trialdata": {"rt": -1, "trial_type": "single-stim", "word": "baby", "stimulus": "<p id=\"stim\">BABY</p>", "conditions": [24, 1600, "v", 12000], "internal_node_id": "0.0-123.0", "trial": 4, "time_elapsed": 1075011, "serialpos": 23, "key_press": -1, "wordID": 63, "type": "PRES_VIS", "trial_index": 168}, "uniqueid": "MTK1368:3UOUJI6MTELSTG33AH2VUGVNU7BUXK", "dateTime": 1515865862596}, {"current_trial": 169, "trialdata": {"rt": -1, "trial_type": "single-stim", "stimulus": "", "internal_node_id": "0.0-124.0-0.0", "time_elapsed": 1077453, "key_press": -1, "type": "PRE_RECALL_DELAY", "trial_index": 169}, "uniqueid": "MTK1368:3UOUJI6MTELSTG33AH2VUGVNU7BUXK", "dateTime": 1515865865038}, {"current_trial": 170, "trialdata": {"rt": -1000, "trial_type": "single-audio", "stimulus": "/static/audio/400Hz.wav", "internal_node_id": "0.0-125.0", "time_elapsed": 1077956, "key_press": -1, "type": "PRE_RECALL_ALERT", "trial_index": 170}, "uniqueid": "MTK1368:3UOUJI6MTELSTG33AH2VUGVNU7BUXK", "dateTime": 1515865865541}, {"current_trial": 171, "trialdata": {"rt": [3452, 5445, 9180, 10841, 13110, 16728, 20166, 24385, 31555, 40888, 48287], "recwords": ["boyfriend", "brother", "infant", "baby", "child", "flute", "keeper", "catcher", "flesh", "flute", "child"], "key_times": [883, 1114, 1429, 1641, 1890, 2099, 2318, 2468, 2671, 3452, 4028, 4315, 4527, 4759, 4870, 5031, 5145, 5445, 5984, 6384, 7094, 7855, 8085, 8307, 8453, 8691, 9180, 9786, 9979, 10084, 10355, 10841, 11366, 11671, 11851, 12057, 12434, 13110, 14266, 14434, 14837, 15083, 15346, 16728, 17237, 17451, 17810, 18165, 19188, 19575, 19712, 19824, 20166, 20768, 21016, 21362, 21853, 22102, 22237, 22427, 24385, 29602, 29779, 29973, 30222, 30405, 31555, 39830, 39949, 40243, 40410, 40610, 40888, 47202, 47362, 47635, 47867, 48044, 48287], "trial_type": "free-recall", "conditions": [24, 1600, "v", 12000], "internal_node_id": "0.0-126.0-0.0", "key_presses": [66, 79, 89, 70, 82, 73, 69, 78, 68, 13, 66, 82, 79, 84, 72, 69, 82, 13, 73, 70, 8, 78, 70, 65, 78, 84, 13, 66, 65, 66, 89, 13, 67, 72, 73, 76, 68, 13, 70, 76, 85, 84, 69, 13, 75, 69, 69, 219, 8, 80, 69, 82, 13, 67, 65, 84, 67, 72, 69, 82, 13, 70, 76, 69, 83, 72, 13, 70, 76, 85, 84, 69, 13, 67, 72, 73, 76, 68, 13], "trial": 4, "time_elapsed": 1137961, "type": "FREE_RECALL", "trial_index": 171}, "uniqueid": "MTK1368:3UOUJI6MTELSTG33AH2VUGVNU7BUXK", "dateTime": 1515865925552}, {"current_trial": 172, "trialdata": {"rt": 1424, "trial_type": "text", "internal_node_id": "0.0-127.0", "time_elapsed": 1141395, "key_press": 13, "type": "INSTRUCTIONS", "trial_index": 172}, "uniqueid": "MTK1368:3UOUJI6MTELSTG33AH2VUGVNU7BUXK", "dateTime": 1515865928980}, {"current_trial": 173, "trialdata": {"rt": [3755, 6657, 10727, 12922, 15214, 17903, 21289, 23458], "trial_type": "math-distractor", "key_times": [2488, 3431, 3755, 6075, 6335, 6657, 10161, 10298, 10727, 12574, 12922, 14802, 15035, 15214, 17325, 17584, 17903, 20081, 20653, 21289, 23010, 23227, 23458], "responses": ["15", "12", "20", "9", "11", "14", "17", "11"], "num2": [5, 7, 6, 2, 6, 5, 8, 2, 5], "num3": [4, 4, 5, 6, 2, 1, 6, 8, 9], "conditions": [24, 800, "v", 24000], "internal_node_id": "0.0-128.0", "key_presses": [49, 53, 13, 49, 50, 13, 50, 48, 13, 57, 13, 49, 49, 13, 49, 52, 13, 49, 55, 13, 49, 49, 13], "trial": 5, "time_elapsed": 1167400, "type": "DISTRACTOR", "trial_index": 173, "num1": [6, 1, 9, 1, 3, 8, 3, 1, 9]}, "uniqueid": "MTK1368:3UOUJI6MTELSTG33AH2VUGVNU7BUXK", "dateTime": 1515865954985}, {"current_trial": 174, "trialdata": {"rt": -1, "trial_type": "single-stim", "stimulus": "<p id=\"stim\">10</p>", "internal_node_id": "0.0-129.0-0.0", "time_elapsed": 1170406, "key_press": -1, "trial_index": 174}, "uniqueid": "MTK1368:3UOUJI6MTELSTG33AH2VUGVNU7BUXK", "dateTime": 1515865957991}, {"current_trial": 175, "trialdata": {"rt": -1, "trial_type": "single-stim", "stimulus": "<p id=\"stim\">9</p>", "internal_node_id": "0.0-129.0-1.0", "time_elapsed": 1171410, "key_press": -1, "trial_index": 175}, "uniqueid": "MTK1368:3UOUJI6MTELSTG33AH2VUGVNU7BUXK", "dateTime": 1515865958996}, {"current_trial": 176, "trialdata": {"rt": -1, "trial_type": "single-stim", "stimulus": "<p id=\"stim\">8</p>", "internal_node_id": "0.0-129.0-2.0", "time_elapsed": 1172415, "key_press": -1, "trial_index": 176}, "uniqueid": "MTK1368:3UOUJI6MTELSTG33AH2VUGVNU7BUXK", "dateTime": 1515865960000}, {"current_trial": 177, "trialdata": {"rt": -1, "trial_type": "single-stim", "stimulus": "<p id=\"stim\">7</p>", "internal_node_id": "0.0-129.0-3.0", "time_elapsed": 1173418, "key_press": -1, "trial_index": 177}, "uniqueid": "MTK1368:3UOUJI6MTELSTG33AH2VUGVNU7BUXK", "dateTime": 1515865961003}, {"current_trial": 178, "trialdata": {"rt": -1, "trial_type": "single-stim", "stimulus": "<p id=\"stim\">6</p>", "internal_node_id": "0.0-129.0-4.0", "time_elapsed": 1174421, "key_press": -1, "trial_index": 178}, "uniqueid": "MTK1368:3UOUJI6MTELSTG33AH2VUGVNU7BUXK", "dateTime": 1515865962007}, {"current_trial": 179, "trialdata": {"rt": -1, "trial_type": "single-stim", "stimulus": "<p id=\"stim\">5</p>", "internal_node_id": "0.0-129.0-5.0", "time_elapsed": 1175424, "key_press": -1, "trial_index": 179}, "uniqueid": "MTK1368:3UOUJI6MTELSTG33AH2VUGVNU7BUXK", "dateTime": 1515865963010}, {"current_trial": 180, "trialdata": {"rt": -1, "trial_type": "single-stim", "stimulus": "<p id=\"stim\">4</p>", "internal_node_id": "0.0-129.0-6.0", "time_elapsed": 1176426, "key_press": -1, "trial_index": 180}, "uniqueid": "MTK1368:3UOUJI6MTELSTG33AH2VUGVNU7BUXK", "dateTime": 1515865964011}, {"current_trial": 181, "trialdata": {"rt": -1, "trial_type": "single-stim", "stimulus": "<p id=\"stim\">3</p>", "internal_node_id": "0.0-129.0-7.0", "time_elapsed": 1177431, "key_press": -1, "trial_index": 181}, "uniqueid": "MTK1368:3UOUJI6MTELSTG33AH2VUGVNU7BUXK", "dateTime": 1515865965016}, {"current_trial": 182, "trialdata": {"rt": -1, "trial_type": "single-stim", "stimulus": "<p id=\"stim\">2</p>", "internal_node_id": "0.0-129.0-8.0", "time_elapsed": 1178434, "key_press": -1, "trial_index": 182}, "uniqueid": "MTK1368:3UOUJI6MTELSTG33AH2VUGVNU7BUXK", "dateTime": 1515865966019}, {"current_trial": 183, "trialdata": {"rt": -1, "trial_type": "single-stim", "stimulus": "<p id=\"stim\">1</p>", "internal_node_id": "0.0-129.0-9.0", "time_elapsed": 1179436, "key_press": -1, "trial_index": 183}, "uniqueid": "MTK1368:3UOUJI6MTELSTG33AH2VUGVNU7BUXK", "dateTime": 1515865967021}, {"current_trial": 184, "trialdata": {"rt": -1, "trial_type": "single-stim", "stimulus": "<p id=\"stim\">+</p>", "internal_node_id": "0.0-130.0-0.0", "time_elapsed": 1180937, "key_press": -1, "type": "FIXATION", "trial_index": 184}, "uniqueid": "MTK1368:3UOUJI6MTELSTG33AH2VUGVNU7BUXK", "dateTime": 1515865968523}, {"current_trial": 185, "trialdata": {"rt": -1, "trial_type": "single-stim", "word": "package", "stimulus": "<p id=\"stim\">PACKAGE</p>", "conditions": [24, 800, "v", 24000], "internal_node_id": "0.0-131.0", "trial": 5, "time_elapsed": 1181741, "serialpos": 0, "key_press": -1, "wordID": 996, "type": "PRES_VIS", "trial_index": 185}, "uniqueid": "MTK1368:3UOUJI6MTELSTG33AH2VUGVNU7BUXK", "dateTime": 1515865969332}, {"current_trial": 186, "trialdata": {"rt": -1, "trial_type": "single-stim", "word": "cupboard", "stimulus": "<p id=\"stim\">CUPBOARD</p>", "conditions": [24, 800, "v", 24000], "internal_node_id": "0.0-132.0", "trial": 5, "time_elapsed": 1183487, "serialpos": 1, "key_press": -1, "wordID": 424, "type": "PRES_VIS", "trial_index": 186}, "uniqueid": "MTK1368:3UOUJI6MTELSTG33AH2VUGVNU7BUXK", "dateTime": 1515865971072}, {"current_trial": 187, "trialdata": {"rt": -1, "trial_type": "single-stim", "word": "kitchen", "stimulus": "<p id=\"stim\">KITCHEN</p>", "conditions": [24, 800, "v", 24000], "internal_node_id": "0.0-133.0", "trial": 5, "time_elapsed": 1185451, "serialpos": 2, "key_press": -1, "wordID": 777, "type": "PRES_VIS", "trial_index": 187}, "uniqueid": "MTK1368:3UOUJI6MTELSTG33AH2VUGVNU7BUXK", "dateTime": 1515865973036}, {"current_trial": 188, "trialdata": {"rt": -1, "trial_type": "single-stim", "word": "mustard", "stimulus": "<p id=\"stim\">MUSTARD</p>", "conditions": [24, 800, "v", 24000], "internal_node_id": "0.0-134.0", "trial": 5, "time_elapsed": 1187263, "serialpos": 3, "key_press": -1, "wordID": 934, "type": "PRES_VIS", "trial_index": 188}, "uniqueid": "MTK1368:3UOUJI6MTELSTG33AH2VUGVNU7BUXK", "dateTime": 1515865974848}, {"current_trial": 189, "trialdata": {"rt": -1, "trial_type": "single-stim", "word": "silk", "stimulus": "<p id=\"stim\">SILK</p>", "conditions": [24, 800, "v", 24000], "internal_node_id": "0.0-135.0", "trial": 5, "time_elapsed": 1189228, "serialpos": 4, "key_press": -1, "wordID": 1306, "type": "PRES_VIS", "trial_index": 189}, "uniqueid": "MTK1368:3UOUJI6MTELSTG33AH2VUGVNU7BUXK", "dateTime": 1515865976813}, {"current_trial": 190, "trialdata": {"rt": -1, "trial_type": "single-stim", "word": "robber", "stimulus": "<p id=\"stim\">ROBBER</p>", "conditions": [24, 800, "v", 24000], "internal_node_id": "0.0-136.0", "trial": 5, "time_elapsed": 1190984, "serialpos": 5, "key_press": -1, "wordID": 1196, "type": "PRES_VIS", "trial_index": 190}, "uniqueid": "MTK1368:3UOUJI6MTELSTG33AH2VUGVNU7BUXK", "dateTime": 1515865978570}, {"current_trial": 191, "trialdata": {"rt": -1, "trial_type": "single-stim", "word": "jello", "stimulus": "<p id=\"stim\">JELLO</p>", "conditions": [24, 800, "v", 24000], "internal_node_id": "0.0-137.0", "trial": 5, "time_elapsed": 1192870, "serialpos": 6, "key_press": -1, "wordID": 753, "type": "PRES_VIS", "trial_index": 191}, "uniqueid": "MTK1368:3UOUJI6MTELSTG33AH2VUGVNU7BUXK", "dateTime": 1515865980455}, {"current_trial": 192, "trialdata": {"rt": -1, "trial_type": "single-stim", "word": "bike", "stimulus": "<p id=\"stim\">BIKE</p>", "conditions": [24, 800, "v", 24000], "internal_node_id": "0.0-138.0", "trial": 5, "time_elapsed": 1194748, "serialpos": 7, "key_press": -1, "wordID": 124, "type": "PRES_VIS", "trial_index": 192}, "uniqueid": "MTK1368:3UOUJI6MTELSTG33AH2VUGVNU7BUXK", "dateTime": 1515865982333}, {"current_trial": 193, "trialdata": {"rt": -1, "trial_type": "single-stim", "word": "subway", "stimulus": "<p id=\"stim\">SUBWAY</p>", "conditions": [24, 800, "v", 24000], "internal_node_id": "0.0-139.0", "trial": 5, "time_elapsed": 1196398, "serialpos": 8, "key_press": -1, "wordID": 1399, "type": "PRES_VIS", "trial_index": 193}, "uniqueid": "MTK1368:3UOUJI6MTELSTG33AH2VUGVNU7BUXK", "dateTime": 1515865983984}, {"current_trial": 194, "trialdata": {"rt": -1, "trial_type": "single-stim", "word": "police", "stimulus": "<p id=\"stim\">POLICE</p>", "conditions": [24, 800, "v", 24000], "internal_node_id": "0.0-140.0", "trial": 5, "time_elapsed": 1198346, "serialpos": 9, "key_press": -1, "wordID": 1097, "type": "PRES_VIS", "trial_index": 194}, "uniqueid": "MTK1368:3UOUJI6MTELSTG33AH2VUGVNU7BUXK", "dateTime": 1515865985931}, {"current_trial": 195, "trialdata": {"rt": -1, "trial_type": "single-stim", "word": "toaster", "stimulus": "<p id=\"stim\">TOASTER</p>", "conditions": [24, 800, "v", 24000], "internal_node_id": "0.0-141.0", "trial": 5, "time_elapsed": 1200011, "serialpos": 10, "key_press": -1, "wordID": 1471, "type": "PRES_VIS", "trial_index": 195}, "uniqueid": "MTK1368:3UOUJI6MTELSTG33AH2VUGVNU7BUXK", "dateTime": 1515865987596}, {"current_trial": 196, "trialdata": {"rt": -1, "trial_type": "single-stim", "word": "cashier", "stimulus": "<p id=\"stim\">CASHIER</p>", "conditions": [24, 800, "v", 24000], "internal_node_id": "0.0-142.0", "trial": 5, "time_elapsed": 1201879, "serialpos": 11, "key_press": -1, "wordID": 253, "type": "PRES_VIS", "trial_index": 196}, "uniqueid": "MTK1368:3UOUJI6MTELSTG33AH2VUGVNU7BUXK", "dateTime": 1515865989464}, {"current_trial": 197, "trialdata": {"rt": -1, "trial_type": "single-stim", "word": "hiker", "stimulus": "<p id=\"stim\">HIKER</p>", "conditions": [24, 800, "v", 24000], "internal_node_id": "0.0-143.0", "trial": 5, "time_elapsed": 1203483, "serialpos": 12, "key_press": -1, "wordID": 707, "type": "PRES_VIS", "trial_index": 197}, "uniqueid": "MTK1368:3UOUJI6MTELSTG33AH2VUGVNU7BUXK", "dateTime": 1515865991068}, {"current_trial": 198, "trialdata": {"rt": -1, "trial_type": "single-stim", "word": "parrot", "stimulus": "<p id=\"stim\">PARROT</p>", "conditions": [24, 800, "v", 24000], "internal_node_id": "0.0-144.0", "trial": 5, "time_elapsed": 1205094, "serialpos": 13, "key_press": -1, "wordID": 1014, "type": "PRES_VIS", "trial_index": 198}, "uniqueid": "MTK1368:3UOUJI6MTELSTG33AH2VUGVNU7BUXK", "dateTime": 1515865992679}, {"current_trial": 199, "trialdata": {"rt": -1, "trial_type": "single-stim", "word": "radish", "stimulus": "<p id=\"stim\">RADISH</p>", "conditions": [24, 800, "v", 24000], "internal_node_id": "0.0-145.0", "trial": 5, "time_elapsed": 1206968, "serialpos": 14, "key_press": -1, "wordID": 1157, "type": "PRES_VIS", "trial_index": 199}, "uniqueid": "MTK1368:3UOUJI6MTELSTG33AH2VUGVNU7BUXK", "dateTime": 1515865994554}, {"current_trial": 200, "trialdata": {"rt": -1, "trial_type": "single-stim", "word": "cabbage", "stimulus": "<p id=\"stim\">CABBAGE</p>", "conditions": [24, 800, "v", 24000], "internal_node_id": "0.0-146.0", "trial": 5, "time_elapsed": 1208895, "serialpos": 15, "key_press": -1, "wordID": 209, "type": "PRES_VIS", "trial_index": 200}, "uniqueid": "MTK1368:3UOUJI6MTELSTG33AH2VUGVNU7BUXK", "dateTime": 1515865996480}, {"current_trial": 201, "trialdata": {"rt": -1, "trial_type": "single-stim", "word": "pimple", "stimulus": "<p id=\"stim\">PIMPLE</p>", "conditions": [24, 800, "v", 24000], "internal_node_id": "0.0-147.0", "trial": 5, "time_elapsed": 1210809, "serialpos": 16, "key_press": -1, "wordID": 1070, "type": "PRES_VIS", "trial_index": 201}, "uniqueid": "MTK1368:3UOUJI6MTELSTG33AH2VUGVNU7BUXK", "dateTime": 1515865998394}, {"current_trial": 202, "trialdata": {"rt": -1, "trial_type": "single-stim", "word": "cook", "stimulus": "<p id=\"stim\">COOK</p>", "conditions": [24, 800, "v", 24000], "internal_node_id": "0.0-148.0", "trial": 5, "time_elapsed": 1212741, "serialpos": 17, "key_press": -1, "wordID": 371, "type": "PRES_VIS", "trial_index": 202}, "uniqueid": "MTK1368:3UOUJI6MTELSTG33AH2VUGVNU7BUXK", "dateTime": 1515866000327}, {"current_trial": 203, "trialdata": {"rt": -1, "trial_type": "single-stim", "word": "atom", "stimulus": "<p id=\"stim\">ATOM</p>", "conditions": [24, 800, "v", 24000], "internal_node_id": "0.0-149.0", "trial": 5, "time_elapsed": 1214515, "serialpos": 18, "key_press": -1, "wordID": 54, "type": "PRES_VIS", "trial_index": 203}, "uniqueid": "MTK1368:3UOUJI6MTELSTG33AH2VUGVNU7BUXK", "dateTime": 1515866002101}, {"current_trial": 204, "trialdata": {"rt": -1, "trial_type": "single-stim", "word": "iceberg", "stimulus": "<p id=\"stim\">ICEBERG</p>", "conditions": [24, 800, "v", 24000], "internal_node_id": "0.0-150.0", "trial": 5, "time_elapsed": 1216196, "serialpos": 19, "key_press": -1, "wordID": 730, "type": "PRES_VIS", "trial_index": 204}, "uniqueid": "MTK1368:3UOUJI6MTELSTG33AH2VUGVNU7BUXK", "dateTime": 1515866003784}, {"current_trial": 205, "trialdata": {"rt": -1, "trial_type": "single-stim", "word": "climber", "stimulus": "<p id=\"stim\">CLIMBER</p>", "conditions": [24, 800, "v", 24000], "internal_node_id": "0.0-151.0", "trial": 5, "time_elapsed": 1217978, "serialpos": 20, "key_press": -1, "wordID": 322, "type": "PRES_VIS", "trial_index": 205}, "uniqueid": "MTK1368:3UOUJI6MTELSTG33AH2VUGVNU7BUXK", "dateTime": 1515866005564}, {"current_trial": 206, "trialdata": {"rt": -1, "trial_type": "single-stim", "word": "dorm", "stimulus": "<p id=\"stim\">DORM</p>", "conditions": [24, 800, "v", 24000], "internal_node_id": "0.0-152.0", "trial": 5, "time_elapsed": 1219866, "serialpos": 21, "key_press": -1, "wordID": 487, "type": "PRES_VIS", "trial_index": 206}, "uniqueid": "MTK1368:3UOUJI6MTELSTG33AH2VUGVNU7BUXK", "dateTime": 1515866007452}, {"current_trial": 207, "trialdata": {"rt": -1, "trial_type": "single-stim", "word": "shelter", "stimulus": "<p id=\"stim\">SHELTER</p>", "conditions": [24, 800, "v", 24000], "internal_node_id": "0.0-153.0", "trial": 5, "time_elapsed": 1221774, "serialpos": 22, "key_press": -1, "wordID": 1281, "type": "PRES_VIS", "trial_index": 207}, "uniqueid": "MTK1368:3UOUJI6MTELSTG33AH2VUGVNU7BUXK", "dateTime": 1515866009360}, {"current_trial": 208, "trialdata": {"rt": -1, "trial_type": "single-stim", "word": "picture", "stimulus": "<p id=\"stim\">PICTURE</p>", "conditions": [24, 800, "v", 24000], "internal_node_id": "0.0-154.0", "trial": 5, "time_elapsed": 1223677, "serialpos": 23, "key_press": -1, "wordID": 1060, "type": "PRES_VIS", "trial_index": 208}, "uniqueid": "MTK1368:3UOUJI6MTELSTG33AH2VUGVNU7BUXK", "dateTime": 1515866011262}, {"current_trial": 209, "trialdata": {"rt": -1, "trial_type": "single-stim", "stimulus": "", "internal_node_id": "0.0-155.0-0.0", "time_elapsed": 1226128, "key_press": -1, "type": "PRE_RECALL_DELAY", "trial_index": 209}, "uniqueid": "MTK1368:3UOUJI6MTELSTG33AH2VUGVNU7BUXK", "dateTime": 1515866013714}, {"current_trial": 210, "trialdata": {"rt": -1000, "trial_type": "single-audio", "stimulus": "/static/audio/400Hz.wav", "internal_node_id": "0.0-156.0", "time_elapsed": 1226631, "key_press": -1, "type": "PRE_RECALL_ALERT", "trial_index": 210}, "uniqueid": "MTK1368:3UOUJI6MTELSTG33AH2VUGVNU7BUXK", "dateTime": 1515866014216}, {"current_trial": 211, "trialdata": {"rt": [3032, 5239, 8032, 10546, 14030, 18397, 25825, 35572, 43048, 54409], "recwords": ["cupboard", "kitchen", "mustard", "lettuce", "iceberg", "police", "kitchen", "police", "criminal", "cook"], "key_times": [680, 867, 1089, 1441, 1591, 1767, 2120, 2511, 3032, 3571, 3853, 4022, 4351, 4543, 4706, 4863, 5239, 5914, 6210, 6387, 6685, 6979, 7289, 7585, 8032, 8533, 8654, 9072, 9266, 9436, 9814, 10091, 10546, 11180, 11350, 11624, 12228, 12583, 13123, 13540, 14030, 14720, 15007, 15219, 15454, 15689, 15984, 18397, 19427, 19679, 20508, 21247, 23503, 23855, 24009, 24341, 24540, 24700, 25178, 25825, 32018, 32369, 32658, 32940, 33143, 33447, 35572, 40806, 41317, 41454, 41747, 41943, 42184, 42379, 42546, 43048, 53457, 53632, 53814, 54001, 54409], "trial_type": "free-recall", "conditions": [24, 800, "v", 24000], "internal_node_id": "0.0-157.0-0.0", "key_presses": [67, 85, 80, 66, 79, 65, 82, 68, 13, 75, 73, 84, 67, 72, 69, 78, 13, 77, 85, 83, 84, 65, 82, 68, 13, 76, 69, 84, 84, 85, 67, 69, 13, 73, 67, 69, 66, 69, 82, 71, 13, 80, 79, 76, 73, 67, 69, 13, 76, 69, 8, 8, 75, 73, 84, 67, 72, 69, 78, 13, 80, 79, 76, 73, 67, 69, 13, 67, 82, 73, 77, 73, 78, 65, 76, 13, 67, 79, 79, 75, 13], "trial": 5, "time_elapsed": 1286637, "type": "FREE_RECALL", "trial_index": 211}, "uniqueid": "MTK1368:3UOUJI6MTELSTG33AH2VUGVNU7BUXK", "dateTime": 1515866074230}, {"current_trial": 212, "trialdata": {"rt": 1509, "trial_type": "text", "internal_node_id": "0.0-158.0", "time_elapsed": 1290157, "key_press": 13, "type": "INSTRUCTIONS", "trial_index": 212}, "uniqueid": "MTK1368:3UOUJI6MTELSTG33AH2VUGVNU7BUXK", "dateTime": 1515866077743}, {"current_trial": 213, "trialdata": {"rt": [2571, 4637, 7401, 11796, 15005, 18643, 22265], "trial_type": "math-distractor", "key_times": [1576, 2108, 2571, 4076, 4374, 4637, 6975, 7201, 7401, 10644, 11315, 11796, 14377, 14730, 15005, 17739, 18256, 18643, 21531, 21885, 22265], "responses": ["15", "12", "12", "26", "24", "15", "18"], "num2": [5, 1, 4, 9, 9, 7, 5, 2], "num3": [5, 9, 7, 8, 9, 2, 4, 1], "conditions": [12, 800, "v", 24000], "internal_node_id": "0.0-159.0", "key_presses": [49, 53, 13, 49, 50, 13, 49, 50, 13, 50, 54, 13, 50, 52, 13, 49, 53, 13, 49, 56, 13], "trial": 6, "time_elapsed": 1316167, "type": "DISTRACTOR", "trial_index": 213, "num1": [5, 2, 1, 9, 6, 6, 9, 7]}, "uniqueid": "MTK1368:3UOUJI6MTELSTG33AH2VUGVNU7BUXK", "dateTime": 1515866103753}, {"current_trial": 214, "trialdata": {"rt": -1, "trial_type": "single-stim", "stimulus": "<p id=\"stim\">10</p>", "internal_node_id": "0.0-160.0-0.0", "time_elapsed": 1319173, "key_press": -1, "trial_index": 214}, "uniqueid": "MTK1368:3UOUJI6MTELSTG33AH2VUGVNU7BUXK", "dateTime": 1515866106766}, {"current_trial": 215, "trialdata": {"rt": -1, "trial_type": "single-stim", "stimulus": "<p id=\"stim\">9</p>", "internal_node_id": "0.0-160.0-1.0", "time_elapsed": 1320184, "key_press": -1, "trial_index": 215}, "uniqueid": "MTK1368:3UOUJI6MTELSTG33AH2VUGVNU7BUXK", "dateTime": 1515866107770}, {"current_trial": 216, "trialdata": {"rt": -1, "trial_type": "single-stim", "stimulus": "<p id=\"stim\">8</p>", "internal_node_id": "0.0-160.0-2.0", "time_elapsed": 1321187, "key_press": -1, "trial_index": 216}, "uniqueid": "MTK1368:3UOUJI6MTELSTG33AH2VUGVNU7BUXK", "dateTime": 1515866108772}, {"current_trial": 217, "trialdata": {"rt": -1, "trial_type": "single-stim", "stimulus": "<p id=\"stim\">7</p>", "internal_node_id": "0.0-160.0-3.0", "time_elapsed": 1322190, "key_press": -1, "trial_index": 217}, "uniqueid": "MTK1368:3UOUJI6MTELSTG33AH2VUGVNU7BUXK", "dateTime": 1515866109776}, {"current_trial": 218, "trialdata": {"rt": -1, "trial_type": "single-stim", "stimulus": "<p id=\"stim\">6</p>", "internal_node_id": "0.0-160.0-4.0", "time_elapsed": 1323194, "key_press": -1, "trial_index": 218}, "uniqueid": "MTK1368:3UOUJI6MTELSTG33AH2VUGVNU7BUXK", "dateTime": 1515866110779}, {"current_trial": 219, "trialdata": {"rt": -1, "trial_type": "single-stim", "stimulus": "<p id=\"stim\">5</p>", "internal_node_id": "0.0-160.0-5.0", "time_elapsed": 1324196, "key_press": -1, "trial_index": 219}, "uniqueid": "MTK1368:3UOUJI6MTELSTG33AH2VUGVNU7BUXK", "dateTime": 1515866111781}, {"current_trial": 220, "trialdata": {"rt": -1, "trial_type": "single-stim", "stimulus": "<p id=\"stim\">4</p>", "internal_node_id": "0.0-160.0-6.0", "time_elapsed": 1325198, "key_press": -1, "trial_index": 220}, "uniqueid": "MTK1368:3UOUJI6MTELSTG33AH2VUGVNU7BUXK", "dateTime": 1515866112783}, {"current_trial": 221, "trialdata": {"rt": -1, "trial_type": "single-stim", "stimulus": "<p id=\"stim\">3</p>", "internal_node_id": "0.0-160.0-7.0", "time_elapsed": 1326201, "key_press": -1, "trial_index": 221}, "uniqueid": "MTK1368:3UOUJI6MTELSTG33AH2VUGVNU7BUXK", "dateTime": 1515866113786}, {"current_trial": 222, "trialdata": {"rt": -1, "trial_type": "single-stim", "stimulus": "<p id=\"stim\">2</p>", "internal_node_id": "0.0-160.0-8.0", "time_elapsed": 1327204, "key_press": -1, "trial_index": 222}, "uniqueid": "MTK1368:3UOUJI6MTELSTG33AH2VUGVNU7BUXK", "dateTime": 1515866114789}, {"current_trial": 223, "trialdata": {"rt": -1, "trial_type": "single-stim", "stimulus": "<p id=\"stim\">1</p>", "internal_node_id": "0.0-160.0-9.0", "time_elapsed": 1328206, "key_press": -1, "trial_index": 223}, "uniqueid": "MTK1368:3UOUJI6MTELSTG33AH2VUGVNU7BUXK", "dateTime": 1515866115792}, {"current_trial": 224, "trialdata": {"rt": -1, "trial_type": "single-stim", "stimulus": "<p id=\"stim\">+</p>", "internal_node_id": "0.0-161.0-0.0", "time_elapsed": 1329709, "key_press": -1, "type": "FIXATION", "trial_index": 224}, "uniqueid": "MTK1368:3UOUJI6MTELSTG33AH2VUGVNU7BUXK", "dateTime": 1515866117294}, {"current_trial": 225, "trialdata": {"rt": -1, "trial_type": "single-stim", "word": "valley", "stimulus": "<p id=\"stim\">VALLEY</p>", "conditions": [12, 800, "v", 24000], "internal_node_id": "0.0-162.0", "trial": 6, "time_elapsed": 1330511, "serialpos": 0, "key_press": -1, "wordID": 1544, "type": "PRES_VIS", "trial_index": 225}, "uniqueid": "MTK1368:3UOUJI6MTELSTG33AH2VUGVNU7BUXK", "dateTime": 1515866118096}, {"current_trial": 226, "trialdata": {"rt": -1, "trial_type": "single-stim", "word": "forehead", "stimulus": "<p id=\"stim\">FOREHEAD</p>", "conditions": [12, 800, "v", 24000], "internal_node_id": "0.0-163.0", "trial": 6, "time_elapsed": 1332477, "serialpos": 1, "key_press": -1, "wordID": 591, "type": "PRES_VIS", "trial_index": 226}, "uniqueid": "MTK1368:3UOUJI6MTELSTG33AH2VUGVNU7BUXK", "dateTime": 1515866120062}, {"current_trial": 227, "trialdata": {"rt": -1, "trial_type": "single-stim", "word": "friend", "stimulus": "<p id=\"stim\">FRIEND</p>", "conditions": [12, 800, "v", 24000], "internal_node_id": "0.0-164.0", "trial": 6, "time_elapsed": 1334382, "serialpos": 2, "key_press": -1, "wordID": 605, "type": "PRES_VIS", "trial_index": 227}, "uniqueid": "MTK1368:3UOUJI6MTELSTG33AH2VUGVNU7BUXK", "dateTime": 1515866121967}, {"current_trial": 228, "trialdata": {"rt": -1, "trial_type": "single-stim", "word": "grape", "stimulus": "<p id=\"stim\">GRAPE</p>", "conditions": [12, 800, "v", 24000], "internal_node_id": "0.0-165.0", "trial": 6, "time_elapsed": 1336013, "serialpos": 3, "key_press": -1, "wordID": 653, "type": "PRES_VIS", "trial_index": 228}, "uniqueid": "MTK1368:3UOUJI6MTELSTG33AH2VUGVNU7BUXK", "dateTime": 1515866123599}, {"current_trial": 229, "trialdata": {"rt": -1, "trial_type": "single-stim", "word": "wrist", "stimulus": "<p id=\"stim\">WRIST</p>", "conditions": [12, 800, "v", 24000], "internal_node_id": "0.0-166.0", "trial": 6, "time_elapsed": 1337784, "serialpos": 4, "key_press": -1, "wordID": 1625, "type": "PRES_VIS", "trial_index": 229}, "uniqueid": "MTK1368:3UOUJI6MTELSTG33AH2VUGVNU7BUXK", "dateTime": 1515866125369}, {"current_trial": 230, "trialdata": {"rt": -1, "trial_type": "single-stim", "word": "jungle", "stimulus": "<p id=\"stim\">JUNGLE</p>", "conditions": [12, 800, "v", 24000], "internal_node_id": "0.0-167.0", "trial": 6, "time_elapsed": 1339498, "serialpos": 5, "key_press": -1, "wordID": 763, "type": "PRES_VIS", "trial_index": 230}, "uniqueid": "MTK1368:3UOUJI6MTELSTG33AH2VUGVNU7BUXK", "dateTime": 1515866127083}, {"current_trial": 231, "trialdata": {"rt": -1, "trial_type": "single-stim", "word": "ketchup", "stimulus": "<p id=\"stim\">KETCHUP</p>", "conditions": [12, 800, "v", 24000], "internal_node_id": "0.0-168.0", "trial": 6, "time_elapsed": 1341460, "serialpos": 6, "key_press": -1, "wordID": 770, "type": "PRES_VIS", "trial_index": 231}, "uniqueid": "MTK1368:3UOUJI6MTELSTG33AH2VUGVNU7BUXK", "dateTime": 1515866129045}, {"current_trial": 232, "trialdata": {"rt": -1, "trial_type": "single-stim", "word": "barley", "stimulus": "<p id=\"stim\">BARLEY</p>", "conditions": [12, 800, "v", 24000], "internal_node_id": "0.0-169.0", "trial": 6, "time_elapsed": 1343325, "serialpos": 7, "key_press": -1, "wordID": 87, "type": "PRES_VIS", "trial_index": 232}, "uniqueid": "MTK1368:3UOUJI6MTELSTG33AH2VUGVNU7BUXK", "dateTime": 1515866130910}, {"current_trial": 233, "trialdata": {"rt": -1, "trial_type": "single-stim", "word": "piano", "stimulus": "<p id=\"stim\">PIANO</p>", "conditions": [12, 800, "v", 24000], "internal_node_id": "0.0-170.0", "trial": 6, "time_elapsed": 1345021, "serialpos": 8, "key_press": -1, "wordID": 1056, "type": "PRES_VIS", "trial_index": 233}, "uniqueid": "MTK1368:3UOUJI6MTELSTG33AH2VUGVNU7BUXK", "dateTime": 1515866132606}, {"current_trial": 234, "trialdata": {"rt": -1, "trial_type": "single-stim", "word": "guitar", "stimulus": "<p id=\"stim\">GUITAR</p>", "conditions": [12, 800, "v", 24000], "internal_node_id": "0.0-171.0", "trial": 6, "time_elapsed": 1346864, "serialpos": 9, "key_press": -1, "wordID": 669, "type": "PRES_VIS", "trial_index": 234}, "uniqueid": "MTK1368:3UOUJI6MTELSTG33AH2VUGVNU7BUXK", "dateTime": 1515866134450}, {"current_trial": 235, "trialdata": {"rt": -1, "trial_type": "single-stim", "word": "thread", "stimulus": "<p id=\"stim\">THREAD</p>", "conditions": [12, 800, "v", 24000], "internal_node_id": "0.0-172.0", "trial": 6, "time_elapsed": 1348822, "serialpos": 10, "key_press": -1, "wordID": 1459, "type": "PRES_VIS", "trial_index": 235}, "uniqueid": "MTK1368:3UOUJI6MTELSTG33AH2VUGVNU7BUXK", "dateTime": 1515866136408}, {"current_trial": 236, "trialdata": {"rt": -1, "trial_type": "single-stim", "word": "popcorn", "stimulus": "<p id=\"stim\">POPCORN</p>", "conditions": [12, 800, "v", 24000], "internal_node_id": "0.0-173.0", "trial": 6, "time_elapsed": 1350516, "serialpos": 11, "key_press": -1, "wordID": 1103, "type": "PRES_VIS", "trial_index": 236}, "uniqueid": "MTK1368:3UOUJI6MTELSTG33AH2VUGVNU7BUXK", "dateTime": 1515866138104}, {"current_trial": 237, "trialdata": {"rt": -1, "trial_type": "single-stim", "stimulus": "", "internal_node_id": "0.0-174.0-0.0", "time_elapsed": 1352785, "key_press": -1, "type": "PRE_RECALL_DELAY", "trial_index": 237}, "uniqueid": "MTK1368:3UOUJI6MTELSTG33AH2VUGVNU7BUXK", "dateTime": 1515866140370}, {"current_trial": 238, "trialdata": {"rt": -1000, "trial_type": "single-audio", "stimulus": "/static/audio/400Hz.wav", "internal_node_id": "0.0-175.0", "time_elapsed": 1353287, "key_press": -1, "type": "PRE_RECALL_ALERT", "trial_index": 238}, "uniqueid": "MTK1368:3UOUJI6MTELSTG33AH2VUGVNU7BUXK", "dateTime": 1515866140872}, {"current_trial": 239, "trialdata": {"rt": [2533, 4545, 10069, 11873, 14986, 17009, 43387], "recwords": ["popcorn", "barley", "ketchup", "grape", "valley", "jungle", "forehead"], "key_times": [538, 875, 1104, 1498, 1674, 1889, 2157, 2533, 3053, 3231, 3534, 3750, 3927, 4113, 4545, 5025, 5211, 6115, 6719, 7904, 8220, 9549, 10069, 10413, 10668, 11062, 11254, 11402, 11873, 13308, 13504, 13818, 13987, 14170, 14344, 14986, 15473, 15705, 15963, 16149, 16450, 16611, 17009, 39842, 40083, 40255, 40972, 41183, 41422, 41949, 42325, 42674, 42997, 43387, 58870, 59053, 59405, 59661], "trial_type": "free-recall", "conditions": [12, 800, "v", 24000], "internal_node_id": "0.0-176.0-0.0", "key_presses": [80, 79, 80, 67, 79, 82, 78, 13, 66, 65, 82, 76, 69, 89, 13, 75, 69, 84, 67, 72, 85, 80, 13, 71, 82, 65, 80, 69, 13, 86, 65, 76, 76, 69, 89, 13, 74, 85, 78, 71, 76, 69, 13, 70, 79, 82, 69, 72, 65, 8, 69, 65, 68, 13, 83, 75, 73, 78], "trial": 6, "time_elapsed": 1413294, "type": "FREE_RECALL", "trial_index": 239}, "uniqueid": "MTK1368:3UOUJI6MTELSTG33AH2VUGVNU7BUXK", "dateTime": 1515866200893}, {"current_trial": 240, "trialdata": {"rt": 956, "trial_type": "text", "internal_node_id": "0.0-177.0", "time_elapsed": 1416266, "key_press": 13, "type": "INSTRUCTIONS", "trial_index": 240}, "uniqueid": "MTK1368:3UOUJI6MTELSTG33AH2VUGVNU7BUXK", "dateTime": 1515866203851}, {"current_trial": 241, "trialdata": {"rt": [2704, 5550, 8179, 10247], "trial_type": "math-distractor", "key_times": [1980, 2386, 2704, 4285, 5138, 5550, 7744, 7975, 8179, 9836, 10048, 10247], "responses": ["13", "15", "11", "21"], "num2": [1, 5, 5, 9, 7], "num3": [4, 2, 5, 3, 6], "conditions": [24, 800, "v", 12000], "internal_node_id": "0.0-178.0", "key_presses": [49, 51, 13, 49, 53, 13, 49, 49, 13, 50, 49, 13], "trial": 7, "time_elapsed": 1430274, "type": "DISTRACTOR", "trial_index": 241, "num1": [8, 8, 1, 9, 5]}, "uniqueid": "MTK1368:3UOUJI6MTELSTG33AH2VUGVNU7BUXK", "dateTime": 1515866217865}, {"current_trial": 242, "trialdata": {"rt": -1, "trial_type": "single-stim", "stimulus": "<p id=\"stim\">10</p>", "internal_node_id": "0.0-179.0-0.0", "time_elapsed": 1433284, "key_press": -1, "trial_index": 242}, "uniqueid": "MTK1368:3UOUJI6MTELSTG33AH2VUGVNU7BUXK", "dateTime": 1515866220869}, {"current_trial": 243, "trialdata": {"rt": -1, "trial_type": "single-stim", "stimulus": "<p id=\"stim\">9</p>", "internal_node_id": "0.0-179.0-1.0", "time_elapsed": 1434287, "key_press": -1, "trial_index": 243}, "uniqueid": "MTK1368:3UOUJI6MTELSTG33AH2VUGVNU7BUXK", "dateTime": 1515866221873}, {"current_trial": 244, "trialdata": {"rt": -1, "trial_type": "single-stim", "stimulus": "<p id=\"stim\">8</p>", "internal_node_id": "0.0-179.0-2.0", "time_elapsed": 1435290, "key_press": -1, "trial_index": 244}, "uniqueid": "MTK1368:3UOUJI6MTELSTG33AH2VUGVNU7BUXK", "dateTime": 1515866222876}, {"current_trial": 245, "trialdata": {"rt": -1, "trial_type": "single-stim", "stimulus": "<p id=\"stim\">7</p>", "internal_node_id": "0.0-179.0-3.0", "time_elapsed": 1436293, "key_press": -1, "trial_index": 245}, "uniqueid": "MTK1368:3UOUJI6MTELSTG33AH2VUGVNU7BUXK", "dateTime": 1515866223879}, {"current_trial": 246, "trialdata": {"rt": -1, "trial_type": "single-stim", "stimulus": "<p id=\"stim\">6</p>", "internal_node_id": "0.0-179.0-4.0", "time_elapsed": 1437296, "key_press": -1, "trial_index": 246}, "uniqueid": "MTK1368:3UOUJI6MTELSTG33AH2VUGVNU7BUXK", "dateTime": 1515866224881}, {"current_trial": 247, "trialdata": {"rt": -1, "trial_type": "single-stim", "stimulus": "<p id=\"stim\">5</p>", "internal_node_id": "0.0-179.0-5.0", "time_elapsed": 1438300, "key_press": -1, "trial_index": 247}, "uniqueid": "MTK1368:3UOUJI6MTELSTG33AH2VUGVNU7BUXK", "dateTime": 1515866225885}, {"current_trial": 248, "trialdata": {"rt": -1, "trial_type": "single-stim", "stimulus": "<p id=\"stim\">4</p>", "internal_node_id": "0.0-179.0-6.0", "time_elapsed": 1439302, "key_press": -1, "trial_index": 248}, "uniqueid": "MTK1368:3UOUJI6MTELSTG33AH2VUGVNU7BUXK", "dateTime": 1515866226887}, {"current_trial": 249, "trialdata": {"rt": -1, "trial_type": "single-stim", "stimulus": "<p id=\"stim\">3</p>", "internal_node_id": "0.0-179.0-7.0", "time_elapsed": 1440304, "key_press": -1, "trial_index": 249}, "uniqueid": "MTK1368:3UOUJI6MTELSTG33AH2VUGVNU7BUXK", "dateTime": 1515866227889}, {"current_trial": 250, "trialdata": {"rt": -1, "trial_type": "single-stim", "stimulus": "<p id=\"stim\">2</p>", "internal_node_id": "0.0-179.0-8.0", "time_elapsed": 1441307, "key_press": -1, "trial_index": 250}, "uniqueid": "MTK1368:3UOUJI6MTELSTG33AH2VUGVNU7BUXK", "dateTime": 1515866228892}, {"current_trial": 251, "trialdata": {"rt": -1, "trial_type": "single-stim", "stimulus": "<p id=\"stim\">1</p>", "internal_node_id": "0.0-179.0-9.0", "time_elapsed": 1442311, "key_press": -1, "trial_index": 251}, "uniqueid": "MTK1368:3UOUJI6MTELSTG33AH2VUGVNU7BUXK", "dateTime": 1515866229897}, {"current_trial": 252, "trialdata": {"rt": -1, "trial_type": "single-stim", "stimulus": "<p id=\"stim\">+</p>", "internal_node_id": "0.0-180.0-0.0", "time_elapsed": 1443816, "key_press": -1, "type": "FIXATION", "trial_index": 252}, "uniqueid": "MTK1368:3UOUJI6MTELSTG33AH2VUGVNU7BUXK", "dateTime": 1515866231401}, {"current_trial": 253, "trialdata": {"rt": -1, "trial_type": "single-stim", "word": "pilot", "stimulus": "<p id=\"stim\">PILOT</p>", "conditions": [24, 800, "v", 12000], "internal_node_id": "0.0-181.0", "trial": 7, "time_elapsed": 1444619, "serialpos": 0, "key_press": -1, "wordID": 1069, "type": "PRES_VIS", "trial_index": 253}, "uniqueid": "MTK1368:3UOUJI6MTELSTG33AH2VUGVNU7BUXK", "dateTime": 1515866232204}, {"current_trial": 254, "trialdata": {"rt": -1, "trial_type": "single-stim", "word": "rod", "stimulus": "<p id=\"stim\">ROD</p>", "conditions": [24, 800, "v", 12000], "internal_node_id": "0.0-182.0", "trial": 7, "time_elapsed": 1446387, "serialpos": 1, "key_press": -1, "wordID": 1202, "type": "PRES_VIS", "trial_index": 254}, "uniqueid": "MTK1368:3UOUJI6MTELSTG33AH2VUGVNU7BUXK", "dateTime": 1515866233973}, {"current_trial": 255, "trialdata": {"rt": -1, "trial_type": "single-stim", "word": "fungus", "stimulus": "<p id=\"stim\">FUNGUS</p>", "conditions": [24, 800, "v", 12000], "internal_node_id": "0.0-183.0", "trial": 7, "time_elapsed": 1448164, "serialpos": 2, "key_press": -1, "wordID": 613, "type": "PRES_VIS", "trial_index": 255}, "uniqueid": "MTK1368:3UOUJI6MTELSTG33AH2VUGVNU7BUXK", "dateTime": 1515866235749}, {"current_trial": 256, "trialdata