{"assignmentId": "37ZHEEHM6XTEF7KTDK2WD8SZG7Z37Q", "workerId": "MTK1783", "questiondata": {"origin": "United States", "strat-rehearsal": "58", "marital": "Married/Domestic Partnership", "education": "Bachelor's degree", "ethnicity": "Not Hispanic", "color_depth": 24, "distracted": "No", "wrote-notes": "No", "strat-other": "", "screen_width": 1280, "avail_screen_width": 1280, "avail_screen_height": 777, "strat-image": "73", "language": "english", "gender": "Female", "age": "43", "gender_other": "", "race": ["White"], "strat-categorize": "90", "pixel_depth": 24, "strat-spatial": "69", "strat-story": "12", "race_other": "", "screen_height": 800}, "bonus": 0, "hitId": "30Y6N4AHYP3KSY8BPL1C6E9RQ0ZRD7", "counterbalance": 1023, "useragent": "Mozilla/5.0 (Macintosh; Intel Mac OS X 10_11_6) AppleWebKit/537.36 (KHTML, like Gecko) Chrome/63.0.3239.132 Safari/537.36", "eventdata": [{"eventtype": "initialized", "interval": 0, "value": null, "timestamp": 1516301936080}, {"eventtype": "window_resize", "interval": 0, "value": [1280, 722], "timestamp": 1516301936080}, {"eventtype": "focus", "interval": 1773393, "value": "off", "timestamp": 1516303709473}, {"eventtype": "focus", "interval": 5275, "value": "on", "timestamp": 1516303714748}, {"eventtype": "focus", "interval": 18572, "value": "off", "timestamp": 1516303733320}, {"eventtype": "focus", "interval": 3604, "value": "on", "timestamp": 1516303736924}, {"eventtype": "focus", "interval": 1167948, "value": "off", "timestamp": 1516304904872}, {"eventtype": "focus", "interval": 8, "value": "on", "timestamp": 1516304904880}], "data": [{"current_trial": 0, "trialdata": {"rt": 1957, "trial_type": "text", "internal_node_id": "0.0-0.0", "time_elapsed": 1959, "key_press": 32, "type": "INSTRUCTIONS", "trial_index": 0}, "uniqueid": "MTK1783:37ZHEEHM6XTEF7KTDK2WD8SZG7Z37Q", "dateTime": 1516301952996}, {"current_trial": 1, "trialdata": {"rt": 27224, "trial_type": "text", "internal_node_id": "0.0-1.0", "time_elapsed": 29185, "key_press": 13, "type": "INSTRUCTIONS", "trial_index": 1}, "uniqueid": "MTK1783:37ZHEEHM6XTEF7KTDK2WD8SZG7Z37Q", "dateTime": 1516301980221}, {"current_trial": 2, "trialdata": {"rt": [7174], "trial_type": "audio-test", "responses": ["ocean"], "internal_node_id": "0.0-2.0", "time_elapsed": 36371, "type": "AUDIO_TEST", "trial_index": 2}, "uniqueid": "MTK1783:37ZHEEHM6XTEF7KTDK2WD8SZG7Z37Q", "dateTime": 1516301987407}, {"current_trial": 3, "trialdata": {"rt": [6531], "trial_type": "audio-test", "responses": ["crystal"], "internal_node_id": "0.0-3.0", "time_elapsed": 42905, "type": "AUDIO_TEST", "trial_index": 3}, "uniqueid": "MTK1783:37ZHEEHM6XTEF7KTDK2WD8SZG7Z37Q", "dateTime": 1516301993941}, {"current_trial": 4, "trialdata": {"rt": [10020], "trial_type": "audio-test", "responses": ["spice"], "internal_node_id": "0.0-4.0", "time_elapsed": 52929, "type": "AUDIO_TEST", "trial_index": 4}, "uniqueid": "MTK1783:37ZHEEHM6XTEF7KTDK2WD8SZG7Z37Q", "dateTime": 1516302003965}, {"current_trial": 5, "trialdata": {"rt": 29721, "trial_type": "survey-text", "responses": "{\"Q0\":\"1100\",\"Q1\":\"645\",\"Q2\":\"5\\n5\"}", "internal_node_id": "0.0-5.0", "time_elapsed": 83403, "type": "SLEEP_SURVEY", "trial_index": 5}, "uniqueid": "MTK1783:37ZHEEHM6XTEF7KTDK2WD8SZG7Z37Q", "dateTime": 1516302034439}, {"current_trial": 6, "trialdata": {"rt": 26121, "trial_type": "text", "internal_node_id": "0.0-6.0", "time_elapsed": 110528, "key_press": 32, "type": "INSTRUCTIONS", "trial_index": 6}, "uniqueid": "MTK1783:37ZHEEHM6XTEF7KTDK2WD8SZG7Z37Q", "dateTime": 1516302061564}, {"current_trial": 7, "trialdata": {"rt": 6924, "trial_type": "text", "internal_node_id": "0.0-7.0", "time_elapsed": 117952, "key_press": 32, "type": "INSTRUCTIONS", "trial_index": 7}, "uniqueid": "MTK1783:37ZHEEHM6XTEF7KTDK2WD8SZG7Z37Q", "dateTime": 1516302068988}, {"current_trial": 8, "trialdata": {"rt": 4889, "trial_type": "text", "internal_node_id": "0.0-8.0", "time_elapsed": 123342, "key_press": 32, "type": "INSTRUCTIONS", "trial_index": 8}, "uniqueid": "MTK1783:37ZHEEHM6XTEF7KTDK2WD8SZG7Z37Q", "dateTime": 1516302074378}, {"current_trial": 9, "trialdata": {"rt": [3108, 5115, 7891, 10138, 12075, 14129, 15816, 17893], "trial_type": "math-distractor", "key_times": [2182, 2402, 3108, 4534, 4952, 5115, 7061, 7608, 7891, 9441, 9938, 10138, 11708, 11926, 12075, 13599, 13906, 14129, 15376, 15556, 15816, 17739, 17893], "responses": ["13", "15", "19", "10", "11", "13", "12", "9"], "num2": [2, 2, 1, 1, 5, 9, 3, 6, 4], "num3": [6, 5, 9, 4, 2, 3, 2, 2, 4], "conditions": [18, 1200, "a", 18000], "internal_node_id": "0.0-9.0", "key_presses": [49, 51, 13, 49, 53, 13, 49, 57, 13, 49, 48, 13, 49, 49, 13, 49, 51, 13, 49, 50, 13, 57, 13], "trial": 0, "time_elapsed": 142349, "type": "DISTRACTOR", "trial_index": 9, "num1": [5, 8, 9, 5, 4, 1, 7, 1, 8]}, "uniqueid": "MTK1783:37ZHEEHM6XTEF7KTDK2WD8SZG7Z37Q", "dateTime": 1516302093385}, {"current_trial": 10, "trialdata": {"rt": -1, "trial_type": "single-stim", "stimulus": "<p id=\"stim\">10</p>", "internal_node_id": "0.0-10.0-0.0", "time_elapsed": 145355, "key_press": -1, "trial_index": 10}, "uniqueid": "MTK1783:37ZHEEHM6XTEF7KTDK2WD8SZG7Z37Q", "dateTime": 1516302096391}, {"current_trial": 11, "trialdata": {"rt": -1, "trial_type": "single-stim", "stimulus": "<p id=\"stim\">9</p>", "internal_node_id": "0.0-10.0-1.0", "time_elapsed": 146359, "key_press": -1, "trial_index": 11}, "uniqueid": "MTK1783:37ZHEEHM6XTEF7KTDK2WD8SZG7Z37Q", "dateTime": 1516302097395}, {"current_trial": 12, "trialdata": {"rt": -1, "trial_type": "single-stim", "stimulus": "<p id=\"stim\">8</p>", "internal_node_id": "0.0-10.0-2.0", "time_elapsed": 147364, "key_press": -1, "trial_index": 12}, "uniqueid": "MTK1783:37ZHEEHM6XTEF7KTDK2WD8SZG7Z37Q", "dateTime": 1516302098400}, {"current_trial": 13, "trialdata": {"rt": -1, "trial_type": "single-stim", "stimulus": "<p id=\"stim\">7</p>", "internal_node_id": "0.0-10.0-3.0", "time_elapsed": 148368, "key_press": -1, "trial_index": 13}, "uniqueid": "MTK1783:37ZHEEHM6XTEF7KTDK2WD8SZG7Z37Q", "dateTime": 1516302099404}, {"current_trial": 14, "trialdata": {"rt": -1, "trial_type": "single-stim", "stimulus": "<p id=\"stim\">6</p>", "internal_node_id": "0.0-10.0-4.0", "time_elapsed": 149371, "key_press": -1, "trial_index": 14}, "uniqueid": "MTK1783:37ZHEEHM6XTEF7KTDK2WD8SZG7Z37Q", "dateTime": 1516302100408}, {"current_trial": 15, "trialdata": {"rt": -1, "trial_type": "single-stim", "stimulus": "<p id=\"stim\">5</p>", "internal_node_id": "0.0-10.0-5.0", "time_elapsed": 150377, "key_press": -1, "trial_index": 15}, "uniqueid": "MTK1783:37ZHEEHM6XTEF7KTDK2WD8SZG7Z37Q", "dateTime": 1516302101413}, {"current_trial": 16, "trialdata": {"rt": -1, "trial_type": "single-stim", "stimulus": "<p id=\"stim\">4</p>", "internal_node_id": "0.0-10.0-6.0", "time_elapsed": 151379, "key_press": -1, "trial_index": 16}, "uniqueid": "MTK1783:37ZHEEHM6XTEF7KTDK2WD8SZG7Z37Q", "dateTime": 1516302102415}, {"current_trial": 17, "trialdata": {"rt": -1, "trial_type": "single-stim", "stimulus": "<p id=\"stim\">3</p>", "internal_node_id": "0.0-10.0-7.0", "time_elapsed": 152382, "key_press": -1, "trial_index": 17}, "uniqueid": "MTK1783:37ZHEEHM6XTEF7KTDK2WD8SZG7Z37Q", "dateTime": 1516302103418}, {"current_trial": 18, "trialdata": {"rt": -1, "trial_type": "single-stim", "stimulus": "<p id=\"stim\">2</p>", "internal_node_id": "0.0-10.0-8.0", "time_elapsed": 153383, "key_press": -1, "trial_index": 18}, "uniqueid": "MTK1783:37ZHEEHM6XTEF7KTDK2WD8SZG7Z37Q", "dateTime": 1516302104419}, {"current_trial": 19, "trialdata": {"rt": -1, "trial_type": "single-stim", "stimulus": "<p id=\"stim\">1</p>", "internal_node_id": "0.0-10.0-9.0", "time_elapsed": 154386, "key_press": -1, "trial_index": 19}, "uniqueid": "MTK1783:37ZHEEHM6XTEF7KTDK2WD8SZG7Z37Q", "dateTime": 1516302105422}, {"current_trial": 20, "trialdata": {"rt": -1, "trial_type": "single-stim", "stimulus": "<p id=\"stim\">+</p>", "internal_node_id": "0.0-11.0-0.0", "time_elapsed": 155890, "key_press": -1, "type": "FIXATION", "trial_index": 20}, "uniqueid": "MTK1783:37ZHEEHM6XTEF7KTDK2WD8SZG7Z37Q", "dateTime": 1516302106926}, {"current_trial": 21, "trialdata": {"rt": -1000, "trial_type": "single-audio", "word": "poison", "stimulus": "/static/audio/wordpool/POISON.wav", "conditions": [18, 1200, "a", 18000], "internal_node_id": "0.0-12.0", "trial": 0, "time_elapsed": 158271, "serialpos": 0, "key_press": -1, "wordID": 1095, "type": "PRES_AUD", "trial_index": 21}, "uniqueid": "MTK1783:37ZHEEHM6XTEF7KTDK2WD8SZG7Z37Q", "dateTime": 1516302109307}, {"current_trial": 22, "trialdata": {"rt": -1000, "trial_type": "single-audio", "word": "razor", "stimulus": "/static/audio/wordpool/RAZOR.wav", "conditions": [18, 1200, "a", 18000], "internal_node_id": "0.0-13.0", "trial": 0, "time_elapsed": 160284, "serialpos": 1, "key_press": -1, "wordID": 1170, "type": "PRES_AUD", "trial_index": 22}, "uniqueid": "MTK1783:37ZHEEHM6XTEF7KTDK2WD8SZG7Z37Q", "dateTime": 1516302111320}, {"current_trial": 23, "trialdata": {"rt": -1000, "trial_type": "single-audio", "word": "garlic", "stimulus": "/static/audio/wordpool/GARLIC.wav", "conditions": [18, 1200, "a", 18000], "internal_node_id": "0.0-14.0", "trial": 0, "time_elapsed": 162357, "serialpos": 2, "key_press": -1, "wordID": 623, "type": "PRES_AUD", "trial_index": 23}, "uniqueid": "MTK1783:37ZHEEHM6XTEF7KTDK2WD8SZG7Z37Q", "dateTime": 1516302113393}, {"current_trial": 24, "trialdata": {"rt": -1000, "trial_type": "single-audio", "word": "female", "stimulus": "/static/audio/wordpool/FEMALE.wav", "conditions": [18, 1200, "a", 18000], "internal_node_id": "0.0-15.0", "trial": 0, "time_elapsed": 164746, "serialpos": 3, "key_press": -1, "wordID": 558, "type": "PRES_AUD", "trial_index": 24}, "uniqueid": "MTK1783:37ZHEEHM6XTEF7KTDK2WD8SZG7Z37Q", "dateTime": 1516302115783}, {"current_trial": 25, "trialdata": {"rt": -1000, "trial_type": "single-audio", "word": "lace", "stimulus": "/static/audio/wordpool/LACE.wav", "conditions": [18, 1200, "a", 18000], "internal_node_id": "0.0-16.0", "trial": 0, "time_elapsed": 167140, "serialpos": 4, "key_press": -1, "wordID": 791, "type": "PRES_AUD", "trial_index": 25}, "uniqueid": "MTK1783:37ZHEEHM6XTEF7KTDK2WD8SZG7Z37Q", "dateTime": 1516302118176}, {"current_trial": 26, "trialdata": {"rt": -1000, "trial_type": "single-audio", "word": "college", "stimulus": "/static/audio/wordpool/COLLEGE.wav", "conditions": [18, 1200, "a", 18000], "internal_node_id": "0.0-17.0", "trial": 0, "time_elapsed": 169419, "serialpos": 5, "key_press": -1, "wordID": 345, "type": "PRES_AUD", "trial_index": 26}, "uniqueid": "MTK1783:37ZHEEHM6XTEF7KTDK2WD8SZG7Z37Q", "dateTime": 1516302120455}, {"current_trial": 27, "trialdata": {"rt": -1000, "trial_type": "single-audio", "word": "twister", "stimulus": "/static/audio/wordpool/TWISTER.wav", "conditions": [18, 1200, "a", 18000], "internal_node_id": "0.0-18.0", "trial": 0, "time_elapsed": 171530, "serialpos": 6, "key_press": -1, "wordID": 1529, "type": "PRES_AUD", "trial_index": 27}, "uniqueid": "MTK1783:37ZHEEHM6XTEF7KTDK2WD8SZG7Z37Q", "dateTime": 1516302122566}, {"current_trial": 28, "trialdata": {"rt": -1000, "trial_type": "single-audio", "word": "plaster", "stimulus": "/static/audio/wordpool/PLASTER.wav", "conditions": [18, 1200, "a", 18000], "internal_node_id": "0.0-19.0", "trial": 0, "time_elapsed": 173689, "serialpos": 7, "key_press": -1, "wordID": 1084, "type": "PRES_AUD", "trial_index": 28}, "uniqueid": "MTK1783:37ZHEEHM6XTEF7KTDK2WD8SZG7Z37Q", "dateTime": 1516302124726}, {"current_trial": 29, "trialdata": {"rt": -1000, "trial_type": "single-audio", "word": "beast", "stimulus": "/static/audio/wordpool/BEAST.wav", "conditions": [18, 1200, "a", 18000], "internal_node_id": "0.0-20.0", "trial": 0, "time_elapsed": 175792, "serialpos": 8, "key_press": -1, "wordID": 107, "type": "PRES_AUD", "trial_index": 29}, "uniqueid": "MTK1783:37ZHEEHM6XTEF7KTDK2WD8SZG7Z37Q", "dateTime": 1516302126828}, {"current_trial": 30, "trialdata": {"rt": -1000, "trial_type": "single-audio", "word": "flag", "stimulus": "/static/audio/wordpool/FLAG.wav", "conditions": [18, 1200, "a", 18000], "internal_node_id": "0.0-21.0", "trial": 0, "time_elapsed": 178031, "serialpos": 9, "key_press": -1, "wordID": 572, "type": "PRES_AUD", "trial_index": 30}, "uniqueid": "MTK1783:37ZHEEHM6XTEF7KTDK2WD8SZG7Z37Q", "dateTime": 1516302129067}, {"current_trial": 31, "trialdata": {"rt": -1000, "trial_type": "single-audio", "word": "tart", "stimulus": "/static/audio/wordpool/TART.wav", "conditions": [18, 1200, "a", 18000], "internal_node_id": "0.0-22.0", "trial": 0, "time_elapsed": 180364, "serialpos": 10, "key_press": -1, "wordID": 1435, "type": "PRES_AUD", "trial_index": 31}, "uniqueid": "MTK1783:37ZHEEHM6XTEF7KTDK2WD8SZG7Z37Q", "dateTime": 1516302131400}, {"current_trial": 32, "trialdata": {"rt": -1000, "trial_type": "single-audio", "word": "ghetto", "stimulus": "/static/audio/wordpool/GHETTO.wav", "conditions": [18, 1200, "a", 18000], "internal_node_id": "0.0-23.0", "trial": 0, "time_elapsed": 182715, "serialpos": 11, "key_press": -1, "wordID": 632, "type": "PRES_AUD", "trial_index": 32}, "uniqueid": "MTK1783:37ZHEEHM6XTEF7KTDK2WD8SZG7Z37Q", "dateTime": 1516302133751}, {"current_trial": 33, "trialdata": {"rt": -1000, "trial_type": "single-audio", "word": "sister", "stimulus": "/static/audio/wordpool/SISTER.wav", "conditions": [18, 1200, "a", 18000], "internal_node_id": "0.0-24.0", "trial": 0, "time_elapsed": 184875, "serialpos": 12, "key_press": -1, "wordID": 1311, "type": "PRES_AUD", "trial_index": 33}, "uniqueid": "MTK1783:37ZHEEHM6XTEF7KTDK2WD8SZG7Z37Q", "dateTime": 1516302135911}, {"current_trial": 34, "trialdata": {"rt": -1000, "trial_type": "single-audio", "word": "staple", "stimulus": "/static/audio/wordpool/STAPLE.wav", "conditions": [18, 1200, "a", 18000], "internal_node_id": "0.0-25.0", "trial": 0, "time_elapsed": 187209, "serialpos": 13, "key_press": -1, "wordID": 1370, "type": "PRES_AUD", "trial_index": 34}, "uniqueid": "MTK1783:37ZHEEHM6XTEF7KTDK2WD8SZG7Z37Q", "dateTime": 1516302138246}, {"current_trial": 35, "trialdata": {"rt": -1000, "trial_type": "single-audio", "word": "salad", "stimulus": "/static/audio/wordpool/SALAD.wav", "conditions": [18, 1200, "a", 18000], "internal_node_id": "0.0-26.0", "trial": 0, "time_elapsed": 189454, "serialpos": 14, "key_press": -1, "wordID": 1223, "type": "PRES_AUD", "trial_index": 35}, "uniqueid": "MTK1783:37ZHEEHM6XTEF7KTDK2WD8SZG7Z37Q", "dateTime": 1516302140490}, {"current_trial": 36, "trialdata": {"rt": -1000, "trial_type": "single-audio", "word": "termite", "stimulus": "/static/audio/wordpool/TERMITE.wav", "conditions": [18, 1200, "a", 18000], "internal_node_id": "0.0-27.0", "trial": 0, "time_elapsed": 191577, "serialpos": 15, "key_press": -1, "wordID": 1450, "type": "PRES_AUD", "trial_index": 36}, "uniqueid": "MTK1783:37ZHEEHM6XTEF7KTDK2WD8SZG7Z37Q", "dateTime": 1516302142613}, {"current_trial": 37, "trialdata": {"rt": -1000, "trial_type": "single-audio", "word": "carrot", "stimulus": "/static/audio/wordpool/CARROT.wav", "conditions": [18, 1200, "a", 18000], "internal_node_id": "0.0-28.0", "trial": 0, "time_elapsed": 193644, "serialpos": 16, "key_press": -1, "wordID": 248, "type": "PRES_AUD", "trial_index": 37}, "uniqueid": "MTK1783:37ZHEEHM6XTEF7KTDK2WD8SZG7Z37Q", "dateTime": 1516302144680}, {"current_trial": 38, "trialdata": {"rt": -1000, "trial_type": "single-audio", "word": "bacon", "stimulus": "/static/audio/wordpool/BACON.wav", "conditions": [18, 1200, "a", 18000], "internal_node_id": "0.0-29.0", "trial": 0, "time_elapsed": 195907, "serialpos": 17, "key_press": -1, "wordID": 66, "type": "PRES_AUD", "trial_index": 38}, "uniqueid": "MTK1783:37ZHEEHM6XTEF7KTDK2WD8SZG7Z37Q", "dateTime": 1516302146943}, {"current_trial": 39, "trialdata": {"rt": -1, "trial_type": "single-stim", "stimulus": "", "internal_node_id": "0.0-30.0-0.0", "time_elapsed": 197170, "key_press": -1, "type": "PRE_RECALL_DELAY", "trial_index": 39}, "uniqueid": "MTK1783:37ZHEEHM6XTEF7KTDK2WD8SZG7Z37Q", "dateTime": 1516302148206}, {"current_trial": 40, "trialdata": {"rt": -1000, "trial_type": "single-audio", "stimulus": "/static/audio/400Hz.wav", "internal_node_id": "0.0-31.0", "time_elapsed": 197672, "key_press": -1, "type": "PRE_RECALL_ALERT", "trial_index": 40}, "uniqueid": "MTK1783:37ZHEEHM6XTEF7KTDK2WD8SZG7Z37Q", "dateTime": 1516302148708}, {"current_trial": 41, "trialdata": {"rt": [2014, 3219, 4578, 7336, 14665, 17244, 18037], "recwords": ["bacon", "lace", "sister", "razor", "twister", "ocean", ""], "key_times": [589, 700, 935, 1095, 1258, 2014, 2376, 2476, 2669, 2882, 3219, 3472, 3564, 3692, 3885, 4054, 4145, 4578, 6402, 6518, 6771, 6868, 7104, 7336, 13107, 13366, 13848, 13960, 14144, 14289, 14384, 14665, 16413, 16585, 16801, 16894, 17018, 17244, 18037, 37812, 37926, 38259, 38997, 39191, 39375], "trial_type": "free-recall", "conditions": [18, 1200, "a", 18000], "internal_node_id": "0.0-32.0-0.0", "key_presses": [66, 65, 67, 79, 78, 13, 76, 65, 67, 69, 13, 83, 73, 83, 84, 69, 82, 13, 82, 65, 90, 79, 82, 13, 84, 87, 73, 83, 84, 69, 82, 13, 79, 67, 69, 65, 78, 13, 13, 66, 65, 67, 8, 8, 8], "trial": 0, "time_elapsed": 257680, "type": "FREE_RECALL", "trial_index": 41}, "uniqueid": "MTK1783:37ZHEEHM6XTEF7KTDK2WD8SZG7Z37Q", "dateTime": 1516302208718}, {"current_trial": 42, "trialdata": {"rt": 1560, "trial_type": "text", "internal_node_id": "0.0-33.0", "time_elapsed": 261246, "key_press": 13, "type": "INSTRUCTIONS", "trial_index": 42}, "uniqueid": "MTK1783:37ZHEEHM6XTEF7KTDK2WD8SZG7Z37Q", "dateTime": 1516302212282}, {"current_trial": 43, "trialdata": {"rt": [2223, 4679, 6727, 8783, 13366, 15418, 17752], "trial_type": "math-distractor", "key_times": [1770, 1934, 2223, 4082, 4365, 4679, 5990, 6535, 6727, 8407, 8783, 8886, 9741, 12657, 13223, 13366, 14766, 15197, 15418, 17090, 17428, 17752], "responses": ["19", "17", "13", "1", "13", "16", "17"], "num2": [4, 9, 9, 4, 5, 6, 8, 9], "num3": [9, 5, 2, 6, 1, 3, 5, 3], "conditions": [18, 1200, "a", 18000], "internal_node_id": "0.0-34.0", "key_presses": [49, 57, 13, 49, 55, 13, 49, 51, 13, 49, 13, 55, 8, 49, 51, 13, 49, 54, 13, 49, 55, 13], "trial": 1, "time_elapsed": 281257, "type": "DISTRACTOR", "trial_index": 43, "num1": [6, 3, 2, 7, 9, 7, 4, 1]}, "uniqueid": "MTK1783:37ZHEEHM6XTEF7KTDK2WD8SZG7Z37Q", "dateTime": 1516302232293}, {"current_trial": 44, "trialdata": {"rt": -1, "trial_type": "single-stim", "stimulus": "<p id=\"stim\">10</p>", "internal_node_id": "0.0-35.0-0.0", "time_elapsed": 284263, "key_press": -1, "trial_index": 44}, "uniqueid": "MTK1783:37ZHEEHM6XTEF7KTDK2WD8SZG7Z37Q", "dateTime": 1516302235299}, {"current_trial": 45, "trialdata": {"rt": -1, "trial_type": "single-stim", "stimulus": "<p id=\"stim\">9</p>", "internal_node_id": "0.0-35.0-1.0", "time_elapsed": 285267, "key_press": -1, "trial_index": 45}, "uniqueid": "MTK1783:37ZHEEHM6XTEF7KTDK2WD8SZG7Z37Q", "dateTime": 1516302236303}, {"current_trial": 46, "trialdata": {"rt": -1, "trial_type": "single-stim", "stimulus": "<p id=\"stim\">8</p>", "internal_node_id": "0.0-35.0-2.0", "time_elapsed": 286271, "key_press": -1, "trial_index": 46}, "uniqueid": "MTK1783:37ZHEEHM6XTEF7KTDK2WD8SZG7Z37Q", "dateTime": 1516302237307}, {"current_trial": 47, "trialdata": {"rt": -1, "trial_type": "single-stim", "stimulus": "<p id=\"stim\">7</p>", "internal_node_id": "0.0-35.0-3.0", "time_elapsed": 287275, "key_press": -1, "trial_index": 47}, "uniqueid": "MTK1783:37ZHEEHM6XTEF7KTDK2WD8SZG7Z37Q", "dateTime": 1516302238311}, {"current_trial": 48, "trialdata": {"rt": -1, "trial_type": "single-stim", "stimulus": "<p id=\"stim\">6</p>", "internal_node_id": "0.0-35.0-4.0", "time_elapsed": 288279, "key_press": -1, "trial_index": 48}, "uniqueid": "MTK1783:37ZHEEHM6XTEF7KTDK2WD8SZG7Z37Q", "dateTime": 1516302239315}, {"current_trial": 49, "trialdata": {"rt": -1, "trial_type": "single-stim", "stimulus": "<p id=\"stim\">5</p>", "internal_node_id": "0.0-35.0-5.0", "time_elapsed": 289284, "key_press": -1, "trial_index": 49}, "uniqueid": "MTK1783:37ZHEEHM6XTEF7KTDK2WD8SZG7Z37Q", "dateTime": 1516302240320}, {"current_trial": 50, "trialdata": {"rt": -1, "trial_type": "single-stim", "stimulus": "<p id=\"stim\">4</p>", "internal_node_id": "0.0-35.0-6.0", "time_elapsed": 290289, "key_press": -1, "trial_index": 50}, "uniqueid": "MTK1783:37ZHEEHM6XTEF7KTDK2WD8SZG7Z37Q", "dateTime": 1516302241325}, {"current_trial": 51, "trialdata": {"rt": -1, "trial_type": "single-stim", "stimulus": "<p id=\"stim\">3</p>", "internal_node_id": "0.0-35.0-7.0", "time_elapsed": 291295, "key_press": -1, "trial_index": 51}, "uniqueid": "MTK1783:37ZHEEHM6XTEF7KTDK2WD8SZG7Z37Q", "dateTime": 1516302242331}, {"current_trial": 52, "trialdata": {"rt": -1, "trial_type": "single-stim", "stimulus": "<p id=\"stim\">2</p>", "internal_node_id": "0.0-35.0-8.0", "time_elapsed": 292299, "key_press": -1, "trial_index": 52}, "uniqueid": "MTK1783:37ZHEEHM6XTEF7KTDK2WD8SZG7Z37Q", "dateTime": 1516302243336}, {"current_trial": 53, "trialdata": {"rt": -1, "trial_type": "single-stim", "stimulus": "<p id=\"stim\">1</p>", "internal_node_id": "0.0-35.0-9.0", "time_elapsed": 293304, "key_press": -1, "trial_index": 53}, "uniqueid": "MTK1783:37ZHEEHM6XTEF7KTDK2WD8SZG7Z37Q", "dateTime": 1516302244340}, {"current_trial": 54, "trialdata": {"rt": -1, "trial_type": "single-stim", "stimulus": "<p id=\"stim\">+</p>", "internal_node_id": "0.0-36.0-0.0", "time_elapsed": 294808, "key_press": -1, "type": "FIXATION", "trial_index": 54}, "uniqueid": "MTK1783:37ZHEEHM6XTEF7KTDK2WD8SZG7Z37Q", "dateTime": 1516302245845}, {"current_trial": 55, "trialdata": {"rt": -1000, "trial_type": "single-audio", "word": "bison", "stimulus": "/static/audio/wordpool/BISON.wav", "conditions": [18, 1200, "a", 18000], "internal_node_id": "0.0-37.0", "trial": 1, "time_elapsed": 297002, "serialpos": 0, "key_press": -1, "wordID": 130, "type": "PRES_AUD", "trial_index": 55}, "uniqueid": "MTK1783:37ZHEEHM6XTEF7KTDK2WD8SZG7Z37Q", "dateTime": 1516302248038}, {"current_trial": 56, "trialdata": {"rt": -1000, "trial_type": "single-audio", "word": "onion", "stimulus": "/static/audio/wordpool/ONION.wav", "conditions": [18, 1200, "a", 18000], "internal_node_id": "0.0-38.0", "trial": 1, "time_elapsed": 299180, "serialpos": 1, "key_press": -1, "wordID": 976, "type": "PRES_AUD", "trial_index": 56}, "uniqueid": "MTK1783:37ZHEEHM6XTEF7KTDK2WD8SZG7Z37Q", "dateTime": 1516302250216}, {"current_trial": 57, "trialdata": {"rt": -1000, "trial_type": "single-audio", "word": "marrow", "stimulus": "/static/audio/wordpool/MARROW.wav", "conditions": [18, 1200, "a", 18000], "internal_node_id": "0.0-39.0", "trial": 1, "time_elapsed": 301465, "serialpos": 2, "key_press": -1, "wordID": 871, "type": "PRES_AUD", "trial_index": 57}, "uniqueid": "MTK1783:37ZHEEHM6XTEF7KTDK2WD8SZG7Z37Q", "dateTime": 1516302252501}, {"current_trial": 58, "trialdata": {"rt": -1000, "trial_type": "single-audio", "word": "eyelash", "stimulus": "/static/audio/wordpool/EYELASH.wav", "conditions": [18, 1200, "a", 18000], "internal_node_id": "0.0-40.0", "trial": 1, "time_elapsed": 303483, "serialpos": 3, "key_press": -1, "wordID": 545, "type": "PRES_AUD", "trial_index": 58}, "uniqueid": "MTK1783:37ZHEEHM6XTEF7KTDK2WD8SZG7Z37Q", "dateTime": 1516302254520}, {"current_trial": 59, "trialdata": {"rt": -1000, "trial_type": "single-audio", "word": "rebel", "stimulus": "/static/audio/wordpool/REBEL.wav", "conditions": [18, 1200, "a", 18000], "internal_node_id": "0.0-41.0", "trial": 1, "time_elapsed": 305883, "serialpos": 4, "key_press": -1, "wordID": 1171, "type": "PRES_AUD", "trial_index": 59}, "uniqueid": "MTK1783:37ZHEEHM6XTEF7KTDK2WD8SZG7Z37Q", "dateTime": 1516302256919}, {"current_trial": 60, "trialdata": {"rt": -1000, "trial_type": "single-audio", "word": "shrub", "stimulus": "/static/audio/wordpool/SHRUB.wav", "conditions": [18, 1200, "a", 18000], "internal_node_id": "0.0-42.0", "trial": 1, "time_elapsed": 307949, "serialpos": 5, "key_press": -1, "wordID": 1298, "type": "PRES_AUD", "trial_index": 60}, "uniqueid": "MTK1783:37ZHEEHM6XTEF7KTDK2WD8SZG7Z37Q", "dateTime": 1516302258985}, {"current_trial": 61, "trialdata": {"rt": -1000, "trial_type": "single-audio", "word": "gazelle", "stimulus": "/static/audio/wordpool/GAZELLE.wav", "conditions": [18, 1200, "a", 18000], "internal_node_id": "0.0-43.0", "trial": 1, "time_elapsed": 310300, "serialpos": 6, "key_press": -1, "wordID": 627, "type": "PRES_AUD", "trial_index": 61}, "uniqueid": "MTK1783:37ZHEEHM6XTEF7KTDK2WD8SZG7Z37Q", "dateTime": 1516302261336}, {"current_trial": 62, "trialdata": {"rt": -1000, "trial_type": "single-audio", "word": "space", "stimulus": "/static/audio/wordpool/SPACE.wav", "conditions": [18, 1200, "a", 18000], "internal_node_id": "0.0-44.0", "trial": 1, "time_elapsed": 312327, "serialpos": 7, "key_press": -1, "wordID": 1344, "type": "PRES_AUD", "trial_index": 62}, "uniqueid": "MTK1783:37ZHEEHM6XTEF7KTDK2WD8SZG7Z37Q", "dateTime": 1516302263363}, {"current_trial": 63, "trialdata": {"rt": -1000, "trial_type": "single-audio", "word": "blackboard", "stimulus": "/static/audio/wordpool/BLACKBOARD.wav", "conditions": [18, 1200, "a", 18000], "internal_node_id": "0.0-45.0", "trial": 1, "time_elapsed": 314329, "serialpos": 8, "key_press": -1, "wordID": 132, "type": "PRES_AUD", "trial_index": 63}, "uniqueid": "MTK1783:37ZHEEHM6XTEF7KTDK2WD8SZG7Z37Q", "dateTime": 1516302265365}, {"current_trial": 64, "trialdata": {"rt": -1000, "trial_type": "single-audio", "word": "preacher", "stimulus": "/static/audio/wordpool/PREACHER.wav", "conditions": [18, 1200, "a", 18000], "internal_node_id": "0.0-46.0", "trial": 1, "time_elapsed": 316596, "serialpos": 9, "key_press": -1, "wordID": 1118, "type": "PRES_AUD", "trial_index": 64}, "uniqueid": "MTK1783:37ZHEEHM6XTEF7KTDK2WD8SZG7Z37Q", "dateTime": 1516302267632}, {"current_trial": 65, "trialdata": {"rt": -1000, "trial_type": "single-audio", "word": "padding", "stimulus": "/static/audio/wordpool/PADDING.wav", "conditions": [18, 1200, "a", 18000], "internal_node_id": "0.0-47.0", "trial": 1, "time_elapsed": 318694, "serialpos": 10, "key_press": -1, "wordID": 998, "type": "PRES_AUD", "trial_index": 65}, "uniqueid": "MTK1783:37ZHEEHM6XTEF7KTDK2WD8SZG7Z37Q", "dateTime": 1516302269730}, {"current_trial": 66, "trialdata": {"rt": -1000, "trial_type": "single-audio", "word": "transplant", "stimulus": "/static/audio/wordpool/TRANSPLANT.wav", "conditions": [18, 1200, "a", 18000], "internal_node_id": "0.0-48.0", "trial": 1, "time_elapsed": 320912, "serialpos": 11, "key_press": -1, "wordID": 1495, "type": "PRES_AUD", "trial_index": 66}, "uniqueid": "MTK1783:37ZHEEHM6XTEF7KTDK2WD8SZG7Z37Q", "dateTime": 1516302271948}, {"current_trial": 67, "trialdata": {"rt": -1000, "trial_type": "single-audio", "word": "lagoon", "stimulus": "/static/audio/wordpool/LAGOON.wav", "conditions": [18, 1200, "a", 18000], "internal_node_id": "0.0-49.0", "trial": 1, "time_elapsed": 323023, "serialpos": 12, "key_press": -1, "wordID": 794, "type": "PRES_AUD", "trial_index": 67}, "uniqueid": "MTK1783:37ZHEEHM6XTEF7KTDK2WD8SZG7Z37Q", "dateTime": 1516302274061}, {"current_trial": 68, "trialdata": {"rt": -1000, "trial_type": "single-audio", "word": "plate", "stimulus": "/static/audio/wordpool/PLATE.wav", "conditions": [18, 1200, "a", 18000], "internal_node_id": "0.0-50.0", "trial": 1, "time_elapsed": 325133, "serialpos": 13, "key_press": -1, "wordID": 1085, "type": "PRES_AUD", "trial_index": 68}, "uniqueid": "MTK1783:37ZHEEHM6XTEF7KTDK2WD8SZG7Z37Q", "dateTime": 1516302276169}, {"current_trial": 69, "trialdata": {"rt": -1000, "trial_type": "single-audio", "word": "foot", "stimulus": "/static/audio/wordpool/FOOT.wav", "conditions": [18, 1200, "a", 18000], "internal_node_id": "0.0-51.0", "trial": 1, "time_elapsed": 327265, "serialpos": 14, "key_press": -1, "wordID": 589, "type": "PRES_AUD", "trial_index": 69}, "uniqueid": "MTK1783:37ZHEEHM6XTEF7KTDK2WD8SZG7Z37Q", "dateTime": 1516302278301}, {"current_trial": 70, "trialdata": {"rt": -1000, "trial_type": "single-audio", "word": "lapel", "stimulus": "/static/audio/wordpool/LAPEL.wav", "conditions": [18, 1200, "a", 18000], "internal_node_id": "0.0-52.0", "trial": 1, "time_elapsed": 329623, "serialpos": 15, "key_press": -1, "wordID": 799, "type": "PRES_AUD", "trial_index": 70}, "uniqueid": "MTK1783:37ZHEEHM6XTEF7KTDK2WD8SZG7Z37Q", "dateTime": 1516302280659}, {"current_trial": 71, "trialdata": {"rt": -1000, "trial_type": "single-audio", "word": "playground", "stimulus": "/static/audio/wordpool/PLAYGROUND.wav", "conditions": [18, 1200, "a", 18000], "internal_node_id": "0.0-53.0", "trial": 1, "time_elapsed": 331779, "serialpos": 16, "key_press": -1, "wordID": 1086, "type": "PRES_AUD", "trial_index": 71}, "uniqueid": "MTK1783:37ZHEEHM6XTEF7KTDK2WD8SZG7Z37Q", "dateTime": 1516302282815}, {"current_trial": 72, "trialdata": {"rt": -1000, "trial_type": "single-audio", "word": "grill", "stimulus": "/static/audio/wordpool/GRILL.wav", "conditions": [18, 1200, "a", 18000], "internal_node_id": "0.0-54.0", "trial": 1, "time_elapsed": 333851, "serialpos": 17, "key_press": -1, "wordID": 660, "type": "PRES_AUD", "trial_index": 72}, "uniqueid": "MTK1783:37ZHEEHM6XTEF7KTDK2WD8SZG7Z37Q", "dateTime": 1516302284888}, {"current_trial": 73, "trialdata": {"rt": -1, "trial_type": "single-stim", "stimulus": "", "internal_node_id": "0.0-55.0-0.0", "time_elapsed": 335100, "key_press": -1, "type": "PRE_RECALL_DELAY", "trial_index": 73}, "uniqueid": "MTK1783:37ZHEEHM6XTEF7KTDK2WD8SZG7Z37Q", "dateTime": 1516302286137}, {"current_trial": 74, "trialdata": {"rt": -1000, "trial_type": "single-audio", "stimulus": "/static/audio/400Hz.wav", "internal_node_id": "0.0-56.0", "time_elapsed": 335602, "key_press": -1, "type": "PRE_RECALL_ALERT", "trial_index": 74}, "uniqueid": "MTK1783:37ZHEEHM6XTEF7KTDK2WD8SZG7Z37Q", "dateTime": 1516302286638}, {"current_trial": 75, "trialdata": {"rt": [5409, 7182, 10701, 13790, 17733, 20263, 25859], "recwords": ["foot", "grill", "plate", "eyelash", "foot", "preacher", "lagoon"], "key_times": [4468, 4626, 4811, 4915, 5409, 6130, 6336, 6487, 6685, 6852, 7182, 8364, 8562, 8678, 9020, 9254, 10701, 12427, 12542, 12670, 12889, 13001, 13129, 13502, 13790, 14511, 14663, 14844, 15764, 17733, 18439, 18660, 18741, 18852, 19077, 19673, 19777, 19917, 20020, 20092, 20263, 24710, 24837, 25088, 25266, 25441, 25585, 25859], "trial_type": "free-recall", "conditions": [18, 1200, "a", 18000], "internal_node_id": "0.0-57.0-0.0", "key_presses": [70, 79, 79, 84, 13, 71, 82, 73, 76, 76, 13, 80, 76, 65, 84, 69, 13, 69, 89, 69, 76, 65, 83, 72, 13, 70, 79, 79, 84, 13, 80, 82, 69, 65, 84, 8, 67, 72, 69, 82, 13, 76, 65, 71, 79, 79, 78, 13], "trial": 1, "time_elapsed": 395610, "type": "FREE_RECALL", "trial_index": 75}, "uniqueid": "MTK1783:37ZHEEHM6XTEF7KTDK2WD8SZG7Z37Q", "dateTime": 1516302346648}, {"current_trial": 76, "trialdata": {"rt": 3696, "trial_type": "text", "internal_node_id": "0.0-58.0", "time_elapsed": 401310, "key_press": 32, "type": "INSTRUCTIONS", "trial_index": 76}, "uniqueid": "MTK1783:37ZHEEHM6XTEF7KTDK2WD8SZG7Z37Q", "dateTime": 1516302352346}, {"current_trial": 77, "trialdata": {"rt": [2569, 6149, 7813, 10341, 12256, 13835, 16213, 18305, 23497], "trial_type": "math-distractor", "key_times": [1926, 2112, 2569, 5677, 5994, 6149, 7227, 7583, 7813, 9821, 10140, 10341, 11952, 12084, 12256, 13419, 13591, 13835, 15410, 15912, 16213, 17584, 18120, 18305, 22141, 22447, 22882, 23246, 23497], "responses": ["14", "13", "13", "29", "21", "12", "17", "15", "10"], "num2": [6, 3, 5, 5, 7, 2, 7, 4, 6, 5], "num3": [1, 7, 5, 6, 7, 2, 9, 7, 3, 7], "conditions": [24, 800, "a", 24000], "internal_node_id": "0.0-59.0", "key_presses": [49, 52, 13, 49, 51, 13, 49, 51, 13, 50, 57, 13, 50, 49, 13, 49, 50, 13, 49, 55, 13, 49, 53, 13, 49, 57, 8, 48, 13], "trial": 2, "time_elapsed": 426315, "type": "DISTRACTOR", "trial_index": 77, "num1": [7, 3, 3, 9, 7, 8, 1, 4, 1, 4]}, "uniqueid": "MTK1783:37ZHEEHM6XTEF7KTDK2WD8SZG7Z37Q", "dateTime": 1516302377351}, {"current_trial": 78, "trialdata": {"rt": -1, "trial_type": "single-stim", "stimulus": "<p id=\"stim\">10</p>", "internal_node_id": "0.0-60.0-0.0", "time_elapsed": 429321, "key_press": -1, "trial_index": 78}, "uniqueid": "MTK1783:37ZHEEHM6XTEF7KTDK2WD8SZG7Z37Q", "dateTime": 1516302380359}, {"current_trial": 79, "trialdata": {"rt": -1, "trial_type": "single-stim", "stimulus": "<p id=\"stim\">9</p>", "internal_node_id": "0.0-60.0-1.0", "time_elapsed": 430325, "key_press": -1, "trial_index": 79}, "uniqueid": "MTK1783:37ZHEEHM6XTEF7KTDK2WD8SZG7Z37Q", "dateTime": 1516302381361}, {"current_trial": 80, "trialdata": {"rt": -1, "trial_type": "single-stim", "stimulus": "<p id=\"stim\">8</p>", "internal_node_id": "0.0-60.0-2.0", "time_elapsed": 431329, "key_press": -1, "trial_index": 80}, "uniqueid": "MTK1783:37ZHEEHM6XTEF7KTDK2WD8SZG7Z37Q", "dateTime": 1516302382365}, {"current_trial": 81, "trialdata": {"rt": -1, "trial_type": "single-stim", "stimulus": "<p id=\"stim\">7</p>", "internal_node_id": "0.0-60.0-3.0", "time_elapsed": 432331, "key_press": -1, "trial_index": 81}, "uniqueid": "MTK1783:37ZHEEHM6XTEF7KTDK2WD8SZG7Z37Q", "dateTime": 1516302383368}, {"current_trial": 82, "trialdata": {"rt": -1, "trial_type": "single-stim", "stimulus": "<p id=\"stim\">6</p>", "internal_node_id": "0.0-60.0-4.0", "time_elapsed": 433337, "key_press": -1, "trial_index": 82}, "uniqueid": "MTK1783:37ZHEEHM6XTEF7KTDK2WD8SZG7Z37Q", "dateTime": 1516302384373}, {"current_trial": 83, "trialdata": {"rt": -1, "trial_type": "single-stim", "stimulus": "<p id=\"stim\">5</p>", "internal_node_id": "0.0-60.0-5.0", "time_elapsed": 434339, "key_press": -1, "trial_index": 83}, "uniqueid": "MTK1783:37ZHEEHM6XTEF7KTDK2WD8SZG7Z37Q", "dateTime": 1516302385375}, {"current_trial": 84, "trialdata": {"rt": -1, "trial_type": "single-stim", "stimulus": "<p id=\"stim\">4</p>", "internal_node_id": "0.0-60.0-6.0", "time_elapsed": 435340, "key_press": -1, "trial_index": 84}, "uniqueid": "MTK1783:37ZHEEHM6XTEF7KTDK2WD8SZG7Z37Q", "dateTime": 1516302386377}, {"current_trial": 85, "trialdata": {"rt": -1, "trial_type": "single-stim", "stimulus": "<p id=\"stim\">3</p>", "internal_node_id": "0.0-60.0-7.0", "time_elapsed": 436343, "key_press": -1, "trial_index": 85}, "uniqueid": "MTK1783:37ZHEEHM6XTEF7KTDK2WD8SZG7Z37Q", "dateTime": 1516302387379}, {"current_trial": 86, "trialdata": {"rt": -1, "trial_type": "single-stim", "stimulus": "<p id=\"stim\">2</p>", "internal_node_id": "0.0-60.0-8.0", "time_elapsed": 437346, "key_press": -1, "trial_index": 86}, "uniqueid": "MTK1783:37ZHEEHM6XTEF7KTDK2WD8SZG7Z37Q", "dateTime": 1516302388382}, {"current_trial": 87, "trialdata": {"rt": -1, "trial_type": "single-stim", "stimulus": "<p id=\"stim\">1</p>", "internal_node_id": "0.0-60.0-9.0", "time_elapsed": 438347, "key_press": -1, "trial_index": 87}, "uniqueid": "MTK1783:37ZHEEHM6XTEF7KTDK2WD8SZG7Z37Q", "dateTime": 1516302389383}, {"current_trial": 88, "trialdata": {"rt": -1, "trial_type": "single-stim", "stimulus": "<p id=\"stim\">+</p>", "internal_node_id": "0.0-61.0-0.0", "time_elapsed": 439849, "key_press": -1, "type": "FIXATION", "trial_index": 88}, "uniqueid": "MTK1783:37ZHEEHM6XTEF7KTDK2WD8SZG7Z37Q", "dateTime": 1516302390885}, {"current_trial": 89, "trialdata": {"rt": -1000, "trial_type": "single-audio", "word": "fox", "stimulus": "/static/audio/wordpool/FOX.wav", "conditions": [24, 800, "a", 24000], "internal_node_id": "0.0-62.0", "trial": 2, "time_elapsed": 441826, "serialpos": 0, "key_press": -1, "wordID": 597, "type": "PRES_AUD", "trial_index": 89}, "uniqueid": "MTK1783:37ZHEEHM6XTEF7KTDK2WD8SZG7Z37Q", "dateTime": 1516302392862}, {"current_trial": 90, "trialdata": {"rt": -1000, "trial_type": "single-audio", "word": "rattle", "stimulus": "/static/audio/wordpool/RATTLE.wav", "conditions": [24, 800, "a", 24000], "internal_node_id": "0.0-63.0", "trial": 2, "time_elapsed": 443629, "serialpos": 1, "key_press": -1, "wordID": 1169, "type": "PRES_AUD", "trial_index": 90}, "uniqueid": "MTK1783:37ZHEEHM6XTEF7KTDK2WD8SZG7Z37Q", "dateTime": 1516302394665}, {"current_trial": 91, "trialdata": {"rt": -1000, "trial_type": "single-audio", "word": "doughnut", "stimulus": "/static/audio/wordpool/DOUGHNUT.wav", "conditions": [24, 800, "a", 24000], "internal_node_id": "0.0-64.0", "trial": 2, "time_elapsed": 445469, "serialpos": 2, "key_press": -1, "wordID": 489, "type": "PRES_AUD", "trial_index": 91}, "uniqueid": "MTK1783:37ZHEEHM6XTEF7KTDK2WD8SZG7Z37Q", "dateTime": 1516302396505}, {"current_trial": 92, "trialdata": {"rt": -1000, "trial_type": "single-audio", "word": "pizza", "stimulus": "/static/audio/wordpool/PIZZA.wav", "conditions": [24, 800, "a", 24000], "internal_node_id": "0.0-65.0", "trial": 2, "time_elapsed": 447303, "serialpos": 3, "key_press": -1, "wordID": 1078, "type": "PRES_AUD", "trial_index": 92}, "uniqueid": "MTK1783:37ZHEEHM6XTEF7KTDK2WD8SZG7Z37Q", "dateTime": 1516302398339}, {"current_trial": 93, "trialdata": {"rt": -1000, "trial_type": "single-audio", "word": "guard", "stimulus": "/static/audio/wordpool/GUARD.wav", "conditions": [24, 800, "a", 24000], "internal_node_id": "0.0-66.0", "trial": 2, "time_elapsed": 449151, "serialpos": 4, "key_press": -1, "wordID": 666, "type": "PRES_AUD", "trial_index": 93}, "uniqueid": "MTK1783:37ZHEEHM6XTEF7KTDK2WD8SZG7Z37Q", "dateTime": 1516302400187}, {"current_trial": 94, "trialdata": {"rt": -1000, "trial_type": "single-audio", "word": "tile", "stimulus": "/static/audio/wordpool/TILE.wav", "conditions": [24, 800, "a", 24000], "internal_node_id": "0.0-67.0", "trial": 2, "time_elapsed": 450974, "serialpos": 5, "key_press": -1, "wordID": 1467, "type": "PRES_AUD", "trial_index": 94}, "uniqueid": "MTK1783:37ZHEEHM6XTEF7KTDK2WD8SZG7Z37Q", "dateTime": 1516302402010}, {"current_trial": 95, "trialdata": {"rt": -1000, "trial_type": "single-audio", "word": "infant", "stimulus": "/static/audio/wordpool/INFANT.wav", "conditions": [24, 800, "a", 24000], "internal_node_id": "0.0-68.0", "trial": 2, "time_elapsed": 452646, "serialpos": 6, "key_press": -1, "wordID": 736, "type": "PRES_AUD", "trial_index": 95}, "uniqueid": "MTK1783:37ZHEEHM6XTEF7KTDK2WD8SZG7Z37Q", "dateTime": 1516302403682}, {"current_trial": 96, "trialdata": {"rt": -1000, "trial_type": "single-audio", "word": "ozone", "stimulus": "/static/audio/wordpool/OZONE.wav", "conditions": [24, 800, "a", 24000], "internal_node_id": "0.0-69.0", "trial": 2, "time_elapsed": 454578, "serialpos": 7, "key_press": -1, "wordID": 995, "type": "PRES_AUD", "trial_index": 96}, "uniqueid": "MTK1783:37ZHEEHM6XTEF7KTDK2WD8SZG7Z37Q", "dateTime": 1516302405614}, {"current_trial": 97, "trialdata": {"rt": -1000, "trial_type": "single-audio", "word": "tourist", "stimulus": "/static/audio/wordpool/TOURIST.wav", "conditions": [24, 800, "a", 24000], "internal_node_id": "0.0-70.0", "trial": 2, "time_elapsed": 456230, "serialpos": 8, "key_press": -1, "wordID": 1487, "type": "PRES_AUD", "trial_index": 97}, "uniqueid": "MTK1783:37ZHEEHM6XTEF7KTDK2WD8SZG7Z37Q", "dateTime": 1516302407266}, {"current_trial": 98, "trialdata": {"rt": -1000, "trial_type": "single-audio", "word": "robin", "stimulus": "/static/audio/wordpool/ROBIN.wav", "conditions": [24, 800, "a", 24000], "internal_node_id": "0.0-71.0", "trial": 2, "time_elapsed": 458197, "serialpos": 9, "key_press": -1, "wordID": 1198, "type": "PRES_AUD", "trial_index": 98}, "uniqueid": "MTK1783:37ZHEEHM6XTEF7KTDK2WD8SZG7Z37Q", "dateTime": 1516302409233}, {"current_trial": 99, "trialdata": {"rt": -1000, "trial_type": "single-audio", "word": "pasta", "stimulus": "/static/audio/wordpool/PASTA.wav", "conditions": [24, 800, "a", 24000], "internal_node_id": "0.0-72.0", "trial": 2, "time_elapsed": 459954, "serialpos": 10, "key_press": -1, "wordID": 1020, "type": "PRES_AUD", "trial_index": 99}, "uniqueid": "MTK1783:37ZHEEHM6XTEF7KTDK2WD8SZG7Z37Q", "dateTime": 1516302410990}, {"current_trial": 100, "trialdata": {"rt": -1000, "trial_type": "single-audio", "word": "powder", "stimulus": "/static/audio/wordpool/POWDER.wav", "conditions": [24, 800, "a", 24000], "internal_node_id": "0.0-73.0", "trial": 2, "time_elapsed": 461603, "serialpos": 11, "key_press": -1, "wordID": 1116, "type": "PRES_AUD", "trial_index": 100}, "uniqueid": "MTK1783:37ZHEEHM6XTEF7KTDK2WD8SZG7Z37Q", "dateTime": 1516302412639}, {"current_trial": 101, "trialdata": {"rt": -1000, "trial_type": "single-audio", "word": "banker", "stimulus": "/static/audio/wordpool/BANKER.wav", "conditions": [24, 800, "a", 24000], "internal_node_id": "0.0-74.0", "trial": 2, "time_elapsed": 463389, "serialpos": 12, "key_press": -1, "wordID": 83, "type": "PRES_AUD", "trial_index": 101}, "uniqueid": "MTK1783:37ZHEEHM6XTEF7KTDK2WD8SZG7Z37Q", "dateTime": 1516302414425}, {"current_trial": 102, "trialdata": {"rt": -1000, "trial_type": "single-audio", "word": "beaver", "stimulus": "/static/audio/wordpool/BEAVER.wav", "conditions": [24, 800, "a", 24000], "internal_node_id": "0.0-75.0", "trial": 2, "time_elapsed": 465208, "serialpos": 13, "key_press": -1, "wordID": 108, "type": "PRES_AUD", "trial_index": 102}, "uniqueid": "MTK1783:37ZHEEHM6XTEF7KTDK2WD8SZG7Z37Q", "dateTime": 1516302416244}, {"current_trial": 103, "trialdata": {"rt": -1000, "trial_type": "single-audio", "word": "rabbit", "stimulus": "/static/audio/wordpool/RABBIT.wav", "conditions": [24, 800, "a", 24000], "internal_node_id": "0.0-76.0", "trial": 2, "time_elapsed": 467141, "serialpos": 14, "key_press": -1, "wordID": 1151, "type": "PRES_AUD", "trial_index": 103}, "uniqueid": "MTK1783:37ZHEEHM6XTEF7KTDK2WD8SZG7Z37Q", "dateTime": 1516302418177}, {"current_trial": 104, "trialdata": {"rt": -1000, "trial_type": "single-audio", "word": "globe", "stimulus": "/static/audio/wordpool/GLOBE.wav", "conditions": [24, 800, "a", 24000], "internal_node_id": "0.0-77.0", "trial": 2, "time_elapsed": 468979, "serialpos": 15, "key_press": -1, "wordID": 640, "type": "PRES_AUD", "trial_index": 104}, "uniqueid": "MTK1783:37ZHEEHM6XTEF7KTDK2WD8SZG7Z37Q", "dateTime": 1516302420015}, {"current_trial": 105, "trialdata": {"rt": -1000, "trial_type": "single-audio", "word": "bank", "stimulus": "/static/audio/wordpool/BANK.wav", "conditions": [24, 800, "a", 24000], "internal_node_id": "0.0-78.0", "trial": 2, "time_elapsed": 470646, "serialpos": 16, "key_press": -1, "wordID": 82, "type": "PRES_AUD", "trial_index": 105}, "uniqueid": "MTK1783:37ZHEEHM6XTEF7KTDK2WD8SZG7Z37Q", "dateTime": 1516302421682}, {"current_trial": 106, "trialdata": {"rt": -1000, "trial_type": "single-audio", "word": "critic", "stimulus": "/static/audio/wordpool/CRITIC.wav", "conditions": [24, 800, "a", 24000], "internal_node_id": "0.0-79.0", "trial": 2, "time_elapsed": 472597, "serialpos": 17, "key_press": -1, "wordID": 409, "type": "PRES_AUD", "trial_index": 106}, "uniqueid": "MTK1783:37ZHEEHM6XTEF7KTDK2WD8SZG7Z37Q", "dateTime": 1516302423633}, {"current_trial": 107, "trialdata": {"rt": -1000, "trial_type": "single-audio", "word": "scallop", "stimulus": "/static/audio/wordpool/SCALLOP.wav", "conditions": [24, 800, "a", 24000], "internal_node_id": "0.0-80.0", "trial": 2, "time_elapsed": 474524, "serialpos": 18, "key_press": -1, "wordID": 1241, "type": "PRES_AUD", "trial_index": 107}, "uniqueid": "MTK1783:37ZHEEHM6XTEF7KTDK2WD8SZG7Z37Q", "dateTime": 1516302425560}, {"current_trial": 108, "trialdata": {"rt": -1000, "trial_type": "single-audio", "word": "human", "stimulus": "/static/audio/wordpool/HUMAN.wav", "conditions": [24, 800, "a", 24000], "internal_node_id": "0.0-81.0", "trial": 2, "time_elapsed": 476203, "serialpos": 19, "key_press": -1, "wordID": 725, "type": "PRES_AUD", "trial_index": 108}, "uniqueid": "MTK1783:37ZHEEHM6XTEF7KTDK2WD8SZG7Z37Q", "dateTime": 1516302427239}, {"current_trial": 109, "trialdata": {"rt": -1000, "trial_type": "single-audio", "word": "yacht", "stimulus": "/static/audio/wordpool/YACHT.wav", "conditions": [24, 800, "a", 24000], "internal_node_id": "0.0-82.0", "trial": 2, "time_elapsed": 478134, "serialpos": 20, "key_press": -1, "wordID": 1628, "type": "PRES_AUD", "trial_index": 109}, "uniqueid": "MTK1783:37ZHEEHM6XTEF7KTDK2WD8SZG7Z37Q", "dateTime": 1516302429170}, {"current_trial": 110, "trialdata": {"rt": -1000, "trial_type": "single-audio", "word": "outdoors", "stimulus": "/static/audio/wordpool/OUTDOORS.wav", "conditions": [24, 800, "a", 24000], "internal_node_id": "0.0-83.0", "trial": 2, "time_elapsed": 479920, "serialpos": 21, "key_press": -1, "wordID": 986, "type": "PRES_AUD", "trial_index": 110}, "uniqueid": "MTK1783:37ZHEEHM6XTEF7KTDK2WD8SZG7Z37Q", "dateTime": 1516302430956}, {"current_trial": 111, "trialdata": {"rt": -1000, "trial_type": "single-audio", "word": "garden", "stimulus": "/static/audio/wordpool/GARDEN.wav", "conditions": [24, 800, "a", 24000], "internal_node_id": "0.0-84.0", "trial": 2, "time_elapsed": 481882, "serialpos": 22, "key_press": -1, "wordID": 622, "type": "PRES_AUD", "trial_index": 111}, "uniqueid": "MTK1783:37ZHEEHM6XTEF7KTDK2WD8SZG7Z37Q", "dateTime": 1516302432918}, {"current_trial": 112, "trialdata": {"rt": -1000, "trial_type": "single-audio", "word": "cookbook", "stimulus": "/static/audio/wordpool/COOKBOOK.wav", "conditions": [24, 800, "a", 24000], "internal_node_id": "0.0-85.0", "trial": 2, "time_elapsed": 483599, "serialpos": 23, "key_press": -1, "wordID": 372, "type": "PRES_AUD", "trial_index": 112}, "uniqueid": "MTK1783:37ZHEEHM6XTEF7KTDK2WD8SZG7Z37Q", "dateTime": 1516302434635}, {"current_trial": 113, "trialdata": {"rt": -1, "trial_type": "single-stim", "stimulus": "", "internal_node_id": "0.0-86.0-0.0", "time_elapsed": 484899, "key_press": -1, "type": "PRE_RECALL_DELAY", "trial_index": 113}, "uniqueid": "MTK1783:37ZHEEHM6XTEF7KTDK2WD8SZG7Z37Q", "dateTime": 1516302435935}, {"current_trial": 114, "trialdata": {"rt": -1000, "trial_type": "single-audio", "stimulus": "/static/audio/400Hz.wav", "internal_node_id": "0.0-87.0", "time_elapsed": 485401, "key_press": -1, "type": "PRE_RECALL_ALERT", "trial_index": 114}, "uniqueid": "MTK1783:37ZHEEHM6XTEF7KTDK2WD8SZG7Z37Q", "dateTime": 1516302436437}, {"current_trial": 115, "trialdata": {"rt": [3260, 5082, 6950, 9311, 13568, 16292, 18849], "recwords": ["pizza", "pasta", "baker", "fox", "tourist", "human", "tile"], "key_times": [1873, 2035, 2275, 2433, 2968, 3260, 4017, 4215, 4428, 4673, 4833, 5082, 5995, 6102, 6298, 6398, 6490, 6950, 8667, 8839, 9034, 9311, 11864, 12060, 12171, 12343, 12562, 12690, 12908, 13568, 14138, 14393, 14638, 14842, 15046, 16292, 16775, 16868, 17067, 17523, 18849], "trial_type": "free-recall", "conditions": [24, 800, "a", 24000], "internal_node_id": "0.0-88.0-0.0", "key_presses": [80, 73, 90, 90, 65, 13, 80, 65, 83, 84, 65, 13, 66, 65, 75, 69, 82, 13, 70, 79, 88, 13, 84, 79, 85, 82, 73, 83, 84, 13, 72, 85, 77, 65, 78, 13, 84, 73, 76, 69, 13], "trial": 2, "time_elapsed": 545406, "type": "FREE_RECALL", "trial_index": 115}, "uniqueid": "MTK1783:37ZHEEHM6XTEF7KTDK2WD8SZG7Z37Q", "dateTime": 1516302496445}, {"current_trial": 116, "trialdata": {"rt": 2030, "trial_type": "text", "internal_node_id": "0.0-89.0", "time_elapsed": 549443, "key_press": 32, "type": "INSTRUCTIONS", "trial_index": 116}, "uniqueid": "MTK1783:37ZHEEHM6XTEF7KTDK2WD8SZG7Z37Q", "dateTime": 1516302500480}, {"current_trial": 117, "trialdata": {"rt": [2761, 5393, 7792, 11696, 13940, 16193, 18584, 20558, 22447], "trial_type": "math-distractor", "key_times": [2097, 2466, 2761, 4679, 5236, 5393, 7350, 7607, 7792, 11289, 11498, 11696, 13345, 13691, 13940, 15517, 15980, 16193, 17952, 18368, 18584, 20289, 20558, 22033, 22165, 22447], "responses": ["19", "16", "12", "23", "14", "13", "16", "9", "12"], "num2": [9, 3, 6, 7, 4, 4, 7, 2, 3, 3], "num3": [8, 7, 5, 8, 1, 4, 7, 5, 7, 7], "conditions": [12, 800, "a", 24000], "internal_node_id": "0.0-90.0", "key_presses": [49, 57, 13, 49, 54, 13, 49, 50, 13, 50, 51, 13, 49, 52, 13, 49, 51, 13, 49, 54, 13, 57, 13, 49, 50, 13], "trial": 3, "time_elapsed": 575449, "type": "DISTRACTOR", "trial_index": 117, "num1": [2, 6, 1, 8, 9, 5, 2, 2, 2, 4]}, "uniqueid": "MTK1783:37ZHEEHM6XTEF7KTDK2WD8SZG7Z37Q", "dateTime": 1516302526485}, {"current_trial": 118, "trialdata": {"rt": -1, "trial_type": "single-stim", "stimulus": "<p id=\"stim\">10</p>", "internal_node_id": "0.0-91.0-0.0", "time_elapsed": 578452, "key_press": -1, "trial_index": 118}, "uniqueid": "MTK1783:37ZHEEHM6XTEF7KTDK2WD8SZG7Z37Q", "dateTime": 1516302529488}, {"current_trial": 119, "trialdata": {"rt": -1, "trial_type": "single-stim", "stimulus": "<p id=\"stim\">9</p>", "internal_node_id": "0.0-91.0-1.0", "time_elapsed": 579453, "key_press": -1, "trial_index": 119}, "uniqueid": "MTK1783:37ZHEEHM6XTEF7KTDK2WD8SZG7Z37Q", "dateTime": 1516302530490}, {"current_trial": 120, "trialdata": {"rt": -1, "trial_type": "single-stim", "stimulus": "<p id=\"stim\">8</p>", "internal_node_id": "0.0-91.0-2.0", "time_elapsed": 580458, "key_press": -1, "trial_index": 120}, "uniqueid": "MTK1783:37ZHEEHM6XTEF7KTDK2WD8SZG7Z37Q", "dateTime": 1516302531494}, {"current_trial": 121, "trialdata": {"rt": -1, "trial_type": "single-stim", "stimulus": "<p id=\"stim\">7</p>", "internal_node_id": "0.0-91.0-3.0", "time_elapsed": 581462, "key_press": -1, "trial_index": 121}, "uniqueid": "MTK1783:37ZHEEHM6XTEF7KTDK2WD8SZG7Z37Q", "dateTime": 1516302532498}, {"current_trial": 122, "trialdata": {"rt": -1, "trial_type": "single-stim", "stimulus": "<p id=\"stim\">6</p>", "internal_node_id": "0.0-91.0-4.0", "time_elapsed": 582466, "key_press": -1, "trial_index": 122}, "uniqueid": "MTK1783:37ZHEEHM6XTEF7KTDK2WD8SZG7Z37Q", "dateTime": 1516302533502}, {"current_trial": 123, "trialdata": {"rt": -1, "trial_type": "single-stim", "stimulus": "<p id=\"stim\">5</p>", "internal_node_id": "0.0-91.0-5.0", "time_elapsed": 583467, "key_press": -1, "trial_index": 123}, "uniqueid": "MTK1783:37ZHEEHM6XTEF7KTDK2WD8SZG7Z37Q", "dateTime": 1516302534503}, {"current_trial": 124, "trialdata": {"rt": -1, "trial_type": "single-stim", "stimulus": "<p id=\"stim\">4</p>", "internal_node_id": "0.0-91.0-6.0", "time_elapsed": 584468, "key_press": -1, "trial_index": 124}, "uniqueid": "MTK1783:37ZHEEHM6XTEF7KTDK2WD8SZG7Z37Q", "dateTime": 1516302535504}, {"current_trial": 125, "trialdata": {"rt": -1, "trial_type": "single-stim", "stimulus": "<p id=\"stim\">3</p>", "internal_node_id": "0.0-91.0-7.0", "time_elapsed": 585469, "key_press": -1, "trial_index": 125}, "uniqueid": "MTK1783:37ZHEEHM6XTEF7KTDK2WD8SZG7Z37Q", "dateTime": 1516302536505}, {"current_trial": 126, "trialdata": {"rt": -1, "trial_type": "single-stim", "stimulus": "<p id=\"stim\">2</p>", "internal_node_id": "0.0-91.0-8.0", "time_elapsed": 586471, "key_press": -1, "trial_index": 126}, "uniqueid": "MTK1783:37ZHEEHM6XTEF7KTDK2WD8SZG7Z37Q", "dateTime": 1516302537507}, {"current_trial": 127, "trialdata": {"rt": -1, "trial_type": "single-stim", "stimulus": "<p id=\"stim\">1</p>", "internal_node_id": "0.0-91.0-9.0", "time_elapsed": 587473, "key_press": -1, "trial_index": 127}, "uniqueid": "MTK1783:37ZHEEHM6XTEF7KTDK2WD8SZG7Z37Q", "dateTime": 1516302538509}, {"current_trial": 128, "trialdata": {"rt": -1, "trial_type": "single-stim", "stimulus": "<p id=\"stim\">+</p>", "internal_node_id": "0.0-92.0-0.0", "time_elapsed": 588975, "key_press": -1, "type": "FIXATION", "trial_index": 128}, "uniqueid": "MTK1783:37ZHEEHM6XTEF7KTDK2WD8SZG7Z37Q", "dateTime": 1516302540011}, {"current_trial": 129, "trialdata": {"rt": -1000, "trial_type": "single-audio", "word": "cross", "stimulus": "/static/audio/wordpool/CROSS.wav", "conditions": [12, 800, "a", 24000], "internal_node_id": "0.0-93.0", "trial": 3, "time_elapsed": 590620, "serialpos": 0, "key_press": -1, "wordID": 412, "type": "PRES_AUD", "trial_index": 129}, "uniqueid": "MTK1783:37ZHEEHM6XTEF7KTDK2WD8SZG7Z37Q", "dateTime": 1516302541656}, {"current_trial": 130, "trialdata": {"rt": -1000, "trial_type": "single-audio", "word": "guitar", "stimulus": "/static/audio/wordpool/GUITAR.wav", "conditions": [12, 800, "a", 24000], "internal_node_id": "0.0-94.0", "trial": 3, "time_elapsed": 592278, "serialpos": 1, "key_press": -1, "wordID": 669, "type": "PRES_AUD", "trial_index": 130}, "uniqueid": "MTK1783:37ZHEEHM6XTEF7KTDK2WD8SZG7Z37Q", "dateTime": 1516302543314}, {"current_trial": 131, "trialdata": {"rt": -1000, "trial_type": "single-audio", "word": "flask", "stimulus": "/static/audio/wordpool/FLASK.wav", "conditions": [12, 800, "a", 24000], "internal_node_id": "0.0-95.0", "trial": 3, "time_elapsed": 594172, "serialpos": 2, "key_press": -1, "wordID": 575, "type": "PRES_AUD", "trial_index": 131}, "uniqueid": "MTK1783:37ZHEEHM6XTEF7KTDK2WD8SZG7Z37Q", "dateTime": 1516302545208}, {"current_trial": 132, "trialdata": {"rt": -1000, "trial_type": "single-audio", "word": "brandy", "stimulus": "/static/audio/wordpool/BRANDY.wav", "conditions": [12, 800, "a", 24000], "internal_node_id": "0.0-96.0", "trial": 3, "time_elapsed": 596164, "serialpos": 3, "key_press": -1, "wordID": 168, "type": "PRES_AUD", "trial_index": 132}, "uniqueid": "MTK1783:37ZHEEHM6XTEF7KTDK2WD8SZG7Z37Q", "dateTime": 1516302547200}, {"current_trial": 133, "trialdata": {"rt": -1000, "trial_type": "single-audio", "word": "cupboard", "stimulus": "/static/audio/wordpool/CUPBOARD.wav", "conditions": [12, 800, "a", 24000], "internal_node_id": "0.0-97.0", "trial": 3, "time_elapsed": 598093, "serialpos": 4, "key_press": -1, "wordID": 424, "type": "PRES_AUD", "trial_index": 133}, "uniqueid": "MTK1783:37ZHEEHM6XTEF7KTDK2WD8SZG7Z37Q", "dateTime": 1516302549129}, {"current_trial": 134, "trialdata": {"rt": -1000, "trial_type": "single-audio", "word": "liver", "stimulus": "/static/audio/wordpool/LIVER.wav", "conditions": [12, 800, "a", 24000], "internal_node_id": "0.0-98.0", "trial": 3, "time_elapsed": 599791, "serialpos": 5, "key_press": -1, "wordID": 832, "type": "PRES_AUD", "trial_index": 134}, "uniqueid": "MTK1783:37ZHEEHM6XTEF7KTDK2WD8SZG7Z37Q", "dateTime": 1516302550827}, {"current_trial": 135, "trialdata": {"rt": -1000, "trial_type": "single-audio", "word": "typist", "stimulus": "/static/audio/wordpool/TYPIST.wav", "conditions": [12, 800, "a", 24000], "internal_node_id": "0.0-99.0", "trial": 3, "time_elapsed": 601686, "serialpos": 6, "key_press": -1, "wordID": 1531, "type": "PRES_AUD", "trial_index": 135}, "uniqueid": "MTK1783:37ZHEEHM6XTEF7KTDK2WD8SZG7Z37Q", "dateTime": 1516302552722}, {"current_trial": 136, "trialdata": {"rt": -1000, "trial_type": "single-audio", "word": "jury", "stimulus": "/static/audio/wordpool/JURY.wav", "conditions": [12, 800, "a", 24000], "internal_node_id": "0.0-100.0", "trial": 3, "time_elapsed": 603558, "serialpos": 7, "key_press": -1, "wordID": 765, "type": "PRES_AUD", "trial_index": 136}, "uniqueid": "MTK1783:37ZHEEHM6XTEF7KTDK2WD8SZG7Z37Q", "dateTime": 1516302554595}, {"current_trial": 137, "trialdata": {"rt": -1000, "trial_type": "single-audio", "word": "pork", "stimulus": "/static/audio/wordpool/PORK.wav", "conditions": [12, 800, "a", 24000], "internal_node_id": "0.0-101.0", "trial": 3, "time_elapsed": 605400, "serialpos": 8, "key_press": -1, "wordID": 1107, "type": "PRES_AUD", "trial_index": 137}, "uniqueid": "MTK1783:37ZHEEHM6XTEF7KTDK2WD8SZG7Z37Q", "dateTime": 1516302556437}, {"current_trial": 138, "trialdata": {"rt": -1000, "trial_type": "single-audio", "word": "turkey", "stimulus": "/static/audio/wordpool/TURKEY.wav", "conditions": [12, 800, "a", 24000], "internal_node_id": "0.0-102.0", "trial": 3, "time_elapsed": 607343, "serialpos": 9, "key_press": -1, "wordID": 1519, "type": "PRES_AUD", "trial_index": 138}, "uniqueid": "MTK1783:37ZHEEHM6XTEF7KTDK2WD8SZG7Z37Q", "dateTime": 1516302558379}, {"current_trial": 139, "trialdata": {"rt": -1000, "trial_type": "single-audio", "word": "cod", "stimulus": "/static/audio/wordpool/COD.wav", "conditions": [12, 800, "a", 24000], "internal_node_id": "0.0-103.0", "trial": 3, "time_elapsed": 609027, "serialpos": 10, "key_press": -1, "wordID": 339, "type": "PRES_AUD", "trial_index": 139}, "uniqueid": "MTK1783:37ZHEEHM6XTEF7KTDK2WD8SZG7Z37Q", "dateTime": 1516302560063}, {"current_trial": 140, "trialdata": {"rt": -1000, "trial_type": "single-audio", "word": "harp", "stimulus": "/static/audio/wordpool/HARP.wav", "conditions": [12, 800, "a", 24000], "internal_node_id": "0.0-104.0", "trial": 3, "time_elapsed": 610736, "serialpos": 11, "key_press": -1, "wordID": 688, "type": "PRES_AUD", "trial_index": 140}, "uniqueid": "MTK1783:37ZHEEHM6XTEF7KTDK2WD8SZG7Z37Q", "dateTime": 1516302561772}, {"current_trial": 141, "trialdata": {"rt": -1, "trial_type": "single-stim", "stimulus": "", "internal_node_id": "0.0-105.0-0.0", "time_elapsed": 612131, "key_press": -1, "type": "PRE_RECALL_DELAY", "trial_index": 141}, "uniqueid": "MTK1783:37ZHEEHM6XTEF7KTDK2WD8SZG7Z37Q", "dateTime": 1516302563168}, {"current_trial": 142, "trialdata": {"rt": -1000, "trial_type": "single-audio", "stimulus": "/static/audio/400Hz.wav", "internal_node_id": "0.0-106.0", "time_elapsed": 612632, "key_press": -1, "type": "PRE_RECALL_ALERT", "trial_index": 142}, "uniqueid": "MTK1783:37ZHEEHM6XTEF7KTDK2WD8SZG7Z37Q", "dateTime": 1516302563668}, {"current_trial": 143, "trialdata": {"rt": [5726, 7608, 10035, 12214, 13803, 20991], "recwords": ["harp", "guitar", "jury", "typist", "cross", "turkey"], "key_times": [3709, 4055, 4249, 4405, 4724, 5142, 5272, 5399, 5726, 6435, 6535, 6619, 6747, 7004, 7260, 7608, 9016, 9267, 9502, 9648, 10035, 10481, 10602, 10717, 10926, 11082, 11303, 12214, 12615, 12860, 12998, 13131, 13306, 13803, 19761, 19946, 20104, 20237, 20550, 20703, 20991], "trial_type": "free-recall", "conditions": [12, 800, "a", 24000], "internal_node_id": "0.0-107.0-0.0", "key_presses": [71, 8, 72, 65, 80, 8, 82, 80, 13, 71, 85, 73, 84, 65, 82, 13, 74, 85, 82, 89, 13, 84, 89, 80, 73, 83, 84, 13, 67, 82, 79, 83, 83, 13, 84, 85, 82, 75, 69, 89, 13], "trial": 3, "time_elapsed": 672637, "type": "FREE_RECALL", "trial_index": 143}, "uniqueid": "MTK1783:37ZHEEHM6XTEF7KTDK2WD8SZG7Z37Q", "dateTime": 1516302623676}, {"current_trial": 144, "trialdata": {"rt": 3748, "trial_type": "text", "internal_node_id": "0.0-108.0", "time_elapsed": 678390, "key_press": 32, "type": "INSTRUCTIONS", "trial_index": 144}, "uniqueid": "MTK1783:37ZHEEHM6XTEF7KTDK2WD8SZG7Z37Q", "dateTime": 1516302629426}, {"current_trial": 145, "trialdata": {"rt": [3778, 6406, 8764, 10395], "trial_type": "math-distractor", "key_times": [3136, 3488, 3778, 6142, 6406, 7857, 8137, 8764, 10135, 10395], "responses": ["22", "8", "13", "8"], "num2": [9, 2, 3, 3, 2], "num3": [8, 3, 1, 1, 6], "conditions": [12, 1600, "a", 12000], "internal_node_id": "0.0-109.0", "key_presses": [50, 50, 13, 56, 13, 49, 51, 13, 56, 13], "trial": 4, "time_elapsed": 692398, "type": "DISTRACTOR", "trial_index": 145, "num1": [5, 3, 9, 4, 5]}, "uniqueid": "MTK1783:37ZHEEHM6XTEF7KTDK2WD8SZG7Z37Q", "dateTime": 1516302643434}, {"current_trial": 146, "trialdata": {"rt": -1, "trial_type": "single-stim", "stimulus": "<p id=\"stim\">10</p>", "internal_node_id": "0.0-110.0-0.0", "time_elapsed": 695403, "key_press": -1, "trial_index": 146}, "uniqueid": "MTK1783:37ZHEEHM6XTEF7KTDK2WD8SZG7Z37Q", "dateTime": 1516302646439}, {"current_trial": 147, "trialdata": {"rt": -1, "trial_type": "single-stim", "stimulus": "<p id=\"stim\">9</p>", "internal_node_id": "0.0-110.0-1.0", "time_elapsed": 696404, "key_press": -1, "trial_index": 147}, "uniqueid": "MTK1783:37ZHEEHM6XTEF7KTDK2WD8SZG7Z37Q", "dateTime": 1516302647440}, {"current_trial": 148, "trialdata": {"rt": -1, "trial_type": "single-stim", "stimulus": "<p id=\"stim\">8</p>", "internal_node_id": "0.0-110.0-2.0", "time_elapsed": 697407, "key_press": -1, "trial_index": 148}, "uniqueid": "MTK1783:37ZHEEHM6XTEF7KTDK2WD8SZG7Z37Q", "dateTime": 1516302648443}, {"current_trial": 149, "trialdata": {"rt": -1, "trial_type": "single-stim", "stimulus": "<p id=\"stim\">7</p>", "internal_node_id": "0.0-110.0-3.0", "time_elapsed": 698411, "key_press": -1, "trial_index": 149}, "uniqueid": "MTK1783:37ZHEEHM6XTEF7KTDK2WD8SZG7Z37Q", "dateTime": 1516302649447}, {"current_trial": 150, "trialdata": {"rt": -1, "trial_type": "single-stim", "stimulus": "<p id=\"stim\">6</p>", "internal_node_id": "0.0-110.0-4.0", "time_elapsed": 699415, "key_press": -1, "trial_index": 150}, "uniqueid": "MTK1783:37ZHEEHM6XTEF7KTDK2WD8SZG7Z37Q", "dateTime": 1516302650451}, {"current_trial": 151, "trialdata": {"rt": -1, "trial_type": "single-stim", "stimulus": "<p id=\"stim\">5</p>", "internal_node_id": "0.0-110.0-5.0", "time_elapsed": 700419, "key_press": -1, "trial_index": 151}, "uniqueid": "MTK1783:37ZHEEHM6XTEF7KTDK2WD8SZG7Z37Q", "dateTime": 1516302651456}, {"current_trial": 152, "trialdata": {"rt": -1, "trial_type": "single-stim", "stimulus": "<p id=\"stim\">4</p>", "internal_node_id": "0.0-110.0-6.0", "time_elapsed": 701424, "key_press": -1, "trial_index": 152}, "uniqueid": "MTK1783:37ZHEEHM6XTEF7KTDK2WD8SZG7Z37Q", "dateTime": 1516302652460}, {"current_trial": 153, "trialdata": {"rt": -1, "trial_type": "single-stim", "stimulus": "<p id=\"stim\">3</p>", "internal_node_id": "0.0-110.0-7.0", "time_elapsed": 702428, "key_press": -1, "trial_index": 153}, "uniqueid": "MTK1783:37ZHEEHM6XTEF7KTDK2WD8SZG7Z37Q", "dateTime": 1516302653464}, {"current_trial": 154, "trialdata": {"rt": -1, "trial_type": "single-stim", "stimulus": "<p id=\"stim\">2</p>", "internal_node_id": "0.0-110.0-8.0", "time_elapsed": 703432, "key_press": -1, "trial_index": 154}, "uniqueid": "MTK1783:37ZHEEHM6XTEF7KTDK2WD8SZG7Z37Q", "dateTime": 1516302654468}, {"current_trial": 155, "trialdata": {"rt": -1, "trial_type": "single-stim", "stimulus": "<p id=\"stim\">1</p>", "internal_node_id": "0.0-110.0-9.0", "time_elapsed": 704436, "key_press": -1, "trial_index": 155}, "uniqueid": "MTK1783:37ZHEEHM6XTEF7KTDK2WD8SZG7Z37Q", "dateTime": 1516302655472}, {"current_trial": 156, "trialdata": {"rt": -1, "trial_type": "single-stim", "stimulus": "<p id=\"stim\">+</p>", "internal_node_id": "0.0-111.0-0.0", "time_elapsed": 705939, "key_press": -1, "type": "FIXATION", "trial_index": 156}, "uniqueid": "MTK1783:37ZHEEHM6XTEF7KTDK2WD8SZG7Z37Q", "dateTime": 1516302656975}, {"current_trial": 157, "trialdata": {"rt": -1000, "trial_type": "single-audio", "word": "hawk", "stimulus": "/static/audio/wordpool/HAWK.wav", "conditions": [12, 1600, "a", 12000], "internal_node_id": "0.0-112.0", "trial": 4, "time_elapsed": 708521, "serialpos": 0, "key_press": -1, "wordID": 691, "type": "PRES_AUD", "trial_index": 157}, "uniqueid": "MTK1783:37ZHEEHM6XTEF7KTDK2WD8SZG7Z37Q", "dateTime": 1516302659557}, {"current_trial": 158, "trialdata": {"rt": -1000, "trial_type": "single-audio", "word": "xerox", "stimulus": "/static/audio/wordpool/XEROX.wav", "conditions": [12, 1600, "a", 12000], "internal_node_id": "0.0-113.0", "trial": 4, "time_elapsed": 711038, "serialpos": 1, "key_press": -1, "wordID": 1627, "type": "PRES_AUD", "trial_index": 158}, "uniqueid": "MTK1783:37ZHEEHM6XTEF7KTDK2WD8SZG7Z37Q", "dateTime": 1516302662074}, {"current_trial": 159, "trialdata": {"rt": -1000, "trial_type": "single-audio", "word": "palace", "stimulus": "/static/audio/wordpool/PALACE.wav", "conditions": [12, 1600, "a", 12000], "internal_node_id": "0.0-114.0", "trial": 4, "time_elapsed": 713566, "serialpos": 2, "key_press": -1, "wordID": 1005, "type": "PRES_AUD", "trial_index": 159}, "uniqueid": "MTK1783:37ZHEEHM6XTEF7KTDK2WD8SZG7Z37Q", "dateTime": 1516302664602}, {"current_trial": 160, "trialdata": {"rt": -1000, "trial_type": "single-audio", "word": "label", "stimulus": "/static/audio/wordpool/LABEL.wav", "conditions": [12, 1600, "a", 12000], "internal_node_id": "0.0-115.0", "trial": 4, "time_elapsed": 716063, "serialpos": 3, "key_press": -1, "wordID": 789, "type": "PRES_AUD", "trial_index": 160}, "uniqueid": "MTK1783:37ZHEEHM6XTEF7KTDK2WD8SZG7Z37Q", "dateTime": 1516302667099}, {"current_trial": 161, "trialdata": {"rt": -1000, "trial_type": "single-audio", "word": "sheriff", "stimulus": "/static/audio/wordpool/SHERIFF.wav", "conditions": [12, 1600, "a", 12000], "internal_node_id": "0.0-116.0", "trial": 4, "time_elapsed": 718590, "serialpos": 4, "key_press": -1, "wordID": 1283, "type": "PRES_AUD", "trial_index": 161}, "uniqueid": "MTK1783:37ZHEEHM6XTEF7KTDK2WD8SZG7Z37Q", "dateTime": 1516302669626}, {"current_trial": 162, "trialdata": {"rt": -1000, "trial_type": "single-audio", "word": "drug", "stimulus": "/static/audio/wordpool/DRUG.wav", "conditions": [12, 1600, "a", 12000], "internal_node_id": "0.0-117.0", "trial": 4, "time_elapsed": 721007, "serialpos": 5, "key_press": -1, "wordID": 500, "type": "PRES_AUD", "trial_index": 162}, "uniqueid": "MTK1783:37ZHEEHM6XTEF7KTDK2WD8SZG7Z37Q", "dateTime": 1516302672043}, {"current_trial": 163, "trialdata": {"rt": -1000, "trial_type": "single-audio", "word": "mailman", "stimulus": "/static/audio/wordpool/MAILMAN.wav", "conditions": [12, 1600, "a", 12000], "internal_node_id": "0.0-118.0", "trial": 4, "time_elapsed": 723643, "serialpos": 6, "key_press": -1, "wordID": 857, "type": "PRES_AUD", "trial_index": 163}, "uniqueid": "MTK1783:37ZHEEHM6XTEF7KTDK2WD8SZG7Z37Q", "dateTime": 1516302674679}, {"current_trial": 164, "trialdata": {"rt": -1000, "trial_type": "single-audio", "word": "wife", "stimulus": "/static/audio/wordpool/WIFE.wav", "conditions": [12, 1600, "a", 12000], "internal_node_id": "0.0-119.0", "trial": 4, "time_elapsed": 726055, "serialpos": 7, "key_press": -1, "wordID": 1608, "type": "PRES_AUD", "trial_index": 164}, "uniqueid": "MTK1783:37ZHEEHM6XTEF7KTDK2WD8SZG7Z37Q", "dateTime": 1516302677091}, {"current_trial": 165, "trialdata": {"rt": -1000, "trial_type": "single-audio", "word": "brother", "stimulus": "/static/audio/wordpool/BROTHER.wav", "conditions": [12, 1600, "a", 12000], "internal_node_id": "0.0-120.0", "trial": 4, "time_elapsed": 728584, "serialpos": 8, "key_press": -1, "wordID": 178, "type": "PRES_AUD", "trial_index": 165}, "uniqueid": "MTK1783:37ZHEEHM6XTEF7KTDK2WD8SZG7Z37Q", "dateTime": 1516302679620}, {"current_trial": 166, "trialdata": {"rt": -1000, "trial_type": "single-audio", "word": "mailbox", "stimulus": "/static/audio/wordpool/MAILBOX.wav", "conditions": [12, 1600, "a", 12000], "internal_node_id": "0.0-121.0", "trial": 4, "time_elapsed": 731321, "serialpos": 9, "key_press": -1, "wordID": 856, "type": "PRES_AUD", "trial_index": 166}, "uniqueid": "MTK1783:37ZHEEHM6XTEF7KTDK2WD8SZG7Z37Q", "dateTime": 1516302682357}, {"current_trial": 167, "trialdata": {"rt": -1000, "trial_type": "single-audio", "word": "cowboy", "stimulus": "/static/audio/wordpool/COWBOY.wav", "conditions": [12, 1600, "a", 12000], "internal_node_id": "0.0-122.0", "trial": 4, "time_elapsed": 734083, "serialpos": 10, "key_press": -1, "wordID": 394, "type": "PRES_AUD", "trial_index": 167}, "uniqueid": "MTK1783:37ZHEEHM6XTEF7KTDK2WD8SZG7Z37Q", "dateTime": 1516302685119}, {"current_trial": 168, "trialdata": {"rt": -1000, "trial_type": "single-audio", "word": "apple", "stimulus": "/static/audio/wordpool/APPLE.wav", "conditions": [12, 1600, "a", 12000], "internal_node_id": "0.0-123.0", "trial": 4, "time_elapsed": 736600, "serialpos": 11, "key_press": -1, "wordID": 32, "type": "PRES_AUD", "trial_index": 168}, "uniqueid": "MTK1783:37ZHEEHM6XTEF7KTDK2WD8SZG7Z37Q", "dateTime": 1516302687636}, {"current_trial": 169, "trialdata": {"rt": -1, "trial_type": "single-stim", "stimulus": "", "internal_node_id": "0.0-124.0-0.0", "time_elapsed": 738001, "key_press": -1, "type": "PRE_RECALL_DELAY", "trial_index": 169}, "uniqueid": "MTK1783:37ZHEEHM6XTEF7KTDK2WD8SZG7Z37Q", "dateTime": 1516302689037}, {"current_trial": 170, "trialdata": {"rt": -1000, "trial_type": "single-audio", "stimulus": "/static/audio/400Hz.wav", "internal_node_id": "0.0-125.0", "time_elapsed": 738502, "key_press": -1, "type": "PRE_RECALL_ALERT", "trial_index": 170}, "uniqueid": "MTK1783:37ZHEEHM6XTEF7KTDK2WD8SZG7Z37Q", "dateTime": 1516302689538}, {"current_trial": 171, "trialdata": {"rt": [3415, 6270, 10406, 15191, 22170], "recwords": ["apple", "wife", "palace", "drug", "brother"], "key_times": [1793, 1981, 2192, 2474, 2759, 3415, 3973, 4145, 4342, 5700, 6270, 8897, 9122, 9317, 9473, 9736, 9959, 10406, 10878, 11837, 12088, 13316, 15191, 17438, 17647, 17793, 18170, 18337, 18454, 18533, 22170], "trial_type": "free-recall", "conditions": [12, 1600, "a", 12000], "internal_node_id": "0.0-126.0-0.0", "key_presses": [65, 80, 80, 76, 69, 13, 87, 73, 70, 69, 13, 80, 65, 76, 65, 67, 69, 13, 68, 82, 85, 71, 13, 66, 82, 79, 84, 72, 69, 82, 13], "trial": 4, "time_elapsed": 798511, "type": "FREE_RECALL", "trial_index": 171}, "uniqueid": "MTK1783:37ZHEEHM6XTEF7KTDK2WD8SZG7Z37Q", "dateTime": 1516302749552}, {"current_trial": 172, "trialdata": {"rt": 1394, "trial_type": "text", "internal_node_id": "0.0-127.0", "time_elapsed": 801914, "key_press": 32, "type": "INSTRUCTIONS", "trial_index": 172}, "uniqueid": "MTK1783:37ZHEEHM6XTEF7KTDK2WD8SZG7Z37Q", "dateTime": 1516302752950}, {"current_trial": 173, "trialdata": {"rt": [2458, 6546, 10148, 12275, 19941, 23225], "trial_type": "math-distractor", "key_times": [1563, 2038, 2458, 5602, 5889, 6546, 9877, 10148, 11775, 12094, 12275, 19109, 19636, 19941, 22809, 23044, 23225], "responses": ["15", "13", "5", "16", "19", "24"], "num2": [3, 4, 1, 4, 9, 9, 3], "num3": [7, 5, 3, 8, 4, 7, 4], "conditions": [12, 1600, "a", 24000], "internal_node_id": "0.0-128.0", "key_presses": [49, 53, 13, 49, 51, 13, 53, 13, 49, 54, 13, 49, 57, 13, 50, 52, 13], "trial": 5, "time_elapsed": 827921, "type": "DISTRACTOR", "trial_index": 173, "num1": [5, 4, 1, 4, 6, 7, 3]}, "uniqueid": "MTK1783:37ZHEEHM6XTEF7KTDK2WD8SZG7Z37Q", "dateTime": 1516302778957}, {"current_trial": 174, "trialdata": {"rt": -1, "trial_type": "single-stim", "stimulus": "<p id=\"stim\">10</p>", "internal_node_id": "0.0-129.0-0.0", "time_elapsed": 830927, "key_press": -1, "trial_index": 174}, "uniqueid": "MTK1783:37ZHEEHM6XTEF7KTDK2WD8SZG7Z37Q", "dateTime": 1516302781963}, {"current_trial": 175, "trialdata": {"rt": -1, "trial_type": "single-stim", "stimulus": "<p id=\"stim\">9</p>", "internal_node_id": "0.0-129.0-1.0", "time_elapsed": 831931, "key_press": -1, "trial_index": 175}, "uniqueid": "MTK1783:37ZHEEHM6XTEF7KTDK2WD8SZG7Z37Q", "dateTime": 1516302782967}, {"current_trial": 176, "trialdata": {"rt": -1, "trial_type": "single-stim", "stimulus": "<p id=\"stim\">8</p>", "internal_node_id": "0.0-129.0-2.0", "time_elapsed": 832935, "key_press": -1, "trial_index": 176}, "uniqueid": "MTK1783:37ZHEEHM6XTEF7KTDK2WD8SZG7Z37Q", "dateTime": 1516302783972}, {"current_trial": 177, "trialdata": {"rt": -1, "trial_type": "single-stim", "stimulus": "<p id=\"stim\">7</p>", "internal_node_id": "0.0-129.0-3.0", "time_elapsed": 833940, "key_press": -1, "trial_index": 177}, "uniqueid": "MTK1783:37ZHEEHM6XTEF7KTDK2WD8SZG7Z37Q", "dateTime": 1516302784976}, {"current_trial": 178, "trialdata": {"rt": -1, "trial_type": "single-stim", "stimulus": "<p id=\"stim\">6</p>", "internal_node_id": "0.0-129.0-4.0", "time_elapsed": 834944, "key_press": -1, "trial_index": 178}, "uniqueid": "MTK1783:37ZHEEHM6XTEF7KTDK2WD8SZG7Z37Q", "dateTime": 1516302785980}, {"current_trial": 179, "trialdata": {"rt": -1, "trial_type": "single-stim", "stimulus": "<p id=\"stim\">5</p>", "internal_node_id": "0.0-129.0-5.0", "time_elapsed": 835948, "key_press": -1, "trial_index": 179}, "uniqueid": "MTK1783:37ZHEEHM6XTEF7KTDK2WD8SZG7Z37Q", "dateTime": 1516302786985}, {"current_trial": 180, "trialdata": {"rt": -1, "trial_type": "single-stim", "stimulus": "<p id=\"stim\">4</p>", "internal_node_id": "0.0-129.0-6.0", "time_elapsed": 836953, "key_press": -1, "trial_index": 180}, "uniqueid": "MTK1783:37ZHEEHM6XTEF7KTDK2WD8SZG7Z37Q", "dateTime": 1516302787989}, {"current_trial": 181, "trialdata": {"rt": -1, "trial_type": "single-stim", "stimulus": "<p id=\"stim\">3</p>", "internal_node_id": "0.0-129.0-7.0", "time_elapsed": 837954, "key_press": -1, "trial_index": 181}, "uniqueid": "MTK1783:37ZHEEHM6XTEF7KTDK2WD8SZG7Z37Q", "dateTime": 1516302788990}, {"current_trial": 182, "trialdata": {"rt": -1, "trial_type": "single-stim", "stimulus": "<p id=\"stim\">2</p>", "internal_node_id": "0.0-129.0-8.0", "time_elapsed": 838955, "key_press": -1, "trial_index": 182}, "uniqueid": "MTK1783:37ZHEEHM6XTEF7KTDK2WD8SZG7Z37Q", "dateTime": 1516302789991}, {"current_trial": 183, "trialdata": {"rt": -1, "trial_type": "single-stim", "stimulus": "<p id=\"stim\">1</p>", "internal_node_id": "0.0-129.0-9.0", "time_elapsed": 839957, "key_press": -1, "trial_index": 183}, "uniqueid": "MTK1783:37ZHEEHM6XTEF7KTDK2WD8SZG7Z37Q", "dateTime": 1516302790993}, {"current_trial": 184, "trialdata": {"rt": -1, "trial_type": "single-stim", "stimulus": "<p id=\"stim\">+</p>", "internal_node_id": "0.0-130.0-0.0", "time_elapsed": 841458, "key_press": -1, "type": "FIXATION", "trial_index": 184}, "uniqueid": "MTK1783:37ZHEEHM6XTEF7KTDK2WD8SZG7Z37Q", "dateTime": 1516302792494}, {"current_trial": 185, "trialdata": {"rt": -1000, "trial_type": "single-audio", "word": "portrait", "stimulus": "/static/audio/wordpool/PORTRAIT.wav", "conditions": [12, 1600, "a", 24000], "internal_node_id": "0.0-131.0", "trial": 5, "time_elapsed": 843934, "serialpos": 0, "key_press": -1, "wordID": 1110, "type": "PRES_AUD", "trial_index": 185}, "uniqueid": "MTK1783:37ZHEEHM6XTEF7KTDK2WD8SZG7Z37Q", "dateTime": 1516302794970}, {"current_trial": 186, "trialdata": {"rt": -1000, "trial_type": "single-audio", "word": "girl", "stimulus": "/static/audio/wordpool/GIRL.wav", "conditions": [12, 1600, "a", 24000], "internal_node_id": "0.0-132.0", "trial": 5, "time_elapsed": 846723, "serialpos": 1, "key_press": -1, "wordID": 636, "type": "PRES_AUD", "trial_index": 186}, "uniqueid": "MTK1783:37ZHEEHM6XTEF7KTDK2WD8SZG7Z37Q", "dateTime": 1516302797759}, {"current_trial": 187, "trialdata": {"rt": -1000, "trial_type": "single-audio", "word": "custard", "stimulus": "/static/audio/wordpool/CUSTARD.wav", "conditions": [12, 1600, "a", 24000], "internal_node_id": "0.0-133.0", "trial": 5, "time_elapsed": 849200, "serialpos": 2, "key_press": -1, "wordID": 428, "type": "PRES_AUD", "trial_index": 187}, "uniqueid": "MTK1783:37ZHEEHM6XTEF7KTDK2WD8SZG7Z37Q", "dateTime": 1516302800236}, {"current_trial": 188, "trialdata": {"rt": -1000, "trial_type": "single-audio", "word": "sausage", "stimulus": "/static/audio/wordpool/SAUSAGE.wav", "conditions": [12, 1600, "a", 24000], "internal_node_id": "0.0-134.0", "trial": 5, "time_elapsed": 851689, "serialpos": 3, "key_press": -1, "wordID": 1237, "type": "PRES_AUD", "trial_index": 188}, "uniqueid": "MTK1783:37ZHEEHM6XTEF7KTDK2WD8SZG7Z37Q", "dateTime": 1516302802725}, {"current_trial": 189, "trialdata": {"rt": -1000, "trial_type": "single-audio", "word": "tortoise", "stimulus": "/static/audio/wordpool/TORTOISE.wav", "conditions": [12, 1600, "a", 24000], "internal_node_id": "0.0-135.0", "trial": 5, "time_elapsed": 854298, "serialpos": 4, "key_press": -1, "wordID": 1485, "type": "PRES_AUD", "trial_index": 189}, "uniqueid": "MTK1783:37ZHEEHM6XTEF7KTDK2WD8SZG7Z37Q", "dateTime": 1516302805334}, {"current_trial": 190, "trialdata": {"rt": -1000, "trial_type": "single-audio", "word": "stamp", "stimulus": "/static/audio/wordpool/STAMP.wav", "conditions": [12, 1600, "a", 24000], "internal_node_id": "0.0-136.0", "trial": 5, "time_elapsed": 856951, "serialpos": 5, "key_press": -1, "wordID": 1369, "type": "PRES_AUD", "trial_index": 190}, "uniqueid": "MTK1783:37ZHEEHM6XTEF7KTDK2WD8SZG7Z37Q", "dateTime": 1516302807988}, {"current_trial": 191, "trialdata": {"rt": -1000, "trial_type": "single-audio", "word": "motel", "stimulus": "/static/audio/wordpool/MOTEL.wav", "conditions": [12, 1600, "a", 24000], "internal_node_id": "0.0-137.0", "trial": 5, "time_elapsed": 859623, "serialpos": 6, "key_press": -1, "wordID": 918, "type": "PRES_AUD", "trial_index": 191}, "uniqueid": "MTK1783:37ZHEEHM6XTEF7KTDK2WD8SZG7Z37Q", "dateTime": 1516302810659}, {"current_trial": 192, "trialdata": {"rt": -1000, "trial_type": "single-audio", "word": "lodge", "stimulus": "/static/audio/wordpool/LODGE.wav", "conditions": [12, 1600, "a", 24000], "internal_node_id": "0.0-138.0", "trial": 5, "time_elapsed": 862336, "serialpos": 7, "key_press": -1, "wordID": 838, "type": "PRES_AUD", "trial_index": 192}, "uniqueid": "MTK1783:37ZHEEHM6XTEF7KTDK2WD8SZG7Z37Q", "dateTime": 1516302813372}, {"current_trial": 193, "trialdata": {"rt": -1000, "trial_type": "single-audio", "word": "banquet", "stimulus": "/static/audio/wordpool/BANQUET.wav", "conditions": [12, 1600, "a", 24000], "internal_node_id": "0.0-139.0", "trial": 5, "time_elapsed": 865123, "serialpos": 8, "key_press": -1, "wordID": 85, "type": "PRES_AUD", "trial_index": 193}, "uniqueid": "MTK1783:37ZHEEHM6XTEF7KTDK2WD8SZG7Z37Q", "dateTime": 1516302816159}, {"current_trial": 194, "trialdata": {"rt": -1000, "trial_type": "single-audio", "word": "boyfriend", "stimulus": "/static/audio/wordpool/BOYFRIEND.wav", "conditions": [12, 1600, "a", 24000], "internal_node_id": "0.0-140.0", "trial": 5, "time_elapsed": 867668, "serialpos": 9, "key_press": -1, "wordID": 161, "type": "PRES_AUD", "trial_index": 194}, "uniqueid": "MTK1783:37ZHEEHM6XTEF7KTDK2WD8SZG7Z37Q", "dateTime": 1516302818704}, {"current_trial": 195, "trialdata": {"rt": -1000, "trial_type": "single-audio", "word": "panther", "stimulus": "/static/audio/wordpool/PANTHER.wav", "conditions": [12, 1600, "a", 24000], "internal_node_id": "0.0-141.0", "trial": 5, "time_elapsed": 870383, "serialpos": 10, "key_press": -1, "wordID": 1008, "type": "PRES_AUD", "trial_index": 195}, "uniqueid": "MTK1783:37ZHEEHM6XTEF7KTDK2WD8SZG7Z37Q", "dateTime": 1516302821419}, {"current_trial": 196, "trialdata": {"rt": -1000, "trial_type": "single-audio", "word": "shelter", "stimulus": "/static/audio/wordpool/SHELTER.wav", "conditions": [12, 1600, "a", 24000], "internal_node_id": "0.0-142.0", "trial": 5, "time_elapsed": 873065, "serialpos": 11, "key_press": -1, "wordID": 1281, "type": "PRES_AUD", "trial_index": 196}, "uniqueid": "MTK1783:37ZHEEHM6XTEF7KTDK2WD8SZG7Z37Q", "dateTime": 1516302824101}, {"current_trial": 197, "trialdata": {"rt": -1, "trial_type": "single-stim", "stimulus": "", "internal_node_id": "0.0-143.0-0.0", "time_elapsed": 874415, "key_press": -1, "type": "PRE_RECALL_DELAY", "trial_index": 197}, "uniqueid": "MTK1783:37ZHEEHM6XTEF7KTDK2WD8SZG7Z37Q", "dateTime": 1516302825451}, {"current_trial": 198, "trialdata": {"rt": -1000, "trial_type": "single-audio", "stimulus": "/static/audio/400Hz.wav", "internal_node_id": "0.0-144.0", "time_elapsed": 874916, "key_press": -1, "type": "PRE_RECALL_ALERT", "trial_index": 198}, "uniqueid": "MTK1783:37ZHEEHM6XTEF7KTDK2WD8SZG7Z37Q", "dateTime": 1516302825952}, {"current_trial": 199, "trialdata": {"rt": [4135, 6250, 8008, 9943, 13133, 24396], "recwords": ["shelter", "stamp", "motel", "lodge", "custard", "sausage"], "key_times": [2873, 2975, 3348, 3499, 3673, 3848, 3905, 4135, 5443, 5609, 5768, 5856, 5941, 6250, 7227, 7427, 7627, 7705, 7850, 8008, 8802, 9057, 9158, 9432, 9496, 9943, 11923, 12072, 12208, 12353, 12485, 12613, 12864, 13133, 22804, 23012, 23170, 23303, 23453, 23603, 23671, 24396], "trial_type": "free-recall", "conditions": [12, 1600, "a", 24000], "internal_node_id": "0.0-145.0-0.0", "key_presses": [83, 72, 69, 76, 84, 69, 82, 13, 83, 84, 65, 77, 80, 13, 77, 79, 84, 69, 76, 32, 76, 79, 68, 71, 69, 32, 67, 85, 83, 84, 65, 82, 68, 13, 83, 65, 85, 83, 65, 71, 69, 13], "trial": 5, "time_elapsed": 934921, "type": "FREE_RECALL", "trial_index": 199}, "uniqueid": "MTK1783:37ZHEEHM6XTEF7KTDK2WD8SZG7Z37Q", "dateTime": 1516302885960}, {"current_trial": 200, "trialdata": {"rt": 11121, "trial_type": "text", "internal_node_id": "0.0-146.0", "time_elapsed": 948048, "key_press": 32, "type": "INSTRUCTIONS", "trial_index": 200}, "uniqueid": "MTK1783:37ZHEEHM6XTEF7KTDK2WD8SZG7Z37Q", "dateTime": 1516302899084}, {"current_trial": 201, "trialdata": {"rt": [3701, 5752, 8013, 9555, 11530, 13763, 15327, 18082, 19737, 23370], "trial_type": "math-distractor", "key_times": [2869, 3701, 5631, 5752, 7633, 7838, 8013, 9338, 9555, 10823, 11292, 11530, 12873, 13190, 13763, 14802, 15146, 15327, 17947, 18082, 19231, 19574, 19737, 22925, 23246, 23370], "responses": ["8", "6", "21", "9", "13", "10", "14", "6", "15", "16"], "num2": [3, 1, 4, 2, 5, 1, 8, 1, 1, 3, 3], "num3": [1, 2, 8, 1, 6, 8, 2, 3, 7, 8, 6], "conditions": [24, 800, "a", 24000], "internal_node_id": "0.0-147.0", "key_presses": [56, 13, 54, 13, 50, 49, 13, 57, 13, 49, 51, 13, 49, 48, 13, 49, 52, 13, 54, 13, 49, 53, 13, 49, 54, 13], "trial": 6, "time_elapsed": 974052, "type": "DISTRACTOR", "trial_index": 201, "num1": [4, 3, 9, 6, 2, 1, 4, 2, 7, 5, 3]}, "uniqueid": "MTK1783:37ZHEEHM6XTEF7KTDK2WD8SZG7Z37Q", "dateTime": 1516302925088}, {"current_trial": 202, "trialdata": {"rt": -1, "trial_type": "single-stim", "stimulus": "<p id=\"stim\">10</p>", "internal_node_id": "0.0-148.0-0.0", "time_elapsed": 977054, "key_press": -1, "trial_index": 202}, "uniqueid": "MTK1783:37ZHEEHM6XTEF7KTDK2WD8SZG7Z37Q", "dateTime": 1516302928090}, {"current_trial": 203, "trialdata": {"rt": -1, "trial_type": "single-stim", "stimulus": "<p id=\"stim\">9</p>", "internal_node_id": "0.0-148.0-1.0", "time_elapsed": 978055, "key_press": -1, "trial_index": 203}, "uniqueid": "MTK1783:37ZHEEHM6XTEF7KTDK2WD8SZG7Z37Q", "dateTime": 1516302929091}, {"current_trial": 204, "trialdata": {"rt": -1, "trial_type": "single-stim", "stimulus": "<p id=\"stim\">8</p>", "internal_node_id": "0.0-148.0-2.0", "time_elapsed": 979057, "key_press": -1, "trial_index": 204}, "uniqueid": "MTK1783:37ZHEEHM6XTEF7KTDK2WD8SZG7Z37Q", "dateTime": 1516302930093}, {"current_trial": 205, "trialdata": {"rt": -1, "trial_type": "single-stim", "stimulus": "<p id=\"stim\">7</p>", "internal_node_id": "0.0-148.0-3.0", "time_elapsed": 980058, "key_press": -1, "trial_index": 205}, "uniqueid": "MTK1783:37ZHEEHM6XTEF7KTDK2WD8SZG7Z37Q", "dateTime": 1516302931094}, {"current_trial": 206, "trialdata": {"rt": -1, "trial_type": "single-stim", "stimulus": "<p id=\"stim\">6</p>", "internal_node_id": "0.0-148.0-4.0", "time_elapsed": 981060, "key_press": -1, "trial_index": 206}, "uniqueid": "MTK1783:37ZHEEHM6XTEF7KTDK2WD8SZG7Z37Q", "dateTime": 1516302932096}, {"current_trial": 207, "trialdata": {"rt": -1, "trial_type": "single-stim", "stimulus": "<p id=\"stim\">5</p>", "internal_node_id": "0.0-148.0-5.0", "time_elapsed": 982062, "key_press": -1, "trial_index": 207}, "uniqueid": "MTK1783:37ZHEEHM6XTEF7KTDK2WD8SZG7Z37Q", "dateTime": 1516302933098}, {"current_trial": 208, "trialdata": {"rt": -1, "trial_type": "single-stim", "stimulus": "<p id=\"stim\">4</p>", "internal_node_id": "0.0-148.0-6.0", "time_elapsed": 983064, "key_press": -1, "trial_index": 208}, "uniqueid": "MTK1783:37ZHEEHM6XTEF7KTDK2WD8SZG7Z37Q", "dateTime": 1516302934100}, {"current_trial": 209, "trialdata": {"rt": -1, "trial_type": "single-stim", "stimulus": "<p id=\"stim\">3</p>", "internal_node_id": "0.0-148.0-7.0", "time_elapsed": 984065, "key_press": -1, "trial_index": 209}, "uniqueid": "MTK1783:37ZHEEHM6XTEF7KTDK2WD8SZG7Z37Q", "dateTime": 1516302935101}, {"current_trial": 210, "trialdata": {"rt": -1, "trial_type": "single-stim", "stimulus": "<p id=\"stim\">2</p>", "internal_node_id": "0.0-148.0-8.0", "time_elapsed": 985069, "key_press": -1, "trial_index": 210}, "uniqueid": "MTK1783:37ZHEEHM6XTEF7KTDK2WD8SZG7Z37Q", "dateTime": 1516302936106}, {"current_trial": 211, "trialdata": {"rt": -1, "trial_type": "single-stim", "stimulus": "<p id=\"stim\">1</p>", "internal_node_id": "0.0-148.0-9.0", "time_elapsed": 986074, "key_press": -1, "trial_index": 211}, "uniqueid": "MTK1783:37ZHEEHM6XTEF7KTDK2WD8SZG7Z37Q", "dateTime": 1516302937110}, {"current_trial": 212, "trialdata": {"rt": -1, "trial_type": "single-stim", "stimulus": "<p id=\"stim\">+</p>", "internal_node_id": "0.0-149.0-0.0", "time_elapsed": 987577, "key_press": -1, "type": "FIXATION", "trial_index": 212}, "uniqueid": "MTK1783:37ZHEEHM6XTEF7KTDK2WD8SZG7Z37Q", "dateTime": 1516302938613}, {"current_trial": 213, "trialdata": {"rt": -1000, "trial_type": "single-audio", "word": "crater", "stimulus": "/static/audio/wordpool/CRATER.wav", "conditions": [24, 800, "a", 24000], "internal_node_id": "0.0-150.0", "trial": 6, "time_elapsed": 989428, "serialpos": 0, "key_press": -1, "wordID": 399, "type": "PRES_AUD", "trial_index": 213}, "uniqueid": "MTK1783:37ZHEEHM6XTEF7KTDK2WD8SZG7Z37Q", "dateTime": 1516302940464}, {"current_trial": 214, "trialdata": {"rt": -1000, "trial_type": "single-audio", "word": "tunnel", "stimulus": "/static/audio/wordpool/TUNNEL.wav", "conditions": [24, 800, "a", 24000], "internal_node_id": "0.0-151.0", "trial": 6, "time_elapsed": 991405, "serialpos": 1, "key_press": -1, "wordID": 1518, "type": "PRES_AUD", "trial_index": 214}, "uniqueid": "MTK1783:37ZHEEHM6XTEF7KTDK2WD8SZG7Z37Q", "dateTime": 1516302942441}, {"current_trial": 215, "trialdata": {"rt": -1000, "trial_type": "single-audio", "word": "stream", "stimulus": "/static/audio/wordpool/STREAM.wav", "conditions": [24, 800, "a", 24000], "internal_node_id": "0.0-152.0", "trial": 6, "time_elapsed": 993203, "serialpos": 2, "key_press": -1, "wordID": 1391, "type": "PRES_AUD", "trial_index": 215}, "uniqueid": "MTK1783:37ZHEEHM6XTEF7KTDK2WD8SZG7Z37Q", "dateTime": 1516302944239}, {"current_trial": 216, "trialdata": {"rt": -1000, "trial_type": "single-audio", "word": "lava", "stimulus": "/static/audio/wordpool/LAVA.wav", "conditions": [24, 800, "a", 24000], "internal_node_id": "0.0-153.0", "trial": 6, "time_elapsed": 995110, "serialpos": 3, "key_press": -1, "wordID": 803, "type": "PRES_AUD", "trial_index": 216}, "uniqueid": "MTK1783:37ZHEEHM6XTEF7KTDK2WD8SZG7Z37Q", "dateTime": 1516302946146}, {"current_trial": 217, "trialdata": {"rt": -1000, "trial_type": "single-audio", "word": "sketch", "stimulus": "/static/audio/wordpool/SKETCH.wav", "conditions": [24, 800, "a", 24000], "internal_node_id": "0.0-154.0", "trial": 6, "time_elapsed": 996863, "serialpos": 4, "key_press": -1, "wordID": 1314, "type": "PRES_AUD", "trial_index": 217}, "uniqueid": "MTK1783:37ZHEEHM6XTEF7KTDK2WD8SZG7Z37Q", "dateTime": 1516302947899}, {"current_trial": 218, "trialdata": {"rt": -1000, "trial_type": "single-audio", "word": "sword", "stimulus": "/static/audio/wordpool/SWORD.wav", "conditions": [24, 800, "a", 24000], "internal_node_id": "0.0-155.0", "trial": 6, "time_elapsed": 998744, "serialpos": 5, "key_press": -1, "wordID": 1422, "type": "PRES_AUD", "trial_index": 218}, "uniqueid": "MTK1783:37ZHEEHM6XTEF7KTDK2WD8SZG7Z37Q", "dateTime": 1516302949780}, {"current_trial": 219, "trialdata": {"rt": -1000, "trial_type": "single-audio", "word": "jelly", "stimulus": "/static/audio/wordpool/JELLY.wav", "conditions": [24, 800, "a", 24000], "internal_node_id": "0.0-156.0", "trial": 6, "time_elapsed": 1000643, "serialpos": 6, "key_press": -1, "wordID": 754, "type": "PRES_AUD", "trial_index": 219}, "uniqueid": "MTK1783:37ZHEEHM6XTEF7KTDK2WD8SZG7Z37Q", "dateTime": 1516302951679}, {"current_trial": 220, "trialdata": {"rt": -1000, "trial_type": "single-audio", "word": "dancer", "stimulus": "/static/audio/wordpool/DANCER.wav", "conditions": [24, 800, "a", 24000], "internal_node_id": "0.0-157.0", "trial": 6, "time_elapsed": 1002521, "serialpos": 7, "key_press": -1, "wordID": 436, "type": "PRES_AUD", "trial_index": 220}, "uniqueid": "MTK1783:37ZHEEHM6XTEF7KTDK2WD8SZG7Z37Q", "dateTime": 1516302953557}, {"current_trial": 221, "trialdata": {"rt": -1000, "trial_type": "single-audio", "word": "oyster", "stimulus": "/static/audio/wordpool/OYSTER.wav", "conditions": [24, 800, "a", 24000], "internal_node_id": "0.0-158.0", "trial": 6, "time_elapsed": 1004182, "serialpos": 8, "key_press": -1, "wordID": 994, "type": "PRES_AUD", "trial_index": 221}, "uniqueid": "MTK1783:37ZHEEHM6XTEF7KTDK2WD8SZG7Z37Q", "dateTime": 1516302955218}, {"current_trial": 222, "trialdata": {"rt": -1000, "trial_type": "single-audio", "word": "clam", "stimulus": "/static/audio/wordpool/CLAM.wav", "conditions": [24, 800, "a", 24000], "internal_node_id": "0.0-159.0", "trial": 6, "time_elapsed": 1005884, "serialpos": 9, "key_press": -1, "wordID": 314, "type": "PRES_AUD", "trial_index": 222}, "uniqueid": "MTK1783:37ZHEEHM6XTEF7KTDK2WD8SZG7Z37Q", "dateTime": 1516302956920}, {"current_trial": 223, "trialdata": {"rt": -1000, "trial_type": "single-audio", "word": "shoulder", "stimulus": "/static/audio/wordpool/SHOULDER.wav", "conditions": [24, 800, "a", 24000], "internal_node_id": "0.0-160.0", "trial": 6, "time_elapsed": 1007596, "serialpos": 10, "key_press": -1, "wordID": 1293, "type": "PRES_AUD", "trial_index": 223}, "uniqueid": "MTK1783:37ZHEEHM6XTEF7KTDK2WD8SZG7Z37Q", "dateTime": 1516302958632}, {"current_trial": 224, "trialdata": {"rt": -1000, "trial_type": "single-audio", "word": "stomach", "stimulus": "/static/audio/wordpool/STOMACH.wav", "conditions": [24, 800, "a", 24000], "internal_node_id": "0.0-161.0", "trial": 6, "time_elapsed": 1009574, "serialpos": 11, "key_press": -1, "wordID": 1383, "type": "PRES_AUD", "trial_index": 224}, "uniqueid": "MTK1783:37ZHEEHM6XTEF7KTDK2WD8SZG7Z37Q", "dateTime": 1516302960610}, {"current_trial": 225, "trialdata": {"rt": -1000, "trial_type": "single-audio", "word": "scarecrow", "stimulus": "/static/audio/wordpool/SCARECROW.wav", "conditions": [24, 800, "a", 24000], "internal_node_id": "0.0-162.0", "trial": 6, "time_elapsed": 1011204, "serialpos": 12, "key_press": -1, "wordID": 1244, "type": "PRES_AUD", "trial_index": 225}, "uniqueid": "MTK1783:37ZHEEHM6XTEF7KTDK2WD8SZG7Z37Q", "dateTime": 1516302962240}, {"current_trial": 226, "trialdata": {"rt": -1000, "trial_type": "single-audio", "word": "climber", "stimulus": "/static/audio/wordpool/CLIMBER.wav", "conditions": [24, 800, "a", 24000], "internal_node_id": "0.0-163.0", "trial": 6, "time_elapsed": 1013064, "serialpos": 13, "key_press": -1, "wordID": 322, "type": "PRES_AUD", "trial_index": 226}, "uniqueid": "MTK1783:37ZHEEHM6XTEF7KTDK2WD8SZG7Z37Q", "dateTime": 1516302964100}, {"current_trial": 227, "trialdata": {"rt": -1000, "trial_type": "single-audio", "word": "hiker", "stimulus": "/static/audio/wordpool/HIKER.wav", "conditions": [24, 800, "a", 24000], "internal_node_id": "0.0-164.0", "trial": 6, "time_elapsed": 1014861, "serialpos": 14, "key_press": -1, "wordID": 707, "type": "PRES_AUD", "trial_index": 227}, "uniqueid": "MTK1783:37ZHEEHM6XTEF7KTDK2WD8SZG7Z37Q", "dateTime": 1516302965897}, {"current_trial": 228, "trialdata": {"rt": -1000, "trial_type": "single-audio", "word": "viking", "stimulus": "/static/audio/wordpool/VIKING.wav", "conditions": [24, 800, "a", 24000], "internal_node_id": "0.0-165.0", "trial": 6, "time_elapsed": 1016514, "serialpos": 15, "key_press": -1, "wordID": 1564, "type": "PRES_AUD", "trial_index": 228}, "uniqueid": "MTK1783:37ZHEEHM6XTEF7KTDK2WD8SZG7Z37Q", "dateTime": 1516302967550}, {"current_trial": 229, "trialdata": {"rt": -1000, "trial_type": "single-audio", "word": "orchid", "stimulus": "/static/audio/wordpool/ORCHID.wav", "conditions": [24, 800, "a", 24000], "internal_node_id": "0.0-166.0", "trial": 6, "time_elapsed": 1018223, "serialpos": 16, "key_press": -1, "wordID": 981, "type": "PRES_AUD", "trial_index": 229}, "uniqueid": "MTK1783:37ZHEEHM6XTEF7KTDK2WD8SZG7Z37Q", "dateTime": 1516302969259}, {"current_trial": 230, "trialdata": {"rt": -1000, "trial_type": "single-audio", "word": "river", "stimulus": "/static/audio/wordpool/RIVER.wav", "conditions": [24, 800, "a", 24000], "internal_node_id": "0.0-167.0", "trial": 6, "time_elapsed": 1019891, "serialpos": 17, "key_press": -1, "wordID": 1193, "type": "PRES_AUD", "trial_index": 230}, "uniqueid": "MTK1783:37ZHEEHM6XTEF7KTDK2WD8SZG7Z37Q", "dateTime": 1516302970927}, {"current_trial": 231, "trialdata": {"rt": -1000, "trial_type": "single-audio", "word": "pliers", "stimulus": "/static/audio/wordpool/PLIERS.wav", "conditions": [24, 800, "a", 24000], "internal_node_id": "0.0-168.0", "trial": 6, "time_elapsed": 1021670, "serialpos": 18, "key_press": -1, "wordID": 1088, "type": "PRES_AUD", "trial_index": 231}, "uniqueid": "MTK1783:37ZHEEHM6XTEF7KTDK2WD8SZG7Z37Q", "dateTime": 1516302972707}, {"current_trial": 232, "trialdata": {"rt": -1000, "trial_type": "single-audio", "word": "ulcer", "stimulus": "/static/audio/wordpool/ULCER.wav", "conditions": [24, 800, "a", 24000], "internal_node_id": "0.0-169.0", "trial": 6, "time_elapsed": 1023334, "serialpos": 19, "key_press": -1, "wordID": 1532, "type": "PRES_AUD", "trial_index": 232}, "uniqueid": "MTK1783:37ZHEEHM6XTEF7KTDK2WD8SZG7Z37Q", "dateTime": 1516302974371}, {"current_trial": 233, "trialdata": {"rt": -1000, "trial_type": "single-audio", "word": "permit", "stimulus": "/static/audio/wordpool/PERMIT.wav", "conditions": [24, 800, "a", 24000], "internal_node_id": "0.0-170.0", "trial": 6, "time_elapsed": 1025265, "serialpos": 20, "key_press": -1, "wordID": 1050, "type": "PRES_AUD", "trial_index": 233}, "uniqueid": "MTK1783:37ZHEEHM6XTEF7KTDK2WD8SZG7Z37Q", "dateTime": 1516302976301}, {"current_trial": 234, "trialdata": {"rt": -1000, "trial_type": "single-audio", "word": "marsh", "stimulus": "/static/audio/wordpool/MARSH.wav", "conditions": [24, 800, "a", 24000], "internal_node_id": "0.0-171.0", "trial": 6, "time_elapsed": 1026985, "serialpos": 21, "key_press": -1, "wordID": 873, "type": "PRES_AUD", "trial_index": 234}, "uniqueid": "MTK1783:37ZHEEHM6XTEF7KTDK2WD8SZG7Z37Q", "dateTime": 1516302978022}, {"current_trial": 235, "trialdata": {"rt": -1000, "trial_type": "single-audio", "word": "bug", "stimulus": "/static/audio/wordpool/BUG.wav", "conditions": [24, 800, "a", 24000], "internal_node_id": "0.0-172.0", "trial": 6, "time_elapsed": 1028792, "serialpos": 22, "key_press": -1, "wordID": 186, "type": "PRES_AUD", "trial_index": 235}, "uniqueid": "MTK1783:37ZHEEHM6XTEF7KTDK2WD8SZG7Z37Q", "dateTime": 1516302979828}, {"current_trial": 236, "trialdata": {"rt": -1000, "trial_type": "single-audio", "word": "toaster", "stimulus": "/static/audio/wordpool/TOASTER.wav", "conditions": [24, 800, "a", 24000], "internal_node_id": "0.0-173.0", "trial": 6, "time_elapsed": 1030603, "serialpos": 23, "key_press": -1, "wordID": 1471, "type": "PRES_AUD", "trial_index": 236}, "uniqueid": "MTK1783:37ZHEEHM6XTEF7KTDK2WD8SZG7Z37Q", "dateTime": 1516302981639}, {"current_trial": 237, "trialdata": {"rt": -1, "trial_type": "single-stim", "stimulus": "", "internal_node_id": "0.0-174.0-0.0", "time_elapsed": 1031847, "key_press": -1, "type": "PRE_RECALL_DELAY", "trial_index": 237}, "uniqueid": "MTK1783:37ZHEEHM6XTEF7KTDK2WD8SZG7Z37Q", "dateTime": 1516302982883}, {"current_trial": 238, "trialdata": {"rt": -1000, "trial_type": "single-audio", "stimulus": "/static/audio/400Hz.wav", "internal_node_id": "0.0-175.0", "time_elapsed": 1032349, "key_press": -1, "type": "PRE_RECALL_ALERT", "trial_index": 238}, "uniqueid": "MTK1783:37ZHEEHM6XTEF7KTDK2WD8SZG7Z37Q", "dateTime": 1516302983385}, {"current_trial": 239, "trialdata": {"rt": [2719, 3815, 6980, 8729, 10295, 15461], "recwords": ["toaster", "bug", "lava", "crater", "stream", "clam"], "key_times": [1061, 1187, 1360, 1917, 2105, 2249, 2353, 2719, 3338, 3474, 3622, 3815, 6332, 6443, 6596, 6713, 6980, 7501, 7738, 7837, 8094, 8210, 8305, 8729, 8913, 9114, 9297, 9452, 9678, 9881, 10295, 13214, 13347, 13508, 13678, 15461], "trial_type": "free-recall", "conditions": [24, 800, "a", 24000], "internal_node_id": "0.0-176.0-0.0", "key_presses": [84, 79, 65, 83, 84, 69, 82, 13, 66, 85, 71, 13, 76, 65, 86, 65, 13, 67, 82, 65, 84, 69, 82, 13, 83, 84, 82, 69, 65, 77, 13, 67, 76, 65, 77, 13], "trial": 6, "time_elapsed": 1092355, "type": "FREE_RECALL", "trial_index": 239}, "uniqueid": "MTK1783:37ZHEEHM6XTEF7KTDK2WD8SZG7Z37Q", "dateTime": 1516303043394}, {"current_trial": 240, "trialdata": {"rt": 3591, "trial_type": "text", "internal_node_id": "0.0-177.0", "time_elapsed": 1097954, "key_press": 32, "type": "INSTRUCTIONS", "trial_index": 240}, "uniqueid": "MTK1783:37ZHEEHM6XTEF7KTDK2WD8SZG7Z37Q", "dateTime": 1516303048990}, {"current_trial": 241, "trialdata": {"rt": [2311, 4897, 6798, 8929, 10754], "trial_type": "math-distractor", "key_times": [1892, 2211, 2311, 4539, 4746, 4897, 6377, 6610, 6798, 8279, 8697, 8929, 10356, 10539, 10754], "responses": ["15", "14", "11", "16", "12"], "num2": [6, 3, 1, 1, 3, 9], "num3": [4, 9, 8, 9, 3, 1], "conditions": [24, 800, "a", 12000], "internal_node_id": "0.0-178.0", "key_presses": [49, 53, 13, 49, 52, 13, 49, 49, 13, 49, 54, 13, 49, 50, 13], "trial": 7, "time_elapsed": 1111962, "type": "DISTRACTOR", "trial_index": 241, "num1": [5, 2, 2, 6, 6, 2]}, "uniqueid": "MTK1783:37ZHEEHM6XTEF7KTDK2WD8SZG7Z37Q", "dateTime": 1516303062998}, {"current_trial": 242, "trialdata": {"rt": -1, "trial_type": "single-stim", "stimulus": "<p id=\"stim\">10</p>", "internal_node_id": "0.0-179.0-0.0", "time_elapsed": 1114965, "key_press": -1, "trial_index": 242}, "uniqueid": "MTK1783:37ZHEEHM6XTEF7KTDK2WD8SZG7Z37Q", "dateTime": 1516303066001}, {"current_trial": 243, "trialdata": {"rt": -1, "trial_type": "single-stim", "stimulus": "<p id=\"stim\">9</p>", "internal_node_id": "0.0-179.0-1.0", "time_elapsed": 1115966, "key_press": -1, "trial_index": 243}, "uniqueid": "MTK1783:37ZHEEHM6XTEF7KTDK2WD8SZG7Z37Q", "dateTime": 1516303067002}, {"current_trial": 244, "trialdata": {"rt": -1, "trial_type": "single-stim", "stimulus": "<p id=\"stim\">8</p>", "internal_node_id": "0.0-179.0-2.0", "time_elapsed": 1116968, "key_press": -1, "trial_index": 244}, "uniqueid": "MTK1783:37ZHEEHM6XTEF7KTDK2WD8SZG7Z37Q", "dateTime": 1516303068004}, {"current_trial": 245, "trialdata": {"rt": -1, "trial_type": "single-stim", "stimulus": "<p id=\"stim\">7</p>", "internal_node_id": "0.0-179.0-3.0", "time_elapsed": 1117971, "key_press": -1, "trial_index": 245}, "uniqueid": "MTK1783:37ZHEEHM6XTEF7KTDK2WD8SZG7Z37Q", "dateTime": 1516303069007}, {"current_trial": 246, "trialdata": {"rt": -1, "trial_type": "single-stim", "stimulus": "<p id=\"stim\">6</p>", "internal_node_id": "0.0-179.0-4.0", "time_elapsed": 1118973, "key_press": -1, "trial_index": 246}, "uniqueid": "MTK1783:37ZHEEHM6XTEF7KTDK2WD8SZG7Z37Q", "dateTime": 1516303070009}, {"current_trial": 247, "trialdata": {"rt": -1, "trial_type": "single-stim", "stimulus": "<p id=\"stim\">5</p>", "internal_node_id": "0.0-179.0-5.0", "time_elapsed": 1119976, "key_press": -1, "trial_index": 247}, "uniqueid": "MTK1783:37ZHEEHM6XTEF7KTDK2WD8SZG7Z37Q", "dateTime": 1516303071013}, {"current_trial": 248, "trialdata": {"rt": -1, "trial_type": "single-stim", "stimulus": "<p id=\"stim\">4</p>", "internal_node_id": "0.0-179.0-6.0", "time_elapsed": 1120981, "key_press": -1, "trial_index": 248}, "uniqueid": "MTK1783:37ZHEEHM6XTEF7KTDK2WD8SZG7Z37Q", "dateTime": 1516303072017}, {"current_trial": 249, "trialdata": {"rt": -1, "trial_type": "single-stim", "stimulus": "<p id=\"stim\">3</p>", "internal_node_id": "0.0-179.0-7.0", "time_elapsed": 1121985, "key_press": -1, "trial_index": 249}, "uniqueid": "MTK1783:37ZHEEHM6XTEF7KTDK2WD8SZG7Z37Q", "dateTime": 1516303073022}, {"current_trial": 250, "trialdata": {"rt": -1, "trial_type": "single-stim", "stimulus": "<p id=\"stim\">2</p>", "internal_node_id": "0.0-179.0-8.0", "time_elapsed": 1122990, "key_press": -1, "trial_index": 250}, "uniqueid": "MTK1783:37ZHEEHM6XTEF7KTDK2WD8SZG7Z37Q", "dateTime": 1516303074026}, {"current_trial": 251, "trialdata": {"rt": -1, "trial_type": "single-stim", "stimulus": "<p id=\"stim\">1</p>", "internal_node_id": "0.0-179.0-9.0", "time_elapsed": 1123994, "key_press": -1, "trial_index": 251}, "uniqueid": "MTK1783:37ZHEEHM6XTEF7KTDK2WD8SZG7Z37Q", "dateTime": 1516303075030}, {"current_trial": 252, "trialdata": {"rt": -1, "trial_type": "single-stim", "stimulus": "<p id=\"stim\">+</p>", "internal_node_id": "0.0-180.0-0.0", "time_elapsed": 1125497, "key_press": -1, "type": "FIXATION", "trial_index": 252}, "uniqueid": "MTK1783:37ZHEEHM6XTEF7KTDK2WD8SZG7Z37Q", "dateTime": 1516303076533}, {"current_trial": 253, "trialdata": {"rt": -1000, "trial_type": "single-audio", "word": "proton", "stimulus": "/static/audio/wordpool/PROTON.wav", "conditions": [24, 800, "a", 12000], "internal_node_id": "0.0-181.0", "trial": 7, "time_elapsed": 1127135, "serialpos": 0, "key_press": -1, "wordID": 1131, "type": "PRES_AUD", "trial_index": 253}, "uniqueid": "MTK1783:37ZHEEHM6XTEF7KTDK2WD8SZG7Z37Q", "dateTime": 1516303078172}, {"current_trial": 254, "trialdata": {"rt": -1000, "trial_type": "single-audio", "word": "rooster", "stimulus": "/static/audio/wordpool/ROOSTER.wav", "conditions": [24, 800, "a", 12000], "internal_node_id": "0.0-182.0", "t