{"assignmentId": "3ND9UOO81L9ALQBJRYE81ALX8K5WL4", "workerId": "MTK1519", "questiondata": {"origin": "United States", "strat-rehearsal": "80", "marital": "Single", "education": "Bachelor's degree", "ethnicity": "Not Hispanic", "color_depth": 24, "distracted": "No", "wrote-notes": "No", "strat-other": "N/A", "screen_width": 1366, "avail_screen_width": 1366, "avail_screen_height": 728, "strat-image": "92", "language": "English", "gender": "Male", "age": "33", "gender_other": "", "race": ["Black"], "strat-categorize": "12", "pixel_depth": 24, "strat-spatial": "60", "strat-story": "13", "race_other": "", "screen_height": 768}, "bonus": 0, "hitId": "3S1WOPCJFG08MG3YDB3NA55LGM0EJ7", "counterbalance": 1799, "useragent": "Mozilla/5.0 (Windows NT 10.0; WOW64) AppleWebKit/537.36 (KHTML, like Gecko) Chrome/63.0.3239.132 Safari/537.36", "eventdata": [{"eventtype": "initialized", "interval": 0, "value": null, "timestamp": 1515952361516}, {"eventtype": "window_resize", "interval": 0, "value": [1366, 721], "timestamp": 1515952361516}, {"eventtype": "window_resize", "interval": 10092, "value": [1366, 677], "timestamp": 1515952371608}, {"eventtype": "focus", "interval": 3051, "value": "off", "timestamp": 1515952374659}, {"eventtype": "focus", "interval": 1791, "value": "on", "timestamp": 1515952376450}, {"eventtype": "focus", "interval": 21065, "value": "off", "timestamp": 1515952397515}, {"eventtype": "focus", "interval": 9317, "value": "on", "timestamp": 1515952406832}, {"eventtype": "focus", "interval": 92, "value": "off", "timestamp": 1515952406924}, {"eventtype": "focus", "interval": 63412, "value": "on", "timestamp": 1515952470336}, {"eventtype": "focus", "interval": 328132, "value": "off", "timestamp": 1515952798468}, {"eventtype": "focus", "interval": 9173, "value": "on", "timestamp": 1515952807641}, {"eventtype": "focus", "interval": 144719, "value": "off", "timestamp": 1515952952360}, {"eventtype": "focus", "interval": 5995, "value": "on", "timestamp": 1515952958355}, {"eventtype": "focus", "interval": 313335, "value": "off", "timestamp": 1515953271690}, {"eventtype": "focus", "interval": 3131, "value": "on", "timestamp": 1515953274821}, {"eventtype": "focus", "interval": 238346, "value": "off", "timestamp": 1515953513167}, {"eventtype": "focus", "interval": 4336, "value": "on", "timestamp": 1515953517503}, {"eventtype": "focus", "interval": 1069124, "value": "off", "timestamp": 1515954586627}, {"eventtype": "focus", "interval": 2124, "value": "on", "timestamp": 1515954588751}], "data": [{"current_trial": 0, "trialdata": {"rt": 1460, "trial_type": "text", "internal_node_id": "0.0-0.0", "time_elapsed": 1464, "key_press": 32, "type": "INSTRUCTIONS", "trial_index": 0}, "uniqueid": "MTK1519:3ND9UOO81L9ALQBJRYE81ALX8K5WL4", "dateTime": 1515952380647}, {"current_trial": 1, "trialdata": {"rt": 96036, "trial_type": "text", "internal_node_id": "0.0-1.0", "time_elapsed": 97502, "key_press": 13, "type": "INSTRUCTIONS", "trial_index": 1}, "uniqueid": "MTK1519:3ND9UOO81L9ALQBJRYE81ALX8K5WL4", "dateTime": 1515952476684}, {"current_trial": 2, "trialdata": {"rt": [7673], "trial_type": "audio-test", "responses": ["ocean"], "internal_node_id": "0.0-2.0", "time_elapsed": 105218, "type": "AUDIO_TEST", "trial_index": 2}, "uniqueid": "MTK1519:3ND9UOO81L9ALQBJRYE81ALX8K5WL4", "dateTime": 1515952484400}, {"current_trial": 3, "trialdata": {"rt": [6222], "trial_type": "audio-test", "responses": ["crystal"], "internal_node_id": "0.0-3.0", "time_elapsed": 111449, "type": "AUDIO_TEST", "trial_index": 3}, "uniqueid": "MTK1519:3ND9UOO81L9ALQBJRYE81ALX8K5WL4", "dateTime": 1515952490631}, {"current_trial": 4, "trialdata": {"rt": [5805], "trial_type": "audio-test", "responses": ["spice"], "internal_node_id": "0.0-4.0", "time_elapsed": 117263, "type": "AUDIO_TEST", "trial_index": 4}, "uniqueid": "MTK1519:3ND9UOO81L9ALQBJRYE81ALX8K5WL4", "dateTime": 1515952496445}, {"current_trial": 5, "trialdata": {"rt": 13321, "trial_type": "survey-text", "responses": "{\"Q0\":\"11 PM\",\"Q1\":\"8 AM\",\"Q2\":\"5\"}", "internal_node_id": "0.0-5.0", "time_elapsed": 131343, "type": "SLEEP_SURVEY", "trial_index": 5}, "uniqueid": "MTK1519:3ND9UOO81L9ALQBJRYE81ALX8K5WL4", "dateTime": 1515952510525}, {"current_trial": 6, "trialdata": {"rt": 10398, "trial_type": "text", "internal_node_id": "0.0-6.0", "time_elapsed": 142742, "key_press": 13, "type": "INSTRUCTIONS", "trial_index": 6}, "uniqueid": "MTK1519:3ND9UOO81L9ALQBJRYE81ALX8K5WL4", "dateTime": 1515952521924}, {"current_trial": 7, "trialdata": {"rt": 3184, "trial_type": "text", "internal_node_id": "0.0-7.0", "time_elapsed": 146429, "key_press": 16, "type": "INSTRUCTIONS", "trial_index": 7}, "uniqueid": "MTK1519:3ND9UOO81L9ALQBJRYE81ALX8K5WL4", "dateTime": 1515952525611}, {"current_trial": 8, "trialdata": {"rt": 1296, "trial_type": "text", "internal_node_id": "0.0-8.0", "time_elapsed": 148227, "key_press": 13, "type": "INSTRUCTIONS", "trial_index": 8}, "uniqueid": "MTK1519:3ND9UOO81L9ALQBJRYE81ALX8K5WL4", "dateTime": 1515952527409}, {"current_trial": 9, "trialdata": {"rt": [4366, 8119, 10681, 14504, 16606], "trial_type": "math-distractor", "key_times": [2901, 3237, 4366, 4774, 7049, 7229, 8119, 10096, 10441, 10681, 12911, 13553, 14504, 16242, 16426, 16606], "responses": ["14", "17", "14", "14", "12"], "num2": [4, 8, 9, 2, 8, 2], "num3": [8, 6, 2, 5, 2, 6], "conditions": [18, 1200, "a", 18000], "internal_node_id": "0.0-9.0", "key_presses": [49, 52, 13, 20, 49, 55, 13, 49, 52, 13, 49, 52, 13, 49, 50, 13], "trial": 0, "time_elapsed": 167234, "type": "DISTRACTOR", "trial_index": 9, "num1": [2, 3, 3, 7, 2, 7]}, "uniqueid": "MTK1519:3ND9UOO81L9ALQBJRYE81ALX8K5WL4", "dateTime": 1515952546416}, {"current_trial": 10, "trialdata": {"rt": -1, "trial_type": "single-stim", "stimulus": "<p id=\"stim\">10</p>", "internal_node_id": "0.0-10.0-0.0", "time_elapsed": 170241, "key_press": -1, "trial_index": 10}, "uniqueid": "MTK1519:3ND9UOO81L9ALQBJRYE81ALX8K5WL4", "dateTime": 1515952549426}, {"current_trial": 11, "trialdata": {"rt": -1, "trial_type": "single-stim", "stimulus": "<p id=\"stim\">9</p>", "internal_node_id": "0.0-10.0-1.0", "time_elapsed": 171244, "key_press": -1, "trial_index": 11}, "uniqueid": "MTK1519:3ND9UOO81L9ALQBJRYE81ALX8K5WL4", "dateTime": 1515952550426}, {"current_trial": 12, "trialdata": {"rt": -1, "trial_type": "single-stim", "stimulus": "<p id=\"stim\">8</p>", "internal_node_id": "0.0-10.0-2.0", "time_elapsed": 172245, "key_press": -1, "trial_index": 12}, "uniqueid": "MTK1519:3ND9UOO81L9ALQBJRYE81ALX8K5WL4", "dateTime": 1515952551427}, {"current_trial": 13, "trialdata": {"rt": -1, "trial_type": "single-stim", "stimulus": "<p id=\"stim\">7</p>", "internal_node_id": "0.0-10.0-3.0", "time_elapsed": 173249, "key_press": -1, "trial_index": 13}, "uniqueid": "MTK1519:3ND9UOO81L9ALQBJRYE81ALX8K5WL4", "dateTime": 1515952552431}, {"current_trial": 14, "trialdata": {"rt": -1, "trial_type": "single-stim", "stimulus": "<p id=\"stim\">6</p>", "internal_node_id": "0.0-10.0-4.0", "time_elapsed": 174256, "key_press": -1, "trial_index": 14}, "uniqueid": "MTK1519:3ND9UOO81L9ALQBJRYE81ALX8K5WL4", "dateTime": 1515952553438}, {"current_trial": 15, "trialdata": {"rt": -1, "trial_type": "single-stim", "stimulus": "<p id=\"stim\">5</p>", "internal_node_id": "0.0-10.0-5.0", "time_elapsed": 175257, "key_press": -1, "trial_index": 15}, "uniqueid": "MTK1519:3ND9UOO81L9ALQBJRYE81ALX8K5WL4", "dateTime": 1515952554439}, {"current_trial": 16, "trialdata": {"rt": -1, "trial_type": "single-stim", "stimulus": "<p id=\"stim\">4</p>", "internal_node_id": "0.0-10.0-6.0", "time_elapsed": 176258, "key_press": -1, "trial_index": 16}, "uniqueid": "MTK1519:3ND9UOO81L9ALQBJRYE81ALX8K5WL4", "dateTime": 1515952555440}, {"current_trial": 17, "trialdata": {"rt": -1, "trial_type": "single-stim", "stimulus": "<p id=\"stim\">3</p>", "internal_node_id": "0.0-10.0-7.0", "time_elapsed": 177258, "key_press": -1, "trial_index": 17}, "uniqueid": "MTK1519:3ND9UOO81L9ALQBJRYE81ALX8K5WL4", "dateTime": 1515952556440}, {"current_trial": 18, "trialdata": {"rt": -1, "trial_type": "single-stim", "stimulus": "<p id=\"stim\">2</p>", "internal_node_id": "0.0-10.0-8.0", "time_elapsed": 178258, "key_press": -1, "trial_index": 18}, "uniqueid": "MTK1519:3ND9UOO81L9ALQBJRYE81ALX8K5WL4", "dateTime": 1515952557440}, {"current_trial": 19, "trialdata": {"rt": -1, "trial_type": "single-stim", "stimulus": "<p id=\"stim\">1</p>", "internal_node_id": "0.0-10.0-9.0", "time_elapsed": 179261, "key_press": -1, "trial_index": 19}, "uniqueid": "MTK1519:3ND9UOO81L9ALQBJRYE81ALX8K5WL4", "dateTime": 1515952558443}, {"current_trial": 20, "trialdata": {"rt": -1, "trial_type": "single-stim", "stimulus": "<p id=\"stim\">+</p>", "internal_node_id": "0.0-11.0-0.0", "time_elapsed": 180763, "key_press": -1, "type": "FIXATION", "trial_index": 20}, "uniqueid": "MTK1519:3ND9UOO81L9ALQBJRYE81ALX8K5WL4", "dateTime": 1515952559945}, {"current_trial": 21, "trialdata": {"rt": -1000, "trial_type": "single-audio", "word": "luggage", "stimulus": "/static/audio/wordpool/LUGGAGE.wav", "conditions": [18, 1200, "a", 18000], "internal_node_id": "0.0-12.0", "trial": 0, "time_elapsed": 183115, "serialpos": 0, "key_press": -1, "wordID": 846, "type": "PRES_AUD", "trial_index": 21}, "uniqueid": "MTK1519:3ND9UOO81L9ALQBJRYE81ALX8K5WL4", "dateTime": 1515952562297}, {"current_trial": 22, "trialdata": {"rt": -1000, "trial_type": "single-audio", "word": "cattle", "stimulus": "/static/audio/wordpool/CATTLE.wav", "conditions": [18, 1200, "a", 18000], "internal_node_id": "0.0-13.0", "trial": 0, "time_elapsed": 185505, "serialpos": 1, "key_press": -1, "wordID": 260, "type": "PRES_AUD", "trial_index": 22}, "uniqueid": "MTK1519:3ND9UOO81L9ALQBJRYE81ALX8K5WL4", "dateTime": 1515952564687}, {"current_trial": 23, "trialdata": {"rt": -1000, "trial_type": "single-audio", "word": "dorm", "stimulus": "/static/audio/wordpool/DORM.wav", "conditions": [18, 1200, "a", 18000], "internal_node_id": "0.0-14.0", "trial": 0, "time_elapsed": 187886, "serialpos": 2, "key_press": -1, "wordID": 487, "type": "PRES_AUD", "trial_index": 23}, "uniqueid": "MTK1519:3ND9UOO81L9ALQBJRYE81ALX8K5WL4", "dateTime": 1515952567069}, {"current_trial": 24, "trialdata": {"rt": -1000, "trial_type": "single-audio", "word": "mattress", "stimulus": "/static/audio/wordpool/MATTRESS.wav", "conditions": [18, 1200, "a", 18000], "internal_node_id": "0.0-15.0", "trial": 0, "time_elapsed": 190234, "serialpos": 3, "key_press": -1, "wordID": 878, "type": "PRES_AUD", "trial_index": 24}, "uniqueid": "MTK1519:3ND9UOO81L9ALQBJRYE81ALX8K5WL4", "dateTime": 1515952569416}, {"current_trial": 25, "trialdata": {"rt": -1000, "trial_type": "single-audio", "word": "donkey", "stimulus": "/static/audio/wordpool/DONKEY.wav", "conditions": [18, 1200, "a", 18000], "internal_node_id": "0.0-16.0", "trial": 0, "time_elapsed": 192331, "serialpos": 4, "key_press": -1, "wordID": 483, "type": "PRES_AUD", "trial_index": 25}, "uniqueid": "MTK1519:3ND9UOO81L9ALQBJRYE81ALX8K5WL4", "dateTime": 1515952571513}, {"current_trial": 26, "trialdata": {"rt": -1000, "trial_type": "single-audio", "word": "cellar", "stimulus": "/static/audio/wordpool/CELLAR.wav", "conditions": [18, 1200, "a", 18000], "internal_node_id": "0.0-17.0", "trial": 0, "time_elapsed": 194495, "serialpos": 5, "key_press": -1, "wordID": 266, "type": "PRES_AUD", "trial_index": 26}, "uniqueid": "MTK1519:3ND9UOO81L9ALQBJRYE81ALX8K5WL4", "dateTime": 1515952573677}, {"current_trial": 27, "trialdata": {"rt": -1000, "trial_type": "single-audio", "word": "panther", "stimulus": "/static/audio/wordpool/PANTHER.wav", "conditions": [18, 1200, "a", 18000], "internal_node_id": "0.0-18.0", "trial": 0, "time_elapsed": 196664, "serialpos": 6, "key_press": -1, "wordID": 1008, "type": "PRES_AUD", "trial_index": 27}, "uniqueid": "MTK1519:3ND9UOO81L9ALQBJRYE81ALX8K5WL4", "dateTime": 1515952575846}, {"current_trial": 28, "trialdata": {"rt": -1000, "trial_type": "single-audio", "word": "mammal", "stimulus": "/static/audio/wordpool/MAMMAL.wav", "conditions": [18, 1200, "a", 18000], "internal_node_id": "0.0-19.0", "trial": 0, "time_elapsed": 198942, "serialpos": 7, "key_press": -1, "wordID": 860, "type": "PRES_AUD", "trial_index": 28}, "uniqueid": "MTK1519:3ND9UOO81L9ALQBJRYE81ALX8K5WL4", "dateTime": 1515952578125}, {"current_trial": 29, "trialdata": {"rt": -1000, "trial_type": "single-audio", "word": "journal", "stimulus": "/static/audio/wordpool/JOURNAL.wav", "conditions": [18, 1200, "a", 18000], "internal_node_id": "0.0-20.0", "trial": 0, "time_elapsed": 201245, "serialpos": 8, "key_press": -1, "wordID": 759, "type": "PRES_AUD", "trial_index": 29}, "uniqueid": "MTK1519:3ND9UOO81L9ALQBJRYE81ALX8K5WL4", "dateTime": 1515952580427}, {"current_trial": 30, "trialdata": {"rt": -1000, "trial_type": "single-audio", "word": "velvet", "stimulus": "/static/audio/wordpool/VELVET.wav", "conditions": [18, 1200, "a", 18000], "internal_node_id": "0.0-21.0", "trial": 0, "time_elapsed": 203465, "serialpos": 9, "key_press": -1, "wordID": 1554, "type": "PRES_AUD", "trial_index": 30}, "uniqueid": "MTK1519:3ND9UOO81L9ALQBJRYE81ALX8K5WL4", "dateTime": 1515952582647}, {"current_trial": 31, "trialdata": {"rt": -1000, "trial_type": "single-audio", "word": "palace", "stimulus": "/static/audio/wordpool/PALACE.wav", "conditions": [18, 1200, "a", 18000], "internal_node_id": "0.0-22.0", "trial": 0, "time_elapsed": 205493, "serialpos": 10, "key_press": -1, "wordID": 1005, "type": "PRES_AUD", "trial_index": 31}, "uniqueid": "MTK1519:3ND9UOO81L9ALQBJRYE81ALX8K5WL4", "dateTime": 1515952584676}, {"current_trial": 32, "trialdata": {"rt": -1000, "trial_type": "single-audio", "word": "orchid", "stimulus": "/static/audio/wordpool/ORCHID.wav", "conditions": [18, 1200, "a", 18000], "internal_node_id": "0.0-23.0", "trial": 0, "time_elapsed": 207603, "serialpos": 11, "key_press": -1, "wordID": 981, "type": "PRES_AUD", "trial_index": 32}, "uniqueid": "MTK1519:3ND9UOO81L9ALQBJRYE81ALX8K5WL4", "dateTime": 1515952586786}, {"current_trial": 33, "trialdata": {"rt": -1000, "trial_type": "single-audio", "word": "window", "stimulus": "/static/audio/wordpool/WINDOW.wav", "conditions": [18, 1200, "a", 18000], "internal_node_id": "0.0-24.0", "trial": 0, "time_elapsed": 209668, "serialpos": 12, "key_press": -1, "wordID": 1610, "type": "PRES_AUD", "trial_index": 33}, "uniqueid": "MTK1519:3ND9UOO81L9ALQBJRYE81ALX8K5WL4", "dateTime": 1515952588851}, {"current_trial": 34, "trialdata": {"rt": -1000, "trial_type": "single-audio", "word": "hedge", "stimulus": "/static/audio/wordpool/HEDGE.wav", "conditions": [18, 1200, "a", 18000], "internal_node_id": "0.0-25.0", "trial": 0, "time_elapsed": 211830, "serialpos": 13, "key_press": -1, "wordID": 698, "type": "PRES_AUD", "trial_index": 34}, "uniqueid": "MTK1519:3ND9UOO81L9ALQBJRYE81ALX8K5WL4", "dateTime": 1515952591012}, {"current_trial": 35, "trialdata": {"rt": -1000, "trial_type": "single-audio", "word": "dandruff", "stimulus": "/static/audio/wordpool/DANDRUFF.wav", "conditions": [18, 1200, "a", 18000], "internal_node_id": "0.0-26.0", "trial": 0, "time_elapsed": 214049, "serialpos": 14, "key_press": -1, "wordID": 438, "type": "PRES_AUD", "trial_index": 35}, "uniqueid": "MTK1519:3ND9UOO81L9ALQBJRYE81ALX8K5WL4", "dateTime": 1515952593232}, {"current_trial": 36, "trialdata": {"rt": -1000, "trial_type": "single-audio", "word": "drawing", "stimulus": "/static/audio/wordpool/DRAWING.wav", "conditions": [18, 1200, "a", 18000], "internal_node_id": "0.0-27.0", "trial": 0, "time_elapsed": 216272, "serialpos": 15, "key_press": -1, "wordID": 493, "type": "PRES_AUD", "trial_index": 36}, "uniqueid": "MTK1519:3ND9UOO81L9ALQBJRYE81ALX8K5WL4", "dateTime": 1515952595454}, {"current_trial": 37, "trialdata": {"rt": -1000, "trial_type": "single-audio", "word": "freezer", "stimulus": "/static/audio/wordpool/FREEZER.wav", "conditions": [18, 1200, "a", 18000], "internal_node_id": "0.0-28.0", "trial": 0, "time_elapsed": 218578, "serialpos": 16, "key_press": -1, "wordID": 603, "type": "PRES_AUD", "trial_index": 37}, "uniqueid": "MTK1519:3ND9UOO81L9ALQBJRYE81ALX8K5WL4", "dateTime": 1515952597760}, {"current_trial": 38, "trialdata": {"rt": -1000, "trial_type": "single-audio", "word": "arm", "stimulus": "/static/audio/wordpool/ARM.wav", "conditions": [18, 1200, "a", 18000], "internal_node_id": "0.0-29.0", "trial": 0, "time_elapsed": 220864, "serialpos": 17, "key_press": -1, "wordID": 37, "type": "PRES_AUD", "trial_index": 38}, "uniqueid": "MTK1519:3ND9UOO81L9ALQBJRYE81ALX8K5WL4", "dateTime": 1515952600047}, {"current_trial": 39, "trialdata": {"rt": -1, "trial_type": "single-stim", "stimulus": "", "internal_node_id": "0.0-30.0-0.0", "time_elapsed": 222163, "key_press": -1, "type": "PRE_RECALL_DELAY", "trial_index": 39}, "uniqueid": "MTK1519:3ND9UOO81L9ALQBJRYE81ALX8K5WL4", "dateTime": 1515952601345}, {"current_trial": 40, "trialdata": {"rt": -1000, "trial_type": "single-audio", "stimulus": "/static/audio/400Hz.wav", "internal_node_id": "0.0-31.0", "time_elapsed": 222667, "key_press": -1, "type": "PRE_RECALL_ALERT", "trial_index": 40}, "uniqueid": "MTK1519:3ND9UOO81L9ALQBJRYE81ALX8K5WL4", "dateTime": 1515952601849}, {"current_trial": 41, "trialdata": {"rt": [5303, 5438, 7648, 11208, 16322, 21442, 39932], "recwords": ["luggage", "", "panther", "cattle", "dorm", "ocean", "basement"], "key_times": [3413, 3727, 4047, 4180, 4306, 4489, 4596, 5303, 5438, 5722, 5836, 6000, 6229, 6384, 6457, 6609, 7648, 9866, 10104, 10337, 10477, 10936, 11069, 11208, 12230, 12451, 12663, 13960, 16322, 19761, 19948, 20169, 20497, 20851, 21442, 38552, 38676, 38846, 39006, 39150, 39246, 39346, 39650, 39932], "trial_type": "free-recall", "conditions": [18, 1200, "a", 18000], "internal_node_id": "0.0-32.0-0.0", "key_presses": [76, 85, 71, 71, 65, 71, 69, 188, 32, 80, 65, 78, 84, 72, 69, 82, 13, 67, 65, 84, 84, 76, 69, 32, 68, 79, 82, 77, 13, 79, 67, 69, 65, 78, 13, 66, 65, 83, 69, 77, 69, 78, 84, 13], "trial": 0, "time_elapsed": 282671, "type": "FREE_RECALL", "trial_index": 41}, "uniqueid": "MTK1519:3ND9UOO81L9ALQBJRYE81ALX8K5WL4", "dateTime": 1515952661857}, {"current_trial": 42, "trialdata": {"rt": 1785, "trial_type": "text", "internal_node_id": "0.0-33.0", "time_elapsed": 286465, "key_press": 13, "type": "INSTRUCTIONS", "trial_index": 42}, "uniqueid": "MTK1519:3ND9UOO81L9ALQBJRYE81ALX8K5WL4", "dateTime": 1515952665647}, {"current_trial": 43, "trialdata": {"rt": [6195, 9591, 12410, 14770, 17458], "trial_type": "math-distractor", "key_times": [2646, 3211, 4156, 4332, 4736, 5016, 5348, 6195, 8735, 8887, 9591, 11716, 11832, 12410, 13944, 14348, 14770, 16400, 16730, 17458], "responses": ["16", "16", "11", "10", "18"], "num2": [2, 3, 5, 1, 6, 4], "num3": [8, 7, 4, 5, 6, 5], "conditions": [18, 1200, "a", 18000], "internal_node_id": "0.0-34.0", "key_presses": [50, 50, 8, 8, 8, 49, 54, 13, 49, 54, 13, 49, 49, 13, 49, 48, 13, 49, 56, 13], "trial": 1, "time_elapsed": 306469, "type": "DISTRACTOR", "trial_index": 43, "num1": [6, 3, 2, 4, 6, 5]}, "uniqueid": "MTK1519:3ND9UOO81L9ALQBJRYE81ALX8K5WL4", "dateTime": 1515952685651}, {"current_trial": 44, "trialdata": {"rt": -1, "trial_type": "single-stim", "stimulus": "<p id=\"stim\">10</p>", "internal_node_id": "0.0-35.0-0.0", "time_elapsed": 309473, "key_press": -1, "trial_index": 44}, "uniqueid": "MTK1519:3ND9UOO81L9ALQBJRYE81ALX8K5WL4", "dateTime": 1515952688655}, {"current_trial": 45, "trialdata": {"rt": -1, "trial_type": "single-stim", "stimulus": "<p id=\"stim\">9</p>", "internal_node_id": "0.0-35.0-1.0", "time_elapsed": 310476, "key_press": -1, "trial_index": 45}, "uniqueid": "MTK1519:3ND9UOO81L9ALQBJRYE81ALX8K5WL4", "dateTime": 1515952689658}, {"current_trial": 46, "trialdata": {"rt": -1, "trial_type": "single-stim", "stimulus": "<p id=\"stim\">8</p>", "internal_node_id": "0.0-35.0-2.0", "time_elapsed": 311477, "key_press": -1, "trial_index": 46}, "uniqueid": "MTK1519:3ND9UOO81L9ALQBJRYE81ALX8K5WL4", "dateTime": 1515952690659}, {"current_trial": 47, "trialdata": {"rt": -1, "trial_type": "single-stim", "stimulus": "<p id=\"stim\">7</p>", "internal_node_id": "0.0-35.0-3.0", "time_elapsed": 312477, "key_press": -1, "trial_index": 47}, "uniqueid": "MTK1519:3ND9UOO81L9ALQBJRYE81ALX8K5WL4", "dateTime": 1515952691659}, {"current_trial": 48, "trialdata": {"rt": -1, "trial_type": "single-stim", "stimulus": "<p id=\"stim\">6</p>", "internal_node_id": "0.0-35.0-4.0", "time_elapsed": 313478, "key_press": -1, "trial_index": 48}, "uniqueid": "MTK1519:3ND9UOO81L9ALQBJRYE81ALX8K5WL4", "dateTime": 1515952692660}, {"current_trial": 49, "trialdata": {"rt": -1, "trial_type": "single-stim", "stimulus": "<p id=\"stim\">5</p>", "internal_node_id": "0.0-35.0-5.0", "time_elapsed": 314479, "key_press": -1, "trial_index": 49}, "uniqueid": "MTK1519:3ND9UOO81L9ALQBJRYE81ALX8K5WL4", "dateTime": 1515952693661}, {"current_trial": 50, "trialdata": {"rt": -1, "trial_type": "single-stim", "stimulus": "<p id=\"stim\">4</p>", "internal_node_id": "0.0-35.0-6.0", "time_elapsed": 315481, "key_press": -1, "trial_index": 50}, "uniqueid": "MTK1519:3ND9UOO81L9ALQBJRYE81ALX8K5WL4", "dateTime": 1515952694663}, {"current_trial": 51, "trialdata": {"rt": -1, "trial_type": "single-stim", "stimulus": "<p id=\"stim\">3</p>", "internal_node_id": "0.0-35.0-7.0", "time_elapsed": 316482, "key_press": -1, "trial_index": 51}, "uniqueid": "MTK1519:3ND9UOO81L9ALQBJRYE81ALX8K5WL4", "dateTime": 1515952695664}, {"current_trial": 52, "trialdata": {"rt": -1, "trial_type": "single-stim", "stimulus": "<p id=\"stim\">2</p>", "internal_node_id": "0.0-35.0-8.0", "time_elapsed": 317485, "key_press": -1, "trial_index": 52}, "uniqueid": "MTK1519:3ND9UOO81L9ALQBJRYE81ALX8K5WL4", "dateTime": 1515952696667}, {"current_trial": 53, "trialdata": {"rt": -1, "trial_type": "single-stim", "stimulus": "<p id=\"stim\">1</p>", "internal_node_id": "0.0-35.0-9.0", "time_elapsed": 318487, "key_press": -1, "trial_index": 53}, "uniqueid": "MTK1519:3ND9UOO81L9ALQBJRYE81ALX8K5WL4", "dateTime": 1515952697669}, {"current_trial": 54, "trialdata": {"rt": -1, "trial_type": "single-stim", "stimulus": "<p id=\"stim\">+</p>", "internal_node_id": "0.0-36.0-0.0", "time_elapsed": 319988, "key_press": -1, "type": "FIXATION", "trial_index": 54}, "uniqueid": "MTK1519:3ND9UOO81L9ALQBJRYE81ALX8K5WL4", "dateTime": 1515952699170}, {"current_trial": 55, "trialdata": {"rt": -1000, "trial_type": "single-audio", "word": "scotch", "stimulus": "/static/audio/wordpool/SCOTCH.wav", "conditions": [18, 1200, "a", 18000], "internal_node_id": "0.0-37.0", "trial": 1, "time_elapsed": 322237, "serialpos": 0, "key_press": -1, "wordID": 1250, "type": "PRES_AUD", "trial_index": 55}, "uniqueid": "MTK1519:3ND9UOO81L9ALQBJRYE81ALX8K5WL4", "dateTime": 1515952701419}, {"current_trial": 56, "trialdata": {"rt": -1000, "trial_type": "single-audio", "word": "knapsack", "stimulus": "/static/audio/wordpool/KNAPSACK.wav", "conditions": [18, 1200, "a", 18000], "internal_node_id": "0.0-38.0", "trial": 1, "time_elapsed": 324534, "serialpos": 1, "key_press": -1, "wordID": 782, "type": "PRES_AUD", "trial_index": 56}, "uniqueid": "MTK1519:3ND9UOO81L9ALQBJRYE81ALX8K5WL4", "dateTime": 1515952703716}, {"current_trial": 57, "trialdata": {"rt": -1000, "trial_type": "single-audio", "word": "chauffeur", "stimulus": "/static/audio/wordpool/CHAUFFEUR.wav", "conditions": [18, 1200, "a", 18000], "internal_node_id": "0.0-39.0", "trial": 1, "time_elapsed": 326729, "serialpos": 2, "key_press": -1, "wordID": 282, "type": "PRES_AUD", "trial_index": 57}, "uniqueid": "MTK1519:3ND9UOO81L9ALQBJRYE81ALX8K5WL4", "dateTime": 1515952705912}, {"current_trial": 58, "trialdata": {"rt": -1000, "trial_type": "single-audio", "word": "uncle", "stimulus": "/static/audio/wordpool/UNCLE.wav", "conditions": [18, 1200, "a", 18000], "internal_node_id": "0.0-40.0", "trial": 1, "time_elapsed": 328958, "serialpos": 3, "key_press": -1, "wordID": 1535, "type": "PRES_AUD", "trial_index": 58}, "uniqueid": "MTK1519:3ND9UOO81L9ALQBJRYE81ALX8K5WL4", "dateTime": 1515952708141}, {"current_trial": 59, "trialdata": {"rt": -1000, "trial_type": "single-audio", "word": "lace", "stimulus": "/static/audio/wordpool/LACE.wav", "conditions": [18, 1200, "a", 18000], "internal_node_id": "0.0-41.0", "trial": 1, "time_elapsed": 331233, "serialpos": 4, "key_press": -1, "wordID": 791, "type": "PRES_AUD", "trial_index": 59}, "uniqueid": "MTK1519:3ND9UOO81L9ALQBJRYE81ALX8K5WL4", "dateTime": 1515952710415}, {"current_trial": 60, "trialdata": {"rt": -1000, "trial_type": "single-audio", "word": "ketchup", "stimulus": "/static/audio/wordpool/KETCHUP.wav", "conditions": [18, 1200, "a", 18000], "internal_node_id": "0.0-42.0", "trial": 1, "time_elapsed": 333492, "serialpos": 5, "key_press": -1, "wordID": 770, "type": "PRES_AUD", "trial_index": 60}, "uniqueid": "MTK1519:3ND9UOO81L9ALQBJRYE81ALX8K5WL4", "dateTime": 1515952712675}, {"current_trial": 61, "trialdata": {"rt": -1000, "trial_type": "single-audio", "word": "picnic", "stimulus": "/static/audio/wordpool/PICNIC.wav", "conditions": [18, 1200, "a", 18000], "internal_node_id": "0.0-43.0", "trial": 1, "time_elapsed": 335545, "serialpos": 6, "key_press": -1, "wordID": 1059, "type": "PRES_AUD", "trial_index": 61}, "uniqueid": "MTK1519:3ND9UOO81L9ALQBJRYE81ALX8K5WL4", "dateTime": 1515952714728}, {"current_trial": 62, "trialdata": {"rt": -1000, "trial_type": "single-audio", "word": "tractor", "stimulus": "/static/audio/wordpool/TRACTOR.wav", "conditions": [18, 1200, "a", 18000], "internal_node_id": "0.0-44.0", "trial": 1, "time_elapsed": 337611, "serialpos": 7, "key_press": -1, "wordID": 1492, "type": "PRES_AUD", "trial_index": 62}, "uniqueid": "MTK1519:3ND9UOO81L9ALQBJRYE81ALX8K5WL4", "dateTime": 1515952716793}, {"current_trial": 63, "trialdata": {"rt": -1000, "trial_type": "single-audio", "word": "couch", "stimulus": "/static/audio/wordpool/COUCH.wav", "conditions": [18, 1200, "a", 18000], "internal_node_id": "0.0-45.0", "trial": 1, "time_elapsed": 340007, "serialpos": 8, "key_press": -1, "wordID": 385, "type": "PRES_AUD", "trial_index": 63}, "uniqueid": "MTK1519:3ND9UOO81L9ALQBJRYE81ALX8K5WL4", "dateTime": 1515952719190}, {"current_trial": 64, "trialdata": {"rt": -1000, "trial_type": "single-audio", "word": "peanut", "stimulus": "/static/audio/wordpool/PEANUT.wav", "conditions": [18, 1200, "a", 18000], "internal_node_id": "0.0-46.0", "trial": 1, "time_elapsed": 342327, "serialpos": 9, "key_press": -1, "wordID": 1031, "type": "PRES_AUD", "trial_index": 64}, "uniqueid": "MTK1519:3ND9UOO81L9ALQBJRYE81ALX8K5WL4", "dateTime": 1515952721509}, {"current_trial": 65, "trialdata": {"rt": -1000, "trial_type": "single-audio", "word": "subway", "stimulus": "/static/audio/wordpool/SUBWAY.wav", "conditions": [18, 1200, "a", 18000], "internal_node_id": "0.0-47.0", "trial": 1, "time_elapsed": 344546, "serialpos": 10, "key_press": -1, "wordID": 1399, "type": "PRES_AUD", "trial_index": 65}, "uniqueid": "MTK1519:3ND9UOO81L9ALQBJRYE81ALX8K5WL4", "dateTime": 1515952723728}, {"current_trial": 66, "trialdata": {"rt": -1000, "trial_type": "single-audio", "word": "honey", "stimulus": "/static/audio/wordpool/HONEY.wav", "conditions": [18, 1200, "a", 18000], "internal_node_id": "0.0-48.0", "trial": 1, "time_elapsed": 346592, "serialpos": 11, "key_press": -1, "wordID": 712, "type": "PRES_AUD", "trial_index": 66}, "uniqueid": "MTK1519:3ND9UOO81L9ALQBJRYE81ALX8K5WL4", "dateTime": 1515952725774}, {"current_trial": 67, "trialdata": {"rt": -1000, "trial_type": "single-audio", "word": "sculpture", "stimulus": "/static/audio/wordpool/SCULPTURE.wav", "conditions": [18, 1200, "a", 18000], "internal_node_id": "0.0-49.0", "trial": 1, "time_elapsed": 348688, "serialpos": 12, "key_press": -1, "wordID": 1257, "type": "PRES_AUD", "trial_index": 67}, "uniqueid": "MTK1519:3ND9UOO81L9ALQBJRYE81ALX8K5WL4", "dateTime": 1515952727923}, {"current_trial": 68, "trialdata": {"rt": -1000, "trial_type": "single-audio", "word": "lava", "stimulus": "/static/audio/wordpool/LAVA.wav", "conditions": [18, 1200, "a", 18000], "internal_node_id": "0.0-50.0", "trial": 1, "time_elapsed": 351008, "serialpos": 13, "key_press": -1, "wordID": 803, "type": "PRES_AUD", "trial_index": 68}, "uniqueid": "MTK1519:3ND9UOO81L9ALQBJRYE81ALX8K5WL4", "dateTime": 1515952730261}, {"current_trial": 69, "trialdata": {"rt": -1000, "trial_type": "single-audio", "word": "blockade", "stimulus": "/static/audio/wordpool/BLOCKADE.wav", "conditions": [18, 1200, "a", 18000], "internal_node_id": "0.0-51.0", "trial": 1, "time_elapsed": 353099, "serialpos": 14, "key_press": -1, "wordID": 136, "type": "PRES_AUD", "trial_index": 69}, "uniqueid": "MTK1519:3ND9UOO81L9ALQBJRYE81ALX8K5WL4", "dateTime": 1515952732281}, {"current_trial": 70, "trialdata": {"rt": -1000, "trial_type": "single-audio", "word": "leopard", "stimulus": "/static/audio/wordpool/LEOPARD.wav", "conditions": [18, 1200, "a", 18000], "internal_node_id": "0.0-52.0", "trial": 1, "time_elapsed": 355121, "serialpos": 15, "key_press": -1, "wordID": 811, "type": "PRES_AUD", "trial_index": 70}, "uniqueid": "MTK1519:3ND9UOO81L9ALQBJRYE81ALX8K5WL4", "dateTime": 1515952734303}, {"current_trial": 71, "trialdata": {"rt": -1000, "trial_type": "single-audio", "word": "waiter", "stimulus": "/static/audio/wordpool/WAITER.wav", "conditions": [18, 1200, "a", 18000], "internal_node_id": "0.0-53.0", "trial": 1, "time_elapsed": 357516, "serialpos": 16, "key_press": -1, "wordID": 1579, "type": "PRES_AUD", "trial_index": 71}, "uniqueid": "MTK1519:3ND9UOO81L9ALQBJRYE81ALX8K5WL4", "dateTime": 1515952736698}, {"current_trial": 72, "trialdata": {"rt": -1000, "trial_type": "single-audio", "word": "marsh", "stimulus": "/static/audio/wordpool/MARSH.wav", "conditions": [18, 1200, "a", 18000], "internal_node_id": "0.0-54.0", "trial": 1, "time_elapsed": 359603, "serialpos": 17, "key_press": -1, "wordID": 873, "type": "PRES_AUD", "trial_index": 72}, "uniqueid": "MTK1519:3ND9UOO81L9ALQBJRYE81ALX8K5WL4", "dateTime": 1515952738785}, {"current_trial": 73, "trialdata": {"rt": -1, "trial_type": "single-stim", "stimulus": "", "internal_node_id": "0.0-55.0-0.0", "time_elapsed": 360923, "key_press": -1, "type": "PRE_RECALL_DELAY", "trial_index": 73}, "uniqueid": "MTK1519:3ND9UOO81L9ALQBJRYE81ALX8K5WL4", "dateTime": 1515952740105}, {"current_trial": 74, "trialdata": {"rt": -1000, "trial_type": "single-audio", "stimulus": "/static/audio/400Hz.wav", "internal_node_id": "0.0-56.0", "time_elapsed": 361425, "key_press": -1, "type": "PRE_RECALL_ALERT", "trial_index": 74}, "uniqueid": "MTK1519:3ND9UOO81L9ALQBJRYE81ALX8K5WL4", "dateTime": 1515952740607}, {"current_trial": 75, "trialdata": {"rt": [4170, 8145, 11657, 14825, 18309, 23802, 27668, 33278, 36143, 39752, 44692, 48249], "recwords": ["scotch", "cheuffeur", "knapsack", "lace", "ketchup", "picnic", "tractor", "peanut", "honey", "sculpture", "marsh", "leopard"], "key_times": [2061, 2305, 2497, 2802, 2910, 3056, 4170, 4911, 5137, 5414, 6098, 6444, 6572, 7071, 7256, 7476, 8145, 9336, 9585, 9813, 10040, 10234, 10461, 10656, 10883, 11657, 12374, 12517, 12829, 13911, 14825, 16326, 16496, 16725, 16875, 17014, 17325, 17739, 18309, 20412, 20728, 20921, 21353, 21679, 21881, 22062, 22957, 23802, 25855, 26105, 26351, 26563, 26725, 27192, 27285, 27668, 31130, 31338, 31550, 31762, 32103, 32352, 33278, 34823, 35056, 35273, 35399, 35539, 36143, 37485, 37759, 38003, 38405, 38569, 38829, 39129, 39313, 39469, 39752, 42439, 42635, 42892, 43864, 44158, 44692, 45372, 45518, 45731, 46619, 47227, 47426, 47566, 47842, 48039, 48249], "trial_type": "free-recall", "conditions": [18, 1200, "a", 18000], "internal_node_id": "0.0-57.0-0.0", "key_presses": [83, 67, 79, 84, 67, 72, 13, 67, 72, 69, 85, 70, 70, 69, 85, 82, 13, 75, 78, 65, 80, 83, 65, 67, 75, 13, 76, 65, 67, 69, 13, 75, 69, 84, 67, 72, 85, 80, 13, 80, 73, 67, 78, 73, 67, 75, 8, 13, 84, 82, 65, 67, 84, 79, 82, 13, 80, 69, 65, 78, 85, 84, 13, 72, 79, 78, 69, 89, 13, 83, 67, 85, 76, 80, 84, 85, 82, 69, 13, 77, 65, 82, 83, 72, 13, 76, 69, 65, 8, 79, 80, 65, 82, 68, 13], "trial": 1, "time_elapsed": 421432, "type": "FREE_RECALL", "trial_index": 75}, "uniqueid": "MTK1519:3ND9UOO81L9ALQBJRYE81ALX8K5WL4", "dateTime": 1515952800618}, {"current_trial": 76, "trialdata": {"rt": 6066, "trial_type": "text", "internal_node_id": "0.0-58.0", "time_elapsed": 429505, "key_press": 13, "type": "INSTRUCTIONS", "trial_index": 76}, "uniqueid": "MTK1519:3ND9UOO81L9ALQBJRYE81ALX8K5WL4", "dateTime": 1515952808687}, {"current_trial": 77, "trialdata": {"rt": [3131, 5493, 7640, 10181, 14205, 16773, 19359, 22012], "trial_type": "math-distractor", "key_times": [2125, 2429, 3131, 4671, 4943, 5493, 7286, 7458, 7640, 9312, 9650, 10181, 13439, 13626, 14205, 16117, 16309, 16773, 18657, 18903, 19359, 20823, 21157, 22012, 23625], "responses": ["15", "15", "12", "17", "20", "19", "20", "11"], "num2": [8, 5, 8, 3, 6, 4, 4, 5, 4], "num3": [3, 5, 2, 6, 9, 8, 9, 1, 2], "conditions": [24, 800, "a", 24000], "internal_node_id": "0.0-59.0", "key_presses": [49, 53, 13, 49, 53, 13, 49, 50, 13, 49, 55, 13, 50, 48, 13, 49, 57, 13, 50, 48, 13, 49, 49, 13, 49], "trial": 2, "time_elapsed": 454508, "type": "DISTRACTOR", "trial_index": 77, "num1": [4, 5, 2, 8, 5, 7, 7, 5, 4]}, "uniqueid": "MTK1519:3ND9UOO81L9ALQBJRYE81ALX8K5WL4", "dateTime": 1515952833690}, {"current_trial": 78, "trialdata": {"rt": -1, "trial_type": "single-stim", "stimulus": "<p id=\"stim\">10</p>", "internal_node_id": "0.0-60.0-0.0", "time_elapsed": 457511, "key_press": -1, "trial_index": 78}, "uniqueid": "MTK1519:3ND9UOO81L9ALQBJRYE81ALX8K5WL4", "dateTime": 1515952836693}, {"current_trial": 79, "trialdata": {"rt": -1, "trial_type": "single-stim", "stimulus": "<p id=\"stim\">9</p>", "internal_node_id": "0.0-60.0-1.0", "time_elapsed": 458511, "key_press": -1, "trial_index": 79}, "uniqueid": "MTK1519:3ND9UOO81L9ALQBJRYE81ALX8K5WL4", "dateTime": 1515952837693}, {"current_trial": 80, "trialdata": {"rt": -1, "trial_type": "single-stim", "stimulus": "<p id=\"stim\">8</p>", "internal_node_id": "0.0-60.0-2.0", "time_elapsed": 459511, "key_press": -1, "trial_index": 80}, "uniqueid": "MTK1519:3ND9UOO81L9ALQBJRYE81ALX8K5WL4", "dateTime": 1515952838693}, {"current_trial": 81, "trialdata": {"rt": -1, "trial_type": "single-stim", "stimulus": "<p id=\"stim\">7</p>", "internal_node_id": "0.0-60.0-3.0", "time_elapsed": 460513, "key_press": -1, "trial_index": 81}, "uniqueid": "MTK1519:3ND9UOO81L9ALQBJRYE81ALX8K5WL4", "dateTime": 1515952839695}, {"current_trial": 82, "trialdata": {"rt": -1, "trial_type": "single-stim", "stimulus": "<p id=\"stim\">6</p>", "internal_node_id": "0.0-60.0-4.0", "time_elapsed": 461517, "key_press": -1, "trial_index": 82}, "uniqueid": "MTK1519:3ND9UOO81L9ALQBJRYE81ALX8K5WL4", "dateTime": 1515952840699}, {"current_trial": 83, "trialdata": {"rt": -1, "trial_type": "single-stim", "stimulus": "<p id=\"stim\">5</p>", "internal_node_id": "0.0-60.0-5.0", "time_elapsed": 462519, "key_press": -1, "trial_index": 83}, "uniqueid": "MTK1519:3ND9UOO81L9ALQBJRYE81ALX8K5WL4", "dateTime": 1515952841701}, {"current_trial": 84, "trialdata": {"rt": -1, "trial_type": "single-stim", "stimulus": "<p id=\"stim\">4</p>", "internal_node_id": "0.0-60.0-6.0", "time_elapsed": 463519, "key_press": -1, "trial_index": 84}, "uniqueid": "MTK1519:3ND9UOO81L9ALQBJRYE81ALX8K5WL4", "dateTime": 1515952842701}, {"current_trial": 85, "trialdata": {"rt": -1, "trial_type": "single-stim", "stimulus": "<p id=\"stim\">3</p>", "internal_node_id": "0.0-60.0-7.0", "time_elapsed": 464519, "key_press": -1, "trial_index": 85}, "uniqueid": "MTK1519:3ND9UOO81L9ALQBJRYE81ALX8K5WL4", "dateTime": 1515952843701}, {"current_trial": 86, "trialdata": {"rt": -1, "trial_type": "single-stim", "stimulus": "<p id=\"stim\">2</p>", "internal_node_id": "0.0-60.0-8.0", "time_elapsed": 465521, "key_press": -1, "trial_index": 86}, "uniqueid": "MTK1519:3ND9UOO81L9ALQBJRYE81ALX8K5WL4", "dateTime": 1515952844703}, {"current_trial": 87, "trialdata": {"rt": -1, "trial_type": "single-stim", "stimulus": "<p id=\"stim\">1</p>", "internal_node_id": "0.0-60.0-9.0", "time_elapsed": 466523, "key_press": -1, "trial_index": 87}, "uniqueid": "MTK1519:3ND9UOO81L9ALQBJRYE81ALX8K5WL4", "dateTime": 1515952845705}, {"current_trial": 88, "trialdata": {"rt": -1, "trial_type": "single-stim", "stimulus": "<p id=\"stim\">+</p>", "internal_node_id": "0.0-61.0-0.0", "time_elapsed": 468024, "key_press": -1, "type": "FIXATION", "trial_index": 88}, "uniqueid": "MTK1519:3ND9UOO81L9ALQBJRYE81ALX8K5WL4", "dateTime": 1515952847206}, {"current_trial": 89, "trialdata": {"rt": -1000, "trial_type": "single-audio", "word": "snack", "stimulus": "/static/audio/wordpool/SNACK.wav", "conditions": [24, 800, "a", 24000], "internal_node_id": "0.0-62.0", "trial": 2, "time_elapsed": 469946, "serialpos": 0, "key_press": -1, "wordID": 1330, "type": "PRES_AUD", "trial_index": 89}, "uniqueid": "MTK1519:3ND9UOO81L9ALQBJRYE81ALX8K5WL4", "dateTime": 1515952849129}, {"current_trial": 90, "trialdata": {"rt": -1000, "trial_type": "single-audio", "word": "flesh", "stimulus": "/static/audio/wordpool/FLESH.wav", "conditions": [24, 800, "a", 24000], "internal_node_id": "0.0-63.0", "trial": 2, "time_elapsed": 471934, "serialpos": 1, "key_press": -1, "wordID": 578, "type": "PRES_AUD", "trial_index": 90}, "uniqueid": "MTK1519:3ND9UOO81L9ALQBJRYE81ALX8K5WL4", "dateTime": 1515952851116}, {"current_trial": 91, "trialdata": {"rt": -1000, "trial_type": "single-audio", "word": "sausage", "stimulus": "/static/audio/wordpool/SAUSAGE.wav", "conditions": [24, 800, "a", 24000], "internal_node_id": "0.0-64.0", "trial": 2, "time_elapsed": 473793, "serialpos": 2, "key_press": -1, "wordID": 1237, "type": "PRES_AUD", "trial_index": 91}, "uniqueid": "MTK1519:3ND9UOO81L9ALQBJRYE81ALX8K5WL4", "dateTime": 1515952852975}, {"current_trial": 92, "trialdata": {"rt": -1000, "trial_type": "single-audio", "word": "salad", "stimulus": "/static/audio/wordpool/SALAD.wav", "conditions": [24, 800, "a", 24000], "internal_node_id": "0.0-65.0", "trial": 2, "time_elapsed": 475586, "serialpos": 3, "key_press": -1, "wordID": 1223, "type": "PRES_AUD", "trial_index": 92}, "uniqueid": "MTK1519:3ND9UOO81L9ALQBJRYE81ALX8K5WL4", "dateTime": 1515952854768}, {"current_trial": 93, "trialdata": {"rt": -1000, "trial_type": "single-audio", "word": "nightgown", "stimulus": "/static/audio/wordpool/NIGHTGOWN.wav", "conditions": [24, 800, "a", 24000], "internal_node_id": "0.0-66.0", "trial": 2, "time_elapsed": 477260, "serialpos": 4, "key_press": -1, "wordID": 952, "type": "PRES_AUD", "trial_index": 93}, "uniqueid": "MTK1519:3ND9UOO81L9ALQBJRYE81ALX8K5WL4", "dateTime": 1515952856443}, {"current_trial": 94, "trialdata": {"rt": -1000, "trial_type": "single-audio", "word": "survey", "stimulus": "/static/audio/wordpool/SURVEY.wav", "conditions": [24, 800, "a", 24000], "internal_node_id": "0.0-67.0", "trial": 2, "time_elapsed": 478989, "serialpos": 5, "key_press": -1, "wordID": 1413, "type": "PRES_AUD", "trial_index": 94}, "uniqueid": "MTK1519:3ND9UOO81L9ALQBJRYE81ALX8K5WL4", "dateTime": 1515952858171}, {"current_trial": 95, "trialdata": {"rt": -1000, "trial_type": "single-audio", "word": "sidewalk", "stimulus": "/static/audio/wordpool/SIDEWALK.wav", "conditions": [24, 800, "a", 24000], "internal_node_id": "0.0-68.0", "trial": 2, "time_elapsed": 480862, "serialpos": 6, "key_press": -1, "wordID": 1302, "type": "PRES_AUD", "trial_index": 95}, "uniqueid": "MTK1519:3ND9UOO81L9ALQBJRYE81ALX8K5WL4", "dateTime": 1515952860044}, {"current_trial": 96, "trialdata": {"rt": -1000, "trial_type": "single-audio", "word": "plaza", "stimulus": "/static/audio/wordpool/PLAZA.wav", "conditions": [24, 800, "a", 24000], "internal_node_id": "0.0-69.0", "trial": 2, "time_elapsed": 482620, "serialpos": 7, "key_press": -1, "wordID": 1087, "type": "PRES_AUD", "trial_index": 96}, "uniqueid": "MTK1519:3ND9UOO81L9ALQBJRYE81ALX8K5WL4", "dateTime": 1515952861802}, {"current_trial": 97, "trialdata": {"rt": -1000, "trial_type": "single-audio", "word": "lover", "stimulus": "/static/audio/wordpool/LOVER.wav", "conditions": [24, 800, "a", 24000], "internal_node_id": "0.0-70.0", "trial": 2, "time_elapsed": 484467, "serialpos": 8, "key_press": -1, "wordID": 845, "type": "PRES_AUD", "trial_index": 97}, "uniqueid": "MTK1519:3ND9UOO81L9ALQBJRYE81ALX8K5WL4", "dateTime": 1515952863649}, {"current_trial": 98, "trialdata": {"rt": -1000, "trial_type": "single-audio", "word": "flute", "stimulus": "/static/audio/wordpool/FLUTE.wav", "conditions": [24, 800, "a", 24000], "internal_node_id": "0.0-71.0", "trial": 2, "time_elapsed": 486085, "serialpos": 9, "key_press": -1, "wordID": 584, "type": "PRES_AUD", "trial_index": 98}, "uniqueid": "MTK1519:3ND9UOO81L9ALQBJRYE81ALX8K5WL4", "dateTime": 1515952865267}, {"current_trial": 99, "trialdata": {"rt": -1000, "trial_type": "single-audio", "word": "jungle", "stimulus": "/static/audio/wordpool/JUNGLE.wav", "conditions": [24, 800, "a", 24000], "internal_node_id": "0.0-72.0", "trial": 2, "time_elapsed": 488042, "serialpos": 10, "key_press": -1, "wordID": 763, "type": "PRES_AUD", "trial_index": 99}, "uniqueid": "MTK1519:3ND9UOO81L9ALQBJRYE81ALX8K5WL4", "dateTime": 1515952867224}, {"current_trial": 100, "trialdata": {"rt": -1000, "trial_type": "single-audio", "word": "fireplace", "stimulus": "/static/audio/wordpool/FIREPLACE.wav", "conditions": [24, 800, "a", 24000], "internal_node_id": "0.0-73.0", "trial": 2, "time_elapsed": 489956, "serialpos": 11, "key_press": -1, "wordID": 569, "type": "PRES_AUD", "trial_index": 100}, "uniqueid": "MTK1519:3ND9UOO81L9ALQBJRYE81ALX8K5WL4", "dateTime": 1515952869139}, {"current_trial": 101, "trialdata": {"rt": -1000, "trial_type": "single-audio", "word": "crib", "stimulus": "/static/audio/wordpool/CRIB.wav", "conditions": [24, 800, "a", 24000], "internal_node_id": "0.0-74.0", "trial": 2, "time_elapsed": 491669, "serialpos": 12, "key_press": -1, "wordID": 406, "type": "PRES_AUD", "trial_index": 101}, "uniqueid": "MTK1519:3ND9UOO81L9ALQBJRYE81ALX8K5WL4", "dateTime": 1515952870851}, {"current_trial": 102, "trialdata": {"rt": -1000, "trial_type": "single-audio", "word": "barley", "stimulus": "/static/audio/wordpool/BARLEY.wav", "conditions": [24, 800, "a", 24000], "internal_node_id": "0.0-75.0", "trial": 2, "time_elapsed": 493631, "serialpos": 13, "key_press": -1, "wordID": 87, "type": "PRES_AUD", "trial_index": 102}, "uniqueid": "MTK1519:3ND9UOO81L9ALQBJRYE81ALX8K5WL4", "dateTime": 1515952872813}, {"current_trial": 103, "trialdata": {"rt": -1000, "trial_type": "single-audio", "word": "grape", "stimulus": "/static/audio/wordpool/GRAPE.wav", "conditions": [24, 800, "a", 24000], "internal_node_id": "0.0-76.0", "trial": 2, "time_elapsed": 495357, "serialpos": 14, "key_press": -1, "wordID": 653, "type": "PRES_AUD", "trial_index": 103}, "uniqueid": "MTK1519:3ND9UOO81L9ALQBJRYE81ALX8K5WL4", "dateTime": 1515952874539}, {"current_trial": 104, "trialdata": {"rt": -1000, "trial_type": "single-audio", "word": "shoulder", "stimulus": "/static/audio/wordpool/SHOULDER.wav", "conditions": [24, 800, "a", 24000], "internal_node_id": "0.0-77.0", "trial": 2, "time_elapsed": 497260, "serialpos": 15, "key_press": -1, "wordID": 1293, "type": "PRES_AUD", "trial_index": 104}, "uniqueid": "MTK1519:3ND9UOO81L9ALQBJRYE81ALX8K5WL4", "dateTime": 1515952876443}, {"current_trial": 105, "trialdata": {"rt": -1000, "trial_type": "single-audio", "word": "infant", "stimulus": "/static/audio/wordpool/INFANT.wav", "conditions": [24, 800, "a", 24000], "internal_node_id": "0.0-78.0", "trial": 2, "time_elapsed": 499112, "serialpos": 16, "key_press": -1, "wordID": 736, "type": "PRES_AUD", "trial_index": 105}, "uniqueid": "MTK1519:3ND9UOO81L9ALQBJRYE81ALX8K5WL4", "dateTime": 1515952878294}, {"current_trial": 106, "trialdata": {"rt": -1000, "trial_type": "single-audio", "word": "crater", "stimulus": "/static/audio/wordpool/CRATER.wav", "conditions": [24, 800, "a", 24000], "internal_node_id": "0.0-79.0", "trial": 2, "time_elapsed": 500793, "serialpos": 17, "key_press": -1, "wordID": 399, "type": "PRES_AUD", "trial_index": 106}, "uniqueid": "MTK1519:3ND9UOO81L9ALQBJRYE81ALX8K5WL4", "dateTime": 1515952879975}, {"current_trial": 107, "trialdata": {"rt": -1000, "trial_type": "single-audio", "word": "igloo", "stimulus": "/static/audio/wordpool/IGLOO.wav", "conditions": [24, 800, "a", 24000], "internal_node_id": "0.0-80.0", "trial": 2, "time_elapsed": 502569, "serialpos": 18, "key_press": -1, "wordID": 733, "type": "PRES_AUD", "trial_index": 107}, "uniqueid": "MTK1519:3ND9UOO81L9ALQBJRYE81ALX8K5WL4", "dateTime": 1515952881751}, {"current_trial": 108, "trialdata": {"rt": -1000, "trial_type": "single-audio", "word": "grave", "stimulus": "/static/audio/wordpool/GRAVE.wav", "conditions": [24, 800, "a", 24000], "internal_node_id": "0.0-81.0", "trial": 2, "time_elapsed": 504207, "serialpos": 19, "key_press": -1, "wordID": 657, "type": "PRES_AUD", "trial_index": 108}, "uniqueid": "MTK1519:3ND9UOO81L9ALQBJRYE81ALX8K5WL4", "dateTime": 1515952883389}, {"current_trial": 109, "trialdata": {"rt": -1000, "trial_type": "single-audio", "word": "diner", "stimulus": "/static/audio/wordpool/DINER.wav", "conditions": [24, 800, "a", 24000], "internal_node_id": "0.0-82.0", "trial": 2, "time_elapsed": 505914, "serialpos": 20, "key_press": -1, "wordID": 466, "type": "PRES_AUD", "trial_index": 109}, "uniqueid": "MTK1519:3ND9UOO81L9ALQBJRYE81ALX8K5WL4", "dateTime": 1515952885097}, {"current_trial": 110, "trialdata": {"rt": -1000, "trial_type": "single-audio", "word": "sunrise", "stimulus": "/static/audio/wordpool/SUNRISE.wav", "conditions": [24, 800, "a", 24000], "internal_node_id": "0.0-83.0", "trial": 2, "time_elapsed": 507736, "serialpos": 21, "key_press": -1, "wordID": 1406, "type": "PRES_AUD", "trial_index": 110}, "uniqueid": "MTK1519:3ND9UOO81L9ALQBJRYE81ALX8K5WL4", "dateTime": 1515952886918}, {"current_trial": 111, "trialdata": {"rt": -1000, "trial_type": "single-audio", "word": "mars", "stimulus": "/static/audio/wordpool/MARS.wav", "conditions": [24, 800, "a", 24000], "internal_node_id": "0.0-84.0", "trial": 2, "time_elapsed": 509398, "serialpos": 22, "key_press": -1, "wordID": 872, "type": "PRES_AUD", "trial_index": 111}, "uniqueid": "MTK1519:3ND9UOO81L9ALQBJRYE81ALX8K5WL4", "dateTime": 1515952888581}, {"current_trial": 112, "trialdata": {"rt": -1000, "trial_type": "single-audio", "word": "tart", "stimulus": "/static/audio/wordpool/TART.wav", "conditions": [24, 800, "a", 24000], "internal_node_id": "0.0-85.0", "trial": 2, "time_elapsed": 511391, "serialpos": 23, "key_press": -1, "wordID": 1435, "type": "PRES_AUD", "trial_index": 112}, "uniqueid": "MTK1519:3ND9UOO81L9ALQBJRYE81ALX8K5WL4", "dateTime": 1515952890573}, {"current_trial": 113, "trialdata": {"rt": -1, "trial_type": "single-stim", "stimulus": "", "internal_node_id": "0.0-86.0-0.0", "time_elapsed": 512704, "key_press": -1, "type": "PRE_RECALL_DELAY", "trial_index": 113}, "uniqueid": "MTK1519:3ND9UOO81L9ALQBJRYE81ALX8K5WL4", "dateTime": 1515952891886}, {"current_trial": 114, "trialdata": {"rt": -1000, "trial_type": "single-audio", "stimulus": "/static/audio/400Hz.wav", "internal_node_id": "0.0-87.0", "time_elapsed": 513205, "key_press": -1, "type": "PRE_RECALL_ALERT", "trial_index": 114}, "uniqueid": "MTK1519:3ND9UOO81L9ALQBJRYE81ALX8K5WL4", "dateTime": 1515952892387}, {"current_trial": 115, "trialdata": {"rt": [6651, 9774, 13713, 17065, 20205, 22842, 26568, 31733, 36407, 38967, 42235, 44589, 46118, 49209], "recwords": ["snack", "flash", "sausage", "salad", "survey", "lover", "jungle", "fireplace", "grape", "infant", "igloo", "grave", "mars", "chart"], "key_times": [2909, 3123, 3818, 4293, 4393, 4635, 4781, 5204, 5985, 6651, 8435, 8631, 8791, 9002, 9226, 9774, 11020, 11235, 11465, 11738, 12241, 12390, 12588, 13164, 13350, 13713, 15082, 15623, 15836, 16616, 16832, 17065, 18799, 19081, 19273, 19429, 19512, 19673, 20205, 21644, 21800, 22294, 22461, 22632, 22842, 25007, 25169, 25373, 25718, 26029, 26188, 26568, 29640, 29945, 30089, 30255, 30480, 30656, 30752, 31004, 31212, 31733, 35354, 35522, 35758, 35914, 36018, 36407, 37635, 37827, 38055, 38283, 38424, 38611, 38967, 40735, 41111, 41355, 41603, 41743, 42235, 43604, 43708, 43935, 44095, 44195, 44589, 45235, 45331, 45584, 45828, 46118, 47845, 48019, 48139, 48343, 48487, 49209], "trial_type": "free-recall", "conditions": [24, 800, "a", 24000], "internal_node_id": "0.0-88.0-0.0", "key_presses": [83, 66, 8, 78, 65, 67, 76, 8, 75, 13, 70, 76, 65, 83, 72, 13, 83, 65, 85, 68, 8, 83, 65, 71, 69, 13, 83, 65, 76, 65, 68, 13, 83, 85, 82, 86, 69, 89, 13, 76, 79, 86, 69, 82, 13, 74, 85, 78, 71, 76, 69, 13, 70, 73, 82, 69, 80, 76, 65, 67, 69, 13, 71, 82, 65, 80, 69, 13, 73, 78, 70, 65, 78, 84, 13, 73, 71, 76, 79, 79, 13, 71, 82, 65, 86, 69, 13, 77, 65, 82, 83, 13, 67, 72, 65, 82, 84, 13], "trial": 2, "time_elapsed": 573210, "type": "FREE_RECALL", "trial_index": 115}, "uniqueid": "MTK1519:3ND9UOO81L9ALQBJRYE81ALX8K5WL4", "dateTime": 1515952952396}, {"current_trial": 116, "trialdata": {"rt": 4565, "trial_type": "text", "internal_node_id": "0.0-89.0", "time_elapsed": 579780, "key_press": 13, "type": "INSTRUCTIONS", "trial_index": 116}, "uniqueid": "MTK1519:3ND9UOO81L9ALQBJRYE81ALX8K5WL4", "dateTime": 1515952958962}, {"current_trial": 117, "trialdata": {"rt": [2826, 7016, 9592], "trial_type": "math-distractor", "key_times": [2026, 2218, 2826, 4745, 5161, 7016, 8528, 9102, 9592, 11492], "responses": ["21", "25", "16"], "num2": [9, 9, 9, 6], "num3": [5, 8, 3, 9], "conditions": [12, 800, "a", 12000], "internal_node_id": "0.0-90.0", "key_presses": [50, 49, 13, 50, 53, 13, 49, 54, 13, 49], "trial": 3, "time_elapsed": 593792, "type": "DISTRACTOR", "trial_index": 117, "num1": [7, 8, 4, 3]}, "uniqueid": "MTK1519:3ND9UOO81L9ALQBJRYE81ALX8K5WL4", "dateTime": 1515952972974}, {"current_trial": 118, "trialdata": {"rt": -1, "trial_type": "single-stim", "stimulus": "<p id=\"stim\">10</p>", "internal_node_id": "0.0-91.0-0.0", "time_elapsed": 596796, "key_press": -1, "trial_index": 118}, "uniqueid": "MTK1519:3ND9UOO81L9ALQBJRYE81ALX8K5WL4", "dateTime": 1515952975978}, {"current_trial": 119, "trialdata": {"rt": -1, "trial_type": "single-stim", "stimulus": "<p id=\"stim\">9</p>", "internal_node_id": "0.0-91.0-1.0", "time_elapsed": 597796, "key_press": -1, "trial_index": 119}, "uniqueid": "MTK1519:3ND9UOO81L9ALQBJRYE81ALX8K5WL4", "dateTime": 1515952976978}, {"current_trial": 120, "trialdata": {"rt": -1, "trial_type": "single-stim", "stimulus": "<p id=\"stim\">8</p>", "internal_node_id": "0.0-91.0-2.0", "time_elapsed": 598798, "key_press": -1, "trial_index": 120}, "uniqueid": "MTK1519:3ND9UOO81L9ALQBJRYE81ALX8K5WL4", "dateTime": 1515952977980}, {"current_trial": 121, "trialdata": {"rt": -1, "trial_type": "single-stim", "stimulus": "<p id=\"stim\">7</p>", "internal_node_id": "0.0-91.0-3.0", "time_elapsed": 599800, "key_press": -1, "trial_index": 121}, "uniqueid": "MTK1519:3ND9UOO81L9ALQBJRYE81ALX8K5WL4", "dateTime": 1515952978982}, {"current_trial": 122, "trialdata": {"rt": -1, "trial_type": "single-stim", "stimulus": "<p id=\"stim\">6</p>", "internal_node_id": "0.0-91.0-4.0", "time_elapsed": 600801, "key_press": -1, "trial_index": 122}, "uniqueid": "MTK1519:3ND9UOO81L9ALQBJRYE81ALX8K5WL4", "dateTime": 1515952979983}, {"current_trial": 123, "trialdata": {"rt": -1, "trial_type": "single-stim", "stimulus": "<p id=\"stim\">5</p>", "internal_node_id": "0.0-91.0-5.0", "time_elapsed": 601805, "key_press": -1, "trial_index": 123}, "uniqueid": "MTK1519:3ND9UOO81L9ALQBJRYE81ALX8K5WL4", "dateTime": 1515952980987}, {"current_trial": 124, "trialdata": {"rt": -1, "trial_type": "single-stim", "stimulus": "<p id=\"stim\">4</p>", "internal_node_id": "0.0-91.0-6.0", "time_elapsed": 602809, "key_press": -1, "trial_index": 124}, "uniqueid": "MTK1519:3ND9UOO81L9ALQBJRYE81ALX8K5WL4", "dateTime": 1515952981991}, {"current_trial": 125, "trialdata": {"rt": -1, "trial_type": "single-stim", "stimulus": "<p id=\"stim\">3</p>", "internal_node_id": "0.0-91.0-7.0", "time_elapsed": 603811, "key_press": -1, "trial_index": 125}, "uniqueid": "MTK1519:3ND9UOO81L9ALQBJRYE81ALX8K5WL4", "dateTime": 1515952982993}, {"current_trial": 126, "trialdata": {"rt": -1, "trial_type": "single-stim", "stimulus": "<p id=\"stim\">2</p>", "internal_node_id": "0.0-91.0-8.0", "time_elapsed": 604811, "key_press": -1, "trial_index": 126}, "uniqueid": "MTK1519:3ND9UOO81L9ALQBJRYE81ALX8K5WL4", "dateTime": 1515952983993}, {"current_trial": 127, "trialdata": {"rt": -1, "trial_type": "single-stim", "stimulus": "<p id=\"stim\">1</p>", "internal_node_id": "0.0-91.0-9.0", "time_elapsed": 605815, "key_press": -1, "trial_index": 127}, "uniqueid": "MTK1519:3ND9UOO81L9ALQBJRYE81ALX8K5WL4", "dateTime": 1515952984997}, {"current_trial": 128, "trialdata": {"rt": -1, "trial_type": "single-stim", "stimulus": "<p id=\"stim\">+</p>", "internal_node_id": "0.0-92.0-0.0", "time_elapsed": 607316, "key_press": -1, "type": "FIXATION", "trial_index": 128}, "uniqueid": "MTK1519:3ND9UOO81L9ALQBJRYE81ALX8K5WL4", "dateTime": 1515952986498}, {"current_trial": 129, "trialdata": {"rt": -1000, "trial_type": "single-audio", "word": "shelter", "stimulus": "/static/audio/wordpool/SHELTER.wav", "conditions": [12, 800, "a", 12000], "internal_node_id": "0.0-93.0", "trial": 3, "time_elapsed": 609210, "serialpos": 0, "key_press": -1, "wordID": 1281, "type": "PRES_AUD", "trial_index": 129}, "uniqueid": "MTK1519:3ND9UOO81L9ALQBJRYE81ALX8K5WL4", "dateTime": 1515952988392}, {"current_trial": 130, "trialdata": {"rt": -1000, "trial_type": "single-audio", "word": "airport", "stimulus": "/static/audio/wordpool/AIRPORT.wav", "conditions": [12, 800, "a", 12000], "internal_node_id": "0.0-94.0", "trial": 3, "time_elapsed": 611136, "serialpos": 1, "key_press": -1, "wordID": 12, "type": "PRES_AUD", "trial_index": 130}, "uniqueid": "MTK1519:3ND9UOO81L9ALQBJRYE81ALX8K5WL4", "dateTime": 1515952990318}, {"current_trial": 131, "trialdata": {"rt": -1000, "trial_type": "single-audio", "word": "judge", "stimulus": "/static/audio/wordpool/JUDGE.wav", "conditions": [12, 800, "a", 12000], "internal_node_id": "0.0-95.0", "trial": 3, "time_elapsed": 613017, "serialpos": 2, "key_press": -1, "wordID": 760, "type": "PRES_AUD", "trial_index": 131}, "uniqueid": "MTK1519:3ND9UOO81L9ALQBJRYE81ALX8K5WL4", "dateTime": 1515952992199}, {"current_trial": 132, "trialdata": {"rt": -1000, "trial_type": "single-audio", "word": "iceberg", "stimulus": "/static/audio/wordpool/ICEBERG.wav", "conditions": [12, 800, "a", 12000], "internal_node_id": "0.0-96.0", "trial": 3, "time_elapsed": 614738, "serialpos": 3, "key_press": -1, "wordID": 730, "type": "PRES_AUD", "trial_index": 132}, "uniqueid": "MTK1519:3ND9UOO81L9ALQBJRYE81ALX8K5WL4", "dateTime": 1515952993920}, {"current_trial": 133, "trialdata": {"rt": -1000, "trial_type": "single-audio", "word": "yacht", "stimulus": "/static/audio/wordpool/YACHT.wav", "conditions": [12, 800, "a", 12000], "internal_node_id": "0.0-97.0", "trial": 3, "time_elapsed": 616425, "serialpos": 4, "key_press": -1, "wordID": 1628, "type": "PRES_AUD", "trial_index": 133}, "uniqueid": "MTK1519:3ND9UOO81L9ALQBJRYE81ALX8K5WL4", "dateTime": 1515952995608}, {"current_trial": 134, "trialdata": {"rt": -1000, "trial_type": "single-audio", "word": "jury", "stimulus": "/static/audio/wordpool/JURY.wav", "conditions": [12, 800, "a", 12000], "internal_node_id": "0.0-98.0", "trial": 3, "time_elapsed": 618195, "serialpos": 5, "key_press": -1, "wordID": 765, "type": "PRES_AUD", "trial_index": 134}, "uniqueid": "MTK1519:3ND9UOO81L9ALQBJRYE81ALX8K5WL4", "dateTime": 1515952997378}, {"current_trial": 135, "trialdata": {"rt": -1000, "trial_type": "single-audio", "word": "asia", "stimulus": "/static/audio/wordpool/ASIA.wav", "conditions": [12, 800, "a", 12000], "internal_node_id": "0.0-99.0", "trial": 3, "time_elapsed": 619887, "serialpos": 6, "key_press": -1, "wordID": 45, "type": "PRES_AUD", "trial_index": 135}, "uniqueid": "MTK1519:3ND9UOO81L9ALQBJRYE81ALX8K5WL4", "dateTime": 1515952999069}, {"current_trial": 136, "trialdata": {"rt": -1000, "trial_type": "single-audio", "word": "twister", "stimulus": "/static/audio/wordpool/TWISTER.wav", "conditions": [12, 800, "a", 12000], "internal_node_id": "0.0-100.0", "trial": 3, "time_elapsed": 621690, "serialpos": 7, "key_press": -1, "wordID": 1529, "type": "PRES_AUD", "trial_index": 136}, "uniqueid": "MTK1519:3ND9UOO81L9ALQBJRYE81ALX8K5WL4", "dateTime": 1515953000872}, {"current_trial": 137, "trialdata": {"rt": -1000, "trial_type": "single-audio", "word": "seagull", "stimulus": "/static/audio/wordpool/SEAGULL.wav", "conditions": [12, 800, "a", 12000], "internal_node_id": "0.0-101.0", "trial": 3, "time_elapsed": 623317, "serialpos": 8, "key_press": -1, "wordID": 1260, "type": "PRES_AUD", "trial_index": 137}, "uniqueid": "MTK1519:3ND9UOO81L9ALQBJRYE81ALX8K5WL4", "dateTime": 1515953002499}, {"current_trial": 138, "trialdata": {"rt": -1000, "trial_type": "single-audio", "word": "driver", "stimulus": "/static/audio/wordpool/DRIVER.wav", "conditions": [12, 800, "a", 12000], "internal_node_id": "0.0-102.0", "trial": 3, "time_elapsed": 625198, "serialpos": 9, "key_press": -1, "wordID": 498, "type": "PRES_AUD", "trial_index": 138}, "uniqueid": "MTK1519:3ND9UOO81L9ALQBJRYE81ALX8K5WL4", "dateTime": 1515953004380}, {"current_trial": 139, "trialdata": {"rt": -1000, "trial_type": "single-audio", "word": "truck", "stimulus": "/static/audio/wordpool/TRUCK.wav", "conditions": [12, 800, "a", 12000], "internal_node_id": "0.0-103.0", "trial": 3, "time_elapsed": 626836, "serialpos": 10, "key_press": -1, "wordID": 1511, "type": "PRES_AUD", "trial_index": 139}, "uniqueid": "MTK1519:3ND9UOO81L9ALQBJRYE81ALX8K5WL4", "dateTime": 1515953006018}, {"current_trial": 140, "trialdata": {"rt": -1000, "trial_type": "single-audio", "word": "yarn", "stimulus": "/static/audio/wordpool/YARN.wav", "conditions": [12, 800, "a", 12000], "internal_node_id": "0.0-104.0", "trial": 3, "time_elapsed": 628753, "serialpos": 11, "key_press": -1, "wordID": 1630, "type": "PRES_AUD", "trial_index": 140}, "uniqueid": "MTK1519:3ND9UOO81L9ALQBJRYE81ALX8K5WL4", "dateTime": 1515953007935}, {"current_trial": 141, "trialdata": {"rt": -1, "trial_type": "single-stim", "stimulus": "", "internal_node_id": "0.0-105.0-0.0", "time_elapsed": 630084, "key_press": -1, "type": "PRE_RECALL_DELAY", "trial_index": 141}, "uniqueid": "MTK1519:3ND9UOO81L9ALQBJRYE81ALX8K5WL4", "dateTime": 1515953009266}, {"current_trial": 142, "trialdata": {"rt": -1000, "trial_type": "single-audio", "stimulus": "/static/audio/400Hz.wav", "internal_node_id": "0.0-106.0", "time_elapsed": 630588, "key_press": -1, "type": "PRE_RECALL_ALERT", "trial_index": 142}, "uniqueid": "MTK1519:3ND9UOO81L9ALQBJRYE81ALX8K5WL4", "dateTime": 1515953009771}, {"current_trial": 143, "trialdata": {"rt": [4509, 7509, 11037, 16024, 19198, 21717, 26145], "recwords": ["shelter", "airport", "judge", "iceberg", "yacht", "twister", "asia"], "key_times": [2545, 2732, 2901, 3181, 3519, 3603, 3821, 4509, 5916, 6187, 6345, 6665, 6893, 6994, 7173, 7509, 9643, 9876, 10156, 10397, 10504, 11037, 12347, 12539, 12780, 13194, 13835, 14182, 14828, 15015, 15723, 16024, 17607, 17736, 18009, 18198, 18478, 19198, 20308, 20632, 20843, 20984, 21161, 21236, 21407, 21717, 23585, 23753, 23957, 24043, 26145], "trial_type": "free-recall", "conditions": [12, 800, "a", 12000], "internal_node_id": "0.0-107.0-0.0", "key_presses": [83, 72, 69, 76, 84, 69, 82, 13, 65, 73, 82, 80, 79, 82, 84, 13, 74, 85, 68, 71, 69, 13, 73, 67, 69, 66, 69, 71, 8, 82, 71, 13, 89, 65, 67, 72, 84, 13, 84, 87, 73, 83, 84, 69, 82, 13, 65, 83, 73, 65, 13], "trial": 3, "time_elapsed": 690596, "type": "FREE_RECALL", "trial_index": 143}, "uniqueid": "MTK1519:3ND9UOO81L9ALQBJRYE81ALX8K5WL4", "dateTime": 1515953069786}, {"current_trial": 144, "trialdata": {"rt": 1837, "trial_type": "text", "internal_node_id": "0.0-108.0", "time_elapsed": 694443, "key_press": 13, "type": "INSTRUCTIONS", "trial_index": 144}, "uniqueid": "MTK1519:3ND9UOO81L9ALQBJRYE81ALX8K5WL4", "dateTime": 1515953073625}, {"current_trial": 145, "trialdata": {"rt": [4396, 6771, 9316, 12413, 15081, 18976, 22134], "trial_type": "math-distractor", "key_times": [2412, 2676, 4396, 6275, 6495, 6771, 9022, 9316, 11156, 12105, 12413, 13922, 14472, 15081, 17376, 18160, 18976, 21150, 21402, 22134], "responses": ["17", "12", "6", "25", "17", "14", "10"], "num2": [9, 5, 3, 9, 7, 9, 1, 1], "num3": [5, 5, 1, 8, 7, 1, 2, 6], "conditions": [24, 1600, "a", 24000], "internal_node_id": "0.0-109.0", "key_presses": [49, 55, 13, 49, 50, 13, 54, 13, 50, 53, 13, 49, 55, 13, 49, 52, 13, 49, 48, 13], "trial": 4, "time_elapsed": 720446, "type": "DISTRACTOR", "trial_index": 145, "num1": [3, 2, 2, 8, 3, 4, 7, 4]}, "uniqueid": "MTK1519:3ND9UOO81L9ALQBJRYE81ALX8K5WL4", "dateTime": 1515953099628}, {"current_trial": 146, "trialdata": {"rt": -1, "trial_type": "single-stim", "stimulus": "<p id=\"stim\">10</p>", "internal_node_id": "0.0-110.0-0.0", "time_elapsed": 723451, "key_press": -1, "trial_index": 146}, "uniqueid": "MTK1519:3ND9UOO81L9ALQBJRYE81ALX8K5WL4", "dateTime": 1515953102633}, {"current_trial": 147, "trialdata": {"rt": -1, "trial_type": "single-stim", "stimulus": "<p id=\"stim\">9</p>", "internal_node_id": "0.0-110.0-1.0", "time_elapsed": 724454, "key_press": -1, "trial_index": 147}, "uniqueid": "MTK1519:3ND9UOO81L9ALQBJRYE81ALX8K5WL4", "dateTime": 1515953103636}, {"current_trial": 148, "trialdata": {"rt": -1, "trial_type": "single-stim", "stimulus": "<p id=\"stim\">8</p>", "internal_node_id": "0.0-110.0-2.0", "time_elapsed": 725454, "key_press": -1, "trial_index": 148}, "uniqueid": "MTK1519:3ND9UOO81L9ALQBJRYE81ALX8K5WL4", "dateTime": 1515953104636}, {"current_trial": 149, "trialdata": {"rt": -1, "trial_type": "single-stim", "stimulus": "<p id=\"stim\">7</p>", "internal_node_id": "0.0-110.0-3.0", "time_elapsed": 726454, "key_press": -1, "trial_index": 149}, "uniqueid": "MTK1519:3ND9UOO81L9ALQBJRYE81ALX8K5WL4", "dateTime": 1515953105636}, {"current_trial": 150, "trialdata": {"rt": -1, "trial_type": "single-stim", "stimulus": "<p id=\"stim\">6</p>", "internal_node_id": "0.0-110.0-4.0", "time_elapsed": 727458, "key_press": -1, "trial_index": 150}, "uniqueid": "MTK1519:3ND9UOO81L9ALQBJRYE81ALX8K5WL4", "dateTime": 1515953106640}, {"current_trial": 151, "trialdata": {"rt": -1, "trial_type": "single-stim", "stimulus": "<p id=\"stim\">5</p>", "internal_node_id": "0.0-110.0-5.0", "time_elapsed": 728460, "key_press": -1, "trial_index": 151}, "uniqueid": "MTK1519:3ND9UOO81L9ALQBJRYE81ALX8K5WL4", "dateTime": 1515953107642}, {"current_trial": 152, "trialdata": {"rt": -1, "trial_type": "single-stim", "stimulus": "<p id=\"stim\">4</p>", "internal_node_id": "0.0-110.0-6.0", "time_elapsed": 729461, "key_press": -1, "trial_index": 152}, "uniqueid": "MTK1519:3ND9UOO81L9ALQBJRYE81ALX8K5WL4", "dateTime": 1515953108643}, {"current_trial": 153, "trialdata": {"rt": -1, "trial_type": "single-stim", "stimulus": "<p id=\"stim\">3</p>", "internal_node_id": "0.0-110.0-7.0", "time_elapsed": 730463, "key_press": -1, "trial_index": 153}, "uniqueid": "MTK1519:3ND9UOO81L9ALQBJRYE81ALX8K5WL4", "dateTime": 1515953109645}, {"current_trial": 154, "trialdata": {"rt": -1, "trial_type": "single-stim", "stimulus": "<p id=\"stim\">2</p>", "internal_node_id": "0.0-110.0-8.0", "time_elapsed": 731466, "key_press": -1, "trial_index": 154}, "uniqueid": "MTK1519:3ND9UOO81L9ALQBJRYE81ALX8K5WL4", "dateTime": 1515953110648}, {"current_trial": 155, "trialdata": {"rt": -1, "trial_type": "single-stim", "stimulus": "<p id=\"stim\">1</p>", "internal_node_id": "0.0-110.0-9.0", "time_elapsed": 732467, "key_press": -1, "trial_index": 155}, "uniqueid": "MTK1519:3ND9UOO81L9ALQBJRYE81ALX8K5WL4", "dateTime": 1515953111649}, {"current_trial": 156, "trialdata": {"rt": -1, "trial_type": "single-stim", "stimulus": "<p id=\"stim\">+</p>", "internal_node_id": "0.0-111.0-0.0", "time_elapsed": 733967, "key_press": -1, "type": "FIXATION", "trial_index": 156}, "uniqueid": "MTK1519:3ND9UOO81L9ALQBJRYE81ALX8K5WL4", "dateTime": 1515953113149}, {"current_trial": 157, "trialdata": {"rt": -1000, "trial_type": "single-audio", "word": "plaid", "stimulus": "/static/audio/wordpool/PLAID.wav", "conditions": [24, 1600, "a", 24000], "internal_node_id": "0.0-112.0", "trial": 4, "time_elapsed": 736524, "serialpos": 0, "key_press": -1, "wordID": 1079, "type": "PRES_AUD", "trial_index": 157}, "uniqueid": "MTK1519:3ND9UOO81L9ALQBJRYE81ALX8K5WL4", "dateTime": 1515953115707}, {"current_trial": 158, "trialdata": {"rt": -1000, "trial_type": "single-audio", "word": "police", "stimulus": "/static/audio/wordpool/POLICE.wav", "conditions": [24, 1600, "a", 24000], "internal_node_id": "0.0-113.0", "trial": 4, "time_elapsed": 739284, "serialpos": 1, "key_press": -1, "wordID": 1097, "type": "PRES_AUD", "trial_index": 158}, "uniqueid": "MTK1519:3ND9UOO81L9ALQBJRYE81ALX8K5WL4", "dateTime": 1515953118466}, {"current_trial": 159, "trialdata": {"rt": -1000, "trial_type": "single-audio", "word": "jelly", "stimulus": "/static/audio/wordpool/JELLY.wav", "conditions": [24, 1600, "a", 24000], "internal_node_id": "0.0-114.0", "trial": 4, "time_elapsed": 742053, "serialpos": 2, "key_press": -1, "wordID": 754, "type": "PRES_AUD", "trial_index": 159}, "uniqueid": "MTK1519:3ND9UOO81L9ALQBJRYE81ALX8K5WL4", "dateTime": 1515953121235}, {"current_trial": 160, "trialdata": {"rt": -1000, "trial_type": "single-audio", "word": "chemist", "stimulus": "/static/audio/wordpool/CHEMIST.wav", "conditions": [24, 1600, "a", 24000], "internal_node_id": "0.0-115.0", "trial": 4, "time_elapsed": 744813, "serialpos": 3, "key_press": -1, "wordID": 291, "type": "PRES_AUD", "trial_index": 160}, "uniqueid": "MTK1519:3ND9UOO81L9ALQBJRYE81ALX8K5WL4", "dateTime": 1515953123995}, {"current_trial": 161, "trialdata": {"rt": -1000, "trial_type": "single-audio", "word": "scarecrow", "stimulus": "/static/audio/wordpool/SCARECROW.wav", "conditions": [24, 1600, "a", 24000], "internal_node_id": "0.0-116.0", "trial": 4, "time_elapsed": 747388, "serialpos": 4, "key_press": -1, "wordID": 1244, "type": "PRES_AUD", "trial_index": 161}, "uniqueid": "MTK1519:3ND9UOO81L9ALQBJRYE81ALX8K5WL4", "dateTime": 1515953126570}, {"current_trial": 162, "trialdata": {"rt": -1000, "trial_type": "single-audio", "word": "cobra", "stimulus": "/static/audio/wordpool/COBRA.wav", "conditions": [24, 1600, "a", 24000], "internal_node_id": "0.0-117.0", "trial": 4, "time_elapsed": 749970, "serialpos": 5, "key_press": -1, "wordID": 335, "type": "PRES_AUD", "trial_index": 162}, "uniqueid": "MTK1519:3ND9UOO81L9ALQBJRYE81ALX8K5WL4", "dateTime": 1515953129153}, {"current_trial": 163, "trialdata": {"rt": -1000, "trial_type": "single-audio", "word": "pastry", "stimulus": "/static/audio/wordpool/PASTRY.wav", "conditions": [24, 1600, "a", 24000], "internal_node_id": "0.0-118.0", "trial": 4, "time_elapsed": 752672, "serialpos": 6, "key_press": -1, "wordID": 1021, "type": "PRES_AUD", "trial_index": 163}, "uniqueid": "MTK1519:3ND9UOO81L9ALQBJRYE81ALX8K5WL4", "dateTime": 1515953131854}, {"current_trial": 164, "trialdata": {"rt": -1000, "trial_type": "single-audio", "word": "drink", "stimulus": "/static/audio/wordpool/DRINK.wav", "conditions": [24, 1600, "a", 24000], "internal_node_id": "0.0-119.0", "trial": 4, "time_elapsed": 755182, "serialpos": 7, "key_press": -1, "wordID": 497, "type": "PRES_AUD", "trial_index": 164}, "uniqueid": "MTK1519:3ND9UOO81L9ALQBJRYE81ALX8K5WL4", "dateTime": 1515953134365}, {"current_trial": 165, "trialdata": {"rt": -1000, "trial_type": "single-audio", "word": "turtle", "stimulus": "/static/audio/wordpool/TURTLE.wav", "conditions": [24, 1600, "a", 24000], "internal_node_id": "0.0-120.0", "trial": 4, "time_elapsed": 757657, "serialpos": 8, "key_press": -1, "wordID": 1521, "type": "PRES_AUD", "trial_index": 165}, "uniqueid": "MTK1519:3ND9UOO81L9ALQBJRYE81ALX8K5WL4", "dateTime": 1515953136839}, {"current_trial": 166, "trialdata": {"rt": -1000, "trial_type": "single-audio", "word": "crab", "stimulus": "/static/audio/wordpool/CRAB.wav", "conditions": [24, 1600, "a", 24000], "internal_node_id": "0.0-121.0", "trial": 4, "time_elapsed": 760174, "serialpos": 9, "key_press": -1, "wordID": 396, "type": "PRES_AUD", "trial_index": 166}, "uniqueid": "MTK1519:3ND9UOO81L9ALQBJRYE81ALX8K5WL4", "dateTime": 1515953139356}, {"current_trial": 167, "trialdata": {"rt": -1000, "trial_type": "single-audio", "word": "clam", "stimulus": "/static/audio/wordpool/CLAM.wav", "conditions": [24, 1600, "a", 24000], "internal_node_id": "0.0-122.0", "trial": 4, "time_elapsed": 762946, "serialpos": 10, "key_press": -1, "wordID": 314, "type": "PRES_AUD", "trial_index": 167}, "uniqueid": "MTK1519:3ND9UOO81L9ALQBJRYE81ALX8K5WL4", "dateTime": 1515953142128}, {"current_trial": 168, "trialdata": {"rt": -1000, "trial_type": "single-audio", "word": "patrol", "stimulus": "/static/audio/wordpool/PATROL.wav", "conditions": [24, 1600, "a", 24000], "internal_node_id": "0.0-123.0", "trial": 4, "time_elapsed": 765414, "serialpos": 11, "key_press": -1, "wordID": 1026, "type": "PRES_AUD", "trial_index": 168}, "uniqueid": "MTK1519:3ND9UOO81L9ALQBJRYE81ALX8K5WL4", "dateTime": 1515953144596}, {"current_trial": 169, "trialdata": {"rt": -1000, "trial_type": "single-audio", "word": "scallop", "stimulus": "/static/audio/wordpool/SCALLOP.wav", "conditions": [24, 1600, "a", 24000], "internal_node_id": "0.0-124.0", "trial": 4, "time_elapsed": 768102, "serialpos": 12, "key_press": -1, "wordID": 1241, "type": "PRES_AUD", "trial_index": 169}, "uniqueid": "MTK1519:3ND9UOO81L9ALQBJRYE81ALX8K5WL4", "dateTime": 1515953147284}, {"current_trial": 170, "trialdata": {"rt": -1000, "trial_type": "single-audio", "word": "brick", "stimulus": "/static/audio/wordpool/BRICK.wav", "conditions": [24, 1600, "a", 24000], "internal_node_id": "0.0-125.0", "trial": 4, "time_elapsed": 770731, "serialpos": 13, "key_press": -1, "wordID": 171, "type": "PRES_AUD", "trial_index": 170}, "uniqueid": "MTK1519:3ND9UOO81L9ALQBJRYE81ALX8K5WL4", "dateTime": 1515953149914}, {"current_trial": 171, "trialdata": {"rt": -1000, "trial_type": "single-audio", "word": "whistle", "stimulus": "/static/audio/wordpool/WHISTLE.wav", "conditions": [24, 1600, "a", 24000], "internal_node_id": "0.0-126.0", "trial": 4, "time_elapsed": 773415, "serialpos": 14, "key_press": -1, "wordID": 1605, "type": "PRES_AUD", "trial_index": 171}, "uniqueid": "MTK1519:3ND9UOO81L9ALQBJRYE81ALX8K5WL4", "dateTime": 1515953152597}, {"current_trial": 172, "trialdata": {"rt": -1000, "trial_type": "single-audio", "word": "fleet", "stimulus": "/static/audio/wordpool/FLEET.wav", "conditions": [24, 1600, "a", 24000], "internal_node_id": "0.0-127.0", "trial": 4, "time_elapsed": 775837, "serialpos": 15, "key_press": -1, "wordID": 577, "type": "PRES_AUD", "trial_index": 172}, "uniqueid": "MTK1519:3ND9UOO81L9ALQBJRYE81ALX8K5WL4", "dateTime": 1515953155019}, {"current_trial": 173, "trialdata": {"rt": -1000, "trial_type": "single-audio", "word": "server", "stimulus": "/static/audio/wordpool/SERVER.wav", "conditions": [24, 1600, "a", 24000], "internal_node_id": "0.0-128.0", "trial": 4, "time_elapsed": 778564, "serialpos": 16, "key_press": -1, "wordID": 1271, "type": "PRES_AUD", "trial_index": 173}, "uniqueid": "MTK1519:3ND9UOO81L9ALQBJRYE81ALX8K5WL4", "dateTime": 1515953157746}, {"current_trial": 174, "trialdata": {"rt": -1000, "trial_type": "single-audio", "word": "tuba", "stimulus": "/static/audio/wordpool/TUBA.wav", "conditions": [24, 1600, "a", 24000], "internal_node_id": "0.0-129.0", "trial": 4, "time_elapsed": 781300, "serialpos": 17, "key_press": -1, "wordID": 1514, "type": "PRES_AUD", "trial_index": 174}, "uniqueid": "MTK1519:3ND9UOO81L9ALQBJRYE81ALX8K5WL4", "dateTime": 1515953160483}, {"current_trial": 175, "trialdata": {"rt": -1000, "trial_type": "single-audio", "word": "buggy", "stimulus": "/static/audio/wordpool/BUGGY.wav", "conditions": [24, 1600, "a", 24000], "internal_node_id": "0.0-130.0", "trial": 4, "time_elapsed": 783743, "serialpos": 18, "key_press": -1, "wordID": 187, "type": "PRES_AUD", "trial_index": 175}, "uniqueid": "MTK1519:3ND9UOO81L9ALQBJRYE81ALX8K5WL4", "dateTime": 1515953162925}, {"current_trial": 176, "trialdata": {"rt": -1000, "trial_type": "single-audio", "word": "taxi", "stimulus": "/static/audio/wordpool/TAXI.wav", "conditions": [24, 1600, "a", 24000], "internal_node_id": "0.0-131.0", "trial": 4, "time_elapsed": 786525, "serialpos": 19, "key_press": -1, "wordID": 1437, "type": "PRES_AUD", "trial_index": 176}, "uniqueid": "MTK1519:3ND9UOO81L9ALQBJRYE81ALX8K5WL4", "dateTime": 1515953165707}, {"current_trial": 177, "trialdata": {"rt": -1000, "trial_type": "single-audio", "word": "virus", "stimulus": "/static/audio/wordpool/VIRUS.wav", "conditions": [24, 1600, "a", 24000], "internal_node_id": "0.0-132.0", "trial": 4, "time_elapsed": 789085, "serialpos": 20, "key_press": -1, "wordID": 1571, "type": "PRES_AUD", "trial_index": 177}, "uniqueid": "MTK1519:3ND9UOO81L9ALQBJRYE81ALX8K5WL4", "dateTime": 1515953168267}, {"current_trial": 178, "trialdata": {"rt": -1000, "trial_type": "single-audio", "word": "bug", "stimulus": "/static/audio/wordpool/BUG.wav", "conditions": [24, 1600, "a", 24000], "internal_node_id": "0.0-133.0", "trial": 4, "time_elapsed": 791715, "serialpos": 21, "key_press": -1, "wordID": 186, "type": "PRES_AUD", "trial_index": 178}, "uniqueid": "MTK1519:3ND9UOO81L9ALQBJRYE81ALX8K5WL4", "dateTime": 1515953170897}, {"current_trial": 179, "trialdata": {"rt": -1000, "trial_type": "single-audio", "word": "banjo", "stimulus": "/static/audio/wordpool/BANJO.wav", "conditions": [24, 1600, "a", 24000], "internal_node_id": "0.0-134.0", "trial": 4, "time_elapsed": 794252, "serialpos": 22, "key_press": -1, "wordID": 81, "type": "PRES_AUD", "trial_index": 179}, "uniqueid": "MTK1519:3ND9UOO81L9ALQBJRYE81ALX8K5WL4", "dateTime": 1515953173435}, {"current_trial": 180, "trialdata": {"rt": -1000, "trial_type": "single-audio", "word": "monster", "stimulus": "/static/audio/wordpool/MONSTER.wav", "conditions": [24, 1600, "a", 24000], "internal_node_id": "0.0-135.0", "trial": 4, "time_elapsed": 796871, "serialpos": 23, "key_press": -1, "wordID": 911, "type": "PRES_AUD", "trial_index": 180}, "uniqueid": "MTK1519:3ND9UOO81L9ALQBJRYE81ALX8K5WL4", "dateTime": 1515953176053}, {"current_trial": 181, "trialdata": {"rt": -1, "trial_type": "single-stim", "stimulus": "", "internal_node_id": "0.0-136.0-0.0", "time_elapsed": 798108, "key_press": -1, "type": "PRE_RECALL_DELAY", "trial_index": 181}, "uniqueid": "MTK1519:3ND9UOO81L9ALQBJRYE81ALX8K5WL4", "dateTime": 1515953177290}, {"current_trial": 182, "trialdata": {"rt": -1000, "trial_type": "single-audio", "stimulus": "/static/audio/400Hz.wav", "internal_node_id": "0.0-137.0", "time_elapsed": 798613, "key_press": -1, "type": "PRE_RECALL_ALERT", "trial_index": 182}, "uniqueid": "MTK1519:3ND9UOO81L9ALQBJRYE81ALX8K5WL4", "dateTime": 1515953177795}, {"current_trial": 183, "trialdata": {"rt": [2361, 5357, 8706, 11369, 14007, 16969, 21364, 25543, 31103, 35823, 38861, 41218, 45272, 48764], "recwords": ["flag", "police", "jelly", "chemist", "cobra", "pastry", "scarecrow", "turtle", "clamp", "patrol", "brick", "whistle", "fleet", "server"], "key_times": [1109, 1339, 1502, 1905, 2361, 3983, 4162, 4325, 4540, 4664, 4840, 5357, 7340, 7531, 7740, 7878, 8217, 8706, 9261, 9487, 9631, 9770, 9963, 10067, 10223, 11369, 12417, 12655, 13077, 13581, 13816, 14007, 15585, 15707, 15874, 16118, 16226, 16364, 16969, 17544, 17798, 18035, 18292, 18443, 19051, 19255, 19619, 19723, 21364, 22631, 23029, 23135, 24534, 24690, 24767, 25543, 29711, 30076, 30199, 30354, 30690, 31103, 32702, 32830, 33340, 33504, 34511, 34702, 35823, 36668, 36918, 37182, 37314, 37463, 38861, 39625, 39789, 40055, 40163, 40380, 40806, 40934, 41218, 43400, 43612, 43896, 44172, 44664, 45272, 46563, 46779, 46927, 47203, 47299, 48484, 48764], "trial_type": "free-recall", "conditions": [24, 1600, "a", 24000], "internal_node_id": "0.0-138.0-0.0", "key_presses": [70, 76, 65, 71, 13, 80, 79, 76, 73, 67, 69, 13, 74, 69, 76, 76, 89, 13, 67, 72, 69, 77, 73, 83, 84, 13, 67, 79, 66, 82, 65, 13, 80, 65, 83, 84, 82, 89, 13, 83, 67, 65, 82, 69, 67, 82, 79, 87, 13, 84, 85, 82, 84, 76, 69, 13, 67, 76, 65, 77, 80, 13, 80, 65, 84, 82, 79, 76, 13, 66, 82, 73, 67, 75, 13, 87, 72, 73, 83, 84, 76, 69, 13, 70, 76, 69, 69, 84, 13, 83, 69, 82, 86, 69, 82, 13], "trial": 4, "time_elapsed": 858627, "type": "FREE_RECALL", "trial_index": 183}, "uniqueid": "MTK1519:3ND9UOO81L9ALQBJRYE81ALX8K5WL4", "dateTime": 1515953237817}, {"current_trial": 184, "trialdata": {"rt": 1514, "trial_type": "text", "internal_node_id": "0.0-139.0", "time_elapsed": 862149, "key_press": 13, "type": "INSTRUCTIONS", "trial_index": 184}, "uniqueid": "MTK1519:3ND9UOO81L9ALQBJRYE81ALX8K5WL4", "dateTime": 1515953241331}, {"current_trial": 185, "trialdata": {"rt": [3805, 7045, 9688, 12746, 15729, 18496, 20751, 22619], "trial_type": "math-distractor", "key_times": [2656, 2947, 3805, 5960, 6300, 7045, 8936, 9205, 9688, 11966, 12746, 15184, 15394, 15729, 17619, 18235, 18496, 20184, 20751, 22191, 22391, 22619, 23757], "responses": ["13", "16", "10", "7", "22", "15", "9", "12"], "num2": [1, 4, 5, 2, 8, 2, 5, 1, 8], "num3": [4, 9, 3, 1, 8, 6, 2, 5, 2], "conditions": [12, 1600, "a", 24000], "internal_node_id": "0.0-140.0", "key_presses": [49, 51, 13, 49, 54, 13, 49, 48, 13, 55, 13, 50, 50, 13, 49, 53, 13, 57, 13, 49, 50, 13, 49], "trial": 5, "time_elapsed": 888159, "type": "DISTRACTOR", "trial_index": 185, "num1": [8, 3, 2, 4, 6, 7, 2, 6, 2]}, "uniqueid": "MTK1519:3ND9UOO81L9ALQBJRYE81ALX8K5WL4", "dateTime": 1515953267341}, {"current_trial": 186, "trialdata": {"rt": -1, "trial_type": "single-stim", "stimulus": "<p id=\"stim\">10</p>", "internal_node_id": "0.0-141.0-0.0", "time_elapsed": 891162, "key_press": -1, "trial_index": 186}, "uniqueid": "MTK1519:3ND9UOO81L9ALQBJRYE81ALX8K5WL4", "dateTime": 1515953270344}, {"current_trial": 187, "trialdata": {"rt": -1, "trial_type": "single-stim", "stimulus": "<p id=\"stim\">9</p>", "internal_node_id": "0.0-141.0-1.0", "time_elapsed": 892166, "key_press": -1, "trial_index": 187}, "uniqueid": "MTK1519:3ND9UOO81L9ALQBJRYE81ALX8K5WL4", "dateTime": 1515953271348}, {"current_trial": 188, "trialdata": {"rt": -1, "trial_type": "single-stim", "stimulus": "<p id=\"stim\">8</p>", "internal_node_id": "0.0-141.0-2.0", "time_elapsed": 893168, "key_press": -1, "trial_index": 188}, "uniqueid": "MTK1519:3ND9UOO81L9ALQBJRYE81ALX8K5WL4", "dateTime": 1515953272350}, {"current_trial": 189, "trialdata": {"rt": -1, "trial_type": "single-stim", "stimulus": "<p id=\"stim\">7</p>", "internal_node_id": "0.0-141.0-3.0", "time_elapsed": 894170, "key_press": -1, "trial_index": 189}, "uniqueid": "MTK1519:3ND9UOO81L9ALQBJRYE81ALX8K5WL4", "dateTime": 1515953273352}, {"current_trial": 190, "trialdata": {"rt": -1, "trial_type": "single-stim", "stimulus": "<p id=\"stim\">6</p>", "internal_node_id": "0.0-141.0-4.0", "time_elapsed": 895174, "key_press": -1, "trial_index": 190}, "uniqueid": "MTK1519:3ND9UOO81L9ALQBJRYE81ALX8K5WL4", "dateTime": 1515953274356}, {"current_trial": 191, "trialdata": {"rt": -1, "trial_type": "single-stim", "stimulus": "<p id=\"stim\">5</p>", "internal_node_id": "0.0-141.0-5.0", "time_elapsed": 896177, "key_press": -1, "trial_index": 191}, "uniqueid": "MTK1519:3ND9UOO81L9ALQBJRYE81ALX8K5WL4", "dateTime": 1515953275359}, {"current_trial": 192, "trialdata": {"rt": -1, "trial_type": "single-stim", "stimulus": "<p id=\"stim\">4</p>", "internal_node_id": "0.0-141.0-6.0", "time_elapsed": 897179, "key_press": -1, "trial_index": 192}, "uniqueid": "MTK1519:3ND9UOO81L9ALQBJRYE81ALX8K5WL4", "dateTime": 1515953276361}, {"current_trial": 193, "trialdata": {"rt": -1, "trial_type": "single-stim", "stimulus": "<p id=\"stim\">3</p>", "internal_node_id": "0.0-141.0-7.0", "time_elapsed": 898179, "key_press": -1, "trial_index": 193}, "uniqueid": "MTK1519:3ND9UOO81L9ALQBJRYE81ALX8K5WL4", "dateTime": 1515953277361}, {"current_trial": 194, "trialdata": {"rt": -1, "trial_type": "single-stim", "stimulus": "<p id=\"stim\">2</p>", "internal_node_id": "0.0-141.0-8.0", "time_elapsed": 899181, "key_press": -1, "trial_index": 194}, "uniqueid": "MTK1519:3ND9UOO81L9ALQBJRYE81ALX8K5WL4", "dateTime": 1515953278363}, {"current_trial": 195, "trialdata": {"rt": -1, "trial_type": "single-stim", "stimulus": "<p id=\"stim\">1</p>", "internal_node_id": "0.0-141.0-9.0", "time_elapsed": 900182, "key_press": -1, "trial_index": 195}, "uniqueid": "MTK1519:3ND9UOO81L9ALQBJRYE81ALX8K5WL4", "dateTime": 1515953279364}, {"current_trial": 196, "trialdata": {"rt": -1, "trial_type": "single-stim", "stimulus": "<p id=\"stim\">+</p>", "internal_node_id": "0.0-142.0-0.0", "time_elapsed": 901682, "key_press": -1, "type": "FIXATION", "trial_index": 196}, "uniqueid": "MTK1519:3ND9UOO81L9ALQBJRYE81ALX8K5WL4", "dateTime": 1515953280864}, {"current_trial": 197, "trialdata": {"rt": -1000, "trial_type": "single-audio", "word": "rooster", "stimulus": "/static/audio/wordpool/ROOSTER.wav", "conditions": [12, 1600, "a", 24000], "internal_node_id": "0.0-143.0", "trial": 5, "time_elapsed": 904126, "serialpos": 0, "key_press": -1, "wordID": 1208, "type": "PRES_AUD", "trial_index": 197}, "uniqueid": "MTK1519:3ND9UOO81L9ALQBJRYE81ALX8K5WL4", "dateTime": 1515953283309}, {"current_trial": 198, "trialdata": {"rt": -1000, "trial_type": "single-audio", "word": "bucket", "stimulus": "/static/audio/wordpool/BUCKET.wav", "conditions": [12, 1600, "a", 24000], "internal_node_id": "0.0-144.0", "trial": 5, "time_elapsed": 906692, "serialpos": 1, "key_press": -1, "wordID": 183, "type": "PRES_AUD", "trial_index": 198}, "uniqueid": "MTK1519:3ND9UOO81L9ALQBJRYE81ALX8K5WL4", "dateTime": 1515953285875}, {"current_trial": 199, "trialdata": {"rt": -1000, "trial_type": "single-audio", "word": "quarter", "stimulus": "/static/audio/wordpool/QUARTER.wav", "conditions": [12, 1600, "a", 24000], "internal_node_id": "0.0-145.0", "trial": 5, "time_elapsed": 909294, "serialpos": 2, "key_press": -1, "wordID": 1147, "type": "PRES_AUD", "trial_index": 199}, "uniqueid": "MTK1519:3ND9UOO81L9ALQBJRYE81ALX8K5WL4", "dateTime": 1515953288476}, {"current_trial": 200, "trialdata": {"rt": -1000, "trial_type": "single-audio", "word": "female", "stimulus": "/static/audio/wordpool/FEMALE.wav", "conditions": [12, 1600, "a", 24000], "internal_node_id": "0.0-146.0", "trial": 5, "time_elapsed": 911934, "serialpos": 3, "key_press": -1, "wordID": 558, "type": "PRES_AUD", "trial_index": 200}, "uniqueid": "MTK1519:3ND9UOO81L9ALQBJRYE81ALX8K5WL4", "dateTime": 1515953291116}, {"current_trial": 201, "trialdata": {"rt": -1000, "trial_type": "single-audio", "word": "guitar", "stimulus": "/static/audio/wordpool/GUITAR.wav", "conditions": [12, 1600, "a", 24000], "internal_node_id": "0.0-147.0", "trial": 5, "time_elapsed": 914737, "serialpos": 4, "key_press": -1, "wordID": 669, "type": "PRES_AUD", "trial_index": 201}, "uniqueid": "MTK1519:3ND9UOO81L9ALQBJRYE81ALX8K5WL4", "dateTime": 1515953293919}, {"current_trial": 202, "trialdata": {"rt": -1000, "trial_type": "single-audio", "word": "mailman", "stimulus": "/static/audio/wordpool/MAILMAN.wav", "conditions": [12, 1600, "a", 24000], "internal_node_id": "0.0-148.0", "trial": 5, "time_elapsed": 917257, "serialpos": 5, "key_press": -1, "wordID": 857, "type": "PRES_AUD", "trial_index": 202}, "uniqueid": "MTK1519:3ND9UOO81L9ALQBJRYE81ALX8K5WL4", "dateTime": 1515953296439}, {"current_trial": 203, "trialdata": {"rt": -1000, "trial_type": "single-audio", "word": "silk", "stimulus": "/static/audio/wordpool/SILK.wav", "conditions": [12, 1600, "a", 24000], "internal_node_id": "0.0-149.0", "trial": 5, "time_elapsed": 919998, "serialpos": 6, "key_press": -1, "wordID": 1306, "type": "PRES_AUD", "trial_index": 203}, "uniqueid": "MTK1519:3ND9UOO81L9ALQBJRYE81ALX8K5WL4", "dateTime": 1515953299180}, {"current_trial": 204, "trialdata": {"rt": -1000, "trial_type": "single-audio", "word": "woman", "stimulus": "/static/audio/wordpool/WOMAN.wav", "conditions": [12, 1600, "a", 24000], "internal_node_id": "0.0-150.0", "trial": 5, "time_elapsed": 922721, "serialpos": 7, "key_press": -1, "wordID": 1619, "type": "PRES_AUD", "trial_index": 204}, "uniqueid": "MTK1519:3ND9UOO81L9ALQBJRYE81ALX8K5WL4", "dateTime": 1515953301904}, {"current_trial": 205, "trialdata": {"rt": -1000, "trial_type": "single-audio", "word": "victim", "stimulus": "/static/audio/wordpool/VICTIM.wav", "conditions": [12, 1600, "a", 24000], "internal_node_id": "0.0-151.0", "trial": 5, "time_elapsed": 925191, "serialpos": 8, "key_press": -1, "wordID": 1561, "type": "PRES_AUD", "trial_index": 205}, "uniqueid": "MTK1519:3ND9UOO81L9ALQBJRYE81ALX8K5WL4", "dateTime": 1515953304373}, {"current_trial": 206, "trialdata": {"rt": -1000, "trial_type": "single-audio", "word": "dashboard", "stimulus": "/static/audio/wordpool/DASHBOARD.wav", "conditions": [12, 1600, "a", 24000], "internal_node_id": "0.0-152.0", "trial": 5, "time_elapsed": 927883, "serialpos": 9, "key_press": -1, "wordID": 440, "type": "PRES_AUD", "trial_index": 206}, "uniqueid": "MTK1519:3ND9UOO81L9ALQBJRYE81ALX8K5WL4", "dateTime": 1515953307065}, {"current_trial": 207, "trialdata": {"rt": -1000, "trial_type": "single-audio", "word": "piano", "stimulus": "/static/audio/wordpool/PIANO.wav", "conditions": [12, 1600, "a", 24000], "internal_node_id": "0.0-153.0", "trial": 5, "time_elapsed": 930596, "serialpos": 10, "key_press": -1, "wordID": 1056, "type": "PRES_AUD", "trial_index": 207}, "uniqueid": "MTK1519:3ND9UOO81L9ALQBJRYE81ALX8K5WL4", "dateTime": 1515953309778}, {"current_trial": 208, "trialdata": {"rt": -1000, "trial_type": "single-audio", "word": "bison", "stimulus": "/static/audio/wordpool/BISON.wav", "conditions": [12, 1600, "a", 24000], "internal_node_id": "0.0-154.0", "trial": 5, "time_elapsed": 933356, "serialpos": 11, "key_press": -1, "wordID": 130, "type": "PRES_AUD", "trial_index": 208}, "uniqueid": "MTK1519:3ND9UOO81L9ALQBJRYE81ALX8K5WL4", "dateTime": 1515953312538}, {"current_trial": 209, "trialdata": {"rt": -1, "trial_type": "single-stim", "stimulus": "", "internal_node_id": "0.0-155.0-0.0", "time_elapsed": 934742, "key_press": -1, "type": "PRE_RECALL_DELAY", "trial_index": 209}, "uniqueid": "MTK1519:3ND9UOO81L9ALQBJRYE81ALX8K5WL4", "dateTime": 1515953313924}, {"current_trial": 210, "trialdata": {"rt": -1000, "trial_type": "single-audio", "stimulus": "/static/audio/400Hz.wav", "internal_node_id": "0.0-156.0", "time_elapsed": 935247, "key_press": -1, "type": "PRE_RECALL_ALERT", "trial_index": 210}, "uniqueid": "MTK1519:3ND9UOO81L9ALQBJRYE81ALX8K5WL4", "dateTime": 1515953314429}, {"current_trial": 211, "trialdata": {"rt": [5139, 8114, 10406, 12194, 16775, 22572, 25733, 28054], "recwords": ["rooster", "quarter", "guitar", "female", "mailman", "dashboard", "piano", "bison"], "key_times": [2224, 2773, 2903, 3060, 3307, 3415, 3603, 5139, 5953, 6279, 6386, 6631, 6788, 6871, 7011, 8114, 8810, 9009, 9164, 9432, 9552, 9774, 10406, 11018, 11235, 11501, 11609, 11779, 11826, 12194, 13961, 14705, 14960, 15243, 15541, 15893, 16043, 16775, 19160, 19430, 19581, 19827, 20031, 20481, 21038, 21577, 21742, 21993, 22220, 22572, 24415, 24722, 24858, 24990, 25244, 25733, 26670, 26994, 27130, 27234, 27452, 28054], "trial_type": "free-recall", "conditions": [12, 1600, "a", 24000], "internal_node_id": "0.0-157.0-0.0", "key_presses": [82, 79, 79, 83, 84, 69, 82, 13, 81, 85, 65, 82, 84, 69, 82, 13, 71, 85, 73, 84, 65, 82, 13, 70, 69, 77, 65, 76, 69, 13, 77, 65, 73, 76, 77, 65, 78, 13, 68, 65, 83, 72, 78, 8, 66, 79, 65, 82, 68, 13, 80, 73, 65, 78, 79, 32, 66, 73, 83, 79, 78, 13], "trial": 5, "time_elapsed": 995253, "type": "FREE_RECALL", "trial_index": 211}, "uniqueid": "MTK1519:3ND9UOO81L9ALQBJRYE81ALX8K5WL4", "dateTime": 1515953374450}, {"current_trial": 212, "trialdata": {"rt": 6315, "trial_type": "text", "internal_node_id": "0.0-158.0", "time_elapsed": 1003601, "key_press": 13, "type": "INSTRUCTIONS", "trial_index": 212}, "uniqueid": "MTK1519:3ND9UOO81L9ALQBJRYE81ALX8K5WL4", "dateTime": 1515953382783}, {"current_trial": 213, "trialdata": {"rt": [3447, 6133, 8268, 11111], "trial_type": "math-distractor", "key_times": [2195, 2445, 3447, 5370, 5572, 6133, 7581, 7918, 8268, 10352, 11111], "responses": ["20", "19", "14", "6"], "num2": [9, 8, 1, 1, 1], "num3": [3, 9, 9, 2, 7], "conditions": [24, 800, "a", 12000], "internal_node_id": "0.0-159.0", "key_presses": [50, 48, 13, 49, 57, 13, 49, 52, 13, 54, 13], "trial": 6, "time_elapsed": 1017608, "type": "DISTRACTOR", "trial_index": 213, "num1": [8, 2, 4, 3, 4]}, "uniqueid": "MTK1519:3ND9UOO81L9ALQBJRYE81ALX8K5WL4", "dateTime": 1515953396790}, {"current_trial": 214, "trialdata": {"rt": -1, "trial_type": "single-stim", "stimulus": "<p id=\"stim\">10</p>", "internal_node_id": "0.0-160.0-0.0", "time_elapsed": 1020608, "key_press": -1, "trial_index": 214}, "uniqueid": "MTK1519:3ND9UOO81L9ALQBJRYE81ALX8K5WL4", "dateTime": 1515953399790}, {"current_trial": 215, "trialdata": {"rt": -1, "trial_type": "single-stim", "stimulus": "<p id=\"stim\">9</p>", "internal_node_id": "0.0-160.0-1.0", "time_elapsed": 1021611, "key_press": -1, "trial_index": 215}, "uniqueid": "MTK1519:3ND9UOO81L9ALQBJRYE81ALX8K5WL4", "dateTime": 1515953400793}, {"current_trial": 216, "trialdata": {"rt": -1, "trial_type": "single-stim", "stimulus": "<p id=\"stim\">8</p>", "internal_node_id": "0.0-160.0-2.0", "time_elapsed": 1022614, "key_press": -1, "trial_index": 216}, "uniqueid": "MTK1519:3ND9UOO81L9ALQBJRYE81ALX8K5WL4", "dateTime": 1515953401796}, {"current_trial": 217, "trialdata": {"rt": -1, "trial_type": "single-stim", "stimulus": "<p id=\"stim\">7</p>", "internal_node_id": "0.0-160.0-3.0", "time_elapsed": 1023616, "key_press": -1, "trial_index": 217}, "uniqueid": "MTK1519:3ND9UOO81L9ALQBJRYE81ALX8K5WL4", "dateTime": 1515953402799}, {"current_trial": 218, "trialdata": {"rt": -1, "trial_type": "single-stim", "stimulus": "<p id=\"stim\">6</p>", "internal_node_id": "0.0-160.0-4.0", "time_elapsed": 1024618, "key_press": -1, "trial_index": 218}, "uniqueid": "MTK1519:3ND9UOO81L9ALQBJRYE81ALX8K5WL4", "dateTime": 1515953403800}, {"current_trial": 219, "trialdata": {"rt": -1, "trial_type": "single-stim", "stimulus": "<p id=\"stim\">5</p>", "internal_node_id": "0.0-160.0-5.0", "time_elapsed": 1025618, "key_press": -1, "trial_index": 219}, "uniqueid": "MTK1519:3ND9UOO81L9ALQBJRYE81ALX8K5WL4", "dateTime": 1515953404801}, {"current_trial": 220, "trialdata": {"rt": -1, "trial_type": "single-stim", "stimulus": "<p id=\"stim\">4</p>", "internal_node_id": "0.0-160.0-6.0", "time_elapsed": 1026619, "key_press": -1, "trial_index": 220}, "uniqueid": "MTK1519:3ND9UOO81L9ALQBJRYE81ALX8K5WL4", "dateTime": 1515953405802}, {"current_trial": 221, "trialdata": {"rt": -1, "trial_type": "single-stim", "stimulus": "<p id=\"stim\">3</p>", "internal_node_id": "0.0-160.0-7.0", "time_elapsed": 1027621, "key_press": -1, "trial_index": 221}, "uniqueid": "MTK1519:3ND9UOO81L9ALQBJRYE81ALX8K5WL4", "dateTime": 1515953406803}, {"current_trial": 222, "trialdata": {"rt": -1, "trial_type": "single-stim", "stimulus": "<p id=\"stim\">2</p>", "internal_node_id": "0.0-160.0-8.0", "time_elapsed": 1028623, "key_press": -1, "trial_index": 222}, "uniqueid": "MTK1519:3ND9UOO81L9ALQBJRYE81ALX8K5WL4", "dateTime": 1515953407805}, {"current_trial": 223, "trialdata": {"rt": -1, "trial_type": "single-stim", "stimulus": "<p id=\"stim\">1</p>", "internal_node_id": "0.0-160.0-9.0", "time_elapsed": 1029624, "key_press": -1, "trial_index": 223}, "uniqueid": "MTK1519:3ND9UOO81L9ALQBJRYE81ALX8K5WL4", "dateTime": 1515953408806}, {"current_trial": 224, "trialdata": {"rt": -1, "trial_type": "single-stim", "stimulus": "<p id=\"stim\">+</p>", "internal_node_id": "0.0-161.0-0.0", "time_elapsed": 1031126, "key_press": -1, "type": "FIXATION", "trial_index": 224}, "uniqueid": "MTK1519:3ND9UOO81L9ALQBJRYE81ALX8K5WL4", "dateTime": 1515953410309}, {"current_trial": 225, "trialdata": {"rt": -1000, "trial_type": "single-audio", "word": "patient", "stimulus": "/static/audio/wordpool/PATIENT.wav", "conditions": [24, 800, "a", 12000], "internal_node_id": "0.0-162.0", "trial": 6, "time_elapsed": 1032821, "serialpos": 0, "key_press": -1, "wordID": 1023, "type": "PRES_AUD", "trial_index": 225}, "uniqueid": "MTK1519:3ND9UOO81L9ALQBJRYE81ALX8K5WL4", "dateTime": 1515953412003}, {"current_trial": 226, "trialdata": {"rt": -1000, "trial_type": "single-audio", "word": "friend", "stimulus": "/static/audio/wordpool/FRIEND.wav", "conditions": [24, 800, "a", 12000], "internal_node_id": "0.0-163.0", "trial": 6, "time_elapsed": 1034807, "serialpos": 1, "key_press": -1, "wordID": 605, "type": "PRES_AUD", "trial_index": 226}, "uniqueid": "MTK1519:3ND9UOO81L9ALQBJRYE81ALX8K5WL4", "dateTime": 1515953413989}, {"current_trial": 227, "trialdata": {"rt": -1000, "trial_type": "single-audio", "word": "husband", "stimulus": "/static/audio/wordpool/HUSBAND.wav", "conditions": [24, 800, "a", 12000], "internal_node_id": "0.0-164.0", "trial": 6, "time_elapsed": 1036668, "serialpos": 2, "key_press": -1, "wordID": 727, "type": "PRES_AUD", "trial_index": 227}, "uniqueid": "MTK1519:3ND9UOO81L9ALQBJRYE81ALX8K5WL4", "dateTime": 1515953415850}, {"current_trial": 228, "trialdata": {"rt": -1000, "trial_type": "single-audio", "word": "wagon", "stimulus": "/static/audio/wordpool/WAGON.wav", "conditions": [24, 800, "a", 12000], "internal_node_id": "0.0-165.0", "trial": 6, "time_elapsed": 1038557, "serialpos": 3, "key_press": -1, "wordID": 1577, "type": "PRES_AUD", "trial_index": 228}, "uniqueid": "MTK1519:3ND9UOO81L9ALQBJRYE81ALX8K5WL4", "dateTime": 1515953417740}, {"current_trial": 229, "trialdata": {"rt": -1000, "trial_type": "single-audio", "word": "hiker", "stimulus": "/static/audio/wordpool/HIKER.wav", "conditions": [24, 800, "a", 12000], "internal_node_id": "0.0-166.0", "trial": 6, "time_elapsed": 1040227, "serialpos": 4, "key_press": -1, "wordID": 707, "type": "PRES_AUD", "trial_index": 229}, "uniqueid": "MTK1519:3ND9UOO81L9ALQBJRYE81ALX8K5WL4", "dateTime": 1515953419409}, {"current_trial": 230, "trialdata": {"rt": -1000, "trial_type": "single-audio", "word": "nurse", "stimulus": "/static/audio/wordpool/NURSE.wav", "conditions": [24, 800, "a", 12000], "internal_node_id": "0.0-167.0", "trial": 6, "time_elapsed": 1042222, "serialpos": 5, "key_press": -1, "wordID": 962, "type": "PRES_AUD", "trial_index": 230}, "uniqueid": "MTK1519:3ND9UOO81L9ALQBJRYE81ALX8K5WL4", "dateTime": 1515953421404}, {"current_trial": 231, "trialdata": {"rt": -1000, "trial_type": "single-audio", "word": "lumber", "stimulus": "/static/audio/wordpool/LUMBER.wav", "conditions": [24, 800, "a", 12000], "internal_node_id": "0.0-168.0", "trial": 6, "time_elapsed": 1044135, "serialpos": 6, "key_press": -1, "wordID": 847, "type": "PRES_AUD", "trial_index": 231}, "uniqueid": "MTK1519:3ND9UOO81L9ALQBJRYE81ALX8K5WL4", "dateTime": 1515953423317}, {"current_trial": 232, "trialdata": {"rt": -1000, "trial_type": "single-audio", "word": "lagoon", "stimulus": "/static/audio/wordpool/LAGOON.wav", "conditions": [24, 800, "a", 12000], "internal_node_id": "0.0-169.0", "trial": 6, "time_elapsed": 1045737, "serialpos": 7, "key_press": -1, "wordID": 794, "type": "PRES_AUD", "trial_index": 232}, "uniqueid": "MTK1519:3ND9UOO81L9ALQBJRYE81ALX8K5WL4", "dateTime": 1515953424919}, {"current_trial": 233, "trialdata": {"rt": -1000, "trial_type": "single-audio", "word": "marrow", "stimulus": "/static/audio/wordpool/MARROW.wav", "conditions": [24, 800, "a", 12000], "internal_node_id": "0.0-170.0", "trial": 6, "time_elapsed": 1047642, "serialpos": 8, "key_press": -1, "wordID": 871, "type": "PRES_AUD", "trial_index": 233}, "uniqueid": "MTK1519:3ND9UOO81L9ALQBJRYE81ALX8K5WL4", "dateTime": 1515953426824}, {"current_trial": 234, "trialdata": {"rt": -1000, "trial_type": "single-audio", "word": "apple", "stimulus": "/static/audio/wordpool/APPLE.wav", "conditions": [24, 800, "a", 12000], "internal_node_id": "0.0-171.0", "trial": 6, "time_elapsed": 1049511, "serialpos": 9, "key_press": -1, "wordID": 32, "type": "PRES_AUD", "trial_index": 234}, "uniqueid": "MTK1519:3ND9UOO81L9ALQBJRYE81ALX8K5WL4", "dateTime": 1515953428693}, {"current_trial": 235, "trialdata": {"rt": -1000, "trial_type": "single-audio", "word": "razor", "stimulus": "/static/audio/wordpool/RAZOR.wav", "conditions": [24, 800, "a", 12000], "internal_node_id": "0.0-172.0", "trial": 6, "time_elapsed": 1051403, "serialpos": 10, "key_press": -1, "wordID": 1170, "type": "PRES_AUD", "trial_index": 235}, "uniqueid": "MTK1519:3ND9UOO81L9ALQBJRYE81ALX8K5WL4", "dateTime": 1515953430586}, {"current_trial": 236, "trialdata": {"rt": -1000, "trial_type": "single-audio", "word": "shirt", "stimulus": "/static/audio/wordpool/SHIRT.wav", "conditions": [24, 800, "a", 12000], "internal_node_id": "0.0-173.0", "trial": 6, "time_elapsed": 1053378, "serialpos": 11, "key_press": -1, "wordID": 1286, "type": "PRES_AUD", "trial_index": 236}, "uniqueid": "MTK1519:3ND9UOO81L9ALQBJRYE81ALX8K5WL4", "dateTime": 1515953432560}, {"current_trial": 237, "trialdata": {"rt": -1000, "trial_type": "single-audio", "word": "valve", "stimulus": "/static/audio/wordpool/VALVE.wav", "conditions": [24, 800, "a", 12000], "internal_node_id": "0.0-174.0", "trial": 6, "time_elapsed": 1055305, "serialpos": 12, "key_press": -1, "wordID": 1545, "type": "PRES_AUD", "trial_index": 237}, "uniqueid": "MTK1519:3ND9UOO81L9ALQBJRYE81ALX8K5WL4", "dateTime": 1515953434487}, {"current_trial": 238, "trialdata": {"rt": -1000, "trial_type": "single-audio", "word": "turnip", "stimulus": "/static/audio/wordpool/TURNIP.wav", "conditions": [24, 800, "a", 12000], "internal_node_id": "0.0-175.0", "trial": 6, "time_elapsed": 1057075, "serialpos": 13, "key_press": -1, "wordID": 1520, "type": "PRES_AUD", "trial_index": 238}, "uniqueid": "MTK1519:3ND9UOO81L9ALQBJRYE81ALX8K5WL4", "dateTime": 1515953436258}, {"current_trial": 239, "trialdata": {"rt": -1000, "trial_type": "single-audio", "word": "milk", "stimulus": "/static/audio/wordpool/MILK.wav", "conditions": [24, 800, "a", 12000], "internal_node_id": "0.0-176.0", "trial": 6, "time_elapsed": 1058830, "serialpos": 14, "key_press": -1, "wordID": 894, "type": "PRES_AUD", "trial_index": 239}, "uniqueid": "MTK1519:3ND9UOO81L9ALQBJRYE81ALX8K5WL4", "dateTime": 1515953438013}, {"current_trial": 240, "trialdata": {"rt": -1000, "trial_type": "single-audio", "word": "canal", "stimulus": "/static/audio/wordpool/CANAL.wav", "conditions": [24, 800, "a", 12000], "internal_node_id": "0.0-177.0", "trial": 6, "time_elapsed": 1060642, "serialpos": 15, "key_press": -1, "wordID": 225, "type": "PRES_AUD", "trial_index": 240}, "uniqueid": "MTK1519:3ND9UOO81L9ALQBJRYE81ALX8K5WL4", "dateTime": 1515953439824}, {"current_trial": 241, "trialdata": {"rt": -1000, "trial_type": "single-audio", "word": "parrot", "stimulus": "/static/audio/wordpool/PARROT.wav", "conditions": [24, 800, "a", 12000], "internal_node_id": "0.0-178.0", "trial": 6, "time_elapsed": 1062367, "serialpos": 16, "key_press": -1, "wordID": 1014, "type": "PRES_AUD", "trial_index": 241}, "uniqueid": "MTK1519:3ND9UOO81L9ALQBJRYE81ALX8K5WL4", "dateTime": 1515953441549}, {"current_trial": 242, "trialdata": {"rt": -1000, "trial_type": "single-audio", "word": "mister", "stimulus": "/static/audio/wordpool/MISTER.wav", "conditions": [24, 800, "a", 12000], "internal_node_id": "0.0-179.0", "trial": 6, "time_elapsed": 1064348, "serialpos": 17, "key_press": -1, "wordID": 900, "type": "PRES_AUD", "trial_index": 242}, "uniqueid": "MTK1519:3ND9UOO81L9ALQBJRYE81ALX8K5WL4", "dateTime": 1515953443531}, {"current_trial": 243, "trialdata": {"rt": -1000, "trial_type": "single-audio", "word": "daughter", "stimulus": "/static/audio/wordpool/DAUGHTER.wav", "conditions": [24, 800, "a", 12000], "internal_node_id": "0.0-180.0", "trial": 6, "time_elapsed": 1066132, "serialpos": 18, "key_press": -1, "wordID": 441, "type": "PRES_AUD", "trial_index": 243}, "uniqueid": "MTK1519:3ND9UOO81L9ALQBJRYE81ALX8K5WL4", "dateTime": 1515953445314}, {"current_trial": 244, "trialdata": {"rt": -1000, "trial_type": "single-audio", "word": "brother", "stimulus": "/static/audio/wordpool/BROTHER.wav", "conditions": [24, 800, "a", 12000], "internal_node_id": "0.0-181.0", "trial": 6, "time_elapsed": 1067847, "serialpos": 19, "key_press": -1, "wo