{"assignmentId": "3KB8R4ZV1FE2BVZ7LGLW143423KGBN", "workerId": "MTK1571", "questiondata": {"origin": "United States", "strat-rehearsal": "46", "marital": "Married/Domestic Partnership", "education": "Master's degree", "ethnicity": "Not Hispanic", "color_depth": 24, "distracted": "No", "wrote-notes": "No", "strat-other": "", "screen_width": 1366, "avail_screen_width": 1366, "avail_screen_height": 728, "strat-image": "75", "language": "English", "gender": "Female", "age": "32", "gender_other": "", "race": ["White"], "strat-categorize": "94", "pixel_depth": 24, "strat-spatial": "8", "strat-story": "89", "race_other": "", "screen_height": 768}, "bonus": 0, "hitId": "3MXX6RQ9EVCMGP93JIWUYFF6CWE4PT", "counterbalance": 1309, "useragent": "Mozilla/5.0 (Windows NT 10.0; Win64; x64) AppleWebKit/537.36 (KHTML, like Gecko) Chrome/63.0.3239.132 Safari/537.36", "eventdata": [{"eventtype": "initialized", "interval": 0, "value": null, "timestamp": 1515983233696}, {"eventtype": "window_resize", "interval": 0, "value": [1366, 721], "timestamp": 1515983233696}, {"eventtype": "focus", "interval": 174605, "value": "off", "timestamp": 1515983408301}, {"eventtype": "focus", "interval": 48421, "value": "on", "timestamp": 1515983456722}, {"eventtype": "focus", "interval": 2597118, "value": "off", "timestamp": 1515986053840}, {"eventtype": "focus", "interval": 40327, "value": "on", "timestamp": 1515986094167}], "data": [{"current_trial": 0, "trialdata": {"rt": 2443, "trial_type": "text", "internal_node_id": "0.0-0.0", "time_elapsed": 2449, "key_press": 13, "type": "INSTRUCTIONS", "trial_index": 0}, "uniqueid": "MTK1571:3KB8R4ZV1FE2BVZ7LGLW143423KGBN", "dateTime": 1515983236770}, {"current_trial": 1, "trialdata": {"rt": 81023, "trial_type": "text", "internal_node_id": "0.0-1.0", "time_elapsed": 83480, "key_press": 13, "type": "INSTRUCTIONS", "trial_index": 1}, "uniqueid": "MTK1571:3KB8R4ZV1FE2BVZ7LGLW143423KGBN", "dateTime": 1515983317798}, {"current_trial": 2, "trialdata": {"rt": [9327], "trial_type": "audio-test", "responses": ["ocean"], "internal_node_id": "0.0-2.0", "time_elapsed": 92837, "type": "AUDIO_TEST", "trial_index": 2}, "uniqueid": "MTK1571:3KB8R4ZV1FE2BVZ7LGLW143423KGBN", "dateTime": 1515983327154}, {"current_trial": 3, "trialdata": {"rt": [8303], "trial_type": "audio-test", "responses": ["crystal"], "internal_node_id": "0.0-3.0", "time_elapsed": 101154, "type": "AUDIO_TEST", "trial_index": 3}, "uniqueid": "MTK1571:3KB8R4ZV1FE2BVZ7LGLW143423KGBN", "dateTime": 1515983335471}, {"current_trial": 4, "trialdata": {"rt": [5971], "trial_type": "audio-test", "responses": ["spice"], "internal_node_id": "0.0-4.0", "time_elapsed": 107140, "type": "AUDIO_TEST", "trial_index": 4}, "uniqueid": "MTK1571:3KB8R4ZV1FE2BVZ7LGLW143423KGBN", "dateTime": 1515983341457}, {"current_trial": 5, "trialdata": {"rt": 17307, "trial_type": "survey-text", "responses": "{\"Q0\":\"11:30\",\"Q1\":\"8:00\",\"Q2\":\"4\"}", "internal_node_id": "0.0-5.0", "time_elapsed": 125204, "type": "SLEEP_SURVEY", "trial_index": 5}, "uniqueid": "MTK1571:3KB8R4ZV1FE2BVZ7LGLW143423KGBN", "dateTime": 1515983359521}, {"current_trial": 6, "trialdata": {"rt": 131130, "trial_type": "text", "internal_node_id": "0.0-6.0", "time_elapsed": 257336, "key_press": 13, "type": "INSTRUCTIONS", "trial_index": 6}, "uniqueid": "MTK1571:3KB8R4ZV1FE2BVZ7LGLW143423KGBN", "dateTime": 1515983491654}, {"current_trial": 7, "trialdata": {"rt": 22249, "trial_type": "text", "internal_node_id": "0.0-7.0", "time_elapsed": 280091, "key_press": 13, "type": "INSTRUCTIONS", "trial_index": 7}, "uniqueid": "MTK1571:3KB8R4ZV1FE2BVZ7LGLW143423KGBN", "dateTime": 1515983514408}, {"current_trial": 8, "trialdata": {"rt": 16241, "trial_type": "text", "internal_node_id": "0.0-8.0", "time_elapsed": 296834, "key_press": 13, "type": "INSTRUCTIONS", "trial_index": 8}, "uniqueid": "MTK1571:3KB8R4ZV1FE2BVZ7LGLW143423KGBN", "dateTime": 1515983531151}, {"current_trial": 9, "trialdata": {"rt": [4307, 7019, 11014, 13325, 16013], "trial_type": "math-distractor", "key_times": [3445, 3487, 4307, 6560, 7019, 10254, 10438, 11014, 12659, 12770, 13325, 15472, 15604, 16013], "responses": ["12", "9", "17", "18", "11"], "num2": [4, 2, 3, 4, 4, 1], "num3": [3, 1, 6, 8, 4, 9], "conditions": [18, 1200, "v", 18000], "internal_node_id": "0.0-9.0", "key_presses": [97, 98, 13, 105, 13, 97, 103, 13, 97, 104, 13, 97, 97, 13], "trial": 0, "time_elapsed": 315848, "type": "DISTRACTOR", "trial_index": 9, "num1": [5, 6, 8, 6, 3, 2]}, "uniqueid": "MTK1571:3KB8R4ZV1FE2BVZ7LGLW143423KGBN", "dateTime": 1515983550166}, {"current_trial": 10, "trialdata": {"rt": -1, "trial_type": "single-stim", "stimulus": "<p id=\"stim\">10</p>", "internal_node_id": "0.0-10.0-0.0", "time_elapsed": 318855, "key_press": -1, "trial_index": 10}, "uniqueid": "MTK1571:3KB8R4ZV1FE2BVZ7LGLW143423KGBN", "dateTime": 1515983553172}, {"current_trial": 11, "trialdata": {"rt": -1, "trial_type": "single-stim", "stimulus": "<p id=\"stim\">9</p>", "internal_node_id": "0.0-10.0-1.0", "time_elapsed": 319859, "key_press": -1, "trial_index": 11}, "uniqueid": "MTK1571:3KB8R4ZV1FE2BVZ7LGLW143423KGBN", "dateTime": 1515983554176}, {"current_trial": 12, "trialdata": {"rt": -1, "trial_type": "single-stim", "stimulus": "<p id=\"stim\">8</p>", "internal_node_id": "0.0-10.0-2.0", "time_elapsed": 320862, "key_press": -1, "trial_index": 12}, "uniqueid": "MTK1571:3KB8R4ZV1FE2BVZ7LGLW143423KGBN", "dateTime": 1515983555180}, {"current_trial": 13, "trialdata": {"rt": -1, "trial_type": "single-stim", "stimulus": "<p id=\"stim\">7</p>", "internal_node_id": "0.0-10.0-3.0", "time_elapsed": 321868, "key_press": -1, "trial_index": 13}, "uniqueid": "MTK1571:3KB8R4ZV1FE2BVZ7LGLW143423KGBN", "dateTime": 1515983556185}, {"current_trial": 14, "trialdata": {"rt": -1, "trial_type": "single-stim", "stimulus": "<p id=\"stim\">6</p>", "internal_node_id": "0.0-10.0-4.0", "time_elapsed": 322872, "key_press": -1, "trial_index": 14}, "uniqueid": "MTK1571:3KB8R4ZV1FE2BVZ7LGLW143423KGBN", "dateTime": 1515983557190}, {"current_trial": 15, "trialdata": {"rt": -1, "trial_type": "single-stim", "stimulus": "<p id=\"stim\">5</p>", "internal_node_id": "0.0-10.0-5.0", "time_elapsed": 323876, "key_press": -1, "trial_index": 15}, "uniqueid": "MTK1571:3KB8R4ZV1FE2BVZ7LGLW143423KGBN", "dateTime": 1515983558193}, {"current_trial": 16, "trialdata": {"rt": -1, "trial_type": "single-stim", "stimulus": "<p id=\"stim\">4</p>", "internal_node_id": "0.0-10.0-6.0", "time_elapsed": 324878, "key_press": -1, "trial_index": 16}, "uniqueid": "MTK1571:3KB8R4ZV1FE2BVZ7LGLW143423KGBN", "dateTime": 1515983559196}, {"current_trial": 17, "trialdata": {"rt": -1, "trial_type": "single-stim", "stimulus": "<p id=\"stim\">3</p>", "internal_node_id": "0.0-10.0-7.0", "time_elapsed": 325880, "key_press": -1, "trial_index": 17}, "uniqueid": "MTK1571:3KB8R4ZV1FE2BVZ7LGLW143423KGBN", "dateTime": 1515983560198}, {"current_trial": 18, "trialdata": {"rt": -1, "trial_type": "single-stim", "stimulus": "<p id=\"stim\">2</p>", "internal_node_id": "0.0-10.0-8.0", "time_elapsed": 326883, "key_press": -1, "trial_index": 18}, "uniqueid": "MTK1571:3KB8R4ZV1FE2BVZ7LGLW143423KGBN", "dateTime": 1515983561200}, {"current_trial": 19, "trialdata": {"rt": -1, "trial_type": "single-stim", "stimulus": "<p id=\"stim\">1</p>", "internal_node_id": "0.0-10.0-9.0", "time_elapsed": 327885, "key_press": -1, "trial_index": 19}, "uniqueid": "MTK1571:3KB8R4ZV1FE2BVZ7LGLW143423KGBN", "dateTime": 1515983562202}, {"current_trial": 20, "trialdata": {"rt": -1, "trial_type": "single-stim", "stimulus": "<p id=\"stim\">+</p>", "internal_node_id": "0.0-11.0-0.0", "time_elapsed": 329388, "key_press": -1, "type": "FIXATION", "trial_index": 20}, "uniqueid": "MTK1571:3KB8R4ZV1FE2BVZ7LGLW143423KGBN", "dateTime": 1515983563705}, {"current_trial": 21, "trialdata": {"rt": -1, "trial_type": "single-stim", "word": "freckle", "stimulus": "<p id=\"stim\">FRECKLE</p>", "conditions": [18, 1200, "v", 18000], "internal_node_id": "0.0-12.0", "trial": 0, "time_elapsed": 330590, "serialpos": 0, "key_press": -1, "wordID": 601, "type": "PRES_VIS", "trial_index": 21}, "uniqueid": "MTK1571:3KB8R4ZV1FE2BVZ7LGLW143423KGBN", "dateTime": 1515983564908}, {"current_trial": 22, "trialdata": {"rt": -1, "trial_type": "single-stim", "word": "bureau", "stimulus": "<p id=\"stim\">BUREAU</p>", "conditions": [18, 1200, "v", 18000], "internal_node_id": "0.0-13.0", "trial": 0, "time_elapsed": 332661, "serialpos": 1, "key_press": -1, "wordID": 198, "type": "PRES_VIS", "trial_index": 22}, "uniqueid": "MTK1571:3KB8R4ZV1FE2BVZ7LGLW143423KGBN", "dateTime": 1515983566978}, {"current_trial": 23, "trialdata": {"rt": -1, "trial_type": "single-stim", "word": "cupboard", "stimulus": "<p id=\"stim\">CUPBOARD</p>", "conditions": [18, 1200, "v", 18000], "internal_node_id": "0.0-14.0", "trial": 0, "time_elapsed": 334927, "serialpos": 2, "key_press": -1, "wordID": 424, "type": "PRES_VIS", "trial_index": 23}, "uniqueid": "MTK1571:3KB8R4ZV1FE2BVZ7LGLW143423KGBN", "dateTime": 1515983569244}, {"current_trial": 24, "trialdata": {"rt": -1, "trial_type": "single-stim", "word": "daughter", "stimulus": "<p id=\"stim\">DAUGHTER</p>", "conditions": [18, 1200, "v", 18000], "internal_node_id": "0.0-15.0", "trial": 0, "time_elapsed": 337026, "serialpos": 3, "key_press": -1, "wordID": 441, "type": "PRES_VIS", "trial_index": 24}, "uniqueid": "MTK1571:3KB8R4ZV1FE2BVZ7LGLW143423KGBN", "dateTime": 1515983571343}, {"current_trial": 25, "trialdata": {"rt": -1, "trial_type": "single-stim", "word": "world", "stimulus": "<p id=\"stim\">WORLD</p>", "conditions": [18, 1200, "v", 18000], "internal_node_id": "0.0-16.0", "trial": 0, "time_elapsed": 339428, "serialpos": 4, "key_press": -1, "wordID": 1621, "type": "PRES_VIS", "trial_index": 25}, "uniqueid": "MTK1571:3KB8R4ZV1FE2BVZ7LGLW143423KGBN", "dateTime": 1515983573746}, {"current_trial": 26, "trialdata": {"rt": -1, "trial_type": "single-stim", "word": "vagrant", "stimulus": "<p id=\"stim\">VAGRANT</p>", "conditions": [18, 1200, "v", 18000], "internal_node_id": "0.0-17.0", "trial": 0, "time_elapsed": 341454, "serialpos": 5, "key_press": -1, "wordID": 1543, "type": "PRES_VIS", "trial_index": 26}, "uniqueid": "MTK1571:3KB8R4ZV1FE2BVZ7LGLW143423KGBN", "dateTime": 1515983575771}, {"current_trial": 27, "trialdata": {"rt": -1, "trial_type": "single-stim", "word": "forehead", "stimulus": "<p id=\"stim\">FOREHEAD</p>", "conditions": [18, 1200, "v", 18000], "internal_node_id": "0.0-18.0", "trial": 0, "time_elapsed": 343855, "serialpos": 6, "key_press": -1, "wordID": 591, "type": "PRES_VIS", "trial_index": 27}, "uniqueid": "MTK1571:3KB8R4ZV1FE2BVZ7LGLW143423KGBN", "dateTime": 1515983578172}, {"current_trial": 28, "trialdata": {"rt": -1, "trial_type": "single-stim", "word": "jello", "stimulus": "<p id=\"stim\">JELLO</p>", "conditions": [18, 1200, "v", 18000], "internal_node_id": "0.0-19.0", "trial": 0, "time_elapsed": 345993, "serialpos": 7, "key_press": -1, "wordID": 753, "type": "PRES_VIS", "trial_index": 28}, "uniqueid": "MTK1571:3KB8R4ZV1FE2BVZ7LGLW143423KGBN", "dateTime": 1515983580310}, {"current_trial": 29, "trialdata": {"rt": -1, "trial_type": "single-stim", "word": "pistol", "stimulus": "<p id=\"stim\">PISTOL</p>", "conditions": [18, 1200, "v", 18000], "internal_node_id": "0.0-20.0", "trial": 0, "time_elapsed": 348138, "serialpos": 8, "key_press": -1, "wordID": 1074, "type": "PRES_VIS", "trial_index": 29}, "uniqueid": "MTK1571:3KB8R4ZV1FE2BVZ7LGLW143423KGBN", "dateTime": 1515983582455}, {"current_trial": 30, "trialdata": {"rt": -1, "trial_type": "single-stim", "word": "grave", "stimulus": "<p id=\"stim\">GRAVE</p>", "conditions": [18, 1200, "v", 18000], "internal_node_id": "0.0-21.0", "trial": 0, "time_elapsed": 350281, "serialpos": 9, "key_press": -1, "wordID": 657, "type": "PRES_VIS", "trial_index": 30}, "uniqueid": "MTK1571:3KB8R4ZV1FE2BVZ7LGLW143423KGBN", "dateTime": 1515983584598}, {"current_trial": 31, "trialdata": {"rt": -1, "trial_type": "single-stim", "word": "necklace", "stimulus": "<p id=\"stim\">NECKLACE</p>", "conditions": [18, 1200, "v", 18000], "internal_node_id": "0.0-22.0", "trial": 0, "time_elapsed": 352485, "serialpos": 10, "key_press": -1, "wordID": 939, "type": "PRES_VIS", "trial_index": 31}, "uniqueid": "MTK1571:3KB8R4ZV1FE2BVZ7LGLW143423KGBN", "dateTime": 1515983586803}, {"current_trial": 32, "trialdata": {"rt": -1, "trial_type": "single-stim", "word": "pizza", "stimulus": "<p id=\"stim\">PIZZA</p>", "conditions": [18, 1200, "v", 18000], "internal_node_id": "0.0-23.0", "trial": 0, "time_elapsed": 354766, "serialpos": 11, "key_press": -1, "wordID": 1078, "type": "PRES_VIS", "trial_index": 32}, "uniqueid": "MTK1571:3KB8R4ZV1FE2BVZ7LGLW143423KGBN", "dateTime": 1515983589083}, {"current_trial": 33, "trialdata": {"rt": -1, "trial_type": "single-stim", "word": "butcher", "stimulus": "<p id=\"stim\">BUTCHER</p>", "conditions": [18, 1200, "v", 18000], "internal_node_id": "0.0-24.0", "trial": 0, "time_elapsed": 357093, "serialpos": 12, "key_press": -1, "wordID": 202, "type": "PRES_VIS", "trial_index": 33}, "uniqueid": "MTK1571:3KB8R4ZV1FE2BVZ7LGLW143423KGBN", "dateTime": 1515983591410}, {"current_trial": 34, "trialdata": {"rt": -1, "trial_type": "single-stim", "word": "lady", "stimulus": "<p id=\"stim\">LADY</p>", "conditions": [18, 1200, "v", 18000], "internal_node_id": "0.0-25.0", "trial": 0, "time_elapsed": 359309, "serialpos": 13, "key_press": -1, "wordID": 793, "type": "PRES_VIS", "trial_index": 34}, "uniqueid": "MTK1571:3KB8R4ZV1FE2BVZ7LGLW143423KGBN", "dateTime": 1515983593626}, {"current_trial": 35, "trialdata": {"rt": -1, "trial_type": "single-stim", "word": "actor", "stimulus": "<p id=\"stim\">ACTOR</p>", "conditions": [18, 1200, "v", 18000], "internal_node_id": "0.0-26.0", "trial": 0, "time_elapsed": 361429, "serialpos": 14, "key_press": -1, "wordID": 4, "type": "PRES_VIS", "trial_index": 35}, "uniqueid": "MTK1571:3KB8R4ZV1FE2BVZ7LGLW143423KGBN", "dateTime": 1515983595747}, {"current_trial": 36, "trialdata": {"rt": -1, "trial_type": "single-stim", "word": "rabbit", "stimulus": "<p id=\"stim\">RABBIT</p>", "conditions": [18, 1200, "v", 18000], "internal_node_id": "0.0-27.0", "trial": 0, "time_elapsed": 363524, "serialpos": 15, "key_press": -1, "wordID": 1151, "type": "PRES_VIS", "trial_index": 36}, "uniqueid": "MTK1571:3KB8R4ZV1FE2BVZ7LGLW143423KGBN", "dateTime": 1515983597842}, {"current_trial": 37, "trialdata": {"rt": -1, "trial_type": "single-stim", "word": "ketchup", "stimulus": "<p id=\"stim\">KETCHUP</p>", "conditions": [18, 1200, "v", 18000], "internal_node_id": "0.0-28.0", "trial": 0, "time_elapsed": 365864, "serialpos": 16, "key_press": -1, "wordID": 770, "type": "PRES_VIS", "trial_index": 37}, "uniqueid": "MTK1571:3KB8R4ZV1FE2BVZ7LGLW143423KGBN", "dateTime": 1515983600181}, {"current_trial": 38, "trialdata": {"rt": -1, "trial_type": "single-stim", "word": "donor", "stimulus": "<p id=\"stim\">DONOR</p>", "conditions": [18, 1200, "v", 18000], "internal_node_id": "0.0-29.0", "trial": 0, "time_elapsed": 368243, "serialpos": 17, "key_press": -1, "wordID": 484, "type": "PRES_VIS", "trial_index": 38}, "uniqueid": "MTK1571:3KB8R4ZV1FE2BVZ7LGLW143423KGBN", "dateTime": 1515983602560}, {"current_trial": 39, "trialdata": {"rt": -1, "trial_type": "single-stim", "stimulus": "", "internal_node_id": "0.0-30.0-0.0", "time_elapsed": 370281, "key_press": -1, "type": "PRE_RECALL_DELAY", "trial_index": 39}, "uniqueid": "MTK1571:3KB8R4ZV1FE2BVZ7LGLW143423KGBN", "dateTime": 1515983604599}, {"current_trial": 40, "trialdata": {"rt": -1000, "trial_type": "single-audio", "stimulus": "/static/audio/400Hz.wav", "internal_node_id": "0.0-31.0", "time_elapsed": 370787, "key_press": -1, "type": "PRE_RECALL_ALERT", "trial_index": 40}, "uniqueid": "MTK1571:3KB8R4ZV1FE2BVZ7LGLW143423KGBN", "dateTime": 1515983605104}, {"current_trial": 41, "trialdata": {"rt": [4773, 6245, 8275, 10764, 17596, 34075, 38901, 55806], "recwords": ["freckle", "donor", "pizza", "vagrant", "butcher", "forehead", "grave", ""], "key_times": [1544, 1670, 2381, 2758, 2956, 3044, 3623, 3691, 3805, 3984, 4773, 5474, 5537, 5641, 5760, 5946, 6245, 7145, 7276, 7584, 7750, 8001, 8275, 9687, 9896, 10078, 10257, 10321, 10463, 10578, 10764, 16559, 16649, 16768, 17065, 17142, 17312, 17376, 17596, 32796, 32858, 32987, 33095, 33232, 33366, 33569, 33647, 34075, 38180, 38365, 38488, 38676, 38814, 38901, 55806], "trial_type": "free-recall", "conditions": [18, 1200, "v", 18000], "internal_node_id": "0.0-32.0-0.0", "key_presses": [16, 70, 8, 70, 82, 69, 67, 75, 76, 69, 13, 68, 79, 78, 79, 82, 13, 80, 73, 90, 90, 65, 13, 86, 65, 71, 82, 65, 78, 84, 13, 66, 85, 84, 67, 72, 69, 82, 13, 70, 79, 82, 69, 72, 69, 65, 68, 13, 71, 82, 65, 86, 69, 13, 13], "trial": 0, "time_elapsed": 430794, "type": "FREE_RECALL", "trial_index": 41}, "uniqueid": "MTK1571:3KB8R4ZV1FE2BVZ7LGLW143423KGBN", "dateTime": 1515983665117}, {"current_trial": 42, "trialdata": {"rt": 2376, "trial_type": "text", "internal_node_id": "0.0-33.0", "time_elapsed": 435178, "key_press": 13, "type": "INSTRUCTIONS", "trial_index": 42}, "uniqueid": "MTK1571:3KB8R4ZV1FE2BVZ7LGLW143423KGBN", "dateTime": 1515983669495}, {"current_trial": 43, "trialdata": {"rt": [3352, 8720, 12104, 13998], "trial_type": "math-distractor", "key_times": [2775, 2935, 3352, 7981, 8272, 8720, 11649, 11826, 12104, 13766, 13998, 17182, 17394], "responses": ["14", "15", "19", "5"], "num2": [2, 4, 7, 3, 5], "num3": [3, 7, 9, 1, 3], "conditions": [18, 1200, "v", 18000], "internal_node_id": "0.0-34.0", "key_presses": [97, 100, 13, 97, 101, 13, 97, 105, 13, 101, 13, 97, 102], "trial": 1, "time_elapsed": 455184, "type": "DISTRACTOR", "trial_index": 43, "num1": [9, 4, 3, 1, 8]}, "uniqueid": "MTK1571:3KB8R4ZV1FE2BVZ7LGLW143423KGBN", "dateTime": 1515983689501}, {"current_trial": 44, "trialdata": {"rt": -1, "trial_type": "single-stim", "stimulus": "<p id=\"stim\">10</p>", "internal_node_id": "0.0-35.0-0.0", "time_elapsed": 458189, "key_press": -1, "trial_index": 44}, "uniqueid": "MTK1571:3KB8R4ZV1FE2BVZ7LGLW143423KGBN", "dateTime": 1515983692508}, {"current_trial": 45, "trialdata": {"rt": -1, "trial_type": "single-stim", "stimulus": "<p id=\"stim\">9</p>", "internal_node_id": "0.0-35.0-1.0", "time_elapsed": 459199, "key_press": -1, "trial_index": 45}, "uniqueid": "MTK1571:3KB8R4ZV1FE2BVZ7LGLW143423KGBN", "dateTime": 1515983693516}, {"current_trial": 46, "trialdata": {"rt": -1, "trial_type": "single-stim", "stimulus": "<p id=\"stim\">8</p>", "internal_node_id": "0.0-35.0-2.0", "time_elapsed": 460203, "key_press": -1, "trial_index": 46}, "uniqueid": "MTK1571:3KB8R4ZV1FE2BVZ7LGLW143423KGBN", "dateTime": 1515983694521}, {"current_trial": 47, "trialdata": {"rt": -1, "trial_type": "single-stim", "stimulus": "<p id=\"stim\">7</p>", "internal_node_id": "0.0-35.0-3.0", "time_elapsed": 461206, "key_press": -1, "trial_index": 47}, "uniqueid": "MTK1571:3KB8R4ZV1FE2BVZ7LGLW143423KGBN", "dateTime": 1515983695524}, {"current_trial": 48, "trialdata": {"rt": -1, "trial_type": "single-stim", "stimulus": "<p id=\"stim\">6</p>", "internal_node_id": "0.0-35.0-4.0", "time_elapsed": 462209, "key_press": -1, "trial_index": 48}, "uniqueid": "MTK1571:3KB8R4ZV1FE2BVZ7LGLW143423KGBN", "dateTime": 1515983696526}, {"current_trial": 49, "trialdata": {"rt": -1, "trial_type": "single-stim", "stimulus": "<p id=\"stim\">5</p>", "internal_node_id": "0.0-35.0-5.0", "time_elapsed": 463212, "key_press": -1, "trial_index": 49}, "uniqueid": "MTK1571:3KB8R4ZV1FE2BVZ7LGLW143423KGBN", "dateTime": 1515983697530}, {"current_trial": 50, "trialdata": {"rt": -1, "trial_type": "single-stim", "stimulus": "<p id=\"stim\">4</p>", "internal_node_id": "0.0-35.0-6.0", "time_elapsed": 464214, "key_press": -1, "trial_index": 50}, "uniqueid": "MTK1571:3KB8R4ZV1FE2BVZ7LGLW143423KGBN", "dateTime": 1515983698532}, {"current_trial": 51, "trialdata": {"rt": -1, "trial_type": "single-stim", "stimulus": "<p id=\"stim\">3</p>", "internal_node_id": "0.0-35.0-7.0", "time_elapsed": 465218, "key_press": -1, "trial_index": 51}, "uniqueid": "MTK1571:3KB8R4ZV1FE2BVZ7LGLW143423KGBN", "dateTime": 1515983699535}, {"current_trial": 52, "trialdata": {"rt": -1, "trial_type": "single-stim", "stimulus": "<p id=\"stim\">2</p>", "internal_node_id": "0.0-35.0-8.0", "time_elapsed": 466219, "key_press": -1, "trial_index": 52}, "uniqueid": "MTK1571:3KB8R4ZV1FE2BVZ7LGLW143423KGBN", "dateTime": 1515983700537}, {"current_trial": 53, "trialdata": {"rt": -1, "trial_type": "single-stim", "stimulus": "<p id=\"stim\">1</p>", "internal_node_id": "0.0-35.0-9.0", "time_elapsed": 467223, "key_press": -1, "trial_index": 53}, "uniqueid": "MTK1571:3KB8R4ZV1FE2BVZ7LGLW143423KGBN", "dateTime": 1515983701541}, {"current_trial": 54, "trialdata": {"rt": -1, "trial_type": "single-stim", "stimulus": "<p id=\"stim\">+</p>", "internal_node_id": "0.0-36.0-0.0", "time_elapsed": 468726, "key_press": -1, "type": "FIXATION", "trial_index": 54}, "uniqueid": "MTK1571:3KB8R4ZV1FE2BVZ7LGLW143423KGBN", "dateTime": 1515983703044}, {"current_trial": 55, "trialdata": {"rt": -1, "trial_type": "single-stim", "word": "bug", "stimulus": "<p id=\"stim\">BUG</p>", "conditions": [18, 1200, "v", 18000], "internal_node_id": "0.0-37.0", "trial": 1, "time_elapsed": 469929, "serialpos": 0, "key_press": -1, "wordID": 186, "type": "PRES_VIS", "trial_index": 55}, "uniqueid": "MTK1571:3KB8R4ZV1FE2BVZ7LGLW143423KGBN", "dateTime": 1515983704246}, {"current_trial": 56, "trialdata": {"rt": -1, "trial_type": "single-stim", "word": "fragrance", "stimulus": "<p id=\"stim\">FRAGRANCE</p>", "conditions": [18, 1200, "v", 18000], "internal_node_id": "0.0-38.0", "trial": 1, "time_elapsed": 472207, "serialpos": 1, "key_press": -1, "wordID": 598, "type": "PRES_VIS", "trial_index": 56}, "uniqueid": "MTK1571:3KB8R4ZV1FE2BVZ7LGLW143423KGBN", "dateTime": 1515983706524}, {"current_trial": 57, "trialdata": {"rt": -1, "trial_type": "single-stim", "word": "apron", "stimulus": "<p id=\"stim\">APRON</p>", "conditions": [18, 1200, "v", 18000], "internal_node_id": "0.0-39.0", "trial": 1, "time_elapsed": 474322, "serialpos": 2, "key_press": -1, "wordID": 34, "type": "PRES_VIS", "trial_index": 57}, "uniqueid": "MTK1571:3KB8R4ZV1FE2BVZ7LGLW143423KGBN", "dateTime": 1515983708640}, {"current_trial": 58, "trialdata": {"rt": -1, "trial_type": "single-stim", "word": "sunrise", "stimulus": "<p id=\"stim\">SUNRISE</p>", "conditions": [18, 1200, "v", 18000], "internal_node_id": "0.0-40.0", "trial": 1, "time_elapsed": 476381, "serialpos": 3, "key_press": -1, "wordID": 1406, "type": "PRES_VIS", "trial_index": 58}, "uniqueid": "MTK1571:3KB8R4ZV1FE2BVZ7LGLW143423KGBN", "dateTime": 1515983710699}, {"current_trial": 59, "trialdata": {"rt": -1, "trial_type": "single-stim", "word": "bank", "stimulus": "<p id=\"stim\">BANK</p>", "conditions": [18, 1200, "v", 18000], "internal_node_id": "0.0-41.0", "trial": 1, "time_elapsed": 478641, "serialpos": 4, "key_press": -1, "wordID": 82, "type": "PRES_VIS", "trial_index": 59}, "uniqueid": "MTK1571:3KB8R4ZV1FE2BVZ7LGLW143423KGBN", "dateTime": 1515983712958}, {"current_trial": 60, "trialdata": {"rt": -1, "trial_type": "single-stim", "word": "sister", "stimulus": "<p id=\"stim\">SISTER</p>", "conditions": [18, 1200, "v", 18000], "internal_node_id": "0.0-42.0", "trial": 1, "time_elapsed": 480898, "serialpos": 5, "key_press": -1, "wordID": 1311, "type": "PRES_VIS", "trial_index": 60}, "uniqueid": "MTK1571:3KB8R4ZV1FE2BVZ7LGLW143423KGBN", "dateTime": 1515983715215}, {"current_trial": 61, "trialdata": {"rt": -1, "trial_type": "single-stim", "word": "typist", "stimulus": "<p id=\"stim\">TYPIST</p>", "conditions": [18, 1200, "v", 18000], "internal_node_id": "0.0-43.0", "trial": 1, "time_elapsed": 483097, "serialpos": 6, "key_press": -1, "wordID": 1531, "type": "PRES_VIS", "trial_index": 61}, "uniqueid": "MTK1571:3KB8R4ZV1FE2BVZ7LGLW143423KGBN", "dateTime": 1515983717414}, {"current_trial": 62, "trialdata": {"rt": -1, "trial_type": "single-stim", "word": "trench", "stimulus": "<p id=\"stim\">TRENCH</p>", "conditions": [18, 1200, "v", 18000], "internal_node_id": "0.0-44.0", "trial": 1, "time_elapsed": 485351, "serialpos": 7, "key_press": -1, "wordID": 1502, "type": "PRES_VIS", "trial_index": 62}, "uniqueid": "MTK1571:3KB8R4ZV1FE2BVZ7LGLW143423KGBN", "dateTime": 1515983719668}, {"current_trial": 63, "trialdata": {"rt": -1, "trial_type": "single-stim", "word": "suspect", "stimulus": "<p id=\"stim\">SUSPECT</p>", "conditions": [18, 1200, "v", 18000], "internal_node_id": "0.0-45.0", "trial": 1, "time_elapsed": 487710, "serialpos": 8, "key_press": -1, "wordID": 1414, "type": "PRES_VIS", "trial_index": 63}, "uniqueid": "MTK1571:3KB8R4ZV1FE2BVZ7LGLW143423KGBN", "dateTime": 1515983722027}, {"current_trial": 64, "trialdata": {"rt": -1, "trial_type": "single-stim", "word": "daisy", "stimulus": "<p id=\"stim\">DAISY</p>", "conditions": [18, 1200, "v", 18000], "internal_node_id": "0.0-46.0", "trial": 1, "time_elapsed": 490065, "serialpos": 9, "key_press": -1, "wordID": 434, "type": "PRES_VIS", "trial_index": 64}, "uniqueid": "MTK1571:3KB8R4ZV1FE2BVZ7LGLW143423KGBN", "dateTime": 1515983724382}, {"current_trial": 65, "trialdata": {"rt": -1, "trial_type": "single-stim", "word": "hawk", "stimulus": "<p id=\"stim\">HAWK</p>", "conditions": [18, 1200, "v", 18000], "internal_node_id": "0.0-47.0", "trial": 1, "time_elapsed": 492247, "serialpos": 10, "key_press": -1, "wordID": 691, "type": "PRES_VIS", "trial_index": 65}, "uniqueid": "MTK1571:3KB8R4ZV1FE2BVZ7LGLW143423KGBN", "dateTime": 1515983726565}, {"current_trial": 66, "trialdata": {"rt": -1, "trial_type": "single-stim", "word": "servant", "stimulus": "<p id=\"stim\">SERVANT</p>", "conditions": [18, 1200, "v", 18000], "internal_node_id": "0.0-48.0", "trial": 1, "time_elapsed": 494639, "serialpos": 11, "key_press": -1, "wordID": 1270, "type": "PRES_VIS", "trial_index": 66}, "uniqueid": "MTK1571:3KB8R4ZV1FE2BVZ7LGLW143423KGBN", "dateTime": 1515983728956}, {"current_trial": 67, "trialdata": {"rt": -1, "trial_type": "single-stim", "word": "message", "stimulus": "<p id=\"stim\">MESSAGE</p>", "conditions": [18, 1200, "v", 18000], "internal_node_id": "0.0-49.0", "trial": 1, "time_elapsed": 496917, "serialpos": 12, "key_press": -1, "wordID": 887, "type": "PRES_VIS", "trial_index": 67}, "uniqueid": "MTK1571:3KB8R4ZV1FE2BVZ7LGLW143423KGBN", "dateTime": 1515983731234}, {"current_trial": 68, "trialdata": {"rt": -1, "trial_type": "single-stim", "word": "onion", "stimulus": "<p id=\"stim\">ONION</p>", "conditions": [18, 1200, "v", 18000], "internal_node_id": "0.0-50.0", "trial": 1, "time_elapsed": 499031, "serialpos": 13, "key_press": -1, "wordID": 976, "type": "PRES_VIS", "trial_index": 68}, "uniqueid": "MTK1571:3KB8R4ZV1FE2BVZ7LGLW143423KGBN", "dateTime": 1515983733354}, {"current_trial": 69, "trialdata": {"rt": -1, "trial_type": "single-stim", "word": "bison", "stimulus": "<p id=\"stim\">BISON</p>", "conditions": [18, 1200, "v", 18000], "internal_node_id": "0.0-51.0", "trial": 1, "time_elapsed": 501178, "serialpos": 14, "key_press": -1, "wordID": 130, "type": "PRES_VIS", "trial_index": 69}, "uniqueid": "MTK1571:3KB8R4ZV1FE2BVZ7LGLW143423KGBN", "dateTime": 1515983735495}, {"current_trial": 70, "trialdata": {"rt": -1, "trial_type": "single-stim", "word": "powder", "stimulus": "<p id=\"stim\">POWDER</p>", "conditions": [18, 1200, "v", 18000], "internal_node_id": "0.0-52.0", "trial": 1, "time_elapsed": 503422, "serialpos": 15, "key_press": -1, "wordID": 1116, "type": "PRES_VIS", "trial_index": 70}, "uniqueid": "MTK1571:3KB8R4ZV1FE2BVZ7LGLW143423KGBN", "dateTime": 1515983737739}, {"current_trial": 71, "trialdata": {"rt": -1, "trial_type": "single-stim", "word": "dime", "stimulus": "<p id=\"stim\">DIME</p>", "conditions": [18, 1200, "v", 18000], "internal_node_id": "0.0-53.0", "trial": 1, "time_elapsed": 505823, "serialpos": 16, "key_press": -1, "wordID": 465, "type": "PRES_VIS", "trial_index": 71}, "uniqueid": "MTK1571:3KB8R4ZV1FE2BVZ7LGLW143423KGBN", "dateTime": 1515983740140}, {"current_trial": 72, "trialdata": {"rt": -1, "trial_type": "single-stim", "word": "eyelash", "stimulus": "<p id=\"stim\">EYELASH</p>", "conditions": [18, 1200, "v", 18000], "internal_node_id": "0.0-54.0", "trial": 1, "time_elapsed": 508046, "serialpos": 17, "key_press": -1, "wordID": 545, "type": "PRES_VIS", "trial_index": 72}, "uniqueid": "MTK1571:3KB8R4ZV1FE2BVZ7LGLW143423KGBN", "dateTime": 1515983742363}, {"current_trial": 73, "trialdata": {"rt": -1, "trial_type": "single-stim", "stimulus": "", "internal_node_id": "0.0-55.0-0.0", "time_elapsed": 510240, "key_press": -1, "type": "PRE_RECALL_DELAY", "trial_index": 73}, "uniqueid": "MTK1571:3KB8R4ZV1FE2BVZ7LGLW143423KGBN", "dateTime": 1515983744557}, {"current_trial": 74, "trialdata": {"rt": -1000, "trial_type": "single-audio", "stimulus": "/static/audio/400Hz.wav", "internal_node_id": "0.0-56.0", "time_elapsed": 510743, "key_press": -1, "type": "PRE_RECALL_ALERT", "trial_index": 74}, "uniqueid": "MTK1571:3KB8R4ZV1FE2BVZ7LGLW143423KGBN", "dateTime": 1515983745060}, {"current_trial": 75, "trialdata": {"rt": [2089, 4631, 6992, 8503, 9906, 14231, 25391, 29069], "recwords": ["bug", "servent", "eyelash", "lady", "sister", "bank", "onion", "message"], "key_times": [1619, 1688, 1802, 2089, 2409, 2519, 3067, 3343, 3529, 3782, 4208, 4404, 4509, 4631, 5116, 5336, 5419, 5607, 5797, 5916, 6451, 6556, 6648, 6992, 7954, 8012, 8133, 8426, 8503, 9334, 9376, 9485, 9640, 9768, 9847, 9906, 12975, 13382, 13595, 13737, 13805, 13910, 14231, 23868, 24618, 24806, 24940, 25052, 25391, 28101, 28201, 28397, 28538, 28717, 28890, 28997, 29069], "trial_type": "free-recall", "conditions": [18, 1200, "v", 18000], "internal_node_id": "0.0-57.0-0.0", "key_presses": [66, 85, 71, 13, 83, 69, 82, 86, 69, 84, 8, 78, 84, 13, 69, 89, 69, 76, 65, 67, 8, 83, 72, 13, 76, 65, 68, 89, 13, 83, 73, 83, 84, 69, 82, 13, 78, 8, 66, 65, 78, 75, 13, 79, 78, 73, 79, 78, 13, 77, 69, 83, 83, 65, 71, 69, 13], "trial": 1, "time_elapsed": 570749, "type": "FREE_RECALL", "trial_index": 75}, "uniqueid": "MTK1571:3KB8R4ZV1FE2BVZ7LGLW143423KGBN", "dateTime": 1515983805071}, {"current_trial": 76, "trialdata": {"rt": 188395, "trial_type": "text", "internal_node_id": "0.0-58.0", "time_elapsed": 761152, "key_press": 13, "type": "INSTRUCTIONS", "trial_index": 76}, "uniqueid": "MTK1571:3KB8R4ZV1FE2BVZ7LGLW143423KGBN", "dateTime": 1515983995469}, {"current_trial": 77, "trialdata": {"rt": [2250, 4279, 6772, 8786, 10813], "trial_type": "math-distractor", "key_times": [1538, 1690, 2250, 3945, 4089, 4279, 6155, 6483, 6772, 8297, 8480, 8786, 10566, 10813], "responses": ["10", "15", "17", "10", "7"], "num2": [5, 6, 9, 2, 4, 4], "num3": [1, 6, 2, 4, 2, 5], "conditions": [24, 1600, "v", 12000], "internal_node_id": "0.0-59.0", "key_presses": [97, 96, 13, 97, 101, 13, 97, 103, 13, 97, 96, 13, 103, 13], "trial": 2, "time_elapsed": 774168, "type": "DISTRACTOR", "trial_index": 77, "num1": [4, 3, 6, 4, 1, 3]}, "uniqueid": "MTK1571:3KB8R4ZV1FE2BVZ7LGLW143423KGBN", "dateTime": 1515984008486}, {"current_trial": 78, "trialdata": {"rt": -1, "trial_type": "single-stim", "stimulus": "<p id=\"stim\">10</p>", "internal_node_id": "0.0-60.0-0.0", "time_elapsed": 777172, "key_press": -1, "trial_index": 78}, "uniqueid": "MTK1571:3KB8R4ZV1FE2BVZ7LGLW143423KGBN", "dateTime": 1515984011489}, {"current_trial": 79, "trialdata": {"rt": -1, "trial_type": "single-stim", "stimulus": "<p id=\"stim\">9</p>", "internal_node_id": "0.0-60.0-1.0", "time_elapsed": 778175, "key_press": -1, "trial_index": 79}, "uniqueid": "MTK1571:3KB8R4ZV1FE2BVZ7LGLW143423KGBN", "dateTime": 1515984012492}, {"current_trial": 80, "trialdata": {"rt": -1, "trial_type": "single-stim", "stimulus": "<p id=\"stim\">8</p>", "internal_node_id": "0.0-60.0-2.0", "time_elapsed": 779177, "key_press": -1, "trial_index": 80}, "uniqueid": "MTK1571:3KB8R4ZV1FE2BVZ7LGLW143423KGBN", "dateTime": 1515984013495}, {"current_trial": 81, "trialdata": {"rt": -1, "trial_type": "single-stim", "stimulus": "<p id=\"stim\">7</p>", "internal_node_id": "0.0-60.0-3.0", "time_elapsed": 780180, "key_press": -1, "trial_index": 81}, "uniqueid": "MTK1571:3KB8R4ZV1FE2BVZ7LGLW143423KGBN", "dateTime": 1515984014497}, {"current_trial": 82, "trialdata": {"rt": -1, "trial_type": "single-stim", "stimulus": "<p id=\"stim\">6</p>", "internal_node_id": "0.0-60.0-4.0", "time_elapsed": 781182, "key_press": -1, "trial_index": 82}, "uniqueid": "MTK1571:3KB8R4ZV1FE2BVZ7LGLW143423KGBN", "dateTime": 1515984015499}, {"current_trial": 83, "trialdata": {"rt": -1, "trial_type": "single-stim", "stimulus": "<p id=\"stim\">5</p>", "internal_node_id": "0.0-60.0-5.0", "time_elapsed": 782186, "key_press": -1, "trial_index": 83}, "uniqueid": "MTK1571:3KB8R4ZV1FE2BVZ7LGLW143423KGBN", "dateTime": 1515984016503}, {"current_trial": 84, "trialdata": {"rt": -1, "trial_type": "single-stim", "stimulus": "<p id=\"stim\">4</p>", "internal_node_id": "0.0-60.0-6.0", "time_elapsed": 783188, "key_press": -1, "trial_index": 84}, "uniqueid": "MTK1571:3KB8R4ZV1FE2BVZ7LGLW143423KGBN", "dateTime": 1515984017505}, {"current_trial": 85, "trialdata": {"rt": -1, "trial_type": "single-stim", "stimulus": "<p id=\"stim\">3</p>", "internal_node_id": "0.0-60.0-7.0", "time_elapsed": 784190, "key_press": -1, "trial_index": 85}, "uniqueid": "MTK1571:3KB8R4ZV1FE2BVZ7LGLW143423KGBN", "dateTime": 1515984018507}, {"current_trial": 86, "trialdata": {"rt": -1, "trial_type": "single-stim", "stimulus": "<p id=\"stim\">2</p>", "internal_node_id": "0.0-60.0-8.0", "time_elapsed": 785193, "key_press": -1, "trial_index": 86}, "uniqueid": "MTK1571:3KB8R4ZV1FE2BVZ7LGLW143423KGBN", "dateTime": 1515984019510}, {"current_trial": 87, "trialdata": {"rt": -1, "trial_type": "single-stim", "stimulus": "<p id=\"stim\">1</p>", "internal_node_id": "0.0-60.0-9.0", "time_elapsed": 786195, "key_press": -1, "trial_index": 87}, "uniqueid": "MTK1571:3KB8R4ZV1FE2BVZ7LGLW143423KGBN", "dateTime": 1515984020513}, {"current_trial": 88, "trialdata": {"rt": -1, "trial_type": "single-stim", "stimulus": "<p id=\"stim\">+</p>", "internal_node_id": "0.0-61.0-0.0", "time_elapsed": 787697, "key_press": -1, "type": "FIXATION", "trial_index": 88}, "uniqueid": "MTK1571:3KB8R4ZV1FE2BVZ7LGLW143423KGBN", "dateTime": 1515984022015}, {"current_trial": 89, "trialdata": {"rt": -1, "trial_type": "single-stim", "word": "child", "stimulus": "<p id=\"stim\">CHILD</p>", "conditions": [24, 1600, "v", 12000], "internal_node_id": "0.0-62.0", "trial": 2, "time_elapsed": 789300, "serialpos": 0, "key_press": -1, "wordID": 298, "type": "PRES_VIS", "trial_index": 89}, "uniqueid": "MTK1571:3KB8R4ZV1FE2BVZ7LGLW143423KGBN", "dateTime": 1515984023617}, {"current_trial": 90, "trialdata": {"rt": -1, "trial_type": "single-stim", "word": "pebble", "stimulus": "<p id=\"stim\">PEBBLE</p>", "conditions": [24, 1600, "v", 12000], "internal_node_id": "0.0-63.0", "trial": 2, "time_elapsed": 791874, "serialpos": 1, "key_press": -1, "wordID": 1034, "type": "PRES_VIS", "trial_index": 90}, "uniqueid": "MTK1571:3KB8R4ZV1FE2BVZ7LGLW143423KGBN", "dateTime": 1515984026191}, {"current_trial": 91, "trialdata": {"rt": -1, "trial_type": "single-stim", "word": "europe", "stimulus": "<p id=\"stim\">EUROPE</p>", "conditions": [24, 1600, "v", 12000], "internal_node_id": "0.0-64.0", "trial": 2, "time_elapsed": 794466, "serialpos": 2, "key_press": -1, "wordID": 540, "type": "PRES_VIS", "trial_index": 91}, "uniqueid": "MTK1571:3KB8R4ZV1FE2BVZ7LGLW143423KGBN", "dateTime": 1515984028783}, {"current_trial": 92, "trialdata": {"rt": -1, "trial_type": "single-stim", "word": "asia", "stimulus": "<p id=\"stim\">ASIA</p>", "conditions": [24, 1600, "v", 12000], "internal_node_id": "0.0-65.0", "trial": 2, "time_elapsed": 796914, "serialpos": 3, "key_press": -1, "wordID": 45, "type": "PRES_VIS", "trial_index": 92}, "uniqueid": "MTK1571:3KB8R4ZV1FE2BVZ7LGLW143423KGBN", "dateTime": 1515984031231}, {"current_trial": 93, "trialdata": {"rt": -1, "trial_type": "single-stim", "word": "female", "stimulus": "<p id=\"stim\">FEMALE</p>", "conditions": [24, 1600, "v", 12000], "internal_node_id": "0.0-66.0", "trial": 2, "time_elapsed": 799544, "serialpos": 4, "key_press": -1, "wordID": 558, "type": "PRES_VIS", "trial_index": 93}, "uniqueid": "MTK1571:3KB8R4ZV1FE2BVZ7LGLW143423KGBN", "dateTime": 1515984033861}, {"current_trial": 94, "trialdata": {"rt": -1, "trial_type": "single-stim", "word": "baby", "stimulus": "<p id=\"stim\">BABY</p>", "conditions": [24, 1600, "v", 12000], "internal_node_id": "0.0-67.0", "trial": 2, "time_elapsed": 802251, "serialpos": 5, "key_press": -1, "wordID": 63, "type": "PRES_VIS", "trial_index": 94}, "uniqueid": "MTK1571:3KB8R4ZV1FE2BVZ7LGLW143423KGBN", "dateTime": 1515984036568}, {"current_trial": 95, "trialdata": {"rt": -1, "trial_type": "single-stim", "word": "racket", "stimulus": "<p id=\"stim\">RACKET</p>", "conditions": [24, 1600, "v", 12000], "internal_node_id": "0.0-68.0", "trial": 2, "time_elapsed": 804947, "serialpos": 6, "key_press": -1, "wordID": 1154, "type": "PRES_VIS", "trial_index": 95}, "uniqueid": "MTK1571:3KB8R4ZV1FE2BVZ7LGLW143423KGBN", "dateTime": 1515984039264}, {"current_trial": 96, "trialdata": {"rt": -1, "trial_type": "single-stim", "word": "author", "stimulus": "<p id=\"stim\">AUTHOR</p>", "conditions": [24, 1600, "v", 12000], "internal_node_id": "0.0-69.0", "trial": 2, "time_elapsed": 807563, "serialpos": 7, "key_press": -1, "wordID": 60, "type": "PRES_VIS", "trial_index": 96}, "uniqueid": "MTK1571:3KB8R4ZV1FE2BVZ7LGLW143423KGBN", "dateTime": 1515984041880}, {"current_trial": 97, "trialdata": {"rt": -1, "trial_type": "single-stim", "word": "flower", "stimulus": "<p id=\"stim\">FLOWER</p>", "conditions": [24, 1600, "v", 12000], "internal_node_id": "0.0-70.0", "trial": 2, "time_elapsed": 810331, "serialpos": 8, "key_press": -1, "wordID": 583, "type": "PRES_VIS", "trial_index": 97}, "uniqueid": "MTK1571:3KB8R4ZV1FE2BVZ7LGLW143423KGBN", "dateTime": 1515984044648}, {"current_trial": 98, "trialdata": {"rt": -1, "trial_type": "single-stim", "word": "flute", "stimulus": "<p id=\"stim\">FLUTE</p>", "conditions": [24, 1600, "v", 12000], "internal_node_id": "0.0-71.0", "trial": 2, "time_elapsed": 813068, "serialpos": 9, "key_press": -1, "wordID": 584, "type": "PRES_VIS", "trial_index": 98}, "uniqueid": "MTK1571:3KB8R4ZV1FE2BVZ7LGLW143423KGBN", "dateTime": 1515984047385}, {"current_trial": 99, "trialdata": {"rt": -1, "trial_type": "single-stim", "word": "crutch", "stimulus": "<p id=\"stim\">CRUTCH</p>", "conditions": [24, 1600, "v", 12000], "internal_node_id": "0.0-72.0", "trial": 2, "time_elapsed": 815563, "serialpos": 10, "key_press": -1, "wordID": 416, "type": "PRES_VIS", "trial_index": 99}, "uniqueid": "MTK1571:3KB8R4ZV1FE2BVZ7LGLW143423KGBN", "dateTime": 1515984049880}, {"current_trial": 100, "trialdata": {"rt": -1, "trial_type": "single-stim", "word": "truck", "stimulus": "<p id=\"stim\">TRUCK</p>", "conditions": [24, 1600, "v", 12000], "internal_node_id": "0.0-73.0", "trial": 2, "time_elapsed": 818075, "serialpos": 11, "key_press": -1, "wordID": 1511, "type": "PRES_VIS", "trial_index": 100}, "uniqueid": "MTK1571:3KB8R4ZV1FE2BVZ7LGLW143423KGBN", "dateTime": 1515984052392}, {"current_trial": 101, "trialdata": {"rt": -1, "trial_type": "single-stim", "word": "gangster", "stimulus": "<p id=\"stim\">GANGSTER</p>", "conditions": [24, 1600, "v", 12000], "internal_node_id": "0.0-74.0", "trial": 2, "time_elapsed": 820497, "serialpos": 12, "key_press": -1, "wordID": 619, "type": "PRES_VIS", "trial_index": 101}, "uniqueid": "MTK1571:3KB8R4ZV1FE2BVZ7LGLW143423KGBN", "dateTime": 1515984054815}, {"current_trial": 102, "trialdata": {"rt": -1, "trial_type": "single-stim", "word": "canyon", "stimulus": "<p id=\"stim\">CANYON</p>", "conditions": [24, 1600, "v", 12000], "internal_node_id": "0.0-75.0", "trial": 2, "time_elapsed": 823285, "serialpos": 13, "key_press": -1, "wordID": 234, "type": "PRES_VIS", "trial_index": 102}, "uniqueid": "MTK1571:3KB8R4ZV1FE2BVZ7LGLW143423KGBN", "dateTime": 1515984057602}, {"current_trial": 103, "trialdata": {"rt": -1, "trial_type": "single-stim", "word": "shelter", "stimulus": "<p id=\"stim\">SHELTER</p>", "conditions": [24, 1600, "v", 12000], "internal_node_id": "0.0-76.0", "trial": 2, "time_elapsed": 825871, "serialpos": 14, "key_press": -1, "wordID": 1281, "type": "PRES_VIS", "trial_index": 103}, "uniqueid": "MTK1571:3KB8R4ZV1FE2BVZ7LGLW143423KGBN", "dateTime": 1515984060188}, {"current_trial": 104, "trialdata": {"rt": -1, "trial_type": "single-stim", "word": "diner", "stimulus": "<p id=\"stim\">DINER</p>", "conditions": [24, 1600, "v", 12000], "internal_node_id": "0.0-77.0", "trial": 2, "time_elapsed": 828423, "serialpos": 15, "key_press": -1, "wordID": 466, "type": "PRES_VIS", "trial_index": 104}, "uniqueid": "MTK1571:3KB8R4ZV1FE2BVZ7LGLW143423KGBN", "dateTime": 1515984062740}, {"current_trial": 105, "trialdata": {"rt": -1, "trial_type": "single-stim", "word": "custard", "stimulus": "<p id=\"stim\">CUSTARD</p>", "conditions": [24, 1600, "v", 12000], "internal_node_id": "0.0-78.0", "trial": 2, "time_elapsed": 831226, "serialpos": 16, "key_press": -1, "wordID": 428, "type": "PRES_VIS", "trial_index": 105}, "uniqueid": "MTK1571:3KB8R4ZV1FE2BVZ7LGLW143423KGBN", "dateTime": 1515984065543}, {"current_trial": 106, "trialdata": {"rt": -1, "trial_type": "single-stim", "word": "atlas", "stimulus": "<p id=\"stim\">ATLAS</p>", "conditions": [24, 1600, "v", 12000], "internal_node_id": "0.0-79.0", "trial": 2, "time_elapsed": 833694, "serialpos": 17, "key_press": -1, "wordID": 52, "type": "PRES_VIS", "trial_index": 106}, "uniqueid": "MTK1571:3KB8R4ZV1FE2BVZ7LGLW143423KGBN", "dateTime": 1515984068011}, {"current_trial": 107, "trialdata": {"rt": -1, "trial_type": "single-stim", "word": "tart", "stimulus": "<p id=\"stim\">TART</p>", "conditions": [24, 1600, "v", 12000], "internal_node_id": "0.0-80.0", "trial": 2, "time_elapsed": 836123, "serialpos": 18, "key_press": -1, "wordID": 1435, "type": "PRES_VIS", "trial_index": 107}, "uniqueid": "MTK1571:3KB8R4ZV1FE2BVZ7LGLW143423KGBN", "dateTime": 1515984070440}, {"current_trial": 108, "trialdata": {"rt": -1, "trial_type": "single-stim", "word": "beef", "stimulus": "<p id=\"stim\">BEEF</p>", "conditions": [24, 1600, "v", 12000], "internal_node_id": "0.0-81.0", "trial": 2, "time_elapsed": 838822, "serialpos": 19, "key_press": -1, "wordID": 112, "type": "PRES_VIS", "trial_index": 108}, "uniqueid": "MTK1571:3KB8R4ZV1FE2BVZ7LGLW143423KGBN", "dateTime": 1515984073139}, {"current_trial": 109, "trialdata": {"rt": -1, "trial_type": "single-stim", "word": "clothes", "stimulus": "<p id=\"stim\">CLOTHES</p>", "conditions": [24, 1600, "v", 12000], "internal_node_id": "0.0-82.0", "trial": 2, "time_elapsed": 841226, "serialpos": 20, "key_press": -1, "wordID": 326, "type": "PRES_VIS", "trial_index": 109}, "uniqueid": "MTK1571:3KB8R4ZV1FE2BVZ7LGLW143423KGBN", "dateTime": 1515984075543}, {"current_trial": 110, "trialdata": {"rt": -1, "trial_type": "single-stim", "word": "nightgown", "stimulus": "<p id=\"stim\">NIGHTGOWN</p>", "conditions": [24, 1600, "v", 12000], "internal_node_id": "0.0-83.0", "trial": 2, "time_elapsed": 843782, "serialpos": 21, "key_press": -1, "wordID": 952, "type": "PRES_VIS", "trial_index": 110}, "uniqueid": "MTK1571:3KB8R4ZV1FE2BVZ7LGLW143423KGBN", "dateTime": 1515984078099}, {"current_trial": 111, "trialdata": {"rt": -1, "trial_type": "single-stim", "word": "seafood", "stimulus": "<p id=\"stim\">SEAFOOD</p>", "conditions": [24, 1600, "v", 12000], "internal_node_id": "0.0-84.0", "trial": 2, "time_elapsed": 846236, "serialpos": 22, "key_press": -1, "wordID": 1259, "type": "PRES_VIS", "trial_index": 111}, "uniqueid": "MTK1571:3KB8R4ZV1FE2BVZ7LGLW143423KGBN", "dateTime": 1515984080554}, {"current_trial": 112, "trialdata": {"rt": -1, "trial_type": "single-stim", "word": "valley", "stimulus": "<p id=\"stim\">VALLEY</p>", "conditions": [24, 1600, "v", 12000], "internal_node_id": "0.0-85.0", "trial": 2, "time_elapsed": 848987, "serialpos": 23, "key_press": -1, "wordID": 1544, "type": "PRES_VIS", "trial_index": 112}, "uniqueid": "MTK1571:3KB8R4ZV1FE2BVZ7LGLW143423KGBN", "dateTime": 1515984083304}, {"current_trial": 113, "trialdata": {"rt": -1, "trial_type": "single-stim", "stimulus": "", "internal_node_id": "0.0-86.0-0.0", "time_elapsed": 851281, "key_press": -1, "type": "PRE_RECALL_DELAY", "trial_index": 113}, "uniqueid": "MTK1571:3KB8R4ZV1FE2BVZ7LGLW143423KGBN", "dateTime": 1515984085598}, {"current_trial": 114, "trialdata": {"rt": -1000, "trial_type": "single-audio", "stimulus": "/static/audio/400Hz.wav", "internal_node_id": "0.0-87.0", "time_elapsed": 851783, "key_press": -1, "type": "PRE_RECALL_ALERT", "trial_index": 114}, "uniqueid": "MTK1571:3KB8R4ZV1FE2BVZ7LGLW143423KGBN", "dateTime": 1515984086101}, {"current_trial": 115, "trialdata": {"rt": [2377, 3814, 5395, 7170, 8089, 10042, 11748, 13111, 15720, 25151, 26135, 30512], "recwords": ["seafood", "valley", "clothes", "nightgown", "baby", "pebble", "europe", "asia", "atlas", "custard", "dinner", "valley"], "key_times": [808, 1001, 1111, 1338, 1577, 1716, 1991, 2377, 3066, 3140, 3259, 3404, 3473, 3693, 3814, 4277, 4359, 4535, 4732, 4893, 5044, 5276, 5395, 5722, 5815, 5942, 6041, 6147, 6524, 6610, 6822, 6927, 7170, 7591, 7690, 7786, 7976, 8089, 8505, 8829, 9113, 9252, 9465, 9611, 9728, 9877, 10042, 10599, 10795, 10990, 11229, 11357, 11578, 11748, 12194, 12629, 12728, 12950, 13111, 14627, 14864, 15069, 15237, 15333, 15720, 22688, 22854, 22923, 23114, 23293, 23663, 23754, 23819, 24029, 25151, 25474, 25561, 25743, 25882, 25946, 26023, 26135, 28987, 29087, 29183, 29379, 29943, 30178, 30246, 30382, 30512], "trial_type": "free-recall", "conditions": [24, 1600, "v", 12000], "internal_node_id": "0.0-88.0-0.0", "key_presses": [83, 69, 65, 70, 79, 79, 68, 13, 86, 65, 76, 76, 69, 89, 13, 67, 76, 79, 84, 72, 69, 83, 13, 78, 73, 71, 72, 84, 71, 79, 87, 78, 13, 66, 65, 66, 89, 13, 66, 8, 80, 69, 66, 66, 76, 69, 13, 69, 85, 82, 79, 80, 69, 13, 65, 83, 73, 65, 13, 65, 84, 76, 65, 83, 13, 67, 85, 83, 84, 82, 8, 65, 82, 68, 13, 68, 73, 78, 78, 69, 82, 13, 86, 65, 76, 69, 8, 76, 69, 89, 13], "trial": 2, "time_elapsed": 911789, "type": "FREE_RECALL", "trial_index": 115}, "uniqueid": "MTK1571:3KB8R4ZV1FE2BVZ7LGLW143423KGBN", "dateTime": 1515984146111}, {"current_trial": 116, "trialdata": {"rt": 2667, "trial_type": "text", "internal_node_id": "0.0-89.0", "time_elapsed": 916464, "key_press": 13, "type": "INSTRUCTIONS", "trial_index": 116}, "uniqueid": "MTK1571:3KB8R4ZV1FE2BVZ7LGLW143423KGBN", "dateTime": 1515984150782}, {"current_trial": 117, "trialdata": {"rt": [4860, 6851, 9978, 12135, 14462, 21673, 23801], "trial_type": "math-distractor", "key_times": [4375, 4550, 4860, 6340, 6531, 6851, 9486, 9671, 9978, 11690, 11905, 12135, 14080, 14259, 14462, 21291, 21467, 21673, 23560, 23801], "responses": ["14", "12", "20", "19", "12", "21", "6"], "num2": [1, 9, 6, 5, 5, 5, 2, 1], "num3": [6, 1, 6, 9, 3, 7, 1, 9], "conditions": [24, 1600, "v", 24000], "internal_node_id": "0.0-90.0", "key_presses": [97, 100, 13, 97, 98, 13, 98, 96, 13, 97, 105, 13, 97, 98, 13, 98, 97, 13, 102, 13], "trial": 3, "time_elapsed": 942472, "type": "DISTRACTOR", "trial_index": 117, "num1": [7, 2, 8, 5, 4, 9, 4, 3]}, "uniqueid": "MTK1571:3KB8R4ZV1FE2BVZ7LGLW143423KGBN", "dateTime": 1515984176789}, {"current_trial": 118, "trialdata": {"rt": -1, "trial_type": "single-stim", "stimulus": "<p id=\"stim\">10</p>", "internal_node_id": "0.0-91.0-0.0", "time_elapsed": 945475, "key_press": -1, "trial_index": 118}, "uniqueid": "MTK1571:3KB8R4ZV1FE2BVZ7LGLW143423KGBN", "dateTime": 1515984179793}, {"current_trial": 119, "trialdata": {"rt": -1, "trial_type": "single-stim", "stimulus": "<p id=\"stim\">9</p>", "internal_node_id": "0.0-91.0-1.0", "time_elapsed": 946478, "key_press": -1, "trial_index": 119}, "uniqueid": "MTK1571:3KB8R4ZV1FE2BVZ7LGLW143423KGBN", "dateTime": 1515984180795}, {"current_trial": 120, "trialdata": {"rt": -1, "trial_type": "single-stim", "stimulus": "<p id=\"stim\">8</p>", "internal_node_id": "0.0-91.0-2.0", "time_elapsed": 947480, "key_press": -1, "trial_index": 120}, "uniqueid": "MTK1571:3KB8R4ZV1FE2BVZ7LGLW143423KGBN", "dateTime": 1515984181797}, {"current_trial": 121, "trialdata": {"rt": -1, "trial_type": "single-stim", "stimulus": "<p id=\"stim\">7</p>", "internal_node_id": "0.0-91.0-3.0", "time_elapsed": 948481, "key_press": -1, "trial_index": 121}, "uniqueid": "MTK1571:3KB8R4ZV1FE2BVZ7LGLW143423KGBN", "dateTime": 1515984182799}, {"current_trial": 122, "trialdata": {"rt": -1, "trial_type": "single-stim", "stimulus": "<p id=\"stim\">6</p>", "internal_node_id": "0.0-91.0-4.0", "time_elapsed": 949483, "key_press": -1, "trial_index": 122}, "uniqueid": "MTK1571:3KB8R4ZV1FE2BVZ7LGLW143423KGBN", "dateTime": 1515984183800}, {"current_trial": 123, "trialdata": {"rt": -1, "trial_type": "single-stim", "stimulus": "<p id=\"stim\">5</p>", "internal_node_id": "0.0-91.0-5.0", "time_elapsed": 950486, "key_press": -1, "trial_index": 123}, "uniqueid": "MTK1571:3KB8R4ZV1FE2BVZ7LGLW143423KGBN", "dateTime": 1515984184803}, {"current_trial": 124, "trialdata": {"rt": -1, "trial_type": "single-stim", "stimulus": "<p id=\"stim\">4</p>", "internal_node_id": "0.0-91.0-6.0", "time_elapsed": 951487, "key_press": -1, "trial_index": 124}, "uniqueid": "MTK1571:3KB8R4ZV1FE2BVZ7LGLW143423KGBN", "dateTime": 1515984185804}, {"current_trial": 125, "trialdata": {"rt": -1, "trial_type": "single-stim", "stimulus": "<p id=\"stim\">3</p>", "internal_node_id": "0.0-91.0-7.0", "time_elapsed": 952489, "key_press": -1, "trial_index": 125}, "uniqueid": "MTK1571:3KB8R4ZV1FE2BVZ7LGLW143423KGBN", "dateTime": 1515984186807}, {"current_trial": 126, "trialdata": {"rt": -1, "trial_type": "single-stim", "stimulus": "<p id=\"stim\">2</p>", "internal_node_id": "0.0-91.0-8.0", "time_elapsed": 953491, "key_press": -1, "trial_index": 126}, "uniqueid": "MTK1571:3KB8R4ZV1FE2BVZ7LGLW143423KGBN", "dateTime": 1515984187808}, {"current_trial": 127, "trialdata": {"rt": -1, "trial_type": "single-stim", "stimulus": "<p id=\"stim\">1</p>", "internal_node_id": "0.0-91.0-9.0", "time_elapsed": 954494, "key_press": -1, "trial_index": 127}, "uniqueid": "MTK1571:3KB8R4ZV1FE2BVZ7LGLW143423KGBN", "dateTime": 1515984188811}, {"current_trial": 128, "trialdata": {"rt": -1, "trial_type": "single-stim", "stimulus": "<p id=\"stim\">+</p>", "internal_node_id": "0.0-92.0-0.0", "time_elapsed": 955996, "key_press": -1, "type": "FIXATION", "trial_index": 128}, "uniqueid": "MTK1571:3KB8R4ZV1FE2BVZ7LGLW143423KGBN", "dateTime": 1515984190313}, {"current_trial": 129, "trialdata": {"rt": -1, "trial_type": "single-stim", "word": "shortcake", "stimulus": "<p id=\"stim\">SHORTCAKE</p>", "conditions": [24, 1600, "v", 24000], "internal_node_id": "0.0-93.0", "trial": 3, "time_elapsed": 957598, "serialpos": 0, "key_press": -1, "wordID": 1291, "type": "PRES_VIS", "trial_index": 129}, "uniqueid": "MTK1571:3KB8R4ZV1FE2BVZ7LGLW143423KGBN", "dateTime": 1515984191916}, {"current_trial": 130, "trialdata": {"rt": -1, "trial_type": "single-stim", "word": "shirt", "stimulus": "<p id=\"stim\">SHIRT</p>", "conditions": [24, 1600, "v", 24000], "internal_node_id": "0.0-94.0", "trial": 3, "time_elapsed": 960386, "serialpos": 1, "key_press": -1, "wordID": 1286, "type": "PRES_VIS", "trial_index": 130}, "uniqueid": "MTK1571:3KB8R4ZV1FE2BVZ7LGLW143423KGBN", "dateTime": 1515984194703}, {"current_trial": 131, "trialdata": {"rt": -1, "trial_type": "single-stim", "word": "drink", "stimulus": "<p id=\"stim\">DRINK</p>", "conditions": [24, 1600, "v", 24000], "internal_node_id": "0.0-95.0", "trial": 3, "time_elapsed": 963110, "serialpos": 2, "key_press": -1, "wordID": 497, "type": "PRES_VIS", "trial_index": 131}, "uniqueid": "MTK1571:3KB8R4ZV1FE2BVZ7LGLW143423KGBN", "dateTime": 1515984197427}, {"current_trial": 132, "trialdata": {"rt": -1, "trial_type": "single-stim", "word": "quail", "stimulus": "<p id=\"stim\">QUAIL</p>", "conditions": [24, 1600, "v", 24000], "internal_node_id": "0.0-96.0", "trial": 3, "time_elapsed": 965775, "serialpos": 3, "key_press": -1, "wordID": 1146, "type": "PRES_VIS", "trial_index": 132}, "uniqueid": "MTK1571:3KB8R4ZV1FE2BVZ7LGLW143423KGBN", "dateTime": 1515984200092}, {"current_trial": 133, "trialdata": {"rt": -1, "trial_type": "single-stim", "word": "london", "stimulus": "<p id=\"stim\">LONDON</p>", "conditions": [24, 1600, "v", 24000], "internal_node_id": "0.0-97.0", "trial": 3, "time_elapsed": 968396, "serialpos": 4, "key_press": -1, "wordID": 842, "type": "PRES_VIS", "trial_index": 133}, "uniqueid": "MTK1571:3KB8R4ZV1FE2BVZ7LGLW143423KGBN", "dateTime": 1515984202713}, {"current_trial": 134, "trialdata": {"rt": -1, "trial_type": "single-stim", "word": "thief", "stimulus": "<p id=\"stim\">THIEF</p>", "conditions": [24, 1600, "v", 24000], "internal_node_id": "0.0-98.0", "trial": 3, "time_elapsed": 971186, "serialpos": 5, "key_press": -1, "wordID": 1455, "type": "PRES_VIS", "trial_index": 134}, "uniqueid": "MTK1571:3KB8R4ZV1FE2BVZ7LGLW143423KGBN", "dateTime": 1515984205503}, {"current_trial": 135, "trialdata": {"rt": -1, "trial_type": "single-stim", "word": "burglar", "stimulus": "<p id=\"stim\">BURGLAR</p>", "conditions": [24, 1600, "v", 24000], "internal_node_id": "0.0-99.0", "trial": 3, "time_elapsed": 973792, "serialpos": 6, "key_press": -1, "wordID": 199, "type": "PRES_VIS", "trial_index": 135}, "uniqueid": "MTK1571:3KB8R4ZV1FE2BVZ7LGLW143423KGBN", "dateTime": 1515984208109}, {"current_trial": 136, "trialdata": {"rt": -1, "trial_type": "single-stim", "word": "piano", "stimulus": "<p id=\"stim\">PIANO</p>", "conditions": [24, 1600, "v", 24000], "internal_node_id": "0.0-100.0", "trial": 3, "time_elapsed": 976489, "serialpos": 7, "key_press": -1, "wordID": 1056, "type": "PRES_VIS", "trial_index": 136}, "uniqueid": "MTK1571:3KB8R4ZV1FE2BVZ7LGLW143423KGBN", "dateTime": 1515984210806}, {"current_trial": 137, "trialdata": {"rt": -1, "trial_type": "single-stim", "word": "ankle", "stimulus": "<p id=\"stim\">ANKLE</p>", "conditions": [24, 1600, "v", 24000], "internal_node_id": "0.0-101.0", "trial": 3, "time_elapsed": 979267, "serialpos": 8, "key_press": -1, "wordID": 23, "type": "PRES_VIS", "trial_index": 137}, "uniqueid": "MTK1571:3KB8R4ZV1FE2BVZ7LGLW143423KGBN", "dateTime": 1515984213584}, {"current_trial": 138, "trialdata": {"rt": -1, "trial_type": "single-stim", "word": "glove", "stimulus": "<p id=\"stim\">GLOVE</p>", "conditions": [24, 1600, "v", 24000], "internal_node_id": "0.0-102.0", "trial": 3, "time_elapsed": 982018, "serialpos": 9, "key_press": -1, "wordID": 641, "type": "PRES_VIS", "trial_index": 138}, "uniqueid": "MTK1571:3KB8R4ZV1FE2BVZ7LGLW143423KGBN", "dateTime": 1515984216335}, {"current_trial": 139, "trialdata": {"rt": -1, "trial_type": "single-stim", "word": "marsh", "stimulus": "<p id=\"stim\">MARSH</p>", "conditions": [24, 1600, "v", 24000], "internal_node_id": "0.0-103.0", "trial": 3, "time_elapsed": 984556, "serialpos": 10, "key_press": -1, "wordID": 873, "type": "PRES_VIS", "trial_index": 139}, "uniqueid": "MTK1571:3KB8R4ZV1FE2BVZ7LGLW143423KGBN", "dateTime": 1515984218873}, {"current_trial": 140, "trialdata": {"rt": -1, "trial_type": "single-stim", "word": "pasta", "stimulus": "<p id=\"stim\">PASTA</p>", "conditions": [24, 1600, "v", 24000], "internal_node_id": "0.0-104.0", "trial": 3, "time_elapsed": 987203, "serialpos": 11, "key_press": -1, "wordID": 1020, "type": "PRES_VIS", "trial_index": 140}, "uniqueid": "MTK1571:3KB8R4ZV1FE2BVZ7LGLW143423KGBN", "dateTime": 1515984221520}, {"current_trial": 141, "trialdata": {"rt": -1, "trial_type": "single-stim", "word": "sticker", "stimulus": "<p id=\"stim\">STICKER</p>", "conditions": [24, 1600, "v", 24000], "internal_node_id": "0.0-105.0", "trial": 3, "time_elapsed": 989990, "serialpos": 12, "key_press": -1, "wordID": 1381, "type": "PRES_VIS", "trial_index": 141}, "uniqueid": "MTK1571:3KB8R4ZV1FE2BVZ7LGLW143423KGBN", "dateTime": 1515984224307}, {"current_trial": 142, "trialdata": {"rt": -1, "trial_type": "single-stim", "word": "mattress", "stimulus": "<p id=\"stim\">MATTRESS</p>", "conditions": [24, 1600, "v", 24000], "internal_node_id": "0.0-106.0", "trial": 3, "time_elapsed": 992435, "serialpos": 13, "key_press": -1, "wordID": 878, "type": "PRES_VIS", "trial_index": 142}, "uniqueid": "MTK1571:3KB8R4ZV1FE2BVZ7LGLW143423KGBN", "dateTime": 1515984226752}, {"current_trial": 143, "trialdata": {"rt": -1, "trial_type": "single-stim", "word": "crib", "stimulus": "<p id=\"stim\">CRIB</p>", "conditions": [24, 1600, "v", 24000], "internal_node_id": "0.0-107.0", "trial": 3, "time_elapsed": 995006, "serialpos": 14, "key_press": -1, "wordID": 406, "type": "PRES_VIS", "trial_index": 143}, "uniqueid": "MTK1571:3KB8R4ZV1FE2BVZ7LGLW143423KGBN", "dateTime": 1515984229323}, {"current_trial": 144, "trialdata": {"rt": -1, "trial_type": "single-stim", "word": "badge", "stimulus": "<p id=\"stim\">BADGE</p>", "conditions": [24, 1600, "v", 24000], "internal_node_id": "0.0-108.0", "trial": 3, "time_elapsed": 997763, "serialpos": 15, "key_press": -1, "wordID": 67, "type": "PRES_VIS", "trial_index": 144}, "uniqueid": "MTK1571:3KB8R4ZV1FE2BVZ7LGLW143423KGBN", "dateTime": 1515984232080}, {"current_trial": 145, "trialdata": {"rt": -1, "trial_type": "single-stim", "word": "pepper", "stimulus": "<p id=\"stim\">PEPPER</p>", "conditions": [24, 1600, "v", 24000], "internal_node_id": "0.0-109.0", "trial": 3, "time_elapsed": 1000456, "serialpos": 16, "key_press": -1, "wordID": 1046, "type": "PRES_VIS", "trial_index": 145}, "uniqueid": "MTK1571:3KB8R4ZV1FE2BVZ7LGLW143423KGBN", "dateTime": 1515984234773}, {"current_trial": 146, "trialdata": {"rt": -1, "trial_type": "single-stim", "word": "witness", "stimulus": "<p id=\"stim\">WITNESS</p>", "conditions": [24, 1600, "v", 24000], "internal_node_id": "0.0-110.0", "trial": 3, "time_elapsed": 1003243, "serialpos": 17, "key_press": -1, "wordID": 1617, "type": "PRES_VIS", "trial_index": 146}, "uniqueid": "MTK1571:3KB8R4ZV1FE2BVZ7LGLW143423KGBN", "dateTime": 1515984237561}, {"current_trial": 147, "trialdata": {"rt": -1, "trial_type": "single-stim", "word": "teacher", "stimulus": "<p id=\"stim\">TEACHER</p>", "conditions": [24, 1600, "v", 24000], "internal_node_id": "0.0-111.0", "trial": 3, "time_elapsed": 1005827, "serialpos": 18, "key_press": -1, "wordID": 1439, "type": "PRES_VIS", "trial_index": 147}, "uniqueid": "MTK1571:3KB8R4ZV1FE2BVZ7LGLW143423KGBN", "dateTime": 1515984240145}, {"current_trial": 148, "trialdata": {"rt": -1, "trial_type": "single-stim", "word": "cabbage", "stimulus": "<p id=\"stim\">CABBAGE</p>", "conditions": [24, 1600, "v", 24000], "internal_node_id": "0.0-112.0", "trial": 3, "time_elapsed": 1008549, "serialpos": 19, "key_press": -1, "wordID": 209, "type": "PRES_VIS", "trial_index": 148}, "uniqueid": "MTK1571:3KB8R4ZV1FE2BVZ7LGLW143423KGBN", "dateTime": 1515984242867}, {"current_trial": 149, "trialdata": {"rt": -1, "trial_type": "single-stim", "word": "cousin", "stimulus": "<p id=\"stim\">COUSIN</p>", "conditions": [24, 1600, "v", 24000], "internal_node_id": "0.0-113.0", "trial": 3, "time_elapsed": 1011205, "serialpos": 20, "key_press": -1, "wordID": 391, "type": "PRES_VIS", "trial_index": 149}, "uniqueid": "MTK1571:3KB8R4ZV1FE2BVZ7LGLW143423KGBN", "dateTime": 1515984245522}, {"current_trial": 150, "trialdata": {"rt": -1, "trial_type": "single-stim", "word": "napkin", "stimulus": "<p id=\"stim\">NAPKIN</p>", "conditions": [24, 1600, "v", 24000], "internal_node_id": "0.0-114.0", "trial": 3, "time_elapsed": 1013992, "serialpos": 21, "key_press": -1, "wordID": 936, "type": "PRES_VIS", "trial_index": 150}, "uniqueid": "MTK1571:3KB8R4ZV1FE2BVZ7LGLW143423KGBN", "dateTime": 1515984248309}, {"current_trial": 151, "trialdata": {"rt": -1, "trial_type": "single-stim", "word": "salad", "stimulus": "<p id=\"stim\">SALAD</p>", "conditions": [24, 1600, "v", 24000], "internal_node_id": "0.0-115.0", "trial": 3, "time_elapsed": 1016745, "serialpos": 22, "key_press": -1, "wordID": 1223, "type": "PRES_VIS", "trial_index": 151}, "uniqueid": "MTK1571:3KB8R4ZV1FE2BVZ7LGLW143423KGBN", "dateTime": 1515984251062}, {"current_trial": 152, "trialdata": {"rt": -1, "trial_type": "single-stim", "word": "france", "stimulus": "<p id=\"stim\">FRANCE</p>", "conditions": [24, 1600, "v", 24000], "internal_node_id": "0.0-116.0", "trial": 3, "time_elapsed": 1019288, "serialpos": 23, "key_press": -1, "wordID": 600, "type": "PRES_VIS", "trial_index": 152}, "uniqueid": "MTK1571:3KB8R4ZV1FE2BVZ7LGLW143423KGBN", "dateTime": 1515984253605}, {"current_trial": 153, "trialdata": {"rt": -1, "trial_type": "single-stim", "stimulus": "", "internal_node_id": "0.0-117.0-0.0", "time_elapsed": 1021564, "key_press": -1, "type": "PRE_RECALL_DELAY", "trial_index": 153}, "uniqueid": "MTK1571:3KB8R4ZV1FE2BVZ7LGLW143423KGBN", "dateTime": 1515984255882}, {"current_trial": 154, "trialdata": {"rt": -1000, "trial_type": "single-audio", "stimulus": "/static/audio/400Hz.wav", "internal_node_id": "0.0-118.0", "time_elapsed": 1022067, "key_press": -1, "type": "PRE_RECALL_ALERT", "trial_index": 154}, "uniqueid": "MTK1571:3KB8R4ZV1FE2BVZ7LGLW143423KGBN", "dateTime": 1515984256384}, {"current_trial": 155, "trialdata": {"rt": [2724, 5202, 7061, 9176, 16721, 23250, 24550, 41019, 50727, 56928], "recwords": ["london", "france", "waitress", "thief", "shortcake", "teacher", "witness", "shiny", "robber", "pepper"], "key_times": [1243, 1566, 1704, 2073, 2160, 2251, 2724, 3360, 3534, 3620, 3731, 3927, 4004, 5202, 5693, 5803, 5894, 6055, 6404, 6555, 6770, 6948, 7061, 7705, 7811, 7924, 8121, 8290, 9176, 13657, 13757, 14018, 14429, 14581, 14725, 15311, 15422, 15512, 15675, 15748, 16229, 16316, 16389, 16638, 16721, 21840, 21940, 22102, 22262, 22380, 22505, 22610, 23250, 23578, 23655, 23821, 23975, 24075, 24304, 24459, 24550, 39734, 39788, 39911, 40040, 40231, 41019, 48978, 49919, 50186, 50308, 50409, 50509, 50727, 56190, 56309, 56486, 56609, 56692, 56766, 56928], "trial_type": "free-recall", "conditions": [24, 1600, "v", 24000], "internal_node_id": "0.0-119.0-0.0", "key_presses": [76, 79, 78, 68, 79, 78, 13, 70, 82, 65, 78, 67, 69, 13, 87, 65, 73, 84, 82, 69, 83, 83, 13, 84, 72, 73, 69, 70, 13, 67, 85, 80, 8, 8, 8, 83, 72, 79, 82, 84, 67, 65, 75, 69, 13, 84, 69, 65, 67, 72, 69, 82, 13, 87, 73, 84, 78, 69, 83, 83, 13, 83, 72, 73, 78, 89, 13, 82, 79, 66, 66, 69, 82, 13, 80, 69, 80, 80, 69, 82, 13], "trial": 3, "time_elapsed": 1082075, "type": "FREE_RECALL", "trial_index": 155}, "uniqueid": "MTK1571:3KB8R4ZV1FE2BVZ7LGLW143423KGBN", "dateTime": 1515984316398}, {"current_trial": 156, "trialdata": {"rt": 1396, "trial_type": "text", "internal_node_id": "0.0-120.0", "time_elapsed": 1085480, "key_press": 13, "type": "INSTRUCTIONS", "trial_index": 156}, "uniqueid": "MTK1571:3KB8R4ZV1FE2BVZ7LGLW143423KGBN", "dateTime": 1515984319797}, {"current_trial": 157, "trialdata": {"rt": [2075, 4163, 8216], "trial_type": "math-distractor", "key_times": [1602, 1755, 2075, 3710, 3955, 4163, 7039, 7116, 8216], "responses": ["11", "17", "16"], "num2": [1, 7, 6, 2], "num3": [1, 7, 5, 5], "conditions": [12, 800, "v", 12000], "internal_node_id": "0.0-121.0", "key_presses": [97, 97, 13, 97, 103, 13, 97, 102, 13], "trial": 4, "time_elapsed": 1099486, "type": "DISTRACTOR", "trial_index": 157, "num1": [9, 3, 5, 9]}, "uniqueid": "MTK1571:3KB8R4ZV1FE2BVZ7LGLW143423KGBN", "dateTime": 1515984333803}, {"current_trial": 158, "trialdata": {"rt": -1, "trial_type": "single-stim", "stimulus": "<p id=\"stim\">10</p>", "internal_node_id": "0.0-122.0-0.0", "time_elapsed": 1102490, "key_press": -1, "trial_index": 158}, "uniqueid": "MTK1571:3KB8R4ZV1FE2BVZ7LGLW143423KGBN", "dateTime": 1515984336807}, {"current_trial": 159, "trialdata": {"rt": -1, "trial_type": "single-stim", "stimulus": "<p id=\"stim\">9</p>", "internal_node_id": "0.0-122.0-1.0", "time_elapsed": 1103492, "key_press": -1, "trial_index": 159}, "uniqueid": "MTK1571:3KB8R4ZV1FE2BVZ7LGLW143423KGBN", "dateTime": 1515984337809}, {"current_trial": 160, "trialdata": {"rt": -1, "trial_type": "single-stim", "stimulus": "<p id=\"stim\">8</p>", "internal_node_id": "0.0-122.0-2.0", "time_elapsed": 1104495, "key_press": -1, "trial_index": 160}, "uniqueid": "MTK1571:3KB8R4ZV1FE2BVZ7LGLW143423KGBN", "dateTime": 1515984338812}, {"current_trial": 161, "trialdata": {"rt": -1, "trial_type": "single-stim", "stimulus": "<p id=\"stim\">7</p>", "internal_node_id": "0.0-122.0-3.0", "time_elapsed": 1105498, "key_press": -1, "trial_index": 161}, "uniqueid": "MTK1571:3KB8R4ZV1FE2BVZ7LGLW143423KGBN", "dateTime": 1515984339815}, {"current_trial": 162, "trialdata": {"rt": -1, "trial_type": "single-stim", "stimulus": "<p id=\"stim\">6</p>", "internal_node_id": "0.0-122.0-4.0", "time_elapsed": 1106500, "key_press": -1, "trial_index": 162}, "uniqueid": "MTK1571:3KB8R4ZV1FE2BVZ7LGLW143423KGBN", "dateTime": 1515984340818}, {"current_trial": 163, "trialdata": {"rt": -1, "trial_type": "single-stim", "stimulus": "<p id=\"stim\">5</p>", "internal_node_id": "0.0-122.0-5.0", "time_elapsed": 1107503, "key_press": -1, "trial_index": 163}, "uniqueid": "MTK1571:3KB8R4ZV1FE2BVZ7LGLW143423KGBN", "dateTime": 1515984341820}, {"current_trial": 164, "trialdata": {"rt": -1, "trial_type": "single-stim", "stimulus": "<p id=\"stim\">4</p>", "internal_node_id": "0.0-122.0-6.0", "time_elapsed": 1108505, "key_press": -1, "trial_index": 164}, "uniqueid": "MTK1571:3KB8R4ZV1FE2BVZ7LGLW143423KGBN", "dateTime": 1515984342822}, {"current_trial": 165, "trialdata": {"rt": -1, "trial_type": "single-stim", "stimulus": "<p id=\"stim\">3</p>", "internal_node_id": "0.0-122.0-7.0", "time_elapsed": 1109507, "key_press": -1, "trial_index": 165}, "uniqueid": "MTK1571:3KB8R4ZV1FE2BVZ7LGLW143423KGBN", "dateTime": 1515984343824}, {"current_trial": 166, "trialdata": {"rt": -1, "trial_type": "single-stim", "stimulus": "<p id=\"stim\">2</p>", "internal_node_id": "0.0-122.0-8.0", "time_elapsed": 1110508, "key_press": -1, "trial_index": 166}, "uniqueid": "MTK1571:3KB8R4ZV1FE2BVZ7LGLW143423KGBN", "dateTime": 1515984344826}, {"current_trial": 167, "trialdata": {"rt": -1, "trial_type": "single-stim", "stimulus": "<p id=\"stim\">1</p>", "internal_node_id": "0.0-122.0-9.0", "time_elapsed": 1111510, "key_press": -1, "trial_index": 167}, "uniqueid": "MTK1571:3KB8R4ZV1FE2BVZ7LGLW143423KGBN", "dateTime": 1515984345827}, {"current_trial": 168, "trialdata": {"rt": -1, "trial_type": "single-stim", "stimulus": "<p id=\"stim\">+</p>", "internal_node_id": "0.0-123.0-0.0", "time_elapsed": 1113013, "key_press": -1, "type": "FIXATION", "trial_index": 168}, "uniqueid": "MTK1571:3KB8R4ZV1FE2BVZ7LGLW143423KGBN", "dateTime": 1515984347330}, {"current_trial": 169, "trialdata": {"rt": -1, "trial_type": "single-stim", "word": "victim", "stimulus": "<p id=\"stim\">VICTIM</p>", "conditions": [12, 800, "v", 12000], "internal_node_id": "0.0-124.0", "trial": 4, "time_elapsed": 1113814, "serialpos": 0, "key_press": -1, "wordID": 1561, "type": "PRES_VIS", "trial_index": 169}, "uniqueid": "MTK1571:3KB8R4ZV1FE2BVZ7LGLW143423KGBN", "dateTime": 1515984348132}, {"current_trial": 170, "trialdata": {"rt": -1, "trial_type": "single-stim", "word": "lizard", "stimulus": "<p id=\"stim\">LIZARD</p>", "conditions": [12, 800, "v", 12000], "internal_node_id": "0.0-125.0", "trial": 4, "time_elapsed": 1115479, "serialpos": 1, "key_press": -1, "wordID": 833, "type": "PRES_VIS", "trial_index": 170}, "uniqueid": "MTK1571:3KB8R4ZV1FE2BVZ7LGLW143423KGBN", "dateTime": 1515984349796}, {"current_trial": 171, "trialdata": {"rt": -1, "trial_type": "single-stim", "word": "scissors", "stimulus": "<p id=\"stim\">SCISSORS</p>", "conditions": [12, 800, "v", 12000], "internal_node_id": "0.0-126.0", "trial": 4, "time_elapsed": 1117125, "serialpos": 2, "key_press": -1, "wordID": 1249, "type": "PRES_VIS", "trial_index": 171}, "uniqueid": "MTK1571:3KB8R4ZV1FE2BVZ7LGLW143423KGBN", "dateTime": 1515984351443}, {"current_trial": 172, "trialdata": {"rt": -1, "trial_type": "single-stim", "word": "tweezers", "stimulus": "<p id=\"stim\">TWEEZERS</p>", "conditions": [12, 800, "v", 12000], "internal_node_id": "0.0-127.0", "trial": 4, "time_elapsed": 1118936, "serialpos": 3, "key_press": -1, "wordID": 1525, "type": "PRES_VIS", "trial_index": 172}, "uniqueid": "MTK1571:3KB8R4ZV1FE2BVZ7LGLW143423KGBN", "dateTime": 1515984353253}, {"current_trial": 173, "trialdata": {"rt": -1, "trial_type": "single-stim", "word": "slope", "stimulus": "<p id=\"stim\">SLOPE</p>", "conditions": [12, 800, "v", 12000], "internal_node_id": "0.0-128.0", "trial": 4, "time_elapsed": 1120935, "serialpos": 4, "key_press": -1, "wordID": 1327, "type": "PRES_VIS", "trial_index": 173}, "uniqueid": "MTK1571:3KB8R4ZV1FE2BVZ7LGLW143423KGBN", "dateTime": 1515984355252}, {"current_trial": 174, "trialdata": {"rt": -1, "trial_type": "single-stim", "word": "fungus", "stimulus": "<p id=\"stim\">FUNGUS</p>", "conditions": [12, 800, "v", 12000], "internal_node_id": "0.0-129.0", "trial": 4, "time_elapsed": 1122643, "serialpos": 5, "key_press": -1, "wordID": 613, "type": "PRES_VIS", "trial_index": 174}, "uniqueid": "MTK1571:3KB8R4ZV1FE2BVZ7LGLW143423KGBN", "dateTime": 1515984356960}, {"current_trial": 175, "trialdata": {"rt": -1, "trial_type": "single-stim", "word": "ozone", "stimulus": "<p id=\"stim\">OZONE</p>", "conditions": [12, 800, "v", 12000], "internal_node_id": "0.0-130.0", "trial": 4, "time_elapsed": 1124341, "serialpos": 6, "key_press": -1, "wordID": 995, "type": "PRES_VIS", "trial_index": 175}, "uniqueid": "MTK1571:3KB8R4ZV1FE2BVZ7LGLW143423KGBN", "dateTime": 1515984358659}, {"current_trial": 176, "trialdata": {"rt": -1, "trial_type": "single-stim", "word": "stamp", "stimulus": "<p id=\"stim\">STAMP</p>", "conditions": [12, 800, "v", 12000], "internal_node_id": "0.0-131.0", "trial": 4, "time_elapsed": 1125952, "serialpos": 7, "key_press": -1, "wordID": 1369, "type": "PRES_VIS", "trial_index": 176}, "uniqueid": "MTK1571:3KB8R4ZV1FE2BVZ7LGLW143423KGBN", "dateTime": 1515984360269}, {"current_trial": 177, "trialdata": {"rt": -1, "trial_type": "single-stim", "word": "partner", "stimulus": "<p id=\"stim\">PARTNER</p>", "conditions": [12, 800, "v", 12000], "internal_node_id": "0.0-132.0", "trial": 4, "time_elapsed": 1127780, "serialpos": 8, "key_press": -1, "wordID": 1016, "type": "PRES_VIS", "trial_index": 177}, "uniqueid": "MTK1571:3KB8R4ZV1FE2BVZ7LGLW143423KGBN", "dateTime": 1515984362097}, {"current_trial": 178, "trialdata": {"rt": -1, "trial_type": "single-stim", "word": "dustpan", "stimulus": "<p id=\"stim\">DUSTPAN</p>", "conditions": [12, 800, "v", 12000], "internal_node_id": "0.0-133.0", "trial": 4, "time_elapsed": 1129522, "serialpos": 9, "key_press": -1, "wordID": 508, "type": "PRES_VIS", "trial_index": 178}, "uniqueid": "MTK1571:3KB8R4ZV1FE2BVZ7LGLW143423KGBN", "dateTime": 1515984363839}, {"current_trial": 179, "trialdata": {"rt": -1, "trial_type": "single-stim", "word": "snail", "stimulus": "<p id=\"stim\">SNAIL</p>", "conditions": [12, 800, "v", 12000], "internal_node_id": "0.0-134.0", "trial": 4, "time_elapsed": 1131205, "serialpos": 10, "key_press": -1, "wordID": 1331, "type": "PRES_VIS", "trial_index": 179}, "uniqueid": "MTK1571:3KB8R4ZV1FE2BVZ7LGLW143423KGBN", "dateTime": 1515984365523}, {"current_trial": 180, "trialdata": {"rt": -1, "trial_type": "single-stim", "word": "ground", "stimulus": "<p id=\"stim\">GROUND</p>", "conditions": [12, 800, "v", 12000], "internal_node_id": "0.0-135.0", "trial": 4, "time_elapsed": 1133135, "serialpos": 11, "key_press": -1, "wordID": 665, "type": "PRES_VIS", "trial_index": 180}, "uniqueid": "MTK1571:3KB8R4ZV1FE2BVZ7LGLW143423KGBN", "dateTime": 1515984367452}, {"current_trial": 181, "trialdata": {"rt": -1, "trial_type": "single-stim", "stimulus": "", "internal_node_id": "0.0-136.0-0.0", "time_elapsed": 1135526, "key_press": -1, "type": "PRE_RECALL_DELAY", "trial_index": 181}, "uniqueid": "MTK1571:3KB8R4ZV1FE2BVZ7LGLW143423KGBN", "dateTime": 1515984369844}, {"current_trial": 182, "trialdata": {"rt": -1000, "trial_type": "single-audio", "stimulus": "/static/audio/400Hz.wav", "internal_node_id": "0.0-137.0", "time_elapsed": 1136029, "key_press": -1, "type": "PRE_RECALL_ALERT", "trial_index": 182}, "uniqueid": "MTK1571:3KB8R4ZV1FE2BVZ7LGLW143423KGBN", "dateTime": 1515984370346}, {"current_trial": 183, "trialdata": {"rt": [1592, 3072, 5252, 19482], "recwords": ["snail", "ground", "tweezers", "vinegar"], "key_times": [907, 1006, 1138, 1166, 1288, 1592, 2079, 2257, 2394, 2466, 2566, 2856, 3072, 3495, 3686, 3878, 4010, 4541, 4796, 4866, 5076, 5252, 17819, 17880, 17972, 18145, 18552, 18643, 18848, 19034, 19125, 19482], "trial_type": "free-recall", "conditions": [12, 800, "v", 12000], "internal_node_id": "0.0-138.0-0.0", "key_presses": [83, 78, 65, 73, 76, 13, 71, 82, 79, 85, 78, 68, 13, 84, 87, 69, 69, 90, 69, 82, 83, 13, 86, 73, 78, 71, 8, 69, 71, 65, 82, 13], "trial": 4, "time_elapsed": 1196035, "type": "FREE_RECALL", "trial_index": 183}, "uniqueid": "MTK1571:3KB8R4ZV1FE2BVZ7LGLW143423KGBN", "dateTime": 1515984430359}, {"current_trial": 184, "trialdata": {"rt": 1560, "trial_type": "text", "internal_node_id": "0.0-139.0", "time_elapsed": 1199605, "key_press": 13, "type": "INSTRUCTIONS", "trial_index": 184}, "uniqueid": "MTK1571:3KB8R4ZV1FE2BVZ7LGLW143423KGBN", "dateTime": 1515984433922}, {"current_trial": 185, "trialdata": {"rt": [2227, 4949, 10012], "trial_type": "math-distractor", "key_times": [1838, 2227, 4601, 4688, 4949, 9591, 9650, 10012], "responses": ["7", "15", "21"], "num2": [2, 7, 9, 6], "num3": [4, 6, 4, 4], "conditions": [24, 1600, "v", 12000], "internal_node_id": "0.0-140.0", "key_presses": [103, 13, 97, 101, 13, 98, 97, 13], "trial": 5, "time_elapsed": 1213612, "type": "DISTRACTOR", "trial_index": 185, "num1": [1, 2, 8, 5]}, "uniqueid": "MTK1571:3KB8R4ZV1FE2BVZ7LGLW143423KGBN", "dateTime": 1515984447929}, {"current_trial": 186, "trialdata": {"rt": -1, "trial_type": "single-stim", "stimulus": "<p id=\"stim\">10</p>", "internal_node_id": "0.0-141.0-0.0", "time_elapsed": 1216615, "key_press": -1, "trial_index": 186}, "uniqueid": "MTK1571:3KB8R4ZV1FE2BVZ7LGLW143423KGBN", "dateTime": 1515984450932}, {"current_trial": 187, "trialdata": {"rt": -1, "trial_type": "single-stim", "stimulus": "<p id=\"stim\">9</p>", "internal_node_id": "0.0-141.0-1.0", "time_elapsed": 1217617, "key_press": -1, "trial_index": 187}, "uniqueid": "MTK1571:3KB8R4ZV1FE2BVZ7LGLW143423KGBN", "dateTime": 1515984451934}, {"current_trial": 188, "trialdata": {"rt": -1, "trial_type": "single-stim", "stimulus": "<p id=\"stim\">8</p>", "internal_node_id": "0.0-141.0-2.0", "time_elapsed": 1218620, "key_press": -1, "trial_index": 188}, "uniqueid": "MTK1571:3KB8R4ZV1FE2BVZ7LGLW143423KGBN", "dateTime": 1515984452937}, {"current_trial": 189, "trialdata": {"rt": -1, "trial_type": "single-stim", "stimulus": "<p id=\"stim\">7</p>", "internal_node_id": "0.0-141.0-3.0", "time_elapsed": 1219622, "key_press": -1, "trial_index": 189}, "uniqueid": "MTK1571:3KB8R4ZV1FE2BVZ7LGLW143423KGBN", "dateTime": 1515984453939}, {"current_trial": 190, "trialdata": {"rt": -1, "trial_type": "single-stim", "stimulus": "<p id=\"stim\">6</p>", "internal_node_id": "0.0-141.0-4.0", "time_elapsed": 1220625, "key_press": -1, "trial_index": 190}, "uniqueid": "MTK1571:3KB8R4ZV1FE2BVZ7LGLW143423KGBN", "dateTime": 1515984454942}, {"current_trial": 191, "trialdata": {"rt": -1, "trial_type": "single-stim", "stimulus": "<p id=\"stim\">5</p>", "internal_node_id": "0.0-141.0-5.0", "time_elapsed": 1221627, "key_press": -1, "trial_index": 191}, "uniqueid": "MTK1571:3KB8R4ZV1FE2BVZ7LGLW143423KGBN", "dateTime": 1515984455944}, {"current_trial": 192, "trialdata": {"rt": -1, "trial_type": "single-stim", "stimulus": "<p id=\"stim\">4</p>", "internal_node_id": "0.0-141.0-6.0", "time_elapsed": 1222630, "key_press": -1, "trial_index": 192}, "uniqueid": "MTK1571:3KB8R4ZV1FE2BVZ7LGLW143423KGBN", "dateTime": 1515984456947}, {"current_trial": 193, "trialdata": {"rt": -1, "trial_type": "single-stim", "stimulus": "<p id=\"stim\">3</p>", "internal_node_id": "0.0-141.0-7.0", "time_elapsed": 1223631, "key_press": -1, "trial_index": 193}, "uniqueid": "MTK1571:3KB8R4ZV1FE2BVZ7LGLW143423KGBN", "dateTime": 1515984457949}, {"current_trial": 194, "trialdata": {"rt": -1, "trial_type": "single-stim", "stimulus": "<p id=\"stim\">2</p>", "internal_node_id": "0.0-141.0-8.0", "time_elapsed": 1224634, "key_press": -1, "trial_index": 194}, "uniqueid": "MTK1571:3KB8R4ZV1FE2BVZ7LGLW143423KGBN", "dateTime": 1515984458954}, {"current_trial": 195, "trialdata": {"rt": -1, "trial_type": "single-stim", "stimulus": "<p id=\"stim\">1</p>", "internal_node_id": "0.0-141.0-9.0", "time_elapsed": 1225640, "key_press": -1, "trial_index": 195}, "uniqueid": "MTK1571:3KB8R4ZV1FE2BVZ7LGLW143423KGBN", "dateTime": 1515984459957}, {"current_trial": 196, "trialdata": {"rt": -1, "trial_type": "single-stim", "stimulus": "<p id=\"stim\">+</p>", "internal_node_id": "0.0-142.0-0.0", "time_elapsed": 1227143, "key_press": -1, "type": "FIXATION", "trial_index": 196}, "uniqueid": "MTK1571:3KB8R4ZV1FE2BVZ7LGLW143423KGBN", "dateTime": 1515984461460}, {"current_trial": 197, "trialdata": {"rt": -1, "trial_type": "single-stim", "word": "headband", "stimulus": "<p id=\"stim\">HEADBAND</p>", "conditions": [24, 1600, "v", 12000], "internal_node_id": "0.0-143.0", "trial": 5, "time_elapsed": 1228745, "serialpos": 0, "key_press": -1, "wordID": 695, "type": "PRES_VIS", "trial_index": 197}, "uniqueid": "MTK1571:3KB8R4ZV1FE2BVZ7LGLW143423KGBN", "dateTime": 1515984463062}, {"current_trial": 198, "trialdata": {"rt": -1, "trial_type": "single-stim", "word": "possum", "stimulus": "<p id=\"stim\">POSSUM</p>", "conditions": [24, 1600, "v", 12000], "internal_node_id": "0.0-144.0", "trial": 5, "time_elapsed": 1231304, "serialpos": 1, "key_press": -1, "wordID": 1111, "type": "PRES_VIS", "trial_index": 198}, "uniqueid": "MTK1571:3KB8R4ZV1FE2BVZ7LGLW143423KGBN", "dateTime": 1515984465622}, {"current_trial": 199, "trialdata": {"rt": -1, "trial_type": "single-stim", "word": "marine", "stimulus": "<p id=\"stim\">MARINE</p>", "conditions": [24, 1600, "v", 12000], "internal_node_id": "0.0-145.0", "trial": 5, "time_elapsed": 1234048, "serialpos": 2, "key_press": -1, "wordID": 868, "type": "PRES_VIS", "trial_index": 199}, "uniqueid": "MTK1571:3KB8R4ZV1FE2BVZ7LGLW143423KGBN", "dateTime": 1515984468366}, {"current_trial": 200, "trialdata": {"rt": -1, "trial_type": "single-stim", "word": "shark", "stimulus": "<p id=\"stim\">SHARK</p>", "conditions": [24, 1600, "v", 12000], "internal_node_id": "0.0-146.0", "trial": 5, "time_elapsed": 1236675, "serialpos": 3, "key_press": -1, "wordID": 1274, "type": "PRES_VIS", "trial_index": 200}, "uniqueid": "MTK1571:3KB8R4ZV1FE2BVZ7LGLW143423KGBN", "dateTime": 1515984470992}, {"current_trial": 201, "trialdata": {"rt": -1, "trial_type": "single-stim", "word": "belly", "stimulus": "<p id=\"stim\">BELLY</p>", "conditions": [24, 1600, "v", 12000], "internal_node_id": "0.0-147.0", "trial": 5, "time_elapsed": 1239289, "serialpos": 4, "key_press": -1, "wordID": 118, "type": "PRES_VIS", "trial_index": 201}, "uniqueid": "MTK1571:3KB8R4ZV1FE2BVZ7LGLW143423KGBN", "dateTime": 1515984473607}, {"current_trial": 202, "trialdata": {"rt": -1, "trial_type": "single-stim", "word": "wasp", "stimulus": "<p id=\"stim\">WASP</p>", "conditions": [24, 1600, "v", 12000], "internal_node_id": "0.0-148.0", "trial": 5, "time_elapsed": 1241968, "serialpos": 5, "key_press": -1, "wordID": 1592, "type": "PRES_VIS", "trial_index": 202}, "uniqueid": "MTK1571:3KB8R4ZV1FE2BVZ7LGLW143423KGBN", "dateTime": 1515984476285}, {"current_trial": 203, "trialdata": {"rt": -1, "trial_type": "single-stim", "word": "turtle", "stimulus": "<p id=\"stim\">TURTLE</p>", "conditions": [24, 1600, "v", 12000], "internal_node_id": "0.0-149.0", "trial": 5, "time_elapsed": 1244661, "serialpos": 6, "key_press": -1, "wordID": 1521, "type": "PRES_VIS", "trial_index": 203}, "uniqueid": "MTK1571:3KB8R4ZV1FE2BVZ7LGLW143423KGBN", "dateTime": 1515984478978}, {"current_trial": 204, "trialdata": {"rt": -1, "trial_type": "single-stim", "word": "skirt", "stimulus": "<p id=\"stim\">SKIRT</p>", "conditions": [24, 1600, "v", 12000], "internal_node_id": "0.0-150.0", "trial": 5, "time_elapsed": 1247262, "serialpos": 7, "key_press": -1, "wordID": 1318, "type": "PRES_VIS", "trial_index": 204}, "uniqueid": "MTK1571:3KB8R4ZV1FE2BVZ7LGLW143423KGBN", "dateTime": 1515984481580}, {"current_trial": 205, "trialdata": {"rt": -1, "trial_type": "single-stim", "word": "panther", "stimulus": "<p id=\"stim\">PANTHER</p>", "conditions": [24, 1600, "v", 12000], "internal_node_id": "0.0-151.0", "trial": 5, "time_elapsed": 1249989, "serialpos": 8, "key_press": -1, "wordID": 1008, "type": "PRES_VIS", "trial_index": 205}, "uniqueid": "MTK1571:3KB8R4ZV1FE2BVZ7LGLW143423KGBN", "dateTime": 1515984484307}, {"current_trial": 206, "trialdata": {"rt": -1, "trial_type": "single-stim", "word": "passage", "stimulus": "<p id=\"stim\">PASSAGE</p>", "conditions": [24, 1600, "v", 12000], "internal_node_id": "0.0-152.0", "trial": 5, "time_elapsed": 1252614, "serialpos": 9, "key_press": -1, "wordID": 1018, "type": "PRES_VIS", "trial_index": 206}, "uniqueid": "MTK1571:3KB8R4ZV1FE2BVZ7LGLW143423KGBN", "dateTime": 1515984486931}, {"current_trial": 207, "trialdata": {"rt": -1, "trial_type": "single-stim", "word": "judge", "stimulus": "<p id=\"stim\">JUDGE</p>", "conditions": [24, 1600, "v", 12000], "internal_node_id": "0.0-153.0", "trial": 5, "time_elapsed": 1255321, "serialpos": 10, "key_press": -1, "wordID": 760, "type": "PRES_VIS", "trial_index": 207}, "uniqueid": "MTK1571:3KB8R4ZV1FE2BVZ7LGLW143423KGBN", "dateTime": 1515984489638}, {"current_trial": 208, "trialdata": {"rt": -1, "trial_type": "single-stim", "word": "jury", "stimulus": "<p id=\"stim\">JURY</p>", "conditions": [24, 1600, "v", 12000], "internal_node_id": "0.0-154.0", "trial": 5, "time_elapsed": 1258027, "serialpos": 11, "key_press": -1, "wordID": 765, "type": "PRES_VIS", "trial_index": 208}, "uniqueid": "MTK1571:3KB8R4ZV1FE2BVZ7LGLW143423KGBN", "dateTime": 1515984492344}, {"current_trial": 209, "trialdata": {"rt": -1, "trial_type": "single-stim", "word": "climber", "stimulus": "<p id=\"stim\">CLIMBER</p>", "conditions": [24, 1600, "v", 12000], "internal_node_id": "0.0-155.0", "trial": 5, "time_elapsed": 1260588, "serialpos": 12, "key_press": -1, "wordID": 322, "type": "PRES_VIS", "trial_index": 209}, "uniqueid": "MTK1571:3KB8R4ZV1FE2BVZ7LGLW143423KGBN", "dateTime": 1515984494906}, {"current_trial": 210, "trialdata": {"rt": -1, "trial_type": "single-stim", "word": "space", "stimulus": "<p id=\"stim\">SPACE</p>", "conditions": [24, 1600, "v", 12000], "internal_node_id": "0.0-156.0", "trial": 5, "time_elapsed": 1263350, "serialpos": 13, "key_press": -1, "wordID": 1344, "type": "PRES_VIS", "trial_index": 210}, "uniqueid": "MTK1571:3KB8R4ZV1FE2BVZ7LGLW143423KGBN", "dateTime": 1515984497667}, {"current_trial": 211, "trialdata": {"rt": -1, "trial_type": "single-stim", "word": "supper", "stimulus": "<p id=\"stim\">SUPPER</p>", "conditions": [24, 1600, "v", 12000], "internal_node_id": "0.0-157.0", "trial": 5, "time_elapsed": 1266132, "serialpos": 14, "key_press": -1, "wordID": 1410, "type": "PRES_VIS", "trial_index": 211}, "uniqueid": "MTK1571:3KB8R4ZV1FE2BVZ7LGLW143423KGBN", "dateTime": 1515984500449}, {"current_trial": 212, "trialdata": {"rt": -1, "trial_type": "single-stim", "word": "rattle", "stimulus": "<p id=\"stim\">RATTLE</p>", "conditions": [24, 1600, "v", 12000], "internal_node_id": "0.0-158.0", "trial": 5, "time_elapsed": 1268764, "serialpos": 15, "key_press": -1, "wordID": 1169, "type": "PRES_VIS", "trial_index": 212}, "uniqueid": "MTK1571:3KB8R4ZV1FE2BVZ7LGLW143423KGBN", "dateTime": 1515984503081}, {"current_trial": 213, "trialdata": {"rt": -1, "trial_type": "single-stim", "word": "tribe", "stimulus": "<p id=\"stim\">TRIBE</p>", "conditions": [24, 1600, "v", 12000], "internal_node_id": "0.0-159.0", "trial": 5, "time_elapsed": 1271512, "serialpos": 16, "key_press": -1, "wordID": 1504, "type": "PRES_VIS", "trial_index": 213}, "uniqueid": "MTK1571:3KB8R4ZV1FE2BVZ7LGLW143423KGBN", "dateTime": 1515984505829}, {"current_trial": 214, "trialdata": {"rt": -1, "trial_type": "single-stim", "word": "banquet", "stimulus": "<p id=\"stim\">BANQUET</p>", "conditions": [24, 1600, "v", 12000], "internal_node_id": "0.0-160.0", "trial": 5, "time_elapsed": 1274205, "serialpos": 17, "key_press": -1, "wordID": 85, "type": "PRES_VIS", "trial_index": 214}, "uniqueid": "MTK1571:3KB8R4ZV1FE2BVZ7LGLW143423KGBN", "dateTime": 1515984508522}, {"current_trial": 215, "trialdata": {"rt": -1, "trial_type": "single-stim", "word": "server", "stimulus": "<p id=\"stim\">SERVER</p>", "conditions": [24, 1600, "v", 12000], "internal_node_id": "0.0-161.0", "trial": 5, "time_elapsed": 1276777, "serialpos": 18, "key_press": -1, "wordID": 1271, "type": "PRES_VIS", "trial_index": 215}, "uniqueid": "MTK1571:3KB8R4ZV1FE2BVZ7LGLW143423KGBN", "dateTime": 1515984511094}, {"current_trial": 216, "trialdata": {"rt": -1, "trial_type": "single-stim", "word": "pecan", "stimulus": "<p id=\"stim\">PECAN</p>", "conditions": [24, 1600, "v", 12000], "internal_node_id": "0.0-162.0", "trial": 5, "time_elapsed": 1279425, "serialpos": 19, "key_press": -1, "wordID": 1035, "type": "PRES_VIS", "trial_index": 216}, "uniqueid": "MTK1571:3KB8R4ZV1FE2BVZ7LGLW143423KGBN", "dateTime": 1515984513742}, {"current_trial": 217, "trialdata": {"rt": -1, "trial_type": "single-stim", "word": "diver", "stimulus": "<p id=\"stim\">DIVER</p>", "conditions": [24, 1600, "v", 12000], "internal_node_id": "0.0-163.0", "trial": 5, "time_elapsed": 1281912, "serialpos": 20, "key_press": -1, "wordID": 475, "type": "PRES_VIS", "trial_index": 217}, "uniqueid": "MTK1571:3KB8R4ZV1FE2BVZ7LGLW143423KGBN", "dateTime": 1515984516229}, {"current_trial": 218, "trialdata": {"rt": -1, "trial_type": "single-stim", "word": "hiker", "stimulus": "<p id=\"stim\">HIKER</p>", "conditions": [24, 1600, "v", 12000], "internal_node_id": "0.0-164.0", "trial": 5, "time_elapsed": 1284530, "serialpos": 21, "key_press": -1, "wordID": 707, "type": "PRES_VIS", "trial_index": 218}, "uniqueid": "MTK1571:3KB8R4ZV1FE2BVZ7LGLW143423KGBN", "dateTime": 1515984518848}, {"current_trial": 219, "trialdata": {"rt": -1, "trial_type": "single-stim", "word": "sandwich", "stimulus": "<p id=\"stim\">SANDWICH</p>", "conditions": [24, 1600, "v", 12000], "internal_node_id": "0.0-165.0", "trial": 5, "time_elapsed": 1287144, "serialpos": 22, "key_press": -1, "wordID": 1231, "type": "PRES_VIS", "trial_index": 219}, "uniqueid": "MTK1571:3KB8R4ZV1FE2BVZ7LGLW143423KGBN", "dateTime": 1515984521461}, {"current_trial": 220, "trialdata": {"rt": -1, "trial_type": "single-stim", "word": "snack", "stimulus": "<p id=\"stim\">SNACK</p>", "conditions": [24, 1600, "v", 12000], "internal_node_id": "0.0-166.0", "trial": 5, "time_elapsed": 1289616, "serialpos": 23, "key_press": -1, "wordID": 1330, "type": "PRES_VIS", "trial_index": 220}, "uniqueid": "MTK1571:3KB8R4ZV1FE2BVZ7LGLW143423KGBN", "dateTime": 1515984523935}, {"current_trial": 221, "trialdata": {"rt": -1, "trial_type": "single-stim", "stimulus": "", "internal_node_id": "0.0-167.0-0.0", "time_elapsed": 1291871, "key_press": -1, "type": "PRE_RECALL_DELAY", "trial_index": 221}, "uniqueid": "MTK1571:3KB8R4ZV1FE2BVZ7LGLW143423KGBN", "dateTime": 1515984526188}, {"current_trial": 222, "trialdata": {"rt": -1000, "trial_type": "single-audio", "stimulus": "/static/audio/400Hz.wav", "internal_node_id": "0.0-168.0", "time_elapsed": 1292374, "key_press": -1, "type": "PRE_RECALL_ALERT", "trial_index": 222}, "uniqueid": "MTK1571:3KB8R4ZV1FE2BVZ7LGLW143423KGBN", "dateTime": 1515984526691}, {"current_trial": 223, "trialdata": {"rt": [1409, 2603, 5173, 6284, 8182, 9784, 12376, 39263], "recwords": ["diver", "hiker", "climber", "snack", "sandwich", "server", "banquet", "turtle"], "key_times": [746, 836, 959, 1145, 1219, 1409, 1987, 2071, 2255, 2360, 2468, 2603, 2811, 2969, 3201, 3500, 3987, 4536, 4798, 4917, 5022, 5173, 5443, 5511, 5659, 5851, 5950, 6284, 6669, 6751, 6862, 6999, 7419, 7519, 7819, 7911, 8182, 8478, 8582, 8752, 9150, 9357, 9435, 9784, 10985, 11058, 11189, 11488, 11620, 11870, 12155, 12376, 37564, 37655, 38016, 38232, 38328, 38420, 39263], "trial_type": "free-recall", "conditions": [24, 1600, "v", 12000], "internal_node_id": "0.0-169.0-0.0", "key_presses": [68, 73, 86, 69, 82, 13, 72, 73, 75, 69, 82, 13, 67, 76, 73, 77, 78, 8, 66, 69, 82, 13, 83, 78, 65, 67, 75, 13, 83, 65, 78, 68, 87, 73, 67, 72, 13, 83, 69, 82, 86, 69, 82, 13, 66, 65, 78, 81, 85, 69, 84, 13, 84, 85, 82, 84, 76, 69, 13], "trial": 5, "time_elapsed": 1352381, "type": "FREE_RECALL", "trial_index": 223}, "uniqueid": "MTK1571:3KB8R4ZV1FE2BVZ7LGLW143423KGBN", "dateTime": 1515984586706}, {"current_trial": 224, "trialdata": {"rt": 1286, "trial_type": "text", "internal_node_id": "0.0-170.0", "time_elapsed": 1355677, "key_press": 13, "type": "INSTRUCTIONS", "trial_index": 224}, "uniqueid": "MTK1571:3KB8R4ZV1FE2BVZ7LGLW143423KGBN", "dateTime": 1515984589994}, {"current_trial": 225, "trialdata": {"rt": [3362, 6120, 11333, 13698, 17040, 19394, 22074], "trial_type": "math-distractor", "key_times": [2992, 3160, 3362, 5356, 5559, 6120, 9389, 10175, 10626, 10694, 11333, 13340, 13437, 13698, 16688, 16755, 17040, 18981, 19169, 19394, 21710, 21815, 22074, 23809, 23883], "responses": ["14", "15", "21", "15", "13", "10", "13"], "num2": [9, 6, 8, 7, 5, 7, 9, 7], "num3": [2, 5, 4, 6, 7, 2, 2, 2], "conditions": [24, 800, "v", 24000], "internal_node_id": "0.0-171.0", "key_presses": [97, 100, 13, 97, 101, 13, 101, 8, 98, 97, 13, 97, 101, 13, 97, 99, 13, 97, 96, 13, 97, 99, 13, 97, 101], "trial": 6, "time_elapsed": 1381684, "type": "DISTRACTOR", "trial_index": 225, "num1": [3, 4, 9, 2, 1, 1, 2, 6]}, "uniqueid": "MTK1571:3KB8R4ZV1FE2BVZ7LGLW143423KGBN", "dateTime": 1515984616001}, {"current_trial": 226, "trialdata": {"rt": -1, "trial_type": "single-stim", "stimulus": "<p id=\"stim\">10</p>", "internal_node_id": "0.0-172.0-0.0", "time_elapsed": 1384688, "key_press": -1, "trial_index": 226}, "uniqueid": "MTK1571:3KB8R4ZV1FE2BVZ7LGLW143423KGBN", "dateTime": 1515984619006}, {"current_trial": 227, "trialdata": {"rt": -1, "trial_type": "single-stim", "stimulus": "<p id=\"stim\">9</p>", "internal_node_id": "0.0-172.0-1.0", "time_elapsed": 1385692, "key_press": -1, "trial_index": 227}, "uniqueid": "MTK1571:3KB8R4ZV1FE2BVZ7LGLW143423KGBN", "dateTime": 1515984620009}, {"current_trial": 228, "trialdata": {"rt": -1, "trial_type": "single-stim", "stimulus": "<p id=\"stim\">8</p>", "internal_node_id": "0.0-172.0-2.0", "time_elapsed": 1386695, "key_press": -1, "trial_index": 228}, "uniqueid": "MTK1571:3KB8R4ZV1FE2BVZ7LGLW143423KGBN", "dateTime": 1515984621012}, {"current_trial": 229, "trialdata": {"rt": -1, "trial_type": "single-stim", "stimulus": "<p id=\"stim\">7</p>", "internal_node_id": "0.0-172.0-3.0", "time_elapsed": 1387698, "key_press": -1, "trial_index": 229}, "uniqueid": "MTK1571:3KB8R4ZV1FE2BVZ7LGLW143423KGBN", "dateTime": 1515984622015}, {"current_trial": 230, "trialdata": {"rt": -1, "trial_type": "single-stim", "stimulus": "<p id=\"stim\">6</p>", "internal_node_id": "0.0-172.0-4.0", "time_elapsed": 1388700, "key_press": -1, "trial_index": 230}, "uniqueid": "MTK1571:3KB8R4ZV1FE2BVZ7LGLW143423KGBN", "dateTime": 1515984623018}, {"current_trial": 231, "trialdata": {"rt": -1, "trial_type": "single-stim", "stimulus": "<p id=\"stim\">5</p>", "internal_node_id": "0.0-172.0-5.0", "time_elapsed": 1389704, "key_press": -1, "trial_index": 231}, "uniqueid": "MTK1571:3KB8R4ZV1FE2BVZ7LGLW143423KGBN", "dateTime": 1515984624021}, {"current_trial": 232, "trialdata": {"rt": -1, "trial_type": "single-stim", "stimulus": "<p id=\"stim\">4</p>", "internal_node_id": "0.0-172.0-6.0", "time_elapsed": 1390706, "key_press": -1, "trial_index": 232}, "uniqueid": "MTK1571:3KB8R4ZV1FE2BVZ7LGLW143423KGBN", "dateTime": 1515984625023}, {"current_trial": 233, "trialdata": {"rt": -1, "trial_type": "single-stim", "stimulus": "<p id=\"stim\">3</p>", "internal_node_id": "0.0-172.0-7.0", "time_elapsed": 1391708, "key_press": -1, "trial_index": 233}, "uniqueid": "MTK1571:3KB8R4ZV1FE2BVZ7LGLW143423KGBN", "dateTime": 1515984626026}, {"current_trial": 234, "trialdata": {"rt": -1, "trial_type": "single-stim", "stimulus": "<p id=\"stim\">2</p>", "internal_node_id": "0.0-172.0-8.0", "time_elapsed": 1392711, "key_press": -1, "trial_index": 234}, "uniqueid": "MTK1571:3KB8R4ZV1FE2BVZ7LGLW143423KGBN", "dateTime": 1515984627028}, {"current_trial": 235, "trialdata": {"rt": -1, "trial_type": "single-stim", "stimulus": "<p id=\"stim\">1</p>", "internal_node_id": "0.0-172.0-9.0", "time_elapsed": 1393714, "key_press": -1, "trial_index": 235}, "uniqueid": "MTK1571:3KB8R4ZV1FE2BVZ7LGLW143423KGBN", "dateTime": 1515984628031}, {"current_trial": 236, "trialdata": {"rt": -1, "trial_type": "single-stim", "stimulus": "<p id=\"stim\">+</p>", "internal_node_id": "0.0-173.0-0.0", "time_elapsed": 1395216, "key_press": -1, "type": "FIXATION", "trial_index": 236}, "uniqueid": "MTK1571:3KB8R4ZV1FE2BVZ7LGLW143423KGBN", "dateTime": 1515984629534}, {"current_trial": 237, "trialdata": {"rt": -1, "trial_type": "single-stim", "word": "permit", "stimulus": "<p id=\"stim\">PERMIT</p>", "conditions": [24, 800, "v", 24000], "internal_node_id": "0.0-174.0", "trial": 6, "time_elapsed": 1396019, "serialpos": 0, "key_press": -1, "wordID": 1050, "type": "PRES_VIS", "trial_index": 237}, "uniqueid": "MTK1571:3KB8R4ZV1FE2BVZ7LGLW143423KGBN", "dateTime": 1515984630336}, {"current_trial": 238, "trialdata": {"rt": -1, "trial_type": "single-stim", "word": "swamp", "stimulus": "<p id=\"stim\">SWAMP</p>", "conditions": [24, 800, "v", 24000], "internal_node_id": "0.0-175.0", "trial": 6, "time_elapsed": 1397788, "serialpos": 1, "key_press": -1, "wordID": 1415, "type": "PRES_VIS", "trial_index": 238}, "uniqueid": "MTK1571:3KB8R4ZV1FE2BVZ7LGLW143423KGBN", "dateTime": 1515984632106}, {"current_trial": 239, "trialdata": {"rt": -1, "trial_type": "single-stim", "word": "honey", "stimulus": "<p id=\"stim\">HONEY</p>", "conditions": [24, 800, "v", 24000], "internal_node_id": "0.0-176.0", "trial": 6, "time_elapsed": 1399627, "serialpos": 2, "key_press": -1, "wordID": 712, "type": "PRES_VIS", "trial_index": 239}, "uniqueid": "MTK1571:3KB8R4ZV1FE2BVZ7LGLW143423KGBN", "dateTime": 1515984633945}, {"current_trial": 240, "trialdata": {"rt": -1, "trial_type": "single-stim", "word": "crayon", "stimulus": "<p id=\"stim\">CRAYON</p>", "conditions": [24, 800, "v", 24000], "internal_node_id": "0.0-177.0", "trial": 6, "time_elapsed": 1401562, "serialpos": 3, "key_press": -1, "wordID": 400, "type": "PRES_VIS", "trial_index": 240}, "uniqueid": "MTK1571:3KB8R4ZV1FE2BVZ7LGLW143423KGBN", "dateTime": 1515984635880}, {"current_trial": 241, "trialdata": {"rt": -1, "trial_type": "single-stim", "word": "picture", "stimulus": "<p id=\"stim\">PICTURE</p>", "conditions": [24, 800, "v", 24000], "internal_node_id": "0.0-178.0", "trial": 6, "time_elapsed": 1403509, "serialpos": 4, "key_press": -1, "wordID": 1060, "type": "PRES_VIS", "trial_index": 241}, "uniqueid": "MTK1571:3KB8R4ZV1FE2BVZ7LGLW143423KGBN", "dateTime": 1515984637826}, {"current_trial": 242, "trialdata": {"rt": -1, "trial_type": "single-stim", "word": "elbow", "stimulus": "<p id=\"stim\">ELBOW</p>", "conditions": [24, 800, "v", 24000], "internal_node_id": "0.0-179.0", "trial": 6, "time_elapsed": 1405502, "serialpos": 5, "key_press": -1, "wordID": 519, "type": "PRES_VIS", "trial_index": 242}, "uniqueid": "MTK1571:3KB8R4ZV1FE2BVZ7LGLW143423KGBN", "dateTime": 1515984639819}, {"current_trial": 243, "trialdata": {"rt": -1, "trial_type": "single-stim", "word": "canal", "stimulus": "<p id=\"stim\">CANAL</p>", "conditions": [24, 800, "v", 24000], "internal_node_id": "0.0-180.0", "trial": 6, "time_elapsed": 1407269, "serialpos": 6, "key_press": -1, "wordID": 225, "type": "PRES_VIS", "trial_index": 243}, "uniqueid": "MTK1571:3KB8R4ZV1FE2BVZ7LGLW143423KGBN", "dateTime": 1515984641586}, {"current_trial": 244, "trialdata": {"rt": -1, "trial_type": "single-stim", "word": "river", "stimulus": "<p id=\"stim\">RIVER</p>", "conditions": [24, 800, "v", 24000], "internal_node_id": "0.0-181.0", "trial": 6, "time_elapsed": 1409079, "serialpos": 7, "key_press": -1, "wordID": 1193, "type": "PRES_VIS", "trial_index": 244}, "uniqueid": "MTK1571:3KB8R4ZV1FE2BVZ7LGLW143423KGBN", "dateTime": 1515984643397}, {"current_trial": 245, "trialdata": {"rt": -1, "trial_type": "single-stim", "word": "orchid", "stimulus": "<p id=\"stim\">ORCHID</p>", "conditions": [24, 800, "v", 24000], "internal_node_id": "0.0-182.0", "trial": 6, "time_elapsed": 1411018, "serialpos": 8, "key_press": -1, "wordID": 981, "type": "PRES_VIS", "trial_index": 245}, "uniqueid": "MTK1571:3KB8R4ZV1FE2BVZ7LGLW143423KGBN", "dateTime": 1515984645336}, {"current_trial": 246, "trialdata": {"rt": -1, "trial_type": "single-stim", "word": "leg", "stimulus": "<p id=\"stim\">LEG</p>", "conditions": [24, 800, "v", 24000], "internal_node_id": "0.0-183.0", "trial": 6, "time_elapsed": 1412731, "serialpos": 9, "key_press": -1, "wordID": 808, "type": "PRES_VIS", "trial_index": 246}, "uniqueid": "MTK1571:3KB8R4ZV1FE2BVZ7LGLW143423KGBN", "dateTime": 1515984647048}, {"current_trial": 247, "trialdata": {"rt": -1, "trial_type": "single-stim", "word": "barley", "stimulus": "<p id=\"stim\">BARLEY</p>", "conditions": [24, 800, "v", 24000], "internal_node_id": "0.0-184.0", "trial": 6, "time_elapsed": 1414526, "serialpos": 10, "key_press": -1, "wordID": 87, "type": "PRES_VIS", "trial_index": 247}, "uniqueid": "MTK1571:3KB8R4ZV1FE2BVZ7LGLW143423KGBN", "dateTime": 1515984648843}, {"current_trial": 248, "trialdata": {"rt": -1, "trial_type": "single-stim", "word": "fox", "stimulus": "<p id=\"stim\">FOX</p>", "conditions": [24, 800, "v", 24000], "internal_node_id": "0.0-185.0", "trial": 6, "time_elapsed": 1416263, "serialpos": 11, "key_press": -1, "wordID": 597, "type": "PRES_VIS", "trial_index": 248}, "uniqueid": "MTK1571:3KB8R4ZV1FE2BVZ7LGLW143423KGBN", "dateTime": 1515984650580}, {"current_trial": 249, "trialdata": {"rt": -1, "trial_type": "single-stim", "word": "pork", "stimulus": "<p id=\"stim\">PORK</p>", "conditions": [24, 800, "v", 24000], "internal_node_id": "0.0-186.0", "trial": 6, "time_elapsed": 1418135, "serialpos": 12, "key_press": -1, "wordID": 1107, "type": "PRES_VIS", "trial_index": 249}, "uniqueid": "MTK1571:3KB8R4ZV1FE2BVZ7LGLW143423KGBN", "dateTime": 1515984652452}, {"current_trial": 250, "trialdata": {"rt": -1, "trial_type": "single-stim", "word": "tunnel", "stimulus": "<p id=\"stim\">TUNNEL</p>", "conditions": [24, 800, "v", 24000], "internal_node_id": "0.0-187.0", "trial": 6, "time_elapsed": 1419751, "serialpos": 13, "key_press": -1, "wordID": 1518, "type": "PRES_VIS", "trial_index": 250}, "uniqueid": "MTK1571:3KB8R4ZV1FE2BVZ7LGLW143423KGBN", "dateTime": 1515984654068}, {"current_trial": 251, "trialdata": {"rt": -1, "trial_type": "single-stim", "word": "robot", "stimulus": "<p id=\"stim\">ROBOT</p>", "conditions": [24, 800, "v", 24000], "internal_node_id": "0.0-188.0", "trial": 6, "time_elapsed": 1421413, "serialpos": 14, "key_press": -1, "wordID": 1199, "type": "PRES_VIS", "trial_index": 251}, "uniqueid": "MTK1571:3KB8R4ZV1FE2BVZ7LGLW143423KGBN", "dateTime": 1515984655730}, {"current_trial": 252, "trialdata": {"rt": -1, "trial_type": "single-stim", "word": "dolphin", "stimulus": "<p id=\"stim\">DOLPHIN</p>", "conditions": [24, 800, "v", 24000], "internal_node_id": "0.0-189.0", "trial": 6, "time_elapsed": 1423154, "serialpos": 15, "key_press": -1, "wordID": 482, "type": "PRES_VIS", "trial_index": 252}, "uniqueid": "MTK1571:3KB8R4ZV1FE2BVZ7LGLW143423KGBN", "dateTime": 1515984657471}, {"current_trial": 253, "trialdata": {"rt": -1, "trial_type": "single-stim", "word": "lily", "stimulus": "<p id=\"stim\">LILY</p>", "conditions": [24, 800, "v", 24000], "internal_node_id": "0.0-190.0", "trial": 6, "time_elapsed": 1424874, "serialpos": 16, "key_press": -1, "wordID": 820, "type": "PRES_VIS", "trial_index": 253}, "uniqueid": "MTK1571:3KB8R4ZV1FE2BVZ7LGLW143423KGBN", "dateTime": 1515984659192}, {"current_trial": 254, "trialdata": {"rt": -1, "trial_type": "single-stim", "word": "fiddle", "stimulus": "<p id=\"stim\">