{"assignmentId": "3A0EX8ZRN9V2XMK7FM7284A89GJBYP", "workerId": "MTK1997", "questiondata": {"origin": "United States", "strat-rehearsal": "46", "marital": "Single", "education": "Bachelor's degree", "ethnicity": "Not Hispanic", "color_depth": 24, "distracted": "No", "wrote-notes": "No", "strat-other": "none", "screen_width": 1920, "avail_screen_width": 1920, "avail_screen_height": 1040, "strat-image": "90", "language": "english", "gender": "Male", "age": "27", "gender_other": "", "race": ["White"], "strat-categorize": "40", "pixel_depth": 24, "strat-spatial": "73", "strat-story": "16", "race_other": "", "screen_height": 1080}, "bonus": 0, "hitId": "34OWYT6U3WOVW9SBNI216QPADL4I9L", "counterbalance": 2400, "useragent": "Mozilla/5.0 (Windows NT 6.1; Win64; x64) AppleWebKit/537.36 (KHTML, like Gecko) Chrome/63.0.3239.132 Safari/537.36", "eventdata": [{"eventtype": "initialized", "interval": 0, "value": null, "timestamp": 1516643537335}, {"eventtype": "window_resize", "interval": 0, "value": [1920, 990], "timestamp": 1516643537335}, {"eventtype": "focus", "interval": 10952, "value": "off", "timestamp": 1516643548287}, {"eventtype": "focus", "interval": 15229, "value": "on", "timestamp": 1516643563516}, {"eventtype": "focus", "interval": 216363, "value": "off", "timestamp": 1516643779879}, {"eventtype": "focus", "interval": 40403, "value": "on", "timestamp": 1516643820282}], "data": [{"current_trial": 0, "trialdata": {"rt": 8419, "trial_type": "text", "internal_node_id": "0.0-0.0", "time_elapsed": 8420, "key_press": 74, "type": "INSTRUCTIONS", "trial_index": 0}, "uniqueid": "MTK1997:3A0EX8ZRN9V2XMK7FM7284A89GJBYP", "dateTime": 1516643566203}, {"current_trial": 1, "trialdata": {"rt": 15806, "trial_type": "text", "internal_node_id": "0.0-1.0", "time_elapsed": 24228, "key_press": 75, "type": "INSTRUCTIONS", "trial_index": 1}, "uniqueid": "MTK1997:3A0EX8ZRN9V2XMK7FM7284A89GJBYP", "dateTime": 1516643582011}, {"current_trial": 2, "trialdata": {"rt": [11721], "trial_type": "audio-test", "responses": ["ocean"], "internal_node_id": "0.0-2.0", "time_elapsed": 35956, "type": "AUDIO_TEST", "trial_index": 2}, "uniqueid": "MTK1997:3A0EX8ZRN9V2XMK7FM7284A89GJBYP", "dateTime": 1516643593739}, {"current_trial": 3, "trialdata": {"rt": [5773], "trial_type": "audio-test", "responses": ["crystal"], "internal_node_id": "0.0-3.0", "time_elapsed": 41732, "type": "AUDIO_TEST", "trial_index": 3}, "uniqueid": "MTK1997:3A0EX8ZRN9V2XMK7FM7284A89GJBYP", "dateTime": 1516643599515}, {"current_trial": 4, "trialdata": {"rt": [4853], "trial_type": "audio-test", "responses": ["spice"], "internal_node_id": "0.0-4.0", "time_elapsed": 46588, "type": "AUDIO_TEST", "trial_index": 4}, "uniqueid": "MTK1997:3A0EX8ZRN9V2XMK7FM7284A89GJBYP", "dateTime": 1516643604371}, {"current_trial": 5, "trialdata": {"rt": 38724, "trial_type": "survey-text", "responses": "{\"Q0\":\"1:15am\",\"Q1\":\"9:45am\",\"Q2\":\"5\"}", "internal_node_id": "0.0-5.0", "time_elapsed": 86064, "type": "SLEEP_SURVEY", "trial_index": 5}, "uniqueid": "MTK1997:3A0EX8ZRN9V2XMK7FM7284A89GJBYP", "dateTime": 1516643643847}, {"current_trial": 6, "trialdata": {"rt": 74313, "trial_type": "text", "internal_node_id": "0.0-6.0", "time_elapsed": 161378, "key_press": 13, "type": "INSTRUCTIONS", "trial_index": 6}, "uniqueid": "MTK1997:3A0EX8ZRN9V2XMK7FM7284A89GJBYP", "dateTime": 1516643719161}, {"current_trial": 7, "trialdata": {"rt": 16370, "trial_type": "text", "internal_node_id": "0.0-7.0", "time_elapsed": 178250, "key_press": 13, "type": "INSTRUCTIONS", "trial_index": 7}, "uniqueid": "MTK1997:3A0EX8ZRN9V2XMK7FM7284A89GJBYP", "dateTime": 1516643736033}, {"current_trial": 8, "trialdata": {"rt": 8138, "trial_type": "text", "internal_node_id": "0.0-8.0", "time_elapsed": 186889, "key_press": 13, "type": "INSTRUCTIONS", "trial_index": 8}, "uniqueid": "MTK1997:3A0EX8ZRN9V2XMK7FM7284A89GJBYP", "dateTime": 1516643744672}, {"current_trial": 9, "trialdata": {"rt": [5349, 8141, 10182, 13950, 16238], "trial_type": "math-distractor", "key_times": [3781, 4085, 5349, 7477, 7853, 8141, 9445, 9653, 10182, 12734, 12910, 13950, 15790, 15958, 16238], "responses": ["19", "17", "12", "21", "12"], "num2": [8, 2, 5, 8, 2, 1], "num3": [4, 8, 3, 9, 6, 8], "conditions": [18, 1200, "a", 18000], "internal_node_id": "0.0-9.0", "key_presses": [97, 105, 13, 97, 103, 13, 97, 98, 13, 98, 97, 13, 97, 98, 13], "trial": 0, "time_elapsed": 205895, "type": "DISTRACTOR", "trial_index": 9, "num1": [7, 7, 4, 4, 4, 4]}, "uniqueid": "MTK1997:3A0EX8ZRN9V2XMK7FM7284A89GJBYP", "dateTime": 1516643763678}, {"current_trial": 10, "trialdata": {"rt": -1, "trial_type": "single-stim", "stimulus": "<p id=\"stim\">10</p>", "internal_node_id": "0.0-10.0-0.0", "time_elapsed": 208897, "key_press": -1, "trial_index": 10}, "uniqueid": "MTK1997:3A0EX8ZRN9V2XMK7FM7284A89GJBYP", "dateTime": 1516643766680}, {"current_trial": 11, "trialdata": {"rt": -1, "trial_type": "single-stim", "stimulus": "<p id=\"stim\">9</p>", "internal_node_id": "0.0-10.0-1.0", "time_elapsed": 209898, "key_press": -1, "trial_index": 11}, "uniqueid": "MTK1997:3A0EX8ZRN9V2XMK7FM7284A89GJBYP", "dateTime": 1516643767681}, {"current_trial": 12, "trialdata": {"rt": -1, "trial_type": "single-stim", "stimulus": "<p id=\"stim\">8</p>", "internal_node_id": "0.0-10.0-2.0", "time_elapsed": 210899, "key_press": -1, "trial_index": 12}, "uniqueid": "MTK1997:3A0EX8ZRN9V2XMK7FM7284A89GJBYP", "dateTime": 1516643768682}, {"current_trial": 13, "trialdata": {"rt": -1, "trial_type": "single-stim", "stimulus": "<p id=\"stim\">7</p>", "internal_node_id": "0.0-10.0-3.0", "time_elapsed": 211900, "key_press": -1, "trial_index": 13}, "uniqueid": "MTK1997:3A0EX8ZRN9V2XMK7FM7284A89GJBYP", "dateTime": 1516643769683}, {"current_trial": 14, "trialdata": {"rt": -1, "trial_type": "single-stim", "stimulus": "<p id=\"stim\">6</p>", "internal_node_id": "0.0-10.0-4.0", "time_elapsed": 212901, "key_press": -1, "trial_index": 14}, "uniqueid": "MTK1997:3A0EX8ZRN9V2XMK7FM7284A89GJBYP", "dateTime": 1516643770684}, {"current_trial": 15, "trialdata": {"rt": -1, "trial_type": "single-stim", "stimulus": "<p id=\"stim\">5</p>", "internal_node_id": "0.0-10.0-5.0", "time_elapsed": 213902, "key_press": -1, "trial_index": 15}, "uniqueid": "MTK1997:3A0EX8ZRN9V2XMK7FM7284A89GJBYP", "dateTime": 1516643771685}, {"current_trial": 16, "trialdata": {"rt": -1, "trial_type": "single-stim", "stimulus": "<p id=\"stim\">4</p>", "internal_node_id": "0.0-10.0-6.0", "time_elapsed": 214903, "key_press": -1, "trial_index": 16}, "uniqueid": "MTK1997:3A0EX8ZRN9V2XMK7FM7284A89GJBYP", "dateTime": 1516643772686}, {"current_trial": 17, "trialdata": {"rt": -1, "trial_type": "single-stim", "stimulus": "<p id=\"stim\">3</p>", "internal_node_id": "0.0-10.0-7.0", "time_elapsed": 215904, "key_press": -1, "trial_index": 17}, "uniqueid": "MTK1997:3A0EX8ZRN9V2XMK7FM7284A89GJBYP", "dateTime": 1516643773687}, {"current_trial": 18, "trialdata": {"rt": -1, "trial_type": "single-stim", "stimulus": "<p id=\"stim\">2</p>", "internal_node_id": "0.0-10.0-8.0", "time_elapsed": 216905, "key_press": -1, "trial_index": 18}, "uniqueid": "MTK1997:3A0EX8ZRN9V2XMK7FM7284A89GJBYP", "dateTime": 1516643774688}, {"current_trial": 19, "trialdata": {"rt": -1, "trial_type": "single-stim", "stimulus": "<p id=\"stim\">1</p>", "internal_node_id": "0.0-10.0-9.0", "time_elapsed": 217906, "key_press": -1, "trial_index": 19}, "uniqueid": "MTK1997:3A0EX8ZRN9V2XMK7FM7284A89GJBYP", "dateTime": 1516643775689}, {"current_trial": 20, "trialdata": {"rt": -1, "trial_type": "single-stim", "stimulus": "<p id=\"stim\">+</p>", "internal_node_id": "0.0-11.0-0.0", "time_elapsed": 219407, "key_press": -1, "type": "FIXATION", "trial_index": 20}, "uniqueid": "MTK1997:3A0EX8ZRN9V2XMK7FM7284A89GJBYP", "dateTime": 1516643777190}, {"current_trial": 21, "trialdata": {"rt": -1000, "trial_type": "single-audio", "word": "stove", "stimulus": "/static/audio/wordpool/STOVE.wav", "conditions": [18, 1200, "a", 18000], "internal_node_id": "0.0-12.0", "trial": 0, "time_elapsed": 221513, "serialpos": 0, "key_press": -1, "wordID": 1387, "type": "PRES_AUD", "trial_index": 21}, "uniqueid": "MTK1997:3A0EX8ZRN9V2XMK7FM7284A89GJBYP", "dateTime": 1516643779296}, {"current_trial": 22, "trialdata": {"rt": -1000, "trial_type": "single-audio", "word": "cocoon", "stimulus": "/static/audio/wordpool/COCOON.wav", "conditions": [18, 1200, "a", 18000], "internal_node_id": "0.0-13.0", "trial": 0, "time_elapsed": 223786, "serialpos": 1, "key_press": -1, "wordID": 338, "type": "PRES_AUD", "trial_index": 22}, "uniqueid": "MTK1997:3A0EX8ZRN9V2XMK7FM7284A89GJBYP", "dateTime": 1516643781569}, {"current_trial": 23, "trialdata": {"rt": -1000, "trial_type": "single-audio", "word": "shrub", "stimulus": "/static/audio/wordpool/SHRUB.wav", "conditions": [18, 1200, "a", 18000], "internal_node_id": "0.0-14.0", "trial": 0, "time_elapsed": 225883, "serialpos": 2, "key_press": -1, "wordID": 1298, "type": "PRES_AUD", "trial_index": 23}, "uniqueid": "MTK1997:3A0EX8ZRN9V2XMK7FM7284A89GJBYP", "dateTime": 1516643783666}, {"current_trial": 24, "trialdata": {"rt": -1000, "trial_type": "single-audio", "word": "virus", "stimulus": "/static/audio/wordpool/VIRUS.wav", "conditions": [18, 1200, "a", 18000], "internal_node_id": "0.0-15.0", "trial": 0, "time_elapsed": 227914, "serialpos": 3, "key_press": -1, "wordID": 1571, "type": "PRES_AUD", "trial_index": 24}, "uniqueid": "MTK1997:3A0EX8ZRN9V2XMK7FM7284A89GJBYP", "dateTime": 1516643785697}, {"current_trial": 25, "trialdata": {"rt": -1000, "trial_type": "single-audio", "word": "marker", "stimulus": "/static/audio/wordpool/MARKER.wav", "conditions": [18, 1200, "a", 18000], "internal_node_id": "0.0-16.0", "trial": 0, "time_elapsed": 230119, "serialpos": 4, "key_press": -1, "wordID": 869, "type": "PRES_AUD", "trial_index": 25}, "uniqueid": "MTK1997:3A0EX8ZRN9V2XMK7FM7284A89GJBYP", "dateTime": 1516643787902}, {"current_trial": 26, "trialdata": {"rt": -1000, "trial_type": "single-audio", "word": "rebel", "stimulus": "/static/audio/wordpool/REBEL.wav", "conditions": [18, 1200, "a", 18000], "internal_node_id": "0.0-17.0", "trial": 0, "time_elapsed": 232369, "serialpos": 5, "key_press": -1, "wordID": 1171, "type": "PRES_AUD", "trial_index": 26}, "uniqueid": "MTK1997:3A0EX8ZRN9V2XMK7FM7284A89GJBYP", "dateTime": 1516643790153}, {"current_trial": 27, "trialdata": {"rt": -1000, "trial_type": "single-audio", "word": "shark", "stimulus": "/static/audio/wordpool/SHARK.wav", "conditions": [18, 1200, "a", 18000], "internal_node_id": "0.0-18.0", "trial": 0, "time_elapsed": 234579, "serialpos": 6, "key_press": -1, "wordID": 1274, "type": "PRES_AUD", "trial_index": 27}, "uniqueid": "MTK1997:3A0EX8ZRN9V2XMK7FM7284A89GJBYP", "dateTime": 1516643792362}, {"current_trial": 28, "trialdata": {"rt": -1000, "trial_type": "single-audio", "word": "slime", "stimulus": "/static/audio/wordpool/SLIME.wav", "conditions": [18, 1200, "a", 18000], "internal_node_id": "0.0-19.0", "trial": 0, "time_elapsed": 236658, "serialpos": 7, "key_press": -1, "wordID": 1326, "type": "PRES_AUD", "trial_index": 28}, "uniqueid": "MTK1997:3A0EX8ZRN9V2XMK7FM7284A89GJBYP", "dateTime": 1516643794441}, {"current_trial": 29, "trialdata": {"rt": -1000, "trial_type": "single-audio", "word": "xerox", "stimulus": "/static/audio/wordpool/XEROX.wav", "conditions": [18, 1200, "a", 18000], "internal_node_id": "0.0-20.0", "trial": 0, "time_elapsed": 238800, "serialpos": 8, "key_press": -1, "wordID": 1627, "type": "PRES_AUD", "trial_index": 29}, "uniqueid": "MTK1997:3A0EX8ZRN9V2XMK7FM7284A89GJBYP", "dateTime": 1516643796583}, {"current_trial": 30, "trialdata": {"rt": -1000, "trial_type": "single-audio", "word": "belly", "stimulus": "/static/audio/wordpool/BELLY.wav", "conditions": [18, 1200, "a", 18000], "internal_node_id": "0.0-21.0", "trial": 0, "time_elapsed": 240839, "serialpos": 9, "key_press": -1, "wordID": 118, "type": "PRES_AUD", "trial_index": 30}, "uniqueid": "MTK1997:3A0EX8ZRN9V2XMK7FM7284A89GJBYP", "dateTime": 1516643798622}, {"current_trial": 31, "trialdata": {"rt": -1000, "trial_type": "single-audio", "word": "beaver", "stimulus": "/static/audio/wordpool/BEAVER.wav", "conditions": [18, 1200, "a", 18000], "internal_node_id": "0.0-22.0", "trial": 0, "time_elapsed": 242924, "serialpos": 10, "key_press": -1, "wordID": 108, "type": "PRES_AUD", "trial_index": 31}, "uniqueid": "MTK1997:3A0EX8ZRN9V2XMK7FM7284A89GJBYP", "dateTime": 1516643800707}, {"current_trial": 32, "trialdata": {"rt": -1000, "trial_type": "single-audio", "word": "puddle", "stimulus": "/static/audio/wordpool/PUDDLE.wav", "conditions": [18, 1200, "a", 18000], "internal_node_id": "0.0-23.0", "trial": 0, "time_elapsed": 245078, "serialpos": 11, "key_press": -1, "wordID": 1139, "type": "PRES_AUD", "trial_index": 32}, "uniqueid": "MTK1997:3A0EX8ZRN9V2XMK7FM7284A89GJBYP", "dateTime": 1516643802861}, {"current_trial": 33, "trialdata": {"rt": -1000, "trial_type": "single-audio", "word": "chest", "stimulus": "/static/audio/wordpool/CHEST.wav", "conditions": [18, 1200, "a", 18000], "internal_node_id": "0.0-24.0", "trial": 0, "time_elapsed": 247299, "serialpos": 12, "key_press": -1, "wordID": 294, "type": "PRES_AUD", "trial_index": 33}, "uniqueid": "MTK1997:3A0EX8ZRN9V2XMK7FM7284A89GJBYP", "dateTime": 1516643805082}, {"current_trial": 34, "trialdata": {"rt": -1000, "trial_type": "single-audio", "word": "summit", "stimulus": "/static/audio/wordpool/SUMMIT.wav", "conditions": [18, 1200, "a", 18000], "internal_node_id": "0.0-25.0", "trial": 0, "time_elapsed": 249673, "serialpos": 13, "key_press": -1, "wordID": 1404, "type": "PRES_AUD", "trial_index": 34}, "uniqueid": "MTK1997:3A0EX8ZRN9V2XMK7FM7284A89GJBYP", "dateTime": 1516643807456}, {"current_trial": 35, "trialdata": {"rt": -1000, "trial_type": "single-audio", "word": "lumber", "stimulus": "/static/audio/wordpool/LUMBER.wav", "conditions": [18, 1200, "a", 18000], "internal_node_id": "0.0-26.0", "trial": 0, "time_elapsed": 252050, "serialpos": 14, "key_press": -1, "wordID": 847, "type": "PRES_AUD", "trial_index": 35}, "uniqueid": "MTK1997:3A0EX8ZRN9V2XMK7FM7284A89GJBYP", "dateTime": 1516643809833}, {"current_trial": 36, "trialdata": {"rt": -1000, "trial_type": "single-audio", "word": "balloon", "stimulus": "/static/audio/wordpool/BALLOON.wav", "conditions": [18, 1200, "a", 18000], "internal_node_id": "0.0-27.0", "trial": 0, "time_elapsed": 254389, "serialpos": 15, "key_press": -1, "wordID": 74, "type": "PRES_AUD", "trial_index": 36}, "uniqueid": "MTK1997:3A0EX8ZRN9V2XMK7FM7284A89GJBYP", "dateTime": 1516643812172}, {"current_trial": 37, "trialdata": {"rt": -1000, "trial_type": "single-audio", "word": "salad", "stimulus": "/static/audio/wordpool/SALAD.wav", "conditions": [18, 1200, "a", 18000], "internal_node_id": "0.0-28.0", "trial": 0, "time_elapsed": 256697, "serialpos": 16, "key_press": -1, "wordID": 1223, "type": "PRES_AUD", "trial_index": 37}, "uniqueid": "MTK1997:3A0EX8ZRN9V2XMK7FM7284A89GJBYP", "dateTime": 1516643814481}, {"current_trial": 38, "trialdata": {"rt": -1000, "trial_type": "single-audio", "word": "eagle", "stimulus": "/static/audio/wordpool/EAGLE.wav", "conditions": [18, 1200, "a", 18000], "internal_node_id": "0.0-29.0", "trial": 0, "time_elapsed": 259072, "serialpos": 17, "key_press": -1, "wordID": 511, "type": "PRES_AUD", "trial_index": 38}, "uniqueid": "MTK1997:3A0EX8ZRN9V2XMK7FM7284A89GJBYP", "dateTime": 1516643816855}, {"current_trial": 39, "trialdata": {"rt": -1, "trial_type": "single-stim", "stimulus": "", "internal_node_id": "0.0-30.0-0.0", "time_elapsed": 260349, "key_press": -1, "type": "PRE_RECALL_DELAY", "trial_index": 39}, "uniqueid": "MTK1997:3A0EX8ZRN9V2XMK7FM7284A89GJBYP", "dateTime": 1516643818132}, {"current_trial": 40, "trialdata": {"rt": -1000, "trial_type": "single-audio", "stimulus": "/static/audio/400Hz.wav", "internal_node_id": "0.0-31.0", "time_elapsed": 260850, "key_press": -1, "type": "PRE_RECALL_ALERT", "trial_index": 40}, "uniqueid": "MTK1997:3A0EX8ZRN9V2XMK7FM7284A89GJBYP", "dateTime": 1516643818633}, {"current_trial": 41, "trialdata": {"rt": [4079, 5510, 6638, 9270, 11830, 15158, 16982, 19726, 44213, 59366], "recwords": ["salad", "eagle", "stove", "balloon", "puddle", "summit", "lumber", "shark", "chest", "virus"], "key_times": [2191, 2366, 2718, 2974, 3278, 4079, 4687, 4806, 5022, 5174, 5278, 5510, 5742, 5942, 6094, 6238, 6406, 6638, 7054, 7294, 7486, 8086, 8350, 8494, 8886, 9270, 10798, 10910, 11190, 11374, 11502, 11614, 11830, 12142, 12254, 12542, 12694, 13334, 13566, 15158, 15638, 15878, 16190, 16358, 16614, 16686, 16982, 18814, 18974, 19086, 19174, 19310, 19726, 41598, 41766, 41934, 42109, 42606, 44213, 57846, 58014, 58206, 58830, 58894, 59366], "trial_type": "free-recall", "conditions": [18, 1200, "a", 18000], "internal_node_id": "0.0-32.0-0.0", "key_presses": [83, 65, 76, 65, 68, 13, 69, 65, 71, 76, 69, 13, 83, 84, 79, 86, 69, 13, 66, 65, 76, 76, 79, 79, 78, 13, 80, 85, 68, 68, 76, 69, 13, 83, 85, 77, 77, 73, 84, 13, 76, 85, 77, 66, 69, 82, 13, 83, 72, 65, 82, 75, 13, 67, 72, 69, 83, 84, 13, 86, 73, 82, 85, 83, 13], "trial": 0, "time_elapsed": 320853, "type": "FREE_RECALL", "trial_index": 41}, "uniqueid": "MTK1997:3A0EX8ZRN9V2XMK7FM7284A89GJBYP", "dateTime": 1516643878637}, {"current_trial": 42, "trialdata": {"rt": 2627, "trial_type": "text", "internal_node_id": "0.0-33.0", "time_elapsed": 325481, "key_press": 13, "type": "INSTRUCTIONS", "trial_index": 42}, "uniqueid": "MTK1997:3A0EX8ZRN9V2XMK7FM7284A89GJBYP", "dateTime": 1516643883264}, {"current_trial": 43, "trialdata": {"rt": [3518, 5654, 7390, 9662, 12413, 14150, 15686, 17541], "trial_type": "math-distractor", "key_times": [3086, 3302, 3518, 5070, 5326, 5654, 7022, 7198, 7390, 9278, 9470, 9662, 11998, 12214, 12413, 13790, 13965, 14150, 15462, 15686, 17214, 17397, 17541], "responses": ["10", "18", "15", "15", "16", "15", "9", "11"], "num2": [3, 4, 2, 7, 6, 8, 1, 2, 7], "num3": [6, 7, 8, 3, 5, 3, 1, 2, 7], "conditions": [18, 1200, "a", 18000], "internal_node_id": "0.0-34.0", "key_presses": [97, 96, 13, 97, 104, 13, 97, 101, 13, 97, 101, 13, 97, 102, 13, 97, 101, 13, 105, 13, 97, 97, 13], "trial": 1, "time_elapsed": 345484, "type": "DISTRACTOR", "trial_index": 43, "num1": [1, 6, 5, 5, 5, 4, 7, 7, 8]}, "uniqueid": "MTK1997:3A0EX8ZRN9V2XMK7FM7284A89GJBYP", "dateTime": 1516643903267}, {"current_trial": 44, "trialdata": {"rt": -1, "trial_type": "single-stim", "stimulus": "<p id=\"stim\">10</p>", "internal_node_id": "0.0-35.0-0.0", "time_elapsed": 348486, "key_press": -1, "trial_index": 44}, "uniqueid": "MTK1997:3A0EX8ZRN9V2XMK7FM7284A89GJBYP", "dateTime": 1516643906269}, {"current_trial": 45, "trialdata": {"rt": -1, "trial_type": "single-stim", "stimulus": "<p id=\"stim\">9</p>", "internal_node_id": "0.0-35.0-1.0", "time_elapsed": 349487, "key_press": -1, "trial_index": 45}, "uniqueid": "MTK1997:3A0EX8ZRN9V2XMK7FM7284A89GJBYP", "dateTime": 1516643907270}, {"current_trial": 46, "trialdata": {"rt": -1, "trial_type": "single-stim", "stimulus": "<p id=\"stim\">8</p>", "internal_node_id": "0.0-35.0-2.0", "time_elapsed": 350488, "key_press": -1, "trial_index": 46}, "uniqueid": "MTK1997:3A0EX8ZRN9V2XMK7FM7284A89GJBYP", "dateTime": 1516643908271}, {"current_trial": 47, "trialdata": {"rt": -1, "trial_type": "single-stim", "stimulus": "<p id=\"stim\">7</p>", "internal_node_id": "0.0-35.0-3.0", "time_elapsed": 351489, "key_press": -1, "trial_index": 47}, "uniqueid": "MTK1997:3A0EX8ZRN9V2XMK7FM7284A89GJBYP", "dateTime": 1516643909272}, {"current_trial": 48, "trialdata": {"rt": -1, "trial_type": "single-stim", "stimulus": "<p id=\"stim\">6</p>", "internal_node_id": "0.0-35.0-4.0", "time_elapsed": 352490, "key_press": -1, "trial_index": 48}, "uniqueid": "MTK1997:3A0EX8ZRN9V2XMK7FM7284A89GJBYP", "dateTime": 1516643910273}, {"current_trial": 49, "trialdata": {"rt": -1, "trial_type": "single-stim", "stimulus": "<p id=\"stim\">5</p>", "internal_node_id": "0.0-35.0-5.0", "time_elapsed": 353491, "key_press": -1, "trial_index": 49}, "uniqueid": "MTK1997:3A0EX8ZRN9V2XMK7FM7284A89GJBYP", "dateTime": 1516643911275}, {"current_trial": 50, "trialdata": {"rt": -1, "trial_type": "single-stim", "stimulus": "<p id=\"stim\">4</p>", "internal_node_id": "0.0-35.0-6.0", "time_elapsed": 354492, "key_press": -1, "trial_index": 50}, "uniqueid": "MTK1997:3A0EX8ZRN9V2XMK7FM7284A89GJBYP", "dateTime": 1516643912276}, {"current_trial": 51, "trialdata": {"rt": -1, "trial_type": "single-stim", "stimulus": "<p id=\"stim\">3</p>", "internal_node_id": "0.0-35.0-7.0", "time_elapsed": 355493, "key_press": -1, "trial_index": 51}, "uniqueid": "MTK1997:3A0EX8ZRN9V2XMK7FM7284A89GJBYP", "dateTime": 1516643913277}, {"current_trial": 52, "trialdata": {"rt": -1, "trial_type": "single-stim", "stimulus": "<p id=\"stim\">2</p>", "internal_node_id": "0.0-35.0-8.0", "time_elapsed": 356495, "key_press": -1, "trial_index": 52}, "uniqueid": "MTK1997:3A0EX8ZRN9V2XMK7FM7284A89GJBYP", "dateTime": 1516643914278}, {"current_trial": 53, "trialdata": {"rt": -1, "trial_type": "single-stim", "stimulus": "<p id=\"stim\">1</p>", "internal_node_id": "0.0-35.0-9.0", "time_elapsed": 357496, "key_press": -1, "trial_index": 53}, "uniqueid": "MTK1997:3A0EX8ZRN9V2XMK7FM7284A89GJBYP", "dateTime": 1516643915279}, {"current_trial": 54, "trialdata": {"rt": -1, "trial_type": "single-stim", "stimulus": "<p id=\"stim\">+</p>", "internal_node_id": "0.0-36.0-0.0", "time_elapsed": 358997, "key_press": -1, "type": "FIXATION", "trial_index": 54}, "uniqueid": "MTK1997:3A0EX8ZRN9V2XMK7FM7284A89GJBYP", "dateTime": 1516643916780}, {"current_trial": 55, "trialdata": {"rt": -1000, "trial_type": "single-audio", "word": "snack", "stimulus": "/static/audio/wordpool/SNACK.wav", "conditions": [18, 1200, "a", 18000], "internal_node_id": "0.0-37.0", "trial": 1, "time_elapsed": 361212, "serialpos": 0, "key_press": -1, "wordID": 1330, "type": "PRES_AUD", "trial_index": 55}, "uniqueid": "MTK1997:3A0EX8ZRN9V2XMK7FM7284A89GJBYP", "dateTime": 1516643918996}, {"current_trial": 56, "trialdata": {"rt": -1000, "trial_type": "single-audio", "word": "swamp", "stimulus": "/static/audio/wordpool/SWAMP.wav", "conditions": [18, 1200, "a", 18000], "internal_node_id": "0.0-38.0", "trial": 1, "time_elapsed": 363443, "serialpos": 1, "key_press": -1, "wordID": 1415, "type": "PRES_AUD", "trial_index": 56}, "uniqueid": "MTK1997:3A0EX8ZRN9V2XMK7FM7284A89GJBYP", "dateTime": 1516643921226}, {"current_trial": 57, "trialdata": {"rt": -1000, "trial_type": "single-audio", "word": "postage", "stimulus": "/static/audio/wordpool/POSTAGE.wav", "conditions": [18, 1200, "a", 18000], "internal_node_id": "0.0-39.0", "trial": 1, "time_elapsed": 365708, "serialpos": 2, "key_press": -1, "wordID": 1112, "type": "PRES_AUD", "trial_index": 57}, "uniqueid": "MTK1997:3A0EX8ZRN9V2XMK7FM7284A89GJBYP", "dateTime": 1516643923491}, {"current_trial": 58, "trialdata": {"rt": -1000, "trial_type": "single-audio", "word": "cobra", "stimulus": "/static/audio/wordpool/COBRA.wav", "conditions": [18, 1200, "a", 18000], "internal_node_id": "0.0-40.0", "trial": 1, "time_elapsed": 367899, "serialpos": 3, "key_press": -1, "wordID": 335, "type": "PRES_AUD", "trial_index": 58}, "uniqueid": "MTK1997:3A0EX8ZRN9V2XMK7FM7284A89GJBYP", "dateTime": 1516643925682}, {"current_trial": 59, "trialdata": {"rt": -1000, "trial_type": "single-audio", "word": "contract", "stimulus": "/static/audio/wordpool/CONTRACT.wav", "conditions": [18, 1200, "a", 18000], "internal_node_id": "0.0-41.0", "trial": 1, "time_elapsed": 369940, "serialpos": 4, "key_press": -1, "wordID": 367, "type": "PRES_AUD", "trial_index": 59}, "uniqueid": "MTK1997:3A0EX8ZRN9V2XMK7FM7284A89GJBYP", "dateTime": 1516643927723}, {"current_trial": 60, "trialdata": {"rt": -1000, "trial_type": "single-audio", "word": "playground", "stimulus": "/static/audio/wordpool/PLAYGROUND.wav", "conditions": [18, 1200, "a", 18000], "internal_node_id": "0.0-42.0", "trial": 1, "time_elapsed": 372226, "serialpos": 5, "key_press": -1, "wordID": 1086, "type": "PRES_AUD", "trial_index": 60}, "uniqueid": "MTK1997:3A0EX8ZRN9V2XMK7FM7284A89GJBYP", "dateTime": 1516643930009}, {"current_trial": 61, "trialdata": {"rt": -1000, "trial_type": "single-audio", "word": "flute", "stimulus": "/static/audio/wordpool/FLUTE.wav", "conditions": [18, 1200, "a", 18000], "internal_node_id": "0.0-43.0", "trial": 1, "time_elapsed": 374613, "serialpos": 6, "key_press": -1, "wordID": 584, "type": "PRES_AUD", "trial_index": 61}, "uniqueid": "MTK1997:3A0EX8ZRN9V2XMK7FM7284A89GJBYP", "dateTime": 1516643932396}, {"current_trial": 62, "trialdata": {"rt": -1000, "trial_type": "single-audio", "word": "burglar", "stimulus": "/static/audio/wordpool/BURGLAR.wav", "conditions": [18, 1200, "a", 18000], "internal_node_id": "0.0-44.0", "trial": 1, "time_elapsed": 376952, "serialpos": 7, "key_press": -1, "wordID": 199, "type": "PRES_AUD", "trial_index": 62}, "uniqueid": "MTK1997:3A0EX8ZRN9V2XMK7FM7284A89GJBYP", "dateTime": 1516643934735}, {"current_trial": 63, "trialdata": {"rt": -1000, "trial_type": "single-audio", "word": "camel", "stimulus": "/static/audio/wordpool/CAMEL.wav", "conditions": [18, 1200, "a", 18000], "internal_node_id": "0.0-45.0", "trial": 1, "time_elapsed": 379130, "serialpos": 8, "key_press": -1, "wordID": 222, "type": "PRES_AUD", "trial_index": 63}, "uniqueid": "MTK1997:3A0EX8ZRN9V2XMK7FM7284A89GJBYP", "dateTime": 1516643936913}, {"current_trial": 64, "trialdata": {"rt": -1000, "trial_type": "single-audio", "word": "relish", "stimulus": "/static/audio/wordpool/RELISH.wav", "conditions": [18, 1200, "a", 18000], "internal_node_id": "0.0-46.0", "trial": 1, "time_elapsed": 381175, "serialpos": 9, "key_press": -1, "wordID": 1182, "type": "PRES_AUD", "trial_index": 64}, "uniqueid": "MTK1997:3A0EX8ZRN9V2XMK7FM7284A89GJBYP", "dateTime": 1516643938959}, {"current_trial": 65, "trialdata": {"rt": -1000, "trial_type": "single-audio", "word": "stomach", "stimulus": "/static/audio/wordpool/STOMACH.wav", "conditions": [18, 1200, "a", 18000], "internal_node_id": "0.0-47.0", "trial": 1, "time_elapsed": 383345, "serialpos": 10, "key_press": -1, "wordID": 1383, "type": "PRES_AUD", "trial_index": 65}, "uniqueid": "MTK1997:3A0EX8ZRN9V2XMK7FM7284A89GJBYP", "dateTime": 1516643941128}, {"current_trial": 66, "trialdata": {"rt": -1000, "trial_type": "single-audio", "word": "sunset", "stimulus": "/static/audio/wordpool/SUNSET.wav", "conditions": [18, 1200, "a", 18000], "internal_node_id": "0.0-48.0", "trial": 1, "time_elapsed": 385502, "serialpos": 11, "key_press": -1, "wordID": 1407, "type": "PRES_AUD", "trial_index": 66}, "uniqueid": "MTK1997:3A0EX8ZRN9V2XMK7FM7284A89GJBYP", "dateTime": 1516643943285}, {"current_trial": 67, "trialdata": {"rt": -1000, "trial_type": "single-audio", "word": "frame", "stimulus": "/static/audio/wordpool/FRAME.wav", "conditions": [18, 1200, "a", 18000], "internal_node_id": "0.0-49.0", "trial": 1, "time_elapsed": 387742, "serialpos": 12, "key_press": -1, "wordID": 599, "type": "PRES_AUD", "trial_index": 67}, "uniqueid": "MTK1997:3A0EX8ZRN9V2XMK7FM7284A89GJBYP", "dateTime": 1516643945525}, {"current_trial": 68, "trialdata": {"rt": -1000, "trial_type": "single-audio", "word": "zebra", "stimulus": "/static/audio/wordpool/ZEBRA.wav", "conditions": [18, 1200, "a", 18000], "internal_node_id": "0.0-50.0", "trial": 1, "time_elapsed": 390109, "serialpos": 13, "key_press": -1, "wordID": 1634, "type": "PRES_AUD", "trial_index": 68}, "uniqueid": "MTK1997:3A0EX8ZRN9V2XMK7FM7284A89GJBYP", "dateTime": 1516643947892}, {"current_trial": 69, "trialdata": {"rt": -1000, "trial_type": "single-audio", "word": "stamp", "stimulus": "/static/audio/wordpool/STAMP.wav", "conditions": [18, 1200, "a", 18000], "internal_node_id": "0.0-51.0", "trial": 1, "time_elapsed": 392483, "serialpos": 14, "key_press": -1, "wordID": 1369, "type": "PRES_AUD", "trial_index": 69}, "uniqueid": "MTK1997:3A0EX8ZRN9V2XMK7FM7284A89GJBYP", "dateTime": 1516643950266}, {"current_trial": 70, "trialdata": {"rt": -1000, "trial_type": "single-audio", "word": "tractor", "stimulus": "/static/audio/wordpool/TRACTOR.wav", "conditions": [18, 1200, "a", 18000], "internal_node_id": "0.0-52.0", "trial": 1, "time_elapsed": 394862, "serialpos": 15, "key_press": -1, "wordID": 1492, "type": "PRES_AUD", "trial_index": 70}, "uniqueid": "MTK1997:3A0EX8ZRN9V2XMK7FM7284A89GJBYP", "dateTime": 1516643952645}, {"current_trial": 71, "trialdata": {"rt": -1000, "trial_type": "single-audio", "word": "rabbit", "stimulus": "/static/audio/wordpool/RABBIT.wav", "conditions": [18, 1200, "a", 18000], "internal_node_id": "0.0-53.0", "trial": 1, "time_elapsed": 397135, "serialpos": 16, "key_press": -1, "wordID": 1151, "type": "PRES_AUD", "trial_index": 71}, "uniqueid": "MTK1997:3A0EX8ZRN9V2XMK7FM7284A89GJBYP", "dateTime": 1516643954918}, {"current_trial": 72, "trialdata": {"rt": -1000, "trial_type": "single-audio", "word": "coffee", "stimulus": "/static/audio/wordpool/COFFEE.wav", "conditions": [18, 1200, "a", 18000], "internal_node_id": "0.0-54.0", "trial": 1, "time_elapsed": 399270, "serialpos": 17, "key_press": -1, "wordID": 340, "type": "PRES_AUD", "trial_index": 72}, "uniqueid": "MTK1997:3A0EX8ZRN9V2XMK7FM7284A89GJBYP", "dateTime": 1516643957053}, {"current_trial": 73, "trialdata": {"rt": -1, "trial_type": "single-stim", "stimulus": "", "internal_node_id": "0.0-55.0-0.0", "time_elapsed": 400663, "key_press": -1, "type": "PRE_RECALL_DELAY", "trial_index": 73}, "uniqueid": "MTK1997:3A0EX8ZRN9V2XMK7FM7284A89GJBYP", "dateTime": 1516643958446}, {"current_trial": 74, "trialdata": {"rt": -1000, "trial_type": "single-audio", "stimulus": "/static/audio/400Hz.wav", "internal_node_id": "0.0-56.0", "time_elapsed": 401164, "key_press": -1, "type": "PRE_RECALL_ALERT", "trial_index": 74}, "uniqueid": "MTK1997:3A0EX8ZRN9V2XMK7FM7284A89GJBYP", "dateTime": 1516643958947}, {"current_trial": 75, "trialdata": {"rt": [2011, 5563, 9587, 11947, 13171, 16595, 25898, 33114], "recwords": ["rabbit", "coffee", "cobra", "postage", "stamp", "swamp", "tractor", "sunset"], "key_times": [1051, 1203, 1499, 1659, 1779, 1883, 2011, 3075, 3203, 3403, 3603, 4123, 4683, 5563, 8027, 8243, 8363, 8603, 8747, 9587, 10139, 10331, 10763, 10963, 11083, 11467, 11468, 11947, 12259, 12355, 12499, 12683, 12915, 13171, 14691, 15011, 15131, 15635, 16251, 16595, 18955, 19115, 19435, 20419, 23171, 23339, 23811, 24019, 24115, 24443, 24810, 25322, 25386, 25898, 31810, 31970, 32226, 32514, 32698, 32818, 33114], "trial_type": "free-recall", "conditions": [18, 1200, "a", 18000], "internal_node_id": "0.0-57.0-0.0", "key_presses": [82, 65, 66, 66, 73, 84, 32, 67, 79, 70, 70, 69, 69, 13, 67, 79, 66, 82, 65, 13, 80, 79, 83, 84, 65, 71, 69, 13, 83, 84, 65, 77, 80, 13, 83, 87, 65, 77, 80, 13, 82, 65, 66, 8, 8, 8, 84, 82, 65, 67, 84, 79, 82, 13, 83, 85, 78, 83, 69, 84, 13], "trial": 1, "time_elapsed": 461167, "type": "FREE_RECALL", "trial_index": 75}, "uniqueid": "MTK1997:3A0EX8ZRN9V2XMK7FM7284A89GJBYP", "dateTime": 1516644018951}, {"current_trial": 76, "trialdata": {"rt": 2143, "trial_type": "text", "internal_node_id": "0.0-58.0", "time_elapsed": 465312, "key_press": 13, "type": "INSTRUCTIONS", "trial_index": 76}, "uniqueid": "MTK1997:3A0EX8ZRN9V2XMK7FM7284A89GJBYP", "dateTime": 1516644023095}, {"current_trial": 77, "trialdata": {"rt": [3174, 6558, 8742, 11270, 13150, 14718, 16895, 18430, 20022, 21910, 23798], "trial_type": "math-distractor", "key_times": [2639, 2895, 3174, 4318, 4583, 5958, 6375, 6558, 8238, 8503, 8742, 10775, 11038, 11270, 12366, 12702, 13150, 14486, 14718, 16478, 16686, 16895, 17982, 18214, 18430, 19598, 19790, 20022, 21438, 21654, 21910, 23382, 23566, 23798], "responses": ["17", "18", "19", "17", "14", "8", "14", "18", "12", "14", "16"], "num2": [3, 4, 6, 6, 8, 5, 5, 2, 5, 4, 5, 5], "num3": [9, 7, 8, 4, 4, 2, 7, 8, 3, 6, 6, 6], "conditions": [12, 800, "a", 24000], "internal_node_id": "0.0-59.0", "key_presses": [97, 103, 13, 97, 105, 8, 104, 13, 97, 105, 13, 97, 103, 13, 97, 100, 13, 104, 13, 97, 100, 13, 97, 104, 13, 97, 98, 13, 97, 100, 13, 97, 102, 13], "trial": 2, "time_elapsed": 490314, "type": "DISTRACTOR", "trial_index": 77, "num1": [5, 7, 5, 7, 2, 1, 2, 8, 4, 4, 5, 4]}, "uniqueid": "MTK1997:3A0EX8ZRN9V2XMK7FM7284A89GJBYP", "dateTime": 1516644048097}, {"current_trial": 78, "trialdata": {"rt": -1, "trial_type": "single-stim", "stimulus": "<p id=\"stim\">10</p>", "internal_node_id": "0.0-60.0-0.0", "time_elapsed": 493316, "key_press": -1, "trial_index": 78}, "uniqueid": "MTK1997:3A0EX8ZRN9V2XMK7FM7284A89GJBYP", "dateTime": 1516644051099}, {"current_trial": 79, "trialdata": {"rt": -1, "trial_type": "single-stim", "stimulus": "<p id=\"stim\">9</p>", "internal_node_id": "0.0-60.0-1.0", "time_elapsed": 494317, "key_press": -1, "trial_index": 79}, "uniqueid": "MTK1997:3A0EX8ZRN9V2XMK7FM7284A89GJBYP", "dateTime": 1516644052100}, {"current_trial": 80, "trialdata": {"rt": -1, "trial_type": "single-stim", "stimulus": "<p id=\"stim\">8</p>", "internal_node_id": "0.0-60.0-2.0", "time_elapsed": 495318, "key_press": -1, "trial_index": 80}, "uniqueid": "MTK1997:3A0EX8ZRN9V2XMK7FM7284A89GJBYP", "dateTime": 1516644053101}, {"current_trial": 81, "trialdata": {"rt": -1, "trial_type": "single-stim", "stimulus": "<p id=\"stim\">7</p>", "internal_node_id": "0.0-60.0-3.0", "time_elapsed": 496319, "key_press": -1, "trial_index": 81}, "uniqueid": "MTK1997:3A0EX8ZRN9V2XMK7FM7284A89GJBYP", "dateTime": 1516644054102}, {"current_trial": 82, "trialdata": {"rt": -1, "trial_type": "single-stim", "stimulus": "<p id=\"stim\">6</p>", "internal_node_id": "0.0-60.0-4.0", "time_elapsed": 497320, "key_press": -1, "trial_index": 82}, "uniqueid": "MTK1997:3A0EX8ZRN9V2XMK7FM7284A89GJBYP", "dateTime": 1516644055104}, {"current_trial": 83, "trialdata": {"rt": -1, "trial_type": "single-stim", "stimulus": "<p id=\"stim\">5</p>", "internal_node_id": "0.0-60.0-5.0", "time_elapsed": 498322, "key_press": -1, "trial_index": 83}, "uniqueid": "MTK1997:3A0EX8ZRN9V2XMK7FM7284A89GJBYP", "dateTime": 1516644056105}, {"current_trial": 84, "trialdata": {"rt": -1, "trial_type": "single-stim", "stimulus": "<p id=\"stim\">4</p>", "internal_node_id": "0.0-60.0-6.0", "time_elapsed": 499323, "key_press": -1, "trial_index": 84}, "uniqueid": "MTK1997:3A0EX8ZRN9V2XMK7FM7284A89GJBYP", "dateTime": 1516644057106}, {"current_trial": 85, "trialdata": {"rt": -1, "trial_type": "single-stim", "stimulus": "<p id=\"stim\">3</p>", "internal_node_id": "0.0-60.0-7.0", "time_elapsed": 500324, "key_press": -1, "trial_index": 85}, "uniqueid": "MTK1997:3A0EX8ZRN9V2XMK7FM7284A89GJBYP", "dateTime": 1516644058107}, {"current_trial": 86, "trialdata": {"rt": -1, "trial_type": "single-stim", "stimulus": "<p id=\"stim\">2</p>", "internal_node_id": "0.0-60.0-8.0", "time_elapsed": 501325, "key_press": -1, "trial_index": 86}, "uniqueid": "MTK1997:3A0EX8ZRN9V2XMK7FM7284A89GJBYP", "dateTime": 1516644059109}, {"current_trial": 87, "trialdata": {"rt": -1, "trial_type": "single-stim", "stimulus": "<p id=\"stim\">1</p>", "internal_node_id": "0.0-60.0-9.0", "time_elapsed": 502326, "key_press": -1, "trial_index": 87}, "uniqueid": "MTK1997:3A0EX8ZRN9V2XMK7FM7284A89GJBYP", "dateTime": 1516644060110}, {"current_trial": 88, "trialdata": {"rt": -1, "trial_type": "single-stim", "stimulus": "<p id=\"stim\">+</p>", "internal_node_id": "0.0-61.0-0.0", "time_elapsed": 503828, "key_press": -1, "type": "FIXATION", "trial_index": 88}, "uniqueid": "MTK1997:3A0EX8ZRN9V2XMK7FM7284A89GJBYP", "dateTime": 1516644061611}, {"current_trial": 89, "trialdata": {"rt": -1000, "trial_type": "single-audio", "word": "widow", "stimulus": "/static/audio/wordpool/WIDOW.wav", "conditions": [12, 800, "a", 24000], "internal_node_id": "0.0-62.0", "trial": 2, "time_elapsed": 505605, "serialpos": 0, "key_press": -1, "wordID": 1607, "type": "PRES_AUD", "trial_index": 89}, "uniqueid": "MTK1997:3A0EX8ZRN9V2XMK7FM7284A89GJBYP", "dateTime": 1516644063388}, {"current_trial": 90, "trialdata": {"rt": -1000, "trial_type": "single-audio", "word": "banjo", "stimulus": "/static/audio/wordpool/BANJO.wav", "conditions": [12, 800, "a", 24000], "internal_node_id": "0.0-63.0", "trial": 2, "time_elapsed": 507362, "serialpos": 1, "key_press": -1, "wordID": 81, "type": "PRES_AUD", "trial_index": 90}, "uniqueid": "MTK1997:3A0EX8ZRN9V2XMK7FM7284A89GJBYP", "dateTime": 1516644065145}, {"current_trial": 91, "trialdata": {"rt": -1000, "trial_type": "single-audio", "word": "beef", "stimulus": "/static/audio/wordpool/BEEF.wav", "conditions": [12, 800, "a", 24000], "internal_node_id": "0.0-64.0", "trial": 2, "time_elapsed": 509085, "serialpos": 2, "key_press": -1, "wordID": 112, "type": "PRES_AUD", "trial_index": 91}, "uniqueid": "MTK1997:3A0EX8ZRN9V2XMK7FM7284A89GJBYP", "dateTime": 1516644066868}, {"current_trial": 92, "trialdata": {"rt": -1000, "trial_type": "single-audio", "word": "pork", "stimulus": "/static/audio/wordpool/PORK.wav", "conditions": [12, 800, "a", 24000], "internal_node_id": "0.0-65.0", "trial": 2, "time_elapsed": 510782, "serialpos": 3, "key_press": -1, "wordID": 1107, "type": "PRES_AUD", "trial_index": 92}, "uniqueid": "MTK1997:3A0EX8ZRN9V2XMK7FM7284A89GJBYP", "dateTime": 1516644068565}, {"current_trial": 93, "trialdata": {"rt": -1000, "trial_type": "single-audio", "word": "critic", "stimulus": "/static/audio/wordpool/CRITIC.wav", "conditions": [12, 800, "a", 24000], "internal_node_id": "0.0-66.0", "trial": 2, "time_elapsed": 512692, "serialpos": 4, "key_press": -1, "wordID": 409, "type": "PRES_AUD", "trial_index": 93}, "uniqueid": "MTK1997:3A0EX8ZRN9V2XMK7FM7284A89GJBYP", "dateTime": 1516644070475}, {"current_trial": 94, "trialdata": {"rt": -1000, "trial_type": "single-audio", "word": "hand", "stimulus": "/static/audio/wordpool/HAND.wav", "conditions": [12, 800, "a", 24000], "internal_node_id": "0.0-67.0", "trial": 2, "time_elapsed": 514480, "serialpos": 5, "key_press": -1, "wordID": 682, "type": "PRES_AUD", "trial_index": 94}, "uniqueid": "MTK1997:3A0EX8ZRN9V2XMK7FM7284A89GJBYP", "dateTime": 1516644072263}, {"current_trial": 95, "trialdata": {"rt": -1000, "trial_type": "single-audio", "word": "transplant", "stimulus": "/static/audio/wordpool/TRANSPLANT.wav", "conditions": [12, 800, "a", 24000], "internal_node_id": "0.0-68.0", "trial": 2, "time_elapsed": 516267, "serialpos": 6, "key_press": -1, "wordID": 1495, "type": "PRES_AUD", "trial_index": 95}, "uniqueid": "MTK1997:3A0EX8ZRN9V2XMK7FM7284A89GJBYP", "dateTime": 1516644074050}, {"current_trial": 96, "trialdata": {"rt": -1000, "trial_type": "single-audio", "word": "ghetto", "stimulus": "/static/audio/wordpool/GHETTO.wav", "conditions": [12, 800, "a", 24000], "internal_node_id": "0.0-69.0", "trial": 2, "time_elapsed": 517975, "serialpos": 7, "key_press": -1, "wordID": 632, "type": "PRES_AUD", "trial_index": 96}, "uniqueid": "MTK1997:3A0EX8ZRN9V2XMK7FM7284A89GJBYP", "dateTime": 1516644075758}, {"current_trial": 97, "trialdata": {"rt": -1000, "trial_type": "single-audio", "word": "uncle", "stimulus": "/static/audio/wordpool/UNCLE.wav", "conditions": [12, 800, "a", 24000], "internal_node_id": "0.0-70.0", "trial": 2, "time_elapsed": 519672, "serialpos": 8, "key_press": -1, "wordID": 1535, "type": "PRES_AUD", "trial_index": 97}, "uniqueid": "MTK1997:3A0EX8ZRN9V2XMK7FM7284A89GJBYP", "dateTime": 1516644077455}, {"current_trial": 98, "trialdata": {"rt": -1000, "trial_type": "single-audio", "word": "woman", "stimulus": "/static/audio/wordpool/WOMAN.wav", "conditions": [12, 800, "a", 24000], "internal_node_id": "0.0-71.0", "trial": 2, "time_elapsed": 521490, "serialpos": 9, "key_press": -1, "wordID": 1619, "type": "PRES_AUD", "trial_index": 98}, "uniqueid": "MTK1997:3A0EX8ZRN9V2XMK7FM7284A89GJBYP", "dateTime": 1516644079273}, {"current_trial": 99, "trialdata": {"rt": -1000, "trial_type": "single-audio", "word": "liver", "stimulus": "/static/audio/wordpool/LIVER.wav", "conditions": [12, 800, "a", 24000], "internal_node_id": "0.0-72.0", "trial": 2, "time_elapsed": 523131, "serialpos": 10, "key_press": -1, "wordID": 832, "type": "PRES_AUD", "trial_index": 99}, "uniqueid": "MTK1997:3A0EX8ZRN9V2XMK7FM7284A89GJBYP", "dateTime": 1516644080914}, {"current_trial": 100, "trialdata": {"rt": -1000, "trial_type": "single-audio", "word": "husband", "stimulus": "/static/audio/wordpool/HUSBAND.wav", "conditions": [12, 800, "a", 24000], "internal_node_id": "0.0-73.0", "trial": 2, "time_elapsed": 524736, "serialpos": 11, "key_press": -1, "wordID": 727, "type": "PRES_AUD", "trial_index": 100}, "uniqueid": "MTK1997:3A0EX8ZRN9V2XMK7FM7284A89GJBYP", "dateTime": 1516644082519}, {"current_trial": 101, "trialdata": {"rt": -1, "trial_type": "single-stim", "stimulus": "", "internal_node_id": "0.0-74.0-0.0", "time_elapsed": 525988, "key_press": -1, "type": "PRE_RECALL_DELAY", "trial_index": 101}, "uniqueid": "MTK1997:3A0EX8ZRN9V2XMK7FM7284A89GJBYP", "dateTime": 1516644083771}, {"current_trial": 102, "trialdata": {"rt": -1000, "trial_type": "single-audio", "stimulus": "/static/audio/400Hz.wav", "internal_node_id": "0.0-75.0", "time_elapsed": 526489, "key_press": -1, "type": "PRE_RECALL_ALERT", "trial_index": 102}, "uniqueid": "MTK1997:3A0EX8ZRN9V2XMK7FM7284A89GJBYP", "dateTime": 1516644084272}, {"current_trial": 103, "trialdata": {"rt": [2653, 5205, 8677, 14925, 16869, 19029, 20477], "recwords": ["liver", "husband", "widow", "transplant", "hand", "beef", "pork"], "key_times": [1693, 1941, 2037, 2229, 2309, 2653, 3461, 3661, 4045, 4557, 4701, 4853, 4997, 5205, 5677, 5765, 5933, 6373, 6517, 6685, 7005, 7405, 7557, 7725, 8077, 8677, 10677, 10869, 11045, 11373, 12013, 13205, 13421, 13557, 13741, 13869, 14925, 15661, 15813, 15957, 16069, 16869, 17325, 17637, 17837, 18245, 19029, 19445, 19637, 19781, 19949, 20477], "trial_type": "free-recall", "conditions": [12, 800, "a", 24000], "internal_node_id": "0.0-76.0-0.0", "key_presses": [76, 73, 86, 69, 82, 13, 72, 85, 83, 66, 65, 78, 68, 13, 86, 73, 68, 8, 8, 8, 87, 73, 68, 79, 87, 13, 84, 82, 65, 78, 83, 80, 76, 65, 78, 84, 13, 72, 65, 78, 68, 13, 66, 69, 69, 70, 13, 80, 79, 82, 75, 13], "trial": 2, "time_elapsed": 586492, "type": "FREE_RECALL", "trial_index": 103}, "uniqueid": "MTK1997:3A0EX8ZRN9V2XMK7FM7284A89GJBYP", "dateTime": 1516644144276}, {"current_trial": 104, "trialdata": {"rt": 2177, "trial_type": "text", "internal_node_id": "0.0-77.0", "time_elapsed": 590671, "key_press": 13, "type": "INSTRUCTIONS", "trial_index": 104}, "uniqueid": "MTK1997:3A0EX8ZRN9V2XMK7FM7284A89GJBYP", "dateTime": 1516644148454}, {"current_trial": 105, "trialdata": {"rt": [2014, 10005], "trial_type": "math-distractor", "key_times": [1566, 1749, 2014, 7045, 9717, 10005], "responses": ["15", "24"], "num2": [5, 8, 3], "num3": [5, 9, 9], "conditions": [24, 1600, "a", 12000], "internal_node_id": "0.0-78.0", "key_presses": [97, 101, 13, 98, 100, 13], "trial": 3, "time_elapsed": 604674, "type": "DISTRACTOR", "trial_index": 105, "num1": [5, 7, 8]}, "uniqueid": "MTK1997:3A0EX8ZRN9V2XMK7FM7284A89GJBYP", "dateTime": 1516644162457}, {"current_trial": 106, "trialdata": {"rt": -1, "trial_type": "single-stim", "stimulus": "<p id=\"stim\">10</p>", "internal_node_id": "0.0-79.0-0.0", "time_elapsed": 607676, "key_press": -1, "trial_index": 106}, "uniqueid": "MTK1997:3A0EX8ZRN9V2XMK7FM7284A89GJBYP", "dateTime": 1516644165459}, {"current_trial": 107, "trialdata": {"rt": -1, "trial_type": "single-stim", "stimulus": "<p id=\"stim\">9</p>", "internal_node_id": "0.0-79.0-1.0", "time_elapsed": 608677, "key_press": -1, "trial_index": 107}, "uniqueid": "MTK1997:3A0EX8ZRN9V2XMK7FM7284A89GJBYP", "dateTime": 1516644166460}, {"current_trial": 108, "trialdata": {"rt": -1, "trial_type": "single-stim", "stimulus": "<p id=\"stim\">8</p>", "internal_node_id": "0.0-79.0-2.0", "time_elapsed": 609678, "key_press": -1, "trial_index": 108}, "uniqueid": "MTK1997:3A0EX8ZRN9V2XMK7FM7284A89GJBYP", "dateTime": 1516644167461}, {"current_trial": 109, "trialdata": {"rt": -1, "trial_type": "single-stim", "stimulus": "<p id=\"stim\">7</p>", "internal_node_id": "0.0-79.0-3.0", "time_elapsed": 610679, "key_press": -1, "trial_index": 109}, "uniqueid": "MTK1997:3A0EX8ZRN9V2XMK7FM7284A89GJBYP", "dateTime": 1516644168462}, {"current_trial": 110, "trialdata": {"rt": -1, "trial_type": "single-stim", "stimulus": "<p id=\"stim\">6</p>", "internal_node_id": "0.0-79.0-4.0", "time_elapsed": 611680, "key_press": -1, "trial_index": 110}, "uniqueid": "MTK1997:3A0EX8ZRN9V2XMK7FM7284A89GJBYP", "dateTime": 1516644169463}, {"current_trial": 111, "trialdata": {"rt": -1, "trial_type": "single-stim", "stimulus": "<p id=\"stim\">5</p>", "internal_node_id": "0.0-79.0-5.0", "time_elapsed": 612681, "key_press": -1, "trial_index": 111}, "uniqueid": "MTK1997:3A0EX8ZRN9V2XMK7FM7284A89GJBYP", "dateTime": 1516644170464}, {"current_trial": 112, "trialdata": {"rt": -1, "trial_type": "single-stim", "stimulus": "<p id=\"stim\">4</p>", "internal_node_id": "0.0-79.0-6.0", "time_elapsed": 613682, "key_press": -1, "trial_index": 112}, "uniqueid": "MTK1997:3A0EX8ZRN9V2XMK7FM7284A89GJBYP", "dateTime": 1516644171465}, {"current_trial": 113, "trialdata": {"rt": -1, "trial_type": "single-stim", "stimulus": "<p id=\"stim\">3</p>", "internal_node_id": "0.0-79.0-7.0", "time_elapsed": 614683, "key_press": -1, "trial_index": 113}, "uniqueid": "MTK1997:3A0EX8ZRN9V2XMK7FM7284A89GJBYP", "dateTime": 1516644172466}, {"current_trial": 114, "trialdata": {"rt": -1, "trial_type": "single-stim", "stimulus": "<p id=\"stim\">2</p>", "internal_node_id": "0.0-79.0-8.0", "time_elapsed": 615684, "key_press": -1, "trial_index": 114}, "uniqueid": "MTK1997:3A0EX8ZRN9V2XMK7FM7284A89GJBYP", "dateTime": 1516644173467}, {"current_trial": 115, "trialdata": {"rt": -1, "trial_type": "single-stim", "stimulus": "<p id=\"stim\">1</p>", "internal_node_id": "0.0-79.0-9.0", "time_elapsed": 616685, "key_press": -1, "trial_index": 115}, "uniqueid": "MTK1997:3A0EX8ZRN9V2XMK7FM7284A89GJBYP", "dateTime": 1516644174468}, {"current_trial": 116, "trialdata": {"rt": -1, "trial_type": "single-stim", "stimulus": "<p id=\"stim\">+</p>", "internal_node_id": "0.0-80.0-0.0", "time_elapsed": 618187, "key_press": -1, "type": "FIXATION", "trial_index": 116}, "uniqueid": "MTK1997:3A0EX8ZRN9V2XMK7FM7284A89GJBYP", "dateTime": 1516644175970}, {"current_trial": 117, "trialdata": {"rt": -1000, "trial_type": "single-audio", "word": "elbow", "stimulus": "/static/audio/wordpool/ELBOW.wav", "conditions": [24, 1600, "a", 12000], "internal_node_id": "0.0-81.0", "trial": 3, "time_elapsed": 620712, "serialpos": 0, "key_press": -1, "wordID": 519, "type": "PRES_AUD", "trial_index": 117}, "uniqueid": "MTK1997:3A0EX8ZRN9V2XMK7FM7284A89GJBYP", "dateTime": 1516644178495}, {"current_trial": 118, "trialdata": {"rt": -1000, "trial_type": "single-audio", "word": "shirt", "stimulus": "/static/audio/wordpool/SHIRT.wav", "conditions": [24, 1600, "a", 12000], "internal_node_id": "0.0-82.0", "trial": 3, "time_elapsed": 623480, "serialpos": 1, "key_press": -1, "wordID": 1286, "type": "PRES_AUD", "trial_index": 118}, "uniqueid": "MTK1997:3A0EX8ZRN9V2XMK7FM7284A89GJBYP", "dateTime": 1516644181263}, {"current_trial": 119, "trialdata": {"rt": -1000, "trial_type": "single-audio", "word": "turnip", "stimulus": "/static/audio/wordpool/TURNIP.wav", "conditions": [24, 1600, "a", 12000], "internal_node_id": "0.0-83.0", "trial": 3, "time_elapsed": 626114, "serialpos": 2, "key_press": -1, "wordID": 1520, "type": "PRES_AUD", "trial_index": 119}, "uniqueid": "MTK1997:3A0EX8ZRN9V2XMK7FM7284A89GJBYP", "dateTime": 1516644183898}, {"current_trial": 120, "trialdata": {"rt": -1000, "trial_type": "single-audio", "word": "pepper", "stimulus": "/static/audio/wordpool/PEPPER.wav", "conditions": [24, 1600, "a", 12000], "internal_node_id": "0.0-84.0", "trial": 3, "time_elapsed": 628623, "serialpos": 3, "key_press": -1, "wordID": 1046, "type": "PRES_AUD", "trial_index": 120}, "uniqueid": "MTK1997:3A0EX8ZRN9V2XMK7FM7284A89GJBYP", "dateTime": 1516644186406}, {"current_trial": 121, "trialdata": {"rt": -1000, "trial_type": "single-audio", "word": "passage", "stimulus": "/static/audio/wordpool/PASSAGE.wav", "conditions": [24, 1600, "a", 12000], "internal_node_id": "0.0-85.0", "trial": 3, "time_elapsed": 631210, "serialpos": 4, "key_press": -1, "wordID": 1018, "type": "PRES_AUD", "trial_index": 121}, "uniqueid": "MTK1997:3A0EX8ZRN9V2XMK7FM7284A89GJBYP", "dateTime": 1516644188993}, {"current_trial": 122, "trialdata": {"rt": -1000, "trial_type": "single-audio", "word": "ointment", "stimulus": "/static/audio/wordpool/OINTMENT.wav", "conditions": [24, 1600, "a", 12000], "internal_node_id": "0.0-86.0", "trial": 3, "time_elapsed": 633881, "serialpos": 5, "key_press": -1, "wordID": 973, "type": "PRES_AUD", "trial_index": 122}, "uniqueid": "MTK1997:3A0EX8ZRN9V2XMK7FM7284A89GJBYP", "dateTime": 1516644191664}, {"current_trial": 123, "trialdata": {"rt": -1000, "trial_type": "single-audio", "word": "briefcase", "stimulus": "/static/audio/wordpool/BRIEFCASE.wav", "conditions": [24, 1600, "a", 12000], "internal_node_id": "0.0-87.0", "trial": 3, "time_elapsed": 636412, "serialpos": 6, "key_press": -1, "wordID": 174, "type": "PRES_AUD", "trial_index": 123}, "uniqueid": "MTK1997:3A0EX8ZRN9V2XMK7FM7284A89GJBYP", "dateTime": 1516644194195}, {"current_trial": 124, "trialdata": {"rt": -1000, "trial_type": "single-audio", "word": "onion", "stimulus": "/static/audio/wordpool/ONION.wav", "conditions": [24, 1600, "a", 12000], "internal_node_id": "0.0-88.0", "trial": 3, "time_elapsed": 639155, "serialpos": 7, "key_press": -1, "wordID": 976, "type": "PRES_AUD", "trial_index": 124}, "uniqueid": "MTK1997:3A0EX8ZRN9V2XMK7FM7284A89GJBYP", "dateTime": 1516644196938}, {"current_trial": 125, "trialdata": {"rt": -1000, "trial_type": "single-audio", "word": "globe", "stimulus": "/static/audio/wordpool/GLOBE.wav", "conditions": [24, 1600, "a", 12000], "internal_node_id": "0.0-89.0", "trial": 3, "time_elapsed": 641881, "serialpos": 8, "key_press": -1, "wordID": 640, "type": "PRES_AUD", "trial_index": 125}, "uniqueid": "MTK1997:3A0EX8ZRN9V2XMK7FM7284A89GJBYP", "dateTime": 1516644199664}, {"current_trial": 126, "trialdata": {"rt": -1000, "trial_type": "single-audio", "word": "world", "stimulus": "/static/audio/wordpool/WORLD.wav", "conditions": [24, 1600, "a", 12000], "internal_node_id": "0.0-90.0", "trial": 3, "time_elapsed": 644431, "serialpos": 9, "key_press": -1, "wordID": 1621, "type": "PRES_AUD", "trial_index": 126}, "uniqueid": "MTK1997:3A0EX8ZRN9V2XMK7FM7284A89GJBYP", "dateTime": 1516644202214}, {"current_trial": 127, "trialdata": {"rt": -1000, "trial_type": "single-audio", "word": "velvet", "stimulus": "/static/audio/wordpool/VELVET.wav", "conditions": [24, 1600, "a", 12000], "internal_node_id": "0.0-91.0", "trial": 3, "time_elapsed": 647125, "serialpos": 10, "key_press": -1, "wordID": 1554, "type": "PRES_AUD", "trial_index": 127}, "uniqueid": "MTK1997:3A0EX8ZRN9V2XMK7FM7284A89GJBYP", "dateTime": 1516644204908}, {"current_trial": 128, "trialdata": {"rt": -1000, "trial_type": "single-audio", "word": "outlaw", "stimulus": "/static/audio/wordpool/OUTLAW.wav", "conditions": [24, 1600, "a", 12000], "internal_node_id": "0.0-92.0", "trial": 3, "time_elapsed": 649667, "serialpos": 11, "key_press": -1, "wordID": 988, "type": "PRES_AUD", "trial_index": 128}, "uniqueid": "MTK1997:3A0EX8ZRN9V2XMK7FM7284A89GJBYP", "dateTime": 1516644207450}, {"current_trial": 129, "trialdata": {"rt": -1000, "trial_type": "single-audio", "word": "nurse", "stimulus": "/static/audio/wordpool/NURSE.wav", "conditions": [24, 1600, "a", 12000], "internal_node_id": "0.0-93.0", "trial": 3, "time_elapsed": 652427, "serialpos": 12, "key_press": -1, "wordID": 962, "type": "PRES_AUD", "trial_index": 129}, "uniqueid": "MTK1997:3A0EX8ZRN9V2XMK7FM7284A89GJBYP", "dateTime": 1516644210210}, {"current_trial": 130, "trialdata": {"rt": -1000, "trial_type": "single-audio", "word": "omelet", "stimulus": "/static/audio/wordpool/OMELET.wav", "conditions": [24, 1600, "a", 12000], "internal_node_id": "0.0-94.0", "trial": 3, "time_elapsed": 655039, "serialpos": 13, "key_press": -1, "wordID": 975, "type": "PRES_AUD", "trial_index": 130}, "uniqueid": "MTK1997:3A0EX8ZRN9V2XMK7FM7284A89GJBYP", "dateTime": 1516644212822}, {"current_trial": 131, "trialdata": {"rt": -1000, "trial_type": "single-audio", "word": "hood", "stimulus": "/static/audio/wordpool/HOOD.wav", "conditions": [24, 1600, "a", 12000], "internal_node_id": "0.0-95.0", "trial": 3, "time_elapsed": 657776, "serialpos": 14, "key_press": -1, "wordID": 713, "type": "PRES_AUD", "trial_index": 131}, "uniqueid": "MTK1997:3A0EX8ZRN9V2XMK7FM7284A89GJBYP", "dateTime": 1516644215559}, {"current_trial": 132, "trialdata": {"rt": -1000, "trial_type": "single-audio", "word": "ankle", "stimulus": "/static/audio/wordpool/ANKLE.wav", "conditions": [24, 1600, "a", 12000], "internal_node_id": "0.0-96.0", "trial": 3, "time_elapsed": 660314, "serialpos": 15, "key_press": -1, "wordID": 23, "type": "PRES_AUD", "trial_index": 132}, "uniqueid": "MTK1997:3A0EX8ZRN9V2XMK7FM7284A89GJBYP", "dateTime": 1516644218097}, {"current_trial": 133, "trialdata": {"rt": -1000, "trial_type": "single-audio", "word": "jungle", "stimulus": "/static/audio/wordpool/JUNGLE.wav", "conditions": [24, 1600, "a", 12000], "internal_node_id": "0.0-97.0", "trial": 3, "time_elapsed": 662828, "serialpos": 16, "key_press": -1, "wordID": 763, "type": "PRES_AUD", "trial_index": 133}, "uniqueid": "MTK1997:3A0EX8ZRN9V2XMK7FM7284A89GJBYP", "dateTime": 1516644220611}, {"current_trial": 134, "trialdata": {"rt": -1000, "trial_type": "single-audio", "word": "spider", "stimulus": "/static/audio/wordpool/SPIDER.wav", "conditions": [24, 1600, "a", 12000], "internal_node_id": "0.0-98.0", "trial": 3, "time_elapsed": 665373, "serialpos": 17, "key_press": -1, "wordID": 1350, "type": "PRES_AUD", "trial_index": 134}, "uniqueid": "MTK1997:3A0EX8ZRN9V2XMK7FM7284A89GJBYP", "dateTime": 1516644223156}, {"current_trial": 135, "trialdata": {"rt": -1000, "trial_type": "single-audio", "word": "creature", "stimulus": "/static/audio/wordpool/CREATURE.wav", "conditions": [24, 1600, "a", 12000], "internal_node_id": "0.0-99.0", "trial": 3, "time_elapsed": 667857, "serialpos": 18, "key_press": -1, "wordID": 402, "type": "PRES_AUD", "trial_index": 135}, "uniqueid": "MTK1997:3A0EX8ZRN9V2XMK7FM7284A89GJBYP", "dateTime": 1516644225640}, {"current_trial": 136, "trialdata": {"rt": -1000, "trial_type": "single-audio", "word": "daisy", "stimulus": "/static/audio/wordpool/DAISY.wav", "conditions": [24, 1600, "a", 12000], "internal_node_id": "0.0-100.0", "trial": 3, "time_elapsed": 670308, "serialpos": 19, "key_press": -1, "wordID": 434, "type": "PRES_AUD", "trial_index": 136}, "uniqueid": "MTK1997:3A0EX8ZRN9V2XMK7FM7284A89GJBYP", "dateTime": 1516644228091}, {"current_trial": 137, "trialdata": {"rt": -1000, "trial_type": "single-audio", "word": "patient", "stimulus": "/static/audio/wordpool/PATIENT.wav", "conditions": [24, 1600, "a", 12000], "internal_node_id": "0.0-101.0", "trial": 3, "time_elapsed": 672828, "serialpos": 20, "key_press": -1, "wordID": 1023, "type": "PRES_AUD", "trial_index": 137}, "uniqueid": "MTK1997:3A0EX8ZRN9V2XMK7FM7284A89GJBYP", "dateTime": 1516644230611}, {"current_trial": 138, "trialdata": {"rt": -1000, "trial_type": "single-audio", "word": "primate", "stimulus": "/static/audio/wordpool/PRIMATE.wav", "conditions": [24, 1600, "a", 12000], "internal_node_id": "0.0-102.0", "trial": 3, "time_elapsed": 675287, "serialpos": 21, "key_press": -1, "wordID": 1122, "type": "PRES_AUD", "trial_index": 138}, "uniqueid": "MTK1997:3A0EX8ZRN9V2XMK7FM7284A89GJBYP", "dateTime": 1516644233070}, {"current_trial": 139, "trialdata": {"rt": -1000, "trial_type": "single-audio", "word": "river", "stimulus": "/static/audio/wordpool/RIVER.wav", "conditions": [24, 1600, "a", 12000], "internal_node_id": "0.0-103.0", "trial": 3, "time_elapsed": 677855, "serialpos": 22, "key_press": -1, "wordID": 1193, "type": "PRES_AUD", "trial_index": 139}, "uniqueid": "MTK1997:3A0EX8ZRN9V2XMK7FM7284A89GJBYP", "dateTime": 1516644235638}, {"current_trial": 140, "trialdata": {"rt": -1000, "trial_type": "single-audio", "word": "tribe", "stimulus": "/static/audio/wordpool/TRIBE.wav", "conditions": [24, 1600, "a", 12000], "internal_node_id": "0.0-104.0", "trial": 3, "time_elapsed": 680484, "serialpos": 23, "key_press": -1, "wordID": 1504, "type": "PRES_AUD", "trial_index": 140}, "uniqueid": "MTK1997:3A0EX8ZRN9V2XMK7FM7284A89GJBYP", "dateTime": 1516644238267}, {"current_trial": 141, "trialdata": {"rt": -1, "trial_type": "single-stim", "stimulus": "", "internal_node_id": "0.0-105.0-0.0", "time_elapsed": 681704, "key_press": -1, "type": "PRE_RECALL_DELAY", "trial_index": 141}, "uniqueid": "MTK1997:3A0EX8ZRN9V2XMK7FM7284A89GJBYP", "dateTime": 1516644239487}, {"current_trial": 142, "trialdata": {"rt": -1000, "trial_type": "single-audio", "stimulus": "/static/audio/400Hz.wav", "internal_node_id": "0.0-106.0", "time_elapsed": 682205, "key_press": -1, "type": "PRE_RECALL_ALERT", "trial_index": 142}, "uniqueid": "MTK1997:3A0EX8ZRN9V2XMK7FM7284A89GJBYP", "dateTime": 1516644239988}, {"current_trial": 143, "trialdata": {"rt": [2873, 3889, 5201, 7017, 9425, 14401, 16009, 19345, 27241, 30953, 32617, 44528], "recwords": ["tribe", "river", "nurse", "outlaw", "patient", "globe", "world", "velvet", "pepper", "elbow", "shirt", "briefcase"], "key_times": [1570, 1769, 1929, 2161, 2545, 2873, 3145, 3273, 3409, 3649, 3665, 3889, 4425, 4641, 4705, 4841, 4945, 5201, 5817, 5929, 6033, 6281, 6465, 6777, 7017, 7369, 7553, 7985, 8177, 8289, 8810, 8921, 9425, 11721, 13065, 13473, 13601, 13801, 13857, 14057, 14401, 14689, 14801, 14945, 15097, 15369, 16009, 17009, 17185, 17337, 17609, 17785, 18497, 18697, 18825, 19345, 24251, 24577, 25257, 25441, 25609, 25705, 27241, 28881, 29073, 29265, 29753, 29945, 30145, 30473, 30953, 31553, 31665, 31792, 31937, 32145, 32617, 40048, 40552, 42648, 42936, 43080, 43488, 43640, 43824, 43976, 44528, 59225, 59409, 59665, 59801, 59977], "trial_type": "free-recall", "conditions": [24, 1600, "a", 12000], "internal_node_id": "0.0-107.0-0.0", "key_presses": [84, 82, 73, 66, 69, 13, 82, 73, 86, 69, 82, 13, 78, 85, 82, 83, 69, 13, 79, 85, 84, 76, 65, 87, 13, 80, 65, 84, 73, 69, 78, 84, 13, 84, 8, 71, 76, 79, 66, 69, 13, 87, 79, 82, 76, 68, 13, 86, 69, 76, 86, 73, 8, 69, 84, 13, 80, 69, 80, 80, 69, 82, 13, 69, 76, 86, 8, 66, 79, 87, 13, 83, 72, 73, 82, 84, 13, 66, 82, 73, 69, 70, 67, 65, 83, 69, 13, 79, 78, 73, 79, 78], "trial": 3, "time_elapsed": 742207, "type": "FREE_RECALL", "trial_index": 143}, "uniqueid": "MTK1997:3A0EX8ZRN9V2XMK7FM7284A89GJBYP", "dateTime": 1516644299992}, {"current_trial": 144, "trialdata": {"rt": 1845, "trial_type": "text", "internal_node_id": "0.0-108.0", "time_elapsed": 746054, "key_press": 13, "type": "INSTRUCTIONS", "trial_index": 144}, "uniqueid": "MTK1997:3A0EX8ZRN9V2XMK7FM7284A89GJBYP", "dateTime": 1516644303837}, {"current_trial": 145, "trialdata": {"rt": [3062, 5574, 7462, 9430, 12198, 14773, 17374, 19021, 20909, 23029], "trial_type": "math-distractor", "key_times": [2102, 2190, 3062, 4782, 5022, 5574, 7118, 7462, 8822, 9118, 9430, 11726, 11966, 12198, 14534, 14773, 16542, 16854, 17374, 18750, 19021, 20358, 20653, 20909, 22502, 22758, 23029], "responses": ["15", "16", "4", "19", "18", "7", "13", "9", "17", "13"], "num2": [4, 7, 1, 6, 9, 2, 1, 1, 9, 9, 3], "num3": [4, 5, 1, 8, 6, 1, 6, 3, 4, 1, 3], "conditions": [24, 1600, "a", 24000], "internal_node_id": "0.0-109.0", "key_presses": [97, 101, 13, 97, 102, 13, 100, 13, 97, 105, 13, 97, 104, 13, 103, 13, 97, 99, 13, 105, 13, 97, 103, 13, 97, 99, 13], "trial": 4, "time_elapsed": 772057, "type": "DISTRACTOR", "trial_index": 145, "num1": [7, 4, 2, 5, 3, 4, 6, 5, 4, 3, 8]}, "uniqueid": "MTK1997:3A0EX8ZRN9V2XMK7FM7284A89GJBYP", "dateTime": 1516644329840}, {"current_trial": 146, "trialdata": {"rt": -1, "trial_type": "single-stim", "stimulus": "<p id=\"stim\">10</p>", "internal_node_id": "0.0-110.0-0.0", "time_elapsed": 775059, "key_press": -1, "trial_index": 146}, "uniqueid": "MTK1997:3A0EX8ZRN9V2XMK7FM7284A89GJBYP", "dateTime": 1516644332842}, {"current_trial": 147, "trialdata": {"rt": -1, "trial_type": "single-stim", "stimulus": "<p id=\"stim\">9</p>", "internal_node_id": "0.0-110.0-1.0", "time_elapsed": 776060, "key_press": -1, "trial_index": 147}, "uniqueid": "MTK1997:3A0EX8ZRN9V2XMK7FM7284A89GJBYP", "dateTime": 1516644333843}, {"current_trial": 148, "trialdata": {"rt": -1, "trial_type": "single-stim", "stimulus": "<p id=\"stim\">8</p>", "internal_node_id": "0.0-110.0-2.0", "time_elapsed": 777061, "key_press": -1, "trial_index": 148}, "uniqueid": "MTK1997:3A0EX8ZRN9V2XMK7FM7284A89GJBYP", "dateTime": 1516644334844}, {"current_trial": 149, "trialdata": {"rt": -1, "trial_type": "single-stim", "stimulus": "<p id=\"stim\">7</p>", "internal_node_id": "0.0-110.0-3.0", "time_elapsed": 778062, "key_press": -1, "trial_index": 149}, "uniqueid": "MTK1997:3A0EX8ZRN9V2XMK7FM7284A89GJBYP", "dateTime": 1516644335845}, {"current_trial": 150, "trialdata": {"rt": -1, "trial_type": "single-stim", "stimulus": "<p id=\"stim\">6</p>", "internal_node_id": "0.0-110.0-4.0", "time_elapsed": 779063, "key_press": -1, "trial_index": 150}, "uniqueid": "MTK1997:3A0EX8ZRN9V2XMK7FM7284A89GJBYP", "dateTime": 1516644336846}, {"current_trial": 151, "trialdata": {"rt": -1, "trial_type": "single-stim", "stimulus": "<p id=\"stim\">5</p>", "internal_node_id": "0.0-110.0-5.0", "time_elapsed": 780064, "key_press": -1, "trial_index": 151}, "uniqueid": "MTK1997:3A0EX8ZRN9V2XMK7FM7284A89GJBYP", "dateTime": 1516644337847}, {"current_trial": 152, "trialdata": {"rt": -1, "trial_type": "single-stim", "stimulus": "<p id=\"stim\">4</p>", "internal_node_id": "0.0-110.0-6.0", "time_elapsed": 781065, "key_press": -1, "trial_index": 152}, "uniqueid": "MTK1997:3A0EX8ZRN9V2XMK7FM7284A89GJBYP", "dateTime": 1516644338848}, {"current_trial": 153, "trialdata": {"rt": -1, "trial_type": "single-stim", "stimulus": "<p id=\"stim\">3</p>", "internal_node_id": "0.0-110.0-7.0", "time_elapsed": 782066, "key_press": -1, "trial_index": 153}, "uniqueid": "MTK1997:3A0EX8ZRN9V2XMK7FM7284A89GJBYP", "dateTime": 1516644339849}, {"current_trial": 154, "trialdata": {"rt": -1, "trial_type": "single-stim", "stimulus": "<p id=\"stim\">2</p>", "internal_node_id": "0.0-110.0-8.0", "time_elapsed": 783067, "key_press": -1, "trial_index": 154}, "uniqueid": "MTK1997:3A0EX8ZRN9V2XMK7FM7284A89GJBYP", "dateTime": 1516644340850}, {"current_trial": 155, "trialdata": {"rt": -1, "trial_type": "single-stim", "stimulus": "<p id=\"stim\">1</p>", "internal_node_id": "0.0-110.0-9.0", "time_elapsed": 784068, "key_press": -1, "trial_index": 155}, "uniqueid": "MTK1997:3A0EX8ZRN9V2XMK7FM7284A89GJBYP", "dateTime": 1516644341851}, {"current_trial": 156, "trialdata": {"rt": -1, "trial_type": "single-stim", "stimulus": "<p id=\"stim\">+</p>", "internal_node_id": "0.0-111.0-0.0", "time_elapsed": 785569, "key_press": -1, "type": "FIXATION", "trial_index": 156}, "uniqueid": "MTK1997:3A0EX8ZRN9V2XMK7FM7284A89GJBYP", "dateTime": 1516644343352}, {"current_trial": 157, "trialdata": {"rt": -1000, "trial_type": "single-audio", "word": "popcorn", "stimulus": "/static/audio/wordpool/POPCORN.wav", "conditions": [24, 1600, "a", 24000], "internal_node_id": "0.0-112.0", "trial": 4, "time_elapsed": 788024, "serialpos": 0, "key_press": -1, "wordID": 1103, "type": "PRES_AUD", "trial_index": 157}, "uniqueid": "MTK1997:3A0EX8ZRN9V2XMK7FM7284A89GJBYP", "dateTime": 1516644345807}, {"current_trial": 158, "trialdata": {"rt": -1000, "trial_type": "single-audio", "word": "gavel", "stimulus": "/static/audio/wordpool/GAVEL.wav", "conditions": [24, 1600, "a", 24000], "internal_node_id": "0.0-113.0", "trial": 4, "time_elapsed": 790454, "serialpos": 1, "key_press": -1, "wordID": 626, "type": "PRES_AUD", "trial_index": 158}, "uniqueid": "MTK1997:3A0EX8ZRN9V2XMK7FM7284A89GJBYP", "dateTime": 1516644348237}, {"current_trial": 159, "trialdata": {"rt": -1000, "trial_type": "single-audio", "word": "ulcer", "stimulus": "/static/audio/wordpool/ULCER.wav", "conditions": [24, 1600, "a", 24000], "internal_node_id": "0.0-114.0", "trial": 4, "time_elapsed": 793062, "serialpos": 2, "key_press": -1, "wordID": 1532, "type": "PRES_AUD", "trial_index": 159}, "uniqueid": "MTK1997:3A0EX8ZRN9V2XMK7FM7284A89GJBYP", "dateTime": 1516644350845}, {"current_trial": 160, "trialdata": {"rt": -1000, "trial_type": "single-audio", "word": "princess", "stimulus": "/static/audio/wordpool/PRINCESS.wav", "conditions": [24, 1600, "a", 24000], "internal_node_id": "0.0-115.0", "trial": 4, "time_elapsed": 795477, "serialpos": 3, "key_press": -1, "wordID": 1124, "type": "PRES_AUD", "trial_index": 160}, "uniqueid": "MTK1997:3A0EX8ZRN9V2XMK7FM7284A89GJBYP", "dateTime": 1516644353260}, {"current_trial": 161, "trialdata": {"rt": -1000, "trial_type": "single-audio", "word": "hatchet", "stimulus": "/static/audio/wordpool/HATCHET.wav", "conditions": [24, 1600, "a", 24000], "internal_node_id": "0.0-116.0", "trial": 4, "time_elapsed": 798018, "serialpos": 4, "key_press": -1, "wordID": 690, "type": "PRES_AUD", "trial_index": 161}, "uniqueid": "MTK1997:3A0EX8ZRN9V2XMK7FM7284A89GJBYP", "dateTime": 1516644355801}, {"current_trial": 162, "trialdata": {"rt": -1000, "trial_type": "single-audio", "word": "truck", "stimulus": "/static/audio/wordpool/TRUCK.wav", "conditions": [24, 1600, "a", 24000], "internal_node_id": "0.0-117.0", "trial": 4, "time_elapsed": 800671, "serialpos": 5, "key_press": -1, "wordID": 1511, "type": "PRES_AUD", "trial_index": 162}, "uniqueid": "MTK1997:3A0EX8ZRN9V2XMK7FM7284A89GJBYP", "dateTime": 1516644358455}, {"current_trial": 163, "trialdata": {"rt": -1000, "trial_type": "single-audio", "word": "skillet", "stimulus": "/static/audio/wordpool/SKILLET.wav", "conditions": [24, 1600, "a", 24000], "internal_node_id": "0.0-118.0", "trial": 4, "time_elapsed": 803217, "serialpos": 6, "key_press": -1, "wordID": 1316, "type": "PRES_AUD", "trial_index": 163}, "uniqueid": "MTK1997:3A0EX8ZRN9V2XMK7FM7284A89GJBYP", "dateTime": 1516644361000}, {"current_trial": 164, "trialdata": {"rt": -1000, "trial_type": "single-audio", "word": "spoon", "stimulus": "/static/audio/wordpool/SPOON.wav", "conditions": [24, 1600, "a", 24000], "internal_node_id": "0.0-119.0", "trial": 4, "time_elapsed": 805877, "serialpos": 7, "key_press": -1, "wordID": 1356, "type": "PRES_AUD", "trial_index": 164}, "uniqueid": "MTK1997:3A0EX8ZRN9V2XMK7FM7284A89GJBYP", "dateTime": 1516644363660}, {"current_trial": 165, "trialdata": {"rt": -1000, "trial_type": "single-audio", "word": "lace", "stimulus": "/static/audio/wordpool/LACE.wav", "conditions": [24, 1600, "a", 24000], "internal_node_id": "0.0-120.0", "trial": 4, "time_elapsed": 808280, "serialpos": 8, "key_press": -1, "wordID": 791, "type": "PRES_AUD", "trial_index": 165}, "uniqueid": "MTK1997:3A0EX8ZRN9V2XMK7FM7284A89GJBYP", "dateTime": 1516644366063}, {"current_trial": 166, "trialdata": {"rt": -1000, "trial_type": "single-audio", "word": "denim", "stimulus": "/static/audio/wordpool/DENIM.wav", "conditions": [24, 1600, "a", 24000], "internal_node_id": "0.0-121.0", "trial": 4, "time_elapsed": 810929, "serialpos": 9, "key_press": -1, "wordID": 445, "type": "PRES_AUD", "trial_index": 166}, "uniqueid": "MTK1997:3A0EX8ZRN9V2XMK7FM7284A89GJBYP", "dateTime": 1516644368712}, {"current_trial": 167, "trialdata": {"rt": -1000, "trial_type": "single-audio", "word": "film", "stimulus": "/static/audio/wordpool/FILM.wav", "conditions": [24, 1600, "a", 24000], "internal_node_id": "0.0-122.0", "trial": 4, "time_elapsed": 813650, "serialpos": 10, "key_press": -1, "wordID": 564, "type": "PRES_AUD", "trial_index": 167}, "uniqueid": "MTK1997:3A0EX8ZRN9V2XMK7FM7284A89GJBYP", "dateTime": 1516644371433}, {"current_trial": 168, "trialdata": {"rt": -1000, "trial_type": "single-audio", "word": "wagon", "stimulus": "/static/audio/wordpool/WAGON.wav", "conditions": [24, 1600, "a", 24000], "internal_node_id": "0.0-123.0", "trial": 4, "time_elapsed": 816175, "serialpos": 11, "key_press": -1, "wordID": 1577, "type": "PRES_AUD", "trial_index": 168}, "uniqueid": "MTK1997:3A0EX8ZRN9V2XMK7FM7284A89GJBYP", "dateTime": 1516644373958}, {"current_trial": 169, "trialdata": {"rt": -1000, "trial_type": "single-audio", "word": "ox", "stimulus": "/static/audio/wordpool/OX.wav", "conditions": [24, 1600, "a", 24000], "internal_node_id": "0.0-124.0", "trial": 4, "time_elapsed": 818899, "serialpos": 12, "key_press": -1, "wordID": 993, "type": "PRES_AUD", "trial_index": 169}, "uniqueid": "MTK1997:3A0EX8ZRN9V2XMK7FM7284A89GJBYP", "dateTime": 1516644376682}, {"current_trial": 170, "trialdata": {"rt": -1000, "trial_type": "single-audio", "word": "cook", "stimulus": "/static/audio/wordpool/COOK.wav", "conditions": [24, 1600, "a", 24000], "internal_node_id": "0.0-125.0", "trial": 4, "time_elapsed": 821619, "serialpos": 13, "key_press": -1, "wordID": 371, "type": "PRES_AUD", "trial_index": 170}, "uniqueid": "MTK1997:3A0EX8ZRN9V2XMK7FM7284A89GJBYP", "dateTime": 1516644379402}, {"current_trial": 171, "trialdata": {"rt": -1000, "trial_type": "single-audio", "word": "daughter", "stimulus": "/static/audio/wordpool/DAUGHTER.wav", "conditions": [24, 1600, "a", 24000], "internal_node_id": "0.0-126.0", "trial": 4, "time_elapsed": 824067, "serialpos": 14, "key_press": -1, "wordID": 441, "type": "PRES_AUD", "trial_index": 171}, "uniqueid": "MTK1997:3A0EX8ZRN9V2XMK7FM7284A89GJBYP", "dateTime": 1516644381850}, {"current_trial": 172, "trialdata": {"rt": -1000, "trial_type": "single-audio", "word": "crab", "stimulus": "/static/audio/wordpool/CRAB.wav", "conditions": [24, 1600, "a", 24000], "internal_node_id": "0.0-127.0", "trial": 4, "time_elapsed": 826746, "serialpos": 15, "key_press": -1, "wordID": 396, "type": "PRES_AUD", "trial_index": 172}, "uniqueid": "MTK1997:3A0EX8ZRN9V2XMK7FM7284A89GJBYP", "dateTime": 1516644384529}, {"current_trial": 173, "trialdata": {"rt": -1000, "trial_type": "single-audio", "word": "actress", "stimulus": "/static/audio/wordpool/ACTRESS.wav", "conditions": [24, 1600, "a", 24000], "internal_node_id": "0.0-128.0", "trial": 4, "time_elapsed": 829184, "serialpos": 16, "key_press": -1, "wordID": 5, "type": "PRES_AUD", "trial_index": 173}, "uniqueid": "MTK1997:3A0EX8ZRN9V2XMK7FM7284A89GJBYP", "dateTime": 1516644386967}, {"current_trial": 174, "trialdata": {"rt": -1000, "trial_type": "single-audio", "word": "sausage", "stimulus": "/static/audio/wordpool/SAUSAGE.wav", "conditions": [24, 1600, "a", 24000], "internal_node_id": "0.0-129.0", "trial": 4, "time_elapsed": 831654, "serialpos": 17, "key_press": -1, "wordID": 1237, "type": "PRES_AUD", "trial_index": 174}, "uniqueid": "MTK1997:3A0EX8ZRN9V2XMK7FM7284A89GJBYP", "dateTime": 1516644389437}, {"current_trial": 175, "trialdata": {"rt": -1000, "trial_type": "single-audio", "word": "grill", "stimulus": "/static/audio/wordpool/GRILL.wav", "conditions": [24, 1600, "a", 24000], "internal_node_id": "0.0-130.0", "trial": 4, "time_elapsed": 834074, "serialpos": 18, "key_press": -1, "wordID": 660, "type": "PRES_AUD", "trial_index": 175}, "uniqueid": "MTK1997:3A0EX8ZRN9V2XMK7FM7284A89GJBYP", "dateTime": 1516644391857}, {"current_trial": 176, "trialdata": {"rt": -1000, "trial_type": "single-audio", "word": "wrench", "stimulus": "/static/audio/wordpool/WRENCH.wav", "conditions": [24, 1600, "a", 24000], "internal_node_id": "0.0-131.0", "trial": 4, "time_elapsed": 836700, "serialpos": 19, "key_press": -1, "wordID": 1624, "type": "PRES_AUD", "trial_index": 176}, "uniqueid": "MTK1997:3A0EX8ZRN9V2XMK7FM7284A89GJBYP", "dateTime": 1516644394483}, {"current_trial": 177, "trialdata": {"rt": -1000, "trial_type": "single-audio", "word": "dresser", "stimulus": "/static/audio/wordpool/DRESSER.wav", "conditions": [24, 1600, "a", 24000], "internal_node_id": "0.0-132.0", "trial": 4, "time_elapsed": 839486, "serialpos": 20, "key_press": -1, "wordID": 495, "type": "PRES_AUD", "trial_index": 177}, "uniqueid": "MTK1997:3A0EX8ZRN9V2XMK7FM7284A89GJBYP", "dateTime": 1516644397269}, {"current_trial": 178, "trialdata": {"rt": -1000, "trial_type": "single-audio", "word": "notebook", "stimulus": "/static/audio/wordpool/NOTEBOOK.wav", "conditions": [24, 1600, "a", 24000], "internal_node_id": "0.0-133.0", "trial": 4, "time_elapsed": 842216, "serialpos": 21, "key_press": -1, "wordID": 958, "type": "PRES_AUD", "trial_index": 178}, "uniqueid": "MTK1997:3A0EX8ZRN9V2XMK7FM7284A89GJBYP", "dateTime": 1516644399999}, {"current_trial": 179, "trialdata": {"rt": -1000, "trial_type": "single-audio", "word": "cod", "stimulus": "/static/audio/wordpool/COD.wav", "conditions": [24, 1600, "a", 24000], "internal_node_id": "0.0-134.0", "trial": 4, "time_elapsed": 844863, "serialpos": 22, "key_press": -1, "wordID": 339, "type": "PRES_AUD", "trial_index": 179}, "uniqueid": "MTK1997:3A0EX8ZRN9V2XMK7FM7284A89GJBYP", "dateTime": 1516644402646}, {"current_trial": 180, "trialdata": {"rt": -1000, "trial_type": "single-audio", "word": "seafood", "stimulus": "/static/audio/wordpool/SEAFOOD.wav", "conditions": [24, 1600, "a", 24000], "internal_node_id": "0.0-135.0", "trial": 4, "time_elapsed": 847524, "serialpos": 23, "key_press": -1, "wordID": 1259, "type": "PRES_AUD", "trial_index": 180}, "uniqueid": "MTK1997:3A0EX8ZRN9V2XMK7FM7284A89GJBYP", "dateTime": 1516644405307}, {"current_trial": 181, "trialdata": {"rt": -1, "trial_type": "single-stim", "stimulus": "", "internal_node_id": "0.0-136.0-0.0", "time_elapsed": 848849, "key_press": -1, "type": "PRE_RECALL_DELAY", "trial_index": 181}, "uniqueid": "MTK1997:3A0EX8ZRN9V2XMK7FM7284A89GJBYP", "dateTime": 1516644406633}, {"current_trial": 182, "trialdata": {"rt": -1000, "trial_type": "single-audio", "stimulus": "/static/audio/400Hz.wav", "internal_node_id": "0.0-137.0", "time_elapsed": 849351, "key_press": -1, "type": "PRE_RECALL_ALERT", "trial_index": 182}, "uniqueid": "MTK1997:3A0EX8ZRN9V2XMK7FM7284A89GJBYP", "dateTime": 1516644407134}, {"current_trial": 183, "trialdata": {"rt": [2285, 6421, 11567, 14422, 35198, 36574, 57765], "recwords": ["cod", "seafood", "daughter", "princess", "ox", "wagon", "omlette"], "key_times": [1718, 1901, 2021, 2285, 3837, 4205, 4357, 5165, 5357, 5541, 5589, 6421, 9854, 9998, 10390, 10622, 10854, 10950, 11150, 11222, 11567, 12222, 12358, 12478, 12958, 13126, 13406, 13742, 13926, 14422, 32318, 32894, 35198, 35486, 35630, 35854, 36046, 36205, 36574, 54550, 54789, 55469, 55701, 56045, 56229, 56437, 57765], "trial_type": "free-recall", "conditions": [24, 1600, "a", 24000], "internal_node_id": "0.0-138.0-0.0", "key_presses": [67, 79, 68, 32, 83, 69, 65, 70, 79, 79, 68, 13, 68, 65, 85, 71, 72, 84, 69, 82, 13, 80, 82, 73, 78, 67, 69, 83, 83, 13, 79, 88, 13, 87, 65, 71, 79, 78, 13, 79, 77, 76, 69, 84, 84, 69, 13], "trial": 4, "time_elapsed": 909353, "type": "FREE_RECALL", "trial_index": 183}, "uniqueid": "MTK1997:3A0EX8ZRN9V2XMK7FM7284A89GJBYP", "dateTime": 1516644467138}, {"current_trial": 184, "trialdata": {"rt": 1608, "trial_type": "text", "internal_node_id": "0.0-139.0", "time_elapsed": 912964, "key_press": 13, "type": "INSTRUCTIONS", "trial_index": 184}, "uniqueid": "MTK1997:3A0EX8ZRN9V2XMK7FM7284A89GJBYP", "dateTime": 1516644470747}, {"current_trial": 185, "trialdata": {"rt": [2326, 4023], "trial_type": "math-distractor", "key_times": [1878, 2070, 2326, 3519, 3783, 4023, 9223, 9551], "responses": ["11", "10"], "num2": [4, 2, 7], "num3": [5, 7, 7], "conditions": [12, 800, "a", 12000], "internal_node_id": "0.0-140.0", "key_presses": [97, 97, 13, 97, 96, 13, 98, 99], "trial": 5, "time_elapsed": 926968, "type": "DISTRACTOR", "trial_index": 185, "num1": [2, 1, 9]}, "uniqueid": "MTK1997:3A0EX8ZRN9V2XMK7FM7284A89GJBYP", "dateTime": 1516644484751}, {"current_trial": 186, "trialdata": {"rt": -1, "trial_type": "single-stim", "stimulus": "<p id=\"stim\">10</p>", "internal_node_id": "0.0-141.0-0.0", "time_elapsed": 929970, "key_press": -1, "trial_index": 186}, "uniqueid": "MTK1997:3A0EX8ZRN9V2XMK7FM7284A89GJBYP", "dateTime": 1516644487753}, {"current_trial": 187, "trialdata": {"rt": -1, "trial_type": "single-stim", "stimulus": "<p id=\"stim\">9</p>", "internal_node_id": "0.0-141.0-1.0", "time_elapsed": 930971, "key_press": -1, "trial_index": 187}, "uniqueid": "MTK1997:3A0EX8ZRN9V2XMK7FM7284A89GJBYP", "dateTime": 1516644488754}, {"current_trial": 188, "trialdata": {"rt": -1, "trial_type": "single-stim", "stimulus": "<p id=\"stim\">8</p>", "internal_node_id": "0.0-141.0-2.0", "time_elapsed": 931972, "key_press": -1, "trial_index": 188}, "uniqueid": "MTK1997:3A0EX8ZRN9V2XMK7FM7284A89GJBYP", "dateTime": 1516644489755}, {"current_trial": 189, "trialdata": {"rt": -1, "trial_type": "single-stim", "stimulus": "<p id=\"stim\">7</p>", "internal_node_id": "0.0-141.0-3.0", "time_elapsed": 932973, "key_press": -1, "trial_index": 189}, "uniqueid": "MTK1997:3A0EX8ZRN9V2XMK7FM7284A89GJBYP", "dateTime": 1516644490756}, {"current_trial": 190, "trialdata": {"rt": -1, "trial_type": "single-stim", "stimulus": "<p id=\"stim\">6</p>", "internal_node_id": "0.0-141.0-4.0", "time_elapsed": 933974, "key_press": -1, "trial_index": 190}, "uniqueid": "MTK1997:3A0EX8ZRN9V2XMK7FM7284A89GJBYP", "dateTime": 1516644491757}, {"current_trial": 191, "trialdata": {"rt": -1, "trial_type": "single-stim", "stimulus": "<p id=\"stim\">5</p>", "internal_node_id": "0.0-141.0-5.0", "time_elapsed": 934975, "key_press": -1, "trial_index": 191}, "uniqueid": "MTK1997:3A0EX8ZRN9V2XMK7FM7284A89GJBYP", "dateTime": 1516644492758}, {"current_trial": 192, "trialdata": {"rt": -1, "trial_type": "single-stim", "stimulus": "<p id=\"stim\">4</p>", "internal_node_id": "0.0-141.0-6.0", "time_elapsed": 935976, "key_press": -1, "trial_index": 192}, "uniqueid": "MTK1997:3A0EX8ZRN9V2XMK7FM7284A89GJBYP", "dateTime": 1516644493759}, {"current_trial": 193, "trialdata": {"rt": -1, "trial_type": "single-stim", "stimulus": "<p id=\"stim\">3</p>", "internal_node_id": "0.0-141.0-7.0", "time_elapsed": 936977, "key_press": -1, "trial_index": 193}, "uniqueid": "MTK1997:3A0EX8ZRN9V2XMK7FM7284A89GJBYP", "dateTime": 1516644494760}, {"current_trial": 194, "trialdata": {"rt": -1, "trial_type": "single-stim", "stimulus": "<p id=\"stim\">2</p>", "internal_node_id": "0.0-141.0-8.0", "time_elapsed": 937978, "key_press": -1, "trial_index": 194}, "uniqueid": "MTK1997:3A0EX8ZRN9V2XMK7FM7284A89GJBYP", "dateTime": 1516644495761}, {"current_trial": 195, "trialdata": {"rt": -1, "trial_type": "single-stim", "stimulus": "<p id=\"stim\">1</p>", "internal_node_id": "0.0-141.0-9.0", "time_elapsed": 938979, "key_press": -1, "trial_index": 195}, "uniqueid": "MTK1997:3A0EX8ZRN9V2XMK7FM7284A89GJBYP", "dateTime": 1516644496762}, {"current_trial": 196, "trialdata": {"rt": -1, "trial_type": "single-stim", "stimulus": "<p id=\"stim\">+</p>", "internal_node_id": "0.0-142.0-0.0", "time_elapsed": 940480, "key_press": -1, "type": "FIXATION", "trial_index": 196}, "uniqueid": "MTK1997:3A0EX8ZRN9V2XMK7FM7284A89GJBYP", "dateTime": 1516644498263}, {"current_trial": 197, "trialdata": {"rt": -1000, "trial_type": "single-audio", "word": "kidney", "stimulus": "/static/audio/wordpool/KIDNEY.wav", "conditions": [12, 800, "a", 12000], "internal_node_id": "0.0-143.0", "trial": 5, "time_elapsed": 942092, "serialpos": 0, "key_press": -1, "wordID": 775, "type": "PRES_AUD", "trial_index": 197}, "uniqueid": "MTK1997:3A0EX8ZRN9V2XMK7FM7284A89GJBYP", "dateTime": 1516644499875}, {"current_trial": 198, "trialdata": {"rt": -1000, "trial_type": "single-audio", "word": "marrow", "stimulus": "/static/audio/wordpool/MARROW.wav", "conditions": [12, 800, "a", 12000], "internal_node_id": "0.0-144.0", "trial": 5, "time_elapsed": 943764, "serialpos": 1, "key_press": -1, "wordID": 871, "type": "PRES_AUD", "trial_index": 198}, "uniqueid": "MTK1997:3A0EX8ZRN9V2XMK7FM7284A89GJBYP", "dateTime": 1516644501547}, {"current_trial": 199, "trialdata": {"rt": -1000, "trial_type": "single-audio", "word": "dorm", "stimulus": "/static/audio/wordpool/DORM.wav", "conditions": [12, 800, "a", 12000], "internal_node_id": "0.0-145.0", "trial": 5, "time_elapsed": 945517, "serialpos": 2, "key_press": -1, "wordID": 487, "type": "PRES_AUD", "trial_index": 199}, "uniqueid": "MTK1997:3A0EX8ZRN9V2XMK7FM7284A89GJBYP", "dateTime": 1516644503300}, {"current_trial": 200, "trialdata": {"rt": -1000, "trial_type": "single-audio", "word": "london", "stimulus": "/static/audio/wordpool/LONDON.wav", "conditions": [12, 800, "a", 12000], "internal_node_id": "0.0-146.0", "trial": 5, "time_elapsed": 947457, "serialpos": 3, "key_press": -1, "wordID": 842, "type": "PRES_AUD", "trial_index": 200}, "uniqueid": "MTK1997:3A0EX8ZRN9V2XMK7FM7284A89GJBYP", "dateTime": 1516644505241}, {"current_trial": 201, "trialdata": {"rt": -1000, "trial_type": "single-audio", "word": "cookbook", "stimulus": "/static/audio/wordpool/COOKBOOK.wav", "conditions": [12, 800, "a", 12000], "internal_node_id": "0.0-147.0", "trial": 5, "time_elapsed": 949270, "serialpos": 4, "key_press": -1, "wordID": 372, "type": "PRES_AUD", "trial_index": 201}, "uniqueid": "MTK1997:3A0EX8ZRN9V2XMK7FM7284A89GJBYP", "dateTime": 1516644507053}, {"current_trial": 202, "trialdata": {"rt": -1000, "trial_type": "single-audio", "word": "perch", "stimulus": "/static/audio/wordpool/PERCH.wav", "conditions": [12, 800, "a", 12000], "internal_node_id": "0.0-148.0", "trial": 5, "time_elapsed": 951104, "serialpos": 5, "key_press": -1, "wordID": 1047, "type": "PRES_AUD", "trial_index": 202}, "uniqueid": "MTK1997:3A0EX8ZRN9V2XMK7FM7284A89GJBYP", "dateTime": 1516644508887}, {"current_trial": 203, "trialdata": {"rt": -1000, "trial_type": "single-audio", "word": "salmon", "stimulus": "/static/audio/wordpool/SALMON.wav", "conditions": [12, 800, "a", 12000], "internal_node_id": "0.0-149.0", "trial": 5, "time_elapsed": 952888, "serialpos": 6, "key_press": -1, "wordID": 1226, "type": "PRES_AUD", "trial_index": 203}, "uniqueid": "MTK1997:3A0EX8ZRN9V2XMK7FM7284A89GJBYP", "dateTime": 1516644510671}, {"current_trial": 204, "trialdata": {"rt": -1000, "trial_type": "single-audio", "word": "europe", "stimulus": "/static/audio/wordpool/EUROPE.wav", "conditions": [12, 800, "a", 12000], "internal_node_id": "0.0-150.0", "trial": 5, "time_elapsed": 954505, "serialpos": 7, "key_press": -1, "wordID": 540, "type": "PRES_AUD", "trial_index": 204}, "uniqueid": "MTK1997:3A0EX8ZRN9V2XMK7FM7284A89GJBYP", "dateTime": 1516644512288}, {"current_trial": 205, "trialdata": {"rt": -1000, "trial_type": "single-audio", "word": "honey", "stimulus": "/static/audio/wordpool/HONEY.wav", "conditions": [12, 800, "a", 12000], "internal_node_id": "0.0-151.0", "trial": 5, "time_elapsed": 956485, "serialpos": 8, "key_press": -1, "wordID": 712, "type": "PRES_AUD", "trial_index": 205}, "uniqueid": "MTK1997:3A0EX8ZRN9V2XMK7FM7284A89GJBYP", "dateTime": 1516644514268}, {"current_trial": 206, "trialdata": {"rt": -1000, "trial_type": "single-audio", "word": "outfit", "stimulus": "/static/audio/wordpool/OUTFIT.wav", "conditions": [12, 800, "a", 12000], "internal_node_id": "0.0-152.0", "trial": 5, "time_elapsed": 958120, "serialpos": 9, "key_press": -1, "wordID": 987, "type": "PRES_AUD", "trial_index": 206}, "uniqueid": "MTK1997:3A0EX8ZRN9V2XMK7FM7284A89GJBYP", "dateTime": 1516644515903}, {"current_trial": 207, "trialdata": {"rt": -1000, "trial_type": "single-audio", "word": "college", "stimulus": "/static/audio/wordpool/COLLEGE.wav", "conditions": [12, 800, "a", 12000], "internal_node_id": "0.0-153.0", "trial": 5, "time_elapsed": 959775, "serialpos": 10, "key_press": -1, "wordID": 345, "type": "PRES_AUD", "trial_index": 207}, "uniqueid": "MTK1997:3A0EX8ZRN9V2XMK7FM7284A89GJBYP", "dateTime": 1516644517558}, {"current_trial": 208, "trialdata": {"rt": -1000, "trial_type": "single-audio", "word": "concert", "stimulus": "/static/audio/wordpool/CONCERT.wav", "conditions": [12, 800, "a", 12000], "internal_node_id": "0.0-154.0", "trial": 5, "time_elapsed": 961533, "serialpos": 11, "key_press": -1, "wordID": 359, "type": "PRES_AUD", "trial_index": 208}, "uniqueid": "MTK1997:3A0EX8ZRN9V2XMK7FM7284A89GJBYP", "dateTime": 1516644519316}, {"current_trial": 209, "trialdata": {"rt": -1, "trial_type": "single-stim", "stimulus": "", "internal_node_id": "0.0-155.0-0.0", "time_elapsed": 962804, "key_press": -1, "type": "PRE_RECALL_DELAY", "trial_index": 209}, "uniqueid": "MTK1997:3A0EX8ZRN9V2XMK7FM7284A89GJBYP", "dateTime": 1516644520587}, {"current_trial": 210, "trialdata": {"rt": -1000, "trial_type": "single-audio", "stimulus": "/static/audio/400Hz.wav", "internal_node_id": "0.0-156.0", "time_elapsed": 963305, "key_press": -1, "type": "PRE_RECALL_ALERT", "trial_index": 210}, "uniqueid": "MTK1997:3A0EX8ZRN9V2XMK7FM7284A89GJBYP", "dateTime": 1516644521088}, {"current_trial": 211, "trialdata": {"rt": [3554, 5730, 10098, 11786, 15490, 19738, 29426, 58257], "recwords": ["concert", "college", "london", "dorm", "cookbook", "honey", "london", "europe"], "key_times": [1946, 2058, 2194, 2426, 2746, 2842, 3106, 3554, 3954, 4122, 4490, 4626, 4770, 4978, 5146, 5730, 8362, 8562, 8674, 8978, 9130, 9250, 10098, 10514, 10745, 10921, 11146, 11786, 12818, 12961, 13138, 13490, 13842, 14001, 14169, 14593, 15490, 18835, 18954, 19106, 19298, 19466, 19738, 27586, 27834, 27986, 28122, 28258, 28402, 29426, 56546, 57394, 57537, 57657, 57913, 58025, 58257], "trial_type": "free-recall", "conditions": [12, 800, "a", 12000], "internal_node_id": "0.0-157.0-0.0", "key_presses": [67, 79, 78, 67, 69, 82, 84, 13, 67, 79, 76, 76, 69, 71, 69, 13, 76, 79, 78, 68, 79, 78, 13, 68, 79, 82, 77, 13, 67, 79, 79, 75, 66, 79, 79, 75, 13, 72, 79, 78, 69, 89, 13, 76, 79, 78, 68, 79, 78, 13, 69, 85, 82, 79, 80, 69, 13], "trial": 5, "time_elapsed": 1023308, "type": "FREE_RECALL", "trial_index": 211}, "uniqueid": "MTK1997:3A0EX8ZRN9V2XMK7FM7284A89GJBYP", "dateTime": 1516644581092}, {"current_trial": 212, "trialdata": {"rt": 1853, "trial_type": "text", "internal_node_id": "0.0-158.0", "time_elapsed": 1027164, "key_press": 13, "type": "INSTRUCTIONS", "trial_index": 212}, "uniqueid": "MTK1997:3A0EX8ZRN9V2XMK7FM7284A89GJBYP", "dateTime": 1516644584947}, {"current_trial": 213, "trialdata": {"rt": [3374, 5678, 7446, 9414, 11294], "trial_type": "math-distractor", "key_times": [2966, 3126, 3374, 5190, 5438, 5678, 7054, 7246, 7446, 8934, 9118, 9414, 10694, 10918, 11294], "responses": ["10", "16", "11", "12", "16"], "num2": [3, 5, 4, 4, 4, 6], "num3": [5, 2, 5, 4, 3, 9], "conditions": [24, 800, "a", 12000], "internal_node_id": "0.0-159.0", "key_presses": [97, 96, 13, 97, 102, 13, 97, 97, 13, 97, 98, 13, 97, 102, 13], "trial": 6, "time_elapsed": 1041167, "type": "DISTRACTOR", "trial_index": 213, "num1": [2, 9, 2, 4, 9, 7]}, "uniqueid": "MTK1997:3A0EX8ZRN9V2XMK7FM7284A89GJBYP", "dateTime": 1516644598950}, {"current_trial": 214, "trialdata": {"rt": -1, "trial_type": "single-stim", "stimulus": "<p id=\"stim\">10</p>", "internal_node_id": "0.0-160.0-0.0", "time_elapsed": 1044169, "key_press": -1, "trial_index": 214}, "uniqueid": "MTK1997:3A0EX8ZRN9V2XMK7FM7284A89GJBYP", "dateTime": 1516644601952}, {"current_trial": 215, "trialdata": {"rt": -1, "trial_type": "single-stim", "stimulus": "<p id=\"stim\">9</p>", "internal_node_id": "0.0-160.0-1.0", "time_elapsed": 1045170, "key_press": -1, "trial_index": 215}, "uniqueid": "MTK1997:3A0EX8ZRN9V2XMK7FM7284A89GJBYP", "dateTime": 1516644602953}, {"current_trial": 216, "trialdata": {"rt": -1, "trial_type": "single-stim", "stimulus": "<p id=\"stim\">8</p>", "internal_node_id": "0.0-160.0-2.0", "time_elapsed": 1046171, "key_press": -1, "trial_index": 216}, "uniqueid": "MTK1997:3A0EX8ZRN9V2XMK7FM7284A89GJBYP", "dateTime": 1516644603954}, {"current_trial": 217, "trialdata": {"rt": -1, "trial_type": "single-stim", "stimulus": "<p id=\"stim\">7</p>", "internal_node_id": "0.0-160.0-3.0", "time_elapsed": 1047172, "key_press": -1, "trial_index": 217}, "uniqueid": "MTK1997:3A0EX8ZRN9V2XMK7FM7284A89GJBYP", "dateTime": 1516644604955}, {"current_trial": 218, "trialdata": {"rt": -1, "trial_type": "single-stim", "stimulus": "<p id=\"stim\">6</p>", "internal_node_id": "0.0-160.0-4.0", "time_elapsed": 1048173, "key_press": -1, "trial_index": 218}, "uniqueid": "MTK1997:3A0EX8ZRN9V2XMK7FM7284A89GJBYP", "dateTime": 1516644605956}, {"current_trial": 219, "trialdata": {"rt": -1, "trial_type": "single-stim", "stimulus": "<p id=\"stim\">5</p>", "internal_node_id": "0.0-160.0-5.0", "time_elapsed": 1049174, "key_press": -1, "trial_index": 219}, "uniqueid": "MTK1997:3A0EX8ZRN9V2XMK7FM7284A89GJBYP", "dateTime": 1516644606957}, {"current_trial": 220, "trialdata": {"rt": -1, "trial_type": "single-stim", "stimulus": "<p id=\"stim\">4</p>", "internal_node_id": "0.0-160.0-6.0", "time_elapsed": 1050175, "key_press": -1, "trial_index": 220}, "uniqueid": "MTK1997:3A0EX8ZRN9V2XMK7FM7284A89GJBYP", "dateTime": 1516644607958}, {"current_trial": 221, "trialdata": {"rt": -1, "trial_type": "single-stim", "stimulus": "<p id=\"stim\">3</p>", "internal_node_id": "0.0-160.0-7.0", "time_elapsed": 1051176, "key_press": -1, "trial_index": 221}, "uniqueid": "MTK1997:3A0EX8ZRN9V2XMK7FM7284A89GJBYP", "dateTime": 1516644608959}, {"current_trial": 222, "trialdata": {"rt": -1, "trial_type": "single-stim", "stimulus": "<p id=\"stim\">2</p>", "internal_node_id": "0.0-160.0-8.0", "time_elapsed": 1052177, "key_press": -1, "trial_index": 222}, "uniqueid": "MTK1997:3A0EX8ZRN9V2XMK7FM7284A89GJBYP", "dateTime": 1516644609960}, {"current_trial": 223, "trialdata": {"rt": -1, "trial_type": "single-stim", "stimulus": "<p id=\"stim\">1</p>", "internal_node_id": "0.0-160.0-9.0", "time_elapsed": 1053178, "key_press": -1, "trial_index": 223}, "uniqueid": "MTK1997:3A0EX8ZRN9V2XMK7FM7284A89GJBYP", "dateTime": 1516644610961}, {"current_trial": 224, "trialdata": {"rt": -1, "trial_type": "single-stim", "stimulus": "<p id=\"stim\">+</p>", "internal_node_id": "0.0-161.0-0.0", "time_elapsed": 1054679, "key_press": -1, "type": "FIXATION", "trial_index": 224}, "uniqueid": "MTK1997:3A0EX8ZRN9V2XMK7FM7284A89GJBYP", "dateTime": 1516644612462}, {"current_trial": 225, "trialdata": {"rt": -1000, "trial_type": "single-audio", "word": "racket", "stimulus": "/static/audio/wordpool/RACKET.wav", "conditions": [24, 800, "a", 12000], "internal_node_id": "0.0-162.0", "trial": 6, "time_elapsed": 1056580, "serialpos": 0, "key_press": -1, "wordID": 1154, "type": "PRES_AUD", "trial_index": 225}, "uniqueid": "MTK1997:3A0EX8ZRN9V2XMK7FM7284A89GJBYP", "dateTime": 1516644614363}, {"current_trial": 226, "trialdata": {"rt": -1000, "trial_type": "single-audio", "word": "supper", "stimulus": "/static/audio/wordpool/SUPPER.wav", "conditions": [24, 800, "a", 12000], "internal_node_id": "0.0-163.0", "trial": 6, "time_elapsed": 1058246, "serialpos": 1, "key_press": -1, "wordID": 1410, "type": "PRES_AUD", "trial_index": 226}, "uniqueid": "MTK1997:3A0EX8ZRN9V2XMK7FM7284A89GJBYP", "dateTime": 1516644616029}, {"current_trial": 227, "trialdata": {"rt": -1000, "trial_type": "single-audio", "word": "chauffeur", "stimulus": "/static/audio/wordpool/CHAUFFEUR.wav", "conditions": [24, 800, "a", 12000], "internal_node_id": "0.0-164.0", "trial": 6, "time_elapsed": 1059921, "serialpos": 2, "key_press": -1, "wordID": 282, "type": "PRES_AUD", "trial_index": 227}, "uniqueid": "MTK1997:3A0EX8ZRN9V2XMK7FM7284A89GJBYP", "dateTime": 1516644617704}, {"current_trial": 228, "trialdata": {"rt": -1000, "trial_type": "single-audio", "word": "tart", "stimulus": "/static/audio/wordpool/TART.wav", "conditions": [24, 800, "a", 12000], "internal_node_id": "0.0-165.0", "trial": 6, "time_elapsed": 1061814, "serialpos": 3, "key_press": -1, "wordID": 1435, "type": "PRES_AUD", "trial_index": 228}, "uniqueid": "MTK1997:3A0EX8ZRN9V2XMK7FM7284A89GJBYP", "dateTime": 1516644619597}, {"current_trial": 229, "trialdata": {"rt": -1000, "trial_type": "single-audio", "word": "cocktail", "stimulus": "/static/audio/wordpool/COCKTAIL.wav", "conditions": [24, 800, "a", 12000], "internal_node_id": "0.0-166.0", "trial": 6, "time_elapsed": 1063570, "serialpos": 4, "key_press": -1, "wordID": 337, "type": "PRES_AUD", "trial_index": 229}, "uniqueid": "MTK1997:3A0EX8ZRN9V2XMK7FM7284A89GJBYP", "dateTime": 1516644621353}, {"current_trial": 230, "trialdata": {"rt": -1000, "trial_type": "single-audio", "word": "match", "stimulus": "/static/audio/wordpool/MATCH.wav", "conditions": [24, 800, "a", 12000], "internal_node_id": "0.0-167.0", "trial": 6, "time_elapsed": 1065442, "serialpos": 5, "key_press": -1, "wordID": 877, "type": "PRES_AUD", "trial_index": 230}, "uniqueid": "MTK1997:3A0EX8ZRN9V2XMK7FM7284A89GJBYP", "dateTime": 1516644623225}, {"current_trial": 231, "trialdata": {"rt": -1000, "trial_type": "single-audio", "word": "lunch", "stimulus": "/static/audio/wordpool/LUNCH.wav", "conditions": [24, 800, "a", 12000], "internal_node_id": "0.0-168.0", "trial": 6, "time_elapsed": 1067153, "serialpos": 6, "key_press": -1, "wordID": 848, "type": "PRES_AUD", "trial_index": 231}, "uniqueid": "MTK1997:3A0EX8ZRN9V2XMK7FM7284A89GJBYP", "dateTime": 1516644624936}, {"current_trial": 232, "trialdata": {"rt": -1000, "trial_type": "single-audio", "word": "cyclone", "stimulus": "/static/audio/wordpool/CYCLONE.wav", "conditions": [24, 800, "a", 12000], "internal_node_id": "0.0-169.0", "trial": 6, "time_elapsed": 1068817, "serialpos": 7, "key_press": -1, "wordID": 430, "type": "PRES_AUD", "trial_index": 232}, "uniqueid": "MTK1997:3A0EX8ZRN9V2XMK7FM7284A89GJBYP", "dateTime": 1516644626601}, {"current_trial": 233, "trialdata": {"rt": -1000, "trial_type": "single-audio", "word": "chapel", "stimulus": "/static/audio/wordpool/CHAPEL.wav", "conditions": [24, 800, "a", 12000], "internal_node_id": "0.0-170.0", "trial": 6, "time_elapsed": 1070742, "serialpos": 8, "key_press": -1, "wordID": 279, "type": "PRES_AUD", "trial_index": 233}, "uniqueid": "MTK1997:3A0EX8ZRN9V2XMK7FM7284A89GJBYP", "dateTime": 1516644628525}, {"current_trial": 234, "trialdata": {"rt": -1000, "trial_type": "single-audio", "word": "piston", "stimulus": "/static/audio/wordpool/PISTON.wav", "conditions": [24, 800, "a", 12000], "internal_node_id": "0.0-171.0", "trial": 6, "time_elapsed": 1072687, "serialpos": 9, "key_press": -1, "wordID": 1075, "type": "PRES_AUD", "trial_index": 234}, "uniqueid": "MTK1997:3A0EX8ZRN9V2XMK7FM7284A89GJBYP", "dateTime": 1516644630470}, {"current_trial": 235, "trialdata": {"rt": -1000, "trial_type": "single-audio", "word": "valve", "stimulus": "/static/audio/wordpool/VALVE.wav", "conditions": [24, 800, "a", 12000], "internal_node_id": "0.0-172.0", "trial": 6, "time_elapsed": 1074505, "serialpos": 10, "key_press": -1, "wordID": 1545, "type": "PRES_AUD", "trial_index": 235}, "uniqueid": "MTK1997:3A0EX8ZRN9V2XMK7FM7284A89GJBYP", "dateTime": 1516644632288}, {"current_trial": 236, "trialdata": {"rt": -1000, "trial_type": "single-audio", "word": "girl", "stimulus": "/static/audio/wordpool/GIRL.wav", "conditions": [24, 800, "a", 12000], "internal_node_id": "0.0-173.0", "trial": 6, "time_elapsed": 1076413, "serialpos": 11, "key_press": -1, "wordID": 636, "type": "PRES_AUD", "trial_index": 236}, "uniqueid": "MTK1997:3A0EX8ZRN9V2XMK7FM7284A89GJBYP", "dateTime": 1516644634196}, {"current_trial": 237, "trialdata": {"rt": -1000, "trial_type": "single-audio", "word": "permit", "stimulus": "/static/audio/wordpool/PERMIT.wav", "conditions": [24, 800, "a", 12000], "internal_node_id": "0.0-174.0", "trial": 6, "time_elapsed": 1078221, "serialpos": 12, "key_press": -1, "wordID": 1050, "type": "PRES_AUD", "trial_index": 237}, "uniqueid": "MTK1997:3A0EX8ZRN9V2XMK7FM7284A89GJBYP", "dateTime": 1516644636004}, {"current_trial": 238, "trialdata": {"rt": -1000, "trial_type": "single-audio", "word": "baby", "stimulus": "/static/audio/wordpool/BABY.wav", "conditions": [24, 800, "a", 12000], "internal_node_id": "0.0-175.0", "trial": 6, "time_elapsed": 1079997, "serialpos": 13, "key_press": -1, "wordID": 63, "type": "PRES_AUD", "trial_index": 238}, "uniqueid": "MTK1997:3A0EX8ZRN9V2XMK7FM7284A89GJBYP", "dateTime": 1516644637780}, {"current_trial": 239, "trialdata": {"rt": -1000, "trial_type": "single-audio", "word": "couch", "stimulus": "/static/audio/wordpool/COUCH.wav", "conditions": [24, 800, "a", 12000], "internal_node_id": "0.0-176.0", "trial": 6, "time_elapsed": 1081958, "serialpos": 14, "key_press": -1, "wordID": 385, "type": "PRES_AUD", "trial_index": 239}, "uniqueid": "MTK1997:3A0EX8ZRN9V2XMK7FM7284A89GJBYP", "dateTime": 1516644639741}, {"current_trial": 240, "trialdata": {"rt": -1000, "trial_type": "single-audio", "word": "stone", "stimulus": "/static/audio/wordpool/STONE.wav", "conditions": [24, 800, "a", 12000], "internal_node_id": "0.0-177.0", "trial": 6, "time_elapsed": 1083649, "serialpos": 15, "key_press": -1, "wordID": 1384, "type": "PRES_AUD", "trial_index": 240}, "uniqueid": "MTK1997:3A0EX8ZRN9V2XMK7FM7284A89GJBYP", "dateTime": 1516644641432}, {"current_trial": 241, "trialdata": {"rt": -1000, "trial_type": "single-audio", "word": "infant", "stimulus": "/static/audio/wordpool/INFANT.wav", "conditions": [24, 800, "a", 12000], "internal_node_id": "0.0-178.0", "trial": 6, "time_elapsed": 1085410, "serialpos": 16, "key_press": -1, "wordID": 736, "type": "PRES_AUD", "trial_index": 241}, "uniqueid": "MTK1997:3A0EX8ZRN9V2XMK7FM7284A89GJBYP", "dateTime": 1516644643193}, {"current_trial": 242, "trialdata": {"rt": -1000, "trial_type": "single-audio", "word": "barrel", "stimulus": "/static/audio/wordpool/BARREL.wav", "conditions": [24, 800, "a", 12000], "internal_node_id": "0.0-179.0", "trial": 6, "time_elapsed": 1087146, "serialpos": 17, "key_press": -1, "wordID": 90, "type": "PRES_AUD", "trial_index": 242}, "uniqueid": "MTK1997:3A0EX8ZRN9V2XMK7FM7284A89GJBYP", "dateTime": 1516644644929}, {"current_trial": 243, "trialdata": {"rt": -1000, "trial_type": "single-audio", "word": "gallon", "stimulus": "/static/audio/wordpool/GALLON.wav", "conditions": [24, 800, "a", 12000], "internal_node_id": "0.0-180.0", "trial": 6, "time_elapsed": 1088836, "serialpos": 18, "key_press": -1, "wordID": 617, "type": "PRES_AUD", "trial_index": 243}, "uniqueid": "MTK1997:3A0EX8ZRN9V2XMK7FM7284A89GJBYP", "dateTime": 1516644646619}, {"current_trial": 244, "trialdata": {"rt": -1000, "trial_type": "single-audio", "word": "fireman", "stimulus": "/static/audio/wordpool/FIREMAN.wav", "conditions": [24, 800, "a", 12000], "internal_node_id": "0.0-181.0", "trial": 6, "time_elapsed": 1090759, "serialpos": 19, "key_press": -1, "wordID": 568, "type": "PRES_AUD", "trial_index": 244}, "uniqueid": "MTK1997:3A0EX8ZRN9V2XMK7FM7284A89GJBYP", "dateTime": 1516644648542}, {"current_trial": 245, "trialdata": {"rt": -1000, "trial_type": "single-audio", "word": "clam", "stimulus": "/static/audio/wordpool/CLAM.wav", "conditions": [24, 800, "a", 12000], "internal_node_id": "0.0-182.0", "trial": 6, "time_elapsed": 1092617, "serialpos": 20, "key_press": -1, "wordID": 314, "type": "PRES_AUD", "trial_index": 245}, "uniqueid": "MTK1997:3A0EX8ZRN9V2XMK7FM7284A89GJBYP", "dateTime": 1516644650401}, {"current_trial": 246, "trialdata": {"rt": -1000, "trial_type": "single-audio", "word": "shovel", "stimulus": "/static/audio/wordpool/SHOVEL.wav", "conditions": [24, 800, "a", 12000], "internal_node_id": "0.0-183.0", "trial": 6, "time_elapsed": 1094480, "serialpos": 21, "key_press": -1, "wordID": 1294, "type": "PRES_AUD", "trial_index": 246}, "uniqueid": "MTK1997:3A0EX8ZRN9V2XMK7FM7284A89GJBYP", "dateTime": 1516644652264}, {"current_trial": 247, "trialdata": {"rt": -1000, "trial_type": "single-audio", "word": "flask", "stimulus": "/static/audio/wordpool/FLASK.wav", "conditions": [24, 800, "a", 12000], "internal_node_id": "0.0-184.0", "trial": 6, "time_elapsed": 1096282, "serialpos": 22, "key_press": -1, "wordID": 575, "type": "PRES_AUD", "trial_index": 247}, "uniqueid": "MTK1997:3A0EX8ZRN9V2XMK7FM7284A89GJBYP", "dateTime": 1516644654065}, {"current_trial": 248, "trialdata": {"rt": -1000, "trial_type": "single-audio", "word": "brick", "stimulus": "/static/audio/wordpool/BRICK.wav", "conditions": [24, 800, "a", 12000], "internal_node_id": "0.0-185.0", "trial": 6, "time_elapsed": 1098002, "serialpos": 23, "key_press": -1, "wordID": 171, "type": "PRES_AUD", "trial_index": 248}, "uniqueid": "MTK1997:3A0EX8ZRN9V2XMK7FM7284A89GJBYP", "dateTime": 1516644655785}, {"current_trial": 249, "trialdata": {"rt": -1, "trial_type": "single-stim", "stimulus": "", "internal_node_id": "0.0-186.0-0.0", "time_elapsed": 1099270, "key_press": -1, "type": 