{"assignmentId": "3R6BYFZZP8J3AY6DFS7W8GUKKZDXFZ", "workerId": "MTK1309", "questiondata": {"avail_screen_height": 1080, "color_depth": 24, "screen_width": 1920, "pixel_depth": 24, "avail_screen_width": 1854, "screen_height": 1080}, "bonus": 0, "hitId": "3OPLMF3EU5UIBC4B9VIJG7CMYX5LNS", "counterbalance": 384, "useragent": "Mozilla/5.0 (Windows NT 6.1; Win64; x64; rv:57.0) Gecko/20100101 Firefox/57.0", "eventdata": [{"eventtype": "initialized", "interval": 0, "value": null, "timestamp": 1515700758204}, {"eventtype": "window_resize", "interval": 0, "value": [1920, 1079], "timestamp": 1515700758204}, {"eventtype": "window_resize", "interval": 6212, "value": [1854, 1020], "timestamp": 1515700764416}, {"eventtype": "window_resize", "interval": 2629, "value": [1920, 1079], "timestamp": 1515700767045}, {"eventtype": "focus", "interval": 3332, "value": "off", "timestamp": 1515700770377}, {"eventtype": "focus", "interval": 1887, "value": "on", "timestamp": 1515700772264}, {"eventtype": "focus", "interval": 51915, "value": "off", "timestamp": 1515700824179}, {"eventtype": "focus", "interval": 1481, "value": "on", "timestamp": 1515700825660}, {"eventtype": "window_resize", "interval": 254752, "value": [1854, 1020], "timestamp": 1515701080412}, {"eventtype": "focus", "interval": 1501, "value": "off", "timestamp": 1515701081913}, {"eventtype": "focus", "interval": 12431, "value": "on", "timestamp": 1515701094344}, {"eventtype": "window_resize", "interval": 4618, "value": [1920, 1079], "timestamp": 1515701098962}, {"eventtype": "focus", "interval": 184128, "value": "off", "timestamp": 1515701283090}, {"eventtype": "focus", "interval": 105659, "value": "on", "timestamp": 1515701388749}, {"eventtype": "focus", "interval": 832847, "value": "off", "timestamp": 1515702221596}, {"eventtype": "focus", "interval": 11236, "value": "on", "timestamp": 1515702232832}, {"eventtype": "focus", "interval": 49029, "value": "off", "timestamp": 1515702281861}, {"eventtype": "focus", "interval": 6509, "value": "on", "timestamp": 1515702288370}, {"eventtype": "focus", "interval": 42251, "value": "off", "timestamp": 1515702330621}, {"eventtype": "focus", "interval": 6507, "value": "on", "timestamp": 1515702337128}, {"eventtype": "focus", "interval": 39141, "value": "off", "timestamp": 1515702376269}, {"eventtype": "focus", "interval": 11251, "value": "on", "timestamp": 1515702387520}, {"eventtype": "focus", "interval": 184646, "value": "off", "timestamp": 1515702572166}, {"eventtype": "focus", "interval": 22453, "value": "on", "timestamp": 1515702594619}, {"eventtype": "focus", "interval": 33853, "value": "off", "timestamp": 1515702628472}, {"eventtype": "focus", "interval": 29056, "value": "on", "timestamp": 1515702657528}, {"eventtype": "focus", "interval": 596441, "value": "off", "timestamp": 1515703253969}, {"eventtype": "focus", "interval": 14204, "value": "on", "timestamp": 1515703268173}, {"eventtype": "focus", "interval": 151112, "value": "off", "timestamp": 1515703419285}, {"eventtype": "focus", "interval": 1224, "value": "on", "timestamp": 1515703420509}, {"eventtype": "focus", "interval": 496315, "value": "off", "timestamp": 1515703916824}, {"eventtype": "focus", "interval": 19431, "value": "on", "timestamp": 1515703936255}], "data": [{"current_trial": 0, "trialdata": {"rt": 2336, "trial_type": "text", "internal_node_id": "0.0-0.0", "time_elapsed": 2339, "key_press": 32, "type": "INSTRUCTIONS", "trial_index": 0}, "uniqueid": "MTK1309:3R6BYFZZP8J3AY6DFS7W8GUKKZDXFZ", "dateTime": 1515700774380}, {"current_trial": 1, "trialdata": {"rt": 33336, "trial_type": "text", "internal_node_id": "0.0-1.0", "time_elapsed": 35678, "key_press": 13, "type": "INSTRUCTIONS", "trial_index": 1}, "uniqueid": "MTK1309:3R6BYFZZP8J3AY6DFS7W8GUKKZDXFZ", "dateTime": 1515700807719}, {"current_trial": 2, "trialdata": {"rt": [24376], "trial_type": "audio-test", "responses": ["ocean"], "internal_node_id": "0.0-2.0", "time_elapsed": 60373, "type": "AUDIO_TEST", "trial_index": 2}, "uniqueid": "MTK1309:3R6BYFZZP8J3AY6DFS7W8GUKKZDXFZ", "dateTime": 1515700832414}, {"current_trial": 3, "trialdata": {"rt": [11120], "trial_type": "audio-test", "responses": ["crystal"], "internal_node_id": "0.0-3.0", "time_elapsed": 71509, "type": "AUDIO_TEST", "trial_index": 3}, "uniqueid": "MTK1309:3R6BYFZZP8J3AY6DFS7W8GUKKZDXFZ", "dateTime": 1515700843549}, {"current_trial": 4, "trialdata": {"rt": [3782], "trial_type": "audio-test", "responses": ["spice"], "internal_node_id": "0.0-4.0", "time_elapsed": 75307, "type": "AUDIO_TEST", "trial_index": 4}, "uniqueid": "MTK1309:3R6BYFZZP8J3AY6DFS7W8GUKKZDXFZ", "dateTime": 1515700847348}, {"current_trial": 5, "trialdata": {"rt": 19994, "trial_type": "survey-text", "responses": "{\"Q0\":\"2:00 AM\",\"Q1\":\"9:00\",\"Q2\":\"3\"}", "internal_node_id": "0.0-5.0", "time_elapsed": 96054, "type": "SLEEP_SURVEY", "trial_index": 5}, "uniqueid": "MTK1309:3R6BYFZZP8J3AY6DFS7W8GUKKZDXFZ", "dateTime": 1515700868095}, {"current_trial": 6, "trialdata": {"rt": 75116, "trial_type": "text", "internal_node_id": "0.0-6.0", "time_elapsed": 172171, "key_press": 13, "type": "INSTRUCTIONS", "trial_index": 6}, "uniqueid": "MTK1309:3R6BYFZZP8J3AY6DFS7W8GUKKZDXFZ", "dateTime": 1515700944212}, {"current_trial": 7, "trialdata": {"rt": 15314, "trial_type": "text", "internal_node_id": "0.0-7.0", "time_elapsed": 187987, "key_press": 13, "type": "INSTRUCTIONS", "trial_index": 7}, "uniqueid": "MTK1309:3R6BYFZZP8J3AY6DFS7W8GUKKZDXFZ", "dateTime": 1515700960027}, {"current_trial": 8, "trialdata": {"rt": 17139, "trial_type": "text", "internal_node_id": "0.0-8.0", "time_elapsed": 205627, "key_press": 13, "type": "INSTRUCTIONS", "trial_index": 8}, "uniqueid": "MTK1309:3R6BYFZZP8J3AY6DFS7W8GUKKZDXFZ", "dateTime": 1515700977667}, {"current_trial": 9, "trialdata": {"rt": [3500, 6812, 9772, 11836, 13844, 17052], "trial_type": "math-distractor", "key_times": [2964, 3060, 3500, 5686, 5756, 6812, 9364, 9492, 9772, 11548, 11591, 11836, 13519, 13844, 16556, 16644, 17052], "responses": ["15", "17", "23", "15", "7", "13"], "num2": [8, 9, 8, 5, 1, 8, 3], "num3": [5, 2, 7, 3, 2, 3, 7], "conditions": [18, 1200, "a", 18000], "internal_node_id": "0.0-9.0", "key_presses": [97, 101, 13, 97, 103, 13, 98, 99, 13, 97, 101, 13, 103, 13, 97, 99, 13], "trial": 0, "time_elapsed": 224632, "type": "DISTRACTOR", "trial_index": 9, "num1": [2, 6, 8, 7, 4, 2, 7]}, "uniqueid": "MTK1309:3R6BYFZZP8J3AY6DFS7W8GUKKZDXFZ", "dateTime": 1515700996672}, {"current_trial": 10, "trialdata": {"rt": -1, "trial_type": "single-stim", "stimulus": "<p id=\"stim\">10</p>", "internal_node_id": "0.0-10.0-0.0", "time_elapsed": 227635, "key_press": -1, "trial_index": 10}, "uniqueid": "MTK1309:3R6BYFZZP8J3AY6DFS7W8GUKKZDXFZ", "dateTime": 1515700999675}, {"current_trial": 11, "trialdata": {"rt": -1, "trial_type": "single-stim", "stimulus": "<p id=\"stim\">9</p>", "internal_node_id": "0.0-10.0-1.0", "time_elapsed": 228637, "key_press": -1, "trial_index": 11}, "uniqueid": "MTK1309:3R6BYFZZP8J3AY6DFS7W8GUKKZDXFZ", "dateTime": 1515701000678}, {"current_trial": 12, "trialdata": {"rt": -1, "trial_type": "single-stim", "stimulus": "<p id=\"stim\">8</p>", "internal_node_id": "0.0-10.0-2.0", "time_elapsed": 229639, "key_press": -1, "trial_index": 12}, "uniqueid": "MTK1309:3R6BYFZZP8J3AY6DFS7W8GUKKZDXFZ", "dateTime": 1515701001679}, {"current_trial": 13, "trialdata": {"rt": -1, "trial_type": "single-stim", "stimulus": "<p id=\"stim\">7</p>", "internal_node_id": "0.0-10.0-3.0", "time_elapsed": 230641, "key_press": -1, "trial_index": 13}, "uniqueid": "MTK1309:3R6BYFZZP8J3AY6DFS7W8GUKKZDXFZ", "dateTime": 1515701002681}, {"current_trial": 14, "trialdata": {"rt": -1, "trial_type": "single-stim", "stimulus": "<p id=\"stim\">6</p>", "internal_node_id": "0.0-10.0-4.0", "time_elapsed": 231643, "key_press": -1, "trial_index": 14}, "uniqueid": "MTK1309:3R6BYFZZP8J3AY6DFS7W8GUKKZDXFZ", "dateTime": 1515701003683}, {"current_trial": 15, "trialdata": {"rt": -1, "trial_type": "single-stim", "stimulus": "<p id=\"stim\">5</p>", "internal_node_id": "0.0-10.0-5.0", "time_elapsed": 232644, "key_press": -1, "trial_index": 15}, "uniqueid": "MTK1309:3R6BYFZZP8J3AY6DFS7W8GUKKZDXFZ", "dateTime": 1515701004684}, {"current_trial": 16, "trialdata": {"rt": -1, "trial_type": "single-stim", "stimulus": "<p id=\"stim\">4</p>", "internal_node_id": "0.0-10.0-6.0", "time_elapsed": 233645, "key_press": -1, "trial_index": 16}, "uniqueid": "MTK1309:3R6BYFZZP8J3AY6DFS7W8GUKKZDXFZ", "dateTime": 1515701005685}, {"current_trial": 17, "trialdata": {"rt": -1, "trial_type": "single-stim", "stimulus": "<p id=\"stim\">3</p>", "internal_node_id": "0.0-10.0-7.0", "time_elapsed": 234646, "key_press": -1, "trial_index": 17}, "uniqueid": "MTK1309:3R6BYFZZP8J3AY6DFS7W8GUKKZDXFZ", "dateTime": 1515701006686}, {"current_trial": 18, "trialdata": {"rt": -1, "trial_type": "single-stim", "stimulus": "<p id=\"stim\">2</p>", "internal_node_id": "0.0-10.0-8.0", "time_elapsed": 235648, "key_press": -1, "trial_index": 18}, "uniqueid": "MTK1309:3R6BYFZZP8J3AY6DFS7W8GUKKZDXFZ", "dateTime": 1515701007688}, {"current_trial": 19, "trialdata": {"rt": -1, "trial_type": "single-stim", "stimulus": "<p id=\"stim\">1</p>", "internal_node_id": "0.0-10.0-9.0", "time_elapsed": 236649, "key_press": -1, "trial_index": 19}, "uniqueid": "MTK1309:3R6BYFZZP8J3AY6DFS7W8GUKKZDXFZ", "dateTime": 1515701008689}, {"current_trial": 20, "trialdata": {"rt": -1, "trial_type": "single-stim", "stimulus": "<p id=\"stim\">+</p>", "internal_node_id": "0.0-11.0-0.0", "time_elapsed": 238150, "key_press": -1, "type": "FIXATION", "trial_index": 20}, "uniqueid": "MTK1309:3R6BYFZZP8J3AY6DFS7W8GUKKZDXFZ", "dateTime": 1515701010190}, {"current_trial": 21, "trialdata": {"rt": -1000, "trial_type": "single-audio", "word": "lunch", "stimulus": "/static/audio/wordpool/LUNCH.wav", "conditions": [18, 1200, "a", 18000], "internal_node_id": "0.0-12.0", "trial": 0, "time_elapsed": 240254, "serialpos": 0, "key_press": -1, "wordID": 848, "type": "PRES_AUD", "trial_index": 21}, "uniqueid": "MTK1309:3R6BYFZZP8J3AY6DFS7W8GUKKZDXFZ", "dateTime": 1515701012294}, {"current_trial": 22, "trialdata": {"rt": -1000, "trial_type": "single-audio", "word": "crayon", "stimulus": "/static/audio/wordpool/CRAYON.wav", "conditions": [18, 1200, "a", 18000], "internal_node_id": "0.0-13.0", "trial": 0, "time_elapsed": 242643, "serialpos": 1, "key_press": -1, "wordID": 400, "type": "PRES_AUD", "trial_index": 22}, "uniqueid": "MTK1309:3R6BYFZZP8J3AY6DFS7W8GUKKZDXFZ", "dateTime": 1515701014683}, {"current_trial": 23, "trialdata": {"rt": -1000, "trial_type": "single-audio", "word": "peach", "stimulus": "/static/audio/wordpool/PEACH.wav", "conditions": [18, 1200, "a", 18000], "internal_node_id": "0.0-14.0", "trial": 0, "time_elapsed": 244974, "serialpos": 2, "key_press": -1, "wordID": 1030, "type": "PRES_AUD", "trial_index": 23}, "uniqueid": "MTK1309:3R6BYFZZP8J3AY6DFS7W8GUKKZDXFZ", "dateTime": 1515701017014}, {"current_trial": 24, "trialdata": {"rt": -1000, "trial_type": "single-audio", "word": "luggage", "stimulus": "/static/audio/wordpool/LUGGAGE.wav", "conditions": [18, 1200, "a", 18000], "internal_node_id": "0.0-15.0", "trial": 0, "time_elapsed": 247113, "serialpos": 3, "key_press": -1, "wordID": 846, "type": "PRES_AUD", "trial_index": 24}, "uniqueid": "MTK1309:3R6BYFZZP8J3AY6DFS7W8GUKKZDXFZ", "dateTime": 1515701019153}, {"current_trial": 25, "trialdata": {"rt": -1000, "trial_type": "single-audio", "word": "pastry", "stimulus": "/static/audio/wordpool/PASTRY.wav", "conditions": [18, 1200, "a", 18000], "internal_node_id": "0.0-16.0", "trial": 0, "time_elapsed": 249479, "serialpos": 4, "key_press": -1, "wordID": 1021, "type": "PRES_AUD", "trial_index": 25}, "uniqueid": "MTK1309:3R6BYFZZP8J3AY6DFS7W8GUKKZDXFZ", "dateTime": 1515701021519}, {"current_trial": 26, "trialdata": {"rt": -1000, "trial_type": "single-audio", "word": "item", "stimulus": "/static/audio/wordpool/ITEM.wav", "conditions": [18, 1200, "a", 18000], "internal_node_id": "0.0-17.0", "trial": 0, "time_elapsed": 251710, "serialpos": 5, "key_press": -1, "wordID": 745, "type": "PRES_AUD", "trial_index": 26}, "uniqueid": "MTK1309:3R6BYFZZP8J3AY6DFS7W8GUKKZDXFZ", "dateTime": 1515701023750}, {"current_trial": 27, "trialdata": {"rt": -1000, "trial_type": "single-audio", "word": "bank", "stimulus": "/static/audio/wordpool/BANK.wav", "conditions": [18, 1200, "a", 18000], "internal_node_id": "0.0-18.0", "trial": 0, "time_elapsed": 253805, "serialpos": 6, "key_press": -1, "wordID": 82, "type": "PRES_AUD", "trial_index": 27}, "uniqueid": "MTK1309:3R6BYFZZP8J3AY6DFS7W8GUKKZDXFZ", "dateTime": 1515701025845}, {"current_trial": 28, "trialdata": {"rt": -1000, "trial_type": "single-audio", "word": "perch", "stimulus": "/static/audio/wordpool/PERCH.wav", "conditions": [18, 1200, "a", 18000], "internal_node_id": "0.0-19.0", "trial": 0, "time_elapsed": 255941, "serialpos": 7, "key_press": -1, "wordID": 1047, "type": "PRES_AUD", "trial_index": 28}, "uniqueid": "MTK1309:3R6BYFZZP8J3AY6DFS7W8GUKKZDXFZ", "dateTime": 1515701027981}, {"current_trial": 29, "trialdata": {"rt": -1000, "trial_type": "single-audio", "word": "hostess", "stimulus": "/static/audio/wordpool/HOSTESS.wav", "conditions": [18, 1200, "a", 18000], "internal_node_id": "0.0-20.0", "trial": 0, "time_elapsed": 257958, "serialpos": 8, "key_press": -1, "wordID": 722, "type": "PRES_AUD", "trial_index": 29}, "uniqueid": "MTK1309:3R6BYFZZP8J3AY6DFS7W8GUKKZDXFZ", "dateTime": 1515701029998}, {"current_trial": 30, "trialdata": {"rt": -1000, "trial_type": "single-audio", "word": "snack", "stimulus": "/static/audio/wordpool/SNACK.wav", "conditions": [18, 1200, "a", 18000], "internal_node_id": "0.0-21.0", "trial": 0, "time_elapsed": 260211, "serialpos": 9, "key_press": -1, "wordID": 1330, "type": "PRES_AUD", "trial_index": 30}, "uniqueid": "MTK1309:3R6BYFZZP8J3AY6DFS7W8GUKKZDXFZ", "dateTime": 1515701032252}, {"current_trial": 31, "trialdata": {"rt": -1000, "trial_type": "single-audio", "word": "lipstick", "stimulus": "/static/audio/wordpool/LIPSTICK.wav", "conditions": [18, 1200, "a", 18000], "internal_node_id": "0.0-22.0", "trial": 0, "time_elapsed": 262412, "serialpos": 10, "key_press": -1, "wordID": 828, "type": "PRES_AUD", "trial_index": 31}, "uniqueid": "MTK1309:3R6BYFZZP8J3AY6DFS7W8GUKKZDXFZ", "dateTime": 1515701034452}, {"current_trial": 32, "trialdata": {"rt": -1000, "trial_type": "single-audio", "word": "antler", "stimulus": "/static/audio/wordpool/ANTLER.wav", "conditions": [18, 1200, "a", 18000], "internal_node_id": "0.0-23.0", "trial": 0, "time_elapsed": 264432, "serialpos": 11, "key_press": -1, "wordID": 28, "type": "PRES_AUD", "trial_index": 32}, "uniqueid": "MTK1309:3R6BYFZZP8J3AY6DFS7W8GUKKZDXFZ", "dateTime": 1515701036472}, {"current_trial": 33, "trialdata": {"rt": -1000, "trial_type": "single-audio", "word": "lady", "stimulus": "/static/audio/wordpool/LADY.wav", "conditions": [18, 1200, "a", 18000], "internal_node_id": "0.0-24.0", "trial": 0, "time_elapsed": 266569, "serialpos": 12, "key_press": -1, "wordID": 793, "type": "PRES_AUD", "trial_index": 33}, "uniqueid": "MTK1309:3R6BYFZZP8J3AY6DFS7W8GUKKZDXFZ", "dateTime": 1515701038609}, {"current_trial": 34, "trialdata": {"rt": -1000, "trial_type": "single-audio", "word": "slope", "stimulus": "/static/audio/wordpool/SLOPE.wav", "conditions": [18, 1200, "a", 18000], "internal_node_id": "0.0-25.0", "trial": 0, "time_elapsed": 268747, "serialpos": 13, "key_press": -1, "wordID": 1327, "type": "PRES_AUD", "trial_index": 34}, "uniqueid": "MTK1309:3R6BYFZZP8J3AY6DFS7W8GUKKZDXFZ", "dateTime": 1515701040787}, {"current_trial": 35, "trialdata": {"rt": -1000, "trial_type": "single-audio", "word": "sphinx", "stimulus": "/static/audio/wordpool/SPHINX.wav", "conditions": [18, 1200, "a", 18000], "internal_node_id": "0.0-26.0", "trial": 0, "time_elapsed": 270936, "serialpos": 14, "key_press": -1, "wordID": 1348, "type": "PRES_AUD", "trial_index": 35}, "uniqueid": "MTK1309:3R6BYFZZP8J3AY6DFS7W8GUKKZDXFZ", "dateTime": 1515701042976}, {"current_trial": 36, "trialdata": {"rt": -1000, "trial_type": "single-audio", "word": "permit", "stimulus": "/static/audio/wordpool/PERMIT.wav", "conditions": [18, 1200, "a", 18000], "internal_node_id": "0.0-27.0", "trial": 0, "time_elapsed": 273096, "serialpos": 15, "key_press": -1, "wordID": 1050, "type": "PRES_AUD", "trial_index": 36}, "uniqueid": "MTK1309:3R6BYFZZP8J3AY6DFS7W8GUKKZDXFZ", "dateTime": 1515701045136}, {"current_trial": 37, "trialdata": {"rt": -1000, "trial_type": "single-audio", "word": "fireman", "stimulus": "/static/audio/wordpool/FIREMAN.wav", "conditions": [18, 1200, "a", 18000], "internal_node_id": "0.0-28.0", "trial": 0, "time_elapsed": 275495, "serialpos": 16, "key_press": -1, "wordID": 568, "type": "PRES_AUD", "trial_index": 37}, "uniqueid": "MTK1309:3R6BYFZZP8J3AY6DFS7W8GUKKZDXFZ", "dateTime": 1515701047535}, {"current_trial": 38, "trialdata": {"rt": -1000, "trial_type": "single-audio", "word": "pecan", "stimulus": "/static/audio/wordpool/PECAN.wav", "conditions": [18, 1200, "a", 18000], "internal_node_id": "0.0-29.0", "trial": 0, "time_elapsed": 277715, "serialpos": 17, "key_press": -1, "wordID": 1035, "type": "PRES_AUD", "trial_index": 38}, "uniqueid": "MTK1309:3R6BYFZZP8J3AY6DFS7W8GUKKZDXFZ", "dateTime": 1515701049755}, {"current_trial": 39, "trialdata": {"rt": -1, "trial_type": "single-stim", "stimulus": "", "internal_node_id": "0.0-30.0-0.0", "time_elapsed": 279017, "key_press": -1, "type": "PRE_RECALL_DELAY", "trial_index": 39}, "uniqueid": "MTK1309:3R6BYFZZP8J3AY6DFS7W8GUKKZDXFZ", "dateTime": 1515701051057}, {"current_trial": 40, "trialdata": {"rt": -1000, "trial_type": "single-audio", "stimulus": "/static/audio/400Hz.wav", "internal_node_id": "0.0-31.0", "time_elapsed": 279518, "key_press": -1, "type": "PRE_RECALL_ALERT", "trial_index": 40}, "uniqueid": "MTK1309:3R6BYFZZP8J3AY6DFS7W8GUKKZDXFZ", "dateTime": 1515701051558}, {"current_trial": 41, "trialdata": {"rt": [4459, 7921, 10305, 12145, 13729, 15449, 22489, 24168, 47273, 52641], "recwords": ["lunch", "crayon", "peach", "luggage", "pastry", "think", "permit", "fireman", "", "snack"], "key_times": [2817, 2928, 3169, 3376, 3441, 4459, 6241, 6321, 6553, 6618, 6849, 6960, 7921, 8489, 8600, 8713, 8953, 9049, 10305, 11065, 11177, 11448, 11600, 11729, 11833, 11960, 12145, 12745, 12857, 12921, 13232, 13352, 13479, 13729, 14817, 14890, 14953, 15161, 15201, 15449, 20745, 20905, 20994, 21161, 21249, 21569, 22489, 23249, 23361, 23497, 23577, 23698, 23865, 23929, 24168, 28625, 45665, 47273, 51641, 51930, 52145, 52233, 52348, 52641], "trial_type": "free-recall", "conditions": [18, 1200, "a", 18000], "internal_node_id": "0.0-32.0-0.0", "key_presses": [76, 85, 78, 67, 72, 32, 67, 82, 65, 89, 79, 78, 13, 80, 69, 65, 67, 72, 13, 76, 85, 71, 71, 65, 71, 69, 13, 80, 65, 83, 84, 82, 89, 13, 84, 72, 73, 78, 75, 13, 80, 69, 82, 77, 73, 84, 13, 70, 73, 82, 69, 77, 65, 78, 13, 122, 122, 13, 83, 78, 65, 67, 75, 13], "trial": 0, "time_elapsed": 339524, "type": "FREE_RECALL", "trial_index": 41}, "uniqueid": "MTK1309:3R6BYFZZP8J3AY6DFS7W8GUKKZDXFZ", "dateTime": 1515701111568}, {"current_trial": 42, "trialdata": {"rt": 2484, "trial_type": "text", "internal_node_id": "0.0-33.0", "time_elapsed": 344013, "key_press": 13, "type": "INSTRUCTIONS", "trial_index": 42}, "uniqueid": "MTK1309:3R6BYFZZP8J3AY6DFS7W8GUKKZDXFZ", "dateTime": 1515701116053}, {"current_trial": 43, "trialdata": {"rt": [4645, 8957, 11181, 14790, 16687], "trial_type": "math-distractor", "key_times": [4261, 4333, 4645, 8285, 8341, 8957, 10822, 10877, 11181, 14270, 14478, 14790, 16383, 16437, 16687], "responses": ["23", "16", "18", "26", "20"], "num2": [9, 7, 5, 5, 9, 5], "num3": [9, 6, 7, 8, 9, 3], "conditions": [18, 1200, "a", 18000], "internal_node_id": "0.0-34.0", "key_presses": [98, 99, 13, 97, 102, 13, 97, 104, 13, 98, 102, 13, 98, 96, 13], "trial": 1, "time_elapsed": 364016, "type": "DISTRACTOR", "trial_index": 43, "num1": [5, 3, 6, 9, 2, 7]}, "uniqueid": "MTK1309:3R6BYFZZP8J3AY6DFS7W8GUKKZDXFZ", "dateTime": 1515701136057}, {"current_trial": 44, "trialdata": {"rt": -1, "trial_type": "single-stim", "stimulus": "<p id=\"stim\">10</p>", "internal_node_id": "0.0-35.0-0.0", "time_elapsed": 367019, "key_press": -1, "trial_index": 44}, "uniqueid": "MTK1309:3R6BYFZZP8J3AY6DFS7W8GUKKZDXFZ", "dateTime": 1515701139059}, {"current_trial": 45, "trialdata": {"rt": -1, "trial_type": "single-stim", "stimulus": "<p id=\"stim\">9</p>", "internal_node_id": "0.0-35.0-1.0", "time_elapsed": 368021, "key_press": -1, "trial_index": 45}, "uniqueid": "MTK1309:3R6BYFZZP8J3AY6DFS7W8GUKKZDXFZ", "dateTime": 1515701140061}, {"current_trial": 46, "trialdata": {"rt": -1, "trial_type": "single-stim", "stimulus": "<p id=\"stim\">8</p>", "internal_node_id": "0.0-35.0-2.0", "time_elapsed": 369023, "key_press": -1, "trial_index": 46}, "uniqueid": "MTK1309:3R6BYFZZP8J3AY6DFS7W8GUKKZDXFZ", "dateTime": 1515701141063}, {"current_trial": 47, "trialdata": {"rt": -1, "trial_type": "single-stim", "stimulus": "<p id=\"stim\">7</p>", "internal_node_id": "0.0-35.0-3.0", "time_elapsed": 370024, "key_press": -1, "trial_index": 47}, "uniqueid": "MTK1309:3R6BYFZZP8J3AY6DFS7W8GUKKZDXFZ", "dateTime": 1515701142064}, {"current_trial": 48, "trialdata": {"rt": -1, "trial_type": "single-stim", "stimulus": "<p id=\"stim\">6</p>", "internal_node_id": "0.0-35.0-4.0", "time_elapsed": 371025, "key_press": -1, "trial_index": 48}, "uniqueid": "MTK1309:3R6BYFZZP8J3AY6DFS7W8GUKKZDXFZ", "dateTime": 1515701143065}, {"current_trial": 49, "trialdata": {"rt": -1, "trial_type": "single-stim", "stimulus": "<p id=\"stim\">5</p>", "internal_node_id": "0.0-35.0-5.0", "time_elapsed": 372026, "key_press": -1, "trial_index": 49}, "uniqueid": "MTK1309:3R6BYFZZP8J3AY6DFS7W8GUKKZDXFZ", "dateTime": 1515701144066}, {"current_trial": 50, "trialdata": {"rt": -1, "trial_type": "single-stim", "stimulus": "<p id=\"stim\">4</p>", "internal_node_id": "0.0-35.0-6.0", "time_elapsed": 373029, "key_press": -1, "trial_index": 50}, "uniqueid": "MTK1309:3R6BYFZZP8J3AY6DFS7W8GUKKZDXFZ", "dateTime": 1515701145069}, {"current_trial": 51, "trialdata": {"rt": -1, "trial_type": "single-stim", "stimulus": "<p id=\"stim\">3</p>", "internal_node_id": "0.0-35.0-7.0", "time_elapsed": 374031, "key_press": -1, "trial_index": 51}, "uniqueid": "MTK1309:3R6BYFZZP8J3AY6DFS7W8GUKKZDXFZ", "dateTime": 1515701146071}, {"current_trial": 52, "trialdata": {"rt": -1, "trial_type": "single-stim", "stimulus": "<p id=\"stim\">2</p>", "internal_node_id": "0.0-35.0-8.0", "time_elapsed": 375032, "key_press": -1, "trial_index": 52}, "uniqueid": "MTK1309:3R6BYFZZP8J3AY6DFS7W8GUKKZDXFZ", "dateTime": 1515701147073}, {"current_trial": 53, "trialdata": {"rt": -1, "trial_type": "single-stim", "stimulus": "<p id=\"stim\">1</p>", "internal_node_id": "0.0-35.0-9.0", "time_elapsed": 376035, "key_press": -1, "trial_index": 53}, "uniqueid": "MTK1309:3R6BYFZZP8J3AY6DFS7W8GUKKZDXFZ", "dateTime": 1515701148075}, {"current_trial": 54, "trialdata": {"rt": -1, "trial_type": "single-stim", "stimulus": "<p id=\"stim\">+</p>", "internal_node_id": "0.0-36.0-0.0", "time_elapsed": 377536, "key_press": -1, "type": "FIXATION", "trial_index": 54}, "uniqueid": "MTK1309:3R6BYFZZP8J3AY6DFS7W8GUKKZDXFZ", "dateTime": 1515701149576}, {"current_trial": 55, "trialdata": {"rt": -1000, "trial_type": "single-audio", "word": "grave", "stimulus": "/static/audio/wordpool/GRAVE.wav", "conditions": [18, 1200, "a", 18000], "internal_node_id": "0.0-37.0", "trial": 1, "time_elapsed": 379863, "serialpos": 0, "key_press": -1, "wordID": 657, "type": "PRES_AUD", "trial_index": 55}, "uniqueid": "MTK1309:3R6BYFZZP8J3AY6DFS7W8GUKKZDXFZ", "dateTime": 1515701151903}, {"current_trial": 56, "trialdata": {"rt": -1000, "trial_type": "single-audio", "word": "tart", "stimulus": "/static/audio/wordpool/TART.wav", "conditions": [18, 1200, "a", 18000], "internal_node_id": "0.0-38.0", "trial": 1, "time_elapsed": 381913, "serialpos": 1, "key_press": -1, "wordID": 1435, "type": "PRES_AUD", "trial_index": 56}, "uniqueid": "MTK1309:3R6BYFZZP8J3AY6DFS7W8GUKKZDXFZ", "dateTime": 1515701153953}, {"current_trial": 57, "trialdata": {"rt": -1000, "trial_type": "single-audio", "word": "handbag", "stimulus": "/static/audio/wordpool/HANDBAG.wav", "conditions": [18, 1200, "a", 18000], "internal_node_id": "0.0-39.0", "trial": 1, "time_elapsed": 384124, "serialpos": 2, "key_press": -1, "wordID": 683, "type": "PRES_AUD", "trial_index": 57}, "uniqueid": "MTK1309:3R6BYFZZP8J3AY6DFS7W8GUKKZDXFZ", "dateTime": 1515701156165}, {"current_trial": 58, "trialdata": {"rt": -1000, "trial_type": "single-audio", "word": "typist", "stimulus": "/static/audio/wordpool/TYPIST.wav", "conditions": [18, 1200, "a", 18000], "internal_node_id": "0.0-40.0", "trial": 1, "time_elapsed": 386345, "serialpos": 3, "key_press": -1, "wordID": 1531, "type": "PRES_AUD", "trial_index": 58}, "uniqueid": "MTK1309:3R6BYFZZP8J3AY6DFS7W8GUKKZDXFZ", "dateTime": 1515701158385}, {"current_trial": 59, "trialdata": {"rt": -1000, "trial_type": "single-audio", "word": "donkey", "stimulus": "/static/audio/wordpool/DONKEY.wav", "conditions": [18, 1200, "a", 18000], "internal_node_id": "0.0-41.0", "trial": 1, "time_elapsed": 388381, "serialpos": 4, "key_press": -1, "wordID": 483, "type": "PRES_AUD", "trial_index": 59}, "uniqueid": "MTK1309:3R6BYFZZP8J3AY6DFS7W8GUKKZDXFZ", "dateTime": 1515701160421}, {"current_trial": 60, "trialdata": {"rt": -1000, "trial_type": "single-audio", "word": "spider", "stimulus": "/static/audio/wordpool/SPIDER.wav", "conditions": [18, 1200, "a", 18000], "internal_node_id": "0.0-42.0", "trial": 1, "time_elapsed": 390568, "serialpos": 5, "key_press": -1, "wordID": 1350, "type": "PRES_AUD", "trial_index": 60}, "uniqueid": "MTK1309:3R6BYFZZP8J3AY6DFS7W8GUKKZDXFZ", "dateTime": 1515701162608}, {"current_trial": 61, "trialdata": {"rt": -1000, "trial_type": "single-audio", "word": "highway", "stimulus": "/static/audio/wordpool/HIGHWAY.wav", "conditions": [18, 1200, "a", 18000], "internal_node_id": "0.0-43.0", "trial": 1, "time_elapsed": 392629, "serialpos": 6, "key_press": -1, "wordID": 706, "type": "PRES_AUD", "trial_index": 61}, "uniqueid": "MTK1309:3R6BYFZZP8J3AY6DFS7W8GUKKZDXFZ", "dateTime": 1515701164669}, {"current_trial": 62, "trialdata": {"rt": -1000, "trial_type": "single-audio", "word": "muffin", "stimulus": "/static/audio/wordpool/MUFFIN.wav", "conditions": [18, 1200, "a", 18000], "internal_node_id": "0.0-44.0", "trial": 1, "time_elapsed": 394795, "serialpos": 7, "key_press": -1, "wordID": 928, "type": "PRES_AUD", "trial_index": 62}, "uniqueid": "MTK1309:3R6BYFZZP8J3AY6DFS7W8GUKKZDXFZ", "dateTime": 1515701166836}, {"current_trial": 63, "trialdata": {"rt": -1000, "trial_type": "single-audio", "word": "marsh", "stimulus": "/static/audio/wordpool/MARSH.wav", "conditions": [18, 1200, "a", 18000], "internal_node_id": "0.0-45.0", "trial": 1, "time_elapsed": 397061, "serialpos": 8, "key_press": -1, "wordID": 873, "type": "PRES_AUD", "trial_index": 63}, "uniqueid": "MTK1309:3R6BYFZZP8J3AY6DFS7W8GUKKZDXFZ", "dateTime": 1515701169102}, {"current_trial": 64, "trialdata": {"rt": -1000, "trial_type": "single-audio", "word": "airplane", "stimulus": "/static/audio/wordpool/AIRPLANE.wav", "conditions": [18, 1200, "a", 18000], "internal_node_id": "0.0-46.0", "trial": 1, "time_elapsed": 399424, "serialpos": 9, "key_press": -1, "wordID": 11, "type": "PRES_AUD", "trial_index": 64}, "uniqueid": "MTK1309:3R6BYFZZP8J3AY6DFS7W8GUKKZDXFZ", "dateTime": 1515701171464}, {"current_trial": 65, "trialdata": {"rt": -1000, "trial_type": "single-audio", "word": "suitcase", "stimulus": "/static/audio/wordpool/SUITCASE.wav", "conditions": [18, 1200, "a", 18000], "internal_node_id": "0.0-47.0", "trial": 1, "time_elapsed": 401701, "serialpos": 10, "key_press": -1, "wordID": 1402, "type": "PRES_AUD", "trial_index": 65}, "uniqueid": "MTK1309:3R6BYFZZP8J3AY6DFS7W8GUKKZDXFZ", "dateTime": 1515701173741}, {"current_trial": 66, "trialdata": {"rt": -1000, "trial_type": "single-audio", "word": "canal", "stimulus": "/static/audio/wordpool/CANAL.wav", "conditions": [18, 1200, "a", 18000], "internal_node_id": "0.0-48.0", "trial": 1, "time_elapsed": 403771, "serialpos": 11, "key_press": -1, "wordID": 225, "type": "PRES_AUD", "trial_index": 66}, "uniqueid": "MTK1309:3R6BYFZZP8J3AY6DFS7W8GUKKZDXFZ", "dateTime": 1515701175811}, {"current_trial": 67, "trialdata": {"rt": -1000, "trial_type": "single-audio", "word": "sausage", "stimulus": "/static/audio/wordpool/SAUSAGE.wav", "conditions": [18, 1200, "a", 18000], "internal_node_id": "0.0-49.0", "trial": 1, "time_elapsed": 405776, "serialpos": 12, "key_press": -1, "wordID": 1237, "type": "PRES_AUD", "trial_index": 67}, "uniqueid": "MTK1309:3R6BYFZZP8J3AY6DFS7W8GUKKZDXFZ", "dateTime": 1515701177816}, {"current_trial": 68, "trialdata": {"rt": -1000, "trial_type": "single-audio", "word": "dolphin", "stimulus": "/static/audio/wordpool/DOLPHIN.wav", "conditions": [18, 1200, "a", 18000], "internal_node_id": "0.0-50.0", "trial": 1, "time_elapsed": 407792, "serialpos": 13, "key_press": -1, "wordID": 482, "type": "PRES_AUD", "trial_index": 68}, "uniqueid": "MTK1309:3R6BYFZZP8J3AY6DFS7W8GUKKZDXFZ", "dateTime": 1515701179832}, {"current_trial": 69, "trialdata": {"rt": -1000, "trial_type": "single-audio", "word": "barley", "stimulus": "/static/audio/wordpool/BARLEY.wav", "conditions": [18, 1200, "a", 18000], "internal_node_id": "0.0-51.0", "trial": 1, "time_elapsed": 410031, "serialpos": 14, "key_press": -1, "wordID": 87, "type": "PRES_AUD", "trial_index": 69}, "uniqueid": "MTK1309:3R6BYFZZP8J3AY6DFS7W8GUKKZDXFZ", "dateTime": 1515701182072}, {"current_trial": 70, "trialdata": {"rt": -1000, "trial_type": "single-audio", "word": "candy", "stimulus": "/static/audio/wordpool/CANDY.wav", "conditions": [18, 1200, "a", 18000], "internal_node_id": "0.0-52.0", "trial": 1, "time_elapsed": 412230, "serialpos": 15, "key_press": -1, "wordID": 229, "type": "PRES_AUD", "trial_index": 70}, "uniqueid": "MTK1309:3R6BYFZZP8J3AY6DFS7W8GUKKZDXFZ", "dateTime": 1515701184270}, {"current_trial": 71, "trialdata": {"rt": -1000, "trial_type": "single-audio", "word": "hero", "stimulus": "/static/audio/wordpool/HERO.wav", "conditions": [18, 1200, "a", 18000], "internal_node_id": "0.0-53.0", "trial": 1, "time_elapsed": 414440, "serialpos": 16, "key_press": -1, "wordID": 705, "type": "PRES_AUD", "trial_index": 71}, "uniqueid": "MTK1309:3R6BYFZZP8J3AY6DFS7W8GUKKZDXFZ", "dateTime": 1515701186480}, {"current_trial": 72, "trialdata": {"rt": -1000, "trial_type": "single-audio", "word": "gift", "stimulus": "/static/audio/wordpool/GIFT.wav", "conditions": [18, 1200, "a", 18000], "internal_node_id": "0.0-54.0", "trial": 1, "time_elapsed": 416648, "serialpos": 17, "key_press": -1, "wordID": 634, "type": "PRES_AUD", "trial_index": 72}, "uniqueid": "MTK1309:3R6BYFZZP8J3AY6DFS7W8GUKKZDXFZ", "dateTime": 1515701188688}, {"current_trial": 73, "trialdata": {"rt": -1, "trial_type": "single-stim", "stimulus": "", "internal_node_id": "0.0-55.0-0.0", "time_elapsed": 417976, "key_press": -1, "type": "PRE_RECALL_DELAY", "trial_index": 73}, "uniqueid": "MTK1309:3R6BYFZZP8J3AY6DFS7W8GUKKZDXFZ", "dateTime": 1515701190016}, {"current_trial": 74, "trialdata": {"rt": -1000, "trial_type": "single-audio", "stimulus": "/static/audio/400Hz.wav", "internal_node_id": "0.0-56.0", "time_elapsed": 418477, "key_press": -1, "type": "PRE_RECALL_ALERT", "trial_index": 74}, "uniqueid": "MTK1309:3R6BYFZZP8J3AY6DFS7W8GUKKZDXFZ", "dateTime": 1515701190518}, {"current_trial": 75, "trialdata": {"rt": [4893, 6765, 10166, 12437, 14925, 17589], "recwords": ["gift", "candy", "dolphin", "muffin", "marsh", "tart"], "key_times": [2637, 2732, 2949, 3205, 4893, 5340, 5437, 5596, 5901, 6093, 6765, 7901, 7997, 8397, 8678, 9020, 9253, 9316, 10166, 10829, 10909, 11172, 11516, 11676, 11828, 12012, 12116, 12437, 12805, 13262, 13389, 13908, 13972, 14925, 17046, 17149, 17246, 17317, 17589], "trial_type": "free-recall", "conditions": [18, 1200, "a", 18000], "internal_node_id": "0.0-57.0-0.0", "key_presses": [71, 73, 70, 84, 32, 67, 65, 78, 68, 89, 13, 68, 79, 76, 80, 72, 73, 78, 13, 77, 85, 71, 8, 70, 70, 73, 78, 13, 77, 65, 82, 83, 72, 13, 84, 65, 82, 84, 13], "trial": 1, "time_elapsed": 478481, "type": "FREE_RECALL", "trial_index": 75}, "uniqueid": "MTK1309:3R6BYFZZP8J3AY6DFS7W8GUKKZDXFZ", "dateTime": 1515701250523}, {"current_trial": 76, "trialdata": {"rt": 139691, "trial_type": "text", "internal_node_id": "0.0-58.0", "time_elapsed": 620176, "key_press": 32, "type": "INSTRUCTIONS", "trial_index": 76}, "uniqueid": "MTK1309:3R6BYFZZP8J3AY6DFS7W8GUKKZDXFZ", "dateTime": 1515701392216}, {"current_trial": 77, "trialdata": {"rt": [3109, 4881, 8305, 10864], "trial_type": "math-distractor", "key_times": [2921, 2985, 3109, 4641, 4737, 4881, 8048, 8121, 8305, 10625, 10714, 10864], "responses": ["17", "12", "31", "13"], "num2": [7, 4, 9, 2, 5], "num3": [3, 7, 7, 9, 6], "conditions": [12, 1600, "a", 12000], "internal_node_id": "0.0-59.0", "key_presses": [97, 103, 13, 97, 98, 13, 99, 97, 13, 97, 99, 13], "trial": 2, "time_elapsed": 633183, "type": "DISTRACTOR", "trial_index": 77, "num1": [7, 1, 5, 2, 3]}, "uniqueid": "MTK1309:3R6BYFZZP8J3AY6DFS7W8GUKKZDXFZ", "dateTime": 1515701405223}, {"current_trial": 78, "trialdata": {"rt": -1, "trial_type": "single-stim", "stimulus": "<p id=\"stim\">10</p>", "internal_node_id": "0.0-60.0-0.0", "time_elapsed": 636186, "key_press": -1, "trial_index": 78}, "uniqueid": "MTK1309:3R6BYFZZP8J3AY6DFS7W8GUKKZDXFZ", "dateTime": 1515701408226}, {"current_trial": 79, "trialdata": {"rt": -1, "trial_type": "single-stim", "stimulus": "<p id=\"stim\">9</p>", "internal_node_id": "0.0-60.0-1.0", "time_elapsed": 637187, "key_press": -1, "trial_index": 79}, "uniqueid": "MTK1309:3R6BYFZZP8J3AY6DFS7W8GUKKZDXFZ", "dateTime": 1515701409227}, {"current_trial": 80, "trialdata": {"rt": -1, "trial_type": "single-stim", "stimulus": "<p id=\"stim\">8</p>", "internal_node_id": "0.0-60.0-2.0", "time_elapsed": 638188, "key_press": -1, "trial_index": 80}, "uniqueid": "MTK1309:3R6BYFZZP8J3AY6DFS7W8GUKKZDXFZ", "dateTime": 1515701410228}, {"current_trial": 81, "trialdata": {"rt": -1, "trial_type": "single-stim", "stimulus": "<p id=\"stim\">7</p>", "internal_node_id": "0.0-60.0-3.0", "time_elapsed": 639189, "key_press": -1, "trial_index": 81}, "uniqueid": "MTK1309:3R6BYFZZP8J3AY6DFS7W8GUKKZDXFZ", "dateTime": 1515701411229}, {"current_trial": 82, "trialdata": {"rt": -1, "trial_type": "single-stim", "stimulus": "<p id=\"stim\">6</p>", "internal_node_id": "0.0-60.0-4.0", "time_elapsed": 640193, "key_press": -1, "trial_index": 82}, "uniqueid": "MTK1309:3R6BYFZZP8J3AY6DFS7W8GUKKZDXFZ", "dateTime": 1515701412233}, {"current_trial": 83, "trialdata": {"rt": -1, "trial_type": "single-stim", "stimulus": "<p id=\"stim\">5</p>", "internal_node_id": "0.0-60.0-5.0", "time_elapsed": 641195, "key_press": -1, "trial_index": 83}, "uniqueid": "MTK1309:3R6BYFZZP8J3AY6DFS7W8GUKKZDXFZ", "dateTime": 1515701413235}, {"current_trial": 84, "trialdata": {"rt": -1, "trial_type": "single-stim", "stimulus": "<p id=\"stim\">4</p>", "internal_node_id": "0.0-60.0-6.0", "time_elapsed": 642196, "key_press": -1, "trial_index": 84}, "uniqueid": "MTK1309:3R6BYFZZP8J3AY6DFS7W8GUKKZDXFZ", "dateTime": 1515701414237}, {"current_trial": 85, "trialdata": {"rt": -1, "trial_type": "single-stim", "stimulus": "<p id=\"stim\">3</p>", "internal_node_id": "0.0-60.0-7.0", "time_elapsed": 643198, "key_press": -1, "trial_index": 85}, "uniqueid": "MTK1309:3R6BYFZZP8J3AY6DFS7W8GUKKZDXFZ", "dateTime": 1515701415238}, {"current_trial": 86, "trialdata": {"rt": -1, "trial_type": "single-stim", "stimulus": "<p id=\"stim\">2</p>", "internal_node_id": "0.0-60.0-8.0", "time_elapsed": 644199, "key_press": -1, "trial_index": 86}, "uniqueid": "MTK1309:3R6BYFZZP8J3AY6DFS7W8GUKKZDXFZ", "dateTime": 1515701416239}, {"current_trial": 87, "trialdata": {"rt": -1, "trial_type": "single-stim", "stimulus": "<p id=\"stim\">1</p>", "internal_node_id": "0.0-60.0-9.0", "time_elapsed": 645199, "key_press": -1, "trial_index": 87}, "uniqueid": "MTK1309:3R6BYFZZP8J3AY6DFS7W8GUKKZDXFZ", "dateTime": 1515701417239}, {"current_trial": 88, "trialdata": {"rt": -1, "trial_type": "single-stim", "stimulus": "<p id=\"stim\">+</p>", "internal_node_id": "0.0-61.0-0.0", "time_elapsed": 646700, "key_press": -1, "type": "FIXATION", "trial_index": 88}, "uniqueid": "MTK1309:3R6BYFZZP8J3AY6DFS7W8GUKKZDXFZ", "dateTime": 1515701418741}, {"current_trial": 89, "trialdata": {"rt": -1000, "trial_type": "single-audio", "word": "turnip", "stimulus": "/static/audio/wordpool/TURNIP.wav", "conditions": [12, 1600, "a", 12000], "internal_node_id": "0.0-62.0", "trial": 2, "time_elapsed": 649437, "serialpos": 0, "key_press": -1, "wordID": 1520, "type": "PRES_AUD", "trial_index": 89}, "uniqueid": "MTK1309:3R6BYFZZP8J3AY6DFS7W8GUKKZDXFZ", "dateTime": 1515701421477}, {"current_trial": 90, "trialdata": {"rt": -1000, "trial_type": "single-audio", "word": "clothes", "stimulus": "/static/audio/wordpool/CLOTHES.wav", "conditions": [12, 1600, "a", 12000], "internal_node_id": "0.0-63.0", "trial": 2, "time_elapsed": 652163, "serialpos": 1, "key_press": -1, "wordID": 326, "type": "PRES_AUD", "trial_index": 90}, "uniqueid": "MTK1309:3R6BYFZZP8J3AY6DFS7W8GUKKZDXFZ", "dateTime": 1515701424204}, {"current_trial": 91, "trialdata": {"rt": -1000, "trial_type": "single-audio", "word": "island", "stimulus": "/static/audio/wordpool/ISLAND.wav", "conditions": [12, 1600, "a", 12000], "internal_node_id": "0.0-64.0", "trial": 2, "time_elapsed": 654855, "serialpos": 2, "key_press": -1, "wordID": 744, "type": "PRES_AUD", "trial_index": 91}, "uniqueid": "MTK1309:3R6BYFZZP8J3AY6DFS7W8GUKKZDXFZ", "dateTime": 1515701426895}, {"current_trial": 92, "trialdata": {"rt": -1000, "trial_type": "single-audio", "word": "shelter", "stimulus": "/static/audio/wordpool/SHELTER.wav", "conditions": [12, 1600, "a", 12000], "internal_node_id": "0.0-65.0", "trial": 2, "time_elapsed": 657418, "serialpos": 3, "key_press": -1, "wordID": 1281, "type": "PRES_AUD", "trial_index": 92}, "uniqueid": "MTK1309:3R6BYFZZP8J3AY6DFS7W8GUKKZDXFZ", "dateTime": 1515701429458}, {"current_trial": 93, "trialdata": {"rt": -1000, "trial_type": "single-audio", "word": "puppy", "stimulus": "/static/audio/wordpool/PUPPY.wav", "conditions": [12, 1600, "a", 12000], "internal_node_id": "0.0-66.0", "trial": 2, "time_elapsed": 660176, "serialpos": 4, "key_press": -1, "wordID": 1143, "type": "PRES_AUD", "trial_index": 93}, "uniqueid": "MTK1309:3R6BYFZZP8J3AY6DFS7W8GUKKZDXFZ", "dateTime": 1515701432216}, {"current_trial": 94, "trialdata": {"rt": -1000, "trial_type": "single-audio", "word": "radish", "stimulus": "/static/audio/wordpool/RADISH.wav", "conditions": [12, 1600, "a", 12000], "internal_node_id": "0.0-67.0", "trial": 2, "time_elapsed": 662879, "serialpos": 5, "key_press": -1, "wordID": 1157, "type": "PRES_AUD", "trial_index": 94}, "uniqueid": "MTK1309:3R6BYFZZP8J3AY6DFS7W8GUKKZDXFZ", "dateTime": 1515701434919}, {"current_trial": 95, "trialdata": {"rt": -1000, "trial_type": "single-audio", "word": "worker", "stimulus": "/static/audio/wordpool/WORKER.wav", "conditions": [12, 1600, "a", 12000], "internal_node_id": "0.0-68.0", "trial": 2, "time_elapsed": 665557, "serialpos": 6, "key_press": -1, "wordID": 1620, "type": "PRES_AUD", "trial_index": 95}, "uniqueid": "MTK1309:3R6BYFZZP8J3AY6DFS7W8GUKKZDXFZ", "dateTime": 1515701437598}, {"current_trial": 96, "trialdata": {"rt": -1000, "trial_type": "single-audio", "word": "mailbox", "stimulus": "/static/audio/wordpool/MAILBOX.wav", "conditions": [12, 1600, "a", 12000], "internal_node_id": "0.0-69.0", "trial": 2, "time_elapsed": 668319, "serialpos": 7, "key_press": -1, "wordID": 856, "type": "PRES_AUD", "trial_index": 96}, "uniqueid": "MTK1309:3R6BYFZZP8J3AY6DFS7W8GUKKZDXFZ", "dateTime": 1515701440360}, {"current_trial": 97, "trialdata": {"rt": -1000, "trial_type": "single-audio", "word": "lizard", "stimulus": "/static/audio/wordpool/LIZARD.wav", "conditions": [12, 1600, "a", 12000], "internal_node_id": "0.0-70.0", "trial": 2, "time_elapsed": 670825, "serialpos": 8, "key_press": -1, "wordID": 833, "type": "PRES_AUD", "trial_index": 97}, "uniqueid": "MTK1309:3R6BYFZZP8J3AY6DFS7W8GUKKZDXFZ", "dateTime": 1515701442865}, {"current_trial": 98, "trialdata": {"rt": -1000, "trial_type": "single-audio", "word": "snake", "stimulus": "/static/audio/wordpool/SNAKE.wav", "conditions": [12, 1600, "a", 12000], "internal_node_id": "0.0-71.0", "trial": 2, "time_elapsed": 673421, "serialpos": 9, "key_press": -1, "wordID": 1332, "type": "PRES_AUD", "trial_index": 98}, "uniqueid": "MTK1309:3R6BYFZZP8J3AY6DFS7W8GUKKZDXFZ", "dateTime": 1515701445461}, {"current_trial": 99, "trialdata": {"rt": -1000, "trial_type": "single-audio", "word": "iceberg", "stimulus": "/static/audio/wordpool/ICEBERG.wav", "conditions": [12, 1600, "a", 12000], "internal_node_id": "0.0-72.0", "trial": 2, "time_elapsed": 676082, "serialpos": 10, "key_press": -1, "wordID": 730, "type": "PRES_AUD", "trial_index": 99}, "uniqueid": "MTK1309:3R6BYFZZP8J3AY6DFS7W8GUKKZDXFZ", "dateTime": 1515701448123}, {"current_trial": 100, "trialdata": {"rt": -1000, "trial_type": "single-audio", "word": "marker", "stimulus": "/static/audio/wordpool/MARKER.wav", "conditions": [12, 1600, "a", 12000], "internal_node_id": "0.0-73.0", "trial": 2, "time_elapsed": 678508, "serialpos": 11, "key_press": -1, "wordID": 869, "type": "PRES_AUD", "trial_index": 100}, "uniqueid": "MTK1309:3R6BYFZZP8J3AY6DFS7W8GUKKZDXFZ", "dateTime": 1515701450548}, {"current_trial": 101, "trialdata": {"rt": -1, "trial_type": "single-stim", "stimulus": "", "internal_node_id": "0.0-74.0-0.0", "time_elapsed": 679786, "key_press": -1, "type": "PRE_RECALL_DELAY", "trial_index": 101}, "uniqueid": "MTK1309:3R6BYFZZP8J3AY6DFS7W8GUKKZDXFZ", "dateTime": 1515701451826}, {"current_trial": 102, "trialdata": {"rt": -1000, "trial_type": "single-audio", "stimulus": "/static/audio/400Hz.wav", "internal_node_id": "0.0-75.0", "time_elapsed": 680291, "key_press": -1, "type": "PRE_RECALL_ALERT", "trial_index": 102}, "uniqueid": "MTK1309:3R6BYFZZP8J3AY6DFS7W8GUKKZDXFZ", "dateTime": 1515701452331}, {"current_trial": 103, "trialdata": {"rt": [30089, 33295, 36503, 38967, 40583, 44871], "recwords": ["clothes", "snake", "iceberg", "marker", "puppy", "shelter"], "key_times": [29088, 29207, 29376, 29560, 29615, 29736, 29976, 30089, 30920, 30976, 31239, 31376, 31535, 32735, 32759, 32928, 33015, 33160, 33295, 34127, 34239, 34303, 34487, 34615, 34728, 34887, 35527, 35631, 36503, 37120, 37231, 37311, 37415, 37583, 37695, 38455, 38631, 38967, 39879, 40047, 40191, 40344, 40519, 40583, 43072, 44091, 44288, 44376, 44544, 44712, 44753, 44871], "trial_type": "free-recall", "conditions": [12, 1600, "a", 12000], "internal_node_id": "0.0-76.0-0.0", "key_presses": [67, 76, 79, 84, 72, 69, 83, 13, 79, 83, 8, 8, 8, 83, 78, 65, 75, 69, 13, 73, 67, 69, 66, 69, 82, 75, 8, 71, 13, 77, 65, 82, 75, 69, 84, 8, 82, 13, 80, 85, 80, 80, 89, 13, 83, 72, 69, 76, 84, 69, 82, 13], "trial": 2, "time_elapsed": 740297, "type": "FREE_RECALL", "trial_index": 103}, "uniqueid": "MTK1309:3R6BYFZZP8J3AY6DFS7W8GUKKZDXFZ", "dateTime": 1515701512342}, {"current_trial": 104, "trialdata": {"rt": 2232, "trial_type": "text", "internal_node_id": "0.0-77.0", "time_elapsed": 744535, "key_press": 13, "type": "INSTRUCTIONS", "trial_index": 104}, "uniqueid": "MTK1309:3R6BYFZZP8J3AY6DFS7W8GUKKZDXFZ", "dateTime": 1515701516575}, {"current_trial": 105, "trialdata": {"rt": [2883, 4595, 7050, 9755], "trial_type": "math-distractor", "key_times": [2362, 2667, 2883, 4283, 4388, 4595, 6691, 6789, 7050, 9341, 9450, 9755], "responses": ["10", "12", "19", "15"], "num2": [2, 2, 6, 8, 8], "num3": [1, 5, 4, 1, 2], "conditions": [24, 1600, "a", 12000], "internal_node_id": "0.0-78.0", "key_presses": [97, 96, 13, 97, 98, 13, 97, 105, 13, 97, 101, 13], "trial": 3, "time_elapsed": 758541, "type": "DISTRACTOR", "trial_index": 105, "num1": [7, 5, 9, 6, 6]}, "uniqueid": "MTK1309:3R6BYFZZP8J3AY6DFS7W8GUKKZDXFZ", "dateTime": 1515701530582}, {"current_trial": 106, "trialdata": {"rt": -1, "trial_type": "single-stim", "stimulus": "<p id=\"stim\">10</p>", "internal_node_id": "0.0-79.0-0.0", "time_elapsed": 761544, "key_press": -1, "trial_index": 106}, "uniqueid": "MTK1309:3R6BYFZZP8J3AY6DFS7W8GUKKZDXFZ", "dateTime": 1515701533585}, {"current_trial": 107, "trialdata": {"rt": -1, "trial_type": "single-stim", "stimulus": "<p id=\"stim\">9</p>", "internal_node_id": "0.0-79.0-1.0", "time_elapsed": 762546, "key_press": -1, "trial_index": 107}, "uniqueid": "MTK1309:3R6BYFZZP8J3AY6DFS7W8GUKKZDXFZ", "dateTime": 1515701534587}, {"current_trial": 108, "trialdata": {"rt": -1, "trial_type": "single-stim", "stimulus": "<p id=\"stim\">8</p>", "internal_node_id": "0.0-79.0-2.0", "time_elapsed": 763548, "key_press": -1, "trial_index": 108}, "uniqueid": "MTK1309:3R6BYFZZP8J3AY6DFS7W8GUKKZDXFZ", "dateTime": 1515701535588}, {"current_trial": 109, "trialdata": {"rt": -1, "trial_type": "single-stim", "stimulus": "<p id=\"stim\">7</p>", "internal_node_id": "0.0-79.0-3.0", "time_elapsed": 764549, "key_press": -1, "trial_index": 109}, "uniqueid": "MTK1309:3R6BYFZZP8J3AY6DFS7W8GUKKZDXFZ", "dateTime": 1515701536589}, {"current_trial": 110, "trialdata": {"rt": -1, "trial_type": "single-stim", "stimulus": "<p id=\"stim\">6</p>", "internal_node_id": "0.0-79.0-4.0", "time_elapsed": 765550, "key_press": -1, "trial_index": 110}, "uniqueid": "MTK1309:3R6BYFZZP8J3AY6DFS7W8GUKKZDXFZ", "dateTime": 1515701537590}, {"current_trial": 111, "trialdata": {"rt": -1, "trial_type": "single-stim", "stimulus": "<p id=\"stim\">5</p>", "internal_node_id": "0.0-79.0-5.0", "time_elapsed": 766551, "key_press": -1, "trial_index": 111}, "uniqueid": "MTK1309:3R6BYFZZP8J3AY6DFS7W8GUKKZDXFZ", "dateTime": 1515701538591}, {"current_trial": 112, "trialdata": {"rt": -1, "trial_type": "single-stim", "stimulus": "<p id=\"stim\">4</p>", "internal_node_id": "0.0-79.0-6.0", "time_elapsed": 767552, "key_press": -1, "trial_index": 112}, "uniqueid": "MTK1309:3R6BYFZZP8J3AY6DFS7W8GUKKZDXFZ", "dateTime": 1515701539592}, {"current_trial": 113, "trialdata": {"rt": -1, "trial_type": "single-stim", "stimulus": "<p id=\"stim\">3</p>", "internal_node_id": "0.0-79.0-7.0", "time_elapsed": 768553, "key_press": -1, "trial_index": 113}, "uniqueid": "MTK1309:3R6BYFZZP8J3AY6DFS7W8GUKKZDXFZ", "dateTime": 1515701540594}, {"current_trial": 114, "trialdata": {"rt": -1, "trial_type": "single-stim", "stimulus": "<p id=\"stim\">2</p>", "internal_node_id": "0.0-79.0-8.0", "time_elapsed": 769556, "key_press": -1, "trial_index": 114}, "uniqueid": "MTK1309:3R6BYFZZP8J3AY6DFS7W8GUKKZDXFZ", "dateTime": 1515701541596}, {"current_trial": 115, "trialdata": {"rt": -1, "trial_type": "single-stim", "stimulus": "<p id=\"stim\">1</p>", "internal_node_id": "0.0-79.0-9.0", "time_elapsed": 770558, "key_press": -1, "trial_index": 115}, "uniqueid": "MTK1309:3R6BYFZZP8J3AY6DFS7W8GUKKZDXFZ", "dateTime": 1515701542598}, {"current_trial": 116, "trialdata": {"rt": -1, "trial_type": "single-stim", "stimulus": "<p id=\"stim\">+</p>", "internal_node_id": "0.0-80.0-0.0", "time_elapsed": 772066, "key_press": -1, "type": "FIXATION", "trial_index": 116}, "uniqueid": "MTK1309:3R6BYFZZP8J3AY6DFS7W8GUKKZDXFZ", "dateTime": 1515701544106}, {"current_trial": 117, "trialdata": {"rt": -1000, "trial_type": "single-audio", "word": "dorm", "stimulus": "/static/audio/wordpool/DORM.wav", "conditions": [24, 1600, "a", 12000], "internal_node_id": "0.0-81.0", "trial": 3, "time_elapsed": 774662, "serialpos": 0, "key_press": -1, "wordID": 487, "type": "PRES_AUD", "trial_index": 117}, "uniqueid": "MTK1309:3R6BYFZZP8J3AY6DFS7W8GUKKZDXFZ", "dateTime": 1515701546702}, {"current_trial": 118, "trialdata": {"rt": -1000, "trial_type": "single-audio", "word": "banker", "stimulus": "/static/audio/wordpool/BANKER.wav", "conditions": [24, 1600, "a", 12000], "internal_node_id": "0.0-82.0", "trial": 3, "time_elapsed": 777236, "serialpos": 1, "key_press": -1, "wordID": 83, "type": "PRES_AUD", "trial_index": 118}, "uniqueid": "MTK1309:3R6BYFZZP8J3AY6DFS7W8GUKKZDXFZ", "dateTime": 1515701549276}, {"current_trial": 119, "trialdata": {"rt": -1000, "trial_type": "single-audio", "word": "notebook", "stimulus": "/static/audio/wordpool/NOTEBOOK.wav", "conditions": [24, 1600, "a", 12000], "internal_node_id": "0.0-83.0", "trial": 3, "time_elapsed": 780020, "serialpos": 2, "key_press": -1, "wordID": 958, "type": "PRES_AUD", "trial_index": 119}, "uniqueid": "MTK1309:3R6BYFZZP8J3AY6DFS7W8GUKKZDXFZ", "dateTime": 1515701552060}, {"current_trial": 120, "trialdata": {"rt": -1000, "trial_type": "single-audio", "word": "headband", "stimulus": "/static/audio/wordpool/HEADBAND.wav", "conditions": [24, 1600, "a", 12000], "internal_node_id": "0.0-84.0", "trial": 3, "time_elapsed": 782591, "serialpos": 3, "key_press": -1, "wordID": 695, "type": "PRES_AUD", "trial_index": 120}, "uniqueid": "MTK1309:3R6BYFZZP8J3AY6DFS7W8GUKKZDXFZ", "dateTime": 1515701554631}, {"current_trial": 121, "trialdata": {"rt": -1000, "trial_type": "single-audio", "word": "scarf", "stimulus": "/static/audio/wordpool/SCARF.wav", "conditions": [24, 1600, "a", 12000], "internal_node_id": "0.0-85.0", "trial": 3, "time_elapsed": 785277, "serialpos": 4, "key_press": -1, "wordID": 1245, "type": "PRES_AUD", "trial_index": 121}, "uniqueid": "MTK1309:3R6BYFZZP8J3AY6DFS7W8GUKKZDXFZ", "dateTime": 1515701557317}, {"current_trial": 122, "trialdata": {"rt": -1000, "trial_type": "single-audio", "word": "kitchen", "stimulus": "/static/audio/wordpool/KITCHEN.wav", "conditions": [24, 1600, "a", 12000], "internal_node_id": "0.0-86.0", "trial": 3, "time_elapsed": 787765, "serialpos": 5, "key_press": -1, "wordID": 777, "type": "PRES_AUD", "trial_index": 122}, "uniqueid": "MTK1309:3R6BYFZZP8J3AY6DFS7W8GUKKZDXFZ", "dateTime": 1515701559805}, {"current_trial": 123, "trialdata": {"rt": -1000, "trial_type": "single-audio", "word": "japan", "stimulus": "/static/audio/wordpool/JAPAN.wav", "conditions": [24, 1600, "a", 12000], "internal_node_id": "0.0-87.0", "trial": 3, "time_elapsed": 790320, "serialpos": 6, "key_press": -1, "wordID": 748, "type": "PRES_AUD", "trial_index": 123}, "uniqueid": "MTK1309:3R6BYFZZP8J3AY6DFS7W8GUKKZDXFZ", "dateTime": 1515701562361}, {"current_trial": 124, "trialdata": {"rt": -1000, "trial_type": "single-audio", "word": "france", "stimulus": "/static/audio/wordpool/FRANCE.wav", "conditions": [24, 1600, "a", 12000], "internal_node_id": "0.0-88.0", "trial": 3, "time_elapsed": 792891, "serialpos": 7, "key_press": -1, "wordID": 600, "type": "PRES_AUD", "trial_index": 124}, "uniqueid": "MTK1309:3R6BYFZZP8J3AY6DFS7W8GUKKZDXFZ", "dateTime": 1515701564931}, {"current_trial": 125, "trialdata": {"rt": -1000, "trial_type": "single-audio", "word": "bug", "stimulus": "/static/audio/wordpool/BUG.wav", "conditions": [24, 1600, "a", 12000], "internal_node_id": "0.0-89.0", "trial": 3, "time_elapsed": 795354, "serialpos": 8, "key_press": -1, "wordID": 186, "type": "PRES_AUD", "trial_index": 125}, "uniqueid": "MTK1309:3R6BYFZZP8J3AY6DFS7W8GUKKZDXFZ", "dateTime": 1515701567394}, {"current_trial": 126, "trialdata": {"rt": -1000, "trial_type": "single-audio", "word": "flesh", "stimulus": "/static/audio/wordpool/FLESH.wav", "conditions": [24, 1600, "a", 12000], "internal_node_id": "0.0-90.0", "trial": 3, "time_elapsed": 798140, "serialpos": 9, "key_press": -1, "wordID": 578, "type": "PRES_AUD", "trial_index": 126}, "uniqueid": "MTK1309:3R6BYFZZP8J3AY6DFS7W8GUKKZDXFZ", "dateTime": 1515701570180}, {"current_trial": 127, "trialdata": {"rt": -1000, "trial_type": "single-audio", "word": "shirt", "stimulus": "/static/audio/wordpool/SHIRT.wav", "conditions": [24, 1600, "a", 12000], "internal_node_id": "0.0-91.0", "trial": 3, "time_elapsed": 800864, "serialpos": 10, "key_press": -1, "wordID": 1286, "type": "PRES_AUD", "trial_index": 127}, "uniqueid": "MTK1309:3R6BYFZZP8J3AY6DFS7W8GUKKZDXFZ", "dateTime": 1515701572904}, {"current_trial": 128, "trialdata": {"rt": -1000, "trial_type": "single-audio", "word": "coffee", "stimulus": "/static/audio/wordpool/COFFEE.wav", "conditions": [24, 1600, "a", 12000], "internal_node_id": "0.0-92.0", "trial": 3, "time_elapsed": 803305, "serialpos": 11, "key_press": -1, "wordID": 340, "type": "PRES_AUD", "trial_index": 128}, "uniqueid": "MTK1309:3R6BYFZZP8J3AY6DFS7W8GUKKZDXFZ", "dateTime": 1515701575346}, {"current_trial": 129, "trialdata": {"rt": -1000, "trial_type": "single-audio", "word": "grape", "stimulus": "/static/audio/wordpool/GRAPE.wav", "conditions": [24, 1600, "a", 12000], "internal_node_id": "0.0-93.0", "trial": 3, "time_elapsed": 806074, "serialpos": 12, "key_press": -1, "wordID": 653, "type": "PRES_AUD", "trial_index": 129}, "uniqueid": "MTK1309:3R6BYFZZP8J3AY6DFS7W8GUKKZDXFZ", "dateTime": 1515701578114}, {"current_trial": 130, "trialdata": {"rt": -1000, "trial_type": "single-audio", "word": "lettuce", "stimulus": "/static/audio/wordpool/LETTUCE.wav", "conditions": [24, 1600, "a", 12000], "internal_node_id": "0.0-94.0", "trial": 3, "time_elapsed": 808683, "serialpos": 13, "key_press": -1, "wordID": 813, "type": "PRES_AUD", "trial_index": 130}, "uniqueid": "MTK1309:3R6BYFZZP8J3AY6DFS7W8GUKKZDXFZ", "dateTime": 1515701580724}, {"current_trial": 131, "trialdata": {"rt": -1000, "trial_type": "single-audio", "word": "motor", "stimulus": "/static/audio/wordpool/MOTOR.wav", "conditions": [24, 1600, "a", 12000], "internal_node_id": "0.0-95.0", "trial": 3, "time_elapsed": 811264, "serialpos": 14, "key_press": -1, "wordID": 921, "type": "PRES_AUD", "trial_index": 131}, "uniqueid": "MTK1309:3R6BYFZZP8J3AY6DFS7W8GUKKZDXFZ", "dateTime": 1515701583305}, {"current_trial": 132, "trialdata": {"rt": -1000, "trial_type": "single-audio", "word": "box", "stimulus": "/static/audio/wordpool/BOX.wav", "conditions": [24, 1600, "a", 12000], "internal_node_id": "0.0-96.0", "trial": 3, "time_elapsed": 813913, "serialpos": 15, "key_press": -1, "wordID": 158, "type": "PRES_AUD", "trial_index": 132}, "uniqueid": "MTK1309:3R6BYFZZP8J3AY6DFS7W8GUKKZDXFZ", "dateTime": 1515701585953}, {"current_trial": 133, "trialdata": {"rt": -1000, "trial_type": "single-audio", "word": "survey", "stimulus": "/static/audio/wordpool/SURVEY.wav", "conditions": [24, 1600, "a", 12000], "internal_node_id": "0.0-97.0", "trial": 3, "time_elapsed": 816369, "serialpos": 16, "key_press": -1, "wordID": 1413, "type": "PRES_AUD", "trial_index": 133}, "uniqueid": "MTK1309:3R6BYFZZP8J3AY6DFS7W8GUKKZDXFZ", "dateTime": 1515701588409}, {"current_trial": 134, "trialdata": {"rt": -1000, "trial_type": "single-audio", "word": "pistol", "stimulus": "/static/audio/wordpool/PISTOL.wav", "conditions": [24, 1600, "a", 12000], "internal_node_id": "0.0-98.0", "trial": 3, "time_elapsed": 818959, "serialpos": 17, "key_press": -1, "wordID": 1074, "type": "PRES_AUD", "trial_index": 134}, "uniqueid": "MTK1309:3R6BYFZZP8J3AY6DFS7W8GUKKZDXFZ", "dateTime": 1515701590999}, {"current_trial": 135, "trialdata": {"rt": -1000, "trial_type": "single-audio", "word": "gravel", "stimulus": "/static/audio/wordpool/GRAVEL.wav", "conditions": [24, 1600, "a", 12000], "internal_node_id": "0.0-99.0", "trial": 3, "time_elapsed": 821680, "serialpos": 18, "key_press": -1, "wordID": 658, "type": "PRES_AUD", "trial_index": 135}, "uniqueid": "MTK1309:3R6BYFZZP8J3AY6DFS7W8GUKKZDXFZ", "dateTime": 1515701593720}, {"current_trial": 136, "trialdata": {"rt": -1000, "trial_type": "single-audio", "word": "rooster", "stimulus": "/static/audio/wordpool/ROOSTER.wav", "conditions": [24, 1600, "a", 12000], "internal_node_id": "0.0-100.0", "trial": 3, "time_elapsed": 824298, "serialpos": 19, "key_press": -1, "wordID": 1208, "type": "PRES_AUD", "trial_index": 136}, "uniqueid": "MTK1309:3R6BYFZZP8J3AY6DFS7W8GUKKZDXFZ", "dateTime": 1515701596338}, {"current_trial": 137, "trialdata": {"rt": -1000, "trial_type": "single-audio", "word": "dime", "stimulus": "/static/audio/wordpool/DIME.wav", "conditions": [24, 1600, "a", 12000], "internal_node_id": "0.0-101.0", "trial": 3, "time_elapsed": 827063, "serialpos": 20, "key_press": -1, "wordID": 465, "type": "PRES_AUD", "trial_index": 137}, "uniqueid": "MTK1309:3R6BYFZZP8J3AY6DFS7W8GUKKZDXFZ", "dateTime": 1515701599103}, {"current_trial": 138, "trialdata": {"rt": -1000, "trial_type": "single-audio", "word": "brick", "stimulus": "/static/audio/wordpool/BRICK.wav", "conditions": [24, 1600, "a", 12000], "internal_node_id": "0.0-102.0", "trial": 3, "time_elapsed": 829485, "serialpos": 21, "key_press": -1, "wordID": 171, "type": "PRES_AUD", "trial_index": 138}, "uniqueid": "MTK1309:3R6BYFZZP8J3AY6DFS7W8GUKKZDXFZ", "dateTime": 1515701601525}, {"current_trial": 139, "trialdata": {"rt": -1000, "trial_type": "single-audio", "word": "tile", "stimulus": "/static/audio/wordpool/TILE.wav", "conditions": [24, 1600, "a", 12000], "internal_node_id": "0.0-103.0", "trial": 3, "time_elapsed": 832274, "serialpos": 22, "key_press": -1, "wordID": 1467, "type": "PRES_AUD", "trial_index": 139}, "uniqueid": "MTK1309:3R6BYFZZP8J3AY6DFS7W8GUKKZDXFZ", "dateTime": 1515701604316}, {"current_trial": 140, "trialdata": {"rt": -1000, "trial_type": "single-audio", "word": "report", "stimulus": "/static/audio/wordpool/REPORT.wav", "conditions": [24, 1600, "a", 12000], "internal_node_id": "0.0-104.0", "trial": 3, "time_elapsed": 834985, "serialpos": 23, "key_press": -1, "wordID": 1183, "type": "PRES_AUD", "trial_index": 140}, "uniqueid": "MTK1309:3R6BYFZZP8J3AY6DFS7W8GUKKZDXFZ", "dateTime": 1515701607025}, {"current_trial": 141, "trialdata": {"rt": -1, "trial_type": "single-stim", "stimulus": "", "internal_node_id": "0.0-105.0-0.0", "time_elapsed": 836301, "key_press": -1, "type": "PRE_RECALL_DELAY", "trial_index": 141}, "uniqueid": "MTK1309:3R6BYFZZP8J3AY6DFS7W8GUKKZDXFZ", "dateTime": 1515701608341}, {"current_trial": 142, "trialdata": {"rt": -1000, "trial_type": "single-audio", "stimulus": "/static/audio/400Hz.wav", "internal_node_id": "0.0-106.0", "time_elapsed": 836802, "key_press": -1, "type": "PRE_RECALL_ALERT", "trial_index": 142}, "uniqueid": "MTK1309:3R6BYFZZP8J3AY6DFS7W8GUKKZDXFZ", "dateTime": 1515701608842}, {"current_trial": 143, "trialdata": {"rt": [2458, 4058, 5635, 7322, 9795, 11746, 13043, 19098], "recwords": ["box", "rooster", "lettuce", "survey", "grape", "japan", "france", "banker"], "key_times": [1602, 1674, 2298, 2458, 3042, 3146, 3274, 3434, 3492, 3666, 3770, 4058, 4500, 4594, 4827, 4954, 5090, 5225, 5307, 5635, 6052, 6195, 6339, 6827, 6962, 7162, 7322, 9074, 9139, 9355, 9458, 9626, 9795, 10946, 11098, 11155, 11330, 11458, 11746, 12003, 12082, 12323, 12458, 12651, 12770, 13043, 17795, 17954, 18058, 18138, 18274, 18362, 19098], "trial_type": "free-recall", "conditions": [24, 1600, "a", 12000], "internal_node_id": "0.0-107.0-0.0", "key_presses": [66, 79, 88, 32, 82, 79, 79, 83, 84, 69, 82, 32, 76, 69, 84, 84, 85, 67, 69, 32, 83, 85, 82, 86, 69, 89, 32, 71, 82, 65, 80, 69, 32, 74, 65, 80, 65, 78, 32, 70, 82, 65, 78, 67, 69, 32, 66, 65, 78, 75, 69, 82, 32], "trial": 3, "time_elapsed": 896838, "type": "FREE_RECALL", "trial_index": 143}, "uniqueid": "MTK1309:3R6BYFZZP8J3AY6DFS7W8GUKKZDXFZ", "dateTime": 1515701668883}, {"current_trial": 144, "trialdata": {"rt": 2603, "trial_type": "text", "internal_node_id": "0.0-108.0", "time_elapsed": 901447, "key_press": 13, "type": "INSTRUCTIONS", "trial_index": 144}, "uniqueid": "MTK1309:3R6BYFZZP8J3AY6DFS7W8GUKKZDXFZ", "dateTime": 1515701673487}, {"current_trial": 145, "trialdata": {"rt": [1710, 4214, 6559, 8583, 11510, 13510, 15486, 18238, 20558, 23142], "trial_type": "math-distractor", "key_times": [1398, 1459, 1710, 3887, 3958, 4214, 6006, 6230, 6559, 8351, 8583, 11198, 11271, 11510, 13158, 13230, 13510, 15174, 15239, 15486, 17934, 18110, 18238, 19814, 20226, 20558, 22334, 22438, 23142], "responses": ["15", "15", "14", "6", "19", "15", "15", "11", "17", "19"], "num2": [5, 2, 3, 1, 6, 4, 3, 1, 7, 6, 3], "num3": [5, 4, 9, 2, 7, 3, 5, 3, 9, 5, 8], "conditions": [12, 800, "a", 24000], "internal_node_id": "0.0-109.0", "key_presses": [97, 101, 13, 97, 101, 13, 97, 100, 13, 102, 13, 97, 105, 13, 97, 101, 13, 97, 101, 13, 97, 97, 13, 97, 103, 13, 97, 105, 13], "trial": 4, "time_elapsed": 927451, "type": "DISTRACTOR", "trial_index": 145, "num1": [5, 9, 2, 3, 6, 8, 7, 7, 1, 8, 1]}, "uniqueid": "MTK1309:3R6BYFZZP8J3AY6DFS7W8GUKKZDXFZ", "dateTime": 1515701699492}, {"current_trial": 146, "trialdata": {"rt": -1, "trial_type": "single-stim", "stimulus": "<p id=\"stim\">10</p>", "internal_node_id": "0.0-110.0-0.0", "time_elapsed": 930454, "key_press": -1, "trial_index": 146}, "uniqueid": "MTK1309:3R6BYFZZP8J3AY6DFS7W8GUKKZDXFZ", "dateTime": 1515701702494}, {"current_trial": 147, "trialdata": {"rt": -1, "trial_type": "single-stim", "stimulus": "<p id=\"stim\">9</p>", "internal_node_id": "0.0-110.0-1.0", "time_elapsed": 931455, "key_press": -1, "trial_index": 147}, "uniqueid": "MTK1309:3R6BYFZZP8J3AY6DFS7W8GUKKZDXFZ", "dateTime": 1515701703496}, {"current_trial": 148, "trialdata": {"rt": -1, "trial_type": "single-stim", "stimulus": "<p id=\"stim\">8</p>", "internal_node_id": "0.0-110.0-2.0", "time_elapsed": 932457, "key_press": -1, "trial_index": 148}, "uniqueid": "MTK1309:3R6BYFZZP8J3AY6DFS7W8GUKKZDXFZ", "dateTime": 1515701704497}, {"current_trial": 149, "trialdata": {"rt": -1, "trial_type": "single-stim", "stimulus": "<p id=\"stim\">7</p>", "internal_node_id": "0.0-110.0-3.0", "time_elapsed": 933458, "key_press": -1, "trial_index": 149}, "uniqueid": "MTK1309:3R6BYFZZP8J3AY6DFS7W8GUKKZDXFZ", "dateTime": 1515701705499}, {"current_trial": 150, "trialdata": {"rt": -1, "trial_type": "single-stim", "stimulus": "<p id=\"stim\">6</p>", "internal_node_id": "0.0-110.0-4.0", "time_elapsed": 934460, "key_press": -1, "trial_index": 150}, "uniqueid": "MTK1309:3R6BYFZZP8J3AY6DFS7W8GUKKZDXFZ", "dateTime": 1515701706500}, {"current_trial": 151, "trialdata": {"rt": -1, "trial_type": "single-stim", "stimulus": "<p id=\"stim\">5</p>", "internal_node_id": "0.0-110.0-5.0", "time_elapsed": 935461, "key_press": -1, "trial_index": 151}, "uniqueid": "MTK1309:3R6BYFZZP8J3AY6DFS7W8GUKKZDXFZ", "dateTime": 1515701707501}, {"current_trial": 152, "trialdata": {"rt": -1, "trial_type": "single-stim", "stimulus": "<p id=\"stim\">4</p>", "internal_node_id": "0.0-110.0-6.0", "time_elapsed": 936462, "key_press": -1, "trial_index": 152}, "uniqueid": "MTK1309:3R6BYFZZP8J3AY6DFS7W8GUKKZDXFZ", "dateTime": 1515701708502}, {"current_trial": 153, "trialdata": {"rt": -1, "trial_type": "single-stim", "stimulus": "<p id=\"stim\">3</p>", "internal_node_id": "0.0-110.0-7.0", "time_elapsed": 937463, "key_press": -1, "trial_index": 153}, "uniqueid": "MTK1309:3R6BYFZZP8J3AY6DFS7W8GUKKZDXFZ", "dateTime": 1515701709503}, {"current_trial": 154, "trialdata": {"rt": -1, "trial_type": "single-stim", "stimulus": "<p id=\"stim\">2</p>", "internal_node_id": "0.0-110.0-8.0", "time_elapsed": 938464, "key_press": -1, "trial_index": 154}, "uniqueid": "MTK1309:3R6BYFZZP8J3AY6DFS7W8GUKKZDXFZ", "dateTime": 1515701710504}, {"current_trial": 155, "trialdata": {"rt": -1, "trial_type": "single-stim", "stimulus": "<p id=\"stim\">1</p>", "internal_node_id": "0.0-110.0-9.0", "time_elapsed": 939465, "key_press": -1, "trial_index": 155}, "uniqueid": "MTK1309:3R6BYFZZP8J3AY6DFS7W8GUKKZDXFZ", "dateTime": 1515701711505}, {"current_trial": 156, "trialdata": {"rt": -1, "trial_type": "single-stim", "stimulus": "<p id=\"stim\">+</p>", "internal_node_id": "0.0-111.0-0.0", "time_elapsed": 940966, "key_press": -1, "type": "FIXATION", "trial_index": 156}, "uniqueid": "MTK1309:3R6BYFZZP8J3AY6DFS7W8GUKKZDXFZ", "dateTime": 1515701713006}, {"current_trial": 157, "trialdata": {"rt": -1000, "trial_type": "single-audio", "word": "package", "stimulus": "/static/audio/wordpool/PACKAGE.wav", "conditions": [12, 800, "a", 24000], "internal_node_id": "0.0-112.0", "trial": 4, "time_elapsed": 942887, "serialpos": 0, "key_press": -1, "wordID": 996, "type": "PRES_AUD", "trial_index": 157}, "uniqueid": "MTK1309:3R6BYFZZP8J3AY6DFS7W8GUKKZDXFZ", "dateTime": 1515701714927}, {"current_trial": 158, "trialdata": {"rt": -1000, "trial_type": "single-audio", "word": "daughter", "stimulus": "/static/audio/wordpool/DAUGHTER.wav", "conditions": [12, 800, "a", 24000], "internal_node_id": "0.0-113.0", "trial": 4, "time_elapsed": 944782, "serialpos": 1, "key_press": -1, "wordID": 441, "type": "PRES_AUD", "trial_index": 158}, "uniqueid": "MTK1309:3R6BYFZZP8J3AY6DFS7W8GUKKZDXFZ", "dateTime": 1515701716822}, {"current_trial": 159, "trialdata": {"rt": -1000, "trial_type": "single-audio", "word": "county", "stimulus": "/static/audio/wordpool/COUNTY.wav", "conditions": [12, 800, "a", 24000], "internal_node_id": "0.0-114.0", "trial": 4, "time_elapsed": 946601, "serialpos": 2, "key_press": -1, "wordID": 388, "type": "PRES_AUD", "trial_index": 159}, "uniqueid": "MTK1309:3R6BYFZZP8J3AY6DFS7W8GUKKZDXFZ", "dateTime": 1515701718641}, {"current_trial": 160, "trialdata": {"rt": -1000, "trial_type": "single-audio", "word": "passage", "stimulus": "/static/audio/wordpool/PASSAGE.wav", "conditions": [12, 800, "a", 24000], "internal_node_id": "0.0-115.0", "trial": 4, "time_elapsed": 948406, "serialpos": 3, "key_press": -1, "wordID": 1018, "type": "PRES_AUD", "trial_index": 160}, "uniqueid": "MTK1309:3R6BYFZZP8J3AY6DFS7W8GUKKZDXFZ", "dateTime": 1515701720446}, {"current_trial": 161, "trialdata": {"rt": -1000, "trial_type": "single-audio", "word": "orchid", "stimulus": "/static/audio/wordpool/ORCHID.wav", "conditions": [12, 800, "a", 24000], "internal_node_id": "0.0-116.0", "trial": 4, "time_elapsed": 950267, "serialpos": 4, "key_press": -1, "wordID": 981, "type": "PRES_AUD", "trial_index": 161}, "uniqueid": "MTK1309:3R6BYFZZP8J3AY6DFS7W8GUKKZDXFZ", "dateTime": 1515701722307}, {"current_trial": 162, "trialdata": {"rt": -1000, "trial_type": "single-audio", "word": "shrub", "stimulus": "/static/audio/wordpool/SHRUB.wav", "conditions": [12, 800, "a", 24000], "internal_node_id": "0.0-117.0", "trial": 4, "time_elapsed": 952232, "serialpos": 5, "key_press": -1, "wordID": 1298, "type": "PRES_AUD", "trial_index": 162}, "uniqueid": "MTK1309:3R6BYFZZP8J3AY6DFS7W8GUKKZDXFZ", "dateTime": 1515701724272}, {"current_trial": 163, "trialdata": {"rt": -1000, "trial_type": "single-audio", "word": "briefcase", "stimulus": "/static/audio/wordpool/BRIEFCASE.wav", "conditions": [12, 800, "a", 24000], "internal_node_id": "0.0-118.0", "trial": 4, "time_elapsed": 953901, "serialpos": 6, "key_press": -1, "wordID": 174, "type": "PRES_AUD", "trial_index": 163}, "uniqueid": "MTK1309:3R6BYFZZP8J3AY6DFS7W8GUKKZDXFZ", "dateTime": 1515701725941}, {"current_trial": 164, "trialdata": {"rt": -1000, "trial_type": "single-audio", "word": "sheriff", "stimulus": "/static/audio/wordpool/SHERIFF.wav", "conditions": [12, 800, "a", 24000], "internal_node_id": "0.0-119.0", "trial": 4, "time_elapsed": 955875, "serialpos": 7, "key_press": -1, "wordID": 1283, "type": "PRES_AUD", "trial_index": 164}, "uniqueid": "MTK1309:3R6BYFZZP8J3AY6DFS7W8GUKKZDXFZ", "dateTime": 1515701727915}, {"current_trial": 165, "trialdata": {"rt": -1000, "trial_type": "single-audio", "word": "chest", "stimulus": "/static/audio/wordpool/CHEST.wav", "conditions": [12, 800, "a", 24000], "internal_node_id": "0.0-120.0", "trial": 4, "time_elapsed": 957823, "serialpos": 8, "key_press": -1, "wordID": 294, "type": "PRES_AUD", "trial_index": 165}, "uniqueid": "MTK1309:3R6BYFZZP8J3AY6DFS7W8GUKKZDXFZ", "dateTime": 1515701729863}, {"current_trial": 166, "trialdata": {"rt": -1000, "trial_type": "single-audio", "word": "bison", "stimulus": "/static/audio/wordpool/BISON.wav", "conditions": [12, 800, "a", 24000], "internal_node_id": "0.0-121.0", "trial": 4, "time_elapsed": 959581, "serialpos": 9, "key_press": -1, "wordID": 130, "type": "PRES_AUD", "trial_index": 166}, "uniqueid": "MTK1309:3R6BYFZZP8J3AY6DFS7W8GUKKZDXFZ", "dateTime": 1515701731622}, {"current_trial": 167, "trialdata": {"rt": -1000, "trial_type": "single-audio", "word": "nightgown", "stimulus": "/static/audio/wordpool/NIGHTGOWN.wav", "conditions": [12, 800, "a", 24000], "internal_node_id": "0.0-122.0", "trial": 4, "time_elapsed": 961190, "serialpos": 10, "key_press": -1, "wordID": 952, "type": "PRES_AUD", "trial_index": 167}, "uniqueid": "MTK1309:3R6BYFZZP8J3AY6DFS7W8GUKKZDXFZ", "dateTime": 1515701733231}, {"current_trial": 168, "trialdata": {"rt": -1000, "trial_type": "single-audio", "word": "saddle", "stimulus": "/static/audio/wordpool/SADDLE.wav", "conditions": [12, 800, "a", 24000], "internal_node_id": "0.0-123.0", "trial": 4, "time_elapsed": 962934, "serialpos": 11, "key_press": -1, "wordID": 1220, "type": "PRES_AUD", "trial_index": 168}, "uniqueid": "MTK1309:3R6BYFZZP8J3AY6DFS7W8GUKKZDXFZ", "dateTime": 1515701734974}, {"current_trial": 169, "trialdata": {"rt": -1, "trial_type": "single-stim", "stimulus": "", "internal_node_id": "0.0-124.0-0.0", "time_elapsed": 964202, "key_press": -1, "type": "PRE_RECALL_DELAY", "trial_index": 169}, "uniqueid": "MTK1309:3R6BYFZZP8J3AY6DFS7W8GUKKZDXFZ", "dateTime": 1515701736242}, {"current_trial": 170, "trialdata": {"rt": -1000, "trial_type": "single-audio", "stimulus": "/static/audio/400Hz.wav", "internal_node_id": "0.0-125.0", "time_elapsed": 964703, "key_press": -1, "type": "PRE_RECALL_ALERT", "trial_index": 170}, "uniqueid": "MTK1309:3R6BYFZZP8J3AY6DFS7W8GUKKZDXFZ", "dateTime": 1515701736743}, {"current_trial": 171, "trialdata": {"rt": [5863, 8455, 10432, 12814, 15614, 16926], "recwords": ["saddle", "nightgown", "bison", "chest", "shrub", "orchid"], "key_times": [4998, 5079, 5294, 5465, 5574, 5679, 5863, 6374, 6454, 6606, 6714, 6806, 7206, 7255, 7416, 7798, 8006, 8103, 8455, 9423, 9534, 9852, 10054, 10151, 10432, 10966, 11051, 11206, 11822, 11958, 12814, 14406, 14463, 14711, 15126, 15246, 15614, 15919, 16048, 16295, 16369, 16454, 16654, 16926], "trial_type": "free-recall", "conditions": [12, 800, "a", 24000], "internal_node_id": "0.0-126.0-0.0", "key_presses": [83, 65, 68, 68, 76, 69, 13, 78, 73, 71, 72, 84, 71, 79, 82, 8, 87, 78, 13, 66, 73, 83, 79, 78, 13, 67, 72, 69, 83, 84, 13, 83, 72, 82, 85, 66, 13, 79, 82, 67, 72, 73, 68, 13], "trial": 4, "time_elapsed": 1024706, "type": "FREE_RECALL", "trial_index": 171}, "uniqueid": "MTK1309:3R6BYFZZP8J3AY6DFS7W8GUKKZDXFZ", "dateTime": 1515701796750}, {"current_trial": 172, "trialdata": {"rt": 1825, "trial_type": "text", "internal_node_id": "0.0-127.0", "time_elapsed": 1028535, "key_press": 32, "type": "INSTRUCTIONS", "trial_index": 172}, "uniqueid": "MTK1309:3R6BYFZZP8J3AY6DFS7W8GUKKZDXFZ", "dateTime": 1515701800575}, {"current_trial": 173, "trialdata": {"rt": [2382, 4909, 6662, 8790, 11214], "trial_type": "math-distractor", "key_times": [2101, 2198, 2382, 4525, 4590, 4909, 6150, 6358, 6662, 8366, 8574, 8790, 10767, 10973, 11214], "responses": ["13", "15", "18", "14", "14"], "num2": [5, 6, 3, 3, 4, 1], "num3": [7, 8, 8, 4, 4, 5], "conditions": [12, 800, "a", 12000], "internal_node_id": "0.0-128.0", "key_presses": [97, 99, 13, 97, 101, 13, 97, 104, 13, 97, 100, 13, 97, 100, 13], "trial": 5, "time_elapsed": 1042539, "type": "DISTRACTOR", "trial_index": 173, "num1": [1, 1, 7, 7, 6, 6]}, "uniqueid": "MTK1309:3R6BYFZZP8J3AY6DFS7W8GUKKZDXFZ", "dateTime": 1515701814579}, {"current_trial": 174, "trialdata": {"rt": -1, "trial_type": "single-stim", "stimulus": "<p id=\"stim\">10</p>", "internal_node_id": "0.0-129.0-0.0", "time_elapsed": 1045540, "key_press": -1, "trial_index": 174}, "uniqueid": "MTK1309:3R6BYFZZP8J3AY6DFS7W8GUKKZDXFZ", "dateTime": 1515701817580}, {"current_trial": 175, "trialdata": {"rt": -1, "trial_type": "single-stim", "stimulus": "<p id=\"stim\">9</p>", "internal_node_id": "0.0-129.0-1.0", "time_elapsed": 1046541, "key_press": -1, "trial_index": 175}, "uniqueid": "MTK1309:3R6BYFZZP8J3AY6DFS7W8GUKKZDXFZ", "dateTime": 1515701818581}, {"current_trial": 176, "trialdata": {"rt": -1, "trial_type": "single-stim", "stimulus": "<p id=\"stim\">8</p>", "internal_node_id": "0.0-129.0-2.0", "time_elapsed": 1047542, "key_press": -1, "trial_index": 176}, "uniqueid": "MTK1309:3R6BYFZZP8J3AY6DFS7W8GUKKZDXFZ", "dateTime": 1515701819583}, {"current_trial": 177, "trialdata": {"rt": -1, "trial_type": "single-stim", "stimulus": "<p id=\"stim\">7</p>", "internal_node_id": "0.0-129.0-3.0", "time_elapsed": 1048543, "key_press": -1, "trial_index": 177}, "uniqueid": "MTK1309:3R6BYFZZP8J3AY6DFS7W8GUKKZDXFZ", "dateTime": 1515701820583}, {"current_trial": 178, "trialdata": {"rt": -1, "trial_type": "single-stim", "stimulus": "<p id=\"stim\">6</p>", "internal_node_id": "0.0-129.0-4.0", "time_elapsed": 1049544, "key_press": -1, "trial_index": 178}, "uniqueid": "MTK1309:3R6BYFZZP8J3AY6DFS7W8GUKKZDXFZ", "dateTime": 1515701821585}, {"current_trial": 179, "trialdata": {"rt": -1, "trial_type": "single-stim", "stimulus": "<p id=\"stim\">5</p>", "internal_node_id": "0.0-129.0-5.0", "time_elapsed": 1050553, "key_press": -1, "trial_index": 179}, "uniqueid": "MTK1309:3R6BYFZZP8J3AY6DFS7W8GUKKZDXFZ", "dateTime": 1515701822593}, {"current_trial": 180, "trialdata": {"rt": -1, "trial_type": "single-stim", "stimulus": "<p id=\"stim\">4</p>", "internal_node_id": "0.0-129.0-6.0", "time_elapsed": 1051555, "key_press": -1, "trial_index": 180}, "uniqueid": "MTK1309:3R6BYFZZP8J3AY6DFS7W8GUKKZDXFZ", "dateTime": 1515701823597}, {"current_trial": 181, "trialdata": {"rt": -1, "trial_type": "single-stim", "stimulus": "<p id=\"stim\">3</p>", "internal_node_id": "0.0-129.0-7.0", "time_elapsed": 1052558, "key_press": -1, "trial_index": 181}, "uniqueid": "MTK1309:3R6BYFZZP8J3AY6DFS7W8GUKKZDXFZ", "dateTime": 1515701824599}, {"current_trial": 182, "trialdata": {"rt": -1, "trial_type": "single-stim", "stimulus": "<p id=\"stim\">2</p>", "internal_node_id": "0.0-129.0-8.0", "time_elapsed": 1053559, "key_press": -1, "trial_index": 182}, "uniqueid": "MTK1309:3R6BYFZZP8J3AY6DFS7W8GUKKZDXFZ", "dateTime": 1515701825599}, {"current_trial": 183, "trialdata": {"rt": -1, "trial_type": "single-stim", "stimulus": "<p id=\"stim\">1</p>", "internal_node_id": "0.0-129.0-9.0", "time_elapsed": 1054560, "key_press": -1, "trial_index": 183}, "uniqueid": "MTK1309:3R6BYFZZP8J3AY6DFS7W8GUKKZDXFZ", "dateTime": 1515701826601}, {"current_trial": 184, "trialdata": {"rt": -1, "trial_type": "single-stim", "stimulus": "<p id=\"stim\">+</p>", "internal_node_id": "0.0-130.0-0.0", "time_elapsed": 1056061, "key_press": -1, "type": "FIXATION", "trial_index": 184}, "uniqueid": "MTK1309:3R6BYFZZP8J3AY6DFS7W8GUKKZDXFZ", "dateTime": 1515701828102}, {"current_trial": 185, "trialdata": {"rt": -1000, "trial_type": "single-audio", "word": "rod", "stimulus": "/static/audio/wordpool/ROD.wav", "conditions": [12, 800, "a", 12000], "internal_node_id": "0.0-131.0", "trial": 5, "time_elapsed": 1057980, "serialpos": 0, "key_press": -1, "wordID": 1202, "type": "PRES_AUD", "trial_index": 185}, "uniqueid": "MTK1309:3R6BYFZZP8J3AY6DFS7W8GUKKZDXFZ", "dateTime": 1515701830020}, {"current_trial": 186, "trialdata": {"rt": -1000, "trial_type": "single-audio", "word": "marine", "stimulus": "/static/audio/wordpool/MARINE.wav", "conditions": [12, 800, "a", 12000], "internal_node_id": "0.0-132.0", "trial": 5, "time_elapsed": 1059778, "serialpos": 1, "key_press": -1, "wordID": 868, "type": "PRES_AUD", "trial_index": 186}, "uniqueid": "MTK1309:3R6BYFZZP8J3AY6DFS7W8GUKKZDXFZ", "dateTime": 1515701831819}, {"current_trial": 187, "trialdata": {"rt": -1000, "trial_type": "single-audio", "word": "actor", "stimulus": "/static/audio/wordpool/ACTOR.wav", "conditions": [12, 800, "a", 12000], "internal_node_id": "0.0-133.0", "trial": 5, "time_elapsed": 1061491, "serialpos": 2, "key_press": -1, "wordID": 4, "type": "PRES_AUD", "trial_index": 187}, "uniqueid": "MTK1309:3R6BYFZZP8J3AY6DFS7W8GUKKZDXFZ", "dateTime": 1515701833532}, {"current_trial": 188, "trialdata": {"rt": -1000, "trial_type": "single-audio", "word": "infant", "stimulus": "/static/audio/wordpool/INFANT.wav", "conditions": [12, 800, "a", 12000], "internal_node_id": "0.0-134.0", "trial": 5, "time_elapsed": 1063175, "serialpos": 3, "key_press": -1, "wordID": 736, "type": "PRES_AUD", "trial_index": 188}, "uniqueid": "MTK1309:3R6BYFZZP8J3AY6DFS7W8GUKKZDXFZ", "dateTime": 1515701835215}, {"current_trial": 189, "trialdata": {"rt": -1000, "trial_type": "single-audio", "word": "fruit", "stimulus": "/static/audio/wordpool/FRUIT.wav", "conditions": [12, 800, "a", 12000], "internal_node_id": "0.0-135.0", "trial": 5, "time_elapsed": 1064933, "serialpos": 4, "key_press": -1, "wordID": 609, "type": "PRES_AUD", "trial_index": 189}, "uniqueid": "MTK1309:3R6BYFZZP8J3AY6DFS7W8GUKKZDXFZ", "dateTime": 1515701836973}, {"current_trial": 190, "trialdata": {"rt": -1000, "trial_type": "single-audio", "word": "beast", "stimulus": "/static/audio/wordpool/BEAST.wav", "conditions": [12, 800, "a", 12000], "internal_node_id": "0.0-136.0", "trial": 5, "time_elapsed": 1066892, "serialpos": 5, "key_press": -1, "wordID": 107, "type": "PRES_AUD", "trial_index": 190}, "uniqueid": "MTK1309:3R6BYFZZP8J3AY6DFS7W8GUKKZDXFZ", "dateTime": 1515701838932}, {"current_trial": 191, "trialdata": {"rt": -1000, "trial_type": "single-audio", "word": "creature", "stimulus": "/static/audio/wordpool/CREATURE.wav", "conditions": [12, 800, "a", 12000], "internal_node_id": "0.0-137.0", "trial": 5, "time_elapsed": 1068570, "serialpos": 6, "key_press": -1, "wordID": 402, "type": "PRES_AUD", "trial_index": 191}, "uniqueid": "MTK1309:3R6BYFZZP8J3AY6DFS7W8GUKKZDXFZ", "dateTime": 1515701840610}, {"current_trial": 192, "trialdata": {"rt": -1000, "trial_type": "single-audio", "word": "driver", "stimulus": "/static/audio/wordpool/DRIVER.wav", "conditions": [12, 800, "a", 12000], "internal_node_id": "0.0-138.0", "trial": 5, "time_elapsed": 1070523, "serialpos": 7, "key_press": -1, "wordID": 498, "type": "PRES_AUD", "trial_index": 192}, "uniqueid": "MTK1309:3R6BYFZZP8J3AY6DFS7W8GUKKZDXFZ", "dateTime": 1515701842563}, {"current_trial": 193, "trialdata": {"rt": -1000, "trial_type": "single-audio", "word": "parent", "stimulus": "/static/audio/wordpool/PARENT.wav", "conditions": [12, 800, "a", 12000], "internal_node_id": "0.0-139.0", "trial": 5, "time_elapsed": 1072416, "serialpos": 8, "key_press": -1, "wordID": 1012, "type": "PRES_AUD", "trial_index": 193}, "uniqueid": "MTK1309:3R6BYFZZP8J3AY6DFS7W8GUKKZDXFZ", "dateTime": 1515701844456}, {"current_trial": 194, "trialdata": {"rt": -1000, "trial_type": "single-audio", "word": "gazelle", "stimulus": "/static/audio/wordpool/GAZELLE.wav", "conditions": [12, 800, "a", 12000], "internal_node_id": "0.0-140.0", "trial": 5, "time_elapsed": 1074058, "serialpos": 9, "key_press": -1, "wordID": 627, "type": "PRES_AUD", "trial_index": 194}, "uniqueid": "MTK1309:3R6BYFZZP8J3AY6DFS7W8GUKKZDXFZ", "dateTime": 1515701846098}, {"current_trial": 195, "trialdata": {"rt": -1000, "trial_type": "single-audio", "word": "apple", "stimulus": "/static/audio/wordpool/APPLE.wav", "conditions": [12, 800, "a", 12000], "internal_node_id": "0.0-141.0", "trial": 5, "time_elapsed": 1075977, "serialpos": 10, "key_press": -1, "wordID": 32, "type": "PRES_AUD", "trial_index": 195}, "uniqueid": "MTK1309:3R6BYFZZP8J3AY6DFS7W8GUKKZDXFZ", "dateTime": 1515701848017}, {"current_trial": 196, "trialdata": {"rt": -1000, "trial_type": "single-audio", "word": "sandwich", "stimulus": "/static/audio/wordpool/SANDWICH.wav", "conditions": [12, 800, "a", 12000], "internal_node_id": "0.0-142.0", "trial": 5, "time_elapsed": 1077769, "serialpos": 11, "key_press": -1, "wordID": 1231, "type": "PRES_AUD", "trial_index": 196}, "uniqueid": "MTK1309:3R6BYFZZP8J3AY6DFS7W8GUKKZDXFZ", "dateTime": 1515701849809}, {"current_trial": 197, "trialdata": {"rt": -1, "trial_type": "single-stim", "stimulus": "", "internal_node_id": "0.0-143.0-0.0", "time_elapsed": 1079005, "key_press": -1, "type": "PRE_RECALL_DELAY", "trial_index": 197}, "uniqueid": "MTK1309:3R6BYFZZP8J3AY6DFS7W8GUKKZDXFZ", "dateTime": 1515701851045}, {"current_trial": 198, "trialdata": {"rt": -1000, "trial_type": "single-audio", "stimulus": "/static/audio/400Hz.wav", "internal_node_id": "0.0-144.0", "time_elapsed": 1079506, "key_press": -1, "type": "PRE_RECALL_ALERT", "trial_index": 198}, "uniqueid": "MTK1309:3R6BYFZZP8J3AY6DFS7W8GUKKZDXFZ", "dateTime": 1515701851546}, {"current_trial": 199, "trialdata": {"rt": [7244, 8572, 10764, 11724, 13261, 15050, 18164, 19748], "recwords": ["rod", "marine", "sandwich", "apple", "parent", "creature", "beast", "infant"], "key_times": [6076, 6244, 6884, 7244, 7580, 7740, 7860, 8076, 8188, 8412, 8572, 9332, 9460, 9572, 9884, 10068, 10148, 10356, 10396, 10764, 11020, 11141, 11316, 11404, 11613, 11724, 12510, 12660, 12764, 12860, 12980, 13180, 13261, 13628, 13735, 14052, 14156, 14404, 14588, 14777, 14863, 15050, 17476, 17581, 17700, 17988, 18052, 18164, 18892, 18964, 19148, 19277, 19452, 19612, 19748], "trial_type": "free-recall", "conditions": [12, 800, "a", 12000], "internal_node_id": "0.0-145.0-0.0", "key_presses": [82, 79, 68, 13, 77, 65, 82, 73, 78, 69, 13, 83, 65, 78, 68, 87, 73, 67, 72, 13, 65, 80, 80, 76, 69, 13, 80, 65, 82, 69, 78, 84, 13, 67, 82, 69, 65, 84, 85, 82, 69, 13, 66, 69, 65, 83, 84, 13, 73, 78, 70, 65, 78, 84, 13], "trial": 5, "time_elapsed": 1139510, "type": "FREE_RECALL", "trial_index": 199}, "uniqueid": "MTK1309:3R6BYFZZP8J3AY6DFS7W8GUKKZDXFZ", "dateTime": 1515701911557}, {"current_trial": 200, "trialdata": {"rt": 4139, "trial_type": "text", "internal_node_id": "0.0-146.0", "time_elapsed": 1145656, "key_press": 13, "type": "INSTRUCTIONS", "trial_index": 200}, "uniqueid": "MTK1309:3R6BYFZZP8J3AY6DFS7W8GUKKZDXFZ", "dateTime": 1515701917696}, {"current_trial": 201, "trialdata": {"rt": [7973, 10029, 11997, 14390, 16029, 17893, 22166], "trial_type": "math-distractor", "key_times": [6290, 7141, 7669, 7773, 7973, 9797, 10029, 11342, 11413, 11997, 14045, 14143, 14390, 15653, 15869, 16029, 17718, 17893, 20126, 21213, 21854, 21909, 22166], "responses": ["24", "8", "13", "16", "14", "7", "26"], "num2": [9, 5, 5, 9, 5, 4, 9, 8], "num3": [7, 1, 5, 5, 4, 3, 8, 7], "conditions": [24, 1600, "a", 24000], "internal_node_id": "0.0-147.0", "key_presses": [97, 8, 98, 100, 13, 104, 13, 97, 99, 13, 97, 102, 13, 97, 100, 13, 103, 13, 97, 8, 98, 102, 13], "trial": 6, "time_elapsed": 1171661, "type": "DISTRACTOR", "trial_index": 201, "num1": [8, 2, 3, 2, 5, 1, 9, 2]}, "uniqueid": "MTK1309:3R6BYFZZP8J3AY6DFS7W8GUKKZDXFZ", "dateTime": 1515701943701}, {"current_trial": 202, "trialdata": {"rt": -1, "trial_type": "single-stim", "stimulus": "<p id=\"stim\">10</p>", "internal_node_id": "0.0-148.0-0.0", "time_elapsed": 1174662, "key_press": -1, "trial_index": 202}, "uniqueid": "MTK1309:3R6BYFZZP8J3AY6DFS7W8GUKKZDXFZ", "dateTime": 1515701946703}, {"current_trial": 203, "trialdata": {"rt": -1, "trial_type": "single-stim", "stimulus": "<p id=\"stim\">9</p>", "internal_node_id": "0.0-148.0-1.0", "time_elapsed": 1175664, "key_press": -1, "trial_index": 203}, "uniqueid": "MTK1309:3R6BYFZZP8J3AY6DFS7W8GUKKZDXFZ", "dateTime": 1515701947705}, {"current_trial": 204, "trialdata": {"rt": -1, "trial_type": "single-stim", "stimulus": "<p id=\"stim\">8</p>", "internal_node_id": "0.0-148.0-2.0", "time_elapsed": 1176665, "key_press": -1, "trial_index": 204}, "uniqueid": "MTK1309:3R6BYFZZP8J3AY6DFS7W8GUKKZDXFZ", "dateTime": 1515701948705}, {"current_trial": 205, "trialdata": {"rt": -1, "trial_type": "single-stim", "stimulus": "<p id=\"stim\">7</p>", "internal_node_id": "0.0-148.0-3.0", "time_elapsed": 1177667, "key_press": -1, "trial_index": 205}, "uniqueid": "MTK1309:3R6BYFZZP8J3AY6DFS7W8GUKKZDXFZ", "dateTime": 1515701949707}, {"current_trial": 206, "trialdata": {"rt": -1, "trial_type": "single-stim", "stimulus": "<p id=\"stim\">6</p>", "internal_node_id": "0.0-148.0-4.0", "time_elapsed": 1178668, "key_press": -1, "trial_index": 206}, "uniqueid": "MTK1309:3R6BYFZZP8J3AY6DFS7W8GUKKZDXFZ", "dateTime": 1515701950708}, {"current_trial": 207, "trialdata": {"rt": -1, "trial_type": "single-stim", "stimulus": "<p id=\"stim\">5</p>", "internal_node_id": "0.0-148.0-5.0", "time_elapsed": 1179669, "key_press": -1, "trial_index": 207}, "uniqueid": "MTK1309:3R6BYFZZP8J3AY6DFS7W8GUKKZDXFZ", "dateTime": 1515701951709}, {"current_trial": 208, "trialdata": {"rt": -1, "trial_type": "single-stim", "stimulus": "<p id=\"stim\">4</p>", "internal_node_id": "0.0-148.0-6.0", "time_elapsed": 1180670, "key_press": -1, "trial_index": 208}, "uniqueid": "MTK1309:3R6BYFZZP8J3AY6DFS7W8GUKKZDXFZ", "dateTime": 1515701952710}, {"current_trial": 209, "trialdata": {"rt": -1, "trial_type": "single-stim", "stimulus": "<p id=\"stim\">3</p>", "internal_node_id": "0.0-148.0-7.0", "time_elapsed": 1181671, "key_press": -1, "trial_index": 209}, "uniqueid": "MTK1309:3R6BYFZZP8J3AY6DFS7W8GUKKZDXFZ", "dateTime": 1515701953711}, {"current_trial": 210, "trialdata": {"rt": -1, "trial_type": "single-stim", "stimulus": "<p id=\"stim\">2</p>", "internal_node_id": "0.0-148.0-8.0", "time_elapsed": 1182672, "key_press": -1, "trial_index": 210}, "uniqueid": "MTK1309:3R6BYFZZP8J3AY6DFS7W8GUKKZDXFZ", "dateTime": 1515701954713}, {"current_trial": 211, "trialdata": {"rt": -1, "trial_type": "single-stim", "stimulus": "<p id=\"stim\">1</p>", "internal_node_id": "0.0-148.0-9.0", "time_elapsed": 1183674, "key_press": -1, "trial_index": 211}, "uniqueid": "MTK1309:3R6BYFZZP8J3AY6DFS7W8GUKKZDXFZ", "dateTime": 1515701955714}, {"current_trial": 212, "trialdata": {"rt": -1, "trial_type": "single-stim", "stimulus": "<p id=\"stim\">+</p>", "internal_node_id": "0.0-149.0-0.0", "time_elapsed": 1185174, "key_press": -1, "type": "FIXATION", "trial_index": 212}, "uniqueid": "MTK1309:3R6BYFZZP8J3AY6DFS7W8GUKKZDXFZ", "dateTime": 1515701957215}, {"current_trial": 213, "trialdata": {"rt": -1000, "trial_type": "single-audio", "word": "trombone", "stimulus": "/static/audio/wordpool/TROMBONE.wav", "conditions": [24, 1600, "a", 24000], "internal_node_id": "0.0-150.0", "trial": 6, "time_elapsed": 1187902, "serialpos": 0, "key_press": -1, "wordID": 1507, "type": "PRES_AUD", "trial_index": 213}, "uniqueid": "MTK1309:3R6BYFZZP8J3AY6DFS7W8GUKKZDXFZ", "dateTime": 1515701959942}, {"current_trial": 214, "trialdata": {"rt": -1000, "trial_type": "single-audio", "word": "fiddle", "stimulus": "/static/audio/wordpool/FIDDLE.wav", "conditions": [24, 1600, "a", 24000], "internal_node_id": "0.0-151.0", "trial": 6, "time_elapsed": 1190453, "serialpos": 1, "key_press": -1, "wordID": 560, "type": "PRES_AUD", "trial_index": 214}, "uniqueid": "MTK1309:3R6BYFZZP8J3AY6DFS7W8GUKKZDXFZ", "dateTime": 1515701962493}, {"current_trial": 215, "trialdata": {"rt": -1000, "trial_type": "single-audio", "word": "elbow", "stimulus": "/static/audio/wordpool/ELBOW.wav", "conditions": [24, 1600, "a", 24000], "internal_node_id": "0.0-152.0", "trial": 6, "time_elapsed": 1192878, "serialpos": 2, "key_press": -1, "wordID": 519, "type": "PRES_AUD", "trial_index": 215}, "uniqueid": "MTK1309:3R6BYFZZP8J3AY6DFS7W8GUKKZDXFZ", "dateTime": 1515701964918}, {"current_trial": 216, "trialdata": {"rt": -1000, "trial_type": "single-audio", "word": "machine", "stimulus": "/static/audio/wordpool/MACHINE.wav", "conditions": [24, 1600, "a", 24000], "internal_node_id": "0.0-153.0", "trial": 6, "time_elapsed": 1195574, "serialpos": 3, "key_press": -1, "wordID": 851, "type": "PRES_AUD", "trial_index": 216}, "uniqueid": "MTK1309:3R6BYFZZP8J3AY6DFS7W8GUKKZDXFZ", "dateTime": 1515701967614}, {"current_trial": 217, "trialdata": {"rt": -1000, "trial_type": "single-audio", "word": "expert", "stimulus": "/static/audio/wordpool/EXPERT.wav", "conditions": [24, 1600, "a", 24000], "internal_node_id": "0.0-154.0", "trial": 6, "time_elapsed": 1198081, "serialpos": 4, "key_press": -1, "wordID": 542, "type": "PRES_AUD", "trial_index": 217}, "uniqueid": "MTK1309:3R6BYFZZP8J3AY6DFS7W8GUKKZDXFZ", "dateTime": 1515701970121}, {"current_trial": 218, "trialdata": {"rt": -1000, "trial_type": "single-audio", "word": "victim", "stimulus": "/static/audio/wordpool/VICTIM.wav", "conditions": [24, 1600, "a", 24000], "internal_node_id": "0.0-155.0", "trial": 6, "time_elapsed": 1200803, "serialpos": 5, "key_press": -1, "wordID": 1561, "type": "PRES_AUD", "trial_index": 218}, "uniqueid": "MTK1309:3R6BYFZZP8J3AY6DFS7W8GUKKZDXFZ", "dateTime": 1515701972843}, {"current_trial": 219, "trialdata": {"rt": -1000, "trial_type": "single-audio", "word": "brandy", "stimulus": "/static/audio/wordpool/BRANDY.wav", "conditions": [24, 1600, "a", 24000], "internal_node_id": "0.0-156.0", "trial": 6, "time_elapsed": 1203255, "serialpos": 6, "key_press": -1, "wordID": 168, "type": "PRES_AUD", "trial_index": 219}, "uniqueid": "MTK1309:3R6BYFZZP8J3AY6DFS7W8GUKKZDXFZ", "dateTime": 1515701975295}, {"current_trial": 220, "trialdata": {"rt": -1000, "trial_type": "single-audio", "word": "soda", "stimulus": "/static/audio/wordpool/SODA.wav", "conditions": [24, 1600, "a", 24000], "internal_node_id": "0.0-157.0", "trial": 6, "time_elapsed": 1205820, "serialpos": 7, "key_press": -1, "wordID": 1340, "type": "PRES_AUD", "trial_index": 220}, "uniqueid": "MTK1309:3R6BYFZZP8J3AY6DFS7W8GUKKZDXFZ", "dateTime": 1515701977860}, {"current_trial": 221, "trialdata": {"rt": -1000, "trial_type": "single-audio", "word": "stomach", "stimulus": "/static/audio/wordpool/STOMACH.wav", "conditions": [24, 1600, "a", 24000], "internal_node_id": "0.0-158.0", "trial": 6, "time_elapsed": 1208284, "serialpos": 8, "key_press": -1, "wordID": 1383, "type": "PRES_AUD", "trial_index": 221}, "uniqueid": "MTK1309:3R6BYFZZP8J3AY6DFS7W8GUKKZDXFZ", "dateTime": 1515701980324}, {"current_trial": 222, "trialdata": {"rt": -1000, "trial_type": "single-audio", "word": "convict", "stimulus": "/static/audio/wordpool/CONVICT.wav", "conditions": [24, 1600, "a", 24000], "internal_node_id": "0.0-159.0", "trial": 6, "time_elapsed": 1210721, "serialpos": 9, "key_press": -1, "wordID": 370, "type": "PRES_AUD", "trial_index": 222}, "uniqueid": "MTK1309:3R6BYFZZP8J3AY6DFS7W8GUKKZDXFZ", "dateTime": 1515701982761}, {"current_trial": 223, "trialdata": {"rt": -1000, "trial_type": "single-audio", "word": "shoulder", "stimulus": "/static/audio/wordpool/SHOULDER.wav", "conditions": [24, 1600, "a", 24000], "internal_node_id": "0.0-160.0", "trial": 6, "time_elapsed": 1213186, "serialpos": 10, "key_press": -1, "wordID": 1293, "type": "PRES_AUD", "trial_index": 223}, "uniqueid": "MTK1309:3R6BYFZZP8J3AY6DFS7W8GUKKZDXFZ", "dateTime": 1515701985226}, {"current_trial": 224, "trialdata": {"rt": -1000, "trial_type": "single-audio", "word": "bike", "stimulus": "/static/audio/wordpool/BIKE.wav", "conditions": [24, 1600, "a", 24000], "internal_node_id": "0.0-161.0", "trial": 6, "time_elapsed": 1215636, "serialpos": 11, "key_press": -1, "wordID": 124, "type": "PRES_AUD", "trial_index": 224}, "uniqueid": "MTK1309:3R6BYFZZP8J3AY6DFS7W8GUKKZDXFZ", "dateTime": 1515701987677}, {"current_trial": 225, "trialdata": {"rt": -1000, "trial_type": "single-audio", "word": "valve", "stimulus": "/static/audio/wordpool/VALVE.wav", "conditions": [24, 1600, "a", 24000], "internal_node_id": "0.0-162.0", "trial": 6, "time_elapsed": 1218097, "serialpos": 12, "key_press": -1, "wordID": 1545, "type": "PRES_AUD", "trial_index": 225}, "uniqueid": "MTK1309:3R6BYFZZP8J3AY6DFS7W8GUKKZDXFZ", "dateTime": 1515701990138}, {"current_trial": 226, "trialdata": {"rt": -1000, "trial_type": "single-audio", "word": "hound", "stimulus": "/static/audio/wordpool/HOUND.wav", "conditions": [24, 1600, "a", 24000], "internal_node_id": "0.0-163.0", "trial": 6, "time_elapsed": 1220590, "serialpos": 13, "key_press": -1, "wordID": 723, "type": "PRES_AUD", "trial_index": 226}, "uniqueid": "MTK1309:3R6BYFZZP8J3AY6DFS7W8GUKKZDXFZ", "dateTime": 1515701992631}, {"current_trial": 227, "trialdata": {"rt": -1000, "trial_type": "single-audio", "word": "pepper", "stimulus": "/static/audio/wordpool/PEPPER.wav", "conditions": [24, 1600, "a", 24000], "internal_node_id": "0.0-164.0", "trial": 6, "time_elapsed": 1223268, "serialpos": 14, "key_press": -1, "wordID": 1046, "type": "PRES_AUD", "trial_index": 227}, "uniqueid": "MTK1309:3R6BYFZZP8J3AY6DFS7W8GUKKZDXFZ", "dateTime": 1515701995309}, {"current_trial": 228, "trialdata": {"rt": -1000, "trial_type": "single-audio", "word": "sponge", "stimulus": "/static/audio/wordpool/SPONGE.wav", "conditions": [24, 1600, "a", 24000], "internal_node_id": "0.0-165.0", "trial": 6, "time_elapsed": 1226017, "serialpos": 15, "key_press": -1, "wordID": 1354, "type": "PRES_AUD", "trial_index": 228}, "uniqueid": "MTK1309:3R6BYFZZP8J3AY6DFS7W8GUKKZDXFZ", "dateTime": 1515701998057}, {"current_trial": 229, "trialdata": {"rt": -1000, "trial_type": "single-audio", "word": "rattle", "stimulus": "/static/audio/wordpool/RATTLE.wav", "conditions": [24, 1600, "a", 24000], "internal_node_id": "0.0-166.0", "trial": 6, "time_elapsed": 1228454, "serialpos": 16, "key_press": -1, "wordID": 1169, "type": "PRES_AUD", "trial_index": 229}, "uniqueid": "MTK1309:3R6BYFZZP8J3AY6DFS7W8GUKKZDXFZ", "dateTime": 1515702000494}, {"current_trial": 230, "trialdata": {"rt": -1000, "trial_type": "single-audio", "word": "piston", "stimulus": "/static/audio/wordpool/PISTON.wav", "conditions": [24, 1600, "a", 24000], "internal_node_id": "0.0-167.0", "trial": 6, "time_elapsed": 1231095, "serialpos": 17, "key_press": -1, "wordID": 1075, "type": "PRES_AUD", "trial_index": 230}, "uniqueid": "MTK1309:3R6BYFZZP8J3AY6DFS7W8GUKKZDXFZ", "dateTime": 1515702003135}, {"current_trial": 231, "trialdata": {"rt": -1000, "trial_type": "single-audio", "word": "sticker", "stimulus": "/static/audio/wordpool/STICKER.wav", "conditions": [24, 1600, "a", 24000], "internal_node_id": "0.0-168.0", "trial": 6, "time_elapsed": 1233851, "serialpos": 18, "key_press": -1, "wordID": 1381, "type": "PRES_AUD", "trial_index": 231}, "uniqueid": "MTK1309:3R6BYFZZP8J3AY6DFS7W8GUKKZDXFZ", "dateTime": 1515702005891}, {"current_trial": 232, "trialdata": {"rt": -1000, "trial_type": "single-audio", "word": "crab", "stimulus": "/static/audio/wordpool/CRAB.wav", "conditions": [24, 1600, "a", 24000], "internal_node_id": "0.0-169.0", "trial": 6, "time_elapsed": 1236490, "serialpos": 19, "key_press": -1, "wordID": 396, "type": "PRES_AUD", "trial_index": 232}, "uniqueid": "MTK1309:3R6BYFZZP8J3AY6DFS7W8GUKKZDXFZ", "dateTime": 1515702008530}, {"current_trial": 233, "trialdata": {"rt": -1000, "trial_type": "single-audio", "word": "seafood", "stimulus": "/static/audio/wordpool/SEAFOOD.wav", "conditions": [24, 1600, "a", 24000], "internal_node_id": "0.0-170.0", "trial": 6, "time_elapsed": 1239177, "serialpos": 20, "key_press": -1, "wordID": 1259, "type": "PRES_AUD", "trial_index": 233}, "uniqueid": "MTK1309:3R6BYFZZP8J3AY6DFS7W8GUKKZDXFZ", "dateTime": 1515702011217}, {"current_trial": 234, "trialdata": {"rt": -1000, "trial_type": "single-audio", "word": "catcher", "stimulus": "/static/audio/wordpool/CATCHER.wav", "conditions": [24, 1600, "a", 24000], "internal_node_id": "0.0-171.0", "trial": 6, "time_elapsed": 1241946, "serialpos": 21, "key_press": -1, "wordID": 257, "type": "PRES_AUD", "trial_index": 234}, "uniqueid": "MTK1309:3R6BYFZZP8J3AY6DFS7W8GUKKZDXFZ", "dateTime": 1515702013987}, {"current_trial": 235, "trialdata": {"rt": -1000, "trial_type": "single-audio", "word": "bullet", "stimulus": "/static/audio/wordpool/BULLET.wav", "conditions": [24, 1600, "a", 24000], "internal_node_id": "0.0-172.0", "trial": 6, "time_elapsed": 1244710, "serialpos": 22, "key_press": -1, "wordID": 193, "type": "PRES_AUD", "trial_index": 235}, "uniqueid": "MTK1309:3R6BYFZZP8J3AY6DFS7W8GUKKZDXFZ", "dateTime": 1515702016750}, {"current_trial": 236, "trialdata": {"rt": -1000, "trial_type": "single-audio", "word": "wardrobe", "stimulus": "/static/audio/wordpool/WARDROBE.wav", "conditions": [24, 1600, "a", 24000], "internal_node_id": "0.0-173.0", "trial": 6, "time_elapsed": 1247346, "serialpos": 23, "key_press": -1, "wordID": 1586, "type": "PRES_AUD", "trial_index": 236}, "uniqueid": "MTK1309:3R6BYFZZP8J3AY6DFS7W8GUKKZDXFZ", "dateTime": 1515702019386}, {"current_trial": 237, "trialdata": {"rt": -1, "trial_type": "single-stim", "stimulus": "", "internal_node_id": "0.0-174.0-0.0", "time_elapsed": 1248694, "key_press": -1, "type": "PRE_RECALL_DELAY", "trial_index": 237}, "uniqueid": "MTK1309:3R6BYFZZP8J3AY6DFS7W8GUKKZDXFZ", "dateTime": 1515702020735}, {"current_trial": 238, "trialdata": {"rt": -1000, "trial_type": "single-audio", "stimulus": "/static/audio/400Hz.wav", "internal_node_id": "0.0-175.0", "time_elapsed": 1249198, "key_press": -1, "type": "PRE_RECALL_ALERT", "trial_index": 238}, "uniqueid": "MTK1309:3R6BYFZZP8J3AY6DFS7W8GUKKZDXFZ", "dateTime": 1515702021238}, {"current_trial": 239, "trialdata": {"rt": [6672, 8257, 9744, 11448, 13912, 17264, 19152, 20240, 23256, 24408, 57304], "recwords": ["bullet", "seafood", "crab", "sticker", "piston", "bike", "brandy", "soda", "victim", "expert", "elbow"], "key_times": [3921, 4016, 4456, 4624, 4840, 5320, 5576, 5696, 6672, 6864, 6968, 7168, 7400, 7568, 7760, 7944, 8257, 8952, 9040, 9328, 9608, 9744, 10180, 10232, 10424, 10600, 10768, 10985, 11256, 11448, 11880, 11928, 13088, 13168, 13376, 13504, 13912, 16448, 16528, 16760, 16936, 17264, 18304, 18376, 18560, 18681, 18848, 18984, 19152, 19416, 19529, 19731, 19840, 20240, 22288, 22408, 22560, 22881, 22976, 23064, 23256, 23473, 23720, 23841, 23992, 24081, 24304, 24408, 55960, 56136, 56513, 56656, 56874, 57304], "trial_type": "free-recall", "conditions": [24, 1600, "a", 24000], "internal_node_id": "0.0-176.0-0.0", "key_presses": [66, 85, 76, 76, 84, 8, 69, 84, 13, 83, 69, 65, 70, 79, 79, 68, 13, 67, 82, 65, 66, 13, 83, 84, 73, 67, 75, 69, 82, 13, 80, 73, 83, 84, 79, 78, 13, 66, 73, 75, 69, 13, 66, 82, 65, 78, 68, 89, 13, 83, 79, 68, 65, 13, 86, 73, 67, 84, 73, 77, 13, 69, 88, 80, 69, 82, 84, 13, 69, 76, 66, 79, 87, 13], "trial": 6, "time_elapsed": 1309203, "type": "FREE_RECALL", "trial_index": 239}, "uniqueid": "MTK1309:3R6BYFZZP8J3AY6DFS7W8GUKKZDXFZ", "dateTime": 1515702081246}, {"current_trial": 240, "trialdata": {"rt": 2301, "trial_type": "text", "internal_node_id": "0.0-177.0", "time_elapsed": 1313513, "key_press": 32, "type": "INSTRUCTIONS", "trial_index": 240}, "uniqueid": "MTK1309:3R6BYFZZP8J3AY6DFS7W8GUKKZDXFZ", "dateTime": 1515702085553}, {"current_trial": 241, "trialdata": {"rt": [3638, 6516, 7724, 11028, 13332, 16053, 19454], "trial_type": "math-distractor", "key_times": [3076, 3156, 3638, 6148, 6277, 6516, 7445, 7724, 9198, 9301, 10332, 10876, 11028, 12972, 13044, 13332, 15653, 15732, 16053, 19069, 19164, 19454, 23845, 23964], "responses": ["21", "20", "3", "12", "16", "18", "19"], "num2": [8, 8, 1, 1, 6, 7, 5, 7], "num3": [5, 8, 1, 5, 5, 6, 9, 5], "conditions": [24, 1600, "a", 24000], "internal_node_id": "0.0-178.0", "key_presses": [98, 97, 13, 98, 96, 13, 99, 13, 97, 101, 8, 98, 13, 97, 102, 13, 97, 104, 13, 97, 105, 13, 97, 104], "trial": 7, "time_elapsed": 1339518, "type": "DISTRACTOR", "trial_index": 241, "num1": [8, 4, 1, 6, 5, 5, 5, 6]}, "uniqueid": "MTK1309:3R6BYFZZP8J3AY6DFS7W8GUKKZDXFZ", "dateTime": 1515702111559}, {"current_trial": 242, "trialdata": {"rt": -1, "trial_type": "single-stim", "stimulus": "<p id=\"stim\">10</p>", "internal_node_id": "0.0-179.0-0.0", "time_elapsed": 1342521, "key_press": -1, "trial_index": 242}, "uniqueid": "MTK1309:3R6BYFZZP8J3AY6DFS7W8GUKKZDXFZ", "dateTime": 1515702114562}, {"current_trial": 243, "trialdata": {"rt": -1, "trial_type": "single-stim", "stimulus": "<p id=\"stim\">9</p>", "internal_node_id": "0.0-179.0-1.0", "time_elapsed": 1343522, "key_press": -1, "trial_index": 243}, "uniqueid": "MTK1309:3R6BYFZZP8J3AY6DFS7W8GUKKZDXFZ", "dateTime": 1515702115563}, {"current_trial": 244, "trialdata": {"rt": -1, "trial_type": "single-stim", "stimulus": "<p id=\"stim\">8</p>", "internal_node_id": "0.0-179.0-2.0", "time_elapsed": 1344523, "key_press": -1, "trial_index": 244}, "uniqueid": "MTK1309:3R6BYFZZP8J3AY6DFS7W8GUKKZDXFZ", "dateTime": 1515702116563}, {"current_trial": 245, "trialdata": {"rt": -1, "trial_type": "single-stim", "stimulus": "<p id=\"stim\">7</p>", "internal_node_id": "0.0-179.0-3.0", "time_elapsed": 1345524, "key_press": -1, "trial_index": 245}, "uniqueid": "MTK1309:3R6BYFZZP8J3AY6DFS7W8GUKKZDXFZ", "dateTime": 1515702117565}, {"current_trial": 246, "trialdata": {"rt": -1, "trial