{"assignmentId": "3GDTJDAPVVIJ17XMT7ZHN7X0SVQM87", "workerId": "MTK1908", "questiondata": {"origin": "United States", "strat-rehearsal": "14", "marital": "Married/Domestic Partnership", "education": "Some college", "ethnicity": "Not Hispanic", "color_depth": 24, "distracted": "No", "wrote-notes": "No", "strat-other": "", "screen_width": 2560, "avail_screen_width": 2560, "avail_screen_height": 1080, "strat-image": "70", "language": "english", "gender": "Male", "age": "58", "gender_other": "", "race": ["White"], "strat-categorize": "76", "pixel_depth": 24, "strat-spatial": "76", "strat-story": "34", "race_other": "", "screen_height": 1080}, "bonus": 0, "hitId": "3T5ZXGO9DEVNJYY74O19SGIPJYVZQ6", "counterbalance": 722, "useragent": "Mozilla/5.0 (Windows NT 10.0; Win64; x64) AppleWebKit/537.36 (KHTML, like Gecko) Chrome/58.0.3029.110 Safari/537.36 Edge/16.16299", "eventdata": [{"eventtype": "initialized", "interval": 0, "value": null, "timestamp": 1516556241140}, {"eventtype": "window_resize", "interval": 0, "value": [2560, 1003], "timestamp": 1516556241140}, {"eventtype": "focus", "interval": 590, "value": "on", "timestamp": 1516556241730}], "data": [{"current_trial": 0, "trialdata": {"rt": 2046, "trial_type": "text", "internal_node_id": "0.0-0.0", "time_elapsed": 2046, "key_press": 32, "type": "INSTRUCTIONS", "trial_index": 0}, "uniqueid": "MTK1908:3GDTJDAPVVIJ17XMT7ZHN7X0SVQM87", "dateTime": 1516556244433}, {"current_trial": 1, "trialdata": {"rt": 12597, "trial_type": "text", "internal_node_id": "0.0-1.0", "time_elapsed": 14644, "key_press": 174, "type": "INSTRUCTIONS", "trial_index": 1}, "uniqueid": "MTK1908:3GDTJDAPVVIJ17XMT7ZHN7X0SVQM87", "dateTime": 1516556257030}, {"current_trial": 2, "trialdata": {"rt": [19579], "trial_type": "audio-test", "responses": ["ocean"], "internal_node_id": "0.0-2.0", "time_elapsed": 34288, "type": "AUDIO_TEST", "trial_index": 2}, "uniqueid": "MTK1908:3GDTJDAPVVIJ17XMT7ZHN7X0SVQM87", "dateTime": 1516556276674}, {"current_trial": 3, "trialdata": {"rt": [13818], "trial_type": "audio-test", "responses": ["crystal"], "internal_node_id": "0.0-3.0", "time_elapsed": 48119, "type": "AUDIO_TEST", "trial_index": 3}, "uniqueid": "MTK1908:3GDTJDAPVVIJ17XMT7ZHN7X0SVQM87", "dateTime": 1516556290505}, {"current_trial": 4, "trialdata": {"rt": [15101], "trial_type": "audio-test", "responses": ["spice"], "internal_node_id": "0.0-4.0", "time_elapsed": 63224, "type": "AUDIO_TEST", "trial_index": 4}, "uniqueid": "MTK1908:3GDTJDAPVVIJ17XMT7ZHN7X0SVQM87", "dateTime": 1516556305610}, {"current_trial": 5, "trialdata": {"rt": 22476, "trial_type": "survey-text", "responses": "{\"Q0\":\"10pm\",\"Q1\":\"7am\",\"Q2\":\"4\"}", "internal_node_id": "0.0-5.0", "time_elapsed": 86466, "type": "SLEEP_SURVEY", "trial_index": 5}, "uniqueid": "MTK1908:3GDTJDAPVVIJ17XMT7ZHN7X0SVQM87", "dateTime": 1516556328852}, {"current_trial": 6, "trialdata": {"rt": 64514, "trial_type": "text", "internal_node_id": "0.0-6.0", "time_elapsed": 151991, "key_press": 32, "type": "INSTRUCTIONS", "trial_index": 6}, "uniqueid": "MTK1908:3GDTJDAPVVIJ17XMT7ZHN7X0SVQM87", "dateTime": 1516556394377}, {"current_trial": 7, "trialdata": {"rt": 19156, "trial_type": "text", "internal_node_id": "0.0-7.0", "time_elapsed": 171655, "key_press": 32, "type": "INSTRUCTIONS", "trial_index": 7}, "uniqueid": "MTK1908:3GDTJDAPVVIJ17XMT7ZHN7X0SVQM87", "dateTime": 1516556414041}, {"current_trial": 8, "trialdata": {"rt": 8542, "trial_type": "text", "internal_node_id": "0.0-8.0", "time_elapsed": 180711, "key_press": 32, "type": "INSTRUCTIONS", "trial_index": 8}, "uniqueid": "MTK1908:3GDTJDAPVVIJ17XMT7ZHN7X0SVQM87", "dateTime": 1516556423097}, {"current_trial": 9, "trialdata": {"rt": [3919, 8728, 11200, 13552, 16160], "trial_type": "math-distractor", "key_times": [2833, 3185, 3919, 7952, 8176, 8728, 10707, 10913, 11200, 13192, 13376, 13552, 15624, 16160], "responses": ["18", "21", "13", "11", "8"], "num2": [9, 9, 2, 4, 2, 4], "num3": [7, 7, 6, 6, 1, 7], "conditions": [18, 1200, "v", 18000], "internal_node_id": "0.0-9.0", "key_presses": [97, 104, 13, 98, 97, 13, 97, 99, 13, 97, 97, 13, 104, 13], "trial": 0, "time_elapsed": 199739, "type": "DISTRACTOR", "trial_index": 9, "num1": [2, 5, 5, 1, 5, 5]}, "uniqueid": "MTK1908:3GDTJDAPVVIJ17XMT7ZHN7X0SVQM87", "dateTime": 1516556442126}, {"current_trial": 10, "trialdata": {"rt": -1, "trial_type": "single-stim", "stimulus": "<p id=\"stim\">10</p>", "internal_node_id": "0.0-10.0-0.0", "time_elapsed": 202763, "key_press": -1, "trial_index": 10}, "uniqueid": "MTK1908:3GDTJDAPVVIJ17XMT7ZHN7X0SVQM87", "dateTime": 1516556445149}, {"current_trial": 11, "trialdata": {"rt": -1, "trial_type": "single-stim", "stimulus": "<p id=\"stim\">9</p>", "internal_node_id": "0.0-10.0-1.0", "time_elapsed": 203764, "key_press": -1, "trial_index": 11}, "uniqueid": "MTK1908:3GDTJDAPVVIJ17XMT7ZHN7X0SVQM87", "dateTime": 1516556446151}, {"current_trial": 12, "trialdata": {"rt": -1, "trial_type": "single-stim", "stimulus": "<p id=\"stim\">8</p>", "internal_node_id": "0.0-10.0-2.0", "time_elapsed": 204755, "key_press": -1, "trial_index": 12}, "uniqueid": "MTK1908:3GDTJDAPVVIJ17XMT7ZHN7X0SVQM87", "dateTime": 1516556447141}, {"current_trial": 13, "trialdata": {"rt": -1, "trial_type": "single-stim", "stimulus": "<p id=\"stim\">7</p>", "internal_node_id": "0.0-10.0-3.0", "time_elapsed": 205760, "key_press": -1, "trial_index": 13}, "uniqueid": "MTK1908:3GDTJDAPVVIJ17XMT7ZHN7X0SVQM87", "dateTime": 1516556448146}, {"current_trial": 14, "trialdata": {"rt": -1, "trial_type": "single-stim", "stimulus": "<p id=\"stim\">6</p>", "internal_node_id": "0.0-10.0-4.0", "time_elapsed": 206765, "key_press": -1, "trial_index": 14}, "uniqueid": "MTK1908:3GDTJDAPVVIJ17XMT7ZHN7X0SVQM87", "dateTime": 1516556449152}, {"current_trial": 15, "trialdata": {"rt": -1, "trial_type": "single-stim", "stimulus": "<p id=\"stim\">5</p>", "internal_node_id": "0.0-10.0-5.0", "time_elapsed": 207757, "key_press": -1, "trial_index": 15}, "uniqueid": "MTK1908:3GDTJDAPVVIJ17XMT7ZHN7X0SVQM87", "dateTime": 1516556450143}, {"current_trial": 16, "trialdata": {"rt": -1, "trial_type": "single-stim", "stimulus": "<p id=\"stim\">4</p>", "internal_node_id": "0.0-10.0-6.0", "time_elapsed": 208763, "key_press": -1, "trial_index": 16}, "uniqueid": "MTK1908:3GDTJDAPVVIJ17XMT7ZHN7X0SVQM87", "dateTime": 1516556451150}, {"current_trial": 17, "trialdata": {"rt": -1, "trial_type": "single-stim", "stimulus": "<p id=\"stim\">3</p>", "internal_node_id": "0.0-10.0-7.0", "time_elapsed": 209754, "key_press": -1, "trial_index": 17}, "uniqueid": "MTK1908:3GDTJDAPVVIJ17XMT7ZHN7X0SVQM87", "dateTime": 1516556452140}, {"current_trial": 18, "trialdata": {"rt": -1, "trial_type": "single-stim", "stimulus": "<p id=\"stim\">2</p>", "internal_node_id": "0.0-10.0-8.0", "time_elapsed": 210758, "key_press": -1, "trial_index": 18}, "uniqueid": "MTK1908:3GDTJDAPVVIJ17XMT7ZHN7X0SVQM87", "dateTime": 1516556453144}, {"current_trial": 19, "trialdata": {"rt": -1, "trial_type": "single-stim", "stimulus": "<p id=\"stim\">1</p>", "internal_node_id": "0.0-10.0-9.0", "time_elapsed": 211759, "key_press": -1, "trial_index": 19}, "uniqueid": "MTK1908:3GDTJDAPVVIJ17XMT7ZHN7X0SVQM87", "dateTime": 1516556454145}, {"current_trial": 20, "trialdata": {"rt": -1, "trial_type": "single-stim", "stimulus": "<p id=\"stim\">+</p>", "internal_node_id": "0.0-11.0-0.0", "time_elapsed": 213269, "key_press": -1, "type": "FIXATION", "trial_index": 20}, "uniqueid": "MTK1908:3GDTJDAPVVIJ17XMT7ZHN7X0SVQM87", "dateTime": 1516556455656}, {"current_trial": 21, "trialdata": {"rt": -1, "trial_type": "single-stim", "word": "ankle", "stimulus": "<p id=\"stim\">ANKLE</p>", "conditions": [18, 1200, "v", 18000], "internal_node_id": "0.0-12.0", "trial": 0, "time_elapsed": 214473, "serialpos": 0, "key_press": -1, "wordID": 23, "type": "PRES_VIS", "trial_index": 21}, "uniqueid": "MTK1908:3GDTJDAPVVIJ17XMT7ZHN7X0SVQM87", "dateTime": 1516556456859}, {"current_trial": 22, "trialdata": {"rt": -1, "trial_type": "single-stim", "word": "quarter", "stimulus": "<p id=\"stim\">QUARTER</p>", "conditions": [18, 1200, "v", 18000], "internal_node_id": "0.0-13.0", "trial": 0, "time_elapsed": 216594, "serialpos": 1, "key_press": -1, "wordID": 1147, "type": "PRES_VIS", "trial_index": 22}, "uniqueid": "MTK1908:3GDTJDAPVVIJ17XMT7ZHN7X0SVQM87", "dateTime": 1516556458980}, {"current_trial": 23, "trialdata": {"rt": -1, "trial_type": "single-stim", "word": "ketchup", "stimulus": "<p id=\"stim\">KETCHUP</p>", "conditions": [18, 1200, "v", 18000], "internal_node_id": "0.0-14.0", "trial": 0, "time_elapsed": 218712, "serialpos": 2, "key_press": -1, "wordID": 770, "type": "PRES_VIS", "trial_index": 23}, "uniqueid": "MTK1908:3GDTJDAPVVIJ17XMT7ZHN7X0SVQM87", "dateTime": 1516556461098}, {"current_trial": 24, "trialdata": {"rt": -1, "trial_type": "single-stim", "word": "body", "stimulus": "<p id=\"stim\">BODY</p>", "conditions": [18, 1200, "v", 18000], "internal_node_id": "0.0-15.0", "trial": 0, "time_elapsed": 220802, "serialpos": 3, "key_press": -1, "wordID": 144, "type": "PRES_VIS", "trial_index": 24}, "uniqueid": "MTK1908:3GDTJDAPVVIJ17XMT7ZHN7X0SVQM87", "dateTime": 1516556463188}, {"current_trial": 25, "trialdata": {"rt": -1, "trial_type": "single-stim", "word": "loft", "stimulus": "<p id=\"stim\">LOFT</p>", "conditions": [18, 1200, "v", 18000], "internal_node_id": "0.0-16.0", "trial": 0, "time_elapsed": 223173, "serialpos": 4, "key_press": -1, "wordID": 839, "type": "PRES_VIS", "trial_index": 25}, "uniqueid": "MTK1908:3GDTJDAPVVIJ17XMT7ZHN7X0SVQM87", "dateTime": 1516556465559}, {"current_trial": 26, "trialdata": {"rt": -1, "trial_type": "single-stim", "word": "thread", "stimulus": "<p id=\"stim\">THREAD</p>", "conditions": [18, 1200, "v", 18000], "internal_node_id": "0.0-17.0", "trial": 0, "time_elapsed": 225225, "serialpos": 5, "key_press": -1, "wordID": 1459, "type": "PRES_VIS", "trial_index": 26}, "uniqueid": "MTK1908:3GDTJDAPVVIJ17XMT7ZHN7X0SVQM87", "dateTime": 1516556467612}, {"current_trial": 27, "trialdata": {"rt": -1, "trial_type": "single-stim", "word": "child", "stimulus": "<p id=\"stim\">CHILD</p>", "conditions": [18, 1200, "v", 18000], "internal_node_id": "0.0-18.0", "trial": 0, "time_elapsed": 227446, "serialpos": 6, "key_press": -1, "wordID": 298, "type": "PRES_VIS", "trial_index": 27}, "uniqueid": "MTK1908:3GDTJDAPVVIJ17XMT7ZHN7X0SVQM87", "dateTime": 1516556469832}, {"current_trial": 28, "trialdata": {"rt": -1, "trial_type": "single-stim", "word": "sunset", "stimulus": "<p id=\"stim\">SUNSET</p>", "conditions": [18, 1200, "v", 18000], "internal_node_id": "0.0-19.0", "trial": 0, "time_elapsed": 229635, "serialpos": 7, "key_press": -1, "wordID": 1407, "type": "PRES_VIS", "trial_index": 28}, "uniqueid": "MTK1908:3GDTJDAPVVIJ17XMT7ZHN7X0SVQM87", "dateTime": 1516556472021}, {"current_trial": 29, "trialdata": {"rt": -1, "trial_type": "single-stim", "word": "playground", "stimulus": "<p id=\"stim\">PLAYGROUND</p>", "conditions": [18, 1200, "v", 18000], "internal_node_id": "0.0-20.0", "trial": 0, "time_elapsed": 231787, "serialpos": 8, "key_press": -1, "wordID": 1086, "type": "PRES_VIS", "trial_index": 29}, "uniqueid": "MTK1908:3GDTJDAPVVIJ17XMT7ZHN7X0SVQM87", "dateTime": 1516556474173}, {"current_trial": 30, "trialdata": {"rt": -1, "trial_type": "single-stim", "word": "lumber", "stimulus": "<p id=\"stim\">LUMBER</p>", "conditions": [18, 1200, "v", 18000], "internal_node_id": "0.0-21.0", "trial": 0, "time_elapsed": 233811, "serialpos": 9, "key_press": -1, "wordID": 847, "type": "PRES_VIS", "trial_index": 30}, "uniqueid": "MTK1908:3GDTJDAPVVIJ17XMT7ZHN7X0SVQM87", "dateTime": 1516556476198}, {"current_trial": 31, "trialdata": {"rt": -1, "trial_type": "single-stim", "word": "sister", "stimulus": "<p id=\"stim\">SISTER</p>", "conditions": [18, 1200, "v", 18000], "internal_node_id": "0.0-22.0", "trial": 0, "time_elapsed": 235861, "serialpos": 10, "key_press": -1, "wordID": 1311, "type": "PRES_VIS", "trial_index": 31}, "uniqueid": "MTK1908:3GDTJDAPVVIJ17XMT7ZHN7X0SVQM87", "dateTime": 1516556478247}, {"current_trial": 32, "trialdata": {"rt": -1, "trial_type": "single-stim", "word": "marrow", "stimulus": "<p id=\"stim\">MARROW</p>", "conditions": [18, 1200, "v", 18000], "internal_node_id": "0.0-23.0", "trial": 0, "time_elapsed": 238202, "serialpos": 11, "key_press": -1, "wordID": 871, "type": "PRES_VIS", "trial_index": 32}, "uniqueid": "MTK1908:3GDTJDAPVVIJ17XMT7ZHN7X0SVQM87", "dateTime": 1516556480588}, {"current_trial": 33, "trialdata": {"rt": -1, "trial_type": "single-stim", "word": "robot", "stimulus": "<p id=\"stim\">ROBOT</p>", "conditions": [18, 1200, "v", 18000], "internal_node_id": "0.0-24.0", "trial": 0, "time_elapsed": 240506, "serialpos": 12, "key_press": -1, "wordID": 1199, "type": "PRES_VIS", "trial_index": 33}, "uniqueid": "MTK1908:3GDTJDAPVVIJ17XMT7ZHN7X0SVQM87", "dateTime": 1516556482892}, {"current_trial": 34, "trialdata": {"rt": -1, "trial_type": "single-stim", "word": "stamp", "stimulus": "<p id=\"stim\">STAMP</p>", "conditions": [18, 1200, "v", 18000], "internal_node_id": "0.0-25.0", "trial": 0, "time_elapsed": 242676, "serialpos": 13, "key_press": -1, "wordID": 1369, "type": "PRES_VIS", "trial_index": 34}, "uniqueid": "MTK1908:3GDTJDAPVVIJ17XMT7ZHN7X0SVQM87", "dateTime": 1516556485062}, {"current_trial": 35, "trialdata": {"rt": -1, "trial_type": "single-stim", "word": "dragon", "stimulus": "<p id=\"stim\">DRAGON</p>", "conditions": [18, 1200, "v", 18000], "internal_node_id": "0.0-26.0", "trial": 0, "time_elapsed": 244847, "serialpos": 14, "key_press": -1, "wordID": 491, "type": "PRES_VIS", "trial_index": 35}, "uniqueid": "MTK1908:3GDTJDAPVVIJ17XMT7ZHN7X0SVQM87", "dateTime": 1516556487233}, {"current_trial": 36, "trialdata": {"rt": -1, "trial_type": "single-stim", "word": "milk", "stimulus": "<p id=\"stim\">MILK</p>", "conditions": [18, 1200, "v", 18000], "internal_node_id": "0.0-27.0", "trial": 0, "time_elapsed": 246868, "serialpos": 15, "key_press": -1, "wordID": 894, "type": "PRES_VIS", "trial_index": 36}, "uniqueid": "MTK1908:3GDTJDAPVVIJ17XMT7ZHN7X0SVQM87", "dateTime": 1516556489254}, {"current_trial": 37, "trialdata": {"rt": -1, "trial_type": "single-stim", "word": "coin", "stimulus": "<p id=\"stim\">COIN</p>", "conditions": [18, 1200, "v", 18000], "internal_node_id": "0.0-28.0", "trial": 0, "time_elapsed": 249242, "serialpos": 16, "key_press": -1, "wordID": 342, "type": "PRES_VIS", "trial_index": 37}, "uniqueid": "MTK1908:3GDTJDAPVVIJ17XMT7ZHN7X0SVQM87", "dateTime": 1516556491628}, {"current_trial": 38, "trialdata": {"rt": -1, "trial_type": "single-stim", "word": "crib", "stimulus": "<p id=\"stim\">CRIB</p>", "conditions": [18, 1200, "v", 18000], "internal_node_id": "0.0-29.0", "trial": 0, "time_elapsed": 251530, "serialpos": 17, "key_press": -1, "wordID": 406, "type": "PRES_VIS", "trial_index": 38}, "uniqueid": "MTK1908:3GDTJDAPVVIJ17XMT7ZHN7X0SVQM87", "dateTime": 1516556493917}, {"current_trial": 39, "trialdata": {"rt": -1, "trial_type": "single-stim", "stimulus": "", "internal_node_id": "0.0-30.0-0.0", "time_elapsed": 253945, "key_press": -1, "type": "PRE_RECALL_DELAY", "trial_index": 39}, "uniqueid": "MTK1908:3GDTJDAPVVIJ17XMT7ZHN7X0SVQM87", "dateTime": 1516556496331}, {"current_trial": 40, "trialdata": {"rt": -1000, "trial_type": "single-audio", "stimulus": "/static/audio/400Hz.wav", "internal_node_id": "0.0-31.0", "time_elapsed": 254476, "key_press": -1, "type": "PRE_RECALL_ALERT", "trial_index": 40}, "uniqueid": "MTK1908:3GDTJDAPVVIJ17XMT7ZHN7X0SVQM87", "dateTime": 1516556496862}, {"current_trial": 41, "trialdata": {"rt": [3394, 3639, 8386, 11762, 15451, 18647, 30738, 50771], "recwords": ["coin", "", "loft", "ankle", "quarter", "body", "person", ""], "key_times": [1594, 1794, 1940, 2185, 3394, 3639, 5202, 5389, 6646, 7058, 8386, 9826, 10242, 10705, 10890, 11082, 11762, 13170, 13347, 13546, 13914, 14130, 14298, 14540, 15451, 16602, 17148, 17537, 17858, 18647, 27899, 28467, 28657, 28914, 29018, 29244, 30738, 50771], "trial_type": "free-recall", "conditions": [18, 1200, "v", 18000], "internal_node_id": "0.0-32.0-0.0", "key_presses": [67, 79, 73, 78, 188, 32, 76, 79, 70, 84, 188, 65, 78, 75, 76, 69, 188, 81, 85, 65, 82, 84, 69, 82, 188, 66, 79, 68, 89, 188, 80, 69, 82, 83, 79, 78, 188, 13], "trial": 0, "time_elapsed": 314478, "type": "FREE_RECALL", "trial_index": 41}, "uniqueid": "MTK1908:3GDTJDAPVVIJ17XMT7ZHN7X0SVQM87", "dateTime": 1516556556869}, {"current_trial": 42, "trialdata": {"rt": 1818, "trial_type": "text", "internal_node_id": "0.0-33.0", "time_elapsed": 318312, "key_press": 32, "type": "INSTRUCTIONS", "trial_index": 42}, "uniqueid": "MTK1908:3GDTJDAPVVIJ17XMT7ZHN7X0SVQM87", "dateTime": 1516556560698}, {"current_trial": 43, "trialdata": {"rt": [2580, 5340, 7651, 10325, 12716, 15180, 17420], "trial_type": "math-distractor", "key_times": [1956, 2228, 2580, 4644, 4867, 5340, 7020, 7651, 9552, 9933, 10325, 12157, 12380, 12716, 14757, 14956, 15180, 16980, 17164, 17420], "responses": ["12", "11", "8", "19", "16", "13", "16"], "num2": [6, 7, 2, 6, 1, 1, 7, 6], "num3": [5, 2, 4, 9, 9, 5, 7, 4], "conditions": [18, 1200, "v", 18000], "internal_node_id": "0.0-34.0", "key_presses": [97, 98, 13, 97, 97, 13, 104, 13, 97, 105, 13, 97, 102, 13, 97, 99, 13, 97, 102, 13], "trial": 1, "time_elapsed": 338330, "type": "DISTRACTOR", "trial_index": 43, "num1": [1, 2, 2, 4, 6, 7, 2, 1]}, "uniqueid": "MTK1908:3GDTJDAPVVIJ17XMT7ZHN7X0SVQM87", "dateTime": 1516556580716}, {"current_trial": 44, "trialdata": {"rt": -1, "trial_type": "single-stim", "stimulus": "<p id=\"stim\">10</p>", "internal_node_id": "0.0-35.0-0.0", "time_elapsed": 341354, "key_press": -1, "trial_index": 44}, "uniqueid": "MTK1908:3GDTJDAPVVIJ17XMT7ZHN7X0SVQM87", "dateTime": 1516556583740}, {"current_trial": 45, "trialdata": {"rt": -1, "trial_type": "single-stim", "stimulus": "<p id=\"stim\">9</p>", "internal_node_id": "0.0-35.0-1.0", "time_elapsed": 342347, "key_press": -1, "trial_index": 45}, "uniqueid": "MTK1908:3GDTJDAPVVIJ17XMT7ZHN7X0SVQM87", "dateTime": 1516556584733}, {"current_trial": 46, "trialdata": {"rt": -1, "trial_type": "single-stim", "stimulus": "<p id=\"stim\">8</p>", "internal_node_id": "0.0-35.0-2.0", "time_elapsed": 343348, "key_press": -1, "trial_index": 46}, "uniqueid": "MTK1908:3GDTJDAPVVIJ17XMT7ZHN7X0SVQM87", "dateTime": 1516556585734}, {"current_trial": 47, "trialdata": {"rt": -1, "trial_type": "single-stim", "stimulus": "<p id=\"stim\">7</p>", "internal_node_id": "0.0-35.0-3.0", "time_elapsed": 344354, "key_press": -1, "trial_index": 47}, "uniqueid": "MTK1908:3GDTJDAPVVIJ17XMT7ZHN7X0SVQM87", "dateTime": 1516556586740}, {"current_trial": 48, "trialdata": {"rt": -1, "trial_type": "single-stim", "stimulus": "<p id=\"stim\">6</p>", "internal_node_id": "0.0-35.0-4.0", "time_elapsed": 345346, "key_press": -1, "trial_index": 48}, "uniqueid": "MTK1908:3GDTJDAPVVIJ17XMT7ZHN7X0SVQM87", "dateTime": 1516556587732}, {"current_trial": 49, "trialdata": {"rt": -1, "trial_type": "single-stim", "stimulus": "<p id=\"stim\">5</p>", "internal_node_id": "0.0-35.0-5.0", "time_elapsed": 346351, "key_press": -1, "trial_index": 49}, "uniqueid": "MTK1908:3GDTJDAPVVIJ17XMT7ZHN7X0SVQM87", "dateTime": 1516556588737}, {"current_trial": 50, "trialdata": {"rt": -1, "trial_type": "single-stim", "stimulus": "<p id=\"stim\">4</p>", "internal_node_id": "0.0-35.0-6.0", "time_elapsed": 347357, "key_press": -1, "trial_index": 50}, "uniqueid": "MTK1908:3GDTJDAPVVIJ17XMT7ZHN7X0SVQM87", "dateTime": 1516556589743}, {"current_trial": 51, "trialdata": {"rt": -1, "trial_type": "single-stim", "stimulus": "<p id=\"stim\">3</p>", "internal_node_id": "0.0-35.0-7.0", "time_elapsed": 348366, "key_press": -1, "trial_index": 51}, "uniqueid": "MTK1908:3GDTJDAPVVIJ17XMT7ZHN7X0SVQM87", "dateTime": 1516556590752}, {"current_trial": 52, "trialdata": {"rt": -1, "trial_type": "single-stim", "stimulus": "<p id=\"stim\">2</p>", "internal_node_id": "0.0-35.0-8.0", "time_elapsed": 349350, "key_press": -1, "trial_index": 52}, "uniqueid": "MTK1908:3GDTJDAPVVIJ17XMT7ZHN7X0SVQM87", "dateTime": 1516556591736}, {"current_trial": 53, "trialdata": {"rt": -1, "trial_type": "single-stim", "stimulus": "<p id=\"stim\">1</p>", "internal_node_id": "0.0-35.0-9.0", "time_elapsed": 350358, "key_press": -1, "trial_index": 53}, "uniqueid": "MTK1908:3GDTJDAPVVIJ17XMT7ZHN7X0SVQM87", "dateTime": 1516556592744}, {"current_trial": 54, "trialdata": {"rt": -1, "trial_type": "single-stim", "stimulus": "<p id=\"stim\">+</p>", "internal_node_id": "0.0-36.0-0.0", "time_elapsed": 351859, "key_press": -1, "type": "FIXATION", "trial_index": 54}, "uniqueid": "MTK1908:3GDTJDAPVVIJ17XMT7ZHN7X0SVQM87", "dateTime": 1516556594246}, {"current_trial": 55, "trialdata": {"rt": -1, "trial_type": "single-stim", "word": "football", "stimulus": "<p id=\"stim\">FOOTBALL</p>", "conditions": [18, 1200, "v", 18000], "internal_node_id": "0.0-37.0", "trial": 1, "time_elapsed": 353065, "serialpos": 0, "key_press": -1, "wordID": 590, "type": "PRES_VIS", "trial_index": 55}, "uniqueid": "MTK1908:3GDTJDAPVVIJ17XMT7ZHN7X0SVQM87", "dateTime": 1516556595451}, {"current_trial": 56, "trialdata": {"rt": -1, "trial_type": "single-stim", "word": "freezer", "stimulus": "<p id=\"stim\">FREEZER</p>", "conditions": [18, 1200, "v", 18000], "internal_node_id": "0.0-38.0", "trial": 1, "time_elapsed": 355319, "serialpos": 1, "key_press": -1, "wordID": 603, "type": "PRES_VIS", "trial_index": 56}, "uniqueid": "MTK1908:3GDTJDAPVVIJ17XMT7ZHN7X0SVQM87", "dateTime": 1516556597705}, {"current_trial": 57, "trialdata": {"rt": -1, "trial_type": "single-stim", "word": "dashboard", "stimulus": "<p id=\"stim\">DASHBOARD</p>", "conditions": [18, 1200, "v", 18000], "internal_node_id": "0.0-39.0", "trial": 1, "time_elapsed": 357458, "serialpos": 2, "key_press": -1, "wordID": 440, "type": "PRES_VIS", "trial_index": 57}, "uniqueid": "MTK1908:3GDTJDAPVVIJ17XMT7ZHN7X0SVQM87", "dateTime": 1516556599844}, {"current_trial": 58, "trialdata": {"rt": -1, "trial_type": "single-stim", "word": "garbage", "stimulus": "<p id=\"stim\">GARBAGE</p>", "conditions": [18, 1200, "v", 18000], "internal_node_id": "0.0-40.0", "trial": 1, "time_elapsed": 359765, "serialpos": 3, "key_press": -1, "wordID": 621, "type": "PRES_VIS", "trial_index": 58}, "uniqueid": "MTK1908:3GDTJDAPVVIJ17XMT7ZHN7X0SVQM87", "dateTime": 1516556602151}, {"current_trial": 59, "trialdata": {"rt": -1, "trial_type": "single-stim", "word": "cupboard", "stimulus": "<p id=\"stim\">CUPBOARD</p>", "conditions": [18, 1200, "v", 18000], "internal_node_id": "0.0-41.0", "trial": 1, "time_elapsed": 362065, "serialpos": 4, "key_press": -1, "wordID": 424, "type": "PRES_VIS", "trial_index": 59}, "uniqueid": "MTK1908:3GDTJDAPVVIJ17XMT7ZHN7X0SVQM87", "dateTime": 1516556604451}, {"current_trial": 60, "trialdata": {"rt": -1, "trial_type": "single-stim", "word": "seagull", "stimulus": "<p id=\"stim\">SEAGULL</p>", "conditions": [18, 1200, "v", 18000], "internal_node_id": "0.0-42.0", "trial": 1, "time_elapsed": 364338, "serialpos": 5, "key_press": -1, "wordID": 1260, "type": "PRES_VIS", "trial_index": 60}, "uniqueid": "MTK1908:3GDTJDAPVVIJ17XMT7ZHN7X0SVQM87", "dateTime": 1516556606724}, {"current_trial": 61, "trialdata": {"rt": -1, "trial_type": "single-stim", "word": "canyon", "stimulus": "<p id=\"stim\">CANYON</p>", "conditions": [18, 1200, "v", 18000], "internal_node_id": "0.0-43.0", "trial": 1, "time_elapsed": 366661, "serialpos": 6, "key_press": -1, "wordID": 234, "type": "PRES_VIS", "trial_index": 61}, "uniqueid": "MTK1908:3GDTJDAPVVIJ17XMT7ZHN7X0SVQM87", "dateTime": 1516556609048}, {"current_trial": 62, "trialdata": {"rt": -1, "trial_type": "single-stim", "word": "rod", "stimulus": "<p id=\"stim\">ROD</p>", "conditions": [18, 1200, "v", 18000], "internal_node_id": "0.0-44.0", "trial": 1, "time_elapsed": 368795, "serialpos": 7, "key_press": -1, "wordID": 1202, "type": "PRES_VIS", "trial_index": 62}, "uniqueid": "MTK1908:3GDTJDAPVVIJ17XMT7ZHN7X0SVQM87", "dateTime": 1516556611181}, {"current_trial": 63, "trialdata": {"rt": -1, "trial_type": "single-stim", "word": "marker", "stimulus": "<p id=\"stim\">MARKER</p>", "conditions": [18, 1200, "v", 18000], "internal_node_id": "0.0-45.0", "trial": 1, "time_elapsed": 371134, "serialpos": 8, "key_press": -1, "wordID": 869, "type": "PRES_VIS", "trial_index": 63}, "uniqueid": "MTK1908:3GDTJDAPVVIJ17XMT7ZHN7X0SVQM87", "dateTime": 1516556613521}, {"current_trial": 64, "trialdata": {"rt": -1, "trial_type": "single-stim", "word": "daisy", "stimulus": "<p id=\"stim\">DAISY</p>", "conditions": [18, 1200, "v", 18000], "internal_node_id": "0.0-46.0", "trial": 1, "time_elapsed": 373271, "serialpos": 9, "key_press": -1, "wordID": 434, "type": "PRES_VIS", "trial_index": 64}, "uniqueid": "MTK1908:3GDTJDAPVVIJ17XMT7ZHN7X0SVQM87", "dateTime": 1516556615658}, {"current_trial": 65, "trialdata": {"rt": -1, "trial_type": "single-stim", "word": "brother", "stimulus": "<p id=\"stim\">BROTHER</p>", "conditions": [18, 1200, "v", 18000], "internal_node_id": "0.0-47.0", "trial": 1, "time_elapsed": 375406, "serialpos": 10, "key_press": -1, "wordID": 178, "type": "PRES_VIS", "trial_index": 65}, "uniqueid": "MTK1908:3GDTJDAPVVIJ17XMT7ZHN7X0SVQM87", "dateTime": 1516556617793}, {"current_trial": 66, "trialdata": {"rt": -1, "trial_type": "single-stim", "word": "iceberg", "stimulus": "<p id=\"stim\">ICEBERG</p>", "conditions": [18, 1200, "v", 18000], "internal_node_id": "0.0-48.0", "trial": 1, "time_elapsed": 377635, "serialpos": 11, "key_press": -1, "wordID": 730, "type": "PRES_VIS", "trial_index": 66}, "uniqueid": "MTK1908:3GDTJDAPVVIJ17XMT7ZHN7X0SVQM87", "dateTime": 1516556620021}, {"current_trial": 67, "trialdata": {"rt": -1, "trial_type": "single-stim", "word": "london", "stimulus": "<p id=\"stim\">LONDON</p>", "conditions": [18, 1200, "v", 18000], "internal_node_id": "0.0-49.0", "trial": 1, "time_elapsed": 380000, "serialpos": 12, "key_press": -1, "wordID": 842, "type": "PRES_VIS", "trial_index": 67}, "uniqueid": "MTK1908:3GDTJDAPVVIJ17XMT7ZHN7X0SVQM87", "dateTime": 1516556622386}, {"current_trial": 68, "trialdata": {"rt": -1, "trial_type": "single-stim", "word": "popcorn", "stimulus": "<p id=\"stim\">POPCORN</p>", "conditions": [18, 1200, "v", 18000], "internal_node_id": "0.0-50.0", "trial": 1, "time_elapsed": 382390, "serialpos": 13, "key_press": -1, "wordID": 1103, "type": "PRES_VIS", "trial_index": 68}, "uniqueid": "MTK1908:3GDTJDAPVVIJ17XMT7ZHN7X0SVQM87", "dateTime": 1516556624776}, {"current_trial": 69, "trialdata": {"rt": -1, "trial_type": "single-stim", "word": "parrot", "stimulus": "<p id=\"stim\">PARROT</p>", "conditions": [18, 1200, "v", 18000], "internal_node_id": "0.0-51.0", "trial": 1, "time_elapsed": 384444, "serialpos": 14, "key_press": -1, "wordID": 1014, "type": "PRES_VIS", "trial_index": 69}, "uniqueid": "MTK1908:3GDTJDAPVVIJ17XMT7ZHN7X0SVQM87", "dateTime": 1516556626830}, {"current_trial": 70, "trialdata": {"rt": -1, "trial_type": "single-stim", "word": "sphinx", "stimulus": "<p id=\"stim\">SPHINX</p>", "conditions": [18, 1200, "v", 18000], "internal_node_id": "0.0-52.0", "trial": 1, "time_elapsed": 386645, "serialpos": 15, "key_press": -1, "wordID": 1348, "type": "PRES_VIS", "trial_index": 70}, "uniqueid": "MTK1908:3GDTJDAPVVIJ17XMT7ZHN7X0SVQM87", "dateTime": 1516556629031}, {"current_trial": 71, "trialdata": {"rt": -1, "trial_type": "single-stim", "word": "canal", "stimulus": "<p id=\"stim\">CANAL</p>", "conditions": [18, 1200, "v", 18000], "internal_node_id": "0.0-53.0", "trial": 1, "time_elapsed": 388900, "serialpos": 16, "key_press": -1, "wordID": 225, "type": "PRES_VIS", "trial_index": 71}, "uniqueid": "MTK1908:3GDTJDAPVVIJ17XMT7ZHN7X0SVQM87", "dateTime": 1516556631286}, {"current_trial": 72, "trialdata": {"rt": -1, "trial_type": "single-stim", "word": "relish", "stimulus": "<p id=\"stim\">RELISH</p>", "conditions": [18, 1200, "v", 18000], "internal_node_id": "0.0-54.0", "trial": 1, "time_elapsed": 391188, "serialpos": 17, "key_press": -1, "wordID": 1182, "type": "PRES_VIS", "trial_index": 72}, "uniqueid": "MTK1908:3GDTJDAPVVIJ17XMT7ZHN7X0SVQM87", "dateTime": 1516556633574}, {"current_trial": 73, "trialdata": {"rt": -1, "trial_type": "single-stim", "stimulus": "", "internal_node_id": "0.0-55.0-0.0", "time_elapsed": 393445, "key_press": -1, "type": "PRE_RECALL_DELAY", "trial_index": 73}, "uniqueid": "MTK1908:3GDTJDAPVVIJ17XMT7ZHN7X0SVQM87", "dateTime": 1516556635831}, {"current_trial": 74, "trialdata": {"rt": -1000, "trial_type": "single-audio", "stimulus": "/static/audio/400Hz.wav", "internal_node_id": "0.0-56.0", "time_elapsed": 393948, "key_press": -1, "type": "PRE_RECALL_ALERT", "trial_index": 74}, "uniqueid": "MTK1908:3GDTJDAPVVIJ17XMT7ZHN7X0SVQM87", "dateTime": 1516556636334}, {"current_trial": 75, "trialdata": {"rt": [6025, 10490, 14913, 19724, 23609, 27320, 33202, 35945, 43093, 55625], "recwords": ["football", "freezer", "brother", "cupboard", "london", "popcorn", "parrot", "rod", "marker", "dashboard"], "key_times": [2026, 3042, 3209, 3601, 3897, 4065, 4492, 4665, 6025, 7009, 7273, 7608, 8173, 9049, 9353, 9549, 10490, 12153, 12473, 12810, 13182, 13384, 13497, 13746, 14913, 15745, 16089, 16683, 17125, 17609, 17772, 18017, 18201, 19724, 20833, 21048, 21603, 22049, 22291, 22569, 23609, 24017, 24273, 24465, 24833, 25155, 25577, 26121, 26281, 26642, 27320, 29649, 29881, 30353, 30529, 31169, 31528, 33202, 34084, 34257, 34521, 35945, 40433, 40662, 40949, 41457, 41658, 41865, 43093, 51885, 52121, 52313, 52573, 52849, 53330, 53545, 53849, 54085, 55625], "trial_type": "free-recall", "conditions": [18, 1200, "v", 18000], "internal_node_id": "0.0-57.0-0.0", "key_presses": [70, 79, 79, 84, 66, 65, 76, 76, 188, 70, 82, 69, 69, 90, 69, 82, 188, 66, 82, 79, 84, 72, 69, 82, 188, 67, 85, 80, 66, 79, 65, 82, 68, 188, 76, 79, 78, 68, 79, 78, 188, 80, 79, 80, 67, 79, 69, 8, 82, 78, 188, 80, 65, 82, 82, 79, 84, 188, 82, 79, 68, 188, 77, 65, 82, 75, 69, 82, 188, 68, 65, 83, 72, 66, 79, 65, 82, 68, 188], "trial": 1, "time_elapsed": 453960, "type": "FREE_RECALL", "trial_index": 75}, "uniqueid": "MTK1908:3GDTJDAPVVIJ17XMT7ZHN7X0SVQM87", "dateTime": 1516556696352}, {"current_trial": 76, "trialdata": {"rt": 2903, "trial_type": "text", "internal_node_id": "0.0-58.0", "time_elapsed": 458879, "key_press": 32, "type": "INSTRUCTIONS", "trial_index": 76}, "uniqueid": "MTK1908:3GDTJDAPVVIJ17XMT7ZHN7X0SVQM87", "dateTime": 1516556701265}, {"current_trial": 77, "trialdata": {"rt": [3230, 6405, 10485, 12989, 15029, 17677, 19253, 23517], "trial_type": "math-distractor", "key_times": [2170, 2365, 3230, 5837, 6095, 6405, 9574, 10239, 10485, 12614, 12837, 12989, 14696, 14853, 15029, 17368, 17548, 17677, 18892, 19069, 19253, 22997, 23269, 23517], "responses": ["12", "18", "14", "20", "11", "21", "13", "26"], "num2": [1, 5, 8, 6, 3, 9, 4, 9, 8], "num3": [7, 9, 2, 4, 3, 5, 3, 9, 2], "conditions": [12, 800, "v", 24000], "internal_node_id": "0.0-59.0", "key_presses": [97, 98, 13, 97, 104, 13, 97, 100, 13, 98, 96, 13, 97, 97, 13, 98, 97, 13, 97, 99, 13, 98, 102, 13], "trial": 2, "time_elapsed": 483916, "type": "DISTRACTOR", "trial_index": 77, "num1": [4, 4, 4, 8, 5, 7, 6, 8, 5]}, "uniqueid": "MTK1908:3GDTJDAPVVIJ17XMT7ZHN7X0SVQM87", "dateTime": 1516556726303}, {"current_trial": 78, "trialdata": {"rt": -1, "trial_type": "single-stim", "stimulus": "<p id=\"stim\">10</p>", "internal_node_id": "0.0-60.0-0.0", "time_elapsed": 486948, "key_press": -1, "trial_index": 78}, "uniqueid": "MTK1908:3GDTJDAPVVIJ17XMT7ZHN7X0SVQM87", "dateTime": 1516556729334}, {"current_trial": 79, "trialdata": {"rt": -1, "trial_type": "single-stim", "stimulus": "<p id=\"stim\">9</p>", "internal_node_id": "0.0-60.0-1.0", "time_elapsed": 487935, "key_press": -1, "trial_index": 79}, "uniqueid": "MTK1908:3GDTJDAPVVIJ17XMT7ZHN7X0SVQM87", "dateTime": 1516556730321}, {"current_trial": 80, "trialdata": {"rt": -1, "trial_type": "single-stim", "stimulus": "<p id=\"stim\">8</p>", "internal_node_id": "0.0-60.0-2.0", "time_elapsed": 488941, "key_press": -1, "trial_index": 80}, "uniqueid": "MTK1908:3GDTJDAPVVIJ17XMT7ZHN7X0SVQM87", "dateTime": 1516556731327}, {"current_trial": 81, "trialdata": {"rt": -1, "trial_type": "single-stim", "stimulus": "<p id=\"stim\">7</p>", "internal_node_id": "0.0-60.0-3.0", "time_elapsed": 489944, "key_press": -1, "trial_index": 81}, "uniqueid": "MTK1908:3GDTJDAPVVIJ17XMT7ZHN7X0SVQM87", "dateTime": 1516556732330}, {"current_trial": 82, "trialdata": {"rt": -1, "trial_type": "single-stim", "stimulus": "<p id=\"stim\">6</p>", "internal_node_id": "0.0-60.0-4.0", "time_elapsed": 490936, "key_press": -1, "trial_index": 82}, "uniqueid": "MTK1908:3GDTJDAPVVIJ17XMT7ZHN7X0SVQM87", "dateTime": 1516556733322}, {"current_trial": 83, "trialdata": {"rt": -1, "trial_type": "single-stim", "stimulus": "<p id=\"stim\">5</p>", "internal_node_id": "0.0-60.0-5.0", "time_elapsed": 491942, "key_press": -1, "trial_index": 83}, "uniqueid": "MTK1908:3GDTJDAPVVIJ17XMT7ZHN7X0SVQM87", "dateTime": 1516556734328}, {"current_trial": 84, "trialdata": {"rt": -1, "trial_type": "single-stim", "stimulus": "<p id=\"stim\">4</p>", "internal_node_id": "0.0-60.0-6.0", "time_elapsed": 492949, "key_press": -1, "trial_index": 84}, "uniqueid": "MTK1908:3GDTJDAPVVIJ17XMT7ZHN7X0SVQM87", "dateTime": 1516556735335}, {"current_trial": 85, "trialdata": {"rt": -1, "trial_type": "single-stim", "stimulus": "<p id=\"stim\">3</p>", "internal_node_id": "0.0-60.0-7.0", "time_elapsed": 493957, "key_press": -1, "trial_index": 85}, "uniqueid": "MTK1908:3GDTJDAPVVIJ17XMT7ZHN7X0SVQM87", "dateTime": 1516556736343}, {"current_trial": 86, "trialdata": {"rt": -1, "trial_type": "single-stim", "stimulus": "<p id=\"stim\">2</p>", "internal_node_id": "0.0-60.0-8.0", "time_elapsed": 494942, "key_press": -1, "trial_index": 86}, "uniqueid": "MTK1908:3GDTJDAPVVIJ17XMT7ZHN7X0SVQM87", "dateTime": 1516556737328}, {"current_trial": 87, "trialdata": {"rt": -1, "trial_type": "single-stim", "stimulus": "<p id=\"stim\">1</p>", "internal_node_id": "0.0-60.0-9.0", "time_elapsed": 495945, "key_press": -1, "trial_index": 87}, "uniqueid": "MTK1908:3GDTJDAPVVIJ17XMT7ZHN7X0SVQM87", "dateTime": 1516556738331}, {"current_trial": 88, "trialdata": {"rt": -1, "trial_type": "single-stim", "stimulus": "<p id=\"stim\">+</p>", "internal_node_id": "0.0-61.0-0.0", "time_elapsed": 497452, "key_press": -1, "type": "FIXATION", "trial_index": 88}, "uniqueid": "MTK1908:3GDTJDAPVVIJ17XMT7ZHN7X0SVQM87", "dateTime": 1516556739839}, {"current_trial": 89, "trialdata": {"rt": -1, "trial_type": "single-stim", "word": "tablet", "stimulus": "<p id=\"stim\">TABLET</p>", "conditions": [12, 800, "v", 24000], "internal_node_id": "0.0-62.0", "trial": 2, "time_elapsed": 498264, "serialpos": 0, "key_press": -1, "wordID": 1426, "type": "PRES_VIS", "trial_index": 89}, "uniqueid": "MTK1908:3GDTJDAPVVIJ17XMT7ZHN7X0SVQM87", "dateTime": 1516556740650}, {"current_trial": 90, "trialdata": {"rt": -1, "trial_type": "single-stim", "word": "possum", "stimulus": "<p id=\"stim\">POSSUM</p>", "conditions": [12, 800, "v", 24000], "internal_node_id": "0.0-63.0", "trial": 2, "time_elapsed": 499900, "serialpos": 1, "key_press": -1, "wordID": 1111, "type": "PRES_VIS", "trial_index": 90}, "uniqueid": "MTK1908:3GDTJDAPVVIJ17XMT7ZHN7X0SVQM87", "dateTime": 1516556742287}, {"current_trial": 91, "trialdata": {"rt": -1, "trial_type": "single-stim", "word": "rabbit", "stimulus": "<p id=\"stim\">RABBIT</p>", "conditions": [12, 800, "v", 24000], "internal_node_id": "0.0-64.0", "trial": 2, "time_elapsed": 501536, "serialpos": 2, "key_press": -1, "wordID": 1151, "type": "PRES_VIS", "trial_index": 91}, "uniqueid": "MTK1908:3GDTJDAPVVIJ17XMT7ZHN7X0SVQM87", "dateTime": 1516556743923}, {"current_trial": 92, "trialdata": {"rt": -1, "trial_type": "single-stim", "word": "goblin", "stimulus": "<p id=\"stim\">GOBLIN</p>", "conditions": [12, 800, "v", 24000], "internal_node_id": "0.0-65.0", "trial": 2, "time_elapsed": 503357, "serialpos": 3, "key_press": -1, "wordID": 644, "type": "PRES_VIS", "trial_index": 92}, "uniqueid": "MTK1908:3GDTJDAPVVIJ17XMT7ZHN7X0SVQM87", "dateTime": 1516556745743}, {"current_trial": 93, "trialdata": {"rt": -1, "trial_type": "single-stim", "word": "gangster", "stimulus": "<p id=\"stim\">GANGSTER</p>", "conditions": [12, 800, "v", 24000], "internal_node_id": "0.0-66.0", "trial": 2, "time_elapsed": 505109, "serialpos": 4, "key_press": -1, "wordID": 619, "type": "PRES_VIS", "trial_index": 93}, "uniqueid": "MTK1908:3GDTJDAPVVIJ17XMT7ZHN7X0SVQM87", "dateTime": 1516556747496}, {"current_trial": 94, "trialdata": {"rt": -1, "trial_type": "single-stim", "word": "cabbage", "stimulus": "<p id=\"stim\">CABBAGE</p>", "conditions": [12, 800, "v", 24000], "internal_node_id": "0.0-67.0", "trial": 2, "time_elapsed": 507015, "serialpos": 5, "key_press": -1, "wordID": 209, "type": "PRES_VIS", "trial_index": 94}, "uniqueid": "MTK1908:3GDTJDAPVVIJ17XMT7ZHN7X0SVQM87", "dateTime": 1516556749401}, {"current_trial": 95, "trialdata": {"rt": -1, "trial_type": "single-stim", "word": "ointment", "stimulus": "<p id=\"stim\">OINTMENT</p>", "conditions": [12, 800, "v", 24000], "internal_node_id": "0.0-68.0", "trial": 2, "time_elapsed": 508916, "serialpos": 6, "key_press": -1, "wordID": 973, "type": "PRES_VIS", "trial_index": 95}, "uniqueid": "MTK1908:3GDTJDAPVVIJ17XMT7ZHN7X0SVQM87", "dateTime": 1516556751302}, {"current_trial": 96, "trialdata": {"rt": -1, "trial_type": "single-stim", "word": "slope", "stimulus": "<p id=\"stim\">SLOPE</p>", "conditions": [12, 800, "v", 24000], "internal_node_id": "0.0-69.0", "trial": 2, "time_elapsed": 510855, "serialpos": 7, "key_press": -1, "wordID": 1327, "type": "PRES_VIS", "trial_index": 96}, "uniqueid": "MTK1908:3GDTJDAPVVIJ17XMT7ZHN7X0SVQM87", "dateTime": 1516556753241}, {"current_trial": 97, "trialdata": {"rt": -1, "trial_type": "single-stim", "word": "lagoon", "stimulus": "<p id=\"stim\">LAGOON</p>", "conditions": [12, 800, "v", 24000], "internal_node_id": "0.0-70.0", "trial": 2, "time_elapsed": 512677, "serialpos": 8, "key_press": -1, "wordID": 794, "type": "PRES_VIS", "trial_index": 97}, "uniqueid": "MTK1908:3GDTJDAPVVIJ17XMT7ZHN7X0SVQM87", "dateTime": 1516556755064}, {"current_trial": 98, "trialdata": {"rt": -1, "trial_type": "single-stim", "word": "marsh", "stimulus": "<p id=\"stim\">MARSH</p>", "conditions": [12, 800, "v", 24000], "internal_node_id": "0.0-71.0", "trial": 2, "time_elapsed": 514311, "serialpos": 9, "key_press": -1, "wordID": 873, "type": "PRES_VIS", "trial_index": 98}, "uniqueid": "MTK1908:3GDTJDAPVVIJ17XMT7ZHN7X0SVQM87", "dateTime": 1516556756697}, {"current_trial": 99, "trialdata": {"rt": -1, "trial_type": "single-stim", "word": "snake", "stimulus": "<p id=\"stim\">SNAKE</p>", "conditions": [12, 800, "v", 24000], "internal_node_id": "0.0-72.0", "trial": 2, "time_elapsed": 515996, "serialpos": 10, "key_press": -1, "wordID": 1332, "type": "PRES_VIS", "trial_index": 99}, "uniqueid": "MTK1908:3GDTJDAPVVIJ17XMT7ZHN7X0SVQM87", "dateTime": 1516556758382}, {"current_trial": 100, "trialdata": {"rt": -1, "trial_type": "single-stim", "word": "infant", "stimulus": "<p id=\"stim\">INFANT</p>", "conditions": [12, 800, "v", 24000], "internal_node_id": "0.0-73.0", "trial": 2, "time_elapsed": 518020, "serialpos": 11, "key_press": -1, "wordID": 736, "type": "PRES_VIS", "trial_index": 100}, "uniqueid": "MTK1908:3GDTJDAPVVIJ17XMT7ZHN7X0SVQM87", "dateTime": 1516556760406}, {"current_trial": 101, "trialdata": {"rt": -1, "trial_type": "single-stim", "stimulus": "", "internal_node_id": "0.0-74.0-0.0", "time_elapsed": 520519, "key_press": -1, "type": "PRE_RECALL_DELAY", "trial_index": 101}, "uniqueid": "MTK1908:3GDTJDAPVVIJ17XMT7ZHN7X0SVQM87", "dateTime": 1516556762906}, {"current_trial": 102, "trialdata": {"rt": -1000, "trial_type": "single-audio", "stimulus": "/static/audio/400Hz.wav", "internal_node_id": "0.0-75.0", "time_elapsed": 521033, "key_press": -1, "type": "PRE_RECALL_ALERT", "trial_index": 102}, "uniqueid": "MTK1908:3GDTJDAPVVIJ17XMT7ZHN7X0SVQM87", "dateTime": 1516556763419}, {"current_trial": 103, "trialdata": {"rt": [3345, 6573, 12669, 16117, 19621, 25597, 35853, 43654, 45863, 52061], "recwords": ["snake", "marsh", "lagoon", "slope", "tablet", "garbage", "infant", "rabbit", "possum", "ointment"], "key_times": [1277, 1532, 1669, 1973, 2245, 3345, 4485, 4701, 4925, 5119, 5429, 6573, 6973, 7189, 7632, 8709, 8877, 9317, 9517, 9638, 9773, 9999, 10845, 11333, 11485, 11677, 12669, 13613, 13766, 13950, 14158, 14344, 16117, 17094, 17237, 17517, 18020, 18189, 18408, 19621, 22397, 22773, 22965, 23813, 23957, 24197, 24357, 25597, 30913, 31093, 31536, 31661, 32101, 32117, 32469, 32923, 33117, 33229, 34309, 34558, 35853, 41221, 41333, 41678, 41845, 42284, 42565, 43654, 44149, 44389, 44660, 44869, 44973, 45246, 45863, 47917, 48821, 49789, 50069, 50462, 50582, 50693, 50937, 52061], "trial_type": "free-recall", "conditions": [12, 800, "v", 24000], "internal_node_id": "0.0-76.0-0.0", "key_presses": [83, 78, 65, 75, 69, 188, 77, 65, 82, 83, 72, 188, 76, 79, 71, 79, 79, 8, 8, 8, 8, 65, 71, 79, 79, 78, 188, 83, 76, 79, 80, 69, 188, 84, 65, 66, 76, 69, 84, 188, 71, 65, 82, 66, 65, 71, 69, 188, 73, 78, 70, 65, 78, 72, 84, 8, 8, 8, 78, 84, 188, 82, 65, 66, 66, 73, 84, 188, 80, 79, 83, 83, 85, 77, 188, 79, 73, 78, 84, 77, 69, 78, 84, 188], "trial": 2, "time_elapsed": 581044, "type": "FREE_RECALL", "trial_index": 103}, "uniqueid": "MTK1908:3GDTJDAPVVIJ17XMT7ZHN7X0SVQM87", "dateTime": 1516556823436}, {"current_trial": 104, "trialdata": {"rt": 991, "trial_type": "text", "internal_node_id": "0.0-77.0", "time_elapsed": 584056, "key_press": 32, "type": "INSTRUCTIONS", "trial_index": 104}, "uniqueid": "MTK1908:3GDTJDAPVVIJ17XMT7ZHN7X0SVQM87", "dateTime": 1516556826442}, {"current_trial": 105, "trialdata": {"rt": [3760, 5880, 8121, 10408, 13880, 16464, 19136, 21384], "trial_type": "math-distractor", "key_times": [3136, 3328, 3760, 5505, 5689, 5880, 7681, 7921, 8121, 9952, 10188, 10408, 13417, 13656, 13880, 16032, 16232, 16464, 18872, 19136, 21117, 21384, 23440], "responses": ["19", "14", "17", "19", "17", "13", "8", "9"], "num2": [4, 6, 7, 8, 7, 4, 4, 1, 9], "num3": [8, 5, 9, 7, 8, 1, 2, 4, 1], "conditions": [12, 800, "v", 24000], "internal_node_id": "0.0-78.0", "key_presses": [97, 105, 13, 97, 100, 13, 97, 103, 13, 97, 105, 13, 97, 103, 13, 97, 99, 13, 104, 13, 105, 13, 97], "trial": 3, "time_elapsed": 610074, "type": "DISTRACTOR", "trial_index": 105, "num1": [7, 3, 1, 4, 2, 8, 2, 4, 7]}, "uniqueid": "MTK1908:3GDTJDAPVVIJ17XMT7ZHN7X0SVQM87", "dateTime": 1516556852460}, {"current_trial": 106, "trialdata": {"rt": -1, "trial_type": "single-stim", "stimulus": "<p id=\"stim\">10</p>", "internal_node_id": "0.0-79.0-0.0", "time_elapsed": 613100, "key_press": -1, "trial_index": 106}, "uniqueid": "MTK1908:3GDTJDAPVVIJ17XMT7ZHN7X0SVQM87", "dateTime": 1516556855486}, {"current_trial": 107, "trialdata": {"rt": -1, "trial_type": "single-stim", "stimulus": "<p id=\"stim\">9</p>", "internal_node_id": "0.0-79.0-1.0", "time_elapsed": 614090, "key_press": -1, "trial_index": 107}, "uniqueid": "MTK1908:3GDTJDAPVVIJ17XMT7ZHN7X0SVQM87", "dateTime": 1516556856476}, {"current_trial": 108, "trialdata": {"rt": -1, "trial_type": "single-stim", "stimulus": "<p id=\"stim\">8</p>", "internal_node_id": "0.0-79.0-2.0", "time_elapsed": 615094, "key_press": -1, "trial_index": 108}, "uniqueid": "MTK1908:3GDTJDAPVVIJ17XMT7ZHN7X0SVQM87", "dateTime": 1516556857480}, {"current_trial": 109, "trialdata": {"rt": -1, "trial_type": "single-stim", "stimulus": "<p id=\"stim\">7</p>", "internal_node_id": "0.0-79.0-3.0", "time_elapsed": 616100, "key_press": -1, "trial_index": 109}, "uniqueid": "MTK1908:3GDTJDAPVVIJ17XMT7ZHN7X0SVQM87", "dateTime": 1516556858486}, {"current_trial": 110, "trialdata": {"rt": -1, "trial_type": "single-stim", "stimulus": "<p id=\"stim\">6</p>", "internal_node_id": "0.0-79.0-4.0", "time_elapsed": 617088, "key_press": -1, "trial_index": 110}, "uniqueid": "MTK1908:3GDTJDAPVVIJ17XMT7ZHN7X0SVQM87", "dateTime": 1516556859474}, {"current_trial": 111, "trialdata": {"rt": -1, "trial_type": "single-stim", "stimulus": "<p id=\"stim\">5</p>", "internal_node_id": "0.0-79.0-5.0", "time_elapsed": 618095, "key_press": -1, "trial_index": 111}, "uniqueid": "MTK1908:3GDTJDAPVVIJ17XMT7ZHN7X0SVQM87", "dateTime": 1516556860481}, {"current_trial": 112, "trialdata": {"rt": -1, "trial_type": "single-stim", "stimulus": "<p id=\"stim\">4</p>", "internal_node_id": "0.0-79.0-6.0", "time_elapsed": 619099, "key_press": -1, "trial_index": 112}, "uniqueid": "MTK1908:3GDTJDAPVVIJ17XMT7ZHN7X0SVQM87", "dateTime": 1516556861485}, {"current_trial": 113, "trialdata": {"rt": -1, "trial_type": "single-stim", "stimulus": "<p id=\"stim\">3</p>", "internal_node_id": "0.0-79.0-7.0", "time_elapsed": 620094, "key_press": -1, "trial_index": 113}, "uniqueid": "MTK1908:3GDTJDAPVVIJ17XMT7ZHN7X0SVQM87", "dateTime": 1516556862481}, {"current_trial": 114, "trialdata": {"rt": -1, "trial_type": "single-stim", "stimulus": "<p id=\"stim\">2</p>", "internal_node_id": "0.0-79.0-8.0", "time_elapsed": 621094, "key_press": -1, "trial_index": 114}, "uniqueid": "MTK1908:3GDTJDAPVVIJ17XMT7ZHN7X0SVQM87", "dateTime": 1516556863480}, {"current_trial": 115, "trialdata": {"rt": -1, "trial_type": "single-stim", "stimulus": "<p id=\"stim\">1</p>", "internal_node_id": "0.0-79.0-9.0", "time_elapsed": 622102, "key_press": -1, "trial_index": 115}, "uniqueid": "MTK1908:3GDTJDAPVVIJ17XMT7ZHN7X0SVQM87", "dateTime": 1516556864488}, {"current_trial": 116, "trialdata": {"rt": -1, "trial_type": "single-stim", "stimulus": "<p id=\"stim\">+</p>", "internal_node_id": "0.0-80.0-0.0", "time_elapsed": 623605, "key_press": -1, "type": "FIXATION", "trial_index": 116}, "uniqueid": "MTK1908:3GDTJDAPVVIJ17XMT7ZHN7X0SVQM87", "dateTime": 1516556865991}, {"current_trial": 117, "trialdata": {"rt": -1, "trial_type": "single-stim", "word": "diner", "stimulus": "<p id=\"stim\">DINER</p>", "conditions": [12, 800, "v", 24000], "internal_node_id": "0.0-81.0", "trial": 3, "time_elapsed": 624415, "serialpos": 0, "key_press": -1, "wordID": 466, "type": "PRES_VIS", "trial_index": 117}, "uniqueid": "MTK1908:3GDTJDAPVVIJ17XMT7ZHN7X0SVQM87", "dateTime": 1516556866801}, {"current_trial": 118, "trialdata": {"rt": -1, "trial_type": "single-stim", "word": "sandwich", "stimulus": "<p id=\"stim\">SANDWICH</p>", "conditions": [12, 800, "v", 24000], "internal_node_id": "0.0-82.0", "trial": 3, "time_elapsed": 626291, "serialpos": 1, "key_press": -1, "wordID": 1231, "type": "PRES_VIS", "trial_index": 118}, "uniqueid": "MTK1908:3GDTJDAPVVIJ17XMT7ZHN7X0SVQM87", "dateTime": 1516556868678}, {"current_trial": 119, "trialdata": {"rt": -1, "trial_type": "single-stim", "word": "denim", "stimulus": "<p id=\"stim\">DENIM</p>", "conditions": [12, 800, "v", 24000], "internal_node_id": "0.0-83.0", "trial": 3, "time_elapsed": 628260, "serialpos": 2, "key_press": -1, "wordID": 445, "type": "PRES_VIS", "trial_index": 119}, "uniqueid": "MTK1908:3GDTJDAPVVIJ17XMT7ZHN7X0SVQM87", "dateTime": 1516556870646}, {"current_trial": 120, "trialdata": {"rt": -1, "trial_type": "single-stim", "word": "omelet", "stimulus": "<p id=\"stim\">OMELET</p>", "conditions": [12, 800, "v", 24000], "internal_node_id": "0.0-84.0", "trial": 3, "time_elapsed": 630076, "serialpos": 3, "key_press": -1, "wordID": 975, "type": "PRES_VIS", "trial_index": 120}, "uniqueid": "MTK1908:3GDTJDAPVVIJ17XMT7ZHN7X0SVQM87", "dateTime": 1516556872462}, {"current_trial": 121, "trialdata": {"rt": -1, "trial_type": "single-stim", "word": "chipmunk", "stimulus": "<p id=\"stim\">CHIPMUNK</p>", "conditions": [12, 800, "v", 24000], "internal_node_id": "0.0-85.0", "trial": 3, "time_elapsed": 631912, "serialpos": 4, "key_press": -1, "wordID": 303, "type": "PRES_VIS", "trial_index": 121}, "uniqueid": "MTK1908:3GDTJDAPVVIJ17XMT7ZHN7X0SVQM87", "dateTime": 1516556874299}, {"current_trial": 122, "trialdata": {"rt": -1, "trial_type": "single-stim", "word": "clam", "stimulus": "<p id=\"stim\">CLAM</p>", "conditions": [12, 800, "v", 24000], "internal_node_id": "0.0-86.0", "trial": 3, "time_elapsed": 633883, "serialpos": 5, "key_press": -1, "wordID": 314, "type": "PRES_VIS", "trial_index": 122}, "uniqueid": "MTK1908:3GDTJDAPVVIJ17XMT7ZHN7X0SVQM87", "dateTime": 1516556876269}, {"current_trial": 123, "trialdata": {"rt": -1, "trial_type": "single-stim", "word": "wrench", "stimulus": "<p id=\"stim\">WRENCH</p>", "conditions": [12, 800, "v", 24000], "internal_node_id": "0.0-87.0", "trial": 3, "time_elapsed": 635759, "serialpos": 6, "key_press": -1, "wordID": 1624, "type": "PRES_VIS", "trial_index": 123}, "uniqueid": "MTK1908:3GDTJDAPVVIJ17XMT7ZHN7X0SVQM87", "dateTime": 1516556878145}, {"current_trial": 124, "trialdata": {"rt": -1, "trial_type": "single-stim", "word": "lace", "stimulus": "<p id=\"stim\">LACE</p>", "conditions": [12, 800, "v", 24000], "internal_node_id": "0.0-88.0", "trial": 3, "time_elapsed": 637428, "serialpos": 7, "key_press": -1, "wordID": 791, "type": "PRES_VIS", "trial_index": 124}, "uniqueid": "MTK1908:3GDTJDAPVVIJ17XMT7ZHN7X0SVQM87", "dateTime": 1516556879814}, {"current_trial": 125, "trialdata": {"rt": -1, "trial_type": "single-stim", "word": "doughnut", "stimulus": "<p id=\"stim\">DOUGHNUT</p>", "conditions": [12, 800, "v", 24000], "internal_node_id": "0.0-89.0", "trial": 3, "time_elapsed": 639263, "serialpos": 8, "key_press": -1, "wordID": 489, "type": "PRES_VIS", "trial_index": 125}, "uniqueid": "MTK1908:3GDTJDAPVVIJ17XMT7ZHN7X0SVQM87", "dateTime": 1516556881649}, {"current_trial": 126, "trialdata": {"rt": -1, "trial_type": "single-stim", "word": "binder", "stimulus": "<p id=\"stim\">BINDER</p>", "conditions": [12, 800, "v", 24000], "internal_node_id": "0.0-90.0", "trial": 3, "time_elapsed": 640951, "serialpos": 9, "key_press": -1, "wordID": 126, "type": "PRES_VIS", "trial_index": 126}, "uniqueid": "MTK1908:3GDTJDAPVVIJ17XMT7ZHN7X0SVQM87", "dateTime": 1516556883337}, {"current_trial": 127, "trialdata": {"rt": -1, "trial_type": "single-stim", "word": "pudding", "stimulus": "<p id=\"stim\">PUDDING</p>", "conditions": [12, 800, "v", 24000], "internal_node_id": "0.0-91.0", "trial": 3, "time_elapsed": 642685, "serialpos": 10, "key_press": -1, "wordID": 1138, "type": "PRES_VIS", "trial_index": 127}, "uniqueid": "MTK1908:3GDTJDAPVVIJ17XMT7ZHN7X0SVQM87", "dateTime": 1516556885071}, {"current_trial": 128, "trialdata": {"rt": -1, "trial_type": "single-stim", "word": "dress", "stimulus": "<p id=\"stim\">DRESS</p>", "conditions": [12, 800, "v", 24000], "internal_node_id": "0.0-92.0", "trial": 3, "time_elapsed": 644357, "serialpos": 11, "key_press": -1, "wordID": 494, "type": "PRES_VIS", "trial_index": 128}, "uniqueid": "MTK1908:3GDTJDAPVVIJ17XMT7ZHN7X0SVQM87", "dateTime": 1516556886743}, {"current_trial": 129, "trialdata": {"rt": -1, "trial_type": "single-stim", "stimulus": "", "internal_node_id": "0.0-93.0-0.0", "time_elapsed": 646604, "key_press": -1, "type": "PRE_RECALL_DELAY", "trial_index": 129}, "uniqueid": "MTK1908:3GDTJDAPVVIJ17XMT7ZHN7X0SVQM87", "dateTime": 1516556888990}, {"current_trial": 130, "trialdata": {"rt": -1000, "trial_type": "single-audio", "stimulus": "/static/audio/400Hz.wav", "internal_node_id": "0.0-94.0", "time_elapsed": 647114, "key_press": -1, "type": "PRE_RECALL_ALERT", "trial_index": 130}, "uniqueid": "MTK1908:3GDTJDAPVVIJ17XMT7ZHN7X0SVQM87", "dateTime": 1516556889500}, {"current_trial": 131, "trialdata": {"rt": [2915, 5411, 11753, 16611, 21238, 32195], "recwords": ["denim", "diner", "sandwich", "pudding", "dress", "omelet"], "key_times": [1091, 1275, 1684, 1915, 2099, 2915, 4091, 4379, 4499, 4723, 4931, 5411, 6155, 6379, 6539, 6675, 7132, 7381, 9084, 9211, 11753, 14552, 14771, 15067, 15211, 15371, 15533, 15787, 16611, 19540, 19739, 19859, 20203, 20348, 21238, 28587, 28835, 30075, 30451, 30595, 30915, 32195], "trial_type": "free-recall", "conditions": [12, 800, "v", 24000], "internal_node_id": "0.0-95.0-0.0", "key_presses": [68, 69, 78, 73, 77, 188, 68, 73, 78, 69, 82, 188, 83, 65, 78, 68, 87, 73, 67, 72, 188, 80, 85, 68, 68, 73, 78, 71, 188, 68, 82, 69, 83, 83, 188, 79, 77, 69, 76, 69, 84, 188], "trial": 3, "time_elapsed": 707122, "type": "FREE_RECALL", "trial_index": 131}, "uniqueid": "MTK1908:3GDTJDAPVVIJ17XMT7ZHN7X0SVQM87", "dateTime": 1516556949510}, {"current_trial": 132, "trialdata": {"rt": 1759, "trial_type": "text", "internal_node_id": "0.0-96.0", "time_elapsed": 710896, "key_press": 32, "type": "INSTRUCTIONS", "trial_index": 132}, "uniqueid": "MTK1908:3GDTJDAPVVIJ17XMT7ZHN7X0SVQM87", "dateTime": 1516556953282}, {"current_trial": 133, "trialdata": {"rt": [2046, 4031, 5703, 7350, 9430, 11758], "trial_type": "math-distractor", "key_times": [1614, 1782, 2046, 3606, 3814, 4031, 5433, 5703, 6966, 7167, 7350, 9119, 9318, 9430, 11351, 11560, 11758], "responses": ["19", "16", "9", "14", "20", "24"], "num2": [5, 1, 5, 4, 5, 9, 8], "num3": [9, 9, 1, 4, 8, 6, 7], "conditions": [12, 800, "v", 12000], "internal_node_id": "0.0-97.0", "key_presses": [97, 105, 13, 97, 102, 13, 105, 13, 97, 100, 13, 98, 96, 13, 98, 100, 13], "trial": 4, "time_elapsed": 724916, "type": "DISTRACTOR", "trial_index": 133, "num1": [5, 6, 3, 6, 7, 9, 5]}, "uniqueid": "MTK1908:3GDTJDAPVVIJ17XMT7ZHN7X0SVQM87", "dateTime": 1516556967303}, {"current_trial": 134, "trialdata": {"rt": -1, "trial_type": "single-stim", "stimulus": "<p id=\"stim\">10</p>", "internal_node_id": "0.0-98.0-0.0", "time_elapsed": 727952, "key_press": -1, "trial_index": 134}, "uniqueid": "MTK1908:3GDTJDAPVVIJ17XMT7ZHN7X0SVQM87", "dateTime": 1516556970339}, {"current_trial": 135, "trialdata": {"rt": -1, "trial_type": "single-stim", "stimulus": "<p id=\"stim\">9</p>", "internal_node_id": "0.0-98.0-1.0", "time_elapsed": 728953, "key_press": -1, "trial_index": 135}, "uniqueid": "MTK1908:3GDTJDAPVVIJ17XMT7ZHN7X0SVQM87", "dateTime": 1516556971339}, {"current_trial": 136, "trialdata": {"rt": -1, "trial_type": "single-stim", "stimulus": "<p id=\"stim\">8</p>", "internal_node_id": "0.0-98.0-2.0", "time_elapsed": 729942, "key_press": -1, "trial_index": 136}, "uniqueid": "MTK1908:3GDTJDAPVVIJ17XMT7ZHN7X0SVQM87", "dateTime": 1516556972329}, {"current_trial": 137, "trialdata": {"rt": -1, "trial_type": "single-stim", "stimulus": "<p id=\"stim\">7</p>", "internal_node_id": "0.0-98.0-3.0", "time_elapsed": 730948, "key_press": -1, "trial_index": 137}, "uniqueid": "MTK1908:3GDTJDAPVVIJ17XMT7ZHN7X0SVQM87", "dateTime": 1516556973334}, {"current_trial": 138, "trialdata": {"rt": -1, "trial_type": "single-stim", "stimulus": "<p id=\"stim\">6</p>", "internal_node_id": "0.0-98.0-4.0", "time_elapsed": 731942, "key_press": -1, "trial_index": 138}, "uniqueid": "MTK1908:3GDTJDAPVVIJ17XMT7ZHN7X0SVQM87", "dateTime": 1516556974329}, {"current_trial": 139, "trialdata": {"rt": -1, "trial_type": "single-stim", "stimulus": "<p id=\"stim\">5</p>", "internal_node_id": "0.0-98.0-5.0", "time_elapsed": 732943, "key_press": -1, "trial_index": 139}, "uniqueid": "MTK1908:3GDTJDAPVVIJ17XMT7ZHN7X0SVQM87", "dateTime": 1516556975329}, {"current_trial": 140, "trialdata": {"rt": -1, "trial_type": "single-stim", "stimulus": "<p id=\"stim\">4</p>", "internal_node_id": "0.0-98.0-6.0", "time_elapsed": 733953, "key_press": -1, "trial_index": 140}, "uniqueid": "MTK1908:3GDTJDAPVVIJ17XMT7ZHN7X0SVQM87", "dateTime": 1516556976340}, {"current_trial": 141, "trialdata": {"rt": -1, "trial_type": "single-stim", "stimulus": "<p id=\"stim\">3</p>", "internal_node_id": "0.0-98.0-7.0", "time_elapsed": 734965, "key_press": -1, "trial_index": 141}, "uniqueid": "MTK1908:3GDTJDAPVVIJ17XMT7ZHN7X0SVQM87", "dateTime": 1516556977351}, {"current_trial": 142, "trialdata": {"rt": -1, "trial_type": "single-stim", "stimulus": "<p id=\"stim\">2</p>", "internal_node_id": "0.0-98.0-8.0", "time_elapsed": 735944, "key_press": -1, "trial_index": 142}, "uniqueid": "MTK1908:3GDTJDAPVVIJ17XMT7ZHN7X0SVQM87", "dateTime": 1516556978330}, {"current_trial": 143, "trialdata": {"rt": -1, "trial_type": "single-stim", "stimulus": "<p id=\"stim\">1</p>", "internal_node_id": "0.0-98.0-9.0", "time_elapsed": 736951, "key_press": -1, "trial_index": 143}, "uniqueid": "MTK1908:3GDTJDAPVVIJ17XMT7ZHN7X0SVQM87", "dateTime": 1516556979337}, {"current_trial": 144, "trialdata": {"rt": -1, "trial_type": "single-stim", "stimulus": "<p id=\"stim\">+</p>", "internal_node_id": "0.0-99.0-0.0", "time_elapsed": 738455, "key_press": -1, "type": "FIXATION", "trial_index": 144}, "uniqueid": "MTK1908:3GDTJDAPVVIJ17XMT7ZHN7X0SVQM87", "dateTime": 1516556980841}, {"current_trial": 145, "trialdata": {"rt": -1, "trial_type": "single-stim", "word": "nurse", "stimulus": "<p id=\"stim\">NURSE</p>", "conditions": [12, 800, "v", 12000], "internal_node_id": "0.0-100.0", "trial": 4, "time_elapsed": 739270, "serialpos": 0, "key_press": -1, "wordID": 962, "type": "PRES_VIS", "trial_index": 145}, "uniqueid": "MTK1908:3GDTJDAPVVIJ17XMT7ZHN7X0SVQM87", "dateTime": 1516556981657}, {"current_trial": 146, "trialdata": {"rt": -1, "trial_type": "single-stim", "word": "pistol", "stimulus": "<p id=\"stim\">PISTOL</p>", "conditions": [12, 800, "v", 12000], "internal_node_id": "0.0-101.0", "trial": 4, "time_elapsed": 741205, "serialpos": 1, "key_press": -1, "wordID": 1074, "type": "PRES_VIS", "trial_index": 146}, "uniqueid": "MTK1908:3GDTJDAPVVIJ17XMT7ZHN7X0SVQM87", "dateTime": 1516556983591}, {"current_trial": 147, "trialdata": {"rt": -1, "trial_type": "single-stim", "word": "rooster", "stimulus": "<p id=\"stim\">ROOSTER</p>", "conditions": [12, 800, "v", 12000], "internal_node_id": "0.0-102.0", "trial": 4, "time_elapsed": 742874, "serialpos": 2, "key_press": -1, "wordID": 1208, "type": "PRES_VIS", "trial_index": 147}, "uniqueid": "MTK1908:3GDTJDAPVVIJ17XMT7ZHN7X0SVQM87", "dateTime": 1516556985260}, {"current_trial": 148, "trialdata": {"rt": -1, "trial_type": "single-stim", "word": "country", "stimulus": "<p id=\"stim\">COUNTRY</p>", "conditions": [12, 800, "v", 12000], "internal_node_id": "0.0-103.0", "trial": 4, "time_elapsed": 744797, "serialpos": 3, "key_press": -1, "wordID": 387, "type": "PRES_VIS", "trial_index": 148}, "uniqueid": "MTK1908:3GDTJDAPVVIJ17XMT7ZHN7X0SVQM87", "dateTime": 1516556987183}, {"current_trial": 149, "trialdata": {"rt": -1, "trial_type": "single-stim", "word": "guard", "stimulus": "<p id=\"stim\">GUARD</p>", "conditions": [12, 800, "v", 12000], "internal_node_id": "0.0-104.0", "trial": 4, "time_elapsed": 746432, "serialpos": 4, "key_press": -1, "wordID": 666, "type": "PRES_VIS", "trial_index": 149}, "uniqueid": "MTK1908:3GDTJDAPVVIJ17XMT7ZHN7X0SVQM87", "dateTime": 1516556988818}, {"current_trial": 150, "trialdata": {"rt": -1, "trial_type": "single-stim", "word": "spouse", "stimulus": "<p id=\"stim\">SPOUSE</p>", "conditions": [12, 800, "v", 12000], "internal_node_id": "0.0-105.0", "trial": 4, "time_elapsed": 748135, "serialpos": 5, "key_press": -1, "wordID": 1357, "type": "PRES_VIS", "trial_index": 150}, "uniqueid": "MTK1908:3GDTJDAPVVIJ17XMT7ZHN7X0SVQM87", "dateTime": 1516556990522}, {"current_trial": 151, "trialdata": {"rt": -1, "trial_type": "single-stim", "word": "patient", "stimulus": "<p id=\"stim\">PATIENT</p>", "conditions": [12, 800, "v", 12000], "internal_node_id": "0.0-106.0", "trial": 4, "time_elapsed": 749901, "serialpos": 6, "key_press": -1, "wordID": 1023, "type": "PRES_VIS", "trial_index": 151}, "uniqueid": "MTK1908:3GDTJDAPVVIJ17XMT7ZHN7X0SVQM87", "dateTime": 1516556992287}, {"current_trial": 152, "trialdata": {"rt": -1, "trial_type": "single-stim", "word": "pecan", "stimulus": "<p id=\"stim\">PECAN</p>", "conditions": [12, 800, "v", 12000], "internal_node_id": "0.0-107.0", "trial": 4, "time_elapsed": 751845, "serialpos": 7, "key_press": -1, "wordID": 1035, "type": "PRES_VIS", "trial_index": 152}, "uniqueid": "MTK1908:3GDTJDAPVVIJ17XMT7ZHN7X0SVQM87", "dateTime": 1516556994231}, {"current_trial": 153, "trialdata": {"rt": -1, "trial_type": "single-stim", "word": "grape", "stimulus": "<p id=\"stim\">GRAPE</p>", "conditions": [12, 800, "v", 12000], "internal_node_id": "0.0-108.0", "trial": 4, "time_elapsed": 753727, "serialpos": 8, "key_press": -1, "wordID": 653, "type": "PRES_VIS", "trial_index": 153}, "uniqueid": "MTK1908:3GDTJDAPVVIJ17XMT7ZHN7X0SVQM87", "dateTime": 1516556996113}, {"current_trial": 154, "trialdata": {"rt": -1, "trial_type": "single-stim", "word": "church", "stimulus": "<p id=\"stim\">CHURCH</p>", "conditions": [12, 800, "v", 12000], "internal_node_id": "0.0-109.0", "trial": 4, "time_elapsed": 755416, "serialpos": 9, "key_press": -1, "wordID": 306, "type": "PRES_VIS", "trial_index": 154}, "uniqueid": "MTK1908:3GDTJDAPVVIJ17XMT7ZHN7X0SVQM87", "dateTime": 1516556997802}, {"current_trial": 155, "trialdata": {"rt": -1, "trial_type": "single-stim", "word": "skillet", "stimulus": "<p id=\"stim\">SKILLET</p>", "conditions": [12, 800, "v", 12000], "internal_node_id": "0.0-110.0", "trial": 4, "time_elapsed": 757167, "serialpos": 10, "key_press": -1, "wordID": 1316, "type": "PRES_VIS", "trial_index": 155}, "uniqueid": "MTK1908:3GDTJDAPVVIJ17XMT7ZHN7X0SVQM87", "dateTime": 1516556999553}, {"current_trial": 156, "trialdata": {"rt": -1, "trial_type": "single-stim", "word": "blender", "stimulus": "<p id=\"stim\">BLENDER</p>", "conditions": [12, 800, "v", 12000], "internal_node_id": "0.0-111.0", "trial": 4, "time_elapsed": 759091, "serialpos": 11, "key_press": -1, "wordID": 135, "type": "PRES_VIS", "trial_index": 156}, "uniqueid": "MTK1908:3GDTJDAPVVIJ17XMT7ZHN7X0SVQM87", "dateTime": 1516557001478}, {"current_trial": 157, "trialdata": {"rt": -1, "trial_type": "single-stim", "stimulus": "", "internal_node_id": "0.0-112.0-0.0", "time_elapsed": 761349, "key_press": -1, "type": "PRE_RECALL_DELAY", "trial_index": 157}, "uniqueid": "MTK1908:3GDTJDAPVVIJ17XMT7ZHN7X0SVQM87", "dateTime": 1516557003735}, {"current_trial": 158, "trialdata": {"rt": -1000, "trial_type": "single-audio", "stimulus": "/static/audio/400Hz.wav", "internal_node_id": "0.0-113.0", "time_elapsed": 761854, "key_press": -1, "type": "PRE_RECALL_ALERT", "trial_index": 158}, "uniqueid": "MTK1908:3GDTJDAPVVIJ17XMT7ZHN7X0SVQM87", "dateTime": 1516557004240}, {"current_trial": 159, "trialdata": {"rt": [2737, 7949, 14601, 26977, 42593], "recwords": ["nurse", "patient", "pistol", "skillet", "pecan"], "key_times": [681, 897, 1208, 1480, 1688, 2737, 3608, 3832, 3848, 4009, 4416, 4589, 5718, 6184, 6376, 6488, 6788, 7949, 9136, 9282, 9601, 9931, 10497, 10816, 11360, 11544, 11688, 11840, 12213, 12944, 13080, 13344, 13874, 14048, 14601, 24558, 24746, 24992, 25264, 25424, 25585, 25745, 26977, 40320, 40537, 41090, 41233, 41504, 42593], "trial_type": "free-recall", "conditions": [12, 800, "v", 12000], "internal_node_id": "0.0-114.0-0.0", "key_presses": [78, 85, 82, 83, 69, 188, 80, 65, 83, 84, 8, 8, 84, 73, 69, 78, 84, 188, 80, 83, 73, 84, 79, 76, 8, 8, 8, 8, 8, 73, 83, 84, 79, 76, 188, 83, 75, 73, 76, 76, 69, 84, 188, 80, 69, 67, 65, 78, 188], "trial": 4, "time_elapsed": 821872, "type": "FREE_RECALL", "trial_index": 159}, "uniqueid": "MTK1908:3GDTJDAPVVIJ17XMT7ZHN7X0SVQM87", "dateTime": 1516557064261}, {"current_trial": 160, "trialdata": {"rt": 377, "trial_type": "text", "internal_node_id": "0.0-115.0", "time_elapsed": 824260, "key_press": 32, "type": "INSTRUCTIONS", "trial_index": 160}, "uniqueid": "MTK1908:3GDTJDAPVVIJ17XMT7ZHN7X0SVQM87", "dateTime": 1516557066646}, {"current_trial": 161, "trialdata": {"rt": [2246, 5319, 7358, 9422, 11566, 13646, 16878, 18454, 20647], "trial_type": "math-distractor", "key_times": [1703, 1854, 2246, 4850, 5038, 5319, 7022, 7158, 7358, 9062, 9238, 9422, 11094, 11342, 11566, 13259, 13462, 13646, 16535, 16710, 16878, 18136, 18298, 18454, 20182, 20414, 20647], "responses": ["16", "23", "16", "13", "18", "14", "25", "11", "18"], "num2": [8, 9, 3, 6, 3, 7, 9, 1, 1, 8], "num3": [5, 7, 5, 5, 7, 1, 9, 5, 8, 2], "conditions": [12, 1600, "v", 24000], "internal_node_id": "0.0-116.0", "key_presses": [97, 102, 13, 98, 99, 13, 97, 102, 13, 97, 99, 13, 97, 104, 13, 97, 100, 13, 98, 101, 13, 97, 97, 13, 97, 104, 13], "trial": 5, "time_elapsed": 850283, "type": "DISTRACTOR", "trial_index": 161, "num1": [3, 7, 8, 2, 8, 6, 7, 5, 9, 4]}, "uniqueid": "MTK1908:3GDTJDAPVVIJ17XMT7ZHN7X0SVQM87", "dateTime": 1516557092669}, {"current_trial": 162, "trialdata": {"rt": -1, "trial_type": "single-stim", "stimulus": "<p id=\"stim\">10</p>", "internal_node_id": "0.0-117.0-0.0", "time_elapsed": 853302, "key_press": -1, "trial_index": 162}, "uniqueid": "MTK1908:3GDTJDAPVVIJ17XMT7ZHN7X0SVQM87", "dateTime": 1516557095689}, {"current_trial": 163, "trialdata": {"rt": -1, "trial_type": "single-stim", "stimulus": "<p id=\"stim\">9</p>", "internal_node_id": "0.0-117.0-1.0", "time_elapsed": 854303, "key_press": -1, "trial_index": 163}, "uniqueid": "MTK1908:3GDTJDAPVVIJ17XMT7ZHN7X0SVQM87", "dateTime": 1516557096689}, {"current_trial": 164, "trialdata": {"rt": -1, "trial_type": "single-stim", "stimulus": "<p id=\"stim\">8</p>", "internal_node_id": "0.0-117.0-2.0", "time_elapsed": 855296, "key_press": -1, "trial_index": 164}, "uniqueid": "MTK1908:3GDTJDAPVVIJ17XMT7ZHN7X0SVQM87", "dateTime": 1516557097683}, {"current_trial": 165, "trialdata": {"rt": -1, "trial_type": "single-stim", "stimulus": "<p id=\"stim\">7</p>", "internal_node_id": "0.0-117.0-3.0", "time_elapsed": 856301, "key_press": -1, "trial_index": 165}, "uniqueid": "MTK1908:3GDTJDAPVVIJ17XMT7ZHN7X0SVQM87", "dateTime": 1516557098687}, {"current_trial": 166, "trialdata": {"rt": -1, "trial_type": "single-stim", "stimulus": "<p id=\"stim\">6</p>", "internal_node_id": "0.0-117.0-4.0", "time_elapsed": 857291, "key_press": -1, "trial_index": 166}, "uniqueid": "MTK1908:3GDTJDAPVVIJ17XMT7ZHN7X0SVQM87", "dateTime": 1516557099677}, {"current_trial": 167, "trialdata": {"rt": -1, "trial_type": "single-stim", "stimulus": "<p id=\"stim\">5</p>", "internal_node_id": "0.0-117.0-5.0", "time_elapsed": 858295, "key_press": -1, "trial_index": 167}, "uniqueid": "MTK1908:3GDTJDAPVVIJ17XMT7ZHN7X0SVQM87", "dateTime": 1516557100681}, {"current_trial": 168, "trialdata": {"rt": -1, "trial_type": "single-stim", "stimulus": "<p id=\"stim\">4</p>", "internal_node_id": "0.0-117.0-6.0", "time_elapsed": 859301, "key_press": -1, "trial_index": 168}, "uniqueid": "MTK1908:3GDTJDAPVVIJ17XMT7ZHN7X0SVQM87", "dateTime": 1516557101687}, {"current_trial": 169, "trialdata": {"rt": -1, "trial_type": "single-stim", "stimulus": "<p id=\"stim\">3</p>", "internal_node_id": "0.0-117.0-7.0", "time_elapsed": 860296, "key_press": -1, "trial_index": 169}, "uniqueid": "MTK1908:3GDTJDAPVVIJ17XMT7ZHN7X0SVQM87", "dateTime": 1516557102682}, {"current_trial": 170, "trialdata": {"rt": -1, "trial_type": "single-stim", "stimulus": "<p id=\"stim\">2</p>", "internal_node_id": "0.0-117.0-8.0", "time_elapsed": 861313, "key_press": -1, "trial_index": 170}, "uniqueid": "MTK1908:3GDTJDAPVVIJ17XMT7ZHN7X0SVQM87", "dateTime": 1516557103699}, {"current_trial": 171, "trialdata": {"rt": -1, "trial_type": "single-stim", "stimulus": "<p id=\"stim\">1</p>", "internal_node_id": "0.0-117.0-9.0", "time_elapsed": 862302, "key_press": -1, "trial_index": 171}, "uniqueid": "MTK1908:3GDTJDAPVVIJ17XMT7ZHN7X0SVQM87", "dateTime": 1516557104689}, {"current_trial": 172, "trialdata": {"rt": -1, "trial_type": "single-stim", "stimulus": "<p id=\"stim\">+</p>", "internal_node_id": "0.0-118.0-0.0", "time_elapsed": 863808, "key_press": -1, "type": "FIXATION", "trial_index": 172}, "uniqueid": "MTK1908:3GDTJDAPVVIJ17XMT7ZHN7X0SVQM87", "dateTime": 1516557106194}, {"current_trial": 173, "trialdata": {"rt": -1, "trial_type": "single-stim", "word": "heart", "stimulus": "<p id=\"stim\">HEART</p>", "conditions": [12, 1600, "v", 24000], "internal_node_id": "0.0-119.0", "trial": 5, "time_elapsed": 865419, "serialpos": 0, "key_press": -1, "wordID": 696, "type": "PRES_VIS", "trial_index": 173}, "uniqueid": "MTK1908:3GDTJDAPVVIJ17XMT7ZHN7X0SVQM87", "dateTime": 1516557107806}, {"current_trial": 174, "trialdata": {"rt": -1, "trial_type": "single-stim", "word": "yarn", "stimulus": "<p id=\"stim\">YARN</p>", "conditions": [12, 1600, "v", 24000], "internal_node_id": "0.0-120.0", "trial": 5, "time_elapsed": 867909, "serialpos": 1, "key_press": -1, "wordID": 1630, "type": "PRES_VIS", "trial_index": 174}, "uniqueid": "MTK1908:3GDTJDAPVVIJ17XMT7ZHN7X0SVQM87", "dateTime": 1516557110295}, {"current_trial": 175, "trialdata": {"rt": -1, "trial_type": "single-stim", "word": "sculpture", "stimulus": "<p id=\"stim\">SCULPTURE</p>", "conditions": [12, 1600, "v", 24000], "internal_node_id": "0.0-121.0", "trial": 5, "time_elapsed": 870598, "serialpos": 2, "key_press": -1, "wordID": 1257, "type": "PRES_VIS", "trial_index": 175}, "uniqueid": "MTK1908:3GDTJDAPVVIJ17XMT7ZHN7X0SVQM87", "dateTime": 1516557112985}, {"current_trial": 176, "trialdata": {"rt": -1, "trial_type": "single-stim", "word": "drink", "stimulus": "<p id=\"stim\">DRINK</p>", "conditions": [12, 1600, "v", 24000], "internal_node_id": "0.0-122.0", "trial": 5, "time_elapsed": 873335, "serialpos": 3, "key_press": -1, "wordID": 497, "type": "PRES_VIS", "trial_index": 176}, "uniqueid": "MTK1908:3GDTJDAPVVIJ17XMT7ZHN7X0SVQM87", "dateTime": 1516557115722}, {"current_trial": 177, "trialdata": {"rt": -1, "trial_type": "single-stim", "word": "pork", "stimulus": "<p id=\"stim\">PORK</p>", "conditions": [12, 1600, "v", 24000], "internal_node_id": "0.0-123.0", "trial": 5, "time_elapsed": 875907, "serialpos": 4, "key_press": -1, "wordID": 1107, "type": "PRES_VIS", "trial_index": 177}, "uniqueid": "MTK1908:3GDTJDAPVVIJ17XMT7ZHN7X0SVQM87", "dateTime": 1516557118293}, {"current_trial": 178, "trialdata": {"rt": -1, "trial_type": "single-stim", "word": "garlic", "stimulus": "<p id=\"stim\">GARLIC</p>", "conditions": [12, 1600, "v", 24000], "internal_node_id": "0.0-124.0", "trial": 5, "time_elapsed": 878645, "serialpos": 5, "key_press": -1, "wordID": 623, "type": "PRES_VIS", "trial_index": 178}, "uniqueid": "MTK1908:3GDTJDAPVVIJ17XMT7ZHN7X0SVQM87", "dateTime": 1516557121031}, {"current_trial": 179, "trialdata": {"rt": -1, "trial_type": "single-stim", "word": "forehead", "stimulus": "<p id=\"stim\">FOREHEAD</p>", "conditions": [12, 1600, "v", 24000], "internal_node_id": "0.0-125.0", "trial": 5, "time_elapsed": 881434, "serialpos": 6, "key_press": -1, "wordID": 591, "type": "PRES_VIS", "trial_index": 179}, "uniqueid": "MTK1908:3GDTJDAPVVIJ17XMT7ZHN7X0SVQM87", "dateTime": 1516557123820}, {"current_trial": 180, "trialdata": {"rt": -1, "trial_type": "single-stim", "word": "patrol", "stimulus": "<p id=\"stim\">PATROL</p>", "conditions": [12, 1600, "v", 24000], "internal_node_id": "0.0-126.0", "trial": 5, "time_elapsed": 883873, "serialpos": 7, "key_press": -1, "wordID": 1026, "type": "PRES_VIS", "trial_index": 180}, "uniqueid": "MTK1908:3GDTJDAPVVIJ17XMT7ZHN7X0SVQM87", "dateTime": 1516557126259}, {"current_trial": 181, "trialdata": {"rt": -1, "trial_type": "single-stim", "word": "stomach", "stimulus": "<p id=\"stim\">STOMACH</p>", "conditions": [12, 1600, "v", 24000], "internal_node_id": "0.0-127.0", "trial": 5, "time_elapsed": 886442, "serialpos": 8, "key_press": -1, "wordID": 1383, "type": "PRES_VIS", "trial_index": 181}, "uniqueid": "MTK1908:3GDTJDAPVVIJ17XMT7ZHN7X0SVQM87", "dateTime": 1516557128828}, {"current_trial": 182, "trialdata": {"rt": -1, "trial_type": "single-stim", "word": "chest", "stimulus": "<p id=\"stim\">CHEST</p>", "conditions": [12, 1600, "v", 24000], "internal_node_id": "0.0-128.0", "trial": 5, "time_elapsed": 889068, "serialpos": 9, "key_press": -1, "wordID": 294, "type": "PRES_VIS", "trial_index": 182}, "uniqueid": "MTK1908:3GDTJDAPVVIJ17XMT7ZHN7X0SVQM87", "dateTime": 1516557131454}, {"current_trial": 183, "trialdata": {"rt": -1, "trial_type": "single-stim", "word": "stone", "stimulus": "<p id=\"stim\">STONE</p>", "conditions": [12, 1600, "v", 24000], "internal_node_id": "0.0-129.0", "trial": 5, "time_elapsed": 891553, "serialpos": 10, "key_press": -1, "wordID": 1384, "type": "PRES_VIS", "trial_index": 183}, "uniqueid": "MTK1908:3GDTJDAPVVIJ17XMT7ZHN7X0SVQM87", "dateTime": 1516557133939}, {"current_trial": 184, "trialdata": {"rt": -1, "trial_type": "single-stim", "word": "soda", "stimulus": "<p id=\"stim\">SODA</p>", "conditions": [12, 1600, "v", 24000], "internal_node_id": "0.0-130.0", "trial": 5, "time_elapsed": 894305, "serialpos": 11, "key_press": -1, "wordID": 1340, "type": "PRES_VIS", "trial_index": 184}, "uniqueid": "MTK1908:3GDTJDAPVVIJ17XMT7ZHN7X0SVQM87", "dateTime": 1516557136691}, {"current_trial": 185, "trialdata": {"rt": -1, "trial_type": "single-stim", "stimulus": "", "internal_node_id": "0.0-131.0-0.0", "time_elapsed": 896480, "key_press": -1, "type": "PRE_RECALL_DELAY", "trial_index": 185}, "uniqueid": "MTK1908:3GDTJDAPVVIJ17XMT7ZHN7X0SVQM87", "dateTime": 1516557138866}, {"current_trial": 186, "trialdata": {"rt": -1000, "trial_type": "single-audio", "stimulus": "/static/audio/400Hz.wav", "internal_node_id": "0.0-132.0", "time_elapsed": 896988, "key_press": -1, "type": "PRE_RECALL_ALERT", "trial_index": 186}, "uniqueid": "MTK1908:3GDTJDAPVVIJ17XMT7ZHN7X0SVQM87", "dateTime": 1516557139374}, {"current_trial": 187, "trialdata": {"rt": [5234, 9377, 14273, 16893, 19129, 23322, 28642], "recwords": ["heart", "stomach", "chest", "stone", "pork", "garlic", "yarn"], "key_times": [738, 1185, 2275, 2402, 2617, 3650, 4785, 5234, 6230, 6353, 7057, 7257, 7421, 7705, 8129, 9377, 10324, 11283, 11562, 11865, 12898, 13171, 13387, 14273, 14946, 15161, 15609, 15825, 15929, 16893, 17321, 17457, 17777, 18145, 19129, 19554, 20074, 20257, 20865, 21092, 21466, 23322, 24225, 24458, 24817, 25707, 28642], "trial_type": "free-recall", "conditions": [12, 1600, "v", 24000], "internal_node_id": "0.0-133.0-0.0", "key_presses": [72, 69, 65, 82, 84, 190, 8, 188, 83, 84, 79, 77, 65, 67, 72, 188, 83, 8, 67, 72, 69, 83, 84, 188, 83, 84, 79, 78, 69, 188, 80, 79, 82, 75, 188, 71, 65, 82, 76, 73, 67, 188, 89, 65, 82, 78, 188], "trial": 5, "time_elapsed": 956993, "type": "FREE_RECALL", "trial_index": 187}, "uniqueid": "MTK1908:3GDTJDAPVVIJ17XMT7ZHN7X0SVQM87", "dateTime": 1516557199382}, {"current_trial": 188, "trialdata": {"rt": 994, "trial_type": "text", "internal_node_id": "0.0-134.0", "time_elapsed": 960000, "key_press": 32, "type": "INSTRUCTIONS", "trial_index": 188}, "uniqueid": "MTK1908:3GDTJDAPVVIJ17XMT7ZHN7X0SVQM87", "dateTime": 1516557202387}, {"current_trial": 189, "trialdata": {"rt": [2455, 5831, 8495, 10472], "trial_type": "math-distractor", "key_times": [1952, 2175, 2455, 5607, 5831, 7984, 8210, 8495, 10040, 10263, 10472], "responses": ["18", "6", "24", "10"], "num2": [9, 3, 9, 3, 8], "num3": [6, 2, 8, 2, 9], "conditions": [12, 1600, "v", 12000], "internal_node_id": "0.0-135.0", "key_presses": [97, 104, 13, 102, 13, 98, 100, 13, 97, 96, 13], "trial": 6, "time_elapsed": 974042, "type": "DISTRACTOR", "trial_index": 189, "num1": [3, 1, 7, 5, 4]}, "uniqueid": "MTK1908:3GDTJDAPVVIJ17XMT7ZHN7X0SVQM87", "dateTime": 1516557216428}, {"current_trial": 190, "trialdata": {"rt": -1, "trial_type": "single-stim", "stimulus": "<p id=\"stim\">10</p>", "internal_node_id": "0.0-136.0-0.0", "time_elapsed": 977070, "key_press": -1, "trial_index": 190}, "uniqueid": "MTK1908:3GDTJDAPVVIJ17XMT7ZHN7X0SVQM87", "dateTime": 1516557219456}, {"current_trial": 191, "trialdata": {"rt": -1, "trial_type": "single-stim", "stimulus": "<p id=\"stim\">9</p>", "internal_node_id": "0.0-136.0-1.0", "time_elapsed": 978056, "key_press": -1, "trial_index": 191}, "uniqueid": "MTK1908:3GDTJDAPVVIJ17XMT7ZHN7X0SVQM87", "dateTime": 1516557220442}, {"current_trial": 192, "trialdata": {"rt": -1, "trial_type": "single-stim", "stimulus": "<p id=\"stim\">8</p>", "internal_node_id": "0.0-136.0-2.0", "time_elapsed": 979062, "key_press": -1, "trial_index": 192}, "uniqueid": "MTK1908:3GDTJDAPVVIJ17XMT7ZHN7X0SVQM87", "dateTime": 1516557221448}, {"current_trial": 193, "trialdata": {"rt": -1, "trial_type": "single-stim", "stimulus": "<p id=\"stim\">7</p>", "internal_node_id": "0.0-136.0-3.0", "time_elapsed": 980066, "key_press": -1, "trial_index": 193}, "uniqueid": "MTK1908:3GDTJDAPVVIJ17XMT7ZHN7X0SVQM87", "dateTime": 1516557222452}, {"current_trial": 194, "trialdata": {"rt": -1, "trial_type": "single-stim", "stimulus": "<p id=\"stim\">6</p>", "internal_node_id": "0.0-136.0-4.0", "time_elapsed": 981057, "key_press": -1, "trial_index": 194}, "uniqueid": "MTK1908:3GDTJDAPVVIJ17XMT7ZHN7X0SVQM87", "dateTime": 1516557223443}, {"current_trial": 195, "trialdata": {"rt": -1, "trial_type": "single-stim", "stimulus": "<p id=\"stim\">5</p>", "internal_node_id": "0.0-136.0-5.0", "time_elapsed": 982061, "key_press": -1, "trial_index": 195}, "uniqueid": "MTK1908:3GDTJDAPVVIJ17XMT7ZHN7X0SVQM87", "dateTime": 1516557224448}, {"current_trial": 196, "trialdata": {"rt": -1, "trial_type": "single-stim", "stimulus": "<p id=\"stim\">4</p>", "internal_node_id": "0.0-136.0-6.0", "time_elapsed": 983070, "key_press": -1, "trial_index": 196}, "uniqueid": "MTK1908:3GDTJDAPVVIJ17XMT7ZHN7X0SVQM87", "dateTime": 1516557225456}, {"current_trial": 197, "trialdata": {"rt": -1, "trial_type": "single-stim", "stimulus": "<p id=\"stim\">3</p>", "internal_node_id": "0.0-136.0-7.0", "time_elapsed": 984061, "key_press": -1, "trial_index": 197}, "uniqueid": "MTK1908:3GDTJDAPVVIJ17XMT7ZHN7X0SVQM87", "dateTime": 1516557226447}, {"current_trial": 198, "trialdata": {"rt": -1, "trial_type": "single-stim", "stimulus": "<p id=\"stim\">2</p>", "internal_node_id": "0.0-136.0-8.0", "time_elapsed": 985080, "key_press": -1, "trial_index": 198}, "uniqueid": "MTK1908:3GDTJDAPVVIJ17XMT7ZHN7X0SVQM87", "dateTime": 1516557227466}, {"current_trial": 199, "trialdata": {"rt": -1, "trial_type": "single-stim", "stimulus": "<p id=\"stim\">1</p>", "internal_node_id": "0.0-136.0-9.0", "time_elapsed": 986060, "key_press": -1, "trial_index": 199}, "uniqueid": "MTK1908:3GDTJDAPVVIJ17XMT7ZHN7X0SVQM87", "dateTime": 1516557228446}, {"current_trial": 200, "trialdata": {"rt": -1, "trial_type": "single-stim", "stimulus": "<p id=\"stim\">+</p>", "internal_node_id": "0.0-137.0-0.0", "time_elapsed": 987573, "key_press": -1, "type": "FIXATION", "trial_index": 200}, "uniqueid": "MTK1908:3GDTJDAPVVIJ17XMT7ZHN7X0SVQM87", "dateTime": 1516557229959}, {"current_trial": 201, "trialdata": {"rt": -1, "trial_type": "single-stim", "word": "transplant", "stimulus": "<p id=\"stim\">TRANSPLANT</p>", "conditions": [12, 1600, "v", 12000], "internal_node_id": "0.0-138.0", "trial": 6, "time_elapsed": 989184, "serialpos": 0, "key_press": -1, "wordID": 1495, "type": "PRES_VIS", "trial_index": 201}, "uniqueid": "MTK1908:3GDTJDAPVVIJ17XMT7ZHN7X0SVQM87", "dateTime": 1516557231571}, {"current_trial": 202, "trialdata": {"rt": -1, "trial_type": "single-stim", "word": "keeper", "stimulus": "<p id=\"stim\">KEEPER</p>", "conditions": [12, 1600, "v", 12000], "internal_node_id": "0.0-139.0", "trial": 6, "time_elapsed": 991860, "serialpos": 1, "key_press": -1, "wordID": 768, "type": "PRES_VIS", "trial_index": 202}, "uniqueid": "MTK1908:3GDTJDAPVVIJ17XMT7ZHN7X0SVQM87", "dateTime": 1516557234246}, {"current_trial": 203, "trialdata": {"rt": -1, "trial_type": "single-stim", "word": "velvet", "stimulus": "<p id=\"stim\">VELVET</p>", "conditions": [12, 1600, "v", 12000], "internal_node_id": "0.0-140.0", "trial": 6, "time_elapsed": 994518, "serialpos": 2, "key_press": -1, "wordID": 1554, "type": "PRES_VIS", "trial_index": 203}, "uniqueid": "MTK1908:3GDTJDAPVVIJ17XMT7ZHN7X0SVQM87", "dateTime": 1516557236904}, {"current_trial": 204, "trialdata": {"rt": -1, "trial_type": "single-stim", "word": "barrel", "stimulus": "<p id=\"stim\">BARREL</p>", "conditions": [12, 1600, "v", 12000], "internal_node_id": "0.0-141.0", "trial": 6, "time_elapsed": 997285, "serialpos": 3, "key_press": -1, "wordID": 90, "type": "PRES_VIS", "trial_index": 204}, "uniqueid": "MTK1908:3GDTJDAPVVIJ17XMT7ZHN7X0SVQM87", "dateTime": 1516557239671}, {"current_trial": 205, "trialdata": {"rt": -1, "trial_type": "single-stim", "word": "saddle", "stimulus": "<p id=\"stim\">SADDLE</p>", "conditions": [12, 1600, "v", 12000], "internal_node_id": "0.0-142.0", "trial": 6, "time_elapsed": 999757, "serialpos": 4, "key_press": -1, "wordID": 1220, "type": "PRES_VIS", "trial_index": 205}, "uniqueid": "MTK1908:3GDTJDAPVVIJ17XMT7ZHN7X0SVQM87", "dateTime": 1516557242143}, {"current_trial": 206, "trialdata": {"rt": -1, "trial_type": "single-stim", "word": "lunch", "stimulus": "<p id=\"stim\">LUNCH</p>", "conditions": [12, 1600, "v", 12000], "internal_node_id": "0.0-143.0", "trial": 6, "time_elapsed": 1002197, "serialpos": 5, "key_press": -1, "wordID": 848, "type": "PRES_VIS", "trial_index": 206}, "uniqueid": "MTK1908:3GDTJDAPVVIJ17XMT7ZHN7X0SVQM87", "dateTime": 1516557244584}, {"current_trial": 207, "trialdata": {"rt": -1, "trial_type": "single-stim", "word": "actor", "stimulus": "<p id=\"stim\">ACTOR</p>", "conditions": [12, 1600, "v", 12000], "internal_node_id": "0.0-144.0", "trial": 6, "time_elapsed": 1004756, "serialpos": 6, "key_press": -1, "wordID": 4, "type": "PRES_VIS", "trial_index": 207}, "uniqueid": "MTK1908:3GDTJDAPVVIJ17XMT7ZHN7X0SVQM87", "dateTime": 1516557247142}, {"current_trial": 208, "trialdata": {"rt": -1, "trial_type": "single-stim", "word": "maple", "stimulus": "<p id=\"stim\">MAPLE</p>", "conditions": [12, 1600, "v", 12000], "internal_node_id": "0.0-145.0", "trial": 6, "time_elapsed": 1007489, "serialpos": 7, "key_press": -1, "wordID": 865, "type": "PRES_VIS", "trial_index": 208}, "uniqueid": "MTK1908:3GDTJDAPVVIJ17XMT7ZHN7X0SVQM87", "dateTime": 1516557249875}, {"current_trial": 209, "trialdata": {"rt": -1, "trial_type": "single-stim", "word": "statue", "stimulus": "<p id=\"stim\">STATUE</p>", "conditions": [12, 1600, "v", 12000], "internal_node_id": "0.0-146.0", "trial": 6, "time_elapsed": 1009943, "serialpos": 8, "key_press": -1, "wordID": 1373, "type": "PRES_VIS", "trial_index": 209}, "uniqueid": "MTK1908:3GDTJDAPVVIJ17XMT7ZHN7X0SVQM87", "dateTime": 1516557252330}, {"current_trial": 210, "trialdata": {"rt": -1, "trial_type": "single-stim", "word": "tombstone", "stimulus": "<p id=\"stim\">TOMBSTONE</p>", "conditions": [12, 1600, "v", 12000], "internal_node_id": "0.0-147.0", "trial": 6, "time_elapsed": 1012649, "serialpos": 9, "key_press": -1, "wordID": 1477, "type": "PRES_VIS", "trial_index": 210}, "uniqueid": "MTK1908:3GDTJDAPVVIJ17XMT7ZHN7X0SVQM87", "dateTime": 1516557255035}, {"current_trial": 211, "trialdata": {"rt": -1, "trial_type": "single-stim", "word": "film", "stimulus": "<p id=\"stim\">FILM</p>", "conditions": [12, 1600, "v", 12000], "internal_node_id": "0.0-148.0", "trial": 6, "time_elapsed": 1015071, "serialpos": 10, "key_press": -1, "wordID": 564, "type": "PRES_VIS", "trial_index": 211}, "uniqueid": "MTK1908:3GDTJDAPVVIJ17XMT7ZHN7X0SVQM87", "dateTime": 1516557257458}, {"current_trial": 212, "trialdata": {"rt": -1, "trial_type": "single-stim", "word": "globe", "stimulus": "<p id=\"stim\">GLOBE</p>", "conditions": [12, 1600, "v", 12000], "internal_node_id": "0.0-149.0", "trial": 6, "time_elapsed": 1017677, "serialpos": 11, "key_press": -1, "wordID": 640, "type": "PRES_VIS", "trial_index": 212}, "uniqueid": "MTK1908:3GDTJDAPVVIJ17XMT7ZHN7X0SVQM87", "dateTime": 1516557260063}, {"current_trial": 213, "trialdata": {"rt": -1, "trial_type": "single-stim", "stimulus": "", "internal_node_id": "0.0-150.0-0.0", "time_elapsed": 1019987, "key_press": -1, "type": "PRE_RECALL_DELAY", "trial_index": 213}, "uniqueid": "MTK1908:3GDTJDAPVVIJ17XMT7ZHN7X0SVQM87", "dateTime": 1516557262373}, {"current_trial": 214, "trialdata": {"rt": -1000, "trial_type": "single-audio", "stimulus": "/static/audio/400Hz.wav", "internal_node_id": "0.0-151.0", "time_elapsed": 1020491, "key_press": -1, "type": "PRE_RECALL_ALERT", "trial_index": 214}, "uniqueid": "MTK1908:3GDTJDAPVVIJ17XMT7ZHN7X0SVQM87", "dateTime": 1516557262878}, {"current_trial": 215, "trialdata": {"rt": [4930, 9011, 12691, 20781, 38883, 54826], "recwords": ["transplant", "keeper", "film", "tombstone", "globe", "film"], "key_times": [564, 738, 931, 1394, 2189, 2663, 2794, 3546, 3666, 3826, 4002, 4300, 4930, 5499, 5786, 6066, 6420, 6683, 6882, 9011, 9901, 10091, 10323, 10635, 12691, 13178, 13708, 13994, 15515, 15755, 16026, 16162, 16514, 16690, 16834, 17396, 17581, 17715, 17882, 18754, 19026, 19314, 20781, 36731, 37027, 37202, 37594, 37850, 38883, 53282, 53458, 53658, 53850, 54826], "trial_type": "free-recall", "conditions": [12, 1600, "v", 12000], "internal_node_id": "0.0-152.0-0.0", "key_presses": [84, 82, 65, 66, 8, 78, 83, 80, 76, 65, 78, 84, 188, 75, 69, 69, 80, 69, 82, 188, 70, 73, 76, 77, 188, 84, 79, 77, 66, 83, 84, 65, 79, 78, 69, 8, 8, 8, 8, 79, 78, 69, 188, 71, 76, 79, 66, 69, 188, 70, 73, 76, 77, 188], "trial": 6, "time_elapsed": 1080500, "type": "FREE_RECALL", "trial_index": 215}, "uniqueid": "MTK1908:3GDTJDAPVVIJ17XMT7ZHN7X0SVQM87", "dateTime": 1516557322890}, {"current_trial": 216, "trialdata": {"rt": 296, "trial_type": "text", "internal_node_id": "0.0-153.0", "time_elapsed": 1082815, "key_press": 32, "type": "INSTRUCTIONS", "trial_index": 216}, "uniqueid": "MTK1908:3GDTJDAPVVIJ17XMT7ZHN7X0SVQM87", "dateTime": 1516557325202}, {"current_trial": 217, "trialdata": {"rt": [2731, 4748, 7483, 9820, 12428, 14220, 16827, 20307], "trial_type": "math-distractor", "key_times": [1871, 2095, 2731, 4244, 4499, 4748, 7108, 7309, 7483, 9439, 9651, 9820, 12179, 12428, 13763, 13979, 14220, 16404, 16603, 16827, 18980, 20037, 20307, 23469, 23709], "responses": ["23", "17", "12", "10", "8", "15", "15", "23"], "num2": [7, 8, 1, 5, 1, 7, 8, 9, 6], "num3": [9, 6, 3, 3, 2, 1, 4, 8, 9], "conditions": [12, 1600, "v", 24000], "internal_node_id": "0.0-154.0", "key_presses": [98, 99, 13, 97, 103, 13, 97, 98, 13, 97, 96, 13, 104, 13, 97, 101, 13, 97, 101, 13, 98, 99, 13, 98, 97], "trial": 7, "time_elapsed": 1108834, "type": "DISTRACTOR", "trial_index": 217, "num1": [7, 3, 8, 2, 5, 7, 3, 4, 6]}, "uniqueid": "MTK1908:3GDTJDAPVVIJ17XMT7ZHN7X0SVQM87", "dateTime": 1516557351221}, {"current_trial": 218, "trialdata": {"rt": -1, "trial_type": "single-stim", "stimulus": "<p id=\"stim\">10</p>", "internal_node_id": "0.0-155.0-0.0", "time_elapsed": 1111854, "key_press": -1, "trial_index": 218}, "uniqueid": "MTK1908:3GDTJDAPVVIJ17XMT7ZHN7X0SVQM87", "dateTime": 1516557354241}, {"current_trial": 219, "trialdata": {"rt": -1, "trial_type": "single-stim", "stimulus": "<p id=\"stim\">9</p>", "internal_node_id": "0.0-155.0-1.0", "time_elapsed": 1112857, "key_press": -1, "trial_index": 219}, "uniqueid": "MTK1908:3GDTJDAPVVIJ17XMT7ZHN7X0SVQM87", "dateTime": 1516557355243}, {"current_trial": 220, "trialdata": {"rt": -1, "trial_type": "single-stim", "stimulus": "<p id=\"stim\">8</p>", "internal_node_id": "0.0-155.0-2.0", "time_elapsed": 1113847, "key_press": -1, "trial_index": 220}, "uniqueid": "MTK1908:3GDTJDAPVVIJ17XMT7ZHN7X0SVQM87", "dateTime": 1516557356233}, {"current_trial": 221, "trialdata": {"rt": -1, "trial_type": "single-stim", "stimulus": "<p id=\"stim\">7</p>", "internal_node_id": "0.0-155.0-3.0", "time_elapsed": 1114856, "key_press": -1, "trial_index": 221}, "uniqueid": "MTK1908:3GDTJDAPVVIJ17XMT7ZHN7X0SVQM87", "dateTime": 1516557357242}, {"current_trial": 222, "trialdata": {"rt": -1, "trial_type": "single-stim", "stimulus": "<p id=\"stim\">6</p>", "internal_node_id": "0.0-155.0-4.0", "time_elapsed": 1115846, "key_press": -1, "trial_index": 222}, "uniqueid": "MTK1908:3GDTJDAPVVIJ17XMT7ZHN7X0SVQM87", "dateTime": 1516557358232}, {"current_trial": 223, "trialdata": {"rt": -1, "trial_type": "single-stim", "stimulus": "<p id=\"stim\">5</p>", "internal_node_id": "0.0-155.0-5.0", "time_elapsed": 1116848, "key_press": -1, "trial_index": 223}, "uniqueid": "MTK1908:3GDTJDAPVVIJ17XMT7ZHN7X0SVQM87", "dateTime": 1516557359234}, {"current_trial": 224, "trialdata": {"rt": -1, "trial_type": "single-stim", "stimulus": "<p id=\"stim\">4</p>", "internal_node_id": "0.0-155.0-6.0", "time_elapsed": 1117856, "key_press": -1, "trial_index": 224}, "uniqueid": "MTK1908:3GDTJDAPVVIJ17XMT7ZHN7X0SVQM87", "dateTime": 1516557360242}, {"current_trial": 225, "trialdata": {"rt": -1, "trial_type": "single-stim", "stimulus": "<p id=\"stim\">3</p>", "internal_node_id": "0.0-155.0-7.0", "time_elapsed": 1118849, "key_press": -1, "trial_index": 225}, "uniqueid": "MTK1908:3GDTJDAPVVIJ17XMT7ZHN7X0SVQM87", "dateTime": 1516557361235}, {"current_trial": 226, "trialdata": {"rt": -1, "trial_type": "single-stim", "stimulus": "<p id=\"stim\">2</p>", "internal_node_id": "0.0-155.0-8.0", "time_elapsed": 1119866, "key_press": -1, "trial_index": 226}, "uniqueid": "MTK1908:3GDTJDAPVVIJ17XMT7ZHN7X0SVQM87", "dateTime": 1516557362252}, {"current_trial": 227, "trialdata": {"rt": -1, "trial_type": "single-stim", "stimulus": "<p id=\"stim\">1</p>", "internal_node_id": "0.0-155.0-9.0", "time_elapsed": 1120855, "key_press": -1, "trial_index": 227}, "uniqueid": "MTK1908:3GDTJDAPVVIJ17XMT7ZHN7X0SVQM87", "dateTime": 1516557363241}, {"current_trial": 228, "trialdata": {"rt": -1, "trial_type": "single-stim", "stimulus": "<p id=\"stim\">+</p>", "internal_node_id": "0.0-156.0-0.0", "time_elapsed": 1122360, "key_press": -1, "type": "FIXATION", "trial_index": 228}, "uniqueid": "MTK1908:3GDTJDAPVVIJ17XMT7ZHN7X0SVQM87", "dateTime": 1516557364746}, {"current_trial": 229, "trialdata": {"rt": -1, "trial_type": "single-stim", "word": "hostess", "stimulus": "<p id=\"stim\">HOSTESS</p>", "conditions": [12, 1600, "v", 24000], "internal_node_id": "0.0-157.0", "trial": 7, "time_elapsed": 1123973, "serialpos": 0, "key_press": -1, "wordID": 722, "type": "PRES_VIS", "trial_index": 229}, "uniqueid": "MTK1908:3GDTJDAPVVIJ17XMT7ZHN7X0SVQM87", "dateTime": 1516557366360}, {"current_trial": 230, "trialdata": {"rt": -1, "trial_type": "single-stim", "word": "banquet", "stimulus": "<p id=\"stim\">BANQUET</p>", "conditions": [12, 1600, "v", 24000], "internal_node_id": "0.0-158.0", "trial": 7, "time_elapsed": 1126729, "serialpos": 1, "key_press": -1, "wordID": 85, "type": "PRES_VIS", "trial_index": 230}, "uniqueid": "MTK1908:3GDTJDAPVVIJ17XMT7ZHN7X0SVQM87", "dateTime": 1516557369115}, {"current_trial": 231, "trialdata": {"rt": -1, "trial_type": "single-stim", "word": "orange", "stimulus": "<p id=\"stim\">ORANGE</p>", "conditions": [12, 1600, "v", 24000], "internal_node_id": "0.0-159.0", "trial": 7, "time_elapsed": 1129167, "serialpos": 2, "key_press": -1, "wordID": 979, "type": "PRES_VIS", "trial_index": 231}, "uniqueid": "MTK1908:3GDTJDAPVVIJ17XMT7ZHN7X0SVQM87", "dateTime": 1516557371553}, {"current_trial": 232, "trialdata": {"rt": -1, "trial_type": "single-stim", "word": "waiter", "stimulus": "<p id=\"stim\">WAITER</p>", "conditions": [12, 1600, "v", 24000], "internal_node_id": "0.0-160.0", "trial": 7, "time_elapsed": 1131638, "serialpos": 3, "key_press": -1, "wordID": 1579, "type": "PRES_VIS", "trial_index": 232}, "uniqueid": "MTK1908:3GDTJDAPVVIJ17XMT7ZHN7X0SVQM87", "dateTime": 1516557374024}, {"current_trial": 233, "trialdata": {"rt": -1, "trial_type": "single-stim", "word": "branch", "stimulus": "<p id=\"stim\">BRANCH</p>", "conditions": [12, 1600, "v", 24000], "internal_node_id": "0.0-161.0", "trial": 7, "time_elapsed": 1134144, "serialpos": 4, "key_press": -1, "wordID": 167, "type": "PRES_VIS", "trial_index": 233}, "uniqueid": "MTK1908:3GDTJDAPVVIJ17XMT7ZHN7X0SVQM87", "dateTime": 1516557376530}, {"current_trial": 234, "trialdata": {"rt": -1, "trial_type": "single-stim", "word": "hornet", "stimulus": "<p id=\"stim\">HORNET</p>", "conditions": [12, 1600, "v", 24000], "internal_node_id": "0.0-162.0", "trial": 7, "time_elapsed": 1136882, "serialpos": 5, "key_press": -1, "wordID": 717, "type": "PRES_VIS", "trial_index": 234}, "uniqueid": "MTK1908:3GDTJDAPVVIJ17XMT7ZHN7X0SVQM87", "dateTime": 1516557379269}, {"current_trial": 235, "trialdata": {"rt": -1, "trial_type": "single-stim", "word": "harp", "stimulus": "<p id=\"stim\">HARP</p>", "conditions": [12, 1600, "v", 24000], "internal_node_id": "0.0-163.0", "trial": 7, "time_elapsed": 1139419, "serialpos": 6, "key_press": -1, "wordID": 688, "type": "PRES_VIS", "trial_index": 235}, "uniqueid": "MTK1908:3GDTJDAPVVIJ17XMT7ZHN7X0SVQM87", "dateTime": 1516557381805}, {"current_trial": 236, "trialdata": {"rt": -1, "trial_type": "single-stim", "word": "fiddle", "stimulus": "<p id=\"stim\">FIDDLE</p>", "conditions": [12, 1600, "v", 24000], "internal_node_id": "0.0-164.0", "trial": 7, "time_elapsed": 1142113, "serialpos": 7, "key_press": -1, "wordID": 560, "type": "PRES_VIS", "trial_index": 236}, "uniqueid": "MTK1908:3GDTJDAPVVIJ17XMT7ZHN7X0SVQM87", "dateTime": 1516557384499}, {"current_trial": 237, "trialdata": {"rt": -1, "trial_type": "single-stim", "word": "bank", "stimulus": "<p id=\"stim\">BANK</p>", "conditions": [12, 1600, "v", 24000], "internal_node_id": "0.0-165.0", "trial": 7, "time_elapsed": 1144728, "serialpos": 8, "key_press": -1, "wordID": 82, "type": "PRES_VIS", "trial_index": 237}, "uniqueid": "MTK1908:3GDTJDAPVVIJ17XMT7ZHN7X0SVQM87", "dateTime": 1516557387114}, {"current_trial": 238, "trialdata": {"rt": -1, "trial_type": "single-stim", "word": "cocoon", "stimulus": "<p id=\"stim\">COCOON</p>", "conditions": [12, 1600, "v", 24000], "internal_node_id": "0.0-166.0", "trial": 7, "time_elapsed": 1147387, "serialpos": 9, "key_press": -1, "wordID": 338, "type": "PRES_VIS", "trial_index": 238}, "uniqueid": "MTK1908:3GDTJDAPVVIJ17XMT7ZHN7X0SVQM87", "dateTime": 1516557389773}, {"current_trial": 239, "trialdata": {"rt": -1, "trial_type": "single-stim", "word": "novel", "stimulus": "<p id=\"stim\">NOVEL</p>", "conditions": [12, 1600, "v", 24000], "internal_node_id": "0.0-167.0", "trial": 7, "time_elapsed": 1149995, "serialpos": 10, "key_press": -1, "wordID": 959, "type": "PRES_VIS", "trial_index": 239}, "uniqueid": "MTK1908:3GDTJDAPVVIJ17XMT7ZHN7X0SVQM87", "dateTime": 1516557392381}, {"current_trial": 240, "trialdata": {"rt": -1, "trial_type": "single-stim", "word": "viking", "stimulus": "<p id=\"stim\">VIKING</p>", "conditions": [12, 1600, "v", 24000], "internal_node_id": "0.0-168.0", "trial": 7, "time_elapsed": 1152778, "serialpos": 11, "key_press": -1, "wordID": 1564, "type": "PRES_VIS", "trial_index": 240}, "uniqueid": "MTK1908:3GDTJDAPVVIJ17XMT7ZHN7X0SVQM87", "dateTime": 1516557395164}, {"current_trial": 241, "trialdata": {"rt": -1, "trial_type": "single-stim", "stimulus": "", "internal_node_id": "0.0-169.0-0.0", "time_elapsed": 1155166, "key_press": -1, "type": "PRE_RECALL_DELAY", "trial_index": 241}, "uniqueid": "MTK1908:3GDTJDAPVVIJ17XMT7ZHN7X0SVQM87", "dateTime": 1516557397553}, {"current_trial": 242, "trialdata": {"rt": -1000, "trial_type": "single-audio", "stimulus": "/static/audio/400Hz.wav", "internal_node_id": "0.0-170.0", "time_elapsed": 1155680, "key_press": -1, "type": "PRE_RECALL_ALERT", "trial_index": 242}, "uniqueid": "MTK1908:3GDTJDAPVVIJ17XMT7ZHN7X0SVQM87", "dateTime": 1516557398066}, {"current_trial": 243, "trialdata": {"rt": [2709, 6922, 11554, 14545, 14809, 17195, 19961, 20234, 28025, 30661, 35010], "recwords": ["viking", "novel", "cocoon", "branch", "", "harp", "fiddle", "", "banquet", "waiter", "hostess"], "key_times": [607, 834, 1089, 1321, 1484, 1754, 2709, 3865, 4410, 4802, 5066, 5490, 6922, 7739, 8042, 9306, 9873, 10069, 10377, 11554, 12332, 12697, 12843, 13145, 13450, 13693, 14545, 14809, 15098, 15209, 15449, 16098, 17195, 18025, 18313, 18589, 18761, 18897, 19026, 19961, 20234, 20499, 20610, 20786, 21653, 21906, 22234, 23042, 23449, 25183, 25337, 25546, 26721, 27009, 28025, 28859, 29099, 29218, 29506, 29673, 29882, 30661, 31442, 32033, 32249, 32529, 33105, 33522, 33729, 35010], "trial_type": "free-recall", "conditions": [12, 1600, "v", 24000], "internal_node_id": "0.0-171.0-0.0", "key_presses": [86, 73, 75, 73, 78, 71, 188, 78, 79, 86, 69, 76, 188, 67, 79, 67, 79, 79, 78, 188, 66, 82, 65, 78, 67, 72, 188, 32, 72, 65, 82, 80, 188, 70, 73, 68, 68, 76, 69, 188, 32, 66, 65, 78, 81, 85, 69, 78, 84, 8, 8, 8, 69, 84, 13, 87, 65, 73, 84, 69, 82, 188, 72, 79, 83, 84, 69, 83, 83, 188], "trial": 7, "time_elapsed": 1215696, "type": "FREE_RECALL", "trial_index": 243}, "uniqueid": "MTK1908:3GDTJDAPVVIJ17XMT7ZHN7X0SVQM87", "dateTime": 1516557458087}, {"current_trial": 244, "trialdata": {"rt": 411, "trial_type": "text", "internal_node_id": "0.0-172.0", "time_elapsed": 1218120, "key_press": 32, "type": "INSTRUCTIONS", "trial_index": 244}, "uniqueid": "MTK1908:3GDTJDAPVVIJ17XMT7ZHN7X0SVQM87", "dateTime": 1516557460507}, {"current_trial": 245, "trialdata": {"rt": [3005, 5349, 7033, 10628], "trial_type": "math-distractor", "key_times": [2685, 3005, 4781, 5046, 5349, 6477, 6764, 7033, 8692, 9729, 10133, 10324, 10628, 11917], "responses": ["9", "17", "17", "19"], "num2": [6, 8, 4, 6, 5], "num3": [1, 6, 7, 7, 1], "conditions": [12, 1600, "v", 12000], "internal_node_id": "0.0-173.0", "key_presses": [105, 13, 97, 103, 13, 97, 103, 13, 98, 8, 97, 105, 13, 97], "trial": 8, "time_elapsed": 1232146, "type": "DISTRACTOR", "trial_index": 245, "num1": [2, 3, 6, 6, 4]}, "uniqueid": "MTK1908:3GDTJDAPVVIJ17XMT7ZHN7X0SVQM87", "dateTime": 1516557474533}, {"current_trial": 246, "trialdata": {"rt": -1, "trial_type": "single-stim", "stimulus": "<p id=\"stim\">10</p>", "internal_node_id": "0.0-174.0-0.0", "time_elapsed": 1235169, "key_press": -1, "trial_index": 246}, "uniqueid": "MTK1908:3GDTJDAPVVIJ17XMT7ZHN7X0SVQM87", "dateTime": 1516557477556}, {"current_trial": 247, "trialdata": {"rt": -1, "trial_type": "single-stim", "stimulus": "<p id=\"stim\">9</p>", "internal_node_id": "0.0-174.0-1.0", "time_elapsed": 1236173, "key_press": -1, "trial_index": 247}, "uniqueid": "MTK1908:3GDTJDAPVVIJ17XMT7ZHN7X0SVQM87", "dateTime": 1516557478559}, {"current_trial": 248, "trialdata": {"rt": -1, "trial_type": "single-stim", "stimulus": "<p id=\"stim\">8</p>", "internal_node_id": "0.0-174.0-2.0", "time_elapsed": 1237163, "key_press": -1, "trial_index": 248}, "uniqueid": "MTK1908:3GDTJDAPVVIJ17XMT7ZHN7X0SVQM87", "dateTime": 1516557479549}, {"current_trial": 249, "trialdata": {"rt": -1, "trial_type": "single-stim", "stimulus": "<p id=\"stim\">7</p>", "internal_node_id": "0.0-174.0-3.0", "time_elapsed": 1238167, "key_press": -1, "trial_index": 249}, "uniqueid": "MTK1908:3GDTJDAPVVIJ17XMT7ZHN7X0SVQM87", "dateTime": 1516557480553}, {"current_trial": 250, "trialdata": {"rt": -1, "trial_type": "single-stim", "stimulus": "<p id=\"stim\">6</p>", "internal_node_id": "0.0-174.0-4.0", "time_elapsed": 1239160, "key_press": -1, "trial_index": 250}, "uniqueid": "MTK1908:3GDTJDAPVVIJ17XMT7ZHN7X0SVQM87", "dateTime": 1516557481546}, {"current_trial": 251, "trialdata": {"rt": -1, "trial_type": "single-stim", "stimulus": "<p id=\"stim\">5</p>", "internal_node_id": "0.0-174.0-5.0", "time_elapsed": 1240166, "key_press": -1, "trial_index": 251}, "uniqueid": "MTK1908:3GDTJDAPVVIJ17XMT7ZHN7X0SVQM87", "dateTime": 1516557482552}, {"current_trial": 252, "trialdata": {"rt": -1, "trial_type": "single-stim", "stimulus": "<p id=\"stim\">4</p>", "internal_node_id": "0.0-174.0-6.0", "time_elapsed": 1241172, "key_press": -1, "trial_index": 252}, "uniqueid": "MTK1908:3GDTJDAPVVIJ17XMT7ZHN7X0SVQM87", "dateTime": 1516557483558}, {"current_trial": 253, "trialdata": {"rt": -1, "trial_type": "single-stim", "stimulus": "<p id=\"stim\">3</p>", "internal_node_id": "0.0-174.0-7.0", "time_elapsed": 1242162, "key_press": -1, "trial_index": 253}, "uniqueid": "MTK1908:3GDTJDAPVVIJ17XMT7ZHN7X0SVQM87", "dateTime": 1516557484549}, {"current_trial": 254, "trialdata": {"rt": -1, "trial_type": "single-stim", "stimulus": "<p id=\"stim\">2</p>", "internal_node_id": "0.0-174.0-8.0", "time_elapsed": 1243164, "key_press": -1, "trial_index": 254}, "uniqueid": "MTK1908:3GDTJDAPVVIJ17XMT7ZHN7X0SVQM87", "dateTime": 1516557485550}, {"current_trial": 255, "trialdata": {"rt": -1, "trial_type": "single-stim", "stimulus": "<p id=\"stim\">1</p>", "internal_node_id": "0.0-174.0-9.0", "time_elapsed": 1244172, "key_press": -1, "trial_index": 255}, "uniqueid": "MTK1908:3GDTJDAPVVIJ17XMT7ZHN7X0SVQM87", "dateTime": 1516557486558}, {"current_trial": 256, "trialdata": {"rt": -1, "trial_type": "single-stim", "stimulus": "<p id=\"stim\">+</p>", "internal_node_id": "0.0-175.0-0.0", "time_elapsed": 1245676, "key_press": -1, "type": "FIXATION", "trial_index": 256}, "uniqueid": "MTK1908:3GDTJDAPVVIJ17XMT7ZHN7X0SVQM87", "dateTime": 1516557488063}, {"current_trial": 257, "trialdata": {"rt": -1, "trial_type": "single-stim", "