{"condition": 0, "counterbalance": 2489, "assignmentId": "32Q90QCQ1TS5KK7ALY81041IARIEKA", "workerId": "MTK1007", "hitId": "3MD8CKRQZZUXVK83ZHNN9C44UJEJRS", "currenttrial": 626, "bonus": 0, "data": [{"uniqueid": "MTK1007:32Q90QCQ1TS5KK7ALY81041IARIEKA", "current_trial": 0, "dateTime": 1512970276834, "trialdata": {"rt": 9089, "key_press": 70, "type": "INSTRUCTIONS", "trial_type": "text", "trial_index": 0, "time_elapsed": 9093, "internal_node_id": "0.0-0.0"}}, {"uniqueid": "MTK1007:32Q90QCQ1TS5KK7ALY81041IARIEKA", "current_trial": 1, "dateTime": 1512970307678, "trialdata": {"rt": 30837, "key_press": 70, "type": "INSTRUCTIONS", "trial_type": "text", "trial_index": 1, "time_elapsed": 39937, "internal_node_id": "0.0-1.0"}}, {"uniqueid": "MTK1007:32Q90QCQ1TS5KK7ALY81041IARIEKA", "current_trial": 2, "dateTime": 1512970324229, "trialdata": {"rt": [16438], "responses": ["ocean"], "type": "AUDIO_TEST", "trial_type": "audio-test", "trial_index": 2, "time_elapsed": 56489, "internal_node_id": "0.0-2.0"}}, {"uniqueid": "MTK1007:32Q90QCQ1TS5KK7ALY81041IARIEKA", "current_trial": 3, "dateTime": 1512970343862, "trialdata": {"rt": [19613], "responses": ["crystal"], "type": "AUDIO_TEST", "trial_type": "audio-test", "trial_index": 3, "time_elapsed": 76122, "internal_node_id": "0.0-3.0"}}, {"uniqueid": "MTK1007:32Q90QCQ1TS5KK7ALY81041IARIEKA", "current_trial": 4, "dateTime": 1512970355004, "trialdata": {"rt": [11124], "responses": ["spice"], "type": "AUDIO_TEST", "trial_type": "audio-test", "trial_index": 4, "time_elapsed": 87264, "internal_node_id": "0.0-4.0"}}, {"uniqueid": "MTK1007:32Q90QCQ1TS5KK7ALY81041IARIEKA", "current_trial": 5, "dateTime": 1512970391103, "trialdata": {"rt": 35344, "responses": "{\"Q0\":\"12:00\",\"Q1\":\"8:00\",\"Q2\":\"4\"}", "type": "SLEEP_SURVEY", "trial_type": "survey-text", "trial_index": 5, "time_elapsed": 123362, "internal_node_id": "0.0-5.0"}}, {"uniqueid": "MTK1007:32Q90QCQ1TS5KK7ALY81041IARIEKA", "current_trial": 6, "dateTime": 1512970448574, "trialdata": {"rt": 56466, "key_press": 68, "type": "INSTRUCTIONS", "trial_type": "text", "trial_index": 6, "time_elapsed": 180834, "internal_node_id": "0.0-6.0"}}, {"uniqueid": "MTK1007:32Q90QCQ1TS5KK7ALY81041IARIEKA", "current_trial": 7, "dateTime": 1512970471546, "trialdata": {"rt": 22468, "key_press": 67, "type": "INSTRUCTIONS", "trial_type": "text", "trial_index": 7, "time_elapsed": 203805, "internal_node_id": "0.0-7.0"}}, {"uniqueid": "MTK1007:32Q90QCQ1TS5KK7ALY81041IARIEKA", "current_trial": 8, "dateTime": 1512970482783, "trialdata": {"rt": 10732, "key_press": 67, "type": "INSTRUCTIONS", "trial_type": "text", "trial_index": 8, "time_elapsed": 215043, "internal_node_id": "0.0-8.0"}}, {"uniqueid": "MTK1007:32Q90QCQ1TS5KK7ALY81041IARIEKA", "current_trial": 9, "dateTime": 1512970501857, "trialdata": {"rt": [6922, 10682, 15414], "responses": ["14", "8", "17"], "num1": [5, 2, 9, 6], "num2": [4, 5, 3, 6], "num3": [5, 1, 5, 7], "type": "DISTRACTOR", "conditions": [18, 1200, "a", 18000], "trial": 0, "trial_type": "math-distractor", "trial_index": 9, "time_elapsed": 234117, "internal_node_id": "0.0-9.0"}}, {"uniqueid": "MTK1007:32Q90QCQ1TS5KK7ALY81041IARIEKA", "current_trial": 10, "dateTime": 1512970504865, "trialdata": {"rt": -1, "stimulus": "<p id=\"stim\">10</p>", "key_press": -1, "trial_type": "single-stim", "trial_index": 10, "time_elapsed": 237124, "internal_node_id": "0.0-10.0-0.0"}}, {"uniqueid": "MTK1007:32Q90QCQ1TS5KK7ALY81041IARIEKA", "current_trial": 11, "dateTime": 1512970505868, "trialdata": {"rt": -1, "stimulus": "<p id=\"stim\">9</p>", "key_press": -1, "trial_type": "single-stim", "trial_index": 11, "time_elapsed": 238128, "internal_node_id": "0.0-10.0-1.0"}}, {"uniqueid": "MTK1007:32Q90QCQ1TS5KK7ALY81041IARIEKA", "current_trial": 12, "dateTime": 1512970506872, "trialdata": {"rt": -1, "stimulus": "<p id=\"stim\">8</p>", "key_press": -1, "trial_type": "single-stim", "trial_index": 12, "time_elapsed": 239131, "internal_node_id": "0.0-10.0-2.0"}}, {"uniqueid": "MTK1007:32Q90QCQ1TS5KK7ALY81041IARIEKA", "current_trial": 13, "dateTime": 1512970507874, "trialdata": {"rt": -1, "stimulus": "<p id=\"stim\">7</p>", "key_press": -1, "trial_type": "single-stim", "trial_index": 13, "time_elapsed": 240134, "internal_node_id": "0.0-10.0-3.0"}}, {"uniqueid": "MTK1007:32Q90QCQ1TS5KK7ALY81041IARIEKA", "current_trial": 14, "dateTime": 1512970508879, "trialdata": {"rt": -1, "stimulus": "<p id=\"stim\">6</p>", "key_press": -1, "trial_type": "single-stim", "trial_index": 14, "time_elapsed": 241137, "internal_node_id": "0.0-10.0-4.0"}}, {"uniqueid": "MTK1007:32Q90QCQ1TS5KK7ALY81041IARIEKA", "current_trial": 15, "dateTime": 1512970509883, "trialdata": {"rt": -1, "stimulus": "<p id=\"stim\">5</p>", "key_press": -1, "trial_type": "single-stim", "trial_index": 15, "time_elapsed": 242143, "internal_node_id": "0.0-10.0-5.0"}}, {"uniqueid": "MTK1007:32Q90QCQ1TS5KK7ALY81041IARIEKA", "current_trial": 16, "dateTime": 1512970510884, "trialdata": {"rt": -1, "stimulus": "<p id=\"stim\">4</p>", "key_press": -1, "trial_type": "single-stim", "trial_index": 16, "time_elapsed": 243144, "internal_node_id": "0.0-10.0-6.0"}}, {"uniqueid": "MTK1007:32Q90QCQ1TS5KK7ALY81041IARIEKA", "current_trial": 17, "dateTime": 1512970511887, "trialdata": {"rt": -1, "stimulus": "<p id=\"stim\">3</p>", "key_press": -1, "trial_type": "single-stim", "trial_index": 17, "time_elapsed": 244146, "internal_node_id": "0.0-10.0-7.0"}}, {"uniqueid": "MTK1007:32Q90QCQ1TS5KK7ALY81041IARIEKA", "current_trial": 18, "dateTime": 1512970512889, "trialdata": {"rt": -1, "stimulus": "<p id=\"stim\">2</p>", "key_press": -1, "trial_type": "single-stim", "trial_index": 18, "time_elapsed": 245148, "internal_node_id": "0.0-10.0-8.0"}}, {"uniqueid": "MTK1007:32Q90QCQ1TS5KK7ALY81041IARIEKA", "current_trial": 19, "dateTime": 1512970513893, "trialdata": {"rt": -1, "stimulus": "<p id=\"stim\">1</p>", "key_press": -1, "trial_type": "single-stim", "trial_index": 19, "time_elapsed": 246152, "internal_node_id": "0.0-10.0-9.0"}}, {"uniqueid": "MTK1007:32Q90QCQ1TS5KK7ALY81041IARIEKA", "current_trial": 20, "dateTime": 1512970515396, "trialdata": {"rt": -1, "stimulus": "<p id=\"stim\">+</p>", "key_press": -1, "type": "FIXATION", "trial_type": "single-stim", "trial_index": 20, "time_elapsed": 247656, "internal_node_id": "0.0-11.0-0.0"}}, {"uniqueid": "MTK1007:32Q90QCQ1TS5KK7ALY81041IARIEKA", "current_trial": 21, "dateTime": 1512970517626, "trialdata": {"rt": -1000, "stimulus": "/static/audio/wordpool/SCALLOP.wav", "key_press": -1, "type": "PRES_AUD", "word": "scallop", "wordID": 1241, "conditions": [18, 1200, "a", 18000], "trial": 0, "serialpos": 0, "trial_type": "single-audio", "trial_index": 21, "time_elapsed": 249886, "internal_node_id": "0.0-12.0"}}, {"uniqueid": "MTK1007:32Q90QCQ1TS5KK7ALY81041IARIEKA", "current_trial": 22, "dateTime": 1512970519886, "trialdata": {"rt": -1000, "stimulus": "/static/audio/wordpool/PAPER.wav", "key_press": -1, "type": "PRES_AUD", "word": "paper", "wordID": 1010, "conditions": [18, 1200, "a", 18000], "trial": 0, "serialpos": 1, "trial_type": "single-audio", "trial_index": 22, "time_elapsed": 252145, "internal_node_id": "0.0-13.0"}}, {"uniqueid": "MTK1007:32Q90QCQ1TS5KK7ALY81041IARIEKA", "current_trial": 23, "dateTime": 1512970522256, "trialdata": {"rt": -1000, "stimulus": "/static/audio/wordpool/POWDER.wav", "key_press": -1, "type": "PRES_AUD", "word": "powder", "wordID": 1116, "conditions": [18, 1200, "a", 18000], "trial": 0, "serialpos": 2, "trial_type": "single-audio", "trial_index": 23, "time_elapsed": 254514, "internal_node_id": "0.0-14.0"}}, {"uniqueid": "MTK1007:32Q90QCQ1TS5KK7ALY81041IARIEKA", "current_trial": 24, "dateTime": 1512970524320, "trialdata": {"rt": -1000, "stimulus": "/static/audio/wordpool/RAZOR.wav", "key_press": -1, "type": "PRES_AUD", "word": "razor", "wordID": 1170, "conditions": [18, 1200, "a", 18000], "trial": 0, "serialpos": 3, "trial_type": "single-audio", "trial_index": 24, "time_elapsed": 256579, "internal_node_id": "0.0-15.0"}}, {"uniqueid": "MTK1007:32Q90QCQ1TS5KK7ALY81041IARIEKA", "current_trial": 25, "dateTime": 1512970526588, "trialdata": {"rt": -1000, "stimulus": "/static/audio/wordpool/BUCKET.wav", "key_press": -1, "type": "PRES_AUD", "word": "bucket", "wordID": 183, "conditions": [18, 1200, "a", 18000], "trial": 0, "serialpos": 4, "trial_type": "single-audio", "trial_index": 25, "time_elapsed": 258847, "internal_node_id": "0.0-16.0"}}, {"uniqueid": "MTK1007:32Q90QCQ1TS5KK7ALY81041IARIEKA", "current_trial": 26, "dateTime": 1512970528935, "trialdata": {"rt": -1000, "stimulus": "/static/audio/wordpool/PACKAGE.wav", "key_press": -1, "type": "PRES_AUD", "word": "package", "wordID": 996, "conditions": [18, 1200, "a", 18000], "trial": 0, "serialpos": 5, "trial_type": "single-audio", "trial_index": 26, "time_elapsed": 261194, "internal_node_id": "0.0-17.0"}}, {"uniqueid": "MTK1007:32Q90QCQ1TS5KK7ALY81041IARIEKA", "current_trial": 27, "dateTime": 1512970531236, "trialdata": {"rt": -1000, "stimulus": "/static/audio/wordpool/XEROX.wav", "key_press": -1, "type": "PRES_AUD", "word": "xerox", "wordID": 1627, "conditions": [18, 1200, "a", 18000], "trial": 0, "serialpos": 6, "trial_type": "single-audio", "trial_index": 27, "time_elapsed": 263496, "internal_node_id": "0.0-18.0"}}, {"uniqueid": "MTK1007:32Q90QCQ1TS5KK7ALY81041IARIEKA", "current_trial": 28, "dateTime": 1512970533613, "trialdata": {"rt": -1000, "stimulus": "/static/audio/wordpool/ROBIN.wav", "key_press": -1, "type": "PRES_AUD", "word": "robin", "wordID": 1198, "conditions": [18, 1200, "a", 18000], "trial": 0, "serialpos": 7, "trial_type": "single-audio", "trial_index": 28, "time_elapsed": 265873, "internal_node_id": "0.0-19.0"}}, {"uniqueid": "MTK1007:32Q90QCQ1TS5KK7ALY81041IARIEKA", "current_trial": 29, "dateTime": 1512970535868, "trialdata": {"rt": -1000, "stimulus": "/static/audio/wordpool/GRAPE.wav", "key_press": -1, "type": "PRES_AUD", "word": "grape", "wordID": 653, "conditions": [18, 1200, "a", 18000], "trial": 0, "serialpos": 8, "trial_type": "single-audio", "trial_index": 29, "time_elapsed": 268128, "internal_node_id": "0.0-20.0"}}, {"uniqueid": "MTK1007:32Q90QCQ1TS5KK7ALY81041IARIEKA", "current_trial": 30, "dateTime": 1512970537999, "trialdata": {"rt": -1000, "stimulus": "/static/audio/wordpool/PLATE.wav", "key_press": -1, "type": "PRES_AUD", "word": "plate", "wordID": 1085, "conditions": [18, 1200, "a", 18000], "trial": 0, "serialpos": 9, "trial_type": "single-audio", "trial_index": 30, "time_elapsed": 270259, "internal_node_id": "0.0-21.0"}}, {"uniqueid": "MTK1007:32Q90QCQ1TS5KK7ALY81041IARIEKA", "current_trial": 31, "dateTime": 1512970540127, "trialdata": {"rt": -1000, "stimulus": "/static/audio/wordpool/DRESS.wav", "key_press": -1, "type": "PRES_AUD", "word": "dress", "wordID": 494, "conditions": [18, 1200, "a", 18000], "trial": 0, "serialpos": 10, "trial_type": "single-audio", "trial_index": 31, "time_elapsed": 272386, "internal_node_id": "0.0-22.0"}}, {"uniqueid": "MTK1007:32Q90QCQ1TS5KK7ALY81041IARIEKA", "current_trial": 32, "dateTime": 1512970542242, "trialdata": {"rt": -1000, "stimulus": "/static/audio/wordpool/GLASS.wav", "key_press": -1, "type": "PRES_AUD", "word": "glass", "wordID": 638, "conditions": [18, 1200, "a", 18000], "trial": 0, "serialpos": 11, "trial_type": "single-audio", "trial_index": 32, "time_elapsed": 274502, "internal_node_id": "0.0-23.0"}}, {"uniqueid": "MTK1007:32Q90QCQ1TS5KK7ALY81041IARIEKA", "current_trial": 33, "dateTime": 1512970544416, "trialdata": {"rt": -1000, "stimulus": "/static/audio/wordpool/POCKET.wav", "key_press": -1, "type": "PRES_AUD", "word": "pocket", "wordID": 1092, "conditions": [18, 1200, "a", 18000], "trial": 0, "serialpos": 12, "trial_type": "single-audio", "trial_index": 33, "time_elapsed": 276676, "internal_node_id": "0.0-24.0"}}, {"uniqueid": "MTK1007:32Q90QCQ1TS5KK7ALY81041IARIEKA", "current_trial": 34, "dateTime": 1512970546631, "trialdata": {"rt": -1000, "stimulus": "/static/audio/wordpool/STOMACH.wav", "key_press": -1, "type": "PRES_AUD", "word": "stomach", "wordID": 1383, "conditions": [18, 1200, "a", 18000], "trial": 0, "serialpos": 13, "trial_type": "single-audio", "trial_index": 34, "time_elapsed": 278891, "internal_node_id": "0.0-25.0"}}, {"uniqueid": "MTK1007:32Q90QCQ1TS5KK7ALY81041IARIEKA", "current_trial": 35, "dateTime": 1512970548688, "trialdata": {"rt": -1000, "stimulus": "/static/audio/wordpool/PARROT.wav", "key_press": -1, "type": "PRES_AUD", "word": "parrot", "wordID": 1014, "conditions": [18, 1200, "a", 18000], "trial": 0, "serialpos": 14, "trial_type": "single-audio", "trial_index": 35, "time_elapsed": 280947, "internal_node_id": "0.0-26.0"}}, {"uniqueid": "MTK1007:32Q90QCQ1TS5KK7ALY81041IARIEKA", "current_trial": 36, "dateTime": 1512970550867, "trialdata": {"rt": -1000, "stimulus": "/static/audio/wordpool/RATTLE.wav", "key_press": -1, "type": "PRES_AUD", "word": "rattle", "wordID": 1169, "conditions": [18, 1200, "a", 18000], "trial": 0, "serialpos": 15, "trial_type": "single-audio", "trial_index": 36, "time_elapsed": 283127, "internal_node_id": "0.0-27.0"}}, {"uniqueid": "MTK1007:32Q90QCQ1TS5KK7ALY81041IARIEKA", "current_trial": 37, "dateTime": 1512970552932, "trialdata": {"rt": -1000, "stimulus": "/static/audio/wordpool/FLUTE.wav", "key_press": -1, "type": "PRES_AUD", "word": "flute", "wordID": 584, "conditions": [18, 1200, "a", 18000], "trial": 0, "serialpos": 16, "trial_type": "single-audio", "trial_index": 37, "time_elapsed": 285192, "internal_node_id": "0.0-28.0"}}, {"uniqueid": "MTK1007:32Q90QCQ1TS5KK7ALY81041IARIEKA", "current_trial": 38, "dateTime": 1512970555199, "trialdata": {"rt": -1000, "stimulus": "/static/audio/wordpool/FINGER.wav", "key_press": -1, "type": "PRES_AUD", "word": "finger", "wordID": 566, "conditions": [18, 1200, "a", 18000], "trial": 0, "serialpos": 17, "trial_type": "single-audio", "trial_index": 38, "time_elapsed": 287459, "internal_node_id": "0.0-29.0"}}, {"uniqueid": "MTK1007:32Q90QCQ1TS5KK7ALY81041IARIEKA", "current_trial": 39, "dateTime": 1512970556476, "trialdata": {"rt": -1, "stimulus": "", "key_press": -1, "type": "PRE_RECALL_DELAY", "trial_type": "single-stim", "trial_index": 39, "time_elapsed": 288735, "internal_node_id": "0.0-30.0-0.0"}}, {"uniqueid": "MTK1007:32Q90QCQ1TS5KK7ALY81041IARIEKA", "current_trial": 40, "dateTime": 1512970556982, "trialdata": {"rt": -1000, "stimulus": "/static/audio/400Hz.wav", "key_press": -1, "type": "PRE_RECALL_ALERT", "trial_type": "single-audio", "trial_index": 40, "time_elapsed": 289242, "internal_node_id": "0.0-31.0"}}, {"uniqueid": "MTK1007:32Q90QCQ1TS5KK7ALY81041IARIEKA", "current_trial": 41, "dateTime": 1512970617016, "trialdata": {"rt": [7538, 13357, 20288, 25458, 31609, 40265, 46279, 51285, 57038], "recwords": ["parrot ", "flute ", "finger ", "glass", "paper", "stomach", "robin", "dress", "xerox"], "type": "FREE_RECALL", "conditions": [18, 1200, "a", 18000], "trial": 0, "trial_type": "free-recall", "trial_index": 41, "time_elapsed": 349254, "internal_node_id": "0.0-32.0-0.0"}}, {"uniqueid": "MTK1007:32Q90QCQ1TS5KK7ALY81041IARIEKA", "current_trial": 42, "dateTime": 1512970623535, "trialdata": {"rt": 4517, "key_press": 67, "type": "INSTRUCTIONS", "trial_type": "text", "trial_index": 42, "time_elapsed": 355795, "internal_node_id": "0.0-33.0"}}, {"uniqueid": "MTK1007:32Q90QCQ1TS5KK7ALY81041IARIEKA", "current_trial": 43, "dateTime": 1512970643549, "trialdata": {"rt": [4891, 9122, 13458, 16985], "responses": ["20", "16", "10", "14"], "num1": [5, 8, 2, 5, 8], "num2": [8, 4, 1, 4, 1], "num3": [6, 4, 7, 5, 7], "type": "DISTRACTOR", "conditions": [18, 1200, "v", 18000], "trial": 1, "trial_type": "math-distractor", "trial_index": 43, "time_elapsed": 375808, "internal_node_id": "0.0-34.0"}}, {"uniqueid": "MTK1007:32Q90QCQ1TS5KK7ALY81041IARIEKA", "current_trial": 44, "dateTime": 1512970646557, "trialdata": {"rt": -1, "stimulus": "<p id=\"stim\">10</p>", "key_press": -1, "trial_type": "single-stim", "trial_index": 44, "time_elapsed": 378817, "internal_node_id": "0.0-35.0-0.0"}}, {"uniqueid": "MTK1007:32Q90QCQ1TS5KK7ALY81041IARIEKA", "current_trial": 45, "dateTime": 1512970647560, "trialdata": {"rt": -1, "stimulus": "<p id=\"stim\">9</p>", "key_press": -1, "trial_type": "single-stim", "trial_index": 45, "time_elapsed": 379820, "internal_node_id": "0.0-35.0-1.0"}}, {"uniqueid": "MTK1007:32Q90QCQ1TS5KK7ALY81041IARIEKA", "current_trial": 46, "dateTime": 1512970648563, "trialdata": {"rt": -1, "stimulus": "<p id=\"stim\">8</p>", "key_press": -1, "trial_type": "single-stim", "trial_index": 46, "time_elapsed": 380823, "internal_node_id": "0.0-35.0-2.0"}}, {"uniqueid": "MTK1007:32Q90QCQ1TS5KK7ALY81041IARIEKA", "current_trial": 47, "dateTime": 1512970649566, "trialdata": {"rt": -1, "stimulus": "<p id=\"stim\">7</p>", "key_press": -1, "trial_type": "single-stim", "trial_index": 47, "time_elapsed": 381826, "internal_node_id": "0.0-35.0-3.0"}}, {"uniqueid": "MTK1007:32Q90QCQ1TS5KK7ALY81041IARIEKA", "current_trial": 48, "dateTime": 1512970650569, "trialdata": {"rt": -1, "stimulus": "<p id=\"stim\">6</p>", "key_press": -1, "trial_type": "single-stim", "trial_index": 48, "time_elapsed": 382829, "internal_node_id": "0.0-35.0-4.0"}}, {"uniqueid": "MTK1007:32Q90QCQ1TS5KK7ALY81041IARIEKA", "current_trial": 49, "dateTime": 1512970651572, "trialdata": {"rt": -1, "stimulus": "<p id=\"stim\">5</p>", "key_press": -1, "trial_type": "single-stim", "trial_index": 49, "time_elapsed": 383832, "internal_node_id": "0.0-35.0-5.0"}}, {"uniqueid": "MTK1007:32Q90QCQ1TS5KK7ALY81041IARIEKA", "current_trial": 50, "dateTime": 1512970652574, "trialdata": {"rt": -1, "stimulus": "<p id=\"stim\">4</p>", "key_press": -1, "trial_type": "single-stim", "trial_index": 50, "time_elapsed": 384834, "internal_node_id": "0.0-35.0-6.0"}}, {"uniqueid": "MTK1007:32Q90QCQ1TS5KK7ALY81041IARIEKA", "current_trial": 51, "dateTime": 1512970653578, "trialdata": {"rt": -1, "stimulus": "<p id=\"stim\">3</p>", "key_press": -1, "trial_type": "single-stim", "trial_index": 51, "time_elapsed": 385837, "internal_node_id": "0.0-35.0-7.0"}}, {"uniqueid": "MTK1007:32Q90QCQ1TS5KK7ALY81041IARIEKA", "current_trial": 52, "dateTime": 1512970654582, "trialdata": {"rt": -1, "stimulus": "<p id=\"stim\">2</p>", "key_press": -1, "trial_type": "single-stim", "trial_index": 52, "time_elapsed": 386841, "internal_node_id": "0.0-35.0-8.0"}}, {"uniqueid": "MTK1007:32Q90QCQ1TS5KK7ALY81041IARIEKA", "current_trial": 53, "dateTime": 1512970655587, "trialdata": {"rt": -1, "stimulus": "<p id=\"stim\">1</p>", "key_press": -1, "trial_type": "single-stim", "trial_index": 53, "time_elapsed": 387847, "internal_node_id": "0.0-35.0-9.0"}}, {"uniqueid": "MTK1007:32Q90QCQ1TS5KK7ALY81041IARIEKA", "current_trial": 54, "dateTime": 1512970657092, "trialdata": {"rt": -1, "stimulus": "<p id=\"stim\">+</p>", "key_press": -1, "type": "FIXATION", "trial_type": "single-stim", "trial_index": 54, "time_elapsed": 389351, "internal_node_id": "0.0-36.0-0.0"}}, {"uniqueid": "MTK1007:32Q90QCQ1TS5KK7ALY81041IARIEKA", "current_trial": 55, "dateTime": 1512970658297, "trialdata": {"rt": -1, "stimulus": "<p id=\"stim\">ITEM</p>", "key_press": -1, "type": "PRES_VIS", "word": "item", "wordID": 745, "conditions": [18, 1200, "v", 18000], "trial": 1, "serialpos": 0, "trial_type": "single-stim", "trial_index": 55, "time_elapsed": 390557, "internal_node_id": "0.0-37.0"}}, {"uniqueid": "MTK1007:32Q90QCQ1TS5KK7ALY81041IARIEKA", "current_trial": 56, "dateTime": 1512970660643, "trialdata": {"rt": -1, "stimulus": "<p id=\"stim\">DORM</p>", "key_press": -1, "type": "PRES_VIS", "word": "dorm", "wordID": 487, "conditions": [18, 1200, "v", 18000], "trial": 1, "serialpos": 1, "trial_type": "single-stim", "trial_index": 56, "time_elapsed": 392902, "internal_node_id": "0.0-38.0"}}, {"uniqueid": "MTK1007:32Q90QCQ1TS5KK7ALY81041IARIEKA", "current_trial": 57, "dateTime": 1512970662919, "trialdata": {"rt": -1, "stimulus": "<p id=\"stim\">STALLION</p>", "key_press": -1, "type": "PRES_VIS", "word": "stallion", "wordID": 1368, "conditions": [18, 1200, "v", 18000], "trial": 1, "serialpos": 2, "trial_type": "single-stim", "trial_index": 57, "time_elapsed": 395179, "internal_node_id": "0.0-39.0"}}, {"uniqueid": "MTK1007:32Q90QCQ1TS5KK7ALY81041IARIEKA", "current_trial": 58, "dateTime": 1512970665140, "trialdata": {"rt": -1, "stimulus": "<p id=\"stim\">SHOULDER</p>", "key_press": -1, "type": "PRES_VIS", "word": "shoulder", "wordID": 1293, "conditions": [18, 1200, "v", 18000], "trial": 1, "serialpos": 3, "trial_type": "single-stim", "trial_index": 58, "time_elapsed": 397399, "internal_node_id": "0.0-40.0"}}, {"uniqueid": "MTK1007:32Q90QCQ1TS5KK7ALY81041IARIEKA", "current_trial": 59, "dateTime": 1512970667527, "trialdata": {"rt": -1, "stimulus": "<p id=\"stim\">CIGAR</p>", "key_press": -1, "type": "PRES_VIS", "word": "cigar", "wordID": 307, "conditions": [18, 1200, "v", 18000], "trial": 1, "serialpos": 4, "trial_type": "single-stim", "trial_index": 59, "time_elapsed": 399786, "internal_node_id": "0.0-41.0"}}, {"uniqueid": "MTK1007:32Q90QCQ1TS5KK7ALY81041IARIEKA", "current_trial": 60, "dateTime": 1512970669553, "trialdata": {"rt": -1, "stimulus": "<p id=\"stim\">SALAD</p>", "key_press": -1, "type": "PRES_VIS", "word": "salad", "wordID": 1223, "conditions": [18, 1200, "v", 18000], "trial": 1, "serialpos": 5, "trial_type": "single-stim", "trial_index": 60, "time_elapsed": 401812, "internal_node_id": "0.0-42.0"}}, {"uniqueid": "MTK1007:32Q90QCQ1TS5KK7ALY81041IARIEKA", "current_trial": 61, "dateTime": 1512970671572, "trialdata": {"rt": -1, "stimulus": "<p id=\"stim\">KLEENEX</p>", "key_press": -1, "type": "PRES_VIS", "word": "kleenex", "wordID": 781, "conditions": [18, 1200, "v", 18000], "trial": 1, "serialpos": 6, "trial_type": "single-stim", "trial_index": 61, "time_elapsed": 403831, "internal_node_id": "0.0-43.0"}}, {"uniqueid": "MTK1007:32Q90QCQ1TS5KK7ALY81041IARIEKA", "current_trial": 62, "dateTime": 1512970673676, "trialdata": {"rt": -1, "stimulus": "<p id=\"stim\">STOVE</p>", "key_press": -1, "type": "PRES_VIS", "word": "stove", "wordID": 1387, "conditions": [18, 1200, "v", 18000], "trial": 1, "serialpos": 7, "trial_type": "single-stim", "trial_index": 62, "time_elapsed": 405935, "internal_node_id": "0.0-44.0"}}, {"uniqueid": "MTK1007:32Q90QCQ1TS5KK7ALY81041IARIEKA", "current_trial": 63, "dateTime": 1512970675814, "trialdata": {"rt": -1, "stimulus": "<p id=\"stim\">BLADE</p>", "key_press": -1, "type": "PRES_VIS", "word": "blade", "wordID": 133, "conditions": [18, 1200, "v", 18000], "trial": 1, "serialpos": 8, "trial_type": "single-stim", "trial_index": 63, "time_elapsed": 408074, "internal_node_id": "0.0-45.0"}}, {"uniqueid": "MTK1007:32Q90QCQ1TS5KK7ALY81041IARIEKA", "current_trial": 64, "dateTime": 1512970678026, "trialdata": {"rt": -1, "stimulus": "<p id=\"stim\">MONEY</p>", "key_press": -1, "type": "PRES_VIS", "word": "money", "wordID": 907, "conditions": [18, 1200, "v", 18000], "trial": 1, "serialpos": 9, "trial_type": "single-stim", "trial_index": 64, "time_elapsed": 410285, "internal_node_id": "0.0-46.0"}}, {"uniqueid": "MTK1007:32Q90QCQ1TS5KK7ALY81041IARIEKA", "current_trial": 65, "dateTime": 1512970680247, "trialdata": {"rt": -1, "stimulus": "<p id=\"stim\">CRITIC</p>", "key_press": -1, "type": "PRES_VIS", "word": "critic", "wordID": 409, "conditions": [18, 1200, "v", 18000], "trial": 1, "serialpos": 10, "trial_type": "single-stim", "trial_index": 65, "time_elapsed": 412507, "internal_node_id": "0.0-47.0"}}, {"uniqueid": "MTK1007:32Q90QCQ1TS5KK7ALY81041IARIEKA", "current_trial": 66, "dateTime": 1512970682565, "trialdata": {"rt": -1, "stimulus": "<p id=\"stim\">BRIEFCASE</p>", "key_press": -1, "type": "PRES_VIS", "word": "briefcase", "wordID": 174, "conditions": [18, 1200, "v", 18000], "trial": 1, "serialpos": 11, "trial_type": "single-stim", "trial_index": 66, "time_elapsed": 414824, "internal_node_id": "0.0-48.0"}}, {"uniqueid": "MTK1007:32Q90QCQ1TS5KK7ALY81041IARIEKA", "current_trial": 67, "dateTime": 1512970684764, "trialdata": {"rt": -1, "stimulus": "<p id=\"stim\">SPHINX</p>", "key_press": -1, "type": "PRES_VIS", "word": "sphinx", "wordID": 1348, "conditions": [18, 1200, "v", 18000], "trial": 1, "serialpos": 12, "trial_type": "single-stim", "trial_index": 67, "time_elapsed": 417024, "internal_node_id": "0.0-49.0"}}, {"uniqueid": "MTK1007:32Q90QCQ1TS5KK7ALY81041IARIEKA", "current_trial": 68, "dateTime": 1512970686882, "trialdata": {"rt": -1, "stimulus": "<p id=\"stim\">SUSPECT</p>", "key_press": -1, "type": "PRES_VIS", "word": "suspect", "wordID": 1414, "conditions": [18, 1200, "v", 18000], "trial": 1, "serialpos": 13, "trial_type": "single-stim", "trial_index": 68, "time_elapsed": 419128, "internal_node_id": "0.0-50.0"}}, {"uniqueid": "MTK1007:32Q90QCQ1TS5KK7ALY81041IARIEKA", "current_trial": 69, "dateTime": 1512970688893, "trialdata": {"rt": -1, "stimulus": "<p id=\"stim\">SLIME</p>", "key_press": -1, "type": "PRES_VIS", "word": "slime", "wordID": 1326, "conditions": [18, 1200, "v", 18000], "trial": 1, "serialpos": 14, "trial_type": "single-stim", "trial_index": 69, "time_elapsed": 421153, "internal_node_id": "0.0-51.0"}}, {"uniqueid": "MTK1007:32Q90QCQ1TS5KK7ALY81041IARIEKA", "current_trial": 70, "dateTime": 1512970691108, "trialdata": {"rt": -1, "stimulus": "<p id=\"stim\">DRESSER</p>", "key_press": -1, "type": "PRES_VIS", "word": "dresser", "wordID": 495, "conditions": [18, 1200, "v", 18000], "trial": 1, "serialpos": 15, "trial_type": "single-stim", "trial_index": 70, "time_elapsed": 423368, "internal_node_id": "0.0-52.0"}}, {"uniqueid": "MTK1007:32Q90QCQ1TS5KK7ALY81041IARIEKA", "current_trial": 71, "dateTime": 1512970693389, "trialdata": {"rt": -1, "stimulus": "<p id=\"stim\">PORK</p>", "key_press": -1, "type": "PRES_VIS", "word": "pork", "wordID": 1107, "conditions": [18, 1200, "v", 18000], "trial": 1, "serialpos": 16, "trial_type": "single-stim", "trial_index": 71, "time_elapsed": 425649, "internal_node_id": "0.0-53.0"}}, {"uniqueid": "MTK1007:32Q90QCQ1TS5KK7ALY81041IARIEKA", "current_trial": 72, "dateTime": 1512970695624, "trialdata": {"rt": -1, "stimulus": "<p id=\"stim\">POSSUM</p>", "key_press": -1, "type": "PRES_VIS", "word": "possum", "wordID": 1111, "conditions": [18, 1200, "v", 18000], "trial": 1, "serialpos": 17, "trial_type": "single-stim", "trial_index": 72, "time_elapsed": 427883, "internal_node_id": "0.0-54.0"}}, {"uniqueid": "MTK1007:32Q90QCQ1TS5KK7ALY81041IARIEKA", "current_trial": 73, "dateTime": 1512970697991, "trialdata": {"rt": -1, "stimulus": "", "key_press": -1, "type": "PRE_RECALL_DELAY", "trial_type": "single-stim", "trial_index": 73, "time_elapsed": 430250, "internal_node_id": "0.0-55.0-0.0"}}, {"uniqueid": "MTK1007:32Q90QCQ1TS5KK7ALY81041IARIEKA", "current_trial": 74, "dateTime": 1512970698493, "trialdata": {"rt": -1000, "stimulus": "/static/audio/400Hz.wav", "key_press": -1, "type": "PRE_RECALL_ALERT", "trial_type": "single-audio", "trial_index": 74, "time_elapsed": 430753, "internal_node_id": "0.0-56.0"}}, {"uniqueid": "MTK1007:32Q90QCQ1TS5KK7ALY81041IARIEKA", "current_trial": 75, "dateTime": 1512970758514, "trialdata": {"rt": [8518, 15133, 23717, 37728, 43881, 48943, 55052], "recwords": ["pork", "possum ", "shoulder", "dresser ", "slime", "cigar", "dorm"], "type": "FREE_RECALL", "conditions": [18, 1200, "v", 18000], "trial": 1, "trial_type": "free-recall", "trial_index": 75, "time_elapsed": 490761, "internal_node_id": "0.0-57.0-0.0"}}, {"uniqueid": "MTK1007:32Q90QCQ1TS5KK7ALY81041IARIEKA", "current_trial": 76, "dateTime": 1512970814728, "trialdata": {"rt": 54186, "key_press": 78, "type": "INSTRUCTIONS", "trial_type": "text", "trial_index": 76, "time_elapsed": 546965, "internal_node_id": "0.0-58.0"}}, {"uniqueid": "MTK1007:32Q90QCQ1TS5KK7ALY81041IARIEKA", "current_trial": 77, "dateTime": 1512970839741, "trialdata": {"rt": [3985, 8806, 11903, 16086, 19661, 23444], "responses": ["12", "18", "14", "10", "13", "8"], "num1": [6, 2, 1, 3, 4, 3, 5], "num2": [3, 7, 9, 4, 4, 4, 2], "num3": [2, 9, 4, 3, 5, 1, 5], "type": "DISTRACTOR", "conditions": [12, 800, "v", 24000], "trial": 2, "trial_type": "math-distractor", "trial_index": 77, "time_elapsed": 572000, "internal_node_id": "0.0-59.0"}}, {"uniqueid": "MTK1007:32Q90QCQ1TS5KK7ALY81041IARIEKA", "current_trial": 78, "dateTime": 1512970842746, "trialdata": {"rt": -1, "stimulus": "<p id=\"stim\">10</p>", "key_press": -1, "trial_type": "single-stim", "trial_index": 78, "time_elapsed": 575005, "internal_node_id": "0.0-60.0-0.0"}}, {"uniqueid": "MTK1007:32Q90QCQ1TS5KK7ALY81041IARIEKA", "current_trial": 79, "dateTime": 1512970843751, "trialdata": {"rt": -1, "stimulus": "<p id=\"stim\">9</p>", "key_press": -1, "trial_type": "single-stim", "trial_index": 79, "time_elapsed": 576011, "internal_node_id": "0.0-60.0-1.0"}}, {"uniqueid": "MTK1007:32Q90QCQ1TS5KK7ALY81041IARIEKA", "current_trial": 80, "dateTime": 1512970844755, "trialdata": {"rt": -1, "stimulus": "<p id=\"stim\">8</p>", "key_press": -1, "trial_type": "single-stim", "trial_index": 80, "time_elapsed": 577015, "internal_node_id": "0.0-60.0-2.0"}}, {"uniqueid": "MTK1007:32Q90QCQ1TS5KK7ALY81041IARIEKA", "current_trial": 81, "dateTime": 1512970845761, "trialdata": {"rt": -1, "stimulus": "<p id=\"stim\">7</p>", "key_press": -1, "trial_type": "single-stim", "trial_index": 81, "time_elapsed": 578020, "internal_node_id": "0.0-60.0-3.0"}}, {"uniqueid": "MTK1007:32Q90QCQ1TS5KK7ALY81041IARIEKA", "current_trial": 82, "dateTime": 1512970846766, "trialdata": {"rt": -1, "stimulus": "<p id=\"stim\">6</p>", "key_press": -1, "trial_type": "single-stim", "trial_index": 82, "time_elapsed": 579026, "internal_node_id": "0.0-60.0-4.0"}}, {"uniqueid": "MTK1007:32Q90QCQ1TS5KK7ALY81041IARIEKA", "current_trial": 83, "dateTime": 1512970847769, "trialdata": {"rt": -1, "stimulus": "<p id=\"stim\">5</p>", "key_press": -1, "trial_type": "single-stim", "trial_index": 83, "time_elapsed": 580029, "internal_node_id": "0.0-60.0-5.0"}}, {"uniqueid": "MTK1007:32Q90QCQ1TS5KK7ALY81041IARIEKA", "current_trial": 84, "dateTime": 1512970848773, "trialdata": {"rt": -1, "stimulus": "<p id=\"stim\">4</p>", "key_press": -1, "trial_type": "single-stim", "trial_index": 84, "time_elapsed": 581033, "internal_node_id": "0.0-60.0-6.0"}}, {"uniqueid": "MTK1007:32Q90QCQ1TS5KK7ALY81041IARIEKA", "current_trial": 85, "dateTime": 1512970849777, "trialdata": {"rt": -1, "stimulus": "<p id=\"stim\">3</p>", "key_press": -1, "trial_type": "single-stim", "trial_index": 85, "time_elapsed": 582037, "internal_node_id": "0.0-60.0-7.0"}}, {"uniqueid": "MTK1007:32Q90QCQ1TS5KK7ALY81041IARIEKA", "current_trial": 86, "dateTime": 1512970850782, "trialdata": {"rt": -1, "stimulus": "<p id=\"stim\">2</p>", "key_press": -1, "trial_type": "single-stim", "trial_index": 86, "time_elapsed": 583041, "internal_node_id": "0.0-60.0-8.0"}}, {"uniqueid": "MTK1007:32Q90QCQ1TS5KK7ALY81041IARIEKA", "current_trial": 87, "dateTime": 1512970851787, "trialdata": {"rt": -1, "stimulus": "<p id=\"stim\">1</p>", "key_press": -1, "trial_type": "single-stim", "trial_index": 87, "time_elapsed": 584046, "internal_node_id": "0.0-60.0-9.0"}}, {"uniqueid": "MTK1007:32Q90QCQ1TS5KK7ALY81041IARIEKA", "current_trial": 88, "dateTime": 1512970853298, "trialdata": {"rt": -1, "stimulus": "<p id=\"stim\">+</p>", "key_press": -1, "type": "FIXATION", "trial_type": "single-stim", "trial_index": 88, "time_elapsed": 585551, "internal_node_id": "0.0-61.0-0.0"}}, {"uniqueid": "MTK1007:32Q90QCQ1TS5KK7ALY81041IARIEKA", "current_trial": 89, "dateTime": 1512970854101, "trialdata": {"rt": -1, "stimulus": "<p id=\"stim\">OMELET</p>", "key_press": -1, "type": "PRES_VIS", "word": "omelet", "wordID": 975, "conditions": [12, 800, "v", 24000], "trial": 2, "serialpos": 0, "trial_type": "single-stim", "trial_index": 89, "time_elapsed": 586361, "internal_node_id": "0.0-62.0"}}, {"uniqueid": "MTK1007:32Q90QCQ1TS5KK7ALY81041IARIEKA", "current_trial": 90, "dateTime": 1512970855966, "trialdata": {"rt": -1, "stimulus": "<p id=\"stim\">PEBBLE</p>", "key_press": -1, "type": "PRES_VIS", "word": "pebble", "wordID": 1034, "conditions": [12, 800, "v", 24000], "trial": 2, "serialpos": 1, "trial_type": "single-stim", "trial_index": 90, "time_elapsed": 588225, "internal_node_id": "0.0-63.0"}}, {"uniqueid": "MTK1007:32Q90QCQ1TS5KK7ALY81041IARIEKA", "current_trial": 91, "dateTime": 1512970857736, "trialdata": {"rt": -1, "stimulus": "<p id=\"stim\">PUPPY</p>", "key_press": -1, "type": "PRES_VIS", "word": "puppy", "wordID": 1143, "conditions": [12, 800, "v", 24000], "trial": 2, "serialpos": 2, "trial_type": "single-stim", "trial_index": 91, "time_elapsed": 589996, "internal_node_id": "0.0-64.0"}}, {"uniqueid": "MTK1007:32Q90QCQ1TS5KK7ALY81041IARIEKA", "current_trial": 92, "dateTime": 1512970859454, "trialdata": {"rt": -1, "stimulus": "<p id=\"stim\">PATIENT</p>", "key_press": -1, "type": "PRES_VIS", "word": "patient", "wordID": 1023, "conditions": [12, 800, "v", 24000], "trial": 2, "serialpos": 3, "trial_type": "single-stim", "trial_index": 92, "time_elapsed": 591713, "internal_node_id": "0.0-65.0"}}, {"uniqueid": "MTK1007:32Q90QCQ1TS5KK7ALY81041IARIEKA", "current_trial": 93, "dateTime": 1512970861213, "trialdata": {"rt": -1, "stimulus": "<p id=\"stim\">OYSTER</p>", "key_press": -1, "type": "PRES_VIS", "word": "oyster", "wordID": 994, "conditions": [12, 800, "v", 24000], "trial": 2, "serialpos": 4, "trial_type": "single-stim", "trial_index": 93, "time_elapsed": 593473, "internal_node_id": "0.0-66.0"}}, {"uniqueid": "MTK1007:32Q90QCQ1TS5KK7ALY81041IARIEKA", "current_trial": 94, "dateTime": 1512970863054, "trialdata": {"rt": -1, "stimulus": "<p id=\"stim\">SEAFOOD</p>", "key_press": -1, "type": "PRES_VIS", "word": "seafood", "wordID": 1259, "conditions": [12, 800, "v", 24000], "trial": 2, "serialpos": 5, "trial_type": "single-stim", "trial_index": 94, "time_elapsed": 595314, "internal_node_id": "0.0-67.0"}}, {"uniqueid": "MTK1007:32Q90QCQ1TS5KK7ALY81041IARIEKA", "current_trial": 95, "dateTime": 1512970864971, "trialdata": {"rt": -1, "stimulus": "<p id=\"stim\">SUPPER</p>", "key_press": -1, "type": "PRES_VIS", "word": "supper", "wordID": 1410, "conditions": [12, 800, "v", 24000], "trial": 2, "serialpos": 6, "trial_type": "single-stim", "trial_index": 95, "time_elapsed": 597230, "internal_node_id": "0.0-68.0"}}, {"uniqueid": "MTK1007:32Q90QCQ1TS5KK7ALY81041IARIEKA", "current_trial": 96, "dateTime": 1512970866927, "trialdata": {"rt": -1, "stimulus": "<p id=\"stim\">PARENT</p>", "key_press": -1, "type": "PRES_VIS", "word": "parent", "wordID": 1012, "conditions": [12, 800, "v", 24000], "trial": 2, "serialpos": 7, "trial_type": "single-stim", "trial_index": 96, "time_elapsed": 599187, "internal_node_id": "0.0-69.0"}}, {"uniqueid": "MTK1007:32Q90QCQ1TS5KK7ALY81041IARIEKA", "current_trial": 97, "dateTime": 1512970868864, "trialdata": {"rt": -1, "stimulus": "<p id=\"stim\">TURTLE</p>", "key_press": -1, "type": "PRES_VIS", "word": "turtle", "wordID": 1521, "conditions": [12, 800, "v", 24000], "trial": 2, "serialpos": 8, "trial_type": "single-stim", "trial_index": 97, "time_elapsed": 601123, "internal_node_id": "0.0-70.0"}}, {"uniqueid": "MTK1007:32Q90QCQ1TS5KK7ALY81041IARIEKA", "current_trial": 98, "dateTime": 1512970870627, "trialdata": {"rt": -1, "stimulus": "<p id=\"stim\">LIVER</p>", "key_press": -1, "type": "PRES_VIS", "word": "liver", "wordID": 832, "conditions": [12, 800, "v", 24000], "trial": 2, "serialpos": 9, "trial_type": "single-stim", "trial_index": 98, "time_elapsed": 602886, "internal_node_id": "0.0-71.0"}}, {"uniqueid": "MTK1007:32Q90QCQ1TS5KK7ALY81041IARIEKA", "current_trial": 99, "dateTime": 1512970872262, "trialdata": {"rt": -1, "stimulus": "<p id=\"stim\">SPACE</p>", "key_press": -1, "type": "PRES_VIS", "word": "space", "wordID": 1344, "conditions": [12, 800, "v", 24000], "trial": 2, "serialpos": 10, "trial_type": "single-stim", "trial_index": 99, "time_elapsed": 604521, "internal_node_id": "0.0-72.0"}}, {"uniqueid": "MTK1007:32Q90QCQ1TS5KK7ALY81041IARIEKA", "current_trial": 100, "dateTime": 1512970874023, "trialdata": {"rt": -1, "stimulus": "<p id=\"stim\">PICNIC</p>", "key_press": -1, "type": "PRES_VIS", "word": "picnic", "wordID": 1059, "conditions": [12, 800, "v", 24000], "trial": 2, "serialpos": 11, "trial_type": "single-stim", "trial_index": 100, "time_elapsed": 606283, "internal_node_id": "0.0-73.0"}}, {"uniqueid": "MTK1007:32Q90QCQ1TS5KK7ALY81041IARIEKA", "current_trial": 101, "dateTime": 1512970876444, "trialdata": {"rt": -1, "stimulus": "", "key_press": -1, "type": "PRE_RECALL_DELAY", "trial_type": "single-stim", "trial_index": 101, "time_elapsed": 608704, "internal_node_id": "0.0-74.0-0.0"}}, {"uniqueid": "MTK1007:32Q90QCQ1TS5KK7ALY81041IARIEKA", "current_trial": 102, "dateTime": 1512970876948, "trialdata": {"rt": -1000, "stimulus": "/static/audio/400Hz.wav", "key_press": -1, "type": "PRE_RECALL_ALERT", "trial_type": "single-audio", "trial_index": 102, "time_elapsed": 609208, "internal_node_id": "0.0-75.0"}}, {"uniqueid": "MTK1007:32Q90QCQ1TS5KK7ALY81041IARIEKA", "current_trial": 103, "dateTime": 1512970936966, "trialdata": {"rt": [7848, 12725, 21273, 32357, 36660, 50220], "recwords": ["picnic", "patient", "space", "seafood", "turtle", "oyster"], "type": "FREE_RECALL", "conditions": [12, 800, "v", 24000], "trial": 2, "trial_type": "free-recall", "trial_index": 103, "time_elapsed": 669218, "internal_node_id": "0.0-76.0-0.0"}}, {"uniqueid": "MTK1007:32Q90QCQ1TS5KK7ALY81041IARIEKA", "current_trial": 104, "dateTime": 1512970941353, "trialdata": {"rt": 2383, "key_press": 78, "type": "INSTRUCTIONS", "trial_type": "text", "trial_index": 104, "time_elapsed": 673613, "internal_node_id": "0.0-77.0"}}, {"uniqueid": "MTK1007:32Q90QCQ1TS5KK7ALY81041IARIEKA", "current_trial": 105, "dateTime": 1512970955364, "trialdata": {"rt": [5554, 9691], "responses": ["10", "7"], "num1": [4, 2, 2], "num2": [5, 3, 2], "num3": [1, 1, 9], "type": "DISTRACTOR", "conditions": [12, 1600, "v", 12000], "trial": 3, "trial_type": "math-distractor", "trial_index": 105, "time_elapsed": 687624, "internal_node_id": "0.0-78.0"}}, {"uniqueid": "MTK1007:32Q90QCQ1TS5KK7ALY81041IARIEKA", "current_trial": 106, "dateTime": 1512970958369, "trialdata": {"rt": -1, "stimulus": "<p id=\"stim\">10</p>", "key_press": -1, "trial_type": "single-stim", "trial_index": 106, "time_elapsed": 690629, "internal_node_id": "0.0-79.0-0.0"}}, {"uniqueid": "MTK1007:32Q90QCQ1TS5KK7ALY81041IARIEKA", "current_trial": 107, "dateTime": 1512970959373, "trialdata": {"rt": -1, "stimulus": "<p id=\"stim\">9</p>", "key_press": -1, "trial_type": "single-stim", "trial_index": 107, "time_elapsed": 691633, "internal_node_id": "0.0-79.0-1.0"}}, {"uniqueid": "MTK1007:32Q90QCQ1TS5KK7ALY81041IARIEKA", "current_trial": 108, "dateTime": 1512970960378, "trialdata": {"rt": -1, "stimulus": "<p id=\"stim\">8</p>", "key_press": -1, "trial_type": "single-stim", "trial_index": 108, "time_elapsed": 692638, "internal_node_id": "0.0-79.0-2.0"}}, {"uniqueid": "MTK1007:32Q90QCQ1TS5KK7ALY81041IARIEKA", "current_trial": 109, "dateTime": 1512970961381, "trialdata": {"rt": -1, "stimulus": "<p id=\"stim\">7</p>", "key_press": -1, "trial_type": "single-stim", "trial_index": 109, "time_elapsed": 693640, "internal_node_id": "0.0-79.0-3.0"}}, {"uniqueid": "MTK1007:32Q90QCQ1TS5KK7ALY81041IARIEKA", "current_trial": 110, "dateTime": 1512970962385, "trialdata": {"rt": -1, "stimulus": "<p id=\"stim\">6</p>", "key_press": -1, "trial_type": "single-stim", "trial_index": 110, "time_elapsed": 694645, "internal_node_id": "0.0-79.0-4.0"}}, {"uniqueid": "MTK1007:32Q90QCQ1TS5KK7ALY81041IARIEKA", "current_trial": 111, "dateTime": 1512970963391, "trialdata": {"rt": -1, "stimulus": "<p id=\"stim\">5</p>", "key_press": -1, "trial_type": "single-stim", "trial_index": 111, "time_elapsed": 695651, "internal_node_id": "0.0-79.0-5.0"}}, {"uniqueid": "MTK1007:32Q90QCQ1TS5KK7ALY81041IARIEKA", "current_trial": 112, "dateTime": 1512970964394, "trialdata": {"rt": -1, "stimulus": "<p id=\"stim\">4</p>", "key_press": -1, "trial_type": "single-stim", "trial_index": 112, "time_elapsed": 696654, "internal_node_id": "0.0-79.0-6.0"}}, {"uniqueid": "MTK1007:32Q90QCQ1TS5KK7ALY81041IARIEKA", "current_trial": 113, "dateTime": 1512970965398, "trialdata": {"rt": -1, "stimulus": "<p id=\"stim\">3</p>", "key_press": -1, "trial_type": "single-stim", "trial_index": 113, "time_elapsed": 697658, "internal_node_id": "0.0-79.0-7.0"}}, {"uniqueid": "MTK1007:32Q90QCQ1TS5KK7ALY81041IARIEKA", "current_trial": 114, "dateTime": 1512970966403, "trialdata": {"rt": -1, "stimulus": "<p id=\"stim\">2</p>", "key_press": -1, "trial_type": "single-stim", "trial_index": 114, "time_elapsed": 698662, "internal_node_id": "0.0-79.0-8.0"}}, {"uniqueid": "MTK1007:32Q90QCQ1TS5KK7ALY81041IARIEKA", "current_trial": 115, "dateTime": 1512970967407, "trialdata": {"rt": -1, "stimulus": "<p id=\"stim\">1</p>", "key_press": -1, "trial_type": "single-stim", "trial_index": 115, "time_elapsed": 699667, "internal_node_id": "0.0-79.0-9.0"}}, {"uniqueid": "MTK1007:32Q90QCQ1TS5KK7ALY81041IARIEKA", "current_trial": 116, "dateTime": 1512970968911, "trialdata": {"rt": -1, "stimulus": "<p id=\"stim\">+</p>", "key_press": -1, "type": "FIXATION", "trial_type": "single-stim", "trial_index": 116, "time_elapsed": 701171, "internal_node_id": "0.0-80.0-0.0"}}, {"uniqueid": "MTK1007:32Q90QCQ1TS5KK7ALY81041IARIEKA", "current_trial": 117, "dateTime": 1512970970515, "trialdata": {"rt": -1, "stimulus": "<p id=\"stim\">HUMAN</p>", "key_press": -1, "type": "PRES_VIS", "word": "human", "wordID": 725, "conditions": [12, 1600, "v", 12000], "trial": 3, "serialpos": 0, "trial_type": "single-stim", "trial_index": 117, "time_elapsed": 702775, "internal_node_id": "0.0-81.0"}}, {"uniqueid": "MTK1007:32Q90QCQ1TS5KK7ALY81041IARIEKA", "current_trial": 118, "dateTime": 1512970973232, "trialdata": {"rt": -1, "stimulus": "<p id=\"stim\">MAILMAN</p>", "key_press": -1, "type": "PRES_VIS", "word": "mailman", "wordID": 857, "conditions": [12, 1600, "v", 12000], "trial": 3, "serialpos": 1, "trial_type": "single-stim", "trial_index": 118, "time_elapsed": 705492, "internal_node_id": "0.0-82.0"}}, {"uniqueid": "MTK1007:32Q90QCQ1TS5KK7ALY81041IARIEKA", "current_trial": 119, "dateTime": 1512970975640, "trialdata": {"rt": -1, "stimulus": "<p id=\"stim\">SISTER</p>", "key_press": -1, "type": "PRES_VIS", "word": "sister", "wordID": 1311, "conditions": [12, 1600, "v", 12000], "trial": 3, "serialpos": 2, "trial_type": "single-stim", "trial_index": 119, "time_elapsed": 707900, "internal_node_id": "0.0-83.0"}}, {"uniqueid": "MTK1007:32Q90QCQ1TS5KK7ALY81041IARIEKA", "current_trial": 120, "dateTime": 1512970978077, "trialdata": {"rt": -1, "stimulus": "<p id=\"stim\">JELLY</p>", "key_press": -1, "type": "PRES_VIS", "word": "jelly", "wordID": 754, "conditions": [12, 1600, "v", 12000], "trial": 3, "serialpos": 3, "trial_type": "single-stim", "trial_index": 120, "time_elapsed": 710336, "internal_node_id": "0.0-84.0"}}, {"uniqueid": "MTK1007:32Q90QCQ1TS5KK7ALY81041IARIEKA", "current_trial": 121, "dateTime": 1512970980822, "trialdata": {"rt": -1, "stimulus": "<p id=\"stim\">JELLO</p>", "key_press": -1, "type": "PRES_VIS", "word": "jello", "wordID": 753, "conditions": [12, 1600, "v", 12000], "trial": 3, "serialpos": 4, "trial_type": "single-stim", "trial_index": 121, "time_elapsed": 713081, "internal_node_id": "0.0-85.0"}}, {"uniqueid": "MTK1007:32Q90QCQ1TS5KK7ALY81041IARIEKA", "current_trial": 122, "dateTime": 1512970983301, "trialdata": {"rt": -1, "stimulus": "<p id=\"stim\">NOMAD</p>", "key_press": -1, "type": "PRES_VIS", "word": "nomad", "wordID": 954, "conditions": [12, 1600, "v", 12000], "trial": 3, "serialpos": 5, "trial_type": "single-stim", "trial_index": 122, "time_elapsed": 715560, "internal_node_id": "0.0-86.0"}}, {"uniqueid": "MTK1007:32Q90QCQ1TS5KK7ALY81041IARIEKA", "current_trial": 123, "dateTime": 1512970985902, "trialdata": {"rt": -1, "stimulus": "<p id=\"stim\">FLOWER</p>", "key_press": -1, "type": "PRES_VIS", "word": "flower", "wordID": 583, "conditions": [12, 1600, "v", 12000], "trial": 3, "serialpos": 6, "trial_type": "single-stim", "trial_index": 123, "time_elapsed": 718162, "internal_node_id": "0.0-87.0"}}, {"uniqueid": "MTK1007:32Q90QCQ1TS5KK7ALY81041IARIEKA", "current_trial": 124, "dateTime": 1512970988348, "trialdata": {"rt": -1, "stimulus": "<p id=\"stim\">SALT</p>", "key_press": -1, "type": "PRES_VIS", "word": "salt", "wordID": 1228, "conditions": [12, 1600, "v", 12000], "trial": 3, "serialpos": 7, "trial_type": "single-stim", "trial_index": 124, "time_elapsed": 720608, "internal_node_id": "0.0-88.0"}}, {"uniqueid": "MTK1007:32Q90QCQ1TS5KK7ALY81041IARIEKA", "current_trial": 125, "dateTime": 1512970991069, "trialdata": {"rt": -1, "stimulus": "<p id=\"stim\">SMOG</p>", "key_press": -1, "type": "PRES_VIS", "word": "smog", "wordID": 1329, "conditions": [12, 1600, "v", 12000], "trial": 3, "serialpos": 8, "trial_type": "single-stim", "trial_index": 125, "time_elapsed": 723329, "internal_node_id": "0.0-89.0"}}, {"uniqueid": "MTK1007:32Q90QCQ1TS5KK7ALY81041IARIEKA", "current_trial": 126, "dateTime": 1512970993567, "trialdata": {"rt": -1, "stimulus": "<p id=\"stim\">NIGHTGOWN</p>", "key_press": -1, "type": "PRES_VIS", "word": "nightgown", "wordID": 952, "conditions": [12, 1600, "v", 12000], "trial": 3, "serialpos": 9, "trial_type": "single-stim", "trial_index": 126, "time_elapsed": 725827, "internal_node_id": "0.0-90.0"}}, {"uniqueid": "MTK1007:32Q90QCQ1TS5KK7ALY81041IARIEKA", "current_trial": 127, "dateTime": 1512970996325, "trialdata": {"rt": -1, "stimulus": "<p id=\"stim\">LILY</p>", "key_press": -1, "type": "PRES_VIS", "word": "lily", "wordID": 820, "conditions": [12, 1600, "v", 12000], "trial": 3, "serialpos": 10, "trial_type": "single-stim", "trial_index": 127, "time_elapsed": 728584, "internal_node_id": "0.0-91.0"}}, {"uniqueid": "MTK1007:32Q90QCQ1TS5KK7ALY81041IARIEKA", "current_trial": 128, "dateTime": 1512970999060, "trialdata": {"rt": -1, "stimulus": "<p id=\"stim\">PUDDLE</p>", "key_press": -1, "type": "PRES_VIS", "word": "puddle", "wordID": 1139, "conditions": [12, 1600, "v", 12000], "trial": 3, "serialpos": 11, "trial_type": "single-stim", "trial_index": 128, "time_elapsed": 731313, "internal_node_id": "0.0-92.0"}}, {"uniqueid": "MTK1007:32Q90QCQ1TS5KK7ALY81041IARIEKA", "current_trial": 129, "dateTime": 1512971001354, "trialdata": {"rt": -1, "stimulus": "", "key_press": -1, "type": "PRE_RECALL_DELAY", "trial_type": "single-stim", "trial_index": 129, "time_elapsed": 733613, "internal_node_id": "0.0-93.0-0.0"}}, {"uniqueid": "MTK1007:32Q90QCQ1TS5KK7ALY81041IARIEKA", "current_trial": 130, "dateTime": 1512971001858, "trialdata": {"rt": -1000, "stimulus": "/static/audio/400Hz.wav", "key_press": -1, "type": "PRE_RECALL_ALERT", "trial_type": "single-audio", "trial_index": 130, "time_elapsed": 734117, "internal_node_id": "0.0-94.0"}}, {"uniqueid": "MTK1007:32Q90QCQ1TS5KK7ALY81041IARIEKA", "current_trial": 131, "dateTime": 1512971061881, "trialdata": {"rt": [4971, 10596, 18253, 22263, 26724, 30630, 35802, 40194, 42859, 47190, 55839], "recwords": ["puddle", "lilly", "mailman", "sister", "jelly", "jello", "nomad", "flower", "salt", "puddle", "nightgown"], "type": "FREE_RECALL", "conditions": [12, 1600, "v", 12000], "trial": 3, "trial_type": "free-recall", "trial_index": 131, "time_elapsed": 794125, "internal_node_id": "0.0-95.0-0.0"}}, {"uniqueid": "MTK1007:32Q90QCQ1TS5KK7ALY81041IARIEKA", "current_trial": 132, "dateTime": 1512971066008, "trialdata": {"rt": 2122, "key_press": 78, "type": "INSTRUCTIONS", "trial_type": "text", "trial_index": 132, "time_elapsed": 798267, "internal_node_id": "0.0-96.0"}}, {"uniqueid": "MTK1007:32Q90QCQ1TS5KK7ALY81041IARIEKA", "current_trial": 133, "dateTime": 1512971092018, "trialdata": {"rt": [4502, 8873, 11940, 15498, 19071, 22416], "responses": ["16", "16", "12", "16", "16", "19"], "num1": [7, 2, 3, 2, 5, 5, 7], "num2": [5, 6, 5, 4, 2, 9, 9], "num3": [4, 8, 4, 8, 9, 5, 4], "type": "DISTRACTOR", "conditions": [24, 800, "a", 24000], "trial": 4, "trial_type": "math-distractor", "trial_index": 133, "time_elapsed": 824278, "internal_node_id": "0.0-97.0"}}, {"uniqueid": "MTK1007:32Q90QCQ1TS5KK7ALY81041IARIEKA", "current_trial": 134, "dateTime": 1512971095024, "trialdata": {"rt": -1, "stimulus": "<p id=\"stim\">10</p>", "key_press": -1, "trial_type": "single-stim", "trial_index": 134, "time_elapsed": 827284, "internal_node_id": "0.0-98.0-0.0"}}, {"uniqueid": "MTK1007:32Q90QCQ1TS5KK7ALY81041IARIEKA", "current_trial": 135, "dateTime": 1512971096031, "trialdata": {"rt": -1, "stimulus": "<p id=\"stim\">9</p>", "key_press": -1, "trial_type": "single-stim", "trial_index": 135, "time_elapsed": 828291, "internal_node_id": "0.0-98.0-1.0"}}, {"uniqueid": "MTK1007:32Q90QCQ1TS5KK7ALY81041IARIEKA", "current_trial": 136, "dateTime": 1512971097039, "trialdata": {"rt": -1, "stimulus": "<p id=\"stim\">8</p>", "key_press": -1, "trial_type": "single-stim", "trial_index": 136, "time_elapsed": 829299, "internal_node_id": "0.0-98.0-2.0"}}, {"uniqueid": "MTK1007:32Q90QCQ1TS5KK7ALY81041IARIEKA", "current_trial": 137, "dateTime": 1512971098044, "trialdata": {"rt": -1, "stimulus": "<p id=\"stim\">7</p>", "key_press": -1, "trial_type": "single-stim", "trial_index": 137, "time_elapsed": 830303, "internal_node_id": "0.0-98.0-3.0"}}, {"uniqueid": "MTK1007:32Q90QCQ1TS5KK7ALY81041IARIEKA", "current_trial": 138, "dateTime": 1512971099050, "trialdata": {"rt": -1, "stimulus": "<p id=\"stim\">6</p>", "key_press": -1, "trial_type": "single-stim", "trial_index": 138, "time_elapsed": 831309, "internal_node_id": "0.0-98.0-4.0"}}, {"uniqueid": "MTK1007:32Q90QCQ1TS5KK7ALY81041IARIEKA", "current_trial": 139, "dateTime": 1512971100052, "trialdata": {"rt": -1, "stimulus": "<p id=\"stim\">5</p>", "key_press": -1, "trial_type": "single-stim", "trial_index": 139, "time_elapsed": 832312, "internal_node_id": "0.0-98.0-5.0"}}, {"uniqueid": "MTK1007:32Q90QCQ1TS5KK7ALY81041IARIEKA", "current_trial": 140, "dateTime": 1512971101056, "trialdata": {"rt": -1, "stimulus": "<p id=\"stim\">4</p>", "key_press": -1, "trial_type": "single-stim", "trial_index": 140, "time_elapsed": 833316, "internal_node_id": "0.0-98.0-6.0"}}, {"uniqueid": "MTK1007:32Q90QCQ1TS5KK7ALY81041IARIEKA", "current_trial": 141, "dateTime": 1512971102060, "trialdata": {"rt": -1, "stimulus": "<p id=\"stim\">3</p>", "key_press": -1, "trial_type": "single-stim", "trial_index": 141, "time_elapsed": 834319, "internal_node_id": "0.0-98.0-7.0"}}, {"uniqueid": "MTK1007:32Q90QCQ1TS5KK7ALY81041IARIEKA", "current_trial": 142, "dateTime": 1512971103062, "trialdata": {"rt": -1, "stimulus": "<p id=\"stim\">2</p>", "key_press": -1, "trial_type": "single-stim", "trial_index": 142, "time_elapsed": 835321, "internal_node_id": "0.0-98.0-8.0"}}, {"uniqueid": "MTK1007:32Q90QCQ1TS5KK7ALY81041IARIEKA", "current_trial": 143, "dateTime": 1512971104064, "trialdata": {"rt": -1, "stimulus": "<p id=\"stim\">1</p>", "key_press": -1, "trial_type": "single-stim", "trial_index": 143, "time_elapsed": 836323, "internal_node_id": "0.0-98.0-9.0"}}, {"uniqueid": "MTK1007:32Q90QCQ1TS5KK7ALY81041IARIEKA", "current_trial": 144, "dateTime": 1512971105567, "trialdata": {"rt": -1, "stimulus": "<p id=\"stim\">+</p>", "key_press": -1, "type": "FIXATION", "trial_type": "single-stim", "trial_index": 144, "time_elapsed": 837827, "internal_node_id": "0.0-99.0-0.0"}}, {"uniqueid": "MTK1007:32Q90QCQ1TS5KK7ALY81041IARIEKA", "current_trial": 145, "dateTime": 1512971107232, "trialdata": {"rt": -1000, "stimulus": "/static/audio/wordpool/POPCORN.wav", "key_press": -1, "type": "PRES_AUD", "word": "popcorn", "wordID": 1103, "conditions": [24, 800, "a", 24000], "trial": 4, "serialpos": 0, "trial_type": "single-audio", "trial_index": 145, "time_elapsed": 839492, "internal_node_id": "0.0-100.0"}}, {"uniqueid": "MTK1007:32Q90QCQ1TS5KK7ALY81041IARIEKA", "current_trial": 146, "dateTime": 1512971108934, "trialdata": {"rt": -1000, "stimulus": "/static/audio/wordpool/CANDY.wav", "key_press": -1, "type": "PRES_AUD", "word": "candy", "wordID": 229, "conditions": [24, 800, "a", 24000], "trial": 4, "serialpos": 1, "trial_type": "single-audio", "trial_index": 146, "time_elapsed": 841193, "internal_node_id": "0.0-101.0"}}, {"uniqueid": "MTK1007:32Q90QCQ1TS5KK7ALY81041IARIEKA", "current_trial": 147, "dateTime": 1512971110771, "trialdata": {"rt": -1000, "stimulus": "/static/audio/wordpool/PIANO.wav", "key_press": -1, "type": "PRES_AUD", "word": "piano", "wordID": 1056, "conditions": [24, 800, "a", 24000], "trial": 4, "serialpos": 2, "trial_type": "single-audio", "trial_index": 147, "time_elapsed": 843031, "internal_node_id": "0.0-102.0"}}, {"uniqueid": "MTK1007:32Q90QCQ1TS5KK7ALY81041IARIEKA", "current_trial": 148, "dateTime": 1512971112406, "trialdata": {"rt": -1000, "stimulus": "/static/audio/wordpool/WOMAN.wav", "key_press": -1, "type": "PRES_AUD", "word": "woman", "wordID": 1619, "conditions": [24, 800, "a", 24000], "trial": 4, "serialpos": 3, "trial_type": "single-audio", "trial_index": 148, "time_elapsed": 844666, "internal_node_id": "0.0-103.0"}}, {"uniqueid": "MTK1007:32Q90QCQ1TS5KK7ALY81041IARIEKA", "current_trial": 149, "dateTime": 1512971114385, "trialdata": {"rt": -1000, "stimulus": "/static/audio/wordpool/CRATER.wav", "key_press": -1, "type": "PRES_AUD", "word": "crater", "wordID": 399, "conditions": [24, 800, "a", 24000], "trial": 4, "serialpos": 4, "trial_type": "single-audio", "trial_index": 149, "time_elapsed": 846645, "internal_node_id": "0.0-104.0"}}, {"uniqueid": "MTK1007:32Q90QCQ1TS5KK7ALY81041IARIEKA", "current_trial": 150, "dateTime": 1512971116245, "trialdata": {"rt": -1000, "stimulus": "/static/audio/wordpool/NEUTRON.wav", "key_press": -1, "type": "PRES_AUD", "word": "neutron", "wordID": 946, "conditions": [24, 800, "a", 24000], "trial": 4, "serialpos": 5, "trial_type": "single-audio", "trial_index": 150, "time_elapsed": 848504, "internal_node_id": "0.0-105.0"}}, {"uniqueid": "MTK1007:32Q90QCQ1TS5KK7ALY81041IARIEKA", "current_trial": 151, "dateTime": 1512971117945, "trialdata": {"rt": -1000, "stimulus": "/static/audio/wordpool/TUTU.wav", "key_press": -1, "type": "PRES_AUD", "word": "tutu", "wordID": 1523, "conditions": [24, 800, "a", 24000], "trial": 4, "serialpos": 6, "trial_type": "single-audio", "trial_index": 151, "time_elapsed": 850204, "internal_node_id": "0.0-106.0"}}, {"uniqueid": "MTK1007:32Q90QCQ1TS5KK7ALY81041IARIEKA", "current_trial": 152, "dateTime": 1512971119811, "trialdata": {"rt": -1000, "stimulus": "/static/audio/wordpool/HARP.wav", "key_press": -1, "type": "PRES_AUD", "word": "harp", "wordID": 688, "conditions": [24, 800, "a", 24000], "trial": 4, "serialpos": 7, "trial_type": "single-audio", "trial_index": 152, "time_elapsed": 852071, "internal_node_id": "0.0-107.0"}}, {"uniqueid": "MTK1007:32Q90QCQ1TS5KK7ALY81041IARIEKA", "current_trial": 153, "dateTime": 1512971121753, "trialdata": {"rt": -1000, "stimulus": "/static/audio/wordpool/JURY.wav", "key_press": -1, "type": "PRES_AUD", "word": "jury", "wordID": 765, "conditions": [24, 800, "a", 24000], "trial": 4, "serialpos": 8, "trial_type": "single-audio", "trial_index": 153, "time_elapsed": 854012, "internal_node_id": "0.0-108.0"}}, {"uniqueid": "MTK1007:32Q90QCQ1TS5KK7ALY81041IARIEKA", "current_trial": 154, "dateTime": 1512971123751, "trialdata": {"rt": -1000, "stimulus": "/static/audio/wordpool/WIDOW.wav", "key_press": -1, "type": "PRES_AUD", "word": "widow", "wordID": 1607, "conditions": [24, 800, "a", 24000], "trial": 4, "serialpos": 9, "trial_type": "single-audio", "trial_index": 154, "time_elapsed": 856011, "internal_node_id": "0.0-109.0"}}, {"uniqueid": "MTK1007:32Q90QCQ1TS5KK7ALY81041IARIEKA", "current_trial": 155, "dateTime": 1512971125480, "trialdata": {"rt": -1000, "stimulus": "/static/audio/wordpool/ZEBRA.wav", "key_press": -1, "type": "PRES_AUD", "word": "zebra", "wordID": 1634, "conditions": [24, 800, "a", 24000], "trial": 4, "serialpos": 10, "trial_type": "single-audio", "trial_index": 155, "time_elapsed": 857740, "internal_node_id": "0.0-110.0"}}, {"uniqueid": "MTK1007:32Q90QCQ1TS5KK7ALY81041IARIEKA", "current_trial": 156, "dateTime": 1512971127426, "trialdata": {"rt": -1000, "stimulus": "/static/audio/wordpool/MUSTARD.wav", "key_press": -1, "type": "PRES_AUD", "word": "mustard", "wordID": 934, "conditions": [24, 800, "a", 24000], "trial": 4, "serialpos": 11, "trial_type": "single-audio", "trial_index": 156, "time_elapsed": 859686, "internal_node_id": "0.0-111.0"}}, {"uniqueid": "MTK1007:32Q90QCQ1TS5KK7ALY81041IARIEKA", "current_trial": 157, "dateTime": 1512971129148, "trialdata": {"rt": -1000, "stimulus": "/static/audio/wordpool/TROUT.wav", "key_press": -1, "type": "PRES_AUD", "word": "trout", "wordID": 1510, "conditions": [24, 800, "a", 24000], "trial": 4, "serialpos": 12, "trial_type": "single-audio", "trial_index": 157, "time_elapsed": 861408, "internal_node_id": "0.0-112.0"}}, {"uniqueid": "MTK1007:32Q90QCQ1TS5KK7ALY81041IARIEKA", "current_trial": 158, "dateTime": 1512971131039, "trialdata": {"rt": -1000, "stimulus": "/static/audio/wordpool/CREATURE.wav", "key_press": -1, "type": "PRES_AUD", "word": "creature", "wordID": 402, "conditions": [24, 800, "a", 24000], "trial": 4, "serialpos": 13, "trial_type": "single-audio", "trial_index": 158, "time_elapsed": 863299, "internal_node_id": "0.0-113.0"}}, {"uniqueid": "MTK1007:32Q90QCQ1TS5KK7ALY81041IARIEKA", "current_trial": 159, "dateTime": 1512971133021, "trialdata": {"rt": -1000, "stimulus": "/static/audio/wordpool/DASHBOARD.wav", "key_press": -1, "type": "PRES_AUD", "word": "dashboard", "wordID": 440, "conditions": [24, 800, "a", 24000], "trial": 4, "serialpos": 14, "trial_type": "single-audio", "trial_index": 159, "time_elapsed": 865280, "internal_node_id": "0.0-114.0"}}, {"uniqueid": "MTK1007:32Q90QCQ1TS5KK7ALY81041IARIEKA", "current_trial": 160, "dateTime": 1512971135027, "trialdata": {"rt": -1000, "stimulus": "/static/audio/wordpool/SODA.wav", "key_press": -1, "type": "PRES_AUD", "word": "soda", "wordID": 1340, "conditions": [24, 800, "a", 24000], "trial": 4, "serialpos": 15, "trial_type": "single-audio", "trial_index": 160, "time_elapsed": 867286, "internal_node_id": "0.0-115.0"}}, {"uniqueid": "MTK1007:32Q90QCQ1TS5KK7ALY81041IARIEKA", "current_trial": 161, "dateTime": 1512971136913, "trialdata": {"rt": -1000, "stimulus": "/static/audio/wordpool/HIGHWAY.wav", "key_press": -1, "type": "PRES_AUD", "word": "highway", "wordID": 706, "conditions": [24, 800, "a", 24000], "trial": 4, "serialpos": 16, "trial_type": "single-audio", "trial_index": 161, "time_elapsed": 869173, "internal_node_id": "0.0-116.0"}}, {"uniqueid": "MTK1007:32Q90QCQ1TS5KK7ALY81041IARIEKA", "current_trial": 162, "dateTime": 1512971138704, "trialdata": {"rt": -1000, "stimulus": "/static/audio/wordpool/MOTOR.wav", "key_press": -1, "type": "PRES_AUD", "word": "motor", "wordID": 921, "conditions": [24, 800, "a", 24000], "trial": 4, "serialpos": 17, "trial_type": "single-audio", "trial_index": 162, "time_elapsed": 870964, "internal_node_id": "0.0-117.0"}}, {"uniqueid": "MTK1007:32Q90QCQ1TS5KK7ALY81041IARIEKA", "current_trial": 163, "dateTime": 1512971140363, "trialdata": {"rt": -1000, "stimulus": "/static/audio/wordpool/GLOBE.wav", "key_press": -1, "type": "PRES_AUD", "word": "globe", "wordID": 640, "conditions": [24, 800, "a", 24000], "trial": 4, "serialpos": 18, "trial_type": "single-audio", "trial_index": 163, "time_elapsed": 872619, "internal_node_id": "0.0-118.0"}}, {"uniqueid": "MTK1007:32Q90QCQ1TS5KK7ALY81041IARIEKA", "current_trial": 164, "dateTime": 1512971142275, "trialdata": {"rt": -1000, "stimulus": "/static/audio/wordpool/STICKER.wav", "key_press": -1, "type": "PRES_AUD", "word": "sticker", "wordID": 1381, "conditions": [24, 800, "a", 24000], "trial": 4, "serialpos": 19, "trial_type": "single-audio", "trial_index": 164, "time_elapsed": 874534, "internal_node_id": "0.0-119.0"}}, {"uniqueid": "MTK1007:32Q90QCQ1TS5KK7ALY81041IARIEKA", "current_trial": 165, "dateTime": 1512971144265, "trialdata": {"rt": -1000, "stimulus": "/static/audio/wordpool/BADGE.wav", "key_press": -1, "type": "PRES_AUD", "word": "badge", "wordID": 67, "conditions": [24, 800, "a", 24000], "trial": 4, "serialpos": 20, "trial_type": "single-audio", "trial_index": 165, "time_elapsed": 876525, "internal_node_id": "0.0-120.0"}}, {"uniqueid": "MTK1007:32Q90QCQ1TS5KK7ALY81041IARIEKA", "current_trial": 166, "dateTime": 1512971146123, "trialdata": {"rt": -1000, "stimulus": "/static/audio/wordpool/DENIM.wav", "key_press": -1, "type": "PRES_AUD", "word": "denim", "wordID": 445, "conditions": [24, 800, "a", 24000], "trial": 4, "serialpos": 21, "trial_type": "single-audio", "trial_index": 166, "time_elapsed": 878382, "internal_node_id": "0.0-121.0"}}, {"uniqueid": "MTK1007:32Q90QCQ1TS5KK7ALY81041IARIEKA", "current_trial": 167, "dateTime": 1512971147995, "trialdata": {"rt": -1000, "stimulus": "/static/audio/wordpool/DRINK.wav", "key_press": -1, "type": "PRES_AUD", "word": "drink", "wordID": 497, "conditions": [24, 800, "a", 24000], "trial": 4, "serialpos": 22, "trial_type": "single-audio", "trial_index": 167, "time_elapsed": 880254, "internal_node_id": "0.0-122.0"}}, {"uniqueid": "MTK1007:32Q90QCQ1TS5KK7ALY81041IARIEKA", "current_trial": 168, "dateTime": 1512971149761, "trialdata": {"rt": -1000, "stimulus": "/static/audio/wordpool/VALLEY.wav", "key_press": -1, "type": "PRES_AUD", "word": "valley", "wordID": 1544, "conditions": [24, 800, "a", 24000], "trial": 4, "serialpos": 23, "trial_type": "single-audio", "trial_index": 168, "time_elapsed": 882020, "internal_node_id": "0.0-123.0"}}, {"uniqueid": "MTK1007:32Q90QCQ1TS5KK7ALY81041IARIEKA", "current_trial": 169, "dateTime": 1512971151074, "trialdata": {"rt": -1, "stimulus": "", "key_press": -1, "type": "PRE_RECALL_DELAY", "trial_type": "single-stim", "trial_index": 169, "time_elapsed": 883333, "internal_node_id": "0.0-124.0-0.0"}}, {"uniqueid": "MTK1007:32Q90QCQ1TS5KK7ALY81041IARIEKA", "current_trial": 170, "dateTime": 1512971151581, "trialdata": {"rt": -1000, "stimulus": "/static/audio/400Hz.wav", "key_press": -1, "type": "PRE_RECALL_ALERT", "trial_type": "single-audio", "trial_index": 170, "time_elapsed": 883840, "internal_node_id": "0.0-125.0"}}, {"uniqueid": "MTK1007:32Q90QCQ1TS5KK7ALY81041IARIEKA", "current_trial": 171, "dateTime": 1512971211609, "trialdata": {"rt": [8623, 13232, 16860, 21439, 26750, 32003, 36645, 40117, 45728, 49835, 53905, 58090], "recwords": ["valley", "crater", "drink", "soda", "popcorn", "mustard", "piano", "harp", "dashboard", "sticker", "badge", "globe"], "type": "FREE_RECALL", "conditions": [24, 800, "a", 24000], "trial": 4, "trial_type": "free-recall", "trial_index": 171, "time_elapsed": 943852, "internal_node_id": "0.0-126.0-0.0"}}, {"uniqueid": "MTK1007:32Q90QCQ1TS5KK7ALY81041IARIEKA", "current_trial": 172, "dateTime": 1512971215346, "trialdata": {"rt": 1732, "key_press": 78, "type": "INSTRUCTIONS", "trial_type": "text", "trial_index": 172, "time_elapsed": 947605, "internal_node_id": "0.0-127.0"}}, {"uniqueid": "MTK1007:32Q90QCQ1TS5KK7ALY81041IARIEKA", "current_trial": 173, "dateTime": 1512971241358, "trialdata": {"rt": [3750, 8249, 10949, 13824, 16410, 18597, 21382], "responses": ["11", "18", "8", "19", "12", "11", "4"], "num1": [4, 7, 1, 5, 4, 6, 1, 8], "num2": [3, 8, 6, 5, 3, 1, 2, 7], "num3": [4, 3, 1, 9, 5, 4, 1, 8], "type": "DISTRACTOR", "conditions": [12, 800, "a", 24000], "trial": 5, "trial_type": "math-distractor", "trial_index": 173, "time_elapsed": 973618, "internal_node_id": "0.0-128.0"}}, {"uniqueid": "MTK1007:32Q90QCQ1TS5KK7ALY81041IARIEKA", "current_trial": 174, "dateTime": 1512971244364, "trialdata": {"rt": -1, "stimulus": "<p id=\"stim\">10</p>", "key_press": -1, "trial_type": "single-stim", "trial_index": 174, "time_elapsed": 976624, "internal_node_id": "0.0-129.0-0.0"}}, {"uniqueid": "MTK1007:32Q90QCQ1TS5KK7ALY81041IARIEKA", "current_trial": 175, "dateTime": 1512971245368, "trialdata": {"rt": -1, "stimulus": "<p id=\"stim\">9</p>", "key_press": -1, "trial_type": "single-stim", "trial_index": 175, "time_elapsed": 977628, "internal_node_id": "0.0-129.0-1.0"}}, {"uniqueid": "MTK1007:32Q90QCQ1TS5KK7ALY81041IARIEKA", "current_trial": 176, "dateTime": 1512971246374, "trialdata": {"rt": -1, "stimulus": "<p id=\"stim\">8</p>", "key_press": -1, "trial_type": "single-stim", "trial_index": 176, "time_elapsed": 978634, "internal_node_id": "0.0-129.0-2.0"}}, {"uniqueid": "MTK1007:32Q90QCQ1TS5KK7ALY81041IARIEKA", "current_trial": 177, "dateTime": 1512971247377, "trialdata": {"rt": -1, "stimulus": "<p id=\"stim\">7</p>", "key_press": -1, "trial_type": "single-stim", "trial_index": 177, "time_elapsed": 979636, "internal_node_id": "0.0-129.0-3.0"}}, {"uniqueid": "MTK1007:32Q90QCQ1TS5KK7ALY81041IARIEKA", "current_trial": 178, "dateTime": 1512971248379, "trialdata": {"rt": -1, "stimulus": "<p id=\"stim\">6</p>", "key_press": -1, "trial_type": "single-stim", "trial_index": 178, "time_elapsed": 980638, "internal_node_id": "0.0-129.0-4.0"}}, {"uniqueid": "MTK1007:32Q90QCQ1TS5KK7ALY81041IARIEKA", "current_trial": 179, "dateTime": 1512971249382, "trialdata": {"rt": -1, "stimulus": "<p id=\"stim\">5</p>", "key_press": -1, "trial_type": "single-stim", "trial_index": 179, "time_elapsed": 981641, "internal_node_id": "0.0-129.0-5.0"}}, {"uniqueid": "MTK1007:32Q90QCQ1TS5KK7ALY81041IARIEKA", "current_trial": 180, "dateTime": 1512971250385, "trialdata": {"rt": -1, "stimulus": "<p id=\"stim\">4</p>", "key_press": -1, "trial_type": "single-stim", "trial_index": 180, "time_elapsed": 982645, "internal_node_id": "0.0-129.0-6.0"}}, {"uniqueid": "MTK1007:32Q90QCQ1TS5KK7ALY81041IARIEKA", "current_trial": 181, "dateTime": 1512971251388, "trialdata": {"rt": -1, "stimulus": "<p id=\"stim\">3</p>", "key_press": -1, "trial_type": "single-stim", "trial_index": 181, "time_elapsed": 983647, "internal_node_id": "0.0-129.0-7.0"}}, {"uniqueid": "MTK1007:32Q90QCQ1TS5KK7ALY81041IARIEKA", "current_trial": 182, "dateTime": 1512971252391, "trialdata": {"rt": -1, "stimulus": "<p id=\"stim\">2</p>", "key_press": -1, "trial_type": "single-stim", "trial_index": 182, "time_elapsed": 984651, "internal_node_id": "0.0-129.0-8.0"}}, {"uniqueid": "MTK1007:32Q90QCQ1TS5KK7ALY81041IARIEKA", "current_trial": 183, "dateTime": 1512971253395, "trialdata": {"rt": -1, "stimulus": "<p id=\"stim\">1</p>", "key_press": -1, "trial_type": "single-stim", "trial_index": 183, "time_elapsed": 985655, "internal_node_id": "0.0-129.0-9.0"}}, {"uniqueid": "MTK1007:32Q90QCQ1TS5KK7ALY81041IARIEKA", "current_trial": 184, "dateTime": 1512971254899, "trialdata": {"rt": -1, "stimulus": "<p id=\"stim\">+</p>", "key_press": -1, "type": "FIXATION", "trial_type": "single-stim", "trial_index": 184, "time_elapsed": 987159, "internal_node_id": "0.0-130.0-0.0"}}, {"uniqueid": "MTK1007:32Q90QCQ1TS5KK7ALY81041IARIEKA", "current_trial": 185, "dateTime": 1512971256850, "trialdata": {"rt": -1000, "stimulus": "/static/audio/wordpool/GARDEN.wav", "key_press": -1, "type": "PRES_AUD", "word": "garden", "wordID": 622, "conditions": [12, 800, "a", 24000], "trial": 5, "serialpos": 0, "trial_type": "single-audio", "trial_index": 185, "time_elapsed": 989109, "internal_node_id": "0.0-131.0"}}, {"uniqueid": "MTK1007:32Q90QCQ1TS5KK7ALY81041IARIEKA", "current_trial": 186, "dateTime": 1512971258625, "trialdata": {"rt": -1000, "stimulus": "/static/audio/wordpool/HONEY.wav", "key_press": -1, "type": "PRES_AUD", "word": "honey", "wordID": 712, "conditions": [12, 800, "a", 24000], "trial": 5, "serialpos": 1, "trial_type": "single-audio", "trial_index": 186, "time_elapsed": 990885, "internal_node_id": "0.0-132.0"}}, {"uniqueid": "MTK1007:32Q90QCQ1TS5KK7ALY81041IARIEKA", "current_trial": 187, "dateTime": 1512971260481, "trialdata": {"rt": -1000, "stimulus": "/static/audio/wordpool/COSTUME.wav", "key_press": -1, "type": "PRES_AUD", "word": "costume", "wordID": 382, "conditions": [12, 800, "a", 24000], "trial": 5, "serialpos": 2, "trial_type": "single-audio", "trial_index": 187, "time_elapsed": 992740, "internal_node_id": "0.0-133.0"}}, {"uniqueid": "MTK1007:32Q90QCQ1TS5KK7ALY81041IARIEKA", "current_trial": 188, "dateTime": 1512971262297, "trialdata": {"rt": -1000, "stimulus": "/static/audio/wordpool/HEADBAND.wav", "key_press": -1, "type": "PRES_AUD", "word": "headband", "wordID": 695, "conditions": [12, 800, "a", 24000], "trial": 5, "serialpos": 3, "trial_type": "single-audio", "trial_index": 188, "time_elapsed": 994551, "internal_node_id": "0.0-134.0"}}, {"uniqueid": "MTK1007:32Q90QCQ1TS5KK7ALY81041IARIEKA", "current_trial": 189, "dateTime": 1512971264191, "trialdata": {"rt": -1000, "stimulus": "/static/audio/wordpool/MILK.wav", "key_press": -1, "type": "PRES_AUD", "word": "milk", "wordID": 894, "conditions": [12, 800, "a", 24000], "trial": 5, "serialpos": 4, "trial_type": "single-audio", "trial_index": 189, "time_elapsed": 996451, "internal_node_id": "0.0-135.0"}}, {"uniqueid": "MTK1007:32Q90QCQ1TS5KK7ALY81041IARIEKA", "current_trial": 190, "dateTime": 1512971265927, "trialdata": {"rt": -1000, "stimulus": "/static/audio/wordpool/DRILL.wav", "key_press": -1, "type": "PRES_AUD", "word": "drill", "wordID": 496, "conditions": [12, 800, "a", 24000], "trial": 5, "serialpos": 5, "trial_type": "single-audio", "trial_index": 190, "time_elapsed": 998187, "internal_node_id": "0.0-136.0"}}, {"uniqueid": "MTK1007:32Q90QCQ1TS5KK7ALY81041IARIEKA", "current_trial": 191, "dateTime": 1512971267721, "trialdata": {"rt": -1000, "stimulus": "/static/audio/wordpool/TRENCH.wav", "key_press": -1, "type": "PRES_AUD", "word": "trench", "wordID": 1502, "conditions": [12, 800, "a", 24000], "trial": 5, "serialpos": 6, "trial_type": "single-audio", "trial_index": 191, "time_elapsed": 999981, "internal_node_id": "0.0-137.0"}}, {"uniqueid": "MTK1007:32Q90QCQ1TS5KK7ALY81041IARIEKA", "current_trial": 192, "dateTime": 1512971269704, "trialdata": {"rt": -1000, "stimulus": "/static/audio/wordpool/SNACK.wav", "key_press": -1, "type": "PRES_AUD", "word": "snack", "wordID": 1330, "conditions": [12, 800, "a", 24000], "trial": 5, "serialpos": 7, "trial_type": "single-audio", "trial_index": 192, "time_elapsed": 1001963, "internal_node_id": "0.0-138.0"}}, {"uniqueid": "MTK1007:32Q90QCQ1TS5KK7ALY81041IARIEKA", "current_trial": 193, "dateTime": 1512971271661, "trialdata": {"rt": -1000, "stimulus": "/static/audio/wordpool/LIZARD.wav", "key_press": -1, "type": "PRES_AUD", "word": "lizard", "wordID": 833, "conditions": [12, 800, "a", 24000], "trial": 5, "serialpos": 8, "trial_type": "single-audio", "trial_index": 193, "time_elapsed": 1003920, "internal_node_id": "0.0-139.0"}}, {"uniqueid": "MTK1007:32Q90QCQ1TS5KK7ALY81041IARIEKA", "current_trial": 194, "dateTime": 1512971273349, "trialdata": {"rt": -1000, "stimulus": "/static/audio/wordpool/MAMMAL.wav", "key_press": -1, "type": "PRES_AUD", "word": "mammal", "wordID": 860, "conditions": [12, 800, "a", 24000], "trial": 5, "serialpos": 9, "trial_type": "single-audio", "trial_index": 194, "time_elapsed": 1005608, "internal_node_id": "0.0-140.0"}}, {"uniqueid": "MTK1007:32Q90QCQ1TS5KK7ALY81041IARIEKA", "current_trial": 195, "dateTime": 1512971275359, "trialdata": {"rt": -1000, "stimulus": "/static/audio/wordpool/REBEL.wav", "key_press": -1, "type": "PRES_AUD", "word": "rebel", "wordID": 1171, "conditions": [12, 800, "a", 24000], "trial": 5, "serialpos": 10, "trial_type": "single-audio", "trial_index": 195, "time_elapsed": 1007619, "internal_node_id": "0.0-141.0"}}, {"uniqueid": "MTK1007:32Q90QCQ1TS5KK7ALY81041IARIEKA", "current_trial": 196, "dateTime": 1512971276996, "trialdata": {"rt": -1000, "stimulus": "/static/audio/wordpool/FRAME.wav", "key_press": -1, "type": "PRES_AUD", "word": "frame", "wordID": 599, "conditions": [12, 800, "a", 24000], "trial": 5, "serialpos": 11, "trial_type": "single-audio", "trial_index": 196, "time_elapsed": 1009256, "internal_node_id": "0.0-142.0"}}, {"uniqueid": "MTK1007:32Q90QCQ1TS5KK7ALY81041IARIEKA", "current_trial": 197, "dateTime": 1512971278356, "trialdata": {"rt": -1, "stimulus": "", "key_press": -1, "type": "PRE_RECALL_DELAY", "trial_type": "single-stim", "trial_index": 197, "time_elapsed": 1010616, "internal_node_id": "0.0-143.0-0.0"}}, {"uniqueid": "MTK1007:32Q90QCQ1TS5KK7ALY81041IARIEKA", "current_trial": 198, "dateTime": 1512971278861, "trialdata": {"rt": -1000, "stimulus": "/static/audio/400Hz.wav", "key_press": -1, "type": "PRE_RECALL_ALERT", "trial_type": "single-audio", "trial_index": 198, "time_elapsed": 1011120, "internal_node_id": "0.0-144.0"}}, {"uniqueid": "MTK1007:32Q90QCQ1TS5KK7ALY81041IARIEKA", "current_trial": 199, "dateTime": 1512971338887, "trialdata": {"rt": [6292, 10454, 16978, 21256, 26691, 30313, 35309, 42441, 55620], "recwords": ["frame", "honey", "garden", "costume", "rebel", "drill", "mammal", "lizard", "costume"], "type": "FREE_RECALL", "conditions": [12, 800, "a", 24000], "trial": 5, "trial_type": "free-recall", "trial_index": 199, "time_elapsed": 1071130, "internal_node_id": "0.0-145.0-0.0"}}, {"uniqueid": "MTK1007:32Q90QCQ1TS5KK7ALY81041IARIEKA", "current_trial": 200, "dateTime": 1512971342863, "trialdata": {"rt": 1971, "key_press": 72, "type": "INSTRUCTIONS", "trial_type": "text", "trial_index": 200, "time_elapsed": 1075122, "internal_node_id": "0.0-146.0"}}, {"uniqueid": "MTK1007:32Q90QCQ1TS5KK7ALY81041IARIEKA", "current_trial": 201, "dateTime": 1512971356875, "trialdata": {"rt": [5197, 8629], "responses": ["16", "18"], "num1": [5, 9, 9], "num2": [5, 2, 6], "num3": [6, 7, 9], "type": "DISTRACTOR", "conditions": [12, 800, "v", 12000], "trial": 6, "trial_type": "math-distractor", "trial_index": 201, "time_elapsed": 1089134, "internal_node_id": "0.0-147.0"}}, {"uniqueid": "MTK1007:32Q90QCQ1TS5KK7ALY81041IARIEKA", "current_trial": 202, "dateTime": 1512971359881, "trialdata": {"rt": -1, "stimulus": "<p id=\"stim\">10</p>", "key_press": -1, "trial_type": "single-stim", "trial_index": 202, "time_elapsed": 1092140, "internal_node_id": "0.0-148.0-0.0"}}, {"uniqueid": "MTK1007:32Q90QCQ1TS5KK7ALY81041IARIEKA", "current_trial": 203, "dateTime": 1512971360886, "trialdata": {"rt": -1, "stimulus": "<p id=\"stim\">9</p>", "key_press": -1, "trial_type": "single-stim", "trial_index": 203, "time_elapsed": 1093146, "internal_node_id": "0.0-148.0-1.0"}}, {"uniqueid": "MTK1007:32Q90QCQ1TS5KK7ALY81041IARIEKA", "current_trial": 204, "dateTime": 1512971361892, "trialdata": {"rt": -1, "stimulus": "<p id=\"stim\">8</p>", "key_press": -1, "trial_type": "single-stim", "trial_index": 204, "time_elapsed": 1094151, "internal_node_id": "0.0-148.0-2.0"}}, {"uniqueid": "MTK1007:32Q90QCQ1TS5KK7ALY81041IARIEKA", "current_trial": 205, "dateTime": 1512971362896, "trialdata": {"rt": -1, "stimulus": "<p id=\"stim\">7</p>", "key_press": -1, "trial_type": "single-stim", "trial_index": 205, "time_elapsed": 1095155, "internal_node_id": "0.0-148.0-3.0"}}, {"uniqueid": "MTK1007:32Q90QCQ1TS5KK7ALY81041IARIEKA", "current_trial": 206, "dateTime": 1512971363902, "trialdata": {"rt": -1, "stimulus": "<p id=\"stim\">6</p>", "key_press": -1, "trial_type": "single-stim", "trial_index": 206, "time_elapsed": 1096161, "internal_node_id": "0.0-148.0-4.0"}}, {"uniqueid": "MTK1007:32Q90QCQ1TS5KK7ALY81041IARIEKA", "current_trial": 207, "dateTime": 1512971364906, "trialdata": {"rt": -1, "stimulus": "<p id=\"stim\">5</p>", "key_press": -1, "trial_type": "single-stim", "trial_index": 207, "time_elapsed": 1097165, "internal_node_id": "0.0-148.0-5.0"}}, {"uniqueid": "MTK1007:32Q90QCQ1TS5KK7ALY81041IARIEKA", "current_trial": 208, "dateTime": 1512971365909, "trialdata": {"rt": -1, "stimulus": "<p id=\"stim\">4</p>", "key_press": -1, "trial_type": "single-stim", "trial_index": 208, "time_elapsed": 1098168, "internal_node_id": "0.0-148.0-6.0"}}, {"uniqueid": "MTK1007:32Q90QCQ1TS5KK7ALY81041IARIEKA", "current_trial": 209, "dateTime": 1512971366912, "trialdata": {"rt": -1, "stimulus": "<p id=\"stim\">3</p>", "key_press": -1, "trial_type": "single-stim", "trial_index": 209, "time_elapsed": 1099171, "internal_node_id": "0.0-148.0-7.0"}}, {"uniqueid": "MTK1007:32Q90QCQ1TS5KK7ALY81041IARIEKA", "current_trial": 210, "dateTime": 1512971367917, "trialdata": {"rt": -1, "stimulus": "<p id=\"stim\">2</p>", "key_press": -1, "trial_type": "single-stim", "trial_index": 210, "time_elapsed": 1100177, "internal_node_id": "0.0-148.0-8.0"}}, {"uniqueid": "MTK1007:32Q90QCQ1TS5KK7ALY81041IARIEKA", "current_trial": 211, "dateTime": 1512971368921, "trialdata": {"rt": -1, "stimulus": "<p id=\"stim\">1</p>", "key_press": -1, "trial_type": "single-stim", "trial_index": 211, "time_elapsed": 1101181, "internal_node_id": "0.0-148.0-9.0"}}, {"uniqueid": "MTK1007:32Q90QCQ1TS5KK7ALY81041IARIEKA", "current_trial": 212, "dateTime": 1512971370425, "trialdata": {"rt": -1, "stimulus": "<p id=\"stim\">+</p>", "key_press": -1, "type": "FIXATION", "trial_type": "single-stim", "trial_index": 212, "time_elapsed": 1102684, "internal_node_id": "0.0-149.0-0.0"}}, {"uniqueid": "MTK1007:32Q90QCQ1TS5KK7ALY81041IARIEKA", "current_trial": 213, "dateTime": 1512971371233, "trialdata": {"rt": -1, "stimulus": "<p id=\"stim\">BROTHER</p>", "key_press": -1, "type": "PRES_VIS", "word": "brother", "wordID": 178, "conditions": [12, 800, "v", 12000], "trial": 6, "serialpos": 0, "trial_type": "single-stim", "trial_index": 213, "time_elapsed": 1103488, "internal_node_id": "0.0-150.0"}}, {"uniqueid": "MTK1007:32Q90QCQ1TS5KK7ALY81041IARIEKA", "current_trial": 214, "dateTime": 1512971373197, "trialdata": {"rt": -1, "stimulus": "<p id=\"stim\">ASIA</p>", "key_press": -1, "type": "PRES_VIS", "word": "asia", "wordID": 45, "conditions": [12, 800, "v", 12000], "trial": 6, "serialpos": 1, "trial_type": "single-stim", "trial_index": 214, "time_elapsed": 1105457, "internal_node_id": "0.0-151.0"}}, {"uniqueid": "MTK1007:32Q90QCQ1TS5KK7ALY81041IARIEKA", "current_trial": 215, "dateTime": 1512971374811, "trialdata": {"rt": -1, "stimulus": "<p id=\"stim\">CLIMBER</p>", "key_press": -1, "type": "PRES_VIS", "word": "climber", "wordID": 322, "conditions": [12, 800, "v", 12000], "trial": 6, "serialpos": 2, "trial_type": "single-stim", "trial_index": 215, "time_elapsed": 1107070, "internal_node_id": "0.0-152.0"}}, {"uniqueid": "MTK1007:32Q90QCQ1TS5KK7ALY81041IARIEKA", "current_trial": 216, "dateTime": 1512971376642, "trialdata": {"rt": -1, "stimulus": "<p id=\"stim\">WORLD</p>", "key_press": -1, "type": "PRES_VIS", "word": "world", "wordID": 1621, "conditions": [12, 800, "v", 12000], "trial": 6, "serialpos": 3, "trial_type": "single-stim", "trial_index": 216, "time_elapsed": 1108901, "internal_node_id": "0.0-153.0"}}, {"uniqueid": "MTK1007:32Q90QCQ1TS5KK7ALY81041IARIEKA", "current_trial": 217, "dateTime": 1512971378444, "trialdata": {"rt": -1, "stimulus": "<p id=\"stim\">BATHTUB</p>", "key_press": -1, "type": "PRES_VIS", "word": "bathtub", "wordID": 99, "conditions": [12, 800, "v", 12000], "trial": 6, "serialpos": 4, "trial_type": "single-stim", "trial_index": 217, "time_elapsed": 1110703, "internal_node_id": "0.0-154.0"}}, {"uniqueid": "MTK1007:32Q90QCQ1TS5KK7ALY81041IARIEKA", "current_trial": 218, "dateTime": 1512971380170, "trialdata": {"rt": -1, "stimulus": "<p id=\"stim\">WASP</p>", "key_press": -1, "type": "PRES_VIS", "word": "wasp", "wordID": 1592, "conditions": [12, 800, "v", 12000], "trial": 6, "serialpos": 5, "trial_type": "single-stim", "trial_index": 218, "time_elapsed": 1112429, "internal_node_id": "0.0-155.0"}}, {"uniqueid": "MTK1007:32Q90QCQ1TS5KK7ALY81041IARIEKA", "current_trial": 219, "dateTime": 1512971381900, "trialdata": {"rt": -1, "stimulus": "<p id=\"stim\">PRIMATE</p>", "key_press": -1, "type": "PRES_VIS", "word": "primate", "wordID": 1122, "conditions": [12, 800, "v", 12000], "trial": 6, "serialpos": 6, "trial_type": "single-stim", "trial_index": 219, "time_elapsed": 1114159, "internal_node_id": "0.0-156.0"}}, {"uniqueid": "MTK1007:32Q90QCQ1TS5KK7ALY81041IARIEKA", "current_trial": 220, "dateTime": 1512971383868, "trialdata": {"rt": -1, "stimulus": "<p id=\"stim\">LAGOON</p>", "key_press": -1, "type": "PRES_VIS", "word": "lagoon", "wordID": 794, "conditions": [12, 800, "v", 12000], "trial": 6, "serialpos": 7, "trial_type": "single-stim", "trial_index": 220, "time_elapsed": 1116127, "internal_node_id": "0.0-157.0"}}, {"uniqueid": "MTK1007:32Q90QCQ1TS5KK7ALY81041IARIEKA", "current_trial": 221, "dateTime": 1512971385526, "trialdata": {"rt": -1, "stimulus": "<p id=\"stim\">LAKE</p>", "key_press": -1, "type": "PRES_VIS", "word": "lake", "wordID": 795, "conditions": [12, 800, "v", 12000], "trial": 6, "serialpos": 8, "trial_type": "single-stim", "trial_index": 221, "time_elapsed": 1117786, "internal_node_id": "0.0-158.0"}}, {"uniqueid": "MTK1007:32Q90QCQ1TS5KK7ALY81041IARIEKA", "current_trial": 222, "dateTime": 1512971387339, "trialdata": {"rt": -1, "stimulus": "<p id=\"stim\">BUGGY</p>", "key_press": -1, "type": "PRES_VIS", "word": "buggy", "wordID": 187, "conditions": [12, 800, "v", 12000], "trial": 6, "serialpos": 9, "trial_type": "single-stim", "trial_index": 222, "time_elapsed": 1119598, "internal_node_id": "0.0-159.0"}}, {"uniqueid": "MTK1007:32Q90QCQ1TS5KK7ALY81041IARIEKA", "current_trial": 223, "dateTime": 1512971389206, "trialdata": {"rt": -1, "stimulus": "<p id=\"stim\">GIRL</p>", "key_press": -1, "type": "PRES_VIS", "word": "girl", "wordID": 636, "conditions": [12, 800, "v", 12000], "trial": 6, "serialpos": 10, "trial_type": "single-stim", "trial_index": 223, "time_elapsed": 1121466, "internal_node_id": "0.0-160.0"}}, {"uniqueid": "MTK1007:32Q90QCQ1TS5KK7ALY81041IARIEKA", "current_trial": 224, "dateTime": 1512971390883, "trialdata": {"rt": -1, "stimulus": "<p id=\"stim\">DAUGHTER</p>", "key_press": -1, "type": "PRES_VIS", "word": "daughter", "wordID": 441, "conditions": [12, 800, "v", 12000], "trial": 6, "serialpos": 11, "trial_type": "single-stim", "trial_index": 224, "time_elapsed": 1123142, "internal_node_id": "0.0-161.0"}}, {"uniqueid": "MTK1007:32Q90QCQ1TS5KK7ALY81041IARIEKA", "current_trial": 225, "dateTime": 1512971393092, "trialdata": {"rt": -1, "stimulus": "", "key_press": -1, "type": "PRE_RECALL_DELAY", "trial_type": "single-stim", "trial_index": 225, "time_elapsed": 1125352, "internal_node_id": "0.0-162.0-0.0"}}, {"uniqueid": "MTK1007:32Q90QCQ1TS5KK7ALY81041IARIEKA", "current_trial": 226, "dateTime": 1512971393597, "trialdata": {"rt": -1000, "stimulus": "/static/audio/400Hz.wav", "key_press": -1, "type": "PRE_RECALL_ALERT", "trial_type": "single-audio", "trial_index": 226, "time_elapsed": 1125857, "internal_node_id": "0.0-163.0"}}, {"uniqueid": "MTK1007:32Q90QCQ1TS5KK7ALY81041IARIEKA", "current_trial": 227, "dateTime": 1512971453623, "trialdata": {"rt": [4476, 9135, 15310, 18740, 24155, 30597, 36680, 44848, 51390, 55993], "recwords": ["brother", "daughter", "bathtub", "wasp", "primate", "asia", "climb", "world", "buggy", "lagoon"], "type": "FREE_RECALL", "conditions": [12, 800, "v", 12000], "trial": 6, "trial_type": "free-recall", "trial_index": 227, "time_elapsed": 1185865, "internal_node_id": "0.0-164.0-0.0"}}, {"uniqueid": "MTK1007:32Q90QCQ1TS5KK7ALY81041IARIEKA", "current_trial": 228, "dateTime": 1512971457919, "trialdata": {"rt": 2294, "key_press": 71, "type": "INSTRUCTIONS", "trial_type": "text", "trial_index": 228, "time_elapsed": 1190179, "internal_node_id": "0.0-165.0"}}, {"uniqueid": "MTK1007:32Q90QCQ1TS5KK7ALY81041IARIEKA", "current_trial": 229, "dateTime": 1512971471930, "trialdata": {"rt": [2976, 8280, 11872], "responses": ["7", "25", "10"], "num1": [1, 9, 3, 5], "num2": [4, 7, 5, 2], "num3": [2, 9, 2, 6], "type": "DISTRACTOR", "conditions": [24, 1600, "v", 12000], "trial": 7, "trial_type": "math-distractor", "trial_index": 229, "time_elapsed": 1204190, "internal_node_id": "0.0-166.0"}}, {"uniqueid": "MTK1007:32Q90QCQ1TS5KK7ALY81041IARIEKA", "current_trial": 230, "dateTime": 1512971474936, "trialdata": {"rt": -1, "stimulus": "<p id=\"stim\">10</p>", "key_press": -1, "trial_type": "single-stim", "trial_index": 230, "time_elapsed": 1207195, "internal_node_id": "0.0-167.0-0.0"}}, {"uniqueid": "MTK1007:32Q90QCQ1TS5KK7ALY81041IARIEKA", "current_trial": 231, "dateTime": 1512971475940, "trialdata": {"rt": -1, "stimulus": "<p id=\"stim\">9</p>", "key_press": -1, "trial_type": "single-stim", "trial_index": 231, "time_elapsed": 1208200, "internal_node_id": "0.0-167.0-1.0"}}, {"uniqueid": "MTK1007:32Q90QCQ1TS5KK7ALY81041IARIEKA", "current_trial": 232, "dateTime": 1512971476944, "trialdata": {"rt": -1, "stimulus": "<p id=\"stim\">8</p>", "key_press": -1, "trial_type": "single-stim", "trial_index": 232, "time_elapsed": 1209204, "internal_node_id": "0.0-167.0-2.0"}}, {"uniqueid": "MTK1007:32Q90QCQ1TS5KK7ALY81041IARIEKA", "current_trial": 233, "dateTime": 1512971477947, "trialdata": {"rt": -1, "stimulus": "<p id=\"stim\">7</p>", "key_press": -1, "trial_type": "single-stim", "trial_index": 233, "time_elapsed": 1210207, "internal_node_id": "0.0-167.0-3.0"}}, {"uniqueid": "MTK1007:32Q90QCQ1TS5KK7ALY81041IARIEKA", "current_trial": 234, "dateTime": 1512971478953, "trialdata": {"rt": -1, "stimulus": "<p id=\"stim\">6</p>", "key_press": -1, "trial_type": "single-stim", "trial_index": 234, "time_elapsed": 1211212, "internal_node_id": "0.0-167.0-4.0"}}, {"uniqueid": "MTK1007:32Q90QCQ1TS5KK7ALY81041IARIEKA", "current_trial": 235, "dateTime": 1512971479963, "trialdata": {"rt": -1, "stimulus": "<p id=\"stim\">5</p>", "key_press": -1, "trial_type": "single-stim", "trial_index": 235, "time_elapsed": 1212217, "internal_node_id": "0.0-167.0-5.0"}}, {"uniqueid": "MTK1007:32Q90QCQ1TS5KK7ALY81041IARIEKA", "current_trial": 236, "dateTime": 1512971480966, "trialdata": {"rt": -1, "stimulus": "<p id=\"stim\">4</p>", "key_press": -1, "trial_type": "single-stim", "trial_index": 236, "time_elapsed": 1213226, "internal_node_id": "0.0-167.0-6.0"}}, {"uniqueid": "MTK1007:32Q90QCQ1TS5KK7ALY81041IARIEKA", "current_trial": 237, "dateTime": 1512971481971, "trialdata": {"rt": -1, "stimulus": "<p id=\"stim\">3</p>", "key_press": -1, "trial_type": "single-stim", "trial_index": 237, "time_elapsed": 1214230, "internal_node_id": "0.0-167.0-7.0"}}, {"uniqueid": "MTK1007:32Q90QCQ1TS5KK7ALY81041IARIEKA", "current_trial": 238, "dateTime": 1512971482975, "trialdata": {"rt": -1, "stimulus": "<p id=\"stim\">2</p>", "key_press": -1, "trial_type": "single-stim", "trial_index": 238, "time_elapsed": 1215235, "internal_node_id": "0.0-167.0-8.0"}}, {"uniqueid": "MTK1007:32Q90QCQ1TS5KK7ALY81041IARIEKA", "current_trial": 239, "dateTime": 1512971483980, "trialdata": {"rt": -1, "stimulus": "<p id=\"stim\">1</p>", "key_press": -1, "trial_type": "single-stim", "trial_index": 239, "time_elapsed": 1216240, "internal_node_id": "0.0-167.0-9.0"}}, {"uniqueid": "MTK1007:32Q90QCQ1TS5KK7ALY81041IARIEKA", "current_trial": 240, "dateTime": 1512971485485, "trialdata": {"rt": -1, "stimulus": "<p id=\"stim\">+</p>", "key_press": -1, "type": "FIXATION", "trial_type": "single-stim", "trial_index": 240, "time_elapsed": 1217745, "internal_node_id": "0.0-168.0-0.0"}}, {"uniqueid": "MTK1007:32Q90QCQ1TS5KK7ALY81041IARIEKA", "current_trial": 241, "dateTime": 1512971487090, "trialdata": {"rt": -1, "stimulus": "<p id=\"stim\">CAFE</p>", "key_press": -1, "type": "PRES_VIS", "word": "cafe", "wordID": 215, "conditions": [24, 1600, "v", 12000], "trial": 7, "serialpos": 0, "trial_type": "single-stim", "trial_index": 241, "time_elapsed": 1219349, "internal_node_id": "0.0-169.0"}}, {"uniqueid": "MTK1007:32Q90QCQ1TS5KK7ALY81041IARIEKA", "current_trial": 242, "dateTime": 1512971489632, "trialdata": {"rt": -1, "stimulus": "<p id=\"stim\">HUSBAND</p>", "key_press": -1, "type": "PRES_VIS", "word": "husband", "wordID": 727, "conditions": [24, 1600, "v", 12000], "trial": 7, "serialpos": 1, "trial_type": "single-stim", "trial_index": 242, "time_elapsed": 1221891, "internal_node_id": "0.0-170.0"}}, {"uniqueid": "MTK1007:32Q90QCQ1TS5KK7ALY81041IARIEKA", "current_trial": 243, "dateTime": 1512971492047, "trialdata": {"rt": -1, "stimulus": "<p id=\"stim\">SUMMIT</p>", "key_press": -1, "type": "PRES_VIS", "word": "summit", "wordID": 1404, "conditions": [24, 1600, "v", 12000], "trial": 7, "serialpos": 2, "trial_type": "single-stim", "trial_index": 243, "time_elapsed": 1224306, "internal_node_id": "0.0-171.0"}}, {"uniqueid": "MTK1007:32Q90QCQ1TS5KK7ALY81041IARIEKA", "current_trial": 244, "dateTime": 1512971494480, "trialdata": {"rt": -1, "stimulus": "<p id=\"stim\">HIKER</p>", "key_press": -1, "type": "PRES_VIS", "word": "hiker", "wordID": 707, "conditions": [24, 1600, "v", 12000], "trial": 7, "serialpos": 3, "trial_type": "single-stim", "trial_index": 244, "time_elapsed": 1226739, "internal_node_id": "0.0-172.0"}}, {"uniqueid": "MTK1007:32Q90QCQ1TS5KK7ALY81041IARIEKA", "current_trial": 245, "dateTime": 1512971497136, "trialdata": {"rt": -1, "stimulus": "<p id=\"stim\">SIDEWALK</p>", "key_press": -1, "type": "PRES_VIS", "word": "sidewalk", "wordID": 1302, "conditions": [24, 1600, "v", 12000], "trial": 7, "serialpos": 4, "trial_type": "single-stim", "trial_index": 245, "time_elapsed": 1229395, "internal_node_id": "0.0-173.0"}}, {"uniqueid": "MTK1007:32Q90QCQ1TS5KK7ALY81041IARIEKA", "current_trial": 246, "dateTime": 1512971499647, "trialdata": {"rt": -1, "stimulus": "<p id=\"stim\">OUTLAW</p>", "key_press": -1, "type": "PRES_VIS", "word": "outlaw", "wordID": 988, "conditions": [24, 1600, "v", 12000], "trial": 7, "serialpos": 5, "trial_type": "single-stim", "trial_index": 246, "time_elapsed": 1231907, "internal_node_id": "0.0-174.0"}}, {"uniqueid": "MTK1007:32Q90QCQ1TS5KK7ALY81041IARIEKA", "current_trial": 247, "dateTime": 1512971502075, "trialdata": {"rt": -1, "stimulus": "<p id=\"stim\">UNCLE</p>", "key_press": -1, "type": "PRES_VIS", "word": "uncle", "wordID": 1535, "conditions": [24, 1600, "v", 12000], "trial": 7, "serialpos": 6, "trial_type": "single-stim", "trial_index": 247, "time_elapsed": 1234334, "internal_node_id": "0.0-175.0"}}, {"uniqueid": "MTK1007:32Q90QCQ1TS5KK7ALY81041IARIEKA", "current_trial": 248, "dateTime": 1512971504547, "trialdata": {"rt": -1, "stimulus": "<p id=\"stim\">ONION</p>", "key_press": -1, "type": "PRES_VIS", "word": "onion", "wordID": 976, "conditions": [24, 1600, "v", 12000], "trial": 7, "serialpos": 7, "trial_type": "single-stim", "trial_index": 248, "time_elapsed": 1236806, "internal_node_id": "0.0-176.0"}}, {"uniqueid": "MTK1007:32Q90QCQ1TS5KK7ALY81041IARIEKA", "current_trial": 249, "dateTime": 1512971507122, "trialdata": {"rt": -1, "stimulus": "<p id=\"stim\">MONSTER</p>", "key_press": -1, "type": "PRES_VIS", "word": "monster", "wordID": 911, "conditions": [24, 1600, "v", 12000], "trial": 7, "serialpos": 8, "trial_type": "single-stim", "trial_index": 249, "time_elapsed": 1239381, "internal_node_id": "0.0-177.0"}}, {"uniqueid": "MTK1007:32Q90QCQ1TS5KK7ALY81041IARIEKA", "current_trial": 250, "dateTime": 1512971509631, "trialdata": {"rt": -1, "stimulus": "<p id=\"stim\">CATTLE</p>", "key_press": -1, "type": "PRES_VIS", "word": "cattle", "wordID": 260, "conditions": [24, 1600, "v", 12000], "trial": 7, "serialpos": 9, "trial_type": "single-stim", "trial_index": 250, "time_elapsed": 1241890, "internal_node_id": "0.0-178.0"}}, {"uniqueid": "MTK1007:32Q90QCQ1TS5KK7ALY81041IARIEKA", "current_trial": 251, "dateTime": 1512971512050, "trialdata": {"rt": -1, "stimulus": "<p id=\"stim\">BISON</p>", "key_press": -1, "type": "PRES_VIS", "word": "bison", "wordID": 130, "conditions": [24, 1600, "v", 12000], "trial": 7, "serialpos": 10, "trial_type": "single-stim", "trial_index": 251, "time_elapsed": 1244309, "internal_node_id": "0.0-179.0"}}, {"uniqueid": "MTK1007:32Q90QCQ1TS5KK7ALY81041IARIEKA", "current_trial": 252, "dateTime": 1512971514810, "trialdata": {"rt": -1, "stimulus": "<p id=\"stim\">ICING</p>", "key_press": -1, "type": "PRES_VIS", "word": "icing", "wordID": 731, "conditions": [24, 1600, "v", 12000], "trial": 7, "serialpos": 11, "trial_type": "single-stim", "trial_index": 252, "time_elapsed": 1247069, "internal_node_id": "0.0-180.0"}}, {"uniqueid": "MTK1007:32Q90QCQ1TS5KK7ALY81041IARIEKA", "current_trial": 253, "dateTime": 1512971517519, "trialdata": {"rt": -1, "stimulus": "<p id=\"stim\">BINDER</p>", "key_press": -1, "type": "PRES_VIS", "word": "binder", "wordID": 126, "conditions": [24, 1600, "v", 12000], "trial": 7, "serialpos": 12, "trial_type": "single-stim", "trial_index": 253, "time_elapsed": 1249778, "internal_node_id": "0.0-181.0"}}, {"uniqueid": "MTK1007:32Q90QCQ1TS5KK7ALY81041IARIEKA", "current_trial": 254, "dateTime": 1512971520078, "trialdata": {"rt": -1, "stimulus": "<p id=\"stim\">PEANUT</p>", "key_press": -1, "type": "PRES_VIS", "word": "peanut", "wordID": 1031, "conditions": [24, 1600, "v", 12000], "trial": 7, "serialpos": 13, "trial_type": "single-stim", "trial_index": 254, "time_elapsed": 1252338, "internal_node_id": "0.0-182.0"}}, {"uniqueid": "MTK1007:32Q90QCQ1TS5KK7ALY81041IARIEKA", "current_trial": 255, "dateTime": 1512971522746, "trialdata": {"rt": -1, "stimulus": "<p id=\"stim\">PROTON</p>", "key_press": -1, "type": "PRES_VIS", "word": "proton", "wordID": 1131, "conditions": [24, 1600, "v", 12000], "trial": 7, "serialpos": 14, "trial_type": "single-stim", "trial_index": 255, "time_elapsed": 1255005, "internal_node_id": "0.0-183.0"}}, {"uniqueid": "MTK1007:32Q90QCQ1TS5KK7ALY81041IARIEKA", "current_trial": 256, "dateTime": 1512971525482, "trialdata": {"rt": -1, "stimulus": "<p id=\"stim\">HOUND</p>", "key_press": -1, "type": "PRES_VIS", "word": "hound", "wordID": 723, "conditions": [24, 1600, "v", 12000], "trial": 7, "serialpos": 15, "trial_type": "single-stim", "trial_index": 256, "time_elapsed": 1257742, "internal_node_id": "0.0-184.0"}}, {"uniqueid": "MTK1007:32Q90QCQ1TS5KK7ALY81041IARIEKA", "current_trial": 257, "dateTime": 1512971528092, "trialdata": {"rt": -1, "stimulus": "<p id=\"stim\">SNAIL</p>", "key_press": -1, "type": "PRES_VIS", "word": "snail", "wordID": 1331, "conditions": [24, 1600, "v", 12000], "trial": 7, "serialpos": 16, "trial_type": "single-stim", "trial_index": 257, "time_elapsed": 1260351, "internal_node_id": "0.0-185.0"}}, {"uniqueid": "MTK1007:32Q90QCQ1TS5KK7ALY81041IARIEKA", "current_trial": 258, "dateTime": 1512971530500, "trialdata": {"rt": -1, "stimulus": "<p id=\"stim\">KNAPSACK</p>", "key_press": -1, "type": "PRES_VIS", "word": "knapsack", "wordID": 782, "conditions": [24, 1600, "v", 12000], "trial": 7, "serialpos": 17, "trial_type": "single-stim", "trial_index": 258, "time_elapsed": 1262759, "internal_node_id": "0.0-186.0"}}, {"uniqueid": "MTK1007:32Q90QCQ1TS5KK7ALY81041IARIEKA", "current_trial": 259, "dateTime": 1512971533265, "trialdata": {"rt": -1, "stimulus": "<p id=\"stim\">SUITCASE</p>", "key_press": -1, "type": "PRES_VIS", "word": "suitcase", "wordID": 1402, "conditions": [24, 1600, "v", 12000], "trial": 7, "serialpos": 18, "trial_type": "single-stim", "trial_index": 259, "time_elapsed": 1265524, "internal_node_id": "0.0-187.0"}}, {"uniqueid": "MTK1007:32Q90QCQ1TS5KK7ALY81041IARIEKA", "current_trial": 260, "dateTime": 1512971536068, "trialdata": {"rt": -1, "stimulus": "<p id=\"stim\">FOOT</p>", "key_press": -1, "type": "PRES_VIS", "word": "foot", "wordID": 589, "conditions": [24, 1600, "v", 12000], "trial": 7, "serialpos": 19, "trial_type": "single-stim", "trial_index": 260, "time_elapsed": 1268328, "internal_node_id": "0.0-188.0"}}, {"uniqueid": "MTK1007:32Q90QCQ1TS5KK7ALY81041IARIEKA", "current_trial": 261, "dateTime": 1512971538801, "trialdata": {"rt": -1, "stimulus": "<p id=\"stim\">TORTOISE</p>", "key_press": -1, "type": "PRES_VIS", "word": "tortoise", "wordID": 1485, "conditions": [24, 1600, "v", 12000], "trial": 7, "serialpos": 20, "trial_type": "single-stim", "trial_index": 261, "time_elapsed": 1271060, "internal_node_id": "0.0-189.0"}}, {"uniqueid": "MTK1007:32Q90QCQ1TS5KK7ALY81041IARIEKA", "current_trial": 262, "dateTime": 1512971541326, "trialdata": {"rt": -1, "stimulus": "<p id=\"stim\">AGENT</p>", "key_press": -1, "type": "PRES_VIS", "word": "agent", "wordID": 9, "conditions": [24, 1600, "v", 12000], "trial": 7, "serialpos": 21, "trial_type": "single-stim", "trial_index": 262, "time_elapsed": 1273586, "internal_node_id": "0.0-190.0"}}, {"uniqueid": "MTK1007:32Q90QCQ1TS5KK7ALY81041IARIEKA", "current_trial": 263, "dateTime": 1512971543965, "trialdata": {"rt": -1, "stimulus": "<p id=\"stim\">GALLON</p>", "key_press": -1, "type": "PRES_VIS", "word": "gallon", "wordID": 617, "conditions": [24, 1600, "v", 12000], "trial": 7, "serialpos": 22, "trial_type": "single-stim", "trial_index": 263, "time_elapsed": 1276224, "internal_node_id": "0.0-191.0"}}, {"uniqueid": "MTK1007:32Q90QCQ1TS5KK7ALY81041IARIEKA", "current_trial": 264, "dateTime": 1512971546633, "trialdata": {"rt": -1, "stimulus": "<p id=\"stim\">PANTHER</p>", "key_press": -1, "type": "PRES_VIS", "word": "panther", "wordID": 1008, "conditions": [24, 1600, "v", 12000], "trial": 7, "serialpos": 23, "trial_type": "single-stim", "trial_index": 264, "time_elapsed": 1278892, "internal_node_id": "0.0-192.0"}}, {"uniqueid": "MTK1007:32Q90QCQ1TS5KK7ALY81041IARIEKA", "current_trial": 265, "dateTime": 1512971548986, "trialdata": {"rt": -1, "stimulus": "", "key_press": -1, "type": "PRE_RECALL_DELAY", "trial_type": "single-stim", "trial_index": 265, "time_elapsed": 1281246, "internal_node_id": "0.0-193.0-0.0"}}, {"uniqueid": "MTK1007:32Q90QCQ1TS5KK7ALY81041IARIEKA", "current_trial": 266, "dateTime": 1512971549491, "trialdata": {"rt": -1000, "stimulus": "/static/audio/400Hz.wav", "key_press": -1, "type": "PRE_RECALL_ALERT", "trial_type": "single-audio", "trial_index": 266, "time_elapsed": 1281751, "internal_node_id": "0.0-194.0"}}, {"uniqueid": "MTK1007:32Q90QCQ1TS5KK7ALY81041IARIEKA", "current_trial": 267, "dateTime": 1512971609499, "trialdata": {"rt": [4355, 9044, 12640, 16157, 21438, 25232, 30530, 35796, 39354, 43596, 48867, 53692, 59550], "recwords": ["panther", "bison", "cattle", "cafe", "sidewalk", "onion", "icing", "husband", "outlaw", "agent", "cattle", "proton", "hiker"], "type": "FREE_RECALL", "conditions": [24, 1600, "v", 12000], "trial": 7, "trial_type": "free-recall", "trial_index": 267, "time_elapsed": 1341753, "internal_node_id": "0.0-195.0-0.0"}}, {"uniqueid": "MTK1007:32Q90QCQ1TS5KK7ALY81041IARIEKA", "current_trial": 268, "dateTime": 1512971616538, "trialdata": {"rt": 5033, "key_press": 66, "type": "INSTRUCTIONS", "trial_type": "text", "trial_index": 268, "time_elapsed": 1348798, "internal_node_id": "0.0-196.0"}}, {"uniqueid": "MTK1007:32Q90QCQ1TS5KK7ALY81041IARIEKA", "current_trial": 269, "dateTime": 1512971630552, "trialdata": {"rt": [3064, 6200, 8824, 11205], "responses": ["16", "15", "23", "12"], "num1": [7, 4, 8, 1, 8], "num2": [4, 2, 7, 4, 2], "num3": [5, 9, 8, 7, 7], "type": "DISTRACTOR", "conditions": [24, 800, "v", 12000], "trial": 8, "trial_type": "math-distractor", "trial_index": 269, "time_elapsed": 1362811, "internal_node_id": "0.0-197.0"}}, {"uniqueid": "MTK1007:32Q90QCQ1TS5KK7ALY81041IARIEKA", "current_trial": 270, "dateTime": 1512971633558, "trialdata": {"rt": -1, "stimulus": "<p id=\"stim\">10</p>", "key_press": -1, "trial_type": "single-stim", "trial_index": 270, "time_elapsed": 1365818, "internal_node_id": "0.0-198.0-0.0"}}, {"uniqueid": "MTK1007:32Q90QCQ1TS5KK7ALY81041IARIEKA", "current_trial": 271, "dateTime": 1512971634563, "trialdata": {"rt": -1, "stimulus": "<p id=\"stim\">9</p>", "key_press": -1, "trial_type": "single-stim", "trial_index": 271, "time_elapsed": 1366822, "internal_node_id": "0.0-198.0-1.0"}}, {"uniqueid": "MTK1007:32Q90QCQ1TS5KK7ALY81041IARIEKA", "current_trial": 272, "dateTime": 1512971635570, "trialdata": {"rt": -1, "stimulus": "<p id=\"stim\">8</p>", "key_press": -1, "trial_type": "single-stim", "trial_index": 272, "time_elapsed": 1367829, "internal_node_id": "0.0-198.0-2.0"}}, {"uniqueid": "MTK1007:32Q90QCQ1TS5KK7ALY81041IARIEKA", "current_trial": 273, "dateTime": 1512971636576, "trialdata": {"rt": -1, "stimulus": "<p id=\"stim\">7</p>", "key_press": -1, "trial_type": "single-stim", "trial_index": 273, "time_elapsed": 1368836, "internal_node_id": "0.0-198.0-3.0"}}, {"uniqueid": "MTK1007:32Q90QCQ1TS5KK7ALY81041IARIEKA", "current_trial": 274, "dateTime": 1512971637581, "trialdata": {"rt": -1, "stimulus": "<p id=\"stim\">6</p>