{"assignmentId": "38F5OAUN5OJT9FRSS5RYH2T9Y8T7H4", "workerId": "MTK1467", "questiondata": {"origin": "United States", "strat-rehearsal": "5", "marital": "Married/Domestic Partnership", "education": "Some college", "ethnicity": "Not Hispanic", "color_depth": 24, "distracted": "No", "wrote-notes": "No", "strat-other": "", "screen_width": 1707, "avail_screen_width": 1707, "avail_screen_height": 1027, "strat-image": "70", "language": "English", "gender": "Male", "age": "28", "gender_other": "", "race": ["White"], "strat-categorize": "85", "pixel_depth": 24, "strat-spatial": "20", "strat-story": "10", "race_other": "", "screen_height": 1067}, "bonus": 0, "hitId": "3UAU495MIIZ3CNRHJOAXMJ8A14ROU4", "counterbalance": 1198, "useragent": "Mozilla/5.0 (Windows NT 10.0; Win64; x64) AppleWebKit/537.36 (KHTML, like Gecko) Chrome/63.0.3239.132 Safari/537.36", "eventdata": [{"eventtype": "initialized", "interval": 0, "value": null, "timestamp": 1515898629094}, {"eventtype": "window_resize", "interval": 1, "value": [1702, 1011], "timestamp": 1515898629095}, {"eventtype": "window_resize", "interval": 522, "value": [1707, 976], "timestamp": 1515898629617}, {"eventtype": "focus", "interval": 8479, "value": "off", "timestamp": 1515898638096}, {"eventtype": "focus", "interval": 3398, "value": "on", "timestamp": 1515898641494}, {"eventtype": "focus", "interval": 50155, "value": "off", "timestamp": 1515898691649}, {"eventtype": "focus", "interval": 20475, "value": "on", "timestamp": 1515898712124}, {"eventtype": "focus", "interval": 387481, "value": "off", "timestamp": 1515899099605}, {"eventtype": "focus", "interval": 20497, "value": "on", "timestamp": 1515899120102}, {"eventtype": "focus", "interval": 925262, "value": "off", "timestamp": 1515900045364}, {"eventtype": "focus", "interval": 3442, "value": "on", "timestamp": 1515900048806}, {"eventtype": "focus", "interval": 660, "value": "off", "timestamp": 1515900049466}, {"eventtype": "focus", "interval": 14255, "value": "on", "timestamp": 1515900063721}, {"eventtype": "focus", "interval": 1049168, "value": "off", "timestamp": 1515901112889}, {"eventtype": "focus", "interval": 7675, "value": "on", "timestamp": 1515901120564}], "data": [{"current_trial": 0, "trialdata": {"rt": 3039, "trial_type": "text", "internal_node_id": "0.0-0.0", "time_elapsed": 3042, "key_press": 32, "type": "INSTRUCTIONS", "trial_index": 0}, "uniqueid": "MTK1467:38F5OAUN5OJT9FRSS5RYH2T9Y8T7H4", "dateTime": 1515898632661}, {"current_trial": 1, "trialdata": {"rt": 29741, "trial_type": "text", "internal_node_id": "0.0-1.0", "time_elapsed": 32785, "key_press": 75, "type": "INSTRUCTIONS", "trial_index": 1}, "uniqueid": "MTK1467:38F5OAUN5OJT9FRSS5RYH2T9Y8T7H4", "dateTime": 1515898662404}, {"current_trial": 2, "trialdata": {"rt": [55572], "trial_type": "audio-test", "responses": ["ocean"], "internal_node_id": "0.0-2.0", "time_elapsed": 88368, "type": "AUDIO_TEST", "trial_index": 2}, "uniqueid": "MTK1467:38F5OAUN5OJT9FRSS5RYH2T9Y8T7H4", "dateTime": 1515898717987}, {"current_trial": 3, "trialdata": {"rt": [14884], "trial_type": "audio-test", "responses": ["crystal"], "internal_node_id": "0.0-3.0", "time_elapsed": 103256, "type": "AUDIO_TEST", "trial_index": 3}, "uniqueid": "MTK1467:38F5OAUN5OJT9FRSS5RYH2T9Y8T7H4", "dateTime": 1515898732875}, {"current_trial": 4, "trialdata": {"rt": [6933], "trial_type": "audio-test", "responses": ["spice"], "internal_node_id": "0.0-4.0", "time_elapsed": 110192, "type": "AUDIO_TEST", "trial_index": 4}, "uniqueid": "MTK1467:38F5OAUN5OJT9FRSS5RYH2T9Y8T7H4", "dateTime": 1515898739811}, {"current_trial": 5, "trialdata": {"rt": 27890, "trial_type": "survey-text", "responses": "{\"Q0\":\"12AM\",\"Q1\":\"7:30AM\",\"Q2\":\"4\"}", "internal_node_id": "0.0-5.0", "time_elapsed": 138836, "type": "SLEEP_SURVEY", "trial_index": 5}, "uniqueid": "MTK1467:38F5OAUN5OJT9FRSS5RYH2T9Y8T7H4", "dateTime": 1515898768455}, {"current_trial": 6, "trialdata": {"rt": 38009, "trial_type": "text", "internal_node_id": "0.0-6.0", "time_elapsed": 177847, "key_press": 74, "type": "INSTRUCTIONS", "trial_index": 6}, "uniqueid": "MTK1467:38F5OAUN5OJT9FRSS5RYH2T9Y8T7H4", "dateTime": 1515898807466}, {"current_trial": 7, "trialdata": {"rt": 18155, "trial_type": "text", "internal_node_id": "0.0-7.0", "time_elapsed": 196503, "key_press": 74, "type": "INSTRUCTIONS", "trial_index": 7}, "uniqueid": "MTK1467:38F5OAUN5OJT9FRSS5RYH2T9Y8T7H4", "dateTime": 1515898826122}, {"current_trial": 8, "trialdata": {"rt": 16626, "trial_type": "text", "internal_node_id": "0.0-8.0", "time_elapsed": 213630, "key_press": 75, "type": "INSTRUCTIONS", "trial_index": 8}, "uniqueid": "MTK1467:38F5OAUN5OJT9FRSS5RYH2T9Y8T7H4", "dateTime": 1515898843249}, {"current_trial": 9, "trialdata": {"rt": [5612, 8580, 10939, 16443], "trial_type": "math-distractor", "key_times": [3812, 3980, 5612, 8196, 8268, 8580, 10444, 10683, 10939, 13947, 14331, 16443], "responses": ["11", "20", "15", "16"], "num2": [1, 7, 5, 4, 8], "num3": [6, 7, 6, 7, 4], "conditions": [18, 1200, "v", 18000], "internal_node_id": "0.0-9.0", "key_presses": [49, 49, 13, 50, 48, 13, 49, 53, 13, 49, 54, 13], "trial": 0, "time_elapsed": 232635, "type": "DISTRACTOR", "trial_index": 9, "num1": [4, 6, 4, 5, 4]}, "uniqueid": "MTK1467:38F5OAUN5OJT9FRSS5RYH2T9Y8T7H4", "dateTime": 1515898862254}, {"current_trial": 10, "trialdata": {"rt": -1, "trial_type": "single-stim", "stimulus": "<p id=\"stim\">10</p>", "internal_node_id": "0.0-10.0-0.0", "time_elapsed": 235638, "key_press": -1, "trial_index": 10}, "uniqueid": "MTK1467:38F5OAUN5OJT9FRSS5RYH2T9Y8T7H4", "dateTime": 1515898865257}, {"current_trial": 11, "trialdata": {"rt": -1, "trial_type": "single-stim", "stimulus": "<p id=\"stim\">9</p>", "internal_node_id": "0.0-10.0-1.0", "time_elapsed": 236639, "key_press": -1, "trial_index": 11}, "uniqueid": "MTK1467:38F5OAUN5OJT9FRSS5RYH2T9Y8T7H4", "dateTime": 1515898866258}, {"current_trial": 12, "trialdata": {"rt": -1, "trial_type": "single-stim", "stimulus": "<p id=\"stim\">8</p>", "internal_node_id": "0.0-10.0-2.0", "time_elapsed": 237641, "key_press": -1, "trial_index": 12}, "uniqueid": "MTK1467:38F5OAUN5OJT9FRSS5RYH2T9Y8T7H4", "dateTime": 1515898867260}, {"current_trial": 13, "trialdata": {"rt": -1, "trial_type": "single-stim", "stimulus": "<p id=\"stim\">7</p>", "internal_node_id": "0.0-10.0-3.0", "time_elapsed": 238643, "key_press": -1, "trial_index": 13}, "uniqueid": "MTK1467:38F5OAUN5OJT9FRSS5RYH2T9Y8T7H4", "dateTime": 1515898868262}, {"current_trial": 14, "trialdata": {"rt": -1, "trial_type": "single-stim", "stimulus": "<p id=\"stim\">6</p>", "internal_node_id": "0.0-10.0-4.0", "time_elapsed": 239644, "key_press": -1, "trial_index": 14}, "uniqueid": "MTK1467:38F5OAUN5OJT9FRSS5RYH2T9Y8T7H4", "dateTime": 1515898869263}, {"current_trial": 15, "trialdata": {"rt": -1, "trial_type": "single-stim", "stimulus": "<p id=\"stim\">5</p>", "internal_node_id": "0.0-10.0-5.0", "time_elapsed": 240646, "key_press": -1, "trial_index": 15}, "uniqueid": "MTK1467:38F5OAUN5OJT9FRSS5RYH2T9Y8T7H4", "dateTime": 1515898870265}, {"current_trial": 16, "trialdata": {"rt": -1, "trial_type": "single-stim", "stimulus": "<p id=\"stim\">4</p>", "internal_node_id": "0.0-10.0-6.0", "time_elapsed": 241647, "key_press": -1, "trial_index": 16}, "uniqueid": "MTK1467:38F5OAUN5OJT9FRSS5RYH2T9Y8T7H4", "dateTime": 1515898871267}, {"current_trial": 17, "trialdata": {"rt": -1, "trial_type": "single-stim", "stimulus": "<p id=\"stim\">3</p>", "internal_node_id": "0.0-10.0-7.0", "time_elapsed": 242649, "key_press": -1, "trial_index": 17}, "uniqueid": "MTK1467:38F5OAUN5OJT9FRSS5RYH2T9Y8T7H4", "dateTime": 1515898872268}, {"current_trial": 18, "trialdata": {"rt": -1, "trial_type": "single-stim", "stimulus": "<p id=\"stim\">2</p>", "internal_node_id": "0.0-10.0-8.0", "time_elapsed": 243651, "key_press": -1, "trial_index": 18}, "uniqueid": "MTK1467:38F5OAUN5OJT9FRSS5RYH2T9Y8T7H4", "dateTime": 1515898873270}, {"current_trial": 19, "trialdata": {"rt": -1, "trial_type": "single-stim", "stimulus": "<p id=\"stim\">1</p>", "internal_node_id": "0.0-10.0-9.0", "time_elapsed": 244653, "key_press": -1, "trial_index": 19}, "uniqueid": "MTK1467:38F5OAUN5OJT9FRSS5RYH2T9Y8T7H4", "dateTime": 1515898874272}, {"current_trial": 20, "trialdata": {"rt": -1, "trial_type": "single-stim", "stimulus": "<p id=\"stim\">+</p>", "internal_node_id": "0.0-11.0-0.0", "time_elapsed": 246154, "key_press": -1, "type": "FIXATION", "trial_index": 20}, "uniqueid": "MTK1467:38F5OAUN5OJT9FRSS5RYH2T9Y8T7H4", "dateTime": 1515898875773}, {"current_trial": 21, "trialdata": {"rt": -1, "trial_type": "single-stim", "word": "scissors", "stimulus": "<p id=\"stim\">SCISSORS</p>", "conditions": [18, 1200, "v", 18000], "internal_node_id": "0.0-12.0", "trial": 0, "time_elapsed": 247355, "serialpos": 0, "key_press": -1, "wordID": 1249, "type": "PRES_VIS", "trial_index": 21}, "uniqueid": "MTK1467:38F5OAUN5OJT9FRSS5RYH2T9Y8T7H4", "dateTime": 1515898876974}, {"current_trial": 22, "trialdata": {"rt": -1, "trial_type": "single-stim", "word": "monster", "stimulus": "<p id=\"stim\">MONSTER</p>", "conditions": [18, 1200, "v", 18000], "internal_node_id": "0.0-13.0", "trial": 0, "time_elapsed": 249395, "serialpos": 1, "key_press": -1, "wordID": 911, "type": "PRES_VIS", "trial_index": 22}, "uniqueid": "MTK1467:38F5OAUN5OJT9FRSS5RYH2T9Y8T7H4", "dateTime": 1515898879014}, {"current_trial": 23, "trialdata": {"rt": -1, "trial_type": "single-stim", "word": "spoon", "stimulus": "<p id=\"stim\">SPOON</p>", "conditions": [18, 1200, "v", 18000], "internal_node_id": "0.0-14.0", "trial": 0, "time_elapsed": 251649, "serialpos": 2, "key_press": -1, "wordID": 1356, "type": "PRES_VIS", "trial_index": 23}, "uniqueid": "MTK1467:38F5OAUN5OJT9FRSS5RYH2T9Y8T7H4", "dateTime": 1515898881269}, {"current_trial": 24, "trialdata": {"rt": -1, "trial_type": "single-stim", "word": "freckle", "stimulus": "<p id=\"stim\">FRECKLE</p>", "conditions": [18, 1200, "v", 18000], "internal_node_id": "0.0-15.0", "trial": 0, "time_elapsed": 253952, "serialpos": 3, "key_press": -1, "wordID": 601, "type": "PRES_VIS", "trial_index": 24}, "uniqueid": "MTK1467:38F5OAUN5OJT9FRSS5RYH2T9Y8T7H4", "dateTime": 1515898883571}, {"current_trial": 25, "trialdata": {"rt": -1, "trial_type": "single-stim", "word": "crib", "stimulus": "<p id=\"stim\">CRIB</p>", "conditions": [18, 1200, "v", 18000], "internal_node_id": "0.0-16.0", "trial": 0, "time_elapsed": 256333, "serialpos": 4, "key_press": -1, "wordID": 406, "type": "PRES_VIS", "trial_index": 25}, "uniqueid": "MTK1467:38F5OAUN5OJT9FRSS5RYH2T9Y8T7H4", "dateTime": 1515898885953}, {"current_trial": 26, "trialdata": {"rt": -1, "trial_type": "single-stim", "word": "dime", "stimulus": "<p id=\"stim\">DIME</p>", "conditions": [18, 1200, "v", 18000], "internal_node_id": "0.0-17.0", "trial": 0, "time_elapsed": 258534, "serialpos": 5, "key_press": -1, "wordID": 465, "type": "PRES_VIS", "trial_index": 26}, "uniqueid": "MTK1467:38F5OAUN5OJT9FRSS5RYH2T9Y8T7H4", "dateTime": 1515898888153}, {"current_trial": 27, "trialdata": {"rt": -1, "trial_type": "single-stim", "word": "lunch", "stimulus": "<p id=\"stim\">LUNCH</p>", "conditions": [18, 1200, "v", 18000], "internal_node_id": "0.0-18.0", "trial": 0, "time_elapsed": 260784, "serialpos": 6, "key_press": -1, "wordID": 848, "type": "PRES_VIS", "trial_index": 27}, "uniqueid": "MTK1467:38F5OAUN5OJT9FRSS5RYH2T9Y8T7H4", "dateTime": 1515898890403}, {"current_trial": 28, "trialdata": {"rt": -1, "trial_type": "single-stim", "word": "survey", "stimulus": "<p id=\"stim\">SURVEY</p>", "conditions": [18, 1200, "v", 18000], "internal_node_id": "0.0-19.0", "trial": 0, "time_elapsed": 262949, "serialpos": 7, "key_press": -1, "wordID": 1413, "type": "PRES_VIS", "trial_index": 28}, "uniqueid": "MTK1467:38F5OAUN5OJT9FRSS5RYH2T9Y8T7H4", "dateTime": 1515898892568}, {"current_trial": 29, "trialdata": {"rt": -1, "trial_type": "single-stim", "word": "yarn", "stimulus": "<p id=\"stim\">YARN</p>", "conditions": [18, 1200, "v", 18000], "internal_node_id": "0.0-20.0", "trial": 0, "time_elapsed": 265243, "serialpos": 8, "key_press": -1, "wordID": 1630, "type": "PRES_VIS", "trial_index": 29}, "uniqueid": "MTK1467:38F5OAUN5OJT9FRSS5RYH2T9Y8T7H4", "dateTime": 1515898894862}, {"current_trial": 30, "trialdata": {"rt": -1, "trial_type": "single-stim", "word": "truck", "stimulus": "<p id=\"stim\">TRUCK</p>", "conditions": [18, 1200, "v", 18000], "internal_node_id": "0.0-21.0", "trial": 0, "time_elapsed": 267339, "serialpos": 9, "key_press": -1, "wordID": 1511, "type": "PRES_VIS", "trial_index": 30}, "uniqueid": "MTK1467:38F5OAUN5OJT9FRSS5RYH2T9Y8T7H4", "dateTime": 1515898896958}, {"current_trial": 31, "trialdata": {"rt": -1, "trial_type": "single-stim", "word": "necklace", "stimulus": "<p id=\"stim\">NECKLACE</p>", "conditions": [18, 1200, "v", 18000], "internal_node_id": "0.0-22.0", "trial": 0, "time_elapsed": 269719, "serialpos": 10, "key_press": -1, "wordID": 939, "type": "PRES_VIS", "trial_index": 31}, "uniqueid": "MTK1467:38F5OAUN5OJT9FRSS5RYH2T9Y8T7H4", "dateTime": 1515898899338}, {"current_trial": 32, "trialdata": {"rt": -1, "trial_type": "single-stim", "word": "country", "stimulus": "<p id=\"stim\">COUNTRY</p>", "conditions": [18, 1200, "v", 18000], "internal_node_id": "0.0-23.0", "trial": 0, "time_elapsed": 271814, "serialpos": 11, "key_press": -1, "wordID": 387, "type": "PRES_VIS", "trial_index": 32}, "uniqueid": "MTK1467:38F5OAUN5OJT9FRSS5RYH2T9Y8T7H4", "dateTime": 1515898901433}, {"current_trial": 33, "trialdata": {"rt": -1, "trial_type": "single-stim", "word": "scarecrow", "stimulus": "<p id=\"stim\">SCARECROW</p>", "conditions": [18, 1200, "v", 18000], "internal_node_id": "0.0-24.0", "trial": 0, "time_elapsed": 274175, "serialpos": 12, "key_press": -1, "wordID": 1244, "type": "PRES_VIS", "trial_index": 33}, "uniqueid": "MTK1467:38F5OAUN5OJT9FRSS5RYH2T9Y8T7H4", "dateTime": 1515898903794}, {"current_trial": 34, "trialdata": {"rt": -1, "trial_type": "single-stim", "word": "outdoors", "stimulus": "<p id=\"stim\">OUTDOORS</p>", "conditions": [18, 1200, "v", 18000], "internal_node_id": "0.0-25.0", "trial": 0, "time_elapsed": 276225, "serialpos": 13, "key_press": -1, "wordID": 986, "type": "PRES_VIS", "trial_index": 34}, "uniqueid": "MTK1467:38F5OAUN5OJT9FRSS5RYH2T9Y8T7H4", "dateTime": 1515898905844}, {"current_trial": 35, "trialdata": {"rt": -1, "trial_type": "single-stim", "word": "dresser", "stimulus": "<p id=\"stim\">DRESSER</p>", "conditions": [18, 1200, "v", 18000], "internal_node_id": "0.0-26.0", "trial": 0, "time_elapsed": 278471, "serialpos": 14, "key_press": -1, "wordID": 495, "type": "PRES_VIS", "trial_index": 35}, "uniqueid": "MTK1467:38F5OAUN5OJT9FRSS5RYH2T9Y8T7H4", "dateTime": 1515898908090}, {"current_trial": 36, "trialdata": {"rt": -1, "trial_type": "single-stim", "word": "spool", "stimulus": "<p id=\"stim\">SPOOL</p>", "conditions": [18, 1200, "v", 18000], "internal_node_id": "0.0-27.0", "trial": 0, "time_elapsed": 280564, "serialpos": 15, "key_press": -1, "wordID": 1355, "type": "PRES_VIS", "trial_index": 36}, "uniqueid": "MTK1467:38F5OAUN5OJT9FRSS5RYH2T9Y8T7H4", "dateTime": 1515898910183}, {"current_trial": 37, "trialdata": {"rt": -1, "trial_type": "single-stim", "word": "zebra", "stimulus": "<p id=\"stim\">ZEBRA</p>", "conditions": [18, 1200, "v", 18000], "internal_node_id": "0.0-28.0", "trial": 0, "time_elapsed": 282578, "serialpos": 16, "key_press": -1, "wordID": 1634, "type": "PRES_VIS", "trial_index": 37}, "uniqueid": "MTK1467:38F5OAUN5OJT9FRSS5RYH2T9Y8T7H4", "dateTime": 1515898912197}, {"current_trial": 38, "trialdata": {"rt": -1, "trial_type": "single-stim", "word": "kleenex", "stimulus": "<p id=\"stim\">KLEENEX</p>", "conditions": [18, 1200, "v", 18000], "internal_node_id": "0.0-29.0", "trial": 0, "time_elapsed": 284630, "serialpos": 17, "key_press": -1, "wordID": 781, "type": "PRES_VIS", "trial_index": 38}, "uniqueid": "MTK1467:38F5OAUN5OJT9FRSS5RYH2T9Y8T7H4", "dateTime": 1515898914249}, {"current_trial": 39, "trialdata": {"rt": -1, "trial_type": "single-stim", "stimulus": "", "internal_node_id": "0.0-30.0-0.0", "time_elapsed": 286924, "key_press": -1, "type": "PRE_RECALL_DELAY", "trial_index": 39}, "uniqueid": "MTK1467:38F5OAUN5OJT9FRSS5RYH2T9Y8T7H4", "dateTime": 1515898916543}, {"current_trial": 40, "trialdata": {"rt": -1000, "trial_type": "single-audio", "stimulus": "/static/audio/400Hz.wav", "internal_node_id": "0.0-31.0", "time_elapsed": 287432, "key_press": -1, "type": "PRE_RECALL_ALERT", "trial_index": 40}, "uniqueid": "MTK1467:38F5OAUN5OJT9FRSS5RYH2T9Y8T7H4", "dateTime": 1515898917051}, {"current_trial": 41, "trialdata": {"rt": [2595, 4603, 6051, 7322, 11746, 13658, 24498, 29522, 30826, 51954], "recwords": ["kleenex", "scissors", "survey", "monster", "scarecrow", "crib", "spoon", "spool", "yarn", "truck"], "key_times": [675, 803, 1347, 1555, 1627, 1835, 1891, 2059, 2275, 2595, 3131, 3251, 3395, 3555, 3779, 3883, 4051, 4203, 4603, 4939, 5091, 5211, 5435, 5523, 5651, 6051, 6339, 6427, 6579, 6643, 6883, 7051, 7151, 7322, 9906, 10050, 10162, 10418, 10642, 10931, 11170, 11282, 11386, 11746, 13106, 13274, 13306, 13426, 13658, 23730, 23818, 23898, 24114, 24226, 24498, 25562, 25690, 25890, 26610, 26842, 29522, 30242, 30378, 30514, 30594, 30826, 50858, 50978, 51026, 51250, 51338, 51954], "trial_type": "free-recall", "conditions": [18, 1200, "v", 18000], "internal_node_id": "0.0-32.0-0.0", "key_presses": [75, 69, 8, 76, 69, 69, 78, 69, 88, 13, 83, 67, 73, 83, 83, 79, 82, 83, 13, 83, 85, 82, 86, 69, 89, 13, 77, 79, 78, 83, 84, 69, 82, 13, 83, 67, 65, 82, 69, 67, 82, 79, 87, 13, 67, 82, 73, 66, 13, 83, 80, 79, 79, 78, 13, 83, 80, 79, 79, 76, 13, 89, 65, 82, 78, 13, 84, 82, 85, 67, 75, 13], "trial": 0, "time_elapsed": 347435, "type": "FREE_RECALL", "trial_index": 41}, "uniqueid": "MTK1467:38F5OAUN5OJT9FRSS5RYH2T9Y8T7H4", "dateTime": 1515898977056}, {"current_trial": 42, "trialdata": {"rt": 3590, "trial_type": "text", "internal_node_id": "0.0-33.0", "time_elapsed": 353028, "key_press": 32, "type": "INSTRUCTIONS", "trial_index": 42}, "uniqueid": "MTK1467:38F5OAUN5OJT9FRSS5RYH2T9Y8T7H4", "dateTime": 1515898982647}, {"current_trial": 43, "trialdata": {"rt": [2886, 4662, 7246, 10486, 16526], "trial_type": "math-distractor", "key_times": [2206, 2438, 2886, 4222, 4406, 4662, 6838, 6926, 7246, 9974, 10366, 10486, 15831, 16118, 16526], "responses": ["11", "17", "18", "15", "15"], "num2": [4, 5, 7, 2, 5, 4], "num3": [5, 7, 2, 6, 8, 2], "conditions": [18, 1200, "v", 18000], "internal_node_id": "0.0-34.0", "key_presses": [49, 49, 13, 49, 55, 13, 49, 56, 13, 49, 53, 13, 49, 53, 13], "trial": 1, "time_elapsed": 373032, "type": "DISTRACTOR", "trial_index": 43, "num1": [2, 5, 9, 7, 2, 4]}, "uniqueid": "MTK1467:38F5OAUN5OJT9FRSS5RYH2T9Y8T7H4", "dateTime": 1515899002651}, {"current_trial": 44, "trialdata": {"rt": -1, "trial_type": "single-stim", "stimulus": "<p id=\"stim\">10</p>", "internal_node_id": "0.0-35.0-0.0", "time_elapsed": 376034, "key_press": -1, "trial_index": 44}, "uniqueid": "MTK1467:38F5OAUN5OJT9FRSS5RYH2T9Y8T7H4", "dateTime": 1515899005653}, {"current_trial": 45, "trialdata": {"rt": -1, "trial_type": "single-stim", "stimulus": "<p id=\"stim\">9</p>", "internal_node_id": "0.0-35.0-1.0", "time_elapsed": 377035, "key_press": -1, "trial_index": 45}, "uniqueid": "MTK1467:38F5OAUN5OJT9FRSS5RYH2T9Y8T7H4", "dateTime": 1515899006654}, {"current_trial": 46, "trialdata": {"rt": -1, "trial_type": "single-stim", "stimulus": "<p id=\"stim\">8</p>", "internal_node_id": "0.0-35.0-2.0", "time_elapsed": 378037, "key_press": -1, "trial_index": 46}, "uniqueid": "MTK1467:38F5OAUN5OJT9FRSS5RYH2T9Y8T7H4", "dateTime": 1515899007656}, {"current_trial": 47, "trialdata": {"rt": -1, "trial_type": "single-stim", "stimulus": "<p id=\"stim\">7</p>", "internal_node_id": "0.0-35.0-3.0", "time_elapsed": 379039, "key_press": -1, "trial_index": 47}, "uniqueid": "MTK1467:38F5OAUN5OJT9FRSS5RYH2T9Y8T7H4", "dateTime": 1515899008658}, {"current_trial": 48, "trialdata": {"rt": -1, "trial_type": "single-stim", "stimulus": "<p id=\"stim\">6</p>", "internal_node_id": "0.0-35.0-4.0", "time_elapsed": 380039, "key_press": -1, "trial_index": 48}, "uniqueid": "MTK1467:38F5OAUN5OJT9FRSS5RYH2T9Y8T7H4", "dateTime": 1515899009658}, {"current_trial": 49, "trialdata": {"rt": -1, "trial_type": "single-stim", "stimulus": "<p id=\"stim\">5</p>", "internal_node_id": "0.0-35.0-5.0", "time_elapsed": 381041, "key_press": -1, "trial_index": 49}, "uniqueid": "MTK1467:38F5OAUN5OJT9FRSS5RYH2T9Y8T7H4", "dateTime": 1515899010660}, {"current_trial": 50, "trialdata": {"rt": -1, "trial_type": "single-stim", "stimulus": "<p id=\"stim\">4</p>", "internal_node_id": "0.0-35.0-6.0", "time_elapsed": 382043, "key_press": -1, "trial_index": 50}, "uniqueid": "MTK1467:38F5OAUN5OJT9FRSS5RYH2T9Y8T7H4", "dateTime": 1515899011662}, {"current_trial": 51, "trialdata": {"rt": -1, "trial_type": "single-stim", "stimulus": "<p id=\"stim\">3</p>", "internal_node_id": "0.0-35.0-7.0", "time_elapsed": 383044, "key_press": -1, "trial_index": 51}, "uniqueid": "MTK1467:38F5OAUN5OJT9FRSS5RYH2T9Y8T7H4", "dateTime": 1515899012664}, {"current_trial": 52, "trialdata": {"rt": -1, "trial_type": "single-stim", "stimulus": "<p id=\"stim\">2</p>", "internal_node_id": "0.0-35.0-8.0", "time_elapsed": 384046, "key_press": -1, "trial_index": 52}, "uniqueid": "MTK1467:38F5OAUN5OJT9FRSS5RYH2T9Y8T7H4", "dateTime": 1515899013665}, {"current_trial": 53, "trialdata": {"rt": -1, "trial_type": "single-stim", "stimulus": "<p id=\"stim\">1</p>", "internal_node_id": "0.0-35.0-9.0", "time_elapsed": 385048, "key_press": -1, "trial_index": 53}, "uniqueid": "MTK1467:38F5OAUN5OJT9FRSS5RYH2T9Y8T7H4", "dateTime": 1515899014667}, {"current_trial": 54, "trialdata": {"rt": -1, "trial_type": "single-stim", "stimulus": "<p id=\"stim\">+</p>", "internal_node_id": "0.0-36.0-0.0", "time_elapsed": 386549, "key_press": -1, "type": "FIXATION", "trial_index": 54}, "uniqueid": "MTK1467:38F5OAUN5OJT9FRSS5RYH2T9Y8T7H4", "dateTime": 1515899016168}, {"current_trial": 55, "trialdata": {"rt": -1, "trial_type": "single-stim", "word": "machine", "stimulus": "<p id=\"stim\">MACHINE</p>", "conditions": [18, 1200, "v", 18000], "internal_node_id": "0.0-37.0", "trial": 1, "time_elapsed": 387749, "serialpos": 0, "key_press": -1, "wordID": 851, "type": "PRES_VIS", "trial_index": 55}, "uniqueid": "MTK1467:38F5OAUN5OJT9FRSS5RYH2T9Y8T7H4", "dateTime": 1515899017369}, {"current_trial": 56, "trialdata": {"rt": -1, "trial_type": "single-stim", "word": "hedge", "stimulus": "<p id=\"stim\">HEDGE</p>", "conditions": [18, 1200, "v", 18000], "internal_node_id": "0.0-38.0", "trial": 1, "time_elapsed": 390114, "serialpos": 1, "key_press": -1, "wordID": 698, "type": "PRES_VIS", "trial_index": 56}, "uniqueid": "MTK1467:38F5OAUN5OJT9FRSS5RYH2T9Y8T7H4", "dateTime": 1515899019733}, {"current_trial": 57, "trialdata": {"rt": -1, "trial_type": "single-stim", "word": "eagle", "stimulus": "<p id=\"stim\">EAGLE</p>", "conditions": [18, 1200, "v", 18000], "internal_node_id": "0.0-39.0", "trial": 1, "time_elapsed": 392373, "serialpos": 2, "key_press": -1, "wordID": 511, "type": "PRES_VIS", "trial_index": 57}, "uniqueid": "MTK1467:38F5OAUN5OJT9FRSS5RYH2T9Y8T7H4", "dateTime": 1515899021992}, {"current_trial": 58, "trialdata": {"rt": -1, "trial_type": "single-stim", "word": "finger", "stimulus": "<p id=\"stim\">FINGER</p>", "conditions": [18, 1200, "v", 18000], "internal_node_id": "0.0-40.0", "trial": 1, "time_elapsed": 394689, "serialpos": 3, "key_press": -1, "wordID": 566, "type": "PRES_VIS", "trial_index": 58}, "uniqueid": "MTK1467:38F5OAUN5OJT9FRSS5RYH2T9Y8T7H4", "dateTime": 1515899024308}, {"current_trial": 59, "trialdata": {"rt": -1, "trial_type": "single-stim", "word": "inmate", "stimulus": "<p id=\"stim\">INMATE</p>", "conditions": [18, 1200, "v", 18000], "internal_node_id": "0.0-41.0", "trial": 1, "time_elapsed": 396773, "serialpos": 4, "key_press": -1, "wordID": 737, "type": "PRES_VIS", "trial_index": 59}, "uniqueid": "MTK1467:38F5OAUN5OJT9FRSS5RYH2T9Y8T7H4", "dateTime": 1515899026393}, {"current_trial": 60, "trialdata": {"rt": -1, "trial_type": "single-stim", "word": "student", "stimulus": "<p id=\"stim\">STUDENT</p>", "conditions": [18, 1200, "v", 18000], "internal_node_id": "0.0-42.0", "trial": 1, "time_elapsed": 399019, "serialpos": 5, "key_press": -1, "wordID": 1394, "type": "PRES_VIS", "trial_index": 60}, "uniqueid": "MTK1467:38F5OAUN5OJT9FRSS5RYH2T9Y8T7H4", "dateTime": 1515899028638}, {"current_trial": 61, "trialdata": {"rt": -1, "trial_type": "single-stim", "word": "mildew", "stimulus": "<p id=\"stim\">MILDEW</p>", "conditions": [18, 1200, "v", 18000], "internal_node_id": "0.0-43.0", "trial": 1, "time_elapsed": 401293, "serialpos": 6, "key_press": -1, "wordID": 892, "type": "PRES_VIS", "trial_index": 61}, "uniqueid": "MTK1467:38F5OAUN5OJT9FRSS5RYH2T9Y8T7H4", "dateTime": 1515899030913}, {"current_trial": 62, "trialdata": {"rt": -1, "trial_type": "single-stim", "word": "victim", "stimulus": "<p id=\"stim\">VICTIM</p>", "conditions": [18, 1200, "v", 18000], "internal_node_id": "0.0-44.0", "trial": 1, "time_elapsed": 403565, "serialpos": 7, "key_press": -1, "wordID": 1561, "type": "PRES_VIS", "trial_index": 62}, "uniqueid": "MTK1467:38F5OAUN5OJT9FRSS5RYH2T9Y8T7H4", "dateTime": 1515899033184}, {"current_trial": 63, "trialdata": {"rt": -1, "trial_type": "single-stim", "word": "record", "stimulus": "<p id=\"stim\">RECORD</p>", "conditions": [18, 1200, "v", 18000], "internal_node_id": "0.0-45.0", "trial": 1, "time_elapsed": 405692, "serialpos": 8, "key_press": -1, "wordID": 1175, "type": "PRES_VIS", "trial_index": 63}, "uniqueid": "MTK1467:38F5OAUN5OJT9FRSS5RYH2T9Y8T7H4", "dateTime": 1515899035311}, {"current_trial": 64, "trialdata": {"rt": -1, "trial_type": "single-stim", "word": "comet", "stimulus": "<p id=\"stim\">COMET</p>", "conditions": [18, 1200, "v", 18000], "internal_node_id": "0.0-46.0", "trial": 1, "time_elapsed": 407921, "serialpos": 9, "key_press": -1, "wordID": 352, "type": "PRES_VIS", "trial_index": 64}, "uniqueid": "MTK1467:38F5OAUN5OJT9FRSS5RYH2T9Y8T7H4", "dateTime": 1515899037540}, {"current_trial": 65, "trialdata": {"rt": -1, "trial_type": "single-stim", "word": "barley", "stimulus": "<p id=\"stim\">BARLEY</p>", "conditions": [18, 1200, "v", 18000], "internal_node_id": "0.0-47.0", "trial": 1, "time_elapsed": 410161, "serialpos": 10, "key_press": -1, "wordID": 87, "type": "PRES_VIS", "trial_index": 65}, "uniqueid": "MTK1467:38F5OAUN5OJT9FRSS5RYH2T9Y8T7H4", "dateTime": 1515899039781}, {"current_trial": 66, "trialdata": {"rt": -1, "trial_type": "single-stim", "word": "church", "stimulus": "<p id=\"stim\">CHURCH</p>", "conditions": [18, 1200, "v", 18000], "internal_node_id": "0.0-48.0", "trial": 1, "time_elapsed": 412333, "serialpos": 11, "key_press": -1, "wordID": 306, "type": "PRES_VIS", "trial_index": 66}, "uniqueid": "MTK1467:38F5OAUN5OJT9FRSS5RYH2T9Y8T7H4", "dateTime": 1515899041952}, {"current_trial": 67, "trialdata": {"rt": -1, "trial_type": "single-stim", "word": "princess", "stimulus": "<p id=\"stim\">PRINCESS</p>", "conditions": [18, 1200, "v", 18000], "internal_node_id": "0.0-49.0", "trial": 1, "time_elapsed": 414537, "serialpos": 12, "key_press": -1, "wordID": 1124, "type": "PRES_VIS", "trial_index": 67}, "uniqueid": "MTK1467:38F5OAUN5OJT9FRSS5RYH2T9Y8T7H4", "dateTime": 1515899044156}, {"current_trial": 68, "trialdata": {"rt": -1, "trial_type": "single-stim", "word": "drink", "stimulus": "<p id=\"stim\">DRINK</p>", "conditions": [18, 1200, "v", 18000], "internal_node_id": "0.0-50.0", "trial": 1, "time_elapsed": 416667, "serialpos": 13, "key_press": -1, "wordID": 497, "type": "PRES_VIS", "trial_index": 68}, "uniqueid": "MTK1467:38F5OAUN5OJT9FRSS5RYH2T9Y8T7H4", "dateTime": 1515899046287}, {"current_trial": 69, "trialdata": {"rt": -1, "trial_type": "single-stim", "word": "nomad", "stimulus": "<p id=\"stim\">NOMAD</p>", "conditions": [18, 1200, "v", 18000], "internal_node_id": "0.0-51.0", "trial": 1, "time_elapsed": 419034, "serialpos": 14, "key_press": -1, "wordID": 954, "type": "PRES_VIS", "trial_index": 69}, "uniqueid": "MTK1467:38F5OAUN5OJT9FRSS5RYH2T9Y8T7H4", "dateTime": 1515899048653}, {"current_trial": 70, "trialdata": {"rt": -1, "trial_type": "single-stim", "word": "teacher", "stimulus": "<p id=\"stim\">TEACHER</p>", "conditions": [18, 1200, "v", 18000], "internal_node_id": "0.0-52.0", "trial": 1, "time_elapsed": 421262, "serialpos": 15, "key_press": -1, "wordID": 1439, "type": "PRES_VIS", "trial_index": 70}, "uniqueid": "MTK1467:38F5OAUN5OJT9FRSS5RYH2T9Y8T7H4", "dateTime": 1515899050881}, {"current_trial": 71, "trialdata": {"rt": -1, "trial_type": "single-stim", "word": "juggler", "stimulus": "<p id=\"stim\">JUGGLER</p>", "conditions": [18, 1200, "v", 18000], "internal_node_id": "0.0-53.0", "trial": 1, "time_elapsed": 423369, "serialpos": 16, "key_press": -1, "wordID": 762, "type": "PRES_VIS", "trial_index": 71}, "uniqueid": "MTK1467:38F5OAUN5OJT9FRSS5RYH2T9Y8T7H4", "dateTime": 1515899052988}, {"current_trial": 72, "trialdata": {"rt": -1, "trial_type": "single-stim", "word": "coin", "stimulus": "<p id=\"stim\">COIN</p>", "conditions": [18, 1200, "v", 18000], "internal_node_id": "0.0-54.0", "trial": 1, "time_elapsed": 425679, "serialpos": 17, "key_press": -1, "wordID": 342, "type": "PRES_VIS", "trial_index": 72}, "uniqueid": "MTK1467:38F5OAUN5OJT9FRSS5RYH2T9Y8T7H4", "dateTime": 1515899055298}, {"current_trial": 73, "trialdata": {"rt": -1, "trial_type": "single-stim", "stimulus": "", "internal_node_id": "0.0-55.0-0.0", "time_elapsed": 427869, "key_press": -1, "type": "PRE_RECALL_DELAY", "trial_index": 73}, "uniqueid": "MTK1467:38F5OAUN5OJT9FRSS5RYH2T9Y8T7H4", "dateTime": 1515899057488}, {"current_trial": 74, "trialdata": {"rt": -1000, "trial_type": "single-audio", "stimulus": "/static/audio/400Hz.wav", "internal_node_id": "0.0-56.0", "time_elapsed": 428371, "key_press": -1, "type": "PRE_RECALL_ALERT", "trial_index": 74}, "uniqueid": "MTK1467:38F5OAUN5OJT9FRSS5RYH2T9Y8T7H4", "dateTime": 1515899057990}, {"current_trial": 75, "trialdata": {"rt": [1903, 3127, 4151, 6775, 8727, 11511, 16751], "recwords": ["coin", "juggler", "teacher", "student", "eagle", "record", "finger"], "key_times": [1311, 1439, 1448, 1591, 1903, 2183, 2271, 2407, 2583, 2695, 2823, 2919, 3127, 3279, 3359, 3535, 3623, 3751, 3879, 3983, 4151, 5879, 6151, 6207, 6375, 6447, 6511, 6663, 6775, 8047, 8215, 8375, 8471, 8583, 8727, 10687, 10807, 10983, 11071, 11223, 11423, 11511, 15655, 15799, 15919, 16079, 16351, 16447, 16751], "trial_type": "free-recall", "conditions": [18, 1200, "v", 18000], "internal_node_id": "0.0-57.0-0.0", "key_presses": [67, 79, 73, 78, 13, 74, 85, 71, 71, 76, 69, 82, 13, 84, 69, 65, 67, 72, 69, 82, 13, 83, 84, 85, 68, 69, 78, 84, 13, 69, 65, 71, 76, 69, 13, 82, 69, 67, 79, 82, 68, 13, 70, 73, 78, 71, 69, 82, 13], "trial": 1, "time_elapsed": 488372, "type": "FREE_RECALL", "trial_index": 75}, "uniqueid": "MTK1467:38F5OAUN5OJT9FRSS5RYH2T9Y8T7H4", "dateTime": 1515899117993}, {"current_trial": 76, "trialdata": {"rt": 3179, "trial_type": "text", "internal_node_id": "0.0-58.0", "time_elapsed": 493555, "key_press": 74, "type": "INSTRUCTIONS", "trial_index": 76}, "uniqueid": "MTK1467:38F5OAUN5OJT9FRSS5RYH2T9Y8T7H4", "dateTime": 1515899123174}, {"current_trial": 77, "trialdata": {"rt": [2822, 5710, 8398, 10030, 16462, 19894, 21902, 23806], "trial_type": "math-distractor", "key_times": [2198, 2822, 5430, 5710, 8014, 8118, 8398, 9638, 9742, 10030, 15606, 15782, 16462, 18350, 18590, 19238, 19518, 19894, 21502, 21614, 21902, 23446, 23550, 23806], "responses": ["7", "8", "18", "18", "22", "17", "19", "18"], "num2": [1, 4, 2, 6, 7, 8, 6, 8, 3], "num3": [4, 3, 9, 4, 6, 7, 8, 2, 4], "conditions": [12, 1600, "v", 24000], "internal_node_id": "0.0-59.0", "key_presses": [55, 13, 56, 13, 49, 56, 13, 49, 56, 13, 50, 50, 13, 49, 56, 8, 55, 13, 49, 57, 13, 49, 56, 13], "trial": 2, "time_elapsed": 518558, "type": "DISTRACTOR", "trial_index": 77, "num1": [2, 1, 7, 8, 9, 2, 5, 8, 1]}, "uniqueid": "MTK1467:38F5OAUN5OJT9FRSS5RYH2T9Y8T7H4", "dateTime": 1515899148177}, {"current_trial": 78, "trialdata": {"rt": -1, "trial_type": "single-stim", "stimulus": "<p id=\"stim\">10</p>", "internal_node_id": "0.0-60.0-0.0", "time_elapsed": 521559, "key_press": -1, "trial_index": 78}, "uniqueid": "MTK1467:38F5OAUN5OJT9FRSS5RYH2T9Y8T7H4", "dateTime": 1515899151178}, {"current_trial": 79, "trialdata": {"rt": -1, "trial_type": "single-stim", "stimulus": "<p id=\"stim\">9</p>", "internal_node_id": "0.0-60.0-1.0", "time_elapsed": 522561, "key_press": -1, "trial_index": 79}, "uniqueid": "MTK1467:38F5OAUN5OJT9FRSS5RYH2T9Y8T7H4", "dateTime": 1515899152180}, {"current_trial": 80, "trialdata": {"rt": -1, "trial_type": "single-stim", "stimulus": "<p id=\"stim\">8</p>", "internal_node_id": "0.0-60.0-2.0", "time_elapsed": 523563, "key_press": -1, "trial_index": 80}, "uniqueid": "MTK1467:38F5OAUN5OJT9FRSS5RYH2T9Y8T7H4", "dateTime": 1515899153182}, {"current_trial": 81, "trialdata": {"rt": -1, "trial_type": "single-stim", "stimulus": "<p id=\"stim\">7</p>", "internal_node_id": "0.0-60.0-3.0", "time_elapsed": 524563, "key_press": -1, "trial_index": 81}, "uniqueid": "MTK1467:38F5OAUN5OJT9FRSS5RYH2T9Y8T7H4", "dateTime": 1515899154183}, {"current_trial": 82, "trialdata": {"rt": -1, "trial_type": "single-stim", "stimulus": "<p id=\"stim\">6</p>", "internal_node_id": "0.0-60.0-4.0", "time_elapsed": 525565, "key_press": -1, "trial_index": 82}, "uniqueid": "MTK1467:38F5OAUN5OJT9FRSS5RYH2T9Y8T7H4", "dateTime": 1515899155184}, {"current_trial": 83, "trialdata": {"rt": -1, "trial_type": "single-stim", "stimulus": "<p id=\"stim\">5</p>", "internal_node_id": "0.0-60.0-5.0", "time_elapsed": 526567, "key_press": -1, "trial_index": 83}, "uniqueid": "MTK1467:38F5OAUN5OJT9FRSS5RYH2T9Y8T7H4", "dateTime": 1515899156186}, {"current_trial": 84, "trialdata": {"rt": -1, "trial_type": "single-stim", "stimulus": "<p id=\"stim\">4</p>", "internal_node_id": "0.0-60.0-6.0", "time_elapsed": 527568, "key_press": -1, "trial_index": 84}, "uniqueid": "MTK1467:38F5OAUN5OJT9FRSS5RYH2T9Y8T7H4", "dateTime": 1515899157188}, {"current_trial": 85, "trialdata": {"rt": -1, "trial_type": "single-stim", "stimulus": "<p id=\"stim\">3</p>", "internal_node_id": "0.0-60.0-7.0", "time_elapsed": 528570, "key_press": -1, "trial_index": 85}, "uniqueid": "MTK1467:38F5OAUN5OJT9FRSS5RYH2T9Y8T7H4", "dateTime": 1515899158189}, {"current_trial": 86, "trialdata": {"rt": -1, "trial_type": "single-stim", "stimulus": "<p id=\"stim\">2</p>", "internal_node_id": "0.0-60.0-8.0", "time_elapsed": 529572, "key_press": -1, "trial_index": 86}, "uniqueid": "MTK1467:38F5OAUN5OJT9FRSS5RYH2T9Y8T7H4", "dateTime": 1515899159191}, {"current_trial": 87, "trialdata": {"rt": -1, "trial_type": "single-stim", "stimulus": "<p id=\"stim\">1</p>", "internal_node_id": "0.0-60.0-9.0", "time_elapsed": 530572, "key_press": -1, "trial_index": 87}, "uniqueid": "MTK1467:38F5OAUN5OJT9FRSS5RYH2T9Y8T7H4", "dateTime": 1515899160192}, {"current_trial": 88, "trialdata": {"rt": -1, "trial_type": "single-stim", "stimulus": "<p id=\"stim\">+</p>", "internal_node_id": "0.0-61.0-0.0", "time_elapsed": 532073, "key_press": -1, "type": "FIXATION", "trial_index": 88}, "uniqueid": "MTK1467:38F5OAUN5OJT9FRSS5RYH2T9Y8T7H4", "dateTime": 1515899161693}, {"current_trial": 89, "trialdata": {"rt": -1, "trial_type": "single-stim", "word": "flower", "stimulus": "<p id=\"stim\">FLOWER</p>", "conditions": [12, 1600, "v", 24000], "internal_node_id": "0.0-62.0", "trial": 2, "time_elapsed": 533674, "serialpos": 0, "key_press": -1, "wordID": 583, "type": "PRES_VIS", "trial_index": 89}, "uniqueid": "MTK1467:38F5OAUN5OJT9FRSS5RYH2T9Y8T7H4", "dateTime": 1515899163294}, {"current_trial": 90, "trialdata": {"rt": -1, "trial_type": "single-stim", "word": "fox", "stimulus": "<p id=\"stim\">FOX</p>", "conditions": [12, 1600, "v", 24000], "internal_node_id": "0.0-63.0", "trial": 2, "time_elapsed": 536232, "serialpos": 1, "key_press": -1, "wordID": 597, "type": "PRES_VIS", "trial_index": 90}, "uniqueid": "MTK1467:38F5OAUN5OJT9FRSS5RYH2T9Y8T7H4", "dateTime": 1515899165851}, {"current_trial": 91, "trialdata": {"rt": -1, "trial_type": "single-stim", "word": "lizard", "stimulus": "<p id=\"stim\">LIZARD</p>", "conditions": [12, 1600, "v", 24000], "internal_node_id": "0.0-64.0", "trial": 2, "time_elapsed": 538707, "serialpos": 2, "key_press": -1, "wordID": 833, "type": "PRES_VIS", "trial_index": 91}, "uniqueid": "MTK1467:38F5OAUN5OJT9FRSS5RYH2T9Y8T7H4", "dateTime": 1515899168326}, {"current_trial": 92, "trialdata": {"rt": -1, "trial_type": "single-stim", "word": "wife", "stimulus": "<p id=\"stim\">WIFE</p>", "conditions": [12, 1600, "v", 24000], "internal_node_id": "0.0-65.0", "trial": 2, "time_elapsed": 541135, "serialpos": 3, "key_press": -1, "wordID": 1608, "type": "PRES_VIS", "trial_index": 92}, "uniqueid": "MTK1467:38F5OAUN5OJT9FRSS5RYH2T9Y8T7H4", "dateTime": 1515899170755}, {"current_trial": 93, "trialdata": {"rt": -1, "trial_type": "single-stim", "word": "uncle", "stimulus": "<p id=\"stim\">UNCLE</p>", "conditions": [12, 1600, "v", 24000], "internal_node_id": "0.0-66.0", "trial": 2, "time_elapsed": 543699, "serialpos": 4, "key_press": -1, "wordID": 1535, "type": "PRES_VIS", "trial_index": 93}, "uniqueid": "MTK1467:38F5OAUN5OJT9FRSS5RYH2T9Y8T7H4", "dateTime": 1515899173318}, {"current_trial": 94, "trialdata": {"rt": -1, "trial_type": "single-stim", "word": "cupboard", "stimulus": "<p id=\"stim\">CUPBOARD</p>", "conditions": [12, 1600, "v", 24000], "internal_node_id": "0.0-67.0", "trial": 2, "time_elapsed": 546415, "serialpos": 5, "key_press": -1, "wordID": 424, "type": "PRES_VIS", "trial_index": 94}, "uniqueid": "MTK1467:38F5OAUN5OJT9FRSS5RYH2T9Y8T7H4", "dateTime": 1515899176034}, {"current_trial": 95, "trialdata": {"rt": -1, "trial_type": "single-stim", "word": "marsh", "stimulus": "<p id=\"stim\">MARSH</p>", "conditions": [12, 1600, "v", 24000], "internal_node_id": "0.0-68.0", "trial": 2, "time_elapsed": 548887, "serialpos": 6, "key_press": -1, "wordID": 873, "type": "PRES_VIS", "trial_index": 95}, "uniqueid": "MTK1467:38F5OAUN5OJT9FRSS5RYH2T9Y8T7H4", "dateTime": 1515899178507}, {"current_trial": 96, "trialdata": {"rt": -1, "trial_type": "single-stim", "word": "gavel", "stimulus": "<p id=\"stim\">GAVEL</p>", "conditions": [12, 1600, "v", 24000], "internal_node_id": "0.0-69.0", "trial": 2, "time_elapsed": 551520, "serialpos": 7, "key_press": -1, "wordID": 626, "type": "PRES_VIS", "trial_index": 96}, "uniqueid": "MTK1467:38F5OAUN5OJT9FRSS5RYH2T9Y8T7H4", "dateTime": 1515899181139}, {"current_trial": 97, "trialdata": {"rt": -1, "trial_type": "single-stim", "word": "basement", "stimulus": "<p id=\"stim\">BASEMENT</p>", "conditions": [12, 1600, "v", 24000], "internal_node_id": "0.0-70.0", "trial": 2, "time_elapsed": 554198, "serialpos": 8, "key_press": -1, "wordID": 93, "type": "PRES_VIS", "trial_index": 97}, "uniqueid": "MTK1467:38F5OAUN5OJT9FRSS5RYH2T9Y8T7H4", "dateTime": 1515899183817}, {"current_trial": 98, "trialdata": {"rt": -1, "trial_type": "single-stim", "word": "forest", "stimulus": "<p id=\"stim\">FOREST</p>", "conditions": [12, 1600, "v", 24000], "internal_node_id": "0.0-71.0", "trial": 2, "time_elapsed": 556967, "serialpos": 9, "key_press": -1, "wordID": 592, "type": "PRES_VIS", "trial_index": 98}, "uniqueid": "MTK1467:38F5OAUN5OJT9FRSS5RYH2T9Y8T7H4", "dateTime": 1515899186586}, {"current_trial": 99, "trialdata": {"rt": -1, "trial_type": "single-stim", "word": "dashboard", "stimulus": "<p id=\"stim\">DASHBOARD</p>", "conditions": [12, 1600, "v", 24000], "internal_node_id": "0.0-72.0", "trial": 2, "time_elapsed": 559663, "serialpos": 10, "key_press": -1, "wordID": 440, "type": "PRES_VIS", "trial_index": 99}, "uniqueid": "MTK1467:38F5OAUN5OJT9FRSS5RYH2T9Y8T7H4", "dateTime": 1515899189282}, {"current_trial": 100, "trialdata": {"rt": -1, "trial_type": "single-stim", "word": "orchid", "stimulus": "<p id=\"stim\">ORCHID</p>", "conditions": [12, 1600, "v", 24000], "internal_node_id": "0.0-73.0", "trial": 2, "time_elapsed": 562429, "serialpos": 11, "key_press": -1, "wordID": 981, "type": "PRES_VIS", "trial_index": 100}, "uniqueid": "MTK1467:38F5OAUN5OJT9FRSS5RYH2T9Y8T7H4", "dateTime": 1515899192048}, {"current_trial": 101, "trialdata": {"rt": -1, "trial_type": "single-stim", "stimulus": "", "internal_node_id": "0.0-74.0-0.0", "time_elapsed": 564824, "key_press": -1, "type": "PRE_RECALL_DELAY", "trial_index": 101}, "uniqueid": "MTK1467:38F5OAUN5OJT9FRSS5RYH2T9Y8T7H4", "dateTime": 1515899194443}, {"current_trial": 102, "trialdata": {"rt": -1000, "trial_type": "single-audio", "stimulus": "/static/audio/400Hz.wav", "internal_node_id": "0.0-75.0", "time_elapsed": 565326, "key_press": -1, "type": "PRE_RECALL_ALERT", "trial_index": 102}, "uniqueid": "MTK1467:38F5OAUN5OJT9FRSS5RYH2T9Y8T7H4", "dateTime": 1515899194945}, {"current_trial": 103, "trialdata": {"rt": [1986, 3330, 7288, 9690, 27714, 30858], "recwords": ["flower", "fox", "uncle", "wife", "dashboard", "gavel"], "key_times": [1051, 1146, 1442, 1562, 1602, 1730, 1986, 2274, 2418, 2682, 3330, 5882, 5962, 6178, 6830, 6882, 7288, 9250, 9314, 9450, 9554, 9690, 26298, 26466, 26578, 26762, 26978, 27130, 27250, 27362, 27602, 27714, 29962, 30170, 30346, 30466, 30554, 30858], "trial_type": "free-recall", "conditions": [12, 1600, "v", 24000], "internal_node_id": "0.0-76.0-0.0", "key_presses": [70, 76, 79, 87, 69, 82, 13, 70, 79, 88, 13, 85, 78, 67, 76, 69, 13, 87, 73, 70, 69, 13, 68, 65, 83, 72, 66, 79, 65, 82, 68, 13, 71, 65, 86, 69, 76, 13], "trial": 2, "time_elapsed": 625328, "type": "FREE_RECALL", "trial_index": 103}, "uniqueid": "MTK1467:38F5OAUN5OJT9FRSS5RYH2T9Y8T7H4", "dateTime": 1515899254950}, {"current_trial": 104, "trialdata": {"rt": 2321, "trial_type": "text", "internal_node_id": "0.0-77.0", "time_elapsed": 629653, "key_press": 32, "type": "INSTRUCTIONS", "trial_index": 104}, "uniqueid": "MTK1467:38F5OAUN5OJT9FRSS5RYH2T9Y8T7H4", "dateTime": 1515899259272}, {"current_trial": 105, "trialdata": {"rt": [2649, 5097, 7497, 11305], "trial_type": "math-distractor", "key_times": [2001, 2121, 2649, 4769, 4833, 5097, 6988, 7393, 7497, 10906, 11009, 11305], "responses": ["17", "20", "16", "19"], "num2": [7, 6, 6, 7, 3], "num3": [8, 7, 6, 6, 1], "conditions": [24, 800, "v", 12000], "internal_node_id": "0.0-78.0", "key_presses": [49, 55, 13, 50, 48, 13, 49, 54, 13, 49, 57, 13], "trial": 3, "time_elapsed": 643656, "type": "DISTRACTOR", "trial_index": 105, "num1": [2, 7, 4, 6, 2]}, "uniqueid": "MTK1467:38F5OAUN5OJT9FRSS5RYH2T9Y8T7H4", "dateTime": 1515899273275}, {"current_trial": 106, "trialdata": {"rt": -1, "trial_type": "single-stim", "stimulus": "<p id=\"stim\">10</p>", "internal_node_id": "0.0-79.0-0.0", "time_elapsed": 646658, "key_press": -1, "trial_index": 106}, "uniqueid": "MTK1467:38F5OAUN5OJT9FRSS5RYH2T9Y8T7H4", "dateTime": 1515899276277}, {"current_trial": 107, "trialdata": {"rt": -1, "trial_type": "single-stim", "stimulus": "<p id=\"stim\">9</p>", "internal_node_id": "0.0-79.0-1.0", "time_elapsed": 647660, "key_press": -1, "trial_index": 107}, "uniqueid": "MTK1467:38F5OAUN5OJT9FRSS5RYH2T9Y8T7H4", "dateTime": 1515899277279}, {"current_trial": 108, "trialdata": {"rt": -1, "trial_type": "single-stim", "stimulus": "<p id=\"stim\">8</p>", "internal_node_id": "0.0-79.0-2.0", "time_elapsed": 648661, "key_press": -1, "trial_index": 108}, "uniqueid": "MTK1467:38F5OAUN5OJT9FRSS5RYH2T9Y8T7H4", "dateTime": 1515899278281}, {"current_trial": 109, "trialdata": {"rt": -1, "trial_type": "single-stim", "stimulus": "<p id=\"stim\">7</p>", "internal_node_id": "0.0-79.0-3.0", "time_elapsed": 649663, "key_press": -1, "trial_index": 109}, "uniqueid": "MTK1467:38F5OAUN5OJT9FRSS5RYH2T9Y8T7H4", "dateTime": 1515899279282}, {"current_trial": 110, "trialdata": {"rt": -1, "trial_type": "single-stim", "stimulus": "<p id=\"stim\">6</p>", "internal_node_id": "0.0-79.0-4.0", "time_elapsed": 650665, "key_press": -1, "trial_index": 110}, "uniqueid": "MTK1467:38F5OAUN5OJT9FRSS5RYH2T9Y8T7H4", "dateTime": 1515899280284}, {"current_trial": 111, "trialdata": {"rt": -1, "trial_type": "single-stim", "stimulus": "<p id=\"stim\">5</p>", "internal_node_id": "0.0-79.0-5.0", "time_elapsed": 651666, "key_press": -1, "trial_index": 111}, "uniqueid": "MTK1467:38F5OAUN5OJT9FRSS5RYH2T9Y8T7H4", "dateTime": 1515899281286}, {"current_trial": 112, "trialdata": {"rt": -1, "trial_type": "single-stim", "stimulus": "<p id=\"stim\">4</p>", "internal_node_id": "0.0-79.0-6.0", "time_elapsed": 652668, "key_press": -1, "trial_index": 112}, "uniqueid": "MTK1467:38F5OAUN5OJT9FRSS5RYH2T9Y8T7H4", "dateTime": 1515899282287}, {"current_trial": 113, "trialdata": {"rt": -1, "trial_type": "single-stim", "stimulus": "<p id=\"stim\">3</p>", "internal_node_id": "0.0-79.0-7.0", "time_elapsed": 653670, "key_press": -1, "trial_index": 113}, "uniqueid": "MTK1467:38F5OAUN5OJT9FRSS5RYH2T9Y8T7H4", "dateTime": 1515899283289}, {"current_trial": 114, "trialdata": {"rt": -1, "trial_type": "single-stim", "stimulus": "<p id=\"stim\">2</p>", "internal_node_id": "0.0-79.0-8.0", "time_elapsed": 654671, "key_press": -1, "trial_index": 114}, "uniqueid": "MTK1467:38F5OAUN5OJT9FRSS5RYH2T9Y8T7H4", "dateTime": 1515899284291}, {"current_trial": 115, "trialdata": {"rt": -1, "trial_type": "single-stim", "stimulus": "<p id=\"stim\">1</p>", "internal_node_id": "0.0-79.0-9.0", "time_elapsed": 655673, "key_press": -1, "trial_index": 115}, "uniqueid": "MTK1467:38F5OAUN5OJT9FRSS5RYH2T9Y8T7H4", "dateTime": 1515899285292}, {"current_trial": 116, "trialdata": {"rt": -1, "trial_type": "single-stim", "stimulus": "<p id=\"stim\">+</p>", "internal_node_id": "0.0-80.0-0.0", "time_elapsed": 657174, "key_press": -1, "type": "FIXATION", "trial_index": 116}, "uniqueid": "MTK1467:38F5OAUN5OJT9FRSS5RYH2T9Y8T7H4", "dateTime": 1515899286793}, {"current_trial": 117, "trialdata": {"rt": -1, "trial_type": "single-stim", "word": "chemist", "stimulus": "<p id=\"stim\">CHEMIST</p>", "conditions": [24, 800, "v", 12000], "internal_node_id": "0.0-81.0", "trial": 3, "time_elapsed": 657975, "serialpos": 0, "key_press": -1, "wordID": 291, "type": "PRES_VIS", "trial_index": 117}, "uniqueid": "MTK1467:38F5OAUN5OJT9FRSS5RYH2T9Y8T7H4", "dateTime": 1515899287595}, {"current_trial": 118, "trialdata": {"rt": -1, "trial_type": "single-stim", "word": "france", "stimulus": "<p id=\"stim\">FRANCE</p>", "conditions": [24, 800, "v", 12000], "internal_node_id": "0.0-82.0", "trial": 3, "time_elapsed": 659709, "serialpos": 1, "key_press": -1, "wordID": 600, "type": "PRES_VIS", "trial_index": 118}, "uniqueid": "MTK1467:38F5OAUN5OJT9FRSS5RYH2T9Y8T7H4", "dateTime": 1515899289328}, {"current_trial": 119, "trialdata": {"rt": -1, "trial_type": "single-stim", "word": "robber", "stimulus": "<p id=\"stim\">ROBBER</p>", "conditions": [24, 800, "v", 12000], "internal_node_id": "0.0-83.0", "trial": 3, "time_elapsed": 661635, "serialpos": 2, "key_press": -1, "wordID": 1196, "type": "PRES_VIS", "trial_index": 119}, "uniqueid": "MTK1467:38F5OAUN5OJT9FRSS5RYH2T9Y8T7H4", "dateTime": 1515899291254}, {"current_trial": 120, "trialdata": {"rt": -1, "trial_type": "single-stim", "word": "pistol", "stimulus": "<p id=\"stim\">PISTOL</p>", "conditions": [24, 800, "v", 12000], "internal_node_id": "0.0-84.0", "trial": 3, "time_elapsed": 663447, "serialpos": 3, "key_press": -1, "wordID": 1074, "type": "PRES_VIS", "trial_index": 120}, "uniqueid": "MTK1467:38F5OAUN5OJT9FRSS5RYH2T9Y8T7H4", "dateTime": 1515899293066}, {"current_trial": 121, "trialdata": {"rt": -1, "trial_type": "single-stim", "word": "asia", "stimulus": "<p id=\"stim\">ASIA</p>", "conditions": [24, 800, "v", 12000], "internal_node_id": "0.0-85.0", "trial": 3, "time_elapsed": 665232, "serialpos": 4, "key_press": -1, "wordID": 45, "type": "PRES_VIS", "trial_index": 121}, "uniqueid": "MTK1467:38F5OAUN5OJT9FRSS5RYH2T9Y8T7H4", "dateTime": 1515899294851}, {"current_trial": 122, "trialdata": {"rt": -1, "trial_type": "single-stim", "word": "flashlight", "stimulus": "<p id=\"stim\">FLASHLIGHT</p>", "conditions": [24, 800, "v", 12000], "internal_node_id": "0.0-86.0", "trial": 3, "time_elapsed": 667034, "serialpos": 5, "key_press": -1, "wordID": 574, "type": "PRES_VIS", "trial_index": 122}, "uniqueid": "MTK1467:38F5OAUN5OJT9FRSS5RYH2T9Y8T7H4", "dateTime": 1515899296653}, {"current_trial": 123, "trialdata": {"rt": -1, "trial_type": "single-stim", "word": "clothes", "stimulus": "<p id=\"stim\">CLOTHES</p>", "conditions": [24, 800, "v", 12000], "internal_node_id": "0.0-87.0", "trial": 3, "time_elapsed": 668856, "serialpos": 6, "key_press": -1, "wordID": 326, "type": "PRES_VIS", "trial_index": 123}, "uniqueid": "MTK1467:38F5OAUN5OJT9FRSS5RYH2T9Y8T7H4", "dateTime": 1515899298475}, {"current_trial": 124, "trialdata": {"rt": -1, "trial_type": "single-stim", "word": "flask", "stimulus": "<p id=\"stim\">FLASK</p>", "conditions": [24, 800, "v", 12000], "internal_node_id": "0.0-88.0", "trial": 3, "time_elapsed": 670713, "serialpos": 7, "key_press": -1, "wordID": 575, "type": "PRES_VIS", "trial_index": 124}, "uniqueid": "MTK1467:38F5OAUN5OJT9FRSS5RYH2T9Y8T7H4", "dateTime": 1515899300332}, {"current_trial": 125, "trialdata": {"rt": -1, "trial_type": "single-stim", "word": "beaker", "stimulus": "<p id=\"stim\">BEAKER</p>", "conditions": [24, 800, "v", 12000], "internal_node_id": "0.0-89.0", "trial": 3, "time_elapsed": 672552, "serialpos": 8, "key_press": -1, "wordID": 103, "type": "PRES_VIS", "trial_index": 125}, "uniqueid": "MTK1467:38F5OAUN5OJT9FRSS5RYH2T9Y8T7H4", "dateTime": 1515899302171}, {"current_trial": 126, "trialdata": {"rt": -1, "trial_type": "single-stim", "word": "server", "stimulus": "<p id=\"stim\">SERVER</p>", "conditions": [24, 800, "v", 12000], "internal_node_id": "0.0-90.0", "trial": 3, "time_elapsed": 674219, "serialpos": 9, "key_press": -1, "wordID": 1271, "type": "PRES_VIS", "trial_index": 126}, "uniqueid": "MTK1467:38F5OAUN5OJT9FRSS5RYH2T9Y8T7H4", "dateTime": 1515899303838}, {"current_trial": 127, "trialdata": {"rt": -1, "trial_type": "single-stim", "word": "bullet", "stimulus": "<p id=\"stim\">BULLET</p>", "conditions": [24, 800, "v", 12000], "internal_node_id": "0.0-91.0", "trial": 3, "time_elapsed": 675908, "serialpos": 10, "key_press": -1, "wordID": 193, "type": "PRES_VIS", "trial_index": 127}, "uniqueid": "MTK1467:38F5OAUN5OJT9FRSS5RYH2T9Y8T7H4", "dateTime": 1515899305527}, {"current_trial": 128, "trialdata": {"rt": -1, "trial_type": "single-stim", "word": "suspect", "stimulus": "<p id=\"stim\">SUSPECT</p>", "conditions": [24, 800, "v", 12000], "internal_node_id": "0.0-92.0", "trial": 3, "time_elapsed": 677518, "serialpos": 11, "key_press": -1, "wordID": 1414, "type": "PRES_VIS", "trial_index": 128}, "uniqueid": "MTK1467:38F5OAUN5OJT9FRSS5RYH2T9Y8T7H4", "dateTime": 1515899307138}, {"current_trial": 129, "trialdata": {"rt": -1, "trial_type": "single-stim", "word": "judge", "stimulus": "<p id=\"stim\">JUDGE</p>", "conditions": [24, 800, "v", 12000], "internal_node_id": "0.0-93.0", "trial": 3, "time_elapsed": 679370, "serialpos": 12, "key_press": -1, "wordID": 760, "type": "PRES_VIS", "trial_index": 129}, "uniqueid": "MTK1467:38F5OAUN5OJT9FRSS5RYH2T9Y8T7H4", "dateTime": 1515899308989}, {"current_trial": 130, "trialdata": {"rt": -1, "trial_type": "single-stim", "word": "jury", "stimulus": "<p id=\"stim\">JURY</p>", "conditions": [24, 800, "v", 12000], "internal_node_id": "0.0-94.0", "trial": 3, "time_elapsed": 681243, "serialpos": 13, "key_press": -1, "wordID": 765, "type": "PRES_VIS", "trial_index": 130}, "uniqueid": "MTK1467:38F5OAUN5OJT9FRSS5RYH2T9Y8T7H4", "dateTime": 1515899310862}, {"current_trial": 131, "trialdata": {"rt": -1, "trial_type": "single-stim", "word": "viking", "stimulus": "<p id=\"stim\">VIKING</p>", "conditions": [24, 800, "v", 12000], "internal_node_id": "0.0-95.0", "trial": 3, "time_elapsed": 683156, "serialpos": 14, "key_press": -1, "wordID": 1564, "type": "PRES_VIS", "trial_index": 131}, "uniqueid": "MTK1467:38F5OAUN5OJT9FRSS5RYH2T9Y8T7H4", "dateTime": 1515899312775}, {"current_trial": 132, "trialdata": {"rt": -1, "trial_type": "single-stim", "word": "loft", "stimulus": "<p id=\"stim\">LOFT</p>", "conditions": [24, 800, "v", 12000], "internal_node_id": "0.0-96.0", "trial": 3, "time_elapsed": 685055, "serialpos": 15, "key_press": -1, "wordID": 839, "type": "PRES_VIS", "trial_index": 132}, "uniqueid": "MTK1467:38F5OAUN5OJT9FRSS5RYH2T9Y8T7H4", "dateTime": 1515899314675}, {"current_trial": 133, "trialdata": {"rt": -1, "trial_type": "single-stim", "word": "frame", "stimulus": "<p id=\"stim\">FRAME</p>", "conditions": [24, 800, "v", 12000], "internal_node_id": "0.0-97.0", "trial": 3, "time_elapsed": 687005, "serialpos": 16, "key_press": -1, "wordID": 599, "type": "PRES_VIS", "trial_index": 133}, "uniqueid": "MTK1467:38F5OAUN5OJT9FRSS5RYH2T9Y8T7H4", "dateTime": 1515899316624}, {"current_trial": 134, "trialdata": {"rt": -1, "trial_type": "single-stim", "word": "hostess", "stimulus": "<p id=\"stim\">HOSTESS</p>", "conditions": [24, 800, "v", 12000], "internal_node_id": "0.0-98.0", "trial": 3, "time_elapsed": 688916, "serialpos": 17, "key_press": -1, "wordID": 722, "type": "PRES_VIS", "trial_index": 134}, "uniqueid": "MTK1467:38F5OAUN5OJT9FRSS5RYH2T9Y8T7H4", "dateTime": 1515899318535}, {"current_trial": 135, "trialdata": {"rt": -1, "trial_type": "single-stim", "word": "bubble", "stimulus": "<p id=\"stim\">BUBBLE</p>", "conditions": [24, 800, "v", 12000], "internal_node_id": "0.0-99.0", "trial": 3, "time_elapsed": 690747, "serialpos": 18, "key_press": -1, "wordID": 182, "type": "PRES_VIS", "trial_index": 135}, "uniqueid": "MTK1467:38F5OAUN5OJT9FRSS5RYH2T9Y8T7H4", "dateTime": 1515899320366}, {"current_trial": 136, "trialdata": {"rt": -1, "trial_type": "single-stim", "word": "onion", "stimulus": "<p id=\"stim\">ONION</p>", "conditions": [24, 800, "v", 12000], "internal_node_id": "0.0-100.0", "trial": 3, "time_elapsed": 692443, "serialpos": 19, "key_press": -1, "wordID": 976, "type": "PRES_VIS", "trial_index": 136}, "uniqueid": "MTK1467:38F5OAUN5OJT9FRSS5RYH2T9Y8T7H4", "dateTime": 1515899322062}, {"current_trial": 137, "trialdata": {"rt": -1, "trial_type": "single-stim", "word": "climber", "stimulus": "<p id=\"stim\">CLIMBER</p>", "conditions": [24, 800, "v", 12000], "internal_node_id": "0.0-101.0", "trial": 3, "time_elapsed": 694137, "serialpos": 20, "key_press": -1, "wordID": 322, "type": "PRES_VIS", "trial_index": 137}, "uniqueid": "MTK1467:38F5OAUN5OJT9FRSS5RYH2T9Y8T7H4", "dateTime": 1515899323756}, {"current_trial": 138, "trialdata": {"rt": -1, "trial_type": "single-stim", "word": "garbage", "stimulus": "<p id=\"stim\">GARBAGE</p>", "conditions": [24, 800, "v", 12000], "internal_node_id": "0.0-102.0", "trial": 3, "time_elapsed": 696065, "serialpos": 21, "key_press": -1, "wordID": 621, "type": "PRES_VIS", "trial_index": 138}, "uniqueid": "MTK1467:38F5OAUN5OJT9FRSS5RYH2T9Y8T7H4", "dateTime": 1515899325684}, {"current_trial": 139, "trialdata": {"rt": -1, "trial_type": "single-stim", "word": "cabbage", "stimulus": "<p id=\"stim\">CABBAGE</p>", "conditions": [24, 800, "v", 12000], "internal_node_id": "0.0-103.0", "trial": 3, "time_elapsed": 697905, "serialpos": 22, "key_press": -1, "wordID": 209, "type": "PRES_VIS", "trial_index": 139}, "uniqueid": "MTK1467:38F5OAUN5OJT9FRSS5RYH2T9Y8T7H4", "dateTime": 1515899327524}, {"current_trial": 140, "trialdata": {"rt": -1, "trial_type": "single-stim", "word": "dress", "stimulus": "<p id=\"stim\">DRESS</p>", "conditions": [24, 800, "v", 12000], "internal_node_id": "0.0-104.0", "trial": 3, "time_elapsed": 699652, "serialpos": 23, "key_press": -1, "wordID": 494, "type": "PRES_VIS", "trial_index": 140}, "uniqueid": "MTK1467:38F5OAUN5OJT9FRSS5RYH2T9Y8T7H4", "dateTime": 1515899329271}, {"current_trial": 141, "trialdata": {"rt": -1, "trial_type": "single-stim", "stimulus": "", "internal_node_id": "0.0-105.0-0.0", "time_elapsed": 702065, "key_press": -1, "type": "PRE_RECALL_DELAY", "trial_index": 141}, "uniqueid": "MTK1467:38F5OAUN5OJT9FRSS5RYH2T9Y8T7H4", "dateTime": 1515899331684}, {"current_trial": 142, "trialdata": {"rt": -1000, "trial_type": "single-audio", "stimulus": "/static/audio/400Hz.wav", "internal_node_id": "0.0-106.0", "time_elapsed": 702571, "key_press": -1, "type": "PRE_RECALL_ALERT", "trial_index": 142}, "uniqueid": "MTK1467:38F5OAUN5OJT9FRSS5RYH2T9Y8T7H4", "dateTime": 1515899332190}, {"current_trial": 143, "trialdata": {"rt": [3042, 3994, 5258, 7170, 7946, 9346, 14491, 22947, 23907, 35498, 47218], "recwords": ["garbage", "cabbage", "dress", "bullet", "judge", "jury", "pistol", "chemist", "beaker", "onion", "garbage"], "key_times": [2259, 2434, 2522, 2634, 2770, 2866, 2954, 3042, 3218, 3290, 3378, 3562, 3658, 3802, 3882, 3994, 4506, 4714, 4782, 4938, 5082, 5258, 6362, 6482, 6746, 6906, 6954, 7058, 7170, 7370, 7498, 7578, 7786, 7850, 7946, 8146, 8242, 8338, 8498, 8914, 9114, 9346, 13371, 13482, 13562, 13786, 13858, 14114, 14491, 21931, 22003, 22179, 22275, 22394, 22523, 22771, 22947, 23170, 23259, 23403, 23531, 23683, 23770, 23907, 34821, 34898, 35050, 35170, 35258, 35498, 46323, 46506, 46602, 46786, 46930, 46986, 47090, 47218], "trial_type": "free-recall", "conditions": [24, 800, "v", 12000], "internal_node_id": "0.0-107.0-0.0", "key_presses": [71, 65, 82, 66, 65, 71, 69, 13, 67, 65, 66, 66, 65, 71, 69, 13, 68, 82, 69, 83, 83, 13, 66, 85, 76, 76, 69, 84, 13, 74, 85, 68, 71, 69, 13, 74, 85, 82, 85, 8, 89, 13, 80, 73, 83, 84, 79, 76, 13, 67, 72, 69, 77, 73, 83, 84, 13, 66, 69, 65, 75, 69, 82, 13, 79, 78, 73, 79, 78, 13, 71, 65, 82, 66, 65, 71, 69, 13], "trial": 3, "time_elapsed": 762574, "type": "FREE_RECALL", "trial_index": 143}, "uniqueid": "MTK1467:38F5OAUN5OJT9FRSS5RYH2T9Y8T7H4", "dateTime": 1515899392195}, {"current_trial": 144, "trialdata": {"rt": 1174, "trial_type": "text", "internal_node_id": "0.0-108.0", "time_elapsed": 765752, "key_press": 32, "type": "INSTRUCTIONS", "trial_index": 144}, "uniqueid": "MTK1467:38F5OAUN5OJT9FRSS5RYH2T9Y8T7H4", "dateTime": 1515899395371}, {"current_trial": 145, "trialdata": {"rt": [4510, 7294, 9821, 11605], "trial_type": "math-distractor", "key_times": [3942, 4238, 4510, 6974, 7198, 7294, 9294, 9725, 9821, 11221, 11517, 11605], "responses": ["13", "11", "16", "14"], "num2": [7, 2, 4, 4, 4], "num3": [2, 4, 8, 7, 5], "conditions": [12, 800, "v", 12000], "internal_node_id": "0.0-109.0", "key_presses": [49, 51, 13, 49, 49, 13, 49, 54, 13, 49, 52, 13], "trial": 4, "time_elapsed": 779754, "type": "DISTRACTOR", "trial_index": 145, "num1": [4, 5, 4, 3, 8]}, "uniqueid": "MTK1467:38F5OAUN5OJT9FRSS5RYH2T9Y8T7H4", "dateTime": 1515899409373}, {"current_trial": 146, "trialdata": {"rt": -1, "trial_type": "single-stim", "stimulus": "<p id=\"stim\">10</p>", "internal_node_id": "0.0-110.0-0.0", "time_elapsed": 782756, "key_press": -1, "trial_index": 146}, "uniqueid": "MTK1467:38F5OAUN5OJT9FRSS5RYH2T9Y8T7H4", "dateTime": 1515899412375}, {"current_trial": 147, "trialdata": {"rt": -1, "trial_type": "single-stim", "stimulus": "<p id=\"stim\">9</p>", "internal_node_id": "0.0-110.0-1.0", "time_elapsed": 783758, "key_press": -1, "trial_index": 147}, "uniqueid": "MTK1467:38F5OAUN5OJT9FRSS5RYH2T9Y8T7H4", "dateTime": 1515899413377}, {"current_trial": 148, "trialdata": {"rt": -1, "trial_type": "single-stim", "stimulus": "<p id=\"stim\">8</p>", "internal_node_id": "0.0-110.0-2.0", "time_elapsed": 784759, "key_press": -1, "trial_index": 148}, "uniqueid": "MTK1467:38F5OAUN5OJT9FRSS5RYH2T9Y8T7H4", "dateTime": 1515899414378}, {"current_trial": 149, "trialdata": {"rt": -1, "trial_type": "single-stim", "stimulus": "<p id=\"stim\">7</p>", "internal_node_id": "0.0-110.0-3.0", "time_elapsed": 785761, "key_press": -1, "trial_index": 149}, "uniqueid": "MTK1467:38F5OAUN5OJT9FRSS5RYH2T9Y8T7H4", "dateTime": 1515899415380}, {"current_trial": 150, "trialdata": {"rt": -1, "trial_type": "single-stim", "stimulus": "<p id=\"stim\">6</p>", "internal_node_id": "0.0-110.0-4.0", "time_elapsed": 786763, "key_press": -1, "trial_index": 150}, "uniqueid": "MTK1467:38F5OAUN5OJT9FRSS5RYH2T9Y8T7H4", "dateTime": 1515899416382}, {"current_trial": 151, "trialdata": {"rt": -1, "trial_type": "single-stim", "stimulus": "<p id=\"stim\">5</p>", "internal_node_id": "0.0-110.0-5.0", "time_elapsed": 787764, "key_press": -1, "trial_index": 151}, "uniqueid": "MTK1467:38F5OAUN5OJT9FRSS5RYH2T9Y8T7H4", "dateTime": 1515899417383}, {"current_trial": 152, "trialdata": {"rt": -1, "trial_type": "single-stim", "stimulus": "<p id=\"stim\">4</p>", "internal_node_id": "0.0-110.0-6.0", "time_elapsed": 788765, "key_press": -1, "trial_index": 152}, "uniqueid": "MTK1467:38F5OAUN5OJT9FRSS5RYH2T9Y8T7H4", "dateTime": 1515899418385}, {"current_trial": 153, "trialdata": {"rt": -1, "trial_type": "single-stim", "stimulus": "<p id=\"stim\">3</p>", "internal_node_id": "0.0-110.0-7.0", "time_elapsed": 789767, "key_press": -1, "trial_index": 153}, "uniqueid": "MTK1467:38F5OAUN5OJT9FRSS5RYH2T9Y8T7H4", "dateTime": 1515899419386}, {"current_trial": 154, "trialdata": {"rt": -1, "trial_type": "single-stim", "stimulus": "<p id=\"stim\">2</p>", "internal_node_id": "0.0-110.0-8.0", "time_elapsed": 790769, "key_press": -1, "trial_index": 154}, "uniqueid": "MTK1467:38F5OAUN5OJT9FRSS5RYH2T9Y8T7H4", "dateTime": 1515899420388}, {"current_trial": 155, "trialdata": {"rt": -1, "trial_type": "single-stim", "stimulus": "<p id=\"stim\">1</p>", "internal_node_id": "0.0-110.0-9.0", "time_elapsed": 791770, "key_press": -1, "trial_index": 155}, "uniqueid": "MTK1467:38F5OAUN5OJT9FRSS5RYH2T9Y8T7H4", "dateTime": 1515899421389}, {"current_trial": 156, "trialdata": {"rt": -1, "trial_type": "single-stim", "stimulus": "<p id=\"stim\">+</p>", "internal_node_id": "0.0-111.0-0.0", "time_elapsed": 793271, "key_press": -1, "type": "FIXATION", "trial_index": 156}, "uniqueid": "MTK1467:38F5OAUN5OJT9FRSS5RYH2T9Y8T7H4", "dateTime": 1515899422890}, {"current_trial": 157, "trialdata": {"rt": -1, "trial_type": "single-stim", "word": "tweezers", "stimulus": "<p id=\"stim\">TWEEZERS</p>", "conditions": [12, 800, "v", 12000], "internal_node_id": "0.0-112.0", "trial": 4, "time_elapsed": 794073, "serialpos": 0, "key_press": -1, "wordID": 1525, "type": "PRES_VIS", "trial_index": 157}, "uniqueid": "MTK1467:38F5OAUN5OJT9FRSS5RYH2T9Y8T7H4", "dateTime": 1515899423692}, {"current_trial": 158, "trialdata": {"rt": -1, "trial_type": "single-stim", "word": "virus", "stimulus": "<p id=\"stim\">VIRUS</p>", "conditions": [12, 800, "v", 12000], "internal_node_id": "0.0-113.0", "trial": 4, "time_elapsed": 795887, "serialpos": 1, "key_press": -1, "wordID": 1571, "type": "PRES_VIS", "trial_index": 158}, "uniqueid": "MTK1467:38F5OAUN5OJT9FRSS5RYH2T9Y8T7H4", "dateTime": 1515899425506}, {"current_trial": 159, "trialdata": {"rt": -1, "trial_type": "single-stim", "word": "atlas", "stimulus": "<p id=\"stim\">ATLAS</p>", "conditions": [12, 800, "v", 12000], "internal_node_id": "0.0-114.0", "trial": 4, "time_elapsed": 797506, "serialpos": 2, "key_press": -1, "wordID": 52, "type": "PRES_VIS", "trial_index": 159}, "uniqueid": "MTK1467:38F5OAUN5OJT9FRSS5RYH2T9Y8T7H4", "dateTime": 1515899427125}, {"current_trial": 160, "trialdata": {"rt": -1, "trial_type": "single-stim", "word": "hound", "stimulus": "<p id=\"stim\">HOUND</p>", "conditions": [12, 800, "v", 12000], "internal_node_id": "0.0-115.0", "trial": 4, "time_elapsed": 799212, "serialpos": 3, "key_press": -1, "wordID": 723, "type": "PRES_VIS", "trial_index": 160}, "uniqueid": "MTK1467:38F5OAUN5OJT9FRSS5RYH2T9Y8T7H4", "dateTime": 1515899428831}, {"current_trial": 161, "trialdata": {"rt": -1, "trial_type": "single-stim", "word": "pigeon", "stimulus": "<p id=\"stim\">PIGEON</p>", "conditions": [12, 800, "v", 12000], "internal_node_id": "0.0-116.0", "trial": 4, "time_elapsed": 800849, "serialpos": 4, "key_press": -1, "wordID": 1064, "type": "PRES_VIS", "trial_index": 161}, "uniqueid": "MTK1467:38F5OAUN5OJT9FRSS5RYH2T9Y8T7H4", "dateTime": 1515899430469}, {"current_trial": 162, "trialdata": {"rt": -1, "trial_type": "single-stim", "word": "tribe", "stimulus": "<p id=\"stim\">TRIBE</p>", "conditions": [12, 800, "v", 12000], "internal_node_id": "0.0-117.0", "trial": 4, "time_elapsed": 802576, "serialpos": 5, "key_press": -1, "wordID": 1504, "type": "PRES_VIS", "trial_index": 162}, "uniqueid": "MTK1467:38F5OAUN5OJT9FRSS5RYH2T9Y8T7H4", "dateTime": 1515899432196}, {"current_trial": 163, "trialdata": {"rt": -1, "trial_type": "single-stim", "word": "penguin", "stimulus": "<p id=\"stim\">PENGUIN</p>", "conditions": [12, 800, "v", 12000], "internal_node_id": "0.0-118.0", "trial": 4, "time_elapsed": 804532, "serialpos": 6, "key_press": -1, "wordID": 1043, "type": "PRES_VIS", "trial_index": 163}, "uniqueid": "MTK1467:38F5OAUN5OJT9FRSS5RYH2T9Y8T7H4", "dateTime": 1515899434151}, {"current_trial": 164, "trialdata": {"rt": -1, "trial_type": "single-stim", "word": "turtle", "stimulus": "<p id=\"stim\">TURTLE</p>", "conditions": [12, 800, "v", 12000], "internal_node_id": "0.0-119.0", "trial": 4, "time_elapsed": 806402, "serialpos": 7, "key_press": -1, "wordID": 1521, "type": "PRES_VIS", "trial_index": 164}, "uniqueid": "MTK1467:38F5OAUN5OJT9FRSS5RYH2T9Y8T7H4", "dateTime": 1515899436021}, {"current_trial": 165, "trialdata": {"rt": -1, "trial_type": "single-stim", "word": "actress", "stimulus": "<p id=\"stim\">ACTRESS</p>", "conditions": [12, 800, "v", 12000], "internal_node_id": "0.0-120.0", "trial": 4, "time_elapsed": 808390, "serialpos": 8, "key_press": -1, "wordID": 5, "type": "PRES_VIS", "trial_index": 165}, "uniqueid": "MTK1467:38F5OAUN5OJT9FRSS5RYH2T9Y8T7H4", "dateTime": 1515899438010}, {"current_trial": 166, "trialdata": {"rt": -1, "trial_type": "single-stim", "word": "laser", "stimulus": "<p id=\"stim\">LASER</p>", "conditions": [12, 800, "v", 12000], "internal_node_id": "0.0-121.0", "trial": 4, "time_elapsed": 810077, "serialpos": 9, "key_press": -1, "wordID": 800, "type": "PRES_VIS", "trial_index": 166}, "uniqueid": "MTK1467:38F5OAUN5OJT9FRSS5RYH2T9Y8T7H4", "dateTime": 1515899439697}, {"current_trial": 167, "trialdata": {"rt": -1, "trial_type": "single-stim", "word": "author", "stimulus": "<p id=\"stim\">AUTHOR</p>", "conditions": [12, 800, "v", 12000], "internal_node_id": "0.0-122.0", "trial": 4, "time_elapsed": 811990, "serialpos": 10, "key_press": -1, "wordID": 60, "type": "PRES_VIS", "trial_index": 167}, "uniqueid": "MTK1467:38F5OAUN5OJT9FRSS5RYH2T9Y8T7H4", "dateTime": 1515899441609}, {"current_trial": 168, "trialdata": {"rt": -1, "trial_type": "single-stim", "word": "bug", "stimulus": "<p id=\"stim\">BUG</p>", "conditions": [12, 800, "v", 12000], "internal_node_id": "0.0-123.0", "trial": 4, "time_elapsed": 813929, "serialpos": 11, "key_press": -1, "wordID": 186, "type": "PRES_VIS", "trial_index": 168}, "uniqueid": "MTK1467:38F5OAUN5OJT9FRSS5RYH2T9Y8T7H4", "dateTime": 1515899443548}, {"current_trial": 169, "trialdata": {"rt": -1, "trial_type": "single-stim", "stimulus": "", "internal_node_id": "0.0-124.0-0.0", "time_elapsed": 816241, "key_press": -1, "type": "PRE_RECALL_DELAY", "trial_index": 169}, "uniqueid": "MTK1467:38F5OAUN5OJT9FRSS5RYH2T9Y8T7H4", "dateTime": 1515899445860}, {"current_trial": 170, "trialdata": {"rt": -1000, "trial_type": "single-audio", "stimulus": "/static/audio/400Hz.wav", "internal_node_id": "0.0-125.0", "time_elapsed": 816747, "key_press": -1, "type": "PRE_RECALL_ALERT", "trial_index": 170}, "uniqueid": "MTK1467:38F5OAUN5OJT9FRSS5RYH2T9Y8T7H4", "dateTime": 1515899446367}, {"current_trial": 171, "trialdata": {"rt": [2563, 4297, 5977, 8261, 15321], "recwords": ["bug", "tweezers", "atlas", "author", "pidgeon"], "key_times": [1689, 1761, 1921, 2563, 2737, 3017, 3169, 3369, 3649, 3817, 3953, 4137, 4297, 5169, 5401, 5529, 5633, 5713, 5977, 7105, 7297, 7473, 7561, 7737, 7865, 8261, 13553, 14225, 14369, 14569, 14665, 14753, 14905, 15321], "trial_type": "free-recall", "conditions": [12, 800, "v", 12000], "internal_node_id": "0.0-126.0-0.0", "key_presses": [66, 85, 71, 13, 84, 87, 69, 69, 90, 69, 82, 83, 13, 65, 84, 76, 65, 83, 13, 65, 85, 84, 72, 79, 82, 13, 80, 73, 68, 71, 69, 79, 78, 13], "trial": 4, "time_elapsed": 876751, "type": "FREE_RECALL", "trial_index": 171}, "uniqueid": "MTK1467:38F5OAUN5OJT9FRSS5RYH2T9Y8T7H4", "dateTime": 1515899506372}, {"current_trial": 172, "trialdata": {"rt": 2276, "trial_type": "text", "internal_node_id": "0.0-127.0", "time_elapsed": 881030, "key_press": 32, "type": "INSTRUCTIONS", "trial_index": 172}, "uniqueid": "MTK1467:38F5OAUN5OJT9FRSS5RYH2T9Y8T7H4", "dateTime": 1515899510649}, {"current_trial": 173, "trialdata": {"rt": [2495, 4879, 6807, 10871], "trial_type": "math-distractor", "key_times": [2015, 2247, 2495, 4527, 4879, 6199, 6391, 6807, 10199, 10631, 10871], "responses": ["11", "6", "18", "26"], "num2": [1, 3, 2, 8, 1], "num3": [8, 2, 8, 9, 5], "conditions": [12, 1600, "v", 12000], "internal_node_id": "0.0-128.0", "key_presses": [49, 49, 13, 54, 13, 49, 56, 13, 50, 54, 13], "trial": 5, "time_elapsed": 895033, "type": "DISTRACTOR", "trial_index": 173, "num1": [2, 1, 8, 9, 9]}, "uniqueid": "MTK1467:38F5OAUN5OJT9FRSS5RYH2T9Y8T7H4", "dateTime": 1515899524652}, {"current_trial": 174, "trialdata": {"rt": -1, "trial_type": "single-stim", "stimulus": "<p id=\"stim\">10</p>", "internal_node_id": "0.0-129.0-0.0", "time_elapsed": 898035, "key_press": -1, "trial_index": 174}, "uniqueid": "MTK1467:38F5OAUN5OJT9FRSS5RYH2T9Y8T7H4", "dateTime": 1515899527654}, {"current_trial": 175, "trialdata": {"rt": -1, "trial_type": "single-stim", "stimulus": "<p id=\"stim\">9</p>", "internal_node_id": "0.0-129.0-1.0", "time_elapsed": 899036, "key_press": -1, "trial_index": 175}, "uniqueid": "MTK1467:38F5OAUN5OJT9FRSS5RYH2T9Y8T7H4", "dateTime": 1515899528655}, {"current_trial": 176, "trialdata": {"rt": -1, "trial_type": "single-stim", "stimulus": "<p id=\"stim\">8</p>", "internal_node_id": "0.0-129.0-2.0", "time_elapsed": 900039, "key_press": -1, "trial_index": 176}, "uniqueid": "MTK1467:38F5OAUN5OJT9FRSS5RYH2T9Y8T7H4", "dateTime": 1515899529658}, {"current_trial": 177, "trialdata": {"rt": -1, "trial_type": "single-stim", "stimulus": "<p id=\"stim\">7</p>", "internal_node_id": "0.0-129.0-3.0", "time_elapsed": 901041, "key_press": -1, "trial_index": 177}, "uniqueid": "MTK1467:38F5OAUN5OJT9FRSS5RYH2T9Y8T7H4", "dateTime": 1515899530660}, {"current_trial": 178, "trialdata": {"rt": -1, "trial_type": "single-stim", "stimulus": "<p id=\"stim\">6</p>", "internal_node_id": "0.0-129.0-4.0", "time_elapsed": 902042, "key_press": -1, "trial_index": 178}, "uniqueid": "MTK1467:38F5OAUN5OJT9FRSS5RYH2T9Y8T7H4", "dateTime": 1515899531661}, {"current_trial": 179, "trialdata": {"rt": -1, "trial_type": "single-stim", "stimulus": "<p id=\"stim\">5</p>", "internal_node_id": "0.0-129.0-5.0", "time_elapsed": 903044, "key_press": -1, "trial_index": 179}, "uniqueid": "MTK1467:38F5OAUN5OJT9FRSS5RYH2T9Y8T7H4", "dateTime": 1515899532663}, {"current_trial": 180, "trialdata": {"rt": -1, "trial_type": "single-stim", "stimulus": "<p id=\"stim\">4</p>", "internal_node_id": "0.0-129.0-6.0", "time_elapsed": 904046, "key_press": -1, "trial_index": 180}, "uniqueid": "MTK1467:38F5OAUN5OJT9FRSS5RYH2T9Y8T7H4", "dateTime": 1515899533665}, {"current_trial": 181, "trialdata": {"rt": -1, "trial_type": "single-stim", "stimulus": "<p id=\"stim\">3</p>", "internal_node_id": "0.0-129.0-7.0", "time_elapsed": 905046, "key_press": -1, "trial_index": 181}, "uniqueid": "MTK1467:38F5OAUN5OJT9FRSS5RYH2T9Y8T7H4", "dateTime": 1515899534665}, {"current_trial": 182, "trialdata": {"rt": -1, "trial_type": "single-stim", "stimulus": "<p id=\"stim\">2</p>", "internal_node_id": "0.0-129.0-8.0", "time_elapsed": 906048, "key_press": -1, "trial_index": 182}, "uniqueid": "MTK1467:38F5OAUN5OJT9FRSS5RYH2T9Y8T7H4", "dateTime": 1515899535667}, {"current_trial": 183, "trialdata": {"rt": -1, "trial_type": "single-stim", "stimulus": "<p id=\"stim\">1</p>", "internal_node_id": "0.0-129.0-9.0", "time_elapsed": 907050, "key_press": -1, "trial_index": 183}, "uniqueid": "MTK1467:38F5OAUN5OJT9FRSS5RYH2T9Y8T7H4", "dateTime": 1515899536669}, {"current_trial": 184, "trialdata": {"rt": -1, "trial_type": "single-stim", "stimulus": "<p id=\"stim\">+</p>", "internal_node_id": "0.0-130.0-0.0", "time_elapsed": 908551, "key_press": -1, "type": "FIXATION", "trial_index": 184}, "uniqueid": "MTK1467:38F5OAUN5OJT9FRSS5RYH2T9Y8T7H4", "dateTime": 1515899538170}, {"current_trial": 185, "trialdata": {"rt": -1, "trial_type": "single-stim", "word": "brick", "stimulus": "<p id=\"stim\">BRICK</p>", "conditions": [12, 1600, "v", 12000], "internal_node_id": "0.0-131.0", "trial": 5, "time_elapsed": 910152, "serialpos": 0, "key_press": -1, "wordID": 171, "type": "PRES_VIS", "trial_index": 185}, "uniqueid": "MTK1467:38F5OAUN5OJT9FRSS5RYH2T9Y8T7H4", "dateTime": 1515899539771}, {"current_trial": 186, "trialdata": {"rt": -1, "trial_type": "single-stim", "word": "cocoon", "stimulus": "<p id=\"stim\">COCOON</p>", "conditions": [12, 1600, "v", 12000], "internal_node_id": "0.0-132.0", "trial": 5, "time_elapsed": 912667, "serialpos": 1, "key_press": -1, "wordID": 338, "type": "PRES_VIS", "trial_index": 186}, "uniqueid": "MTK1467:38F5OAUN5OJT9FRSS5RYH2T9Y8T7H4", "dateTime": 1515899542286}, {"current_trial": 187, "trialdata": {"rt": -1, "trial_type": "single-stim", "word": "balloon", "stimulus": "<p id=\"stim\">BALLOON</p>", "conditions": [12, 1600, "v", 12000], "internal_node_id": "0.0-133.0", "trial": 5, "time_elapsed": 915281, "serialpos": 2, "key_press": -1, "wordID": 74, "type": "PRES_VIS", "trial_index": 187}, "uniqueid": "MTK1467:38F5OAUN5OJT9FRSS5RYH2T9Y8T7H4", "dateTime": 1515899544900}, {"current_trial": 188, "trialdata": {"rt": -1, "trial_type": "single-stim", "word": "hook", "stimulus": "<p id=\"stim\">HOOK</p>", "conditions": [12, 1600, "v", 12000], "internal_node_id": "0.0-134.0", "trial": 5, "time_elapsed": 917757, "serialpos": 3, "key_press": -1, "wordID": 714, "type": "PRES_VIS", "trial_index": 188}, "uniqueid": "MTK1467:38F5OAUN5OJT9FRSS5RYH2T9Y8T7H4", "dateTime": 1515899547376}, {"current_trial": 189, "trialdata": {"rt": -1, "trial_type": "single-stim", "word": "tile", "stimulus": "<p id=\"stim\">TILE</p>", "conditions": [12, 1600, "v", 12000], "internal_node_id": "0.0-135.0", "trial": 5, "time_elapsed": 920438, "serialpos": 4, "key_press": -1, "wordID": 1467, "type": "PRES_VIS", "trial_index": 189}, "uniqueid": "MTK1467:38F5OAUN5OJT9FRSS5RYH2T9Y8T7H4", "dateTime": 1515899550058}, {"current_trial": 190, "trialdata": {"rt": -1, "trial_type": "single-stim", "word": "burglar", "stimulus": "<p id=\"stim\">BURGLAR</p>", "conditions": [12, 1600, "v", 12000], "internal_node_id": "0.0-136.0", "trial": 5, "time_elapsed": 923075, "serialpos": 5, "key_press": -1, "wordID": 199, "type": "PRES_VIS", "trial_index": 190}, "uniqueid": "MTK1467:38F5OAUN5OJT9FRSS5RYH2T9Y8T7H4", "dateTime": 1515899552694}, {"current_trial": 191, "trialdata": {"rt": -1, "trial_type": "single-stim", "word": "hood", "stimulus": "<p id=\"stim\">HOOD</p>", "conditions": [12, 1600, "v", 12000], "internal_node_id": "0.0-137.0", "trial": 5, "time_elapsed": 925619, "serialpos": 6, "key_press": -1, "wordID": 713, "type": "PRES_VIS", "trial_index": 191}, "uniqueid": "MTK1467:38F5OAUN5OJT9FRSS5RYH2T9Y8T7H4", "dateTime": 1515899555238}, {"current_trial": 192, "trialdata": {"rt": -1, "trial_type": "single-stim", "word": "star", "stimulus": "<p id=\"stim\">STAR</p>", "conditions": [12, 1600, "v", 12000], "internal_node_id": "0.0-138.0", "trial": 5, "time_elapsed": 928309, "serialpos": 7, "key_press": -1, "wordID": 1372, "type": "PRES_VIS", "trial_index": 192}, "uniqueid": "MTK1467:38F5OAUN5OJT9FRSS5RYH2T9Y8T7H4", "dateTime": 1515899557928}, {"current_trial": 193, "trialdata": {"rt": -1, "trial_type": "single-stim", "word": "leg", "stimulus": "<p id=\"stim\">LEG</p>", "conditions": [12, 1600, "v", 12000], "internal_node_id": "0.0-139.0", "trial": 5, "time_elapsed": 931053, "serialpos": 8, "key_press": -1, "wordID": 808, "type": "PRES_VIS", "trial_index": 193}, "uniqueid": "MTK1467:38F5OAUN5OJT9FRSS5RYH2T9Y8T7H4", "dateTime": 1515899560672}, {"current_trial": 194, "trialdata": {"rt": -1, "trial_type": "single-stim", "word": "luggage", "stimulus": "<p id=\"stim\">LUGGAGE</p>", "conditions": [12, 1600, "v", 12000], "internal_node_id": "0.0-140.0", "trial": 5, "time_elapsed": 933636, "serialpos": 9, "key_press": -1, "wordID": 846, "type": "PRES_VIS", "trial_index": 194}, "uniqueid": "MTK1467:38F5OAUN5OJT9FRSS5RYH2T9Y8T7H4", "dateTime": 1515899563255}, {"current_trial": 195, "trialdata": {"rt": -1, "trial_type": "single-stim", "word": "ozone", "stimulus": "<p id=\"stim\">OZONE</p>", "conditions": [12, 1600, "v", 12000], "internal_node_id": "0.0-141.0", "trial": 5, "time_elapsed": 936375, "serialpos": 10, "key_press": -1, "wordID": 995, "type": "PRES_VIS", "trial_index": 195}, "uniqueid": "MTK1467:38F5OAUN5OJT9FRSS5RYH2T9Y8T7H4", "dateTime": 1515899565994}, {"current_trial": 196, "trialdata": {"rt": -1, "trial_type": "single-stim", "word": "smog", "stimulus": "<p id=\"stim\">SMOG</p>", "conditions": [12, 1600, "v", 12000], "internal_node_id": "0.0-142.0", "trial": 5, "time_elapsed": 938966, "serialpos": 11, "key_press": -1, "wordID": 1329, "type": "PRES_VIS", "trial_index": 196}, "uniqueid": "MTK1467:38F5OAUN5OJT9FRSS5RYH2T9Y8T7H4", "dateTime": 1515899568585}, {"current_trial": 197, "trialdata": {"rt": -1, "trial_type": "single-stim", "stimulus": "", "internal_node_id": "0.0-143.0-0.0", "time_elapsed": 941257, "key_press": -1, "type": "PRE_RECALL_DELAY", "trial_index": 197}, "uniqueid": "MTK1467:38F5OAUN5OJT9FRSS5RYH2T9Y8T7H4", "dateTime": 1515899570876}, {"current_trial": 198, "trialdata": {"rt": -1000, "trial_type": "single-audio", "stimulus": "/static/audio/400Hz.wav", "internal_node_id": "0.0-144.0", "time_elapsed": 941764, "key_press": -1, "type": "PRE_RECALL_ALERT", "trial_index": 198}, "uniqueid": "MTK1467:38F5OAUN5OJT9FRSS5RYH2T9Y8T7H4", "dateTime": 1515899571383}, {"current_trial": 199, "trialdata": {"rt": [2472, 3432, 4520, 5248, 10024, 17000], "recwords": ["smog", "ozone", "hook", "leg", "star", "ozone"], "key_times": [1624, 1816, 1968, 2072, 2472, 2776, 2912, 3024, 3152, 3248, 3432, 3720, 3920, 4096, 4216, 4520, 4776, 4904, 5024, 5248, 9376, 9624, 9792, 9904, 10024, 16144, 16336, 16400, 16520, 16648, 17000], "trial_type": "free-recall", "conditions": [12, 1600, "v", 12000], "internal_node_id": "0.0-145.0-0.0", "key_presses": [83, 77, 79, 71, 13, 79, 90, 79, 78, 69, 13, 72, 79, 79, 75, 13, 76, 69, 71, 13, 83, 84, 65, 82, 13, 79, 90, 79, 78, 69, 13], "trial": 5, "time_elapsed": 1001766, "type": "FREE_RECALL", "trial_index": 199}, "uniqueid": "MTK1467:38F5OAUN5OJT9FRSS5RYH2T9Y8T7H4", "dateTime": 1515899631389}, {"current_trial": 200, "trialdata": {"rt": 3289, "trial_type": "text", "internal_node_id": "0.0-146.0", "time_elapsed": 1007061, "key_press": 78, "type": "INSTRUCTIONS", "trial_index": 200}, "uniqueid": "MTK1467:38F5OAUN5OJT9FRSS5RYH2T9Y8T7H4", "dateTime": 1515899636680}, {"current_trial": 201, "trialdata": {"rt": [3174, 5574, 7966, 11014, 13422, 16534, 18078, 20065], "trial_type": "math-distractor", "key_times": [2814, 3086, 3174, 5390, 5502, 5574, 7566, 7678, 7966, 10374, 10534, 11014, 13118, 13198, 13422, 16310, 16382, 16534, 17750, 17838, 18078, 19638, 19950, 20065, 23550], "responses": ["13", "12", "18", "17", "10", "21", "19", "15"], "num2": [2, 3, 8, 6, 2, 5, 3, 5, 8], "num3": [7, 1, 7, 5, 6, 8, 9, 9, 8], "conditions": [12, 800, "v", 24000], "internal_node_id": "0.0-147.0", "key_presses": [49, 51, 13, 49, 50, 13, 49, 56, 13, 49, 55, 13, 49, 48, 13, 50, 49, 13, 49, 57, 13, 49, 53, 13, 50], "trial": 6, "time_elapsed": 1033064, "type": "DISTRACTOR", "trial_index": 201, "num1": [4, 8, 3, 6, 2, 8, 7, 1, 6]}, "uniqueid": "MTK1467:38F5OAUN5OJT9FRSS5RYH2T9Y8T7H4", "dateTime": 1515899662683}, {"current_trial": 202, "trialdata": {"rt": -1, "trial_type": "single-stim", "stimulus": "<p id=\"stim\">10</p>", "internal_node_id": "0.0-148.0-0.0", "time_elapsed": 1036066, "key_press": -1, "trial_index": 202}, "uniqueid": "MTK1467:38F5OAUN5OJT9FRSS5RYH2T9Y8T7H4", "dateTime": 1515899665685}, {"current_trial": 203, "trialdata": {"rt": -1, "trial_type": "single-stim", "stimulus": "<p id=\"stim\">9</p>", "internal_node_id": "0.0-148.0-1.0", "time_elapsed": 1037067, "key_press": -1, "trial_index": 203}, "uniqueid": "MTK1467:38F5OAUN5OJT9FRSS5RYH2T9Y8T7H4", "dateTime": 1515899666686}, {"current_trial": 204, "trialdata": {"rt": -1, "trial_type": "single-stim", "stimulus": "<p id=\"stim\">8</p>", "internal_node_id": "0.0-148.0-2.0", "time_elapsed": 1038069, "key_press": -1, "trial_index": 204}, "uniqueid": "MTK1467:38F5OAUN5OJT9FRSS5RYH2T9Y8T7H4", "dateTime": 1515899667688}, {"current_trial": 205, "trialdata": {"rt": -1, "trial_type": "single-stim", "stimulus": "<p id=\"stim\">7</p>", "internal_node_id": "0.0-148.0-3.0", "time_elapsed": 1039071, "key_press": -1, "trial_index": 205}, "uniqueid": "MTK1467:38F5OAUN5OJT9FRSS5RYH2T9Y8T7H4", "dateTime": 1515899668690}, {"current_trial": 206, "trialdata": {"rt": -1, "trial_type": "single-stim", "stimulus": "<p id=\"stim\">6</p>", "internal_node_id": "0.0-148.0-4.0", "time_elapsed": 1040072, "key_press": -1, "trial_index": 206}, "uniqueid": "MTK1467:38F5OAUN5OJT9FRSS5RYH2T9Y8T7H4", "dateTime": 1515899669691}, {"current_trial": 207, "trialdata": {"rt": -1, "trial_type": "single-stim", "stimulus": "<p id=\"stim\">5</p>", "internal_node_id": "0.0-148.0-5.0", "time_elapsed": 1041074, "key_press": -1, "trial_index": 207}, "uniqueid": "MTK1467:38F5OAUN5OJT9FRSS5RYH2T9Y8T7H4", "dateTime": 1515899670693}, {"current_trial": 208, "trialdata": {"rt": -1, "trial_type": "single-stim", "stimulus": "<p id=\"stim\">4</p>", "internal_node_id": "0.0-148.0-6.0", "time_elapsed": 1042076, "key_press": -1, "trial_index": 208}, "uniqueid": "MTK1467:38F5OAUN5OJT9FRSS5RYH2T9Y8T7H4", "dateTime": 1515899671695}, {"current_trial": 209, "trialdata": {"rt": -1, "trial_type": "single-stim", "stimulus": "<p id=\"stim\">3</p>", "internal_node_id": "0.0-148.0-7.0", "time_elapsed": 1043077, "key_press": -1, "trial_index": 209}, "uniqueid": "MTK1467:38F5OAUN5OJT9FRSS5RYH2T9Y8T7H4", "dateTime": 1515899672696}, {"current_trial": 210, "trialdata": {"rt": -1, "trial_type": "single-stim", "stimulus": "<p id=\"stim\">2</p>", "internal_node_id": "0.0-148.0-8.0", "time_elapsed": 1044079, "key_press": -1, "trial_index": 210}, "uniqueid": "MTK1467:38F5OAUN5OJT9FRSS5RYH2T9Y8T7H4", "dateTime": 1515899673698}, {"current_trial": 211, "trialdata": {"rt": -1, "trial_type": "single-stim", "stimulus": "<p id=\"stim\">1</p>", "internal_node_id": "0.0-148.0-9.0", "time_elapsed": 1045081, "key_press": -1, "trial_index": 211}, "uniqueid": "MTK1467:38F5OAUN5OJT9FRSS5RYH2T9Y8T7H4", "dateTime": 1515899674700}, {"current_trial": 212, "trialdata": {"rt": -1, "trial_type": "single-stim", "stimulus": "<p id=\"stim\">+</p>", "internal_node_id": "0.0-149.0-0.0", "time_elapsed": 1046582, "key_press": -1, "type": "FIXATION", "trial_index": 212}, "uniqueid": "MTK1467:38F5OAUN5OJT9FRSS5RYH2T9Y8T7H4", "dateTime": 1515899676201}, {"current_trial": 213, "trialdata": {"rt": -1, "trial_type": "single-stim", "word": "football", "stimulus": "<p id=\"stim\">FOOTBALL</p>", "conditions": [12, 800, "v", 24000], "internal_node_id": "0.0-150.0", "trial": 6, "time_elapsed": 1047383, "serialpos": 0, "key_press": -1, "wordID": 590, "type": "PRES_VIS", "trial_index": 213}, "uniqueid": "MTK1467:38F5OAUN5OJT9FRSS5RYH2T9Y8T7H4", "dateTime": 1515899677002}, {"current_trial": 214, "trialdata": {"rt": -1, "trial_type": "single-stim", "word": "crutch", "stimulus": "<p id=\"stim\">CRUTCH</p>", "conditions": [12, 800, "v", 24000], "internal_node_id": "0.0-151.0", "trial": 6, "time_elapsed": 1049137, "serialpos": 1, "key_press": -1, "wordID": 416, "type": "PRES_VIS", "trial_index": 214}, "uniqueid": "MTK1467:38F5OAUN5OJT9FRSS5RYH2T9Y8T7H4", "dateTime": 1515899678756}, {"current_trial": 215, "trialdata": {"rt": -1, "trial_type": "single-stim", "word": "world", "stimulus": "<p id=\"stim\">WORLD</p>", "conditions": [12, 800, "v", 24000], "internal_node_id": "0.0-152.0", "trial": 6, "time_elapsed": 1051035, "serialpos": 2, "key_press": -1, "wordID": 1621, "type": "PRES_VIS", "trial_index": 215}, "uniqueid": "MTK1467:38F5OAUN5OJT9FRSS5RYH2T9Y8T7H4", "dateTime": 1515899680654}, {"current_trial": 216, "trialdata": {"rt": -1, "trial_type": "single-stim", "word": "valley", "stimulus": "<p id=\"stim\">VALLEY</p>", "conditions": [12, 800, "v", 24000], "internal_node_id": "0.0-153.0", "trial": 6, "time_elapsed": 1052915, "serialpos": 3, "key_press": -1, "wordID": 1544, "type": "PRES_VIS", "trial_index": 216}, "uniqueid": "MTK1467:38F5OAUN5OJT9FRSS5RYH2T9Y8T7H4", "dateTime": 1515899682534}, {"current_trial": 217, "trialdata": {"rt": -1, "trial_type": "single-stim", "word": "woman", "stimulus": "<p id=\"stim\">WOMAN</p>", "conditions": [12, 800, "v", 24000], "internal_node_id": "0.0-154.0", "trial": 6, "time_elapsed": 1054579, "serialpos": 4, "key_press": -1, "wordID": 1619, "type": "PRES_VIS", "trial_index": 217}, "uniqueid": "MTK1467:38F5OAUN5OJT9FRSS5RYH2T9Y8T7H4", "dateTime": 1515899684198}, {"current_trial": 218, "trialdata": {"rt": -1, "trial_type": "single-stim", "word": "lady", "stimulus": "<p id=\"stim\">LADY</p>", "conditions": [12, 800, "v", 24000], "internal_node_id": "0.0-155.0", "trial": 6, "time_elapsed": 1056197, "serialpos": 5, "key_press": -1, "wordID": 793, "type": "PRES_VIS", "trial_index": 218}, "uniqueid": "MTK1467:38F5OAUN5OJT9FRSS5RYH2T9Y8T7H4", "dateTime": 1515899685816}, {"current_trial": 219, "trialdata": {"rt": -1, "trial_type": "single-stim", "word": "apple", "stimulus": "<p id=\"stim\">APPLE</p>", "conditions": [12, 800, "v", 24000], "internal_node_id": "0.0-156.0", "trial": 6, "time_elapsed": 1058117, "serialpos": 6, "key_press": -1, "wordID": 32, "type": "PRES_VIS", "trial_index": 219}, "uniqueid": "MTK1467:38F5OAUN5OJT9FRSS5RYH2T9Y8T7H4", "dateTime": 1515899687736}, {"current_trial": 220, "trialdata": {"rt": -1, "trial_type": "single-stim", "word": "keeper", "stimulus": "<p id=\"stim\">KEEPER</p>", "conditions": [12, 800, "v", 24000], "internal_node_id": "0.0-157.0", "trial": 6, "time_elapsed": 1059786, "serialpos": 7, "key_press": -1, "wordID": 768, "type": "PRES_VIS", "trial_index": 220}, "uniqueid": "MTK1467:38F5OAUN5OJT9FRSS5RYH2T9Y8T7H4", "dateTime": 1515899689405}, {"current_trial": 221, "trialdata": {"rt": -1, "trial_type": "single-stim", "word": "grave", "stimulus": "<p id=\"stim\">GRAVE</p>", "conditions": [12, 800, "v", 24000], "internal_node_id": "0.0-158.0", "trial": 6, "time_elapsed": 1061469, "serialpos": 8, "key_press": -1, "wordID": 657, "type": "PRES_VIS", "trial_index": 221}, "uniqueid": "MTK1467:38F5OAUN5OJT9FRSS5RYH2T9Y8T7H4", "dateTime": 1515899691089}, {"current_trial": 222, "trialdata": {"rt": -1, "trial_type": "single-stim", "word": "compass", "stimulus": "<p id=\"stim\">COMPASS</p>", "conditions": [12, 800, "v", 24000], "internal_node_id": "0.0-159.0", "trial": 6, "time_elapsed": 1063408, "serialpos": 9, "key_press": -1, "wordID": 357, "type": "PRES_VIS", "trial_index": 222}, "uniqueid": "MTK1467:38F5OAUN5OJT9FRSS5RYH2T9Y8T7H4", "dateTime": 1515899693027}, {"current_trial": 223, "trialdata": {"rt": -1, "trial_type": "single-stim", "word": "slide", "stimulus": "<p id=\"stim\">SLIDE</p>", "conditions": [12, 800, "v", 24000], "internal_node_id": "0.0-160.0", "trial": 6, "time_elapsed": 1065082, "serialpos": 10, "key_press": -1, "wordID": 1325, "type": "PRES_VIS", "trial_index": 223}, "uniqueid": "MTK1467:38F5OAUN5OJT9FRSS5RYH2T9Y8T7H4", "dateTime": 1515899694701}, {"current_trial": 224, "trialdata": {"rt": -1, "trial_type": "single-stim", "word": "grape", "stimulus": "<p id=\"stim\">GRAPE</p>", "conditions": [12, 800, "v", 24000], "internal_node_id": "0.0-161.0", "trial": 6, "time_elapsed": 1066980, "serialpos": 11, "key_press": -1, "wordID": 653, "type": "PRES_VIS", "trial_index": 224}, "uniqueid": "MTK1467:38F5OAUN5OJT9FRSS5RYH2T9Y8T7H4", "dateTime": 1515899696599}, {"current_trial": 225, "trialdata": {"rt": -1, "trial_type": "single-stim", "stimulus": "", "internal_node_id": "0.0-162.0-0.0", "time_elapsed": 1069021, "key_press": -1, "type": "PRE_RECALL_DELAY", "trial_index": 225}, "uniqueid": "MTK1467:38F5OAUN5OJT9FRSS5RYH2T9Y8T7H4", "dateTime": 1515899698641}, {"current_trial": 226, "trialdata": {"rt": -1000, "trial_type": "single-audio", "stimulus": "/static/audio/400Hz.wav", "internal_node_id": "0.0-163.0", "time_elapsed": 1069529, "key_press": -1, "type": "PRE_RECALL_ALERT", "trial_index": 226}, "uniqueid": "MTK1467:38F5OAUN5OJT9FRSS5RYH2T9Y8T7H4", "dateTime": 1515899699148}, {"current_trial": 227, "trialdata": {"rt": [2762, 3762, 4754, 5721, 10505, 12129, 13081, 14513, 16761], "recwords": ["grape", "slide", "compass", "keeper", "grave", "compass", "lady", "football", "crutch"], "key_times": [522, 906, 1242, 1354, 1490, 2762, 2970, 3145, 3354, 3490, 3553, 3762, 3946, 4002, 4114, 4194, 4322, 4402, 4618, 4754, 4969, 5082, 5282, 5330, 5497, 5594, 5721, 9785, 10001, 10169, 10305, 10369, 10505, 11338, 11457, 11521, 11689, 11753, 11801, 12017, 12129, 12377, 12481, 12585, 12801, 13081, 13241, 13334, 13521, 13577, 13737, 13905, 14169, 14369, 14513, 15825, 15985, 16097, 16249, 16465, 16529, 16761, 59961], "trial_type": "free-recall", "conditions": [12, 800, "v", 24000], "internal_node_id": "0.0-164.0-0.0", "key_presses": [71, 82, 65, 80, 69, 13, 83, 76, 73, 68, 69, 13, 67, 79, 77, 80, 65, 83, 83, 13, 75, 69, 69, 80, 69, 82, 13, 71, 82, 65, 86, 69, 13, 67, 79, 77, 80, 65, 83, 83, 13, 76, 65, 68, 89, 13, 70, 79, 79, 84, 66, 65, 76, 76, 13, 67, 82, 85, 84, 67, 72, 13, 71], "trial": 6, "time_elapsed": 1129531, "type": "FREE_RECALL", "trial_index": 227}, "uniqueid": "MTK1467:38F5OAUN5OJT9FRSS5RYH2T9Y8T7H4", "dateTime": 1515899759154}, {"current_trial": 228, "trialdata": {"rt": 1572, "trial_type": "text", "internal_node_id": "0.0-165.0", "time_elapsed": 1133107, "key_press": 32, "type": "INSTRUCTIONS", "trial_index": 228}, "uniqueid": "MTK1467:38F5OAUN5OJT9FRSS5RYH2T9Y8T7H4", "dateTime": 1515899762726}, {"current_trial": 229, "trialdata": {"rt": [2158, 4477, 6813, 10885, 14101, 16589, 18693], "trial_type": "math-distractor", "key_times": [1782, 2014, 2158, 3797, 4141, 4477, 6485, 6813, 9677, 10501, 10637, 10653, 10885, 13829, 14021, 14101, 16405, 16461, 16589, 18389, 18485, 18693], "responses": ["11", "17", "8", "10", "14", "21", "10"], "num2": [2, 6, 4, 2, 3, 9, 2, 1], "num3": [3, 6, 1, 5, 2, 3, 2, 6], "conditions": [12, 1600, "v", 24000], "internal_node_id": "0.0-166.0", "key_presses": [49, 49, 13, 49, 55, 13, 56, 13, 57, 8, 49, 48, 13, 49, 52, 13, 50, 49, 13, 49, 48, 13], "trial": 7, "time_elapsed": 1159111, "type": "DISTRACTOR", "trial_index": 229, "num1": [6, 5, 3, 3, 9, 9, 6, 8]}, "uniqueid": "MTK1467:38F5OAUN5OJT9FRSS5RYH2T9Y8T7H4", "dateTime": 1515899788730}, {"current_trial": 230, "trialdata": {"rt": -1, "trial_type": "single-stim", "stimulus": "<p id=\"stim\">10</p>", "internal_node_id": "0.0-167.0-0.0", "time_elapsed": 1162113, "key_press": -1, "trial_index": 230}, "uniqueid": "MTK1467:38F5OAUN5OJT9FRSS5RYH2T9Y8T7H4", "dateTime": 1515899791732}, {"current_trial": 231, "trialdata": {"rt": -1, "trial_type": "single-stim", "stimulus": "<p id=\"stim\">9</p>", "internal_node_id": "0.0-167.0-1.0", "time_elapsed": 1163114, "key_press": -1, "trial_index": 231}, "uniqueid": "MTK1467:38F5OAUN5OJT9FRSS5RYH2T9Y8T7H4", "dateTime": 1515899792733}, {"current_trial": 232, "trialdata": {"rt": -1, "trial_type": "single-stim", "stimulus": "<p id=\"stim\">8</p>", "internal_node_id": "0.0-167.0-2.0", "time_elapsed": 1164116, "key_press": -1, "trial_index": 232}, "uniqueid": "MTK1467:38F5OAUN5OJT9FRSS5RYH2T9Y8T7H4", "dateTime": 1515899793736}, {"current_trial": 233, "trialdata": {"rt": -1, "trial_type": "single-stim", "stimulus": "<p id=\"stim\">7</p>", "internal_node_id": "0.0-167.0-3.0", "time_elapsed": 1165118, "key_press": -1, "trial_index": 233}, "uniqueid": "MTK1467:38F5OAUN5OJT9FRSS5RYH2T9Y8T7H4", "dateTime": 1515899794737}, {"current_trial": 234, "trialdata": {"rt": -1, "trial_type": "single-stim", "stimulus": "<p id=\"stim\">6</p>", "internal_node_id": "0.0-167.0-4.0", "time_elapsed": 1166119, "key_press": -1, "trial_index": 234}, "uniqueid": "MTK1467:38F5OAUN5OJT9FRSS5RYH2T9Y8T7H4", "dateTime": 1515899795738}, {"current_trial": 235, "trialdata": {"rt": -1, "trial_type": "single-stim", "stimulus": "<p id=\"stim\">5</p>", "internal_node_id": "0.0-167.0-5.0", "time_elapsed": 1167121, "key_press": -1, "trial_index": 235}, "uniqueid": "MTK1467:38F5OAUN5OJT9FRSS5RYH2T9Y8T7H4", "dateTime": 1515899796740}, {"current_trial": 236, "trialdata": {"rt": -1, "trial_type": "single-stim", "stimulus": "<p id=\"stim\">4</p>", "internal_node_id": "0.0-167.0-6.0", "time_elapsed": 1168122, "key_press": -1, "trial_index": 236}, "uniqueid": "MTK1467:38F5OAUN5OJT9FRSS5RYH2T9Y8T7H4", "dateTime": 1515899797742}, {"current_trial": 237, "trialdata": {"rt": -1, "trial_type": "single-stim", "stimulus": "<p id=\"stim\">3</p>", "internal_node_id": "0.0-167.0-7.0", "time_elapsed": 1169124, "key_press": -1, "trial_index": 237}, "uniqueid": "MTK1467:38F5OAUN5OJT9FRSS5RYH2T9Y8T7H4", "dateTime": 1515899798743}, {"current_trial": 238, "trialdata": {"rt": -1, "trial_type": "single-stim", "stimulus": "<p id=\"stim\">2</p>", "internal_node_id": "0.0-167.0-8.0", "time_elapsed": 1170126, "key_press": -1, "trial_index": 238}, "uniqueid": "MTK1467:38F5OAUN5OJT9FRSS5RYH2T9Y8T7H4", "dateTime": 1515899799745}, {"current_trial": 239, "trialdata": {"rt": -1, "trial_type": "single-stim", "stimulus": "<p id=\"stim\">1</p>", "internal_node_id": "0.0-167.0-9.0", "time_elapsed": 1171127, "key_press": -1, "trial_index": 239}, "uniqueid": "MTK1467:38F5OAUN5OJT9FRSS5RYH2T9Y8T7H4", "dateTime": 1515899800747}, {"current_trial": 240, "trialdata": {"rt": -1, "trial_type": "single-stim", "stimulus": "<p id=\"stim\">+</p>", "internal_node_id": "0.0-168.0-0.0", "time_elapsed": 1172629, "key_press": -1, "type": "FIXATION", "trial_index": 240}, "uniqueid": "MTK1467:38F5OAUN5OJT9FRSS5RYH2T9Y8T7H4", "dateTime": 1515899802248}, {"current_trial": 241, "trialdata": {"rt": -1, "trial_type": "single-stim", "word": "suitcase", "stimulus": "<p id=\"stim\">SUITCASE</p>", "conditions": [12, 1600, "v", 24000], "internal_node_id": "0.0-169.0", "trial": 7, "time_elapsed": 1174230, "serialpos": 0, "key_press": -1, "wordID": 1402, "type": "PRES_VIS", "trial_index": 241}, "uniqueid": "MTK1467:38F5OAUN5OJT9FRSS5RYH2T9Y8T7H4", "dateTime": 1515899803849}, {"current_trial": 242, "trialdata": {"rt": -1, "trial_type": "single-stim", "word": "foot", "stimulus": "<p id=\"stim\">FOOT</p>", "conditions": [12, 1600, "v", 24000], "internal_node_id": "0.0-170.0", "trial": 7, "time_elapsed": 1176900, "serialpos": 1, "key_press": -1, "wordID": 589, "type": "PRES_VIS", "trial_index": 242}, "uniqueid": "MTK1467:38F5OAUN5OJT9FRSS5RYH2T9Y8T7H4", "dateTime": 1515899806519}, {"current_trial": 243, "trialdata": {"rt": -1, "trial_type": "single-stim", "word": "statue", "stimulus": "<p id=\"stim\">STATUE</p>", "conditions": [12, 1600, "v", 24000], "internal_node_id": "0.0-171.0", "trial": 7, "time_elapsed": 1179310, "serialpos": 2, "key_press": -1, "wordID": 1373, "type": "PRES_VIS", "trial_index": 243}, "uniqueid": "MTK1467:38F5OAUN5OJT9FRSS5RYH2T9Y8T7H4", "dateTime": 1515899808929}, {"current_trial": 244, "trialdata": {"rt": -1, "trial_type": "single-stim", "word": "bank", "stimulus": "<p id=\"stim\">BANK</p>", "conditions": [12, 1600, "v", 24000], "internal_node_id": "0.0-172.0", "trial": 7, "time_elapsed": 1181903, "serialpos": 3, "key_press": -1, "wordID": 82, "type": "PRES_VIS", "trial_index": 244}, "uniqueid": "MTK1467:38F5OAUN5OJT9FRSS5RYH2T9Y8T7H4", "dateTime": 1515899811522}, {"current_trial": 245, "trialdata": {"rt": -1, "trial_type": "single-stim", "word": "police", "stimulus": "<p id=\"stim\">POLICE</p>", "conditions": [12, 1600, "v", 24000], "internal_node_id": "0.0-173.0", "trial": 7, "time_elapsed": 1184518, "serialpos": 4, "key_press": -1, "wordID": 1097, "type": "PRES_VIS", "trial_index": 245}, "uniqueid": "MTK1467:38F5OAUN5OJT9FRSS5RYH2T9Y8T7H4", "dateTime": 1515899814137}, {"current_trial": 246, "trialdata": {"rt": -1, "trial_type": "single-stim", "word": "mummy", "stimulus": "<p id=\"stim\">MUMMY</p>", "conditions": [12, 1600, "v", 24000], "internal_node_id": "0.0-174.0", "trial": 7, "time_elapsed": 1187020, "serialpos": 5, "key_press": -1, "wordID": 931, "type": "PRES_VIS", "trial_index": 246}, "uniqueid": "MTK1467:38F5OAUN5OJT9FRSS5RYH2T9Y8T7H4", "dateTime": 1515899816639}, {"current_trial": 247, "trialdata": {"rt": -1, "trial_type": "single-stim", "word": "crater", "stimulus": "<p id=\"stim\">CRATER</p>", "conditions": [12, 1600, "v", 24000], "internal_node_id": "0.0-175.0", "trial": 7, "time_elapsed": 1189636, "serialpos": 6, "key_press": -1, "wordID": 399, "type": "PRES_VIS", "trial_index": 247}, "uniqueid": "MTK1467:38F5OAUN5OJT9FRSS5RYH2T9Y8T7H4", "dateTime": 1515899819255}, {"current_trial": 248, "trialdata": {"rt": -1, "trial_type": "single-stim", "word": "salad", "stimulus": "<p id=\"stim\">SALAD</p>", "conditions": [12, 1600, "v", 24000], "internal_node_id": "0.0-176.0", "trial": 7, "time_elapsed": 1192386, "serialpos": 7, "key_press": -1, "wordID": 1223, "type": "PRES_VIS", "trial_index": 248}, "uniqueid": "MTK1467:38F5OAUN5OJT9FRSS5RYH2T9Y8T7H4", "dateTime": 1515899822005}, {"current_trial": 249, "trialdata": {"rt": -1, "trial_type": "single-stim", "word": "jelly", "stimulus": "<p id=\"stim\">JELLY</p>", "conditions": [12, 1600, "v", 24000], "internal_node_id": "0.0-177.0", "trial": 7, "time_elapsed": 1195052, "serialpos": 8, "key_press": -1, "wordID": 754, "type": "PRES_VIS", "trial_index": 249}, "uniqueid": "MTK1467:38F5OAUN5OJT9FRSS5RYH2T9Y8T7H4", "dateTime": 1515899824671}, {"current_trial": 250, "trialdata": {"rt": -1, "trial_type": "single-stim", "word": "custard", "stimulus": "<p id=\"stim\">CUSTARD</p>", "conditions": [12, 1600, "v", 24000], "internal_node_id": "0.0-178.0", "trial": 7, "time_elapsed": 1197656, "serialpos": 9, "key_press": -1, "wordID": 428, "type": "PRES_VIS", "trial_index": 250}, "uniqueid": "MTK1467:38F5OAUN5OJT9FRSS5RYH2T9Y8T7H4", "dateTime": 1515899827275}, {"current_trial": 251, "trialdata": {"rt": -1, "trial_type": "single-stim", "word": "branch", "stimulus": "<p id=\"stim\">BRANCH</p>", "conditions": [12, 1600, "v", 24000], "internal_node_id": "0.0-179.0", "trial": 7, "time_elapsed": 1200095, "serialpos": 10, "key_press": -1, "wordID": 167, "type": "PRES_VIS", "trial_index": 251}, "uniqueid": "MTK1467:38F5OAUN5OJT9FRSS5RYH2T9Y8T7H4", "dateTime": 1515899829714}, {"current_trial": 252, "trialdata": {"rt": -1, "trial_type": "single-stim", "word": "tortoise", "stimulus": "<p id=\"stim\">TORTOISE</p>", "conditions": [12, 1600, "v", 24000], "internal_node_id": "0.0-180.0", "trial": 7, "time_elapsed": 1202514, "serialpos": 11, "key_press": -1, "wordID": 1485, "type": "PRES_VIS", "trial_index": 252}, "uniqueid": "MTK1467:38F5OAUN5OJT9FRSS5RYH2T9Y8T7H4", "dateTime": 1515899832133}, {"current_trial": 253, "trialdata": {"rt": -1, "trial_type": "single-stim", "stimulus": "", "internal_node_id": "0.0-181.0-0.0", "time_elapsed": 1204682, "key_press": -1, "type": "PRE_RECALL_DELAY", "trial_index": 253}, "uniqueid": "MTK1467:38F5OAUN5OJT9FRSS5RYH2T9Y8T7H4", "dateTime": 1515899834301}, {"current_trial": 254, "trialdata": {"rt": -1000, "trial_type": "single-audio", "stimulus": "/static/audio/400Hz.wav", "internal_node_id": "0.0-182.0", "time_elapsed": 1205186, "key_press": -1, "type": "PRE_RECALL_ALERT", "trial_index": 254}, "uniqueid": "MTK1467:38F5OAUN5OJT9FRSS5RYH2T9Y8T7H4", "dateTime": 1515899834805}, {"current_trial": 255, "trialdata": {"rt": [2551, 4455, 6519, 11407, 24352, 38911, 39991, 41223], "recwords": ["tortoise", "jelly", "mustard", "custard", "suitcase", "bank", "statue", "police"], "key_times": [423, 519, 655, 935, 1039, 1127, 1367, 1535, 2087, 2279, 2391, 2471, 2551, 3599, 3780, 3871, 4031, 4119, 4455, 4663, 5095, 5351, 5535, 5639, 5855, 6071, 6175, 6415, 6519, 9023, 9159, 10351, 10615, 10879, 11111, 11271, 11407, 23111, 23247, 23335, 23423, 23639, 23783, 23967, 24263, 24352, 37903, 38031,