{"assignmentId": "30H4UDGLT3P47ZW3FO1S9TSQGR9MPH", "workerId": "MTK1761", "questiondata": {"origin": "United States", "strat-rehearsal": "35", "marital": "Single", "education": "High school diploma", "ethnicity": "Not Hispanic", "color_depth": 24, "distracted": "No", "wrote-notes": "No", "strat-other": "I often attempted to create associations between words as they were given to me, but not necessarily formed as a sentence or story as given in the method above. For example, I imagined a mummy and a gymnast eating popcorn, a salmon sandwich next to a doughnut or a goblin with peaches and apples in a forest. I imagined these as a sort of a visual still without any story or situation behind them. Thanks!", "screen_width": 1920, "avail_screen_width": 1920, "avail_screen_height": 1040, "strat-image": "95", "language": "English", "gender": "Male", "age": "33", "gender_other": "", "race": ["Black", "White"], "strat-categorize": "90", "pixel_depth": 24, "strat-spatial": "15", "strat-story": "90", "race_other": "", "screen_height": 1080}, "bonus": 0, "hitId": "3UZUVSO3P72YNO9JG8GFQXX2KP1ME7", "counterbalance": 1713, "useragent": "Mozilla/5.0 (Windows NT 10.0; Win64; x64) AppleWebKit/537.36 (KHTML, like Gecko) Chrome/63.0.3239.132 Safari/537.36", "eventdata": [{"eventtype": "initialized", "interval": 0, "value": null, "timestamp": 1516296102608}, {"eventtype": "window_resize", "interval": 0, "value": [1920, 972], "timestamp": 1516296102608}, {"eventtype": "focus", "interval": 5706, "value": "off", "timestamp": 1516296108314}, {"eventtype": "focus", "interval": 13994, "value": "on", "timestamp": 1516296122308}, {"eventtype": "focus", "interval": 2515787, "value": "off", "timestamp": 1516298638095}, {"eventtype": "focus", "interval": 4905, "value": "on", "timestamp": 1516298643000}, {"eventtype": "focus", "interval": 506911, "value": "off", "timestamp": 1516299149911}, {"eventtype": "focus", "interval": 8418, "value": "on", "timestamp": 1516299158329}, {"eventtype": "focus", "interval": 327694, "value": "off", "timestamp": 1516299486023}, {"eventtype": "focus", "interval": 16106, "value": "on", "timestamp": 1516299502129}, {"eventtype": "focus", "interval": 42037, "value": "off", "timestamp": 1516299544166}, {"eventtype": "focus", "interval": 4050, "value": "on", "timestamp": 1516299548216}, {"eventtype": "focus", "interval": 240086, "value": "off", "timestamp": 1516299788302}, {"eventtype": "focus", "interval": 21577, "value": "on", "timestamp": 1516299809879}, {"eventtype": "focus", "interval": 152375, "value": "off", "timestamp": 1516299962254}, {"eventtype": "focus", "interval": 10017, "value": "on", "timestamp": 1516299972271}], "data": [{"current_trial": 0, "trialdata": {"rt": 4222, "trial_type": "text", "internal_node_id": "0.0-0.0", "time_elapsed": 4224, "key_press": 32, "type": "INSTRUCTIONS", "trial_index": 0}, "uniqueid": "MTK1761:30H4UDGLT3P47ZW3FO1S9TSQGR9MPH", "dateTime": 1516296123920}, {"current_trial": 1, "trialdata": {"rt": 14821, "trial_type": "text", "internal_node_id": "0.0-1.0", "time_elapsed": 19046, "key_press": 32, "type": "INSTRUCTIONS", "trial_index": 1}, "uniqueid": "MTK1761:30H4UDGLT3P47ZW3FO1S9TSQGR9MPH", "dateTime": 1516296138742}, {"current_trial": 2, "trialdata": {"rt": [8752], "trial_type": "audio-test", "responses": ["ocean"], "internal_node_id": "0.0-2.0", "time_elapsed": 27804, "type": "AUDIO_TEST", "trial_index": 2}, "uniqueid": "MTK1761:30H4UDGLT3P47ZW3FO1S9TSQGR9MPH", "dateTime": 1516296147500}, {"current_trial": 3, "trialdata": {"rt": [8284], "trial_type": "audio-test", "responses": ["crystal"], "internal_node_id": "0.0-3.0", "time_elapsed": 36090, "type": "AUDIO_TEST", "trial_index": 3}, "uniqueid": "MTK1761:30H4UDGLT3P47ZW3FO1S9TSQGR9MPH", "dateTime": 1516296155786}, {"current_trial": 4, "trialdata": {"rt": [4717], "trial_type": "audio-test", "responses": ["spice"], "internal_node_id": "0.0-4.0", "time_elapsed": 40809, "type": "AUDIO_TEST", "trial_index": 4}, "uniqueid": "MTK1761:30H4UDGLT3P47ZW3FO1S9TSQGR9MPH", "dateTime": 1516296160505}, {"current_trial": 5, "trialdata": {"rt": 69793, "trial_type": "survey-text", "responses": "{\"Q0\":\"10:30 P.M.\",\"Q1\":\"5:00 A.M.\",\"Q2\":\"5\"}", "internal_node_id": "0.0-5.0", "time_elapsed": 111353, "type": "SLEEP_SURVEY", "trial_index": 5}, "uniqueid": "MTK1761:30H4UDGLT3P47ZW3FO1S9TSQGR9MPH", "dateTime": 1516296231049}, {"current_trial": 6, "trialdata": {"rt": 6363, "trial_type": "text", "internal_node_id": "0.0-6.0", "time_elapsed": 118718, "key_press": 175, "type": "INSTRUCTIONS", "trial_index": 6}, "uniqueid": "MTK1761:30H4UDGLT3P47ZW3FO1S9TSQGR9MPH", "dateTime": 1516296238414}, {"current_trial": 7, "trialdata": {"rt": 1117, "trial_type": "text", "internal_node_id": "0.0-7.0", "time_elapsed": 120335, "key_press": 175, "type": "INSTRUCTIONS", "trial_index": 7}, "uniqueid": "MTK1761:30H4UDGLT3P47ZW3FO1S9TSQGR9MPH", "dateTime": 1516296240031}, {"current_trial": 8, "trialdata": {"rt": 26244, "trial_type": "text", "internal_node_id": "0.0-8.0", "time_elapsed": 147080, "key_press": 32, "type": "INSTRUCTIONS", "trial_index": 8}, "uniqueid": "MTK1761:30H4UDGLT3P47ZW3FO1S9TSQGR9MPH", "dateTime": 1516296266776}, {"current_trial": 9, "trialdata": {"rt": [4714, 8237, 10476, 13574, 15787], "trial_type": "math-distractor", "key_times": [3880, 4007, 4714, 7514, 8039, 8237, 10004, 10193, 10476, 12450, 12928, 13574, 15406, 15787, 17509, 17651], "responses": ["19", "17", "11", "20", "4"], "num2": [7, 7, 3, 8, 1, 1], "num3": [5, 4, 5, 7, 1, 2], "conditions": [18, 1200, "a", 18000], "internal_node_id": "0.0-9.0", "key_presses": [49, 57, 13, 49, 55, 13, 49, 49, 13, 50, 48, 13, 52, 13, 49, 50], "trial": 0, "time_elapsed": 166083, "type": "DISTRACTOR", "trial_index": 9, "num1": [7, 6, 3, 5, 2, 9]}, "uniqueid": "MTK1761:30H4UDGLT3P47ZW3FO1S9TSQGR9MPH", "dateTime": 1516296285779}, {"current_trial": 10, "trialdata": {"rt": -1, "trial_type": "single-stim", "stimulus": "<p id=\"stim\">10</p>", "internal_node_id": "0.0-10.0-0.0", "time_elapsed": 169085, "key_press": -1, "trial_index": 10}, "uniqueid": "MTK1761:30H4UDGLT3P47ZW3FO1S9TSQGR9MPH", "dateTime": 1516296288781}, {"current_trial": 11, "trialdata": {"rt": -1, "trial_type": "single-stim", "stimulus": "<p id=\"stim\">9</p>", "internal_node_id": "0.0-10.0-1.0", "time_elapsed": 170086, "key_press": -1, "trial_index": 11}, "uniqueid": "MTK1761:30H4UDGLT3P47ZW3FO1S9TSQGR9MPH", "dateTime": 1516296289782}, {"current_trial": 12, "trialdata": {"rt": -1, "trial_type": "single-stim", "stimulus": "<p id=\"stim\">8</p>", "internal_node_id": "0.0-10.0-2.0", "time_elapsed": 171086, "key_press": -1, "trial_index": 12}, "uniqueid": "MTK1761:30H4UDGLT3P47ZW3FO1S9TSQGR9MPH", "dateTime": 1516296290782}, {"current_trial": 13, "trialdata": {"rt": -1, "trial_type": "single-stim", "stimulus": "<p id=\"stim\">7</p>", "internal_node_id": "0.0-10.0-3.0", "time_elapsed": 172087, "key_press": -1, "trial_index": 13}, "uniqueid": "MTK1761:30H4UDGLT3P47ZW3FO1S9TSQGR9MPH", "dateTime": 1516296291783}, {"current_trial": 14, "trialdata": {"rt": -1, "trial_type": "single-stim", "stimulus": "<p id=\"stim\">6</p>", "internal_node_id": "0.0-10.0-4.0", "time_elapsed": 173089, "key_press": -1, "trial_index": 14}, "uniqueid": "MTK1761:30H4UDGLT3P47ZW3FO1S9TSQGR9MPH", "dateTime": 1516296292785}, {"current_trial": 15, "trialdata": {"rt": -1, "trial_type": "single-stim", "stimulus": "<p id=\"stim\">5</p>", "internal_node_id": "0.0-10.0-5.0", "time_elapsed": 174090, "key_press": -1, "trial_index": 15}, "uniqueid": "MTK1761:30H4UDGLT3P47ZW3FO1S9TSQGR9MPH", "dateTime": 1516296293786}, {"current_trial": 16, "trialdata": {"rt": -1, "trial_type": "single-stim", "stimulus": "<p id=\"stim\">4</p>", "internal_node_id": "0.0-10.0-6.0", "time_elapsed": 175090, "key_press": -1, "trial_index": 16}, "uniqueid": "MTK1761:30H4UDGLT3P47ZW3FO1S9TSQGR9MPH", "dateTime": 1516296294786}, {"current_trial": 17, "trialdata": {"rt": -1, "trial_type": "single-stim", "stimulus": "<p id=\"stim\">3</p>", "internal_node_id": "0.0-10.0-7.0", "time_elapsed": 176091, "key_press": -1, "trial_index": 17}, "uniqueid": "MTK1761:30H4UDGLT3P47ZW3FO1S9TSQGR9MPH", "dateTime": 1516296295787}, {"current_trial": 18, "trialdata": {"rt": -1, "trial_type": "single-stim", "stimulus": "<p id=\"stim\">2</p>", "internal_node_id": "0.0-10.0-8.0", "time_elapsed": 177092, "key_press": -1, "trial_index": 18}, "uniqueid": "MTK1761:30H4UDGLT3P47ZW3FO1S9TSQGR9MPH", "dateTime": 1516296296788}, {"current_trial": 19, "trialdata": {"rt": -1, "trial_type": "single-stim", "stimulus": "<p id=\"stim\">1</p>", "internal_node_id": "0.0-10.0-9.0", "time_elapsed": 178093, "key_press": -1, "trial_index": 19}, "uniqueid": "MTK1761:30H4UDGLT3P47ZW3FO1S9TSQGR9MPH", "dateTime": 1516296297789}, {"current_trial": 20, "trialdata": {"rt": -1, "trial_type": "single-stim", "stimulus": "<p id=\"stim\">+</p>", "internal_node_id": "0.0-11.0-0.0", "time_elapsed": 179594, "key_press": -1, "type": "FIXATION", "trial_index": 20}, "uniqueid": "MTK1761:30H4UDGLT3P47ZW3FO1S9TSQGR9MPH", "dateTime": 1516296299290}, {"current_trial": 21, "trialdata": {"rt": -1000, "trial_type": "single-audio", "word": "bullet", "stimulus": "/static/audio/wordpool/BULLET.wav", "conditions": [18, 1200, "a", 18000], "internal_node_id": "0.0-12.0", "trial": 0, "time_elapsed": 181869, "serialpos": 0, "key_press": -1, "wordID": 193, "type": "PRES_AUD", "trial_index": 21}, "uniqueid": "MTK1761:30H4UDGLT3P47ZW3FO1S9TSQGR9MPH", "dateTime": 1516296301565}, {"current_trial": 22, "trialdata": {"rt": -1000, "trial_type": "single-audio", "word": "plaid", "stimulus": "/static/audio/wordpool/PLAID.wav", "conditions": [18, 1200, "a", 18000], "internal_node_id": "0.0-13.0", "trial": 0, "time_elapsed": 184024, "serialpos": 1, "key_press": -1, "wordID": 1079, "type": "PRES_AUD", "trial_index": 22}, "uniqueid": "MTK1761:30H4UDGLT3P47ZW3FO1S9TSQGR9MPH", "dateTime": 1516296303720}, {"current_trial": 23, "trialdata": {"rt": -1000, "trial_type": "single-audio", "word": "crib", "stimulus": "/static/audio/wordpool/CRIB.wav", "conditions": [18, 1200, "a", 18000], "internal_node_id": "0.0-14.0", "trial": 0, "time_elapsed": 186037, "serialpos": 2, "key_press": -1, "wordID": 406, "type": "PRES_AUD", "trial_index": 23}, "uniqueid": "MTK1761:30H4UDGLT3P47ZW3FO1S9TSQGR9MPH", "dateTime": 1516296305733}, {"current_trial": 24, "trialdata": {"rt": -1000, "trial_type": "single-audio", "word": "carriage", "stimulus": "/static/audio/wordpool/CARRIAGE.wav", "conditions": [18, 1200, "a", 18000], "internal_node_id": "0.0-15.0", "trial": 0, "time_elapsed": 188146, "serialpos": 3, "key_press": -1, "wordID": 247, "type": "PRES_AUD", "trial_index": 24}, "uniqueid": "MTK1761:30H4UDGLT3P47ZW3FO1S9TSQGR9MPH", "dateTime": 1516296307842}, {"current_trial": 25, "trialdata": {"rt": -1000, "trial_type": "single-audio", "word": "inmate", "stimulus": "/static/audio/wordpool/INMATE.wav", "conditions": [18, 1200, "a", 18000], "internal_node_id": "0.0-16.0", "trial": 0, "time_elapsed": 190416, "serialpos": 4, "key_press": -1, "wordID": 737, "type": "PRES_AUD", "trial_index": 25}, "uniqueid": "MTK1761:30H4UDGLT3P47ZW3FO1S9TSQGR9MPH", "dateTime": 1516296310112}, {"current_trial": 26, "trialdata": {"rt": -1000, "trial_type": "single-audio", "word": "cabin", "stimulus": "/static/audio/wordpool/CABIN.wav", "conditions": [18, 1200, "a", 18000], "internal_node_id": "0.0-17.0", "trial": 0, "time_elapsed": 192648, "serialpos": 5, "key_press": -1, "wordID": 210, "type": "PRES_AUD", "trial_index": 26}, "uniqueid": "MTK1761:30H4UDGLT3P47ZW3FO1S9TSQGR9MPH", "dateTime": 1516296312344}, {"current_trial": 27, "trialdata": {"rt": -1000, "trial_type": "single-audio", "word": "gazelle", "stimulus": "/static/audio/wordpool/GAZELLE.wav", "conditions": [18, 1200, "a", 18000], "internal_node_id": "0.0-18.0", "trial": 0, "time_elapsed": 194769, "serialpos": 6, "key_press": -1, "wordID": 627, "type": "PRES_AUD", "trial_index": 27}, "uniqueid": "MTK1761:30H4UDGLT3P47ZW3FO1S9TSQGR9MPH", "dateTime": 1516296314466}, {"current_trial": 28, "trialdata": {"rt": -1000, "trial_type": "single-audio", "word": "primate", "stimulus": "/static/audio/wordpool/PRIMATE.wav", "conditions": [18, 1200, "a", 18000], "internal_node_id": "0.0-19.0", "trial": 0, "time_elapsed": 196808, "serialpos": 7, "key_press": -1, "wordID": 1122, "type": "PRES_AUD", "trial_index": 28}, "uniqueid": "MTK1761:30H4UDGLT3P47ZW3FO1S9TSQGR9MPH", "dateTime": 1516296316504}, {"current_trial": 29, "trialdata": {"rt": -1000, "trial_type": "single-audio", "word": "tunnel", "stimulus": "/static/audio/wordpool/TUNNEL.wav", "conditions": [18, 1200, "a", 18000], "internal_node_id": "0.0-20.0", "trial": 0, "time_elapsed": 199048, "serialpos": 8, "key_press": -1, "wordID": 1518, "type": "PRES_AUD", "trial_index": 29}, "uniqueid": "MTK1761:30H4UDGLT3P47ZW3FO1S9TSQGR9MPH", "dateTime": 1516296318744}, {"current_trial": 30, "trialdata": {"rt": -1000, "trial_type": "single-audio", "word": "radish", "stimulus": "/static/audio/wordpool/RADISH.wav", "conditions": [18, 1200, "a", 18000], "internal_node_id": "0.0-21.0", "trial": 0, "time_elapsed": 201422, "serialpos": 9, "key_press": -1, "wordID": 1157, "type": "PRES_AUD", "trial_index": 30}, "uniqueid": "MTK1761:30H4UDGLT3P47ZW3FO1S9TSQGR9MPH", "dateTime": 1516296321118}, {"current_trial": 31, "trialdata": {"rt": -1000, "trial_type": "single-audio", "word": "blender", "stimulus": "/static/audio/wordpool/BLENDER.wav", "conditions": [18, 1200, "a", 18000], "internal_node_id": "0.0-22.0", "trial": 0, "time_elapsed": 203663, "serialpos": 10, "key_press": -1, "wordID": 135, "type": "PRES_AUD", "trial_index": 31}, "uniqueid": "MTK1761:30H4UDGLT3P47ZW3FO1S9TSQGR9MPH", "dateTime": 1516296323359}, {"current_trial": 32, "trialdata": {"rt": -1000, "trial_type": "single-audio", "word": "shrub", "stimulus": "/static/audio/wordpool/SHRUB.wav", "conditions": [18, 1200, "a", 18000], "internal_node_id": "0.0-23.0", "trial": 0, "time_elapsed": 205958, "serialpos": 11, "key_press": -1, "wordID": 1298, "type": "PRES_AUD", "trial_index": 32}, "uniqueid": "MTK1761:30H4UDGLT3P47ZW3FO1S9TSQGR9MPH", "dateTime": 1516296325655}, {"current_trial": 33, "trialdata": {"rt": -1000, "trial_type": "single-audio", "word": "beaker", "stimulus": "/static/audio/wordpool/BEAKER.wav", "conditions": [18, 1200, "a", 18000], "internal_node_id": "0.0-24.0", "trial": 0, "time_elapsed": 207964, "serialpos": 12, "key_press": -1, "wordID": 103, "type": "PRES_AUD", "trial_index": 33}, "uniqueid": "MTK1761:30H4UDGLT3P47ZW3FO1S9TSQGR9MPH", "dateTime": 1516296327660}, {"current_trial": 34, "trialdata": {"rt": -1000, "trial_type": "single-audio", "word": "blockade", "stimulus": "/static/audio/wordpool/BLOCKADE.wav", "conditions": [18, 1200, "a", 18000], "internal_node_id": "0.0-25.0", "trial": 0, "time_elapsed": 210186, "serialpos": 13, "key_press": -1, "wordID": 136, "type": "PRES_AUD", "trial_index": 34}, "uniqueid": "MTK1761:30H4UDGLT3P47ZW3FO1S9TSQGR9MPH", "dateTime": 1516296329882}, {"current_trial": 35, "trialdata": {"rt": -1000, "trial_type": "single-audio", "word": "pigment", "stimulus": "/static/audio/wordpool/PIGMENT.wav", "conditions": [18, 1200, "a", 18000], "internal_node_id": "0.0-26.0", "trial": 0, "time_elapsed": 212224, "serialpos": 14, "key_press": -1, "wordID": 1065, "type": "PRES_AUD", "trial_index": 35}, "uniqueid": "MTK1761:30H4UDGLT3P47ZW3FO1S9TSQGR9MPH", "dateTime": 1516296331920}, {"current_trial": 36, "trialdata": {"rt": -1000, "trial_type": "single-audio", "word": "daughter", "stimulus": "/static/audio/wordpool/DAUGHTER.wav", "conditions": [18, 1200, "a", 18000], "internal_node_id": "0.0-27.0", "trial": 0, "time_elapsed": 214343, "serialpos": 15, "key_press": -1, "wordID": 441, "type": "PRES_AUD", "trial_index": 36}, "uniqueid": "MTK1761:30H4UDGLT3P47ZW3FO1S9TSQGR9MPH", "dateTime": 1516296334039}, {"current_trial": 37, "trialdata": {"rt": -1000, "trial_type": "single-audio", "word": "window", "stimulus": "/static/audio/wordpool/WINDOW.wav", "conditions": [18, 1200, "a", 18000], "internal_node_id": "0.0-28.0", "trial": 0, "time_elapsed": 216368, "serialpos": 16, "key_press": -1, "wordID": 1610, "type": "PRES_AUD", "trial_index": 37}, "uniqueid": "MTK1761:30H4UDGLT3P47ZW3FO1S9TSQGR9MPH", "dateTime": 1516296336064}, {"current_trial": 38, "trialdata": {"rt": -1000, "trial_type": "single-audio", "word": "banjo", "stimulus": "/static/audio/wordpool/BANJO.wav", "conditions": [18, 1200, "a", 18000], "internal_node_id": "0.0-29.0", "trial": 0, "time_elapsed": 218417, "serialpos": 17, "key_press": -1, "wordID": 81, "type": "PRES_AUD", "trial_index": 38}, "uniqueid": "MTK1761:30H4UDGLT3P47ZW3FO1S9TSQGR9MPH", "dateTime": 1516296338113}, {"current_trial": 39, "trialdata": {"rt": -1, "trial_type": "single-stim", "stimulus": "", "internal_node_id": "0.0-30.0-0.0", "time_elapsed": 219785, "key_press": -1, "type": "PRE_RECALL_DELAY", "trial_index": 39}, "uniqueid": "MTK1761:30H4UDGLT3P47ZW3FO1S9TSQGR9MPH", "dateTime": 1516296339481}, {"current_trial": 40, "trialdata": {"rt": -1000, "trial_type": "single-audio", "stimulus": "/static/audio/400Hz.wav", "internal_node_id": "0.0-31.0", "time_elapsed": 220286, "key_press": -1, "type": "PRE_RECALL_ALERT", "trial_index": 40}, "uniqueid": "MTK1761:30H4UDGLT3P47ZW3FO1S9TSQGR9MPH", "dateTime": 1516296339982}, {"current_trial": 41, "trialdata": {"rt": [3537, 6357, 8796, 12753, 15533, 21338, 24267, 28644, 30830, 32523, 36174], "recwords": ["banjo", "window", "daughter", "pigment", "primate", "gazelle", "inmate", "plaid", "bullet", "blender", "radish"], "key_times": [1510, 1610, 1799, 2217, 2320, 3537, 4027, 4236, 4353, 4420, 4609, 4707, 6357, 6633, 6789, 7162, 7413, 7527, 7724, 8341, 8432, 8796, 9308, 9517, 9779, 9937, 9948, 10004, 10474, 10846, 11401, 11559, 11677, 12753, 13518, 13872, 14053, 14244, 14356, 14536, 14629, 15533, 16167, 16224, 16514, 16805, 17044, 17208, 17444, 21338, 22003, 22232, 22470, 22756, 22949, 23038, 24267, 25707, 25784, 25868, 26074, 26173, 28644, 29293, 29507, 29775, 29928, 30033, 30175, 30830, 31147, 31333, 31437, 31665, 31796, 32032, 32138, 32523, 32837, 32905, 33071, 33340, 33443, 33624, 36174], "trial_type": "free-recall", "conditions": [18, 1200, "a", 18000], "internal_node_id": "0.0-32.0-0.0", "key_presses": [66, 65, 78, 74, 79, 13, 87, 73, 78, 68, 79, 87, 13, 68, 65, 85, 71, 72, 84, 69, 82, 13, 80, 73, 71, 77, 78, 69, 8, 8, 69, 78, 84, 13, 80, 82, 73, 77, 65, 84, 69, 13, 71, 65, 90, 69, 76, 76, 69, 13, 73, 78, 77, 65, 84, 69, 13, 80, 76, 65, 73, 68, 13, 66, 85, 76, 76, 69, 84, 13, 66, 76, 69, 78, 68, 69, 82, 13, 82, 65, 68, 73, 83, 72, 13], "trial": 0, "time_elapsed": 280287, "type": "FREE_RECALL", "trial_index": 41}, "uniqueid": "MTK1761:30H4UDGLT3P47ZW3FO1S9TSQGR9MPH", "dateTime": 1516296399984}, {"current_trial": 42, "trialdata": {"rt": 1472, "trial_type": "text", "internal_node_id": "0.0-33.0", "time_elapsed": 283761, "key_press": 32, "type": "INSTRUCTIONS", "trial_index": 42}, "uniqueid": "MTK1761:30H4UDGLT3P47ZW3FO1S9TSQGR9MPH", "dateTime": 1516296403457}, {"current_trial": 43, "trialdata": {"rt": [3949, 7200, 8822, 10441, 12812, 15934], "trial_type": "math-distractor", "key_times": [2604, 2724, 3949, 6650, 6741, 7200, 8555, 8658, 8822, 10218, 10287, 10441, 12254, 12699, 12812, 14598, 15567, 15934, 17649], "responses": ["19", "10", "12", "21", "16", "18"], "num2": [9, 2, 8, 8, 9, 5, 1], "num3": [2, 4, 1, 5, 1, 5, 9], "conditions": [18, 1200, "a", 18000], "internal_node_id": "0.0-34.0", "key_presses": [49, 57, 13, 49, 48, 13, 49, 50, 13, 50, 49, 13, 49, 54, 13, 49, 56, 13, 49], "trial": 1, "time_elapsed": 303763, "type": "DISTRACTOR", "trial_index": 43, "num1": [8, 4, 3, 8, 6, 8, 9]}, "uniqueid": "MTK1761:30H4UDGLT3P47ZW3FO1S9TSQGR9MPH", "dateTime": 1516296423459}, {"current_trial": 44, "trialdata": {"rt": -1, "trial_type": "single-stim", "stimulus": "<p id=\"stim\">10</p>", "internal_node_id": "0.0-35.0-0.0", "time_elapsed": 306765, "key_press": -1, "trial_index": 44}, "uniqueid": "MTK1761:30H4UDGLT3P47ZW3FO1S9TSQGR9MPH", "dateTime": 1516296426461}, {"current_trial": 45, "trialdata": {"rt": -1, "trial_type": "single-stim", "stimulus": "<p id=\"stim\">9</p>", "internal_node_id": "0.0-35.0-1.0", "time_elapsed": 307766, "key_press": -1, "trial_index": 45}, "uniqueid": "MTK1761:30H4UDGLT3P47ZW3FO1S9TSQGR9MPH", "dateTime": 1516296427462}, {"current_trial": 46, "trialdata": {"rt": -1, "trial_type": "single-stim", "stimulus": "<p id=\"stim\">8</p>", "internal_node_id": "0.0-35.0-2.0", "time_elapsed": 308768, "key_press": -1, "trial_index": 46}, "uniqueid": "MTK1761:30H4UDGLT3P47ZW3FO1S9TSQGR9MPH", "dateTime": 1516296428464}, {"current_trial": 47, "trialdata": {"rt": -1, "trial_type": "single-stim", "stimulus": "<p id=\"stim\">7</p>", "internal_node_id": "0.0-35.0-3.0", "time_elapsed": 309768, "key_press": -1, "trial_index": 47}, "uniqueid": "MTK1761:30H4UDGLT3P47ZW3FO1S9TSQGR9MPH", "dateTime": 1516296429465}, {"current_trial": 48, "trialdata": {"rt": -1, "trial_type": "single-stim", "stimulus": "<p id=\"stim\">6</p>", "internal_node_id": "0.0-35.0-4.0", "time_elapsed": 310769, "key_press": -1, "trial_index": 48}, "uniqueid": "MTK1761:30H4UDGLT3P47ZW3FO1S9TSQGR9MPH", "dateTime": 1516296430465}, {"current_trial": 49, "trialdata": {"rt": -1, "trial_type": "single-stim", "stimulus": "<p id=\"stim\">5</p>", "internal_node_id": "0.0-35.0-5.0", "time_elapsed": 311770, "key_press": -1, "trial_index": 49}, "uniqueid": "MTK1761:30H4UDGLT3P47ZW3FO1S9TSQGR9MPH", "dateTime": 1516296431466}, {"current_trial": 50, "trialdata": {"rt": -1, "trial_type": "single-stim", "stimulus": "<p id=\"stim\">4</p>", "internal_node_id": "0.0-35.0-6.0", "time_elapsed": 312771, "key_press": -1, "trial_index": 50}, "uniqueid": "MTK1761:30H4UDGLT3P47ZW3FO1S9TSQGR9MPH", "dateTime": 1516296432467}, {"current_trial": 51, "trialdata": {"rt": -1, "trial_type": "single-stim", "stimulus": "<p id=\"stim\">3</p>", "internal_node_id": "0.0-35.0-7.0", "time_elapsed": 313772, "key_press": -1, "trial_index": 51}, "uniqueid": "MTK1761:30H4UDGLT3P47ZW3FO1S9TSQGR9MPH", "dateTime": 1516296433468}, {"current_trial": 52, "trialdata": {"rt": -1, "trial_type": "single-stim", "stimulus": "<p id=\"stim\">2</p>", "internal_node_id": "0.0-35.0-8.0", "time_elapsed": 314772, "key_press": -1, "trial_index": 52}, "uniqueid": "MTK1761:30H4UDGLT3P47ZW3FO1S9TSQGR9MPH", "dateTime": 1516296434468}, {"current_trial": 53, "trialdata": {"rt": -1, "trial_type": "single-stim", "stimulus": "<p id=\"stim\">1</p>", "internal_node_id": "0.0-35.0-9.0", "time_elapsed": 315773, "key_press": -1, "trial_index": 53}, "uniqueid": "MTK1761:30H4UDGLT3P47ZW3FO1S9TSQGR9MPH", "dateTime": 1516296435469}, {"current_trial": 54, "trialdata": {"rt": -1, "trial_type": "single-stim", "stimulus": "<p id=\"stim\">+</p>", "internal_node_id": "0.0-36.0-0.0", "time_elapsed": 317274, "key_press": -1, "type": "FIXATION", "trial_index": 54}, "uniqueid": "MTK1761:30H4UDGLT3P47ZW3FO1S9TSQGR9MPH", "dateTime": 1516296436970}, {"current_trial": 55, "trialdata": {"rt": 2161.3333333333458, "trial_type": "single-audio", "word": "match", "stimulus": "/static/audio/wordpool/MATCH.wav", "conditions": [18, 1200, "a", 18000], "internal_node_id": "0.0-37.0", "trial": 1, "time_elapsed": 319545, "serialpos": 0, "key_press": 175, "wordID": 877, "type": "PRES_AUD", "trial_index": 55}, "uniqueid": "MTK1761:30H4UDGLT3P47ZW3FO1S9TSQGR9MPH", "dateTime": 1516296439241}, {"current_trial": 56, "trialdata": {"rt": -1.333333333320752, "trial_type": "single-audio", "word": "worker", "stimulus": "/static/audio/wordpool/WORKER.wav", "conditions": [18, 1200, "a", 18000], "internal_node_id": "0.0-38.0", "trial": 1, "time_elapsed": 321831, "serialpos": 1, "key_press": 175, "wordID": 1620, "type": "PRES_AUD", "trial_index": 56}, "uniqueid": "MTK1761:30H4UDGLT3P47ZW3FO1S9TSQGR9MPH", "dateTime": 1516296441527}, {"current_trial": 57, "trialdata": {"rt": -1000, "trial_type": "single-audio", "word": "pudding", "stimulus": "/static/audio/wordpool/PUDDING.wav", "conditions": [18, 1200, "a", 18000], "internal_node_id": "0.0-39.0", "trial": 1, "time_elapsed": 323863, "serialpos": 2, "key_press": -1, "wordID": 1138, "type": "PRES_AUD", "trial_index": 57}, "uniqueid": "MTK1761:30H4UDGLT3P47ZW3FO1S9TSQGR9MPH", "dateTime": 1516296443559}, {"current_trial": 58, "trialdata": {"rt": -1000, "trial_type": "single-audio", "word": "custard", "stimulus": "/static/audio/wordpool/CUSTARD.wav", "conditions": [18, 1200, "a", 18000], "internal_node_id": "0.0-40.0", "trial": 1, "time_elapsed": 326189, "serialpos": 3, "key_press": -1, "wordID": 428, "type": "PRES_AUD", "trial_index": 58}, "uniqueid": "MTK1761:30H4UDGLT3P47ZW3FO1S9TSQGR9MPH", "dateTime": 1516296445885}, {"current_trial": 59, "trialdata": {"rt": -1000, "trial_type": "single-audio", "word": "dancer", "stimulus": "/static/audio/wordpool/DANCER.wav", "conditions": [18, 1200, "a", 18000], "internal_node_id": "0.0-41.0", "trial": 1, "time_elapsed": 328417, "serialpos": 4, "key_press": -1, "wordID": 436, "type": "PRES_AUD", "trial_index": 59}, "uniqueid": "MTK1761:30H4UDGLT3P47ZW3FO1S9TSQGR9MPH", "dateTime": 1516296448113}, {"current_trial": 60, "trialdata": {"rt": -1000, "trial_type": "single-audio", "word": "chauffeur", "stimulus": "/static/audio/wordpool/CHAUFFEUR.wav", "conditions": [18, 1200, "a", 18000], "internal_node_id": "0.0-42.0", "trial": 1, "time_elapsed": 330473, "serialpos": 5, "key_press": -1, "wordID": 282, "type": "PRES_AUD", "trial_index": 60}, "uniqueid": "MTK1761:30H4UDGLT3P47ZW3FO1S9TSQGR9MPH", "dateTime": 1516296450169}, {"current_trial": 61, "trialdata": {"rt": -1000, "trial_type": "single-audio", "word": "witness", "stimulus": "/static/audio/wordpool/WITNESS.wav", "conditions": [18, 1200, "a", 18000], "internal_node_id": "0.0-43.0", "trial": 1, "time_elapsed": 332683, "serialpos": 6, "key_press": -1, "wordID": 1617, "type": "PRES_AUD", "trial_index": 61}, "uniqueid": "MTK1761:30H4UDGLT3P47ZW3FO1S9TSQGR9MPH", "dateTime": 1516296452379}, {"current_trial": 62, "trialdata": {"rt": -1000, "trial_type": "single-audio", "word": "crevice", "stimulus": "/static/audio/wordpool/CREVICE.wav", "conditions": [18, 1200, "a", 18000], "internal_node_id": "0.0-44.0", "trial": 1, "time_elapsed": 334891, "serialpos": 7, "key_press": -1, "wordID": 404, "type": "PRES_AUD", "trial_index": 62}, "uniqueid": "MTK1761:30H4UDGLT3P47ZW3FO1S9TSQGR9MPH", "dateTime": 1516296454587}, {"current_trial": 63, "trialdata": {"rt": -1000, "trial_type": "single-audio", "word": "palace", "stimulus": "/static/audio/wordpool/PALACE.wav", "conditions": [18, 1200, "a", 18000], "internal_node_id": "0.0-45.0", "trial": 1, "time_elapsed": 337203, "serialpos": 8, "key_press": -1, "wordID": 1005, "type": "PRES_AUD", "trial_index": 63}, "uniqueid": "MTK1761:30H4UDGLT3P47ZW3FO1S9TSQGR9MPH", "dateTime": 1516296456899}, {"current_trial": 64, "trialdata": {"rt": -1000, "trial_type": "single-audio", "word": "handbag", "stimulus": "/static/audio/wordpool/HANDBAG.wav", "conditions": [18, 1200, "a", 18000], "internal_node_id": "0.0-46.0", "trial": 1, "time_elapsed": 339452, "serialpos": 9, "key_press": -1, "wordID": 683, "type": "PRES_AUD", "trial_index": 64}, "uniqueid": "MTK1761:30H4UDGLT3P47ZW3FO1S9TSQGR9MPH", "dateTime": 1516296459148}, {"current_trial": 65, "trialdata": {"rt": -1000, "trial_type": "single-audio", "word": "slug", "stimulus": "/static/audio/wordpool/SLUG.wav", "conditions": [18, 1200, "a", 18000], "internal_node_id": "0.0-47.0", "trial": 1, "time_elapsed": 341530, "serialpos": 10, "key_press": -1, "wordID": 1328, "type": "PRES_AUD", "trial_index": 65}, "uniqueid": "MTK1761:30H4UDGLT3P47ZW3FO1S9TSQGR9MPH", "dateTime": 1516296461226}, {"current_trial": 66, "trialdata": {"rt": -1000, "trial_type": "single-audio", "word": "hood", "stimulus": "/static/audio/wordpool/HOOD.wav", "conditions": [18, 1200, "a", 18000], "internal_node_id": "0.0-48.0", "trial": 1, "time_elapsed": 343604, "serialpos": 11, "key_press": -1, "wordID": 713, "type": "PRES_AUD", "trial_index": 66}, "uniqueid": "MTK1761:30H4UDGLT3P47ZW3FO1S9TSQGR9MPH", "dateTime": 1516296463300}, {"current_trial": 67, "trialdata": {"rt": -1000, "trial_type": "single-audio", "word": "crutch", "stimulus": "/static/audio/wordpool/CRUTCH.wav", "conditions": [18, 1200, "a", 18000], "internal_node_id": "0.0-49.0", "trial": 1, "time_elapsed": 345797, "serialpos": 12, "key_press": -1, "wordID": 416, "type": "PRES_AUD", "trial_index": 67}, "uniqueid": "MTK1761:30H4UDGLT3P47ZW3FO1S9TSQGR9MPH", "dateTime": 1516296465493}, {"current_trial": 68, "trialdata": {"rt": -1000, "trial_type": "single-audio", "word": "spoon", "stimulus": "/static/audio/wordpool/SPOON.wav", "conditions": [18, 1200, "a", 18000], "internal_node_id": "0.0-50.0", "trial": 1, "time_elapsed": 347887, "serialpos": 13, "key_press": -1, "wordID": 1356, "type": "PRES_AUD", "trial_index": 68}, "uniqueid": "MTK1761:30H4UDGLT3P47ZW3FO1S9TSQGR9MPH", "dateTime": 1516296467583}, {"current_trial": 69, "trialdata": {"rt": -1000, "trial_type": "single-audio", "word": "casket", "stimulus": "/static/audio/wordpool/CASKET.wav", "conditions": [18, 1200, "a", 18000], "internal_node_id": "0.0-51.0", "trial": 1, "time_elapsed": 350053, "serialpos": 14, "key_press": -1, "wordID": 254, "type": "PRES_AUD", "trial_index": 69}, "uniqueid": "MTK1761:30H4UDGLT3P47ZW3FO1S9TSQGR9MPH", "dateTime": 1516296469749}, {"current_trial": 70, "trialdata": {"rt": -1000, "trial_type": "single-audio", "word": "zebra", "stimulus": "/static/audio/wordpool/ZEBRA.wav", "conditions": [18, 1200, "a", 18000], "internal_node_id": "0.0-52.0", "trial": 1, "time_elapsed": 352388, "serialpos": 15, "key_press": -1, "wordID": 1634, "type": "PRES_AUD", "trial_index": 70}, "uniqueid": "MTK1761:30H4UDGLT3P47ZW3FO1S9TSQGR9MPH", "dateTime": 1516296472084}, {"current_trial": 71, "trialdata": {"rt": -1000, "trial_type": "single-audio", "word": "child", "stimulus": "/static/audio/wordpool/CHILD.wav", "conditions": [18, 1200, "a", 18000], "internal_node_id": "0.0-53.0", "trial": 1, "time_elapsed": 354672, "serialpos": 16, "key_press": -1, "wordID": 298, "type": "PRES_AUD", "trial_index": 71}, "uniqueid": "MTK1761:30H4UDGLT3P47ZW3FO1S9TSQGR9MPH", "dateTime": 1516296474368}, {"current_trial": 72, "trialdata": {"rt": -1000, "trial_type": "single-audio", "word": "flipper", "stimulus": "/static/audio/wordpool/FLIPPER.wav", "conditions": [18, 1200, "a", 18000], "internal_node_id": "0.0-54.0", "trial": 1, "time_elapsed": 356907, "serialpos": 17, "key_press": -1, "wordID": 579, "type": "PRES_AUD", "trial_index": 72}, "uniqueid": "MTK1761:30H4UDGLT3P47ZW3FO1S9TSQGR9MPH", "dateTime": 1516296476603}, {"current_trial": 73, "trialdata": {"rt": -1, "trial_type": "single-stim", "stimulus": "", "internal_node_id": "0.0-55.0-0.0", "time_elapsed": 358141, "key_press": -1, "type": "PRE_RECALL_DELAY", "trial_index": 73}, "uniqueid": "MTK1761:30H4UDGLT3P47ZW3FO1S9TSQGR9MPH", "dateTime": 1516296477837}, {"current_trial": 74, "trialdata": {"rt": -1000, "trial_type": "single-audio", "stimulus": "/static/audio/400Hz.wav", "internal_node_id": "0.0-56.0", "time_elapsed": 358642, "key_press": -1, "type": "PRE_RECALL_ALERT", "trial_index": 74}, "uniqueid": "MTK1761:30H4UDGLT3P47ZW3FO1S9TSQGR9MPH", "dateTime": 1516296478338}, {"current_trial": 75, "trialdata": {"rt": [3659, 5303, 7572, 10770, 41351, 58711], "recwords": ["flipper", "child", "zebra", "casket", "palace", "pudding"], "key_times": [1303, 1941, 2239, 2611, 2809, 3033, 3109, 3659, 3850, 4122, 4372, 4644, 4772, 5303, 5804, 6054, 6462, 6606, 6705, 7572, 7947, 8074, 8327, 8571, 8682, 8932, 10770, 12425, 13053, 13108, 13731, 13976, 14126, 14591, 14678, 18098, 18597, 18631, 18664, 18697, 18730, 18763, 18795, 18829, 18862, 40285, 40383, 40532, 40758, 40948, 41000, 41351, 57317, 57579, 57671, 57848, 57938, 58073, 58157, 58711], "trial_type": "free-recall", "conditions": [18, 1200, "a", 18000], "internal_node_id": "0.0-57.0-0.0", "key_presses": [70, 76, 73, 80, 80, 69, 82, 13, 67, 72, 73, 76, 68, 13, 90, 69, 66, 82, 65, 13, 67, 65, 83, 75, 69, 84, 13, 67, 72, 65, 69, 85, 70, 69, 82, 8, 8, 8, 8, 8, 8, 8, 8, 8, 8, 80, 65, 76, 65, 67, 69, 13, 80, 85, 68, 68, 73, 78, 71, 13], "trial": 1, "time_elapsed": 418644, "type": "FREE_RECALL", "trial_index": 75}, "uniqueid": "MTK1761:30H4UDGLT3P47ZW3FO1S9TSQGR9MPH", "dateTime": 1516296538341}, {"current_trial": 76, "trialdata": {"rt": 3190, "trial_type": "text", "internal_node_id": "0.0-58.0", "time_elapsed": 423836, "key_press": 32, "type": "INSTRUCTIONS", "trial_index": 76}, "uniqueid": "MTK1761:30H4UDGLT3P47ZW3FO1S9TSQGR9MPH", "dateTime": 1516296543532}, {"current_trial": 77, "trialdata": {"rt": [4530, 7591, 9909, 11599, 13322, 15592, 17305, 19084, 20507, 22008, 23961], "trial_type": "math-distractor", "key_times": [1901, 2187, 3330, 4335, 4530, 6349, 6751, 7591, 9524, 9909, 11476, 11599, 12840, 13148, 13322, 14877, 15451, 15592, 16823, 17183, 17305, 18533, 18946, 19084, 20206, 20301, 20507, 21613, 21899, 22008, 23326, 23853, 23961], "responses": ["17", "16", "7", "6", "14", "15", "14", "15", "12", "14", "13"], "num2": [5, 9, 1, 4, 6, 7, 9, 7, 9, 9, 8, 9], "num3": [7, 2, 4, 1, 4, 6, 1, 5, 2, 1, 1, 4], "conditions": [12, 800, "a", 24000], "internal_node_id": "0.0-59.0", "key_presses": [49, 57, 8, 55, 13, 49, 54, 13, 55, 13, 54, 13, 49, 52, 13, 49, 53, 13, 49, 52, 13, 49, 53, 13, 49, 50, 13, 49, 52, 13, 49, 51, 13], "trial": 2, "time_elapsed": 448838, "type": "DISTRACTOR", "trial_index": 77, "num1": [5, 5, 2, 1, 4, 2, 4, 3, 1, 4, 4, 2]}, "uniqueid": "MTK1761:30H4UDGLT3P47ZW3FO1S9TSQGR9MPH", "dateTime": 1516296568535}, {"current_trial": 78, "trialdata": {"rt": -1, "trial_type": "single-stim", "stimulus": "<p id=\"stim\">10</p>", "internal_node_id": "0.0-60.0-0.0", "time_elapsed": 451840, "key_press": -1, "trial_index": 78}, "uniqueid": "MTK1761:30H4UDGLT3P47ZW3FO1S9TSQGR9MPH", "dateTime": 1516296571536}, {"current_trial": 79, "trialdata": {"rt": -1, "trial_type": "single-stim", "stimulus": "<p id=\"stim\">9</p>", "internal_node_id": "0.0-60.0-1.0", "time_elapsed": 452841, "key_press": -1, "trial_index": 79}, "uniqueid": "MTK1761:30H4UDGLT3P47ZW3FO1S9TSQGR9MPH", "dateTime": 1516296572537}, {"current_trial": 80, "trialdata": {"rt": -1, "trial_type": "single-stim", "stimulus": "<p id=\"stim\">8</p>", "internal_node_id": "0.0-60.0-2.0", "time_elapsed": 453842, "key_press": -1, "trial_index": 80}, "uniqueid": "MTK1761:30H4UDGLT3P47ZW3FO1S9TSQGR9MPH", "dateTime": 1516296573538}, {"current_trial": 81, "trialdata": {"rt": -1, "trial_type": "single-stim", "stimulus": "<p id=\"stim\">7</p>", "internal_node_id": "0.0-60.0-3.0", "time_elapsed": 454842, "key_press": -1, "trial_index": 81}, "uniqueid": "MTK1761:30H4UDGLT3P47ZW3FO1S9TSQGR9MPH", "dateTime": 1516296574538}, {"current_trial": 82, "trialdata": {"rt": -1, "trial_type": "single-stim", "stimulus": "<p id=\"stim\">6</p>", "internal_node_id": "0.0-60.0-4.0", "time_elapsed": 455843, "key_press": -1, "trial_index": 82}, "uniqueid": "MTK1761:30H4UDGLT3P47ZW3FO1S9TSQGR9MPH", "dateTime": 1516296575539}, {"current_trial": 83, "trialdata": {"rt": -1, "trial_type": "single-stim", "stimulus": "<p id=\"stim\">5</p>", "internal_node_id": "0.0-60.0-5.0", "time_elapsed": 456844, "key_press": -1, "trial_index": 83}, "uniqueid": "MTK1761:30H4UDGLT3P47ZW3FO1S9TSQGR9MPH", "dateTime": 1516296576540}, {"current_trial": 84, "trialdata": {"rt": -1, "trial_type": "single-stim", "stimulus": "<p id=\"stim\">4</p>", "internal_node_id": "0.0-60.0-6.0", "time_elapsed": 457845, "key_press": -1, "trial_index": 84}, "uniqueid": "MTK1761:30H4UDGLT3P47ZW3FO1S9TSQGR9MPH", "dateTime": 1516296577541}, {"current_trial": 85, "trialdata": {"rt": -1, "trial_type": "single-stim", "stimulus": "<p id=\"stim\">3</p>", "internal_node_id": "0.0-60.0-7.0", "time_elapsed": 458845, "key_press": -1, "trial_index": 85}, "uniqueid": "MTK1761:30H4UDGLT3P47ZW3FO1S9TSQGR9MPH", "dateTime": 1516296578541}, {"current_trial": 86, "trialdata": {"rt": -1, "trial_type": "single-stim", "stimulus": "<p id=\"stim\">2</p>", "internal_node_id": "0.0-60.0-8.0", "time_elapsed": 459846, "key_press": -1, "trial_index": 86}, "uniqueid": "MTK1761:30H4UDGLT3P47ZW3FO1S9TSQGR9MPH", "dateTime": 1516296579542}, {"current_trial": 87, "trialdata": {"rt": -1, "trial_type": "single-stim", "stimulus": "<p id=\"stim\">1</p>", "internal_node_id": "0.0-60.0-9.0", "time_elapsed": 460848, "key_press": -1, "trial_index": 87}, "uniqueid": "MTK1761:30H4UDGLT3P47ZW3FO1S9TSQGR9MPH", "dateTime": 1516296580545}, {"current_trial": 88, "trialdata": {"rt": -1, "trial_type": "single-stim", "stimulus": "<p id=\"stim\">+</p>", "internal_node_id": "0.0-61.0-0.0", "time_elapsed": 462350, "key_press": -1, "type": "FIXATION", "trial_index": 88}, "uniqueid": "MTK1761:30H4UDGLT3P47ZW3FO1S9TSQGR9MPH", "dateTime": 1516296582046}, {"current_trial": 89, "trialdata": {"rt": -1000, "trial_type": "single-audio", "word": "stone", "stimulus": "/static/audio/wordpool/STONE.wav", "conditions": [12, 800, "a", 24000], "internal_node_id": "0.0-62.0", "trial": 2, "time_elapsed": 464094, "serialpos": 0, "key_press": -1, "wordID": 1384, "type": "PRES_AUD", "trial_index": 89}, "uniqueid": "MTK1761:30H4UDGLT3P47ZW3FO1S9TSQGR9MPH", "dateTime": 1516296583790}, {"current_trial": 90, "trialdata": {"rt": -1000, "trial_type": "single-audio", "word": "friend", "stimulus": "/static/audio/wordpool/FRIEND.wav", "conditions": [12, 800, "a", 24000], "internal_node_id": "0.0-63.0", "trial": 2, "time_elapsed": 466005, "serialpos": 1, "key_press": -1, "wordID": 605, "type": "PRES_AUD", "trial_index": 90}, "uniqueid": "MTK1761:30H4UDGLT3P47ZW3FO1S9TSQGR9MPH", "dateTime": 1516296585701}, {"current_trial": 91, "trialdata": {"rt": -1000, "trial_type": "single-audio", "word": "velvet", "stimulus": "/static/audio/wordpool/VELVET.wav", "conditions": [12, 800, "a", 24000], "internal_node_id": "0.0-64.0", "trial": 2, "time_elapsed": 467785, "serialpos": 2, "key_press": -1, "wordID": 1554, "type": "PRES_AUD", "trial_index": 91}, "uniqueid": "MTK1761:30H4UDGLT3P47ZW3FO1S9TSQGR9MPH", "dateTime": 1516296587481}, {"current_trial": 92, "trialdata": {"rt": -1000, "trial_type": "single-audio", "word": "airplane", "stimulus": "/static/audio/wordpool/AIRPLANE.wav", "conditions": [12, 800, "a", 24000], "internal_node_id": "0.0-65.0", "trial": 2, "time_elapsed": 469496, "serialpos": 3, "key_press": -1, "wordID": 11, "type": "PRES_AUD", "trial_index": 92}, "uniqueid": "MTK1761:30H4UDGLT3P47ZW3FO1S9TSQGR9MPH", "dateTime": 1516296589192}, {"current_trial": 93, "trialdata": {"rt": -1000, "trial_type": "single-audio", "word": "brandy", "stimulus": "/static/audio/wordpool/BRANDY.wav", "conditions": [12, 800, "a", 24000], "internal_node_id": "0.0-66.0", "trial": 2, "time_elapsed": 471330, "serialpos": 4, "key_press": -1, "wordID": 168, "type": "PRES_AUD", "trial_index": 93}, "uniqueid": "MTK1761:30H4UDGLT3P47ZW3FO1S9TSQGR9MPH", "dateTime": 1516296591026}, {"current_trial": 94, "trialdata": {"rt": -1000, "trial_type": "single-audio", "word": "college", "stimulus": "/static/audio/wordpool/COLLEGE.wav", "conditions": [12, 800, "a", 24000], "internal_node_id": "0.0-67.0", "trial": 2, "time_elapsed": 473222, "serialpos": 5, "key_press": -1, "wordID": 345, "type": "PRES_AUD", "trial_index": 94}, "uniqueid": "MTK1761:30H4UDGLT3P47ZW3FO1S9TSQGR9MPH", "dateTime": 1516296592918}, {"current_trial": 95, "trialdata": {"rt": -1000, "trial_type": "single-audio", "word": "dorm", "stimulus": "/static/audio/wordpool/DORM.wav", "conditions": [12, 800, "a", 24000], "internal_node_id": "0.0-68.0", "trial": 2, "time_elapsed": 474983, "serialpos": 6, "key_press": -1, "wordID": 487, "type": "PRES_AUD", "trial_index": 95}, "uniqueid": "MTK1761:30H4UDGLT3P47ZW3FO1S9TSQGR9MPH", "dateTime": 1516296594679}, {"current_trial": 96, "trialdata": {"rt": -1000, "trial_type": "single-audio", "word": "cigar", "stimulus": "/static/audio/wordpool/CIGAR.wav", "conditions": [12, 800, "a", 24000], "internal_node_id": "0.0-69.0", "trial": 2, "time_elapsed": 476769, "serialpos": 7, "key_press": -1, "wordID": 307, "type": "PRES_AUD", "trial_index": 96}, "uniqueid": "MTK1761:30H4UDGLT3P47ZW3FO1S9TSQGR9MPH", "dateTime": 1516296596465}, {"current_trial": 97, "trialdata": {"rt": -1000, "trial_type": "single-audio", "word": "cobra", "stimulus": "/static/audio/wordpool/COBRA.wav", "conditions": [12, 800, "a", 24000], "internal_node_id": "0.0-70.0", "trial": 2, "time_elapsed": 478764, "serialpos": 8, "key_press": -1, "wordID": 335, "type": "PRES_AUD", "trial_index": 97}, "uniqueid": "MTK1761:30H4UDGLT3P47ZW3FO1S9TSQGR9MPH", "dateTime": 1516296598460}, {"current_trial": 98, "trialdata": {"rt": -1000, "trial_type": "single-audio", "word": "scotch", "stimulus": "/static/audio/wordpool/SCOTCH.wav", "conditions": [12, 800, "a", 24000], "internal_node_id": "0.0-71.0", "trial": 2, "time_elapsed": 480597, "serialpos": 9, "key_press": -1, "wordID": 1250, "type": "PRES_AUD", "trial_index": 98}, "uniqueid": "MTK1761:30H4UDGLT3P47ZW3FO1S9TSQGR9MPH", "dateTime": 1516296600294}, {"current_trial": 99, "trialdata": {"rt": -1000, "trial_type": "single-audio", "word": "canal", "stimulus": "/static/audio/wordpool/CANAL.wav", "conditions": [12, 800, "a", 24000], "internal_node_id": "0.0-72.0", "trial": 2, "time_elapsed": 482319, "serialpos": 10, "key_press": -1, "wordID": 225, "type": "PRES_AUD", "trial_index": 99}, "uniqueid": "MTK1761:30H4UDGLT3P47ZW3FO1S9TSQGR9MPH", "dateTime": 1516296602015}, {"current_trial": 100, "trialdata": {"rt": -1000, "trial_type": "single-audio", "word": "lagoon", "stimulus": "/static/audio/wordpool/LAGOON.wav", "conditions": [12, 800, "a", 24000], "internal_node_id": "0.0-73.0", "trial": 2, "time_elapsed": 484086, "serialpos": 11, "key_press": -1, "wordID": 794, "type": "PRES_AUD", "trial_index": 100}, "uniqueid": "MTK1761:30H4UDGLT3P47ZW3FO1S9TSQGR9MPH", "dateTime": 1516296603782}, {"current_trial": 101, "trialdata": {"rt": -1, "trial_type": "single-stim", "stimulus": "", "internal_node_id": "0.0-74.0-0.0", "time_elapsed": 485329, "key_press": -1, "type": "PRE_RECALL_DELAY", "trial_index": 101}, "uniqueid": "MTK1761:30H4UDGLT3P47ZW3FO1S9TSQGR9MPH", "dateTime": 1516296605025}, {"current_trial": 102, "trialdata": {"rt": -1000, "trial_type": "single-audio", "stimulus": "/static/audio/400Hz.wav", "internal_node_id": "0.0-75.0", "time_elapsed": 485830, "key_press": -1, "type": "PRE_RECALL_ALERT", "trial_index": 102}, "uniqueid": "MTK1761:30H4UDGLT3P47ZW3FO1S9TSQGR9MPH", "dateTime": 1516296605526}, {"current_trial": 103, "trialdata": {"rt": [3480, 4566, 6700, 9014, 10385, 12709, 18053], "recwords": ["scotch", "canal", "lagoon", "cobra", "friend", "college", "dorm"], "key_times": [794, 1524, 1688, 2142, 2381, 2495, 3480, 3646, 3760, 3986, 4089, 4249, 4566, 5028, 5114, 5256, 5384, 5524, 5781, 6700, 7654, 7792, 8119, 8370, 8473, 9014, 9335, 9562, 9777, 9882, 10027, 10118, 10385, 10607, 10770, 11002, 11124, 11615, 11883, 11981, 12709, 12865, 13118, 13259, 13433, 18053], "trial_type": "free-recall", "conditions": [12, 800, "a", 24000], "internal_node_id": "0.0-76.0-0.0", "key_presses": [83, 67, 79, 84, 67, 72, 13, 67, 65, 78, 65, 76, 13, 76, 65, 71, 79, 79, 78, 13, 67, 79, 66, 82, 65, 13, 70, 82, 73, 69, 78, 68, 13, 67, 79, 76, 76, 69, 71, 69, 13, 68, 79, 82, 77, 13], "trial": 2, "time_elapsed": 545832, "type": "FREE_RECALL", "trial_index": 103}, "uniqueid": "MTK1761:30H4UDGLT3P47ZW3FO1S9TSQGR9MPH", "dateTime": 1516296665529}, {"current_trial": 104, "trialdata": {"rt": 2806, "trial_type": "text", "internal_node_id": "0.0-77.0", "time_elapsed": 550639, "key_press": 32, "type": "INSTRUCTIONS", "trial_index": 104}, "uniqueid": "MTK1761:30H4UDGLT3P47ZW3FO1S9TSQGR9MPH", "dateTime": 1516296670335}, {"current_trial": 105, "trialdata": {"rt": [2516, 6484, 7751, 9525, 11179], "trial_type": "math-distractor", "key_times": [1974, 2358, 2516, 4369, 4414, 5127, 5813, 6023, 6152, 6484, 7645, 7751, 8971, 9404, 9525, 10615, 11066, 11179], "responses": ["15", "10", "3", "16", "17"], "num2": [6, 6, 1, 4, 9, 9], "num3": [1, 2, 1, 7, 7, 8], "conditions": [12, 800, "a", 12000], "internal_node_id": "0.0-78.0", "key_presses": [49, 53, 13, 49, 50, 48, 8, 8, 48, 13, 51, 13, 49, 54, 13, 49, 55, 13], "trial": 3, "time_elapsed": 564641, "type": "DISTRACTOR", "trial_index": 105, "num1": [8, 2, 1, 5, 1, 8]}, "uniqueid": "MTK1761:30H4UDGLT3P47ZW3FO1S9TSQGR9MPH", "dateTime": 1516296684337}, {"current_trial": 106, "trialdata": {"rt": -1, "trial_type": "single-stim", "stimulus": "<p id=\"stim\">10</p>", "internal_node_id": "0.0-79.0-0.0", "time_elapsed": 567643, "key_press": -1, "trial_index": 106}, "uniqueid": "MTK1761:30H4UDGLT3P47ZW3FO1S9TSQGR9MPH", "dateTime": 1516296687339}, {"current_trial": 107, "trialdata": {"rt": -1, "trial_type": "single-stim", "stimulus": "<p id=\"stim\">9</p>", "internal_node_id": "0.0-79.0-1.0", "time_elapsed": 568644, "key_press": -1, "trial_index": 107}, "uniqueid": "MTK1761:30H4UDGLT3P47ZW3FO1S9TSQGR9MPH", "dateTime": 1516296688340}, {"current_trial": 108, "trialdata": {"rt": -1, "trial_type": "single-stim", "stimulus": "<p id=\"stim\">8</p>", "internal_node_id": "0.0-79.0-2.0", "time_elapsed": 569644, "key_press": -1, "trial_index": 108}, "uniqueid": "MTK1761:30H4UDGLT3P47ZW3FO1S9TSQGR9MPH", "dateTime": 1516296689340}, {"current_trial": 109, "trialdata": {"rt": -1, "trial_type": "single-stim", "stimulus": "<p id=\"stim\">7</p>", "internal_node_id": "0.0-79.0-3.0", "time_elapsed": 570645, "key_press": -1, "trial_index": 109}, "uniqueid": "MTK1761:30H4UDGLT3P47ZW3FO1S9TSQGR9MPH", "dateTime": 1516296690341}, {"current_trial": 110, "trialdata": {"rt": -1, "trial_type": "single-stim", "stimulus": "<p id=\"stim\">6</p>", "internal_node_id": "0.0-79.0-4.0", "time_elapsed": 571646, "key_press": -1, "trial_index": 110}, "uniqueid": "MTK1761:30H4UDGLT3P47ZW3FO1S9TSQGR9MPH", "dateTime": 1516296691342}, {"current_trial": 111, "trialdata": {"rt": -1, "trial_type": "single-stim", "stimulus": "<p id=\"stim\">5</p>", "internal_node_id": "0.0-79.0-5.0", "time_elapsed": 572647, "key_press": -1, "trial_index": 111}, "uniqueid": "MTK1761:30H4UDGLT3P47ZW3FO1S9TSQGR9MPH", "dateTime": 1516296692343}, {"current_trial": 112, "trialdata": {"rt": -1, "trial_type": "single-stim", "stimulus": "<p id=\"stim\">4</p>", "internal_node_id": "0.0-79.0-6.0", "time_elapsed": 573647, "key_press": -1, "trial_index": 112}, "uniqueid": "MTK1761:30H4UDGLT3P47ZW3FO1S9TSQGR9MPH", "dateTime": 1516296693343}, {"current_trial": 113, "trialdata": {"rt": -1, "trial_type": "single-stim", "stimulus": "<p id=\"stim\">3</p>", "internal_node_id": "0.0-79.0-7.0", "time_elapsed": 574648, "key_press": -1, "trial_index": 113}, "uniqueid": "MTK1761:30H4UDGLT3P47ZW3FO1S9TSQGR9MPH", "dateTime": 1516296694344}, {"current_trial": 114, "trialdata": {"rt": -1, "trial_type": "single-stim", "stimulus": "<p id=\"stim\">2</p>", "internal_node_id": "0.0-79.0-8.0", "time_elapsed": 575648, "key_press": -1, "trial_index": 114}, "uniqueid": "MTK1761:30H4UDGLT3P47ZW3FO1S9TSQGR9MPH", "dateTime": 1516296695344}, {"current_trial": 115, "trialdata": {"rt": -1, "trial_type": "single-stim", "stimulus": "<p id=\"stim\">1</p>", "internal_node_id": "0.0-79.0-9.0", "time_elapsed": 576649, "key_press": -1, "trial_index": 115}, "uniqueid": "MTK1761:30H4UDGLT3P47ZW3FO1S9TSQGR9MPH", "dateTime": 1516296696345}, {"current_trial": 116, "trialdata": {"rt": -1, "trial_type": "single-stim", "stimulus": "<p id=\"stim\">+</p>", "internal_node_id": "0.0-80.0-0.0", "time_elapsed": 578150, "key_press": -1, "type": "FIXATION", "trial_index": 116}, "uniqueid": "MTK1761:30H4UDGLT3P47ZW3FO1S9TSQGR9MPH", "dateTime": 1516296697846}, {"current_trial": 117, "trialdata": {"rt": -1000, "trial_type": "single-audio", "word": "passage", "stimulus": "/static/audio/wordpool/PASSAGE.wav", "conditions": [12, 800, "a", 12000], "internal_node_id": "0.0-81.0", "trial": 3, "time_elapsed": 579860, "serialpos": 0, "key_press": -1, "wordID": 1018, "type": "PRES_AUD", "trial_index": 117}, "uniqueid": "MTK1761:30H4UDGLT3P47ZW3FO1S9TSQGR9MPH", "dateTime": 1516296699556}, {"current_trial": 118, "trialdata": {"rt": -1000, "trial_type": "single-audio", "word": "crater", "stimulus": "/static/audio/wordpool/CRATER.wav", "conditions": [12, 800, "a", 12000], "internal_node_id": "0.0-82.0", "trial": 3, "time_elapsed": 581538, "serialpos": 1, "key_press": -1, "wordID": 399, "type": "PRES_AUD", "trial_index": 118}, "uniqueid": "MTK1761:30H4UDGLT3P47ZW3FO1S9TSQGR9MPH", "dateTime": 1516296701234}, {"current_trial": 119, "trialdata": {"rt": -1000, "trial_type": "single-audio", "word": "pastry", "stimulus": "/static/audio/wordpool/PASTRY.wav", "conditions": [12, 800, "a", 12000], "internal_node_id": "0.0-83.0", "trial": 3, "time_elapsed": 583146, "serialpos": 2, "key_press": -1, "wordID": 1021, "type": "PRES_AUD", "trial_index": 119}, "uniqueid": "MTK1761:30H4UDGLT3P47ZW3FO1S9TSQGR9MPH", "dateTime": 1516296702842}, {"current_trial": 120, "trialdata": {"rt": -1000, "trial_type": "single-audio", "word": "female", "stimulus": "/static/audio/wordpool/FEMALE.wav", "conditions": [12, 800, "a", 12000], "internal_node_id": "0.0-84.0", "trial": 3, "time_elapsed": 584886, "serialpos": 3, "key_press": -1, "wordID": 558, "type": "PRES_AUD", "trial_index": 120}, "uniqueid": "MTK1761:30H4UDGLT3P47ZW3FO1S9TSQGR9MPH", "dateTime": 1516296704582}, {"current_trial": 121, "trialdata": {"rt": -1000, "trial_type": "single-audio", "word": "package", "stimulus": "/static/audio/wordpool/PACKAGE.wav", "conditions": [12, 800, "a", 12000], "internal_node_id": "0.0-85.0", "trial": 3, "time_elapsed": 586852, "serialpos": 4, "key_press": -1, "wordID": 996, "type": "PRES_AUD", "trial_index": 121}, "uniqueid": "MTK1761:30H4UDGLT3P47ZW3FO1S9TSQGR9MPH", "dateTime": 1516296706548}, {"current_trial": 122, "trialdata": {"rt": -1000, "trial_type": "single-audio", "word": "arm", "stimulus": "/static/audio/wordpool/ARM.wav", "conditions": [12, 800, "a", 12000], "internal_node_id": "0.0-86.0", "trial": 3, "time_elapsed": 588512, "serialpos": 5, "key_press": -1, "wordID": 37, "type": "PRES_AUD", "trial_index": 122}, "uniqueid": "MTK1761:30H4UDGLT3P47ZW3FO1S9TSQGR9MPH", "dateTime": 1516296708208}, {"current_trial": 123, "trialdata": {"rt": -1000, "trial_type": "single-audio", "word": "cabbage", "stimulus": "/static/audio/wordpool/CABBAGE.wav", "conditions": [12, 800, "a", 12000], "internal_node_id": "0.0-87.0", "trial": 3, "time_elapsed": 590376, "serialpos": 6, "key_press": -1, "wordID": 209, "type": "PRES_AUD", "trial_index": 123}, "uniqueid": "MTK1761:30H4UDGLT3P47ZW3FO1S9TSQGR9MPH", "dateTime": 1516296710072}, {"current_trial": 124, "trialdata": {"rt": -1000, "trial_type": "single-audio", "word": "spouse", "stimulus": "/static/audio/wordpool/SPOUSE.wav", "conditions": [12, 800, "a", 12000], "internal_node_id": "0.0-88.0", "trial": 3, "time_elapsed": 592351, "serialpos": 7, "key_press": -1, "wordID": 1357, "type": "PRES_AUD", "trial_index": 124}, "uniqueid": "MTK1761:30H4UDGLT3P47ZW3FO1S9TSQGR9MPH", "dateTime": 1516296712047}, {"current_trial": 125, "trialdata": {"rt": -1000, "trial_type": "single-audio", "word": "wife", "stimulus": "/static/audio/wordpool/WIFE.wav", "conditions": [12, 800, "a", 12000], "internal_node_id": "0.0-89.0", "trial": 3, "time_elapsed": 594121, "serialpos": 8, "key_press": -1, "wordID": 1608, "type": "PRES_AUD", "trial_index": 125}, "uniqueid": "MTK1761:30H4UDGLT3P47ZW3FO1S9TSQGR9MPH", "dateTime": 1516296713817}, {"current_trial": 126, "trialdata": {"rt": -1000, "trial_type": "single-audio", "word": "cousin", "stimulus": "/static/audio/wordpool/COUSIN.wav", "conditions": [12, 800, "a", 12000], "internal_node_id": "0.0-90.0", "trial": 3, "time_elapsed": 595743, "serialpos": 9, "key_press": -1, "wordID": 391, "type": "PRES_AUD", "trial_index": 126}, "uniqueid": "MTK1761:30H4UDGLT3P47ZW3FO1S9TSQGR9MPH", "dateTime": 1516296715439}, {"current_trial": 127, "trialdata": {"rt": -1000, "trial_type": "single-audio", "word": "stomach", "stimulus": "/static/audio/wordpool/STOMACH.wav", "conditions": [12, 800, "a", 12000], "internal_node_id": "0.0-91.0", "trial": 3, "time_elapsed": 597608, "serialpos": 10, "key_press": -1, "wordID": 1383, "type": "PRES_AUD", "trial_index": 127}, "uniqueid": "MTK1761:30H4UDGLT3P47ZW3FO1S9TSQGR9MPH", "dateTime": 1516296717304}, {"current_trial": 128, "trialdata": {"rt": -1000, "trial_type": "single-audio", "word": "leg", "stimulus": "/static/audio/wordpool/LEG.wav", "conditions": [12, 800, "a", 12000], "internal_node_id": "0.0-92.0", "trial": 3, "time_elapsed": 599594, "serialpos": 11, "key_press": -1, "wordID": 808, "type": "PRES_AUD", "trial_index": 128}, "uniqueid": "MTK1761:30H4UDGLT3P47ZW3FO1S9TSQGR9MPH", "dateTime": 1516296719290}, {"current_trial": 129, "trialdata": {"rt": -1, "trial_type": "single-stim", "stimulus": "", "internal_node_id": "0.0-93.0-0.0", "time_elapsed": 600847, "key_press": -1, "type": "PRE_RECALL_DELAY", "trial_index": 129}, "uniqueid": "MTK1761:30H4UDGLT3P47ZW3FO1S9TSQGR9MPH", "dateTime": 1516296720543}, {"current_trial": 130, "trialdata": {"rt": -1000, "trial_type": "single-audio", "stimulus": "/static/audio/400Hz.wav", "internal_node_id": "0.0-94.0", "time_elapsed": 601348, "key_press": -1, "type": "PRE_RECALL_ALERT", "trial_index": 130}, "uniqueid": "MTK1761:30H4UDGLT3P47ZW3FO1S9TSQGR9MPH", "dateTime": 1516296721044}, {"current_trial": 131, "trialdata": {"rt": [5058, 6274, 9059, 14079, 15521, 18393, 23911, 42292], "recwords": ["spouse", "wife", "cousin", "stomach", "leg", "passage", "crevace", "arm"], "key_times": [896, 2071, 2155, 2458, 2575, 2657, 5058, 5457, 5705, 5808, 6015, 6274, 6781, 6991, 7077, 7202, 7318, 7461, 8185, 8924, 9059, 9317, 9741, 9995, 10238, 10334, 10825, 11017, 11130, 11806, 14079, 14805, 15016, 15356, 15521, 17209, 17295, 17494, 17680, 17706, 17999, 18083, 18393, 18749, 19074, 19144, 19635, 20360, 20578, 20658, 23911, 41400, 41519, 41658, 42292], "trial_type": "free-recall", "conditions": [12, 800, "a", 12000], "internal_node_id": "0.0-95.0-0.0", "key_presses": [83, 80, 79, 85, 83, 69, 13, 87, 73, 70, 69, 13, 67, 79, 85, 83, 73, 72, 8, 78, 13, 83, 84, 79, 77, 67, 8, 65, 67, 72, 13, 76, 69, 71, 13, 80, 65, 83, 83, 65, 71, 69, 13, 67, 82, 69, 86, 65, 67, 69, 13, 65, 82, 77, 13], "trial": 3, "time_elapsed": 661349, "type": "FREE_RECALL", "trial_index": 131}, "uniqueid": "MTK1761:30H4UDGLT3P47ZW3FO1S9TSQGR9MPH", "dateTime": 1516296781046}, {"current_trial": 132, "trialdata": {"rt": 933, "trial_type": "text", "internal_node_id": "0.0-96.0", "time_elapsed": 664283, "key_press": 32, "type": "INSTRUCTIONS", "trial_index": 132}, "uniqueid": "MTK1761:30H4UDGLT3P47ZW3FO1S9TSQGR9MPH", "dateTime": 1516296783979}, {"current_trial": 133, "trialdata": {"rt": [2633, 4693, 6532, 8293, 9540, 11221, 13015, 14743, 16630, 18645, 20384, 22378], "trial_type": "math-distractor", "key_times": [1962, 2083, 2633, 4504, 4693, 5893, 6357, 6532, 7907, 8166, 8293, 9381, 9540, 10541, 11041, 11221, 12347, 12888, 13015, 14500, 14594, 14743, 15772, 16522, 16630, 17797, 18481, 18645, 20014, 20256, 20384, 21764, 22234, 22378, 23807], "responses": ["13", "9", "17", "13", "4", "10", "18", "12", "19", "17", "14", "20"], "num2": [4, 5, 7, 5, 1, 4, 7, 3, 9, 7, 1, 6, 9], "num3": [1, 3, 4, 7, 1, 1, 4, 7, 1, 5, 9, 5, 7], "conditions": [24, 800, "a", 24000], "internal_node_id": "0.0-97.0", "key_presses": [49, 51, 13, 57, 13, 49, 55, 13, 49, 51, 13, 52, 13, 49, 48, 13, 49, 56, 13, 49, 50, 13, 49, 57, 13, 49, 55, 13, 49, 52, 13, 50, 48, 13, 50], "trial": 4, "time_elapsed": 690284, "type": "DISTRACTOR", "trial_index": 133, "num1": [8, 1, 6, 1, 2, 5, 7, 2, 9, 5, 4, 9, 7]}, "uniqueid": "MTK1761:30H4UDGLT3P47ZW3FO1S9TSQGR9MPH", "dateTime": 1516296809980}, {"current_trial": 134, "trialdata": {"rt": -1, "trial_type": "single-stim", "stimulus": "<p id=\"stim\">10</p>", "internal_node_id": "0.0-98.0-0.0", "time_elapsed": 693286, "key_press": -1, "trial_index": 134}, "uniqueid": "MTK1761:30H4UDGLT3P47ZW3FO1S9TSQGR9MPH", "dateTime": 1516296812982}, {"current_trial": 135, "trialdata": {"rt": -1, "trial_type": "single-stim", "stimulus": "<p id=\"stim\">9</p>", "internal_node_id": "0.0-98.0-1.0", "time_elapsed": 694286, "key_press": -1, "trial_index": 135}, "uniqueid": "MTK1761:30H4UDGLT3P47ZW3FO1S9TSQGR9MPH", "dateTime": 1516296813983}, {"current_trial": 136, "trialdata": {"rt": -1, "trial_type": "single-stim", "stimulus": "<p id=\"stim\">8</p>", "internal_node_id": "0.0-98.0-2.0", "time_elapsed": 695288, "key_press": -1, "trial_index": 136}, "uniqueid": "MTK1761:30H4UDGLT3P47ZW3FO1S9TSQGR9MPH", "dateTime": 1516296814984}, {"current_trial": 137, "trialdata": {"rt": -1, "trial_type": "single-stim", "stimulus": "<p id=\"stim\">7</p>", "internal_node_id": "0.0-98.0-3.0", "time_elapsed": 696289, "key_press": -1, "trial_index": 137}, "uniqueid": "MTK1761:30H4UDGLT3P47ZW3FO1S9TSQGR9MPH", "dateTime": 1516296815985}, {"current_trial": 138, "trialdata": {"rt": -1, "trial_type": "single-stim", "stimulus": "<p id=\"stim\">6</p>", "internal_node_id": "0.0-98.0-4.0", "time_elapsed": 697289, "key_press": -1, "trial_index": 138}, "uniqueid": "MTK1761:30H4UDGLT3P47ZW3FO1S9TSQGR9MPH", "dateTime": 1516296816985}, {"current_trial": 139, "trialdata": {"rt": -1, "trial_type": "single-stim", "stimulus": "<p id=\"stim\">5</p>", "internal_node_id": "0.0-98.0-5.0", "time_elapsed": 698290, "key_press": -1, "trial_index": 139}, "uniqueid": "MTK1761:30H4UDGLT3P47ZW3FO1S9TSQGR9MPH", "dateTime": 1516296817986}, {"current_trial": 140, "trialdata": {"rt": -1, "trial_type": "single-stim", "stimulus": "<p id=\"stim\">4</p>", "internal_node_id": "0.0-98.0-6.0", "time_elapsed": 699291, "key_press": -1, "trial_index": 140}, "uniqueid": "MTK1761:30H4UDGLT3P47ZW3FO1S9TSQGR9MPH", "dateTime": 1516296818987}, {"current_trial": 141, "trialdata": {"rt": -1, "trial_type": "single-stim", "stimulus": "<p id=\"stim\">3</p>", "internal_node_id": "0.0-98.0-7.0", "time_elapsed": 700292, "key_press": -1, "trial_index": 141}, "uniqueid": "MTK1761:30H4UDGLT3P47ZW3FO1S9TSQGR9MPH", "dateTime": 1516296819988}, {"current_trial": 142, "trialdata": {"rt": -1, "trial_type": "single-stim", "stimulus": "<p id=\"stim\">2</p>", "internal_node_id": "0.0-98.0-8.0", "time_elapsed": 701293, "key_press": -1, "trial_index": 142}, "uniqueid": "MTK1761:30H4UDGLT3P47ZW3FO1S9TSQGR9MPH", "dateTime": 1516296820989}, {"current_trial": 143, "trialdata": {"rt": -1, "trial_type": "single-stim", "stimulus": "<p id=\"stim\">1</p>", "internal_node_id": "0.0-98.0-9.0", "time_elapsed": 702294, "key_press": -1, "trial_index": 143}, "uniqueid": "MTK1761:30H4UDGLT3P47ZW3FO1S9TSQGR9MPH", "dateTime": 1516296821990}, {"current_trial": 144, "trialdata": {"rt": -1, "trial_type": "single-stim", "stimulus": "<p id=\"stim\">+</p>", "internal_node_id": "0.0-99.0-0.0", "time_elapsed": 703795, "key_press": -1, "type": "FIXATION", "trial_index": 144}, "uniqueid": "MTK1761:30H4UDGLT3P47ZW3FO1S9TSQGR9MPH", "dateTime": 1516296823491}, {"current_trial": 145, "trialdata": {"rt": -1000, "trial_type": "single-audio", "word": "wrench", "stimulus": "/static/audio/wordpool/WRENCH.wav", "conditions": [24, 800, "a", 24000], "internal_node_id": "0.0-100.0", "trial": 4, "time_elapsed": 705741, "serialpos": 0, "key_press": -1, "wordID": 1624, "type": "PRES_AUD", "trial_index": 145}, "uniqueid": "MTK1761:30H4UDGLT3P47ZW3FO1S9TSQGR9MPH", "dateTime": 1516296825437}, {"current_trial": 146, "trialdata": {"rt": -1000, "trial_type": "single-audio", "word": "cupboard", "stimulus": "/static/audio/wordpool/CUPBOARD.wav", "conditions": [24, 800, "a", 24000], "internal_node_id": "0.0-101.0", "trial": 4, "time_elapsed": 707420, "serialpos": 1, "key_press": -1, "wordID": 424, "type": "PRES_AUD", "trial_index": 146}, "uniqueid": "MTK1761:30H4UDGLT3P47ZW3FO1S9TSQGR9MPH", "dateTime": 1516296827117}, {"current_trial": 147, "trialdata": {"rt": -1000, "trial_type": "single-audio", "word": "crab", "stimulus": "/static/audio/wordpool/CRAB.wav", "conditions": [24, 800, "a", 24000], "internal_node_id": "0.0-102.0", "trial": 4, "time_elapsed": 709064, "serialpos": 2, "key_press": -1, "wordID": 396, "type": "PRES_AUD", "trial_index": 147}, "uniqueid": "MTK1761:30H4UDGLT3P47ZW3FO1S9TSQGR9MPH", "dateTime": 1516296828760}, {"current_trial": 148, "trialdata": {"rt": -1000, "trial_type": "single-audio", "word": "europe", "stimulus": "/static/audio/wordpool/EUROPE.wav", "conditions": [24, 800, "a", 24000], "internal_node_id": "0.0-103.0", "trial": 4, "time_elapsed": 710765, "serialpos": 3, "key_press": -1, "wordID": 540, "type": "PRES_AUD", "trial_index": 148}, "uniqueid": "MTK1761:30H4UDGLT3P47ZW3FO1S9TSQGR9MPH", "dateTime": 1516296830461}, {"current_trial": 149, "trialdata": {"rt": -1000, "trial_type": "single-audio", "word": "garlic", "stimulus": "/static/audio/wordpool/GARLIC.wav", "conditions": [24, 800, "a", 24000], "internal_node_id": "0.0-104.0", "trial": 4, "time_elapsed": 712566, "serialpos": 4, "key_press": -1, "wordID": 623, "type": "PRES_AUD", "trial_index": 149}, "uniqueid": "MTK1761:30H4UDGLT3P47ZW3FO1S9TSQGR9MPH", "dateTime": 1516296832262}, {"current_trial": 150, "trialdata": {"rt": -1000, "trial_type": "single-audio", "word": "tart", "stimulus": "/static/audio/wordpool/TART.wav", "conditions": [24, 800, "a", 24000], "internal_node_id": "0.0-105.0", "trial": 4, "time_elapsed": 714343, "serialpos": 5, "key_press": -1, "wordID": 1435, "type": "PRES_AUD", "trial_index": 150}, "uniqueid": "MTK1761:30H4UDGLT3P47ZW3FO1S9TSQGR9MPH", "dateTime": 1516296834039}, {"current_trial": 151, "trialdata": {"rt": -1000, "trial_type": "single-audio", "word": "pizza", "stimulus": "/static/audio/wordpool/PIZZA.wav", "conditions": [24, 800, "a", 24000], "internal_node_id": "0.0-106.0", "trial": 4, "time_elapsed": 716219, "serialpos": 6, "key_press": -1, "wordID": 1078, "type": "PRES_AUD", "trial_index": 151}, "uniqueid": "MTK1761:30H4UDGLT3P47ZW3FO1S9TSQGR9MPH", "dateTime": 1516296835915}, {"current_trial": 152, "trialdata": {"rt": -1000, "trial_type": "single-audio", "word": "mammal", "stimulus": "/static/audio/wordpool/MAMMAL.wav", "conditions": [24, 800, "a", 24000], "internal_node_id": "0.0-107.0", "trial": 4, "time_elapsed": 718015, "serialpos": 7, "key_press": -1, "wordID": 860, "type": "PRES_AUD", "trial_index": 152}, "uniqueid": "MTK1761:30H4UDGLT3P47ZW3FO1S9TSQGR9MPH", "dateTime": 1516296837711}, {"current_trial": 153, "trialdata": {"rt": -1000, "trial_type": "single-audio", "word": "baby", "stimulus": "/static/audio/wordpool/BABY.wav", "conditions": [24, 800, "a", 24000], "internal_node_id": "0.0-108.0", "trial": 4, "time_elapsed": 719957, "serialpos": 8, "key_press": -1, "wordID": 63, "type": "PRES_AUD", "trial_index": 153}, "uniqueid": "MTK1761:30H4UDGLT3P47ZW3FO1S9TSQGR9MPH", "dateTime": 1516296839653}, {"current_trial": 154, "trialdata": {"rt": -1000, "trial_type": "single-audio", "word": "onion", "stimulus": "/static/audio/wordpool/ONION.wav", "conditions": [24, 800, "a", 24000], "internal_node_id": "0.0-109.0", "trial": 4, "time_elapsed": 721850, "serialpos": 9, "key_press": -1, "wordID": 976, "type": "PRES_AUD", "trial_index": 154}, "uniqueid": "MTK1761:30H4UDGLT3P47ZW3FO1S9TSQGR9MPH", "dateTime": 1516296841546}, {"current_trial": 155, "trialdata": {"rt": -1000, "trial_type": "single-audio", "word": "parsley", "stimulus": "/static/audio/wordpool/PARSLEY.wav", "conditions": [24, 800, "a", 24000], "internal_node_id": "0.0-110.0", "trial": 4, "time_elapsed": 723582, "serialpos": 10, "key_press": -1, "wordID": 1015, "type": "PRES_AUD", "trial_index": 155}, "uniqueid": "MTK1761:30H4UDGLT3P47ZW3FO1S9TSQGR9MPH", "dateTime": 1516296843278}, {"current_trial": 156, "trialdata": {"rt": -1000, "trial_type": "single-audio", "word": "pepper", "stimulus": "/static/audio/wordpool/PEPPER.wav", "conditions": [24, 800, "a", 24000], "internal_node_id": "0.0-111.0", "trial": 4, "time_elapsed": 725347, "serialpos": 11, "key_press": -1, "wordID": 1046, "type": "PRES_AUD", "trial_index": 156}, "uniqueid": "MTK1761:30H4UDGLT3P47ZW3FO1S9TSQGR9MPH", "dateTime": 1516296845043}, {"current_trial": 157, "trialdata": {"rt": -1000, "trial_type": "single-audio", "word": "laser", "stimulus": "/static/audio/wordpool/LASER.wav", "conditions": [24, 800, "a", 24000], "internal_node_id": "0.0-112.0", "trial": 4, "time_elapsed": 727253, "serialpos": 12, "key_press": -1, "wordID": 800, "type": "PRES_AUD", "trial_index": 157}, "uniqueid": "MTK1761:30H4UDGLT3P47ZW3FO1S9TSQGR9MPH", "dateTime": 1516296846949}, {"current_trial": 158, "trialdata": {"rt": -1000, "trial_type": "single-audio", "word": "sausage", "stimulus": "/static/audio/wordpool/SAUSAGE.wav", "conditions": [24, 800, "a", 24000], "internal_node_id": "0.0-113.0", "trial": 4, "time_elapsed": 729253, "serialpos": 13, "key_press": -1, "wordID": 1237, "type": "PRES_AUD", "trial_index": 158}, "uniqueid": "MTK1761:30H4UDGLT3P47ZW3FO1S9TSQGR9MPH", "dateTime": 1516296848949}, {"current_trial": 159, "trialdata": {"rt": -1000, "trial_type": "single-audio", "word": "japan", "stimulus": "/static/audio/wordpool/JAPAN.wav", "conditions": [24, 800, "a", 24000], "internal_node_id": "0.0-114.0", "trial": 4, "time_elapsed": 731051, "serialpos": 14, "key_press": -1, "wordID": 748, "type": "PRES_AUD", "trial_index": 159}, "uniqueid": "MTK1761:30H4UDGLT3P47ZW3FO1S9TSQGR9MPH", "dateTime": 1516296850747}, {"current_trial": 160, "trialdata": {"rt": -1000, "trial_type": "single-audio", "word": "wardrobe", "stimulus": "/static/audio/wordpool/WARDROBE.wav", "conditions": [24, 800, "a", 24000], "internal_node_id": "0.0-115.0", "trial": 4, "time_elapsed": 732884, "serialpos": 15, "key_press": -1, "wordID": 1586, "type": "PRES_AUD", "trial_index": 160}, "uniqueid": "MTK1761:30H4UDGLT3P47ZW3FO1S9TSQGR9MPH", "dateTime": 1516296852580}, {"current_trial": 161, "trialdata": {"rt": -1000, "trial_type": "single-audio", "word": "lace", "stimulus": "/static/audio/wordpool/LACE.wav", "conditions": [24, 800, "a", 24000], "internal_node_id": "0.0-116.0", "trial": 4, "time_elapsed": 734822, "serialpos": 16, "key_press": -1, "wordID": 791, "type": "PRES_AUD", "trial_index": 161}, "uniqueid": "MTK1761:30H4UDGLT3P47ZW3FO1S9TSQGR9MPH", "dateTime": 1516296854518}, {"current_trial": 162, "trialdata": {"rt": -1000, "trial_type": "single-audio", "word": "badge", "stimulus": "/static/audio/wordpool/BADGE.wav", "conditions": [24, 800, "a", 24000], "internal_node_id": "0.0-117.0", "trial": 4, "time_elapsed": 736640, "serialpos": 17, "key_press": -1, "wordID": 67, "type": "PRES_AUD", "trial_index": 162}, "uniqueid": "MTK1761:30H4UDGLT3P47ZW3FO1S9TSQGR9MPH", "dateTime": 1516296856336}, {"current_trial": 163, "trialdata": {"rt": -1000, "trial_type": "single-audio", "word": "sticker", "stimulus": "/static/audio/wordpool/STICKER.wav", "conditions": [24, 800, "a", 24000], "internal_node_id": "0.0-118.0", "trial": 4, "time_elapsed": 738494, "serialpos": 18, "key_press": -1, "wordID": 1381, "type": "PRES_AUD", "trial_index": 163}, "uniqueid": "MTK1761:30H4UDGLT3P47ZW3FO1S9TSQGR9MPH", "dateTime": 1516296858190}, {"current_trial": 164, "trialdata": {"rt": -1000, "trial_type": "single-audio", "word": "pimple", "stimulus": "/static/audio/wordpool/PIMPLE.wav", "conditions": [24, 800, "a", 24000], "internal_node_id": "0.0-119.0", "trial": 4, "time_elapsed": 740174, "serialpos": 19, "key_press": -1, "wordID": 1070, "type": "PRES_AUD", "trial_index": 164}, "uniqueid": "MTK1761:30H4UDGLT3P47ZW3FO1S9TSQGR9MPH", "dateTime": 1516296859870}, {"current_trial": 165, "trialdata": {"rt": -1000, "trial_type": "single-audio", "word": "asia", "stimulus": "/static/audio/wordpool/ASIA.wav", "conditions": [24, 800, "a", 24000], "internal_node_id": "0.0-120.0", "trial": 4, "time_elapsed": 741883, "serialpos": 20, "key_press": -1, "wordID": 45, "type": "PRES_AUD", "trial_index": 165}, "uniqueid": "MTK1761:30H4UDGLT3P47ZW3FO1S9TSQGR9MPH", "dateTime": 1516296861579}, {"current_trial": 166, "trialdata": {"rt": -1000, "trial_type": "single-audio", "word": "clothes", "stimulus": "/static/audio/wordpool/CLOTHES.wav", "conditions": [24, 800, "a", 24000], "internal_node_id": "0.0-121.0", "trial": 4, "time_elapsed": 743641, "serialpos": 21, "key_press": -1, "wordID": 326, "type": "PRES_AUD", "trial_index": 166}, "uniqueid": "MTK1761:30H4UDGLT3P47ZW3FO1S9TSQGR9MPH", "dateTime": 1516296863337}, {"current_trial": 167, "trialdata": {"rt": -1000, "trial_type": "single-audio", "word": "parent", "stimulus": "/static/audio/wordpool/PARENT.wav", "conditions": [24, 800, "a", 24000], "internal_node_id": "0.0-122.0", "trial": 4, "time_elapsed": 745577, "serialpos": 22, "key_press": -1, "wordID": 1012, "type": "PRES_AUD", "trial_index": 167}, "uniqueid": "MTK1761:30H4UDGLT3P47ZW3FO1S9TSQGR9MPH", "dateTime": 1516296865273}, {"current_trial": 168, "trialdata": {"rt": -1000, "trial_type": "single-audio", "word": "suspect", "stimulus": "/static/audio/wordpool/SUSPECT.wav", "conditions": [24, 800, "a", 24000], "internal_node_id": "0.0-123.0", "trial": 4, "time_elapsed": 747577, "serialpos": 23, "key_press": -1, "wordID": 1414, "type": "PRES_AUD", "trial_index": 168}, "uniqueid": "MTK1761:30H4UDGLT3P47ZW3FO1S9TSQGR9MPH", "dateTime": 1516296867273}, {"current_trial": 169, "trialdata": {"rt": -1, "trial_type": "single-stim", "stimulus": "", "internal_node_id": "0.0-124.0-0.0", "time_elapsed": 748851, "key_press": -1, "type": "PRE_RECALL_DELAY", "trial_index": 169}, "uniqueid": "MTK1761:30H4UDGLT3P47ZW3FO1S9TSQGR9MPH", "dateTime": 1516296868547}, {"current_trial": 170, "trialdata": {"rt": -1000, "trial_type": "single-audio", "stimulus": "/static/audio/400Hz.wav", "internal_node_id": "0.0-125.0", "time_elapsed": 749352, "key_press": -1, "type": "PRE_RECALL_ALERT", "trial_index": 170}, "uniqueid": "MTK1761:30H4UDGLT3P47ZW3FO1S9TSQGR9MPH", "dateTime": 1516296869048}, {"current_trial": 171, "trialdata": {"rt": [3152, 5429, 9465, 11108, 12974, 14842, 16227, 18079, 20085, 22317, 24023, 28134], "recwords": ["suspect", "parent", "asia", "japan", "europe", "pizza", "tart", "garlic", "onion", "pepper", "baby", "mammal"], "key_times": [693, 1064, 1187, 1392, 1512, 1837, 2141, 3152, 3809, 3886, 4079, 4169, 4300, 4441, 5429, 5741, 6185, 6364, 6517, 6627, 7217, 7434, 7599, 8294, 8511, 8704, 8782, 9465, 10149, 10227, 10414, 10552, 10748, 11108, 11495, 11788, 12087, 12212, 12290, 12408, 12974, 13528, 13882, 14008, 14202, 14406, 14842, 15448, 15617, 15729, 15946, 16227, 17023, 17107, 17245, 17443, 17681, 17787, 18079, 18586, 18859, 19179, 19234, 19524, 20085, 20578, 20707, 20881, 21047, 21152, 21222, 22317, 23109, 23201, 23337, 23810, 24023, 24547, 24660, 24831, 25103, 25234, 25863, 26227, 26939, 27054, 27162, 28134], "trial_type": "free-recall", "conditions": [24, 800, "a", 24000], "internal_node_id": "0.0-126.0-0.0", "key_presses": [83, 85, 83, 80, 69, 67, 84, 13, 80, 65, 82, 69, 78, 84, 13, 65, 73, 83, 73, 65, 8, 8, 8, 8, 83, 73, 65, 13, 74, 65, 80, 65, 78, 13, 69, 85, 82, 79, 80, 69, 13, 80, 73, 90, 90, 65, 13, 84, 65, 82, 84, 13, 71, 65, 82, 76, 73, 67, 13, 79, 78, 73, 79, 78, 13, 80, 69, 80, 80, 69, 82, 13, 66, 65, 66, 89, 13, 77, 65, 77, 65, 76, 8, 8, 77, 65, 76, 13], "trial": 4, "time_elapsed": 809353, "type": "FREE_RECALL", "trial_index": 171}, "uniqueid": "MTK1761:30H4UDGLT3P47ZW3FO1S9TSQGR9MPH", "dateTime": 1516296929050}, {"current_trial": 172, "trialdata": {"rt": 2160, "trial_type": "text", "internal_node_id": "0.0-127.0", "time_elapsed": 813515, "key_press": 32, "type": "INSTRUCTIONS", "trial_index": 172}, "uniqueid": "MTK1761:30H4UDGLT3P47ZW3FO1S9TSQGR9MPH", "dateTime": 1516296933211}, {"current_trial": 173, "trialdata": {"rt": [2832, 4497, 6210, 8123, 9589, 11643], "trial_type": "math-distractor", "key_times": [2278, 2459, 2832, 4199, 4346, 4497, 5624, 6103, 6210, 7430, 7939, 8123, 9291, 9457, 9589, 11143, 11327, 11643], "responses": ["22", "11", "16", "19", "11", "11"], "num2": [8, 5, 8, 2, 3, 4, 7], "num3": [6, 5, 2, 8, 4, 3, 3], "conditions": [12, 800, "a", 12000], "internal_node_id": "0.0-128.0", "key_presses": [50, 50, 13, 49, 49, 13, 49, 54, 13, 49, 57, 13, 49, 49, 13, 49, 49, 13], "trial": 5, "time_elapsed": 827517, "type": "DISTRACTOR", "trial_index": 173, "num1": [8, 1, 6, 9, 4, 4, 4]}, "uniqueid": "MTK1761:30H4UDGLT3P47ZW3FO1S9TSQGR9MPH", "dateTime": 1516296947213}, {"current_trial": 174, "trialdata": {"rt": -1, "trial_type": "single-stim", "stimulus": "<p id=\"stim\">10</p>", "internal_node_id": "0.0-129.0-0.0", "time_elapsed": 830518, "key_press": -1, "trial_index": 174}, "uniqueid": "MTK1761:30H4UDGLT3P47ZW3FO1S9TSQGR9MPH", "dateTime": 1516296950214}, {"current_trial": 175, "trialdata": {"rt": -1, "trial_type": "single-stim", "stimulus": "<p id=\"stim\">9</p>", "internal_node_id": "0.0-129.0-1.0", "time_elapsed": 831519, "key_press": -1, "trial_index": 175}, "uniqueid": "MTK1761:30H4UDGLT3P47ZW3FO1S9TSQGR9MPH", "dateTime": 1516296951215}, {"current_trial": 176, "trialdata": {"rt": -1, "trial_type": "single-stim", "stimulus": "<p id=\"stim\">8</p>", "internal_node_id": "0.0-129.0-2.0", "time_elapsed": 832520, "key_press": -1, "trial_index": 176}, "uniqueid": "MTK1761:30H4UDGLT3P47ZW3FO1S9TSQGR9MPH", "dateTime": 1516296952216}, {"current_trial": 177, "trialdata": {"rt": -1, "trial_type": "single-stim", "stimulus": "<p id=\"stim\">7</p>", "internal_node_id": "0.0-129.0-3.0", "time_elapsed": 833521, "key_press": -1, "trial_index": 177}, "uniqueid": "MTK1761:30H4UDGLT3P47ZW3FO1S9TSQGR9MPH", "dateTime": 1516296953217}, {"current_trial": 178, "trialdata": {"rt": -1, "trial_type": "single-stim", "stimulus": "<p id=\"stim\">6</p>", "internal_node_id": "0.0-129.0-4.0", "time_elapsed": 834522, "key_press": -1, "trial_index": 178}, "uniqueid": "MTK1761:30H4UDGLT3P47ZW3FO1S9TSQGR9MPH", "dateTime": 1516296954219}, {"current_trial": 179, "trialdata": {"rt": -1, "trial_type": "single-stim", "stimulus": "<p id=\"stim\">5</p>", "internal_node_id": "0.0-129.0-5.0", "time_elapsed": 835523, "key_press": -1, "trial_index": 179}, "uniqueid": "MTK1761:30H4UDGLT3P47ZW3FO1S9TSQGR9MPH", "dateTime": 1516296955219}, {"current_trial": 180, "trialdata": {"rt": -1, "trial_type": "single-stim", "stimulus": "<p id=\"stim\">4</p>", "internal_node_id": "0.0-129.0-6.0", "time_elapsed": 836524, "key_press": -1, "trial_index": 180}, "uniqueid": "MTK1761:30H4UDGLT3P47ZW3FO1S9TSQGR9MPH", "dateTime": 1516296956220}, {"current_trial": 181, "trialdata": {"rt": -1, "trial_type": "single-stim", "stimulus": "<p id=\"stim\">3</p>", "internal_node_id": "0.0-129.0-7.0", "time_elapsed": 837525, "key_press": -1, "trial_index": 181}, "uniqueid": "MTK1761:30H4UDGLT3P47ZW3FO1S9TSQGR9MPH", "dateTime": 1516296957221}, {"current_trial": 182, "trialdata": {"rt": -1, "trial_type": "single-stim", "stimulus": "<p id=\"stim\">2</p>", "internal_node_id": "0.0-129.0-8.0", "time_elapsed": 838526, "key_press": -1, "trial_index": 182}, "uniqueid": "MTK1761:30H4UDGLT3P47ZW3FO1S9TSQGR9MPH", "dateTime": 1516296958222}, {"current_trial": 183, "trialdata": {"rt": -1, "trial_type": "single-stim", "stimulus": "<p id=\"stim\">1</p>", "internal_node_id": "0.0-129.0-9.0", "time_elapsed": 839527, "key_press": -1, "trial_index": 183}, "uniqueid": "MTK1761:30H4UDGLT3P47ZW3FO1S9TSQGR9MPH", "dateTime": 1516296959223}, {"current_trial": 184, "trialdata": {"rt": -1, "trial_type": "single-stim", "stimulus": "<p id=\"stim\">+</p>", "internal_node_id": "0.0-130.0-0.0", "time_elapsed": 841028, "key_press": -1, "type": "FIXATION", "trial_index": 184}, "uniqueid": "MTK1761:30H4UDGLT3P47ZW3FO1S9TSQGR9MPH", "dateTime": 1516296960724}, {"current_trial": 185, "trialdata": {"rt": -1000, "trial_type": "single-audio", "word": "thread", "stimulus": "/static/audio/wordpool/THREAD.wav", "conditions": [12, 800, "a", 12000], "internal_node_id": "0.0-131.0", "trial": 5, "time_elapsed": 842885, "serialpos": 0, "key_press": -1, "wordID": 1459, "type": "PRES_AUD", "trial_index": 185}, "uniqueid": "MTK1761:30H4UDGLT3P47ZW3FO1S9TSQGR9MPH", "dateTime": 1516296962581}, {"current_trial": 186, "trialdata": {"rt": -1000, "trial_type": "single-audio", "word": "supper", "stimulus": "/static/audio/wordpool/SUPPER.wav", "conditions": [12, 800, "a", 12000], "internal_node_id": "0.0-132.0", "trial": 5, "time_elapsed": 844746, "serialpos": 1, "key_press": -1, "wordID": 1410, "type": "PRES_AUD", "trial_index": 186}, "uniqueid": "MTK1761:30H4UDGLT3P47ZW3FO1S9TSQGR9MPH", "dateTime": 1516296964442}, {"current_trial": 187, "trialdata": {"rt": -1000, "trial_type": "single-audio", "word": "branch", "stimulus": "/static/audio/wordpool/BRANCH.wav", "conditions": [12, 800, "a", 12000], "internal_node_id": "0.0-133.0", "trial": 5, "time_elapsed": 846585, "serialpos": 2, "key_press": -1, "wordID": 167, "type": "PRES_AUD", "trial_index": 187}, "uniqueid": "MTK1761:30H4UDGLT3P47ZW3FO1S9TSQGR9MPH", "dateTime": 1516296966281}, {"current_trial": 188, "trialdata": {"rt": -1000, "trial_type": "single-audio", "word": "bank", "stimulus": "/static/audio/wordpool/BANK.wav", "conditions": [12, 800, "a", 12000], "internal_node_id": "0.0-134.0", "trial": 5, "time_elapsed": 848260, "serialpos": 3, "key_press": -1, "wordID": 82, "type": "PRES_AUD", "trial_index": 188}, "uniqueid": "MTK1761:30H4UDGLT3P47ZW3FO1S9TSQGR9MPH", "dateTime": 1516296967956}, {"current_trial": 189, "trialdata": {"rt": -1000, "trial_type": "single-audio", "word": "couch", "stimulus": "/static/audio/wordpool/COUCH.wav", "conditions": [12, 800, "a", 12000], "internal_node_id": "0.0-135.0", "trial": 5, "time_elapsed": 850184, "serialpos": 4, "key_press": -1, "wordID": 385, "type": "PRES_AUD", "trial_index": 189}, "uniqueid": "MTK1761:30H4UDGLT3P47ZW3FO1S9TSQGR9MPH", "dateTime": 1516296969880}, {"current_trial": 190, "trialdata": {"rt": -1000, "trial_type": "single-audio", "word": "receipt", "stimulus": "/static/audio/wordpool/RECEIPT.wav", "conditions": [12, 800, "a", 12000], "internal_node_id": "0.0-136.0", "trial": 5, "time_elapsed": 851833, "serialpos": 5, "key_press": -1, "wordID": 1172, "type": "PRES_AUD", "trial_index": 190}, "uniqueid": "MTK1761:30H4UDGLT3P47ZW3FO1S9TSQGR9MPH", "dateTime": 1516296971529}, {"current_trial": 191, "trialdata": {"rt": -1000, "trial_type": "single-audio", "word": "banker", "stimulus": "/static/audio/wordpool/BANKER.wav", "conditions": [12, 800, "a", 12000], "internal_node_id": "0.0-137.0", "trial": 5, "time_elapsed": 853753, "serialpos": 6, "key_press": -1, "wordID": 83, "type": "PRES_AUD", "trial_index": 191}, "uniqueid": "MTK1761:30H4UDGLT3P47ZW3FO1S9TSQGR9MPH", "dateTime": 1516296973449}, {"current_trial": 192, "trialdata": {"rt": -1000, "trial_type": "single-audio", "word": "eyelash", "stimulus": "/static/audio/wordpool/EYELASH.wav", "conditions": [12, 800, "a", 12000], "internal_node_id": "0.0-138.0", "trial": 5, "time_elapsed": 855482, "serialpos": 7, "key_press": -1, "wordID": 545, "type": "PRES_AUD", "trial_index": 192}, "uniqueid": "MTK1761:30H4UDGLT3P47ZW3FO1S9TSQGR9MPH", "dateTime": 1516296975178}, {"current_trial": 193, "trialdata": {"rt": -1000, "trial_type": "single-audio", "word": "banquet", "stimulus": "/static/audio/wordpool/BANQUET.wav", "conditions": [12, 800, "a", 12000], "internal_node_id": "0.0-139.0", "trial": 5, "time_elapsed": 857227, "serialpos": 8, "key_press": -1, "wordID": 85, "type": "PRES_AUD", "trial_index": 193}, "uniqueid": "MTK1761:30H4UDGLT3P47ZW3FO1S9TSQGR9MPH", "dateTime": 1516296976923}, {"current_trial": 194, "trialdata": {"rt": -1000, "trial_type": "single-audio", "word": "cashier", "stimulus": "/static/audio/wordpool/CASHIER.wav", "conditions": [12, 800, "a", 12000], "internal_node_id": "0.0-140.0", "trial": 5, "time_elapsed": 858905, "serialpos": 9, "key_press": -1, "wordID": 253, "type": "PRES_AUD", "trial_index": 194}, "uniqueid": "MTK1761:30H4UDGLT3P47ZW3FO1S9TSQGR9MPH", "dateTime": 1516296978601}, {"current_trial": 195, "trialdata": {"rt": -1000, "trial_type": "single-audio", "word": "nightgown", "stimulus": "/static/audio/wordpool/NIGHTGOWN.wav", "conditions": [12, 800, "a", 12000], "internal_node_id": "0.0-141.0", "trial": 5, "time_elapsed": 860795, "serialpos": 10, "key_press": -1, "wordID": 952, "type": "PRES_AUD", "trial_index": 195}, "uniqueid": "MTK1761:30H4UDGLT3P47ZW3FO1S9TSQGR9MPH", "dateTime": 1516296980491}, {"current_trial": 196, "trialdata": {"rt": -1000, "trial_type": "single-audio", "word": "shorts", "stimulus": "/static/audio/wordpool/SHORTS.wav", "conditions": [12, 800, "a", 12000], "internal_node_id": "0.0-142.0", "trial": 5, "time_elapsed": 862543, "serialpos": 11, "key_press": -1, "wordID": 1292, "type": "PRES_AUD", "trial_index": 196}, "uniqueid": "MTK1761:30H4UDGLT3P47ZW3FO1S9TSQGR9MPH", "dateTime": 1516296982239}, {"current_trial": 197, "trialdata": {"rt": -1, "trial_type": "single-stim", "stimulus": "", "internal_node_id": "0.0-143.0-0.0", "time_elapsed": 863774, "key_press": -1, "type": "PRE_RECALL_DELAY", "trial_index": 197}, "uniqueid": "MTK1761:30H4UDGLT3P47ZW3FO1S9TSQGR9MPH", "dateTime": 1516296983470}, {"current_trial": 198, "trialdata": {"rt": -1000, "trial_type": "single-audio", "stimulus": "/static/audio/400Hz.wav", "internal_node_id": "0.0-144.0", "time_elapsed": 864274, "key_press": -1, "type": "PRE_RECALL_ALERT", "trial_index": 198}, "uniqueid": "MTK1761:30H4UDGLT3P47ZW3FO1S9TSQGR9MPH", "dateTime": 1516296983971}, {"current_trial": 199, "trialdata": {"rt": [3035, 9765, 14217, 16309, 17721, 24750, 29679], "recwords": ["shorts", "nightgown", "cashier", "banker", "bank", "receipt", "banquet"], "key_times": [643, 806, 1089, 1178, 1427, 1525, 3035, 3816, 3964, 4128, 4200, 4678, 4778, 4882, 5059, 6598, 6796, 6965, 7153, 7823, 8432, 8566, 8668, 8807, 9765, 10287, 10392, 10975, 11108, 11571, 12035, 12436, 12504, 12567, 14217, 14988, 15109, 15238, 15402, 15463, 15542, 16309, 16958, 17073, 17238, 17354, 17721, 18084, 18150, 18463, 19273, 19958, 20315, 20539, 22000, 23212, 23455, 23582, 24750, 26093, 26157, 26318, 26758, 27129, 27267, 27506, 29679], "trial_type": "free-recall", "conditions": [12, 800, "a", 12000], "internal_node_id": "0.0-145.0-0.0", "key_presses": [83, 72, 79, 82, 84, 83, 13, 78, 73, 71, 72, 71, 79, 87, 78, 8, 8, 8, 8, 84, 71, 79, 87, 78, 13, 67, 65, 83, 72, 69, 8, 73, 69, 82, 13, 66, 65, 78, 75, 69, 82, 13, 66, 65, 78, 75, 13, 82, 69, 67, 73, 69, 8, 8, 69, 73, 80, 84, 13, 66, 65, 78, 81, 85, 69, 84, 13], "trial": 5, "time_elapsed": 924276, "type": "FREE_RECALL", "trial_index": 199}, "uniqueid": "MTK1761:30H4UDGLT3P47ZW3FO1S9TSQGR9MPH", "dateTime": 1516297043974}, {"current_trial": 200, "trialdata": {"rt": 1149, "trial_type": "text", "internal_node_id": "0.0-146.0", "time_elapsed": 927428, "key_press": 32, "type": "INSTRUCTIONS", "trial_index": 200}, "uniqueid": "MTK1761:30H4UDGLT3P47ZW3FO1S9TSQGR9MPH", "dateTime": 1516297047124}, {"current_trial": 201, "trialdata": {"rt": [2941, 4869, 6925, 8989, 11103, 11265, 13673, 15549, 17932, 19398, 21434], "trial_type": "math-distractor", "key_times": [1478, 2052, 2941, 4741, 4869, 6625, 6731, 6925, 8440, 8499, 8989, 10969, 11103, 11265, 13504, 13570, 13673, 15001, 15431, 15549, 17322, 17509, 17932, 19183, 19253, 19398, 21148, 21434], "responses": ["25", "6", "21", "12", "8", "", "12", "15", "22", "12", "5"], "num2": [8, 1, 8, 3, 3, 4, 7, 8, 8, 8, 1, 3], "num3": [8, 4, 9, 7, 3, 6, 2, 1, 5, 2, 3, 7], "conditions": [24, 800, "a", 24000], "internal_node_id": "0.0-147.0", "key_presses": [50, 53, 13, 54, 13, 50, 49, 13, 49, 50, 13, 56, 13, 13, 49, 50, 13, 49, 53, 13, 50, 50, 13, 49, 50, 13, 53, 13], "trial": 6, "time_elapsed": 953430, "type": "DISTRACTOR", "trial_index": 201, "num1": [9, 1, 4, 2, 2, 6, 3, 6, 9, 2, 1, 2]}, "uniqueid": "MTK1761:30H4UDGLT3P47ZW3FO1S9TSQGR9MPH", "dateTime": 1516297073126}, {"current_trial": 202, "trialdata": {"rt": -1, "trial_type": "single-stim", "stimulus": "<p id=\"stim\">10</p>", "internal_node_id": "0.0-148.0-0.0", "time_elapsed": 956431, "key_press": -1, "trial_index": 202}, "uniqueid": "MTK1761:30H4UDGLT3P47ZW3FO1S9TSQGR9MPH", "dateTime": 1516297076127}, {"current_trial": 203, "trialdata": {"rt": -1, "trial_type": "single-stim", "stimulus": "<p id=\"stim\">9</p>", "internal_node_id": "0.0-148.0-1.0", "time_elapsed": 957432, "key_press": -1, "trial_index": 203}, "uniqueid": "MTK1761:30H4UDGLT3P47ZW3FO1S9TSQGR9MPH", "dateTime": 1516297077128}, {"current_trial": 204, "trialdata": {"rt": -1, "trial_type": "single-stim", "stimulus": "<p id=\"stim\">8</p>", "internal_node_id": "0.0-148.0-2.0", "time_elapsed": 958433, "key_press": -1, "trial_index": 204}, "uniqueid": "MTK1761:30H4UDGLT3P47ZW3FO1S9TSQGR9MPH", "dateTime": 1516297078129}, {"current_trial": 205, "trialdata": {"rt": -1, "trial_type": "single-stim", "stimulus": "<p id=\"stim\">7</p>", "internal_node_id": "0.0-148.0-3.0", "time_elapsed": 959434, "key_press": -1, "trial_index": 205}, "uniqueid": "MTK1761:30H4UDGLT3P47ZW3FO1S9TSQGR9MPH", "dateTime": 1516297079130}, {"current_trial": 206, "trialdata": {"rt": -1, "trial_type": "single-stim", "stimulus": "<p id=\"stim\">6</p>", "internal_node_id": "0.0-148.0-4.0", "time_elapsed": 960435, "key_press": -1, "trial_index": 206}, "uniqueid": "MTK1761:30H4UDGLT3P47ZW3FO1S9TSQGR9MPH", "dateTime": 1516297080132}, {"current_trial": 207, "trialdata": {"rt": -1, "trial_type": "single-stim", "stimulus": "<p id=\"stim\">5</p>", "internal_node_id": "0.0-148.0-5.0", "time_elapsed": 961436, "key_press": -1, "trial_index": 207}, "uniqueid": "MTK1761:30H4UDGLT3P47ZW3FO1S9TSQGR9MPH", "dateTime": 1516297081132}, {"current_trial": 208, "trialdata": {"rt": -1, "trial_type": "single-stim", "stimulus": "<p id=\"stim\">4</p>", "internal_node_id": "0.0-148.0-6.0", "time_elapsed": 962437, "key_press": -1, "trial_index": 208}, "uniqueid": "MTK1761:30H4UDGLT3P47ZW3FO1S9TSQGR9MPH", "dateTime": 1516297082133}, {"current_trial": 209, "trialdata": {"rt": -1, "trial_type": "single-stim", "stimulus": "<p id=\"stim\">3</p>", "internal_node_id": "0.0-148.0-7.0", "time_elapsed": 963438, "key_press": -1, "trial_index": 209}, "uniqueid": "MTK1761:30H4UDGLT3P47ZW3FO1S9TSQGR9MPH", "dateTime": 1516297083134}, {"current_trial": 210, "trialdata": {"rt": -1, "trial_type": "single-stim", "stimulus": "<p id=\"stim\">2</p>", "internal_node_id": "0.0-148.0-8.0", "time_elapsed": 964439, "key_press": -1, "trial_index": 210}, "uniqueid": "MTK1761:30H4UDGLT3P47ZW3FO1S9TSQGR9MPH", "dateTime": 1516297084135}, {"current_trial": 211, "trialdata": {"rt": -1, "trial_type": "single-stim", "stimulus": "<p id=\"stim\">1</p>", "internal_node_id": "0.0-148.0-9.0", "time_elapsed": 965440, "key_press": -1, "trial_index": 211}, "uniqueid": "MTK1761:30H4UDGLT3P47ZW3FO1S9TSQGR9MPH", "dateTime": 1516297085136}, {"current_trial": 212, "trialdata": {"rt": -1, "trial_type": "single-stim", "stimulus": "<p id=\"stim\">+</p>", "internal_node_id": "0.0-149.0-0.0", "time_elapsed": 966941, "key_press": -1, "type": "FIXATION", "trial_index": 212}, "uniqueid": "MTK1761:30H4UDGLT3P47ZW3FO1S9TSQGR9MPH", "dateTime": 1516297086637}, {"current_trial": 213, "trialdata": {"rt": -1000, "trial_type": "single-audio", "word": "butcher", "stimulus": "/static/audio/wordpool/BUTCHER.wav", "conditions": [24, 800, "a", 24000], "internal_node_id": "0.0-150.0", "trial": 6, "time_elapsed": 968910, "serialpos": 0, "key_press": -1, "wordID": 202, "type": "PRES_AUD", "trial_index": 213}, "uniqueid": "MTK1761:30H4UDGLT3P47ZW3FO1S9TSQGR9MPH", "dateTime": 1516297088607}, {"current_trial": 214, "trialdata": {"rt": -1000, "trial_type": "single-audio", "word": "kidney", "stimulus": "/static/audio/wordpool/KIDNEY.wav", "conditions": [24, 800, "a", 24000], "internal_node_id": "0.0-151.0", "trial": 6, "time_elapsed": 970850, "serialpos": 1, "key_press": -1, "wordID": 775, "type": "PRES_AUD", "trial_index": 214}, "uniqueid": "MTK1761:30H4UDGLT3P47ZW3FO1S9TSQGR9MPH", "dateTime": 1516297090546}, {"current_trial": 215, "trialdata": {"rt": -1000, "trial_type": "single-audio", "word": "teacher", "stimulus": "/static/audio/wordpool/TEACHER.wav", "conditions": [24, 800, "a", 24000], "internal_node_id": "0.0-152.0", "trial": 6, "time_elapsed": 972543, "serialpos": 2, "key_press": -1, "wordID": 1439, "type": "PRES_AUD", "trial_index": 215}, "uniqueid": "MTK1761:30H4UDGLT3P47ZW3FO1S9TSQGR9MPH", "dateTime": 1516297092239}, {"current_trial": 216, "trialdata": {"rt": -1000, "trial_type": "single-audio", "word": "boyfriend", "stimulus": "/static/audio/wordpool/BOYFRIEND.wav", "conditions": [24, 800, "a", 24000], "internal_node_id": "0.0-153.0", "trial": 6, "time_elapsed": 974222, "serialpos": 3, "key_press": -1, "wordID": 161, "type": "PRES_AUD", "trial_index": 216}, "uniqueid": "MTK1761:30H4UDGLT3P47ZW3FO1S9TSQGR9MPH", "dateTime": 1516297093918}, {"current_trial": 217, "trialdata": {"rt": -1000, "trial_type": "single-audio", "word": "lover", "stimulus": "/static/audio/wordpool/LOVER.wav", "conditions": [24, 800, "a", 24000], "internal_node_id": "0.0-154.0", "trial": 6, "time_elapsed": 975873, "serialpos": 4, "key_press": -1, "wordID": 845, "type": "PRES_AUD", "trial_index": 217}, "uniqueid": "MTK1761:30H4UDGLT3P47ZW3FO1S9TSQGR9MPH", "dateTime": 1516297095569}, {"current_trial": 218, "trialdata": {"rt": -1000, "trial_type": "single-audio", "word": "pliers", "stimulus": "/static/audio/wordpool/PLIERS.wav", "conditions": [24, 800, "a", 24000], "internal_node_id": "0.0-155.0", "trial": 6, "time_elapsed": 977860, "serialpos": 5, "key_press": -1, "wordID": 1088, "type": "PRES_AUD", "trial_index": 218}, "uniqueid": "MTK1761:30H4UDGLT3P47ZW3FO1S9TSQGR9MPH", "dateTime": 1516297097556}, {"current_trial": 219, "trialdata": {"rt": -1000, "trial_type": "single-audio", "word": "cashew", "stimulus": "/static/audio/wordpool/CASHEW.wav", "conditions": [24, 800, "a", 24000], "internal_node_id": "0.0-156.0", "trial": 6, "time_elapsed": 979472, "serialpos": 6, "key_press": -1, "wordID": 252, "type": "PRES_AUD", "trial_index": 219}, "uniqueid": "MTK1761:30H4UDGLT3P47ZW3FO1S9TSQGR9MPH", "dateTime": 1516297099168}, {"current_trial": 220, "trialdata": {"rt": -1000, "trial_type": "single-audio", "word": "scarf", "stimulus": "/static/audio/wordpool/SCARF.wav", "conditions": [24, 800, "a", 24000], "internal_node_id": "0.0-157.0", "trial": 6, "time_elapsed": 981302, "serialpos": 7, "key_press": -1, "wordID": 1245, "type": "PRES_AUD", "trial_index": 220}, "uniqueid": "MTK1761:30H4UDGLT3P47ZW3FO1S9TSQGR9MPH", "dateTime": 1516297100998}, {"current_trial": 221, "trialdata": {"rt": -1000, "trial_type": "single-audio", "word": "bureau", "stimulus": "/static/audio/wordpool/BUREAU.wav", "conditions": [24, 800, "a", 24000], "internal_node_id": "0.0-158.0", "trial": 6, "time_elapsed": 983152, "serialpos": 8, "key_press": -1, "wordID": 198, "type": "PRES_AUD", "trial_index": 221}, "uniqueid": "MTK1761:30H4UDGLT3P47ZW3FO1S9TSQGR9MPH", "dateTime": 1516297102848}, {"current_trial": 222, "trialdata": {"rt": -1000, "trial_type": "single-audio", "word": "report", "stimulus": "/static/audio/wordpool/REPORT.wav", "conditions": [24, 800, "a", 24000], "internal_node_id": "0.0-159.0", "trial": 6, "time_elapsed": 985029, "serialpos": 9, "key_press": -1, "wordID": 1183, "type": "PRES_AUD", "trial_index": 222}, "uniqueid": "MTK1761:30H4UDGLT3P47ZW3FO1S9TSQGR9MPH", "dateTime": 1516297104725}, {"current_trial": 223, "trialdata": {"rt": -1000, "trial_type": "single-audio", "word": "keeper", "stimulus": "/static/audio/wordpool/KEEPER.wav", "conditions": [24, 800, "a", 24000], "internal_node_id": "0.0-160.0", "trial": 6, "time_elapsed": 986881, "serialpos": 10, "key_press": -1, "wordID": 768, "type": "PRES_AUD", "trial_index": 223}, "uniqueid": "MTK1761:30H4UDGLT3P47ZW3FO1S9TSQGR9MPH", "dateTime": 1516297106577}, {"current_trial": 224, "trialdata": {"rt": -1000, "trial_type": "single-audio", "word": "tweezers", "stimulus": "/static/audio/wordpool/TWEEZERS.wav", "conditions": [24, 800, "a", 24000], "internal_node_id": "0.0-161.0", "trial": 6, "time_elapsed": 988564, "serialpos": 11, "key_press": -1, "wordID": 1525, "type": "PRES_AUD", "trial_index": 224}, "uniqueid": "MTK1761:30H4UDGLT3P47ZW3FO1S9TSQGR9MPH", "dateTime": 1516297108260}, {"current_trial": 225, "trialdata": {"rt": -1000, "trial_type": "single-audio", "word": "candy", "stimulus": "/static/audio/wordpool/CANDY.wav", "conditions": [24, 800, "a", 24000], "internal_node_id": "0.0-162.0", "trial": 6, "time_elapsed": 990558, "serialpos": 12, "key_press": -1, "wordID": 229, "type": "PRES_AUD", "trial_index": 225}, "uniqueid": "MTK1761:30H4UDGLT3P47ZW3FO1S9TSQGR9MPH", "dateTime": 1516297110254}, {"current_trial": 226, "trialdata": {"rt": -1000, "trial_type": "single-audio", "word": "outfit", "stimulus": "/static/audio/wordpool/OUTFIT.wav", "conditions": [24, 800, "a", 24000], "internal_node_id": "0.0-163.0", "trial": 6, "time_elapsed": 992233, "serialpos": 13, "key_press": -1, "wordID": 987, "type": "PRES_AUD", "trial_index": 226}, "uniqueid": "MTK1761:30H4UDGLT3P47ZW3FO1S9TSQGR9MPH", "dateTime": 1516297111929}, {"current_trial": 227, "trialdata": {"rt": -1000, "trial_type": "single-audio", "word": "harp", "stimulus": "/static/audio/wordpool/HARP.wav", "conditions": [24, 800, "a", 24000], "internal_node_id": "0.0-164.0", "trial": 6, "time_elapsed": 994158, "serialpos": 14, "key_press": -1, "wordID": 688, "type": "PRES_AUD", "trial_index": 227}, "uniqueid": "MTK1761:30H4UDGLT3P47ZW3FO1S9TSQGR9MPH", "dateTime": 1516297113854}, {"current_trial": 228, "trialdata": {"rt": -1000, "trial_type": "single-audio", "word": "church", "stimulus": "/static/audio/wordpool/CHURCH.wav", "conditions": [24, 800, "a", 24000], "internal_node_id": "0.0-165.0", "trial": 6, "time_elapsed": 996074, "serialpos": 15, "key_press": -1, "wordID": 306, "type": "PRES_AUD", "trial_index": 228}, "uniqueid": "MTK1761:30H4UDGLT3P47ZW3FO1S9TSQGR9MPH", "dateTime": 1516297115770}, {"current_trial": 229, "trialdata": {"rt": -1000, "trial_type": "single-audio", "word": "slope", "stimulus": "/static/audio/wordpool/SLOPE.wav", "conditions": [24, 800, "a", 24000], "internal_node_id": "0.0-166.0", "trial": 6, "time_elapsed": 997915, "serialpos": 16, "key_press": -1, "wordID": 1327, "type": "PRES_AUD", "trial_index": 229}, "uniqueid": "MTK1761:30H4UDGLT3P47ZW3FO1S9TSQGR9MPH", "dateTime": 1516297117611}, {"current_trial": 230, "trialdata": {"rt": -1000, "trial_type": "single-audio", "word": "poison", "stimulus": "/static/audio/wordpool/POISON.wav", "conditions": [24, 800, "a", 24000], "internal_node_id": "0.0-167.0", "trial": 6, "time_elapsed": 999752, "serialpos": 17, "key_press": -1, "wordID": 1095, "type": "PRES_AUD", "trial_index": 230}, "uniqueid": "MTK1761:30H4UDGLT3P47ZW3FO1S9TSQGR9MPH", "dateTime": 1516297119448}, {"current_trial": 231, "trialdata": {"rt": -1000, "trial_type": "single-audio", "word": "waitress", "stimulus": "/static/audio/wordpool/WAITRESS.wav", "conditions": [24, 800, "a", 24000], "internal_node_id": "0.0-168.0", "trial": 6, "time_elapsed": 1001355, "serialpos": 18, "key_press": -1, "wordID": 1580, "type": "PRES_AUD", "trial_index": 231}, "uniqueid": "MTK1761:30H4UDGLT3P47ZW3FO1S9TSQGR9MPH", "dateTime": 1516297121051}, {"current_trial": 232, "trialdata": {"rt": -1000, "trial_type": "single-audio", "word": "rooster", "stimulus": "/static/audio/wordpool/ROOSTER.wav", "conditions": [24, 800, "a", 24000], "internal_node_id": "0.0-169.0", "trial": 6, "time_elapsed": 1003206, "serialpos": 19, "key_press": -1, "wordID": 1208, "type": "PRES_AUD", "trial_index": 232}, "uniqueid": "MTK1761:30H4UDGLT3P47ZW3FO1S9TSQGR9MPH", "dateTime": 1516297122902}, {"current_trial": 233, "trialdata": {"rt": -1000, "trial_type": "single-audio", "word": "parrot", "stimulus": "/static/audio/wordpool/PARROT.wav", "conditions": [24, 800, "a", 24000], "internal_node_id": "0.0-170.0", "trial": 6, "time_elapsed": 1005030, "serialpos": 20, "key_press": -1, "wordID": 1014, "type": "PRES_AUD", "trial_index": 233}, "uniqueid": "MTK1761:30H4UDGLT3P47ZW3FO1S9TSQGR9MPH", "dateTime": 1516297124726}, {"current_trial": 234, "trialdata": {"rt": -1000, "trial_type": "single-audio", "word": "tuba", "stimulus": "/static/audio/wordpool/TUBA.wav", "conditions": [24, 800, "a", 24000], "internal_node_id": "0.0-171.0", "trial": 6, "time_elapsed": 1006963, "serialpos": 21, "key_press": -1, "wordID": 1514, "type": "PRES_AUD", "trial_index": 234}, "uniqueid": "MTK1761:30H4UDGLT3P47ZW3FO1S9TSQGR9MPH", "dateTime": 1516297126659}, {"current_trial": 235, "trialdata": {"rt": -1000, "trial_type": "single-audio", "word": "fox", "stimulus": "/static/audio/wordpool/FOX.wav", "conditions": [24, 800, "a", 24000], "internal_node_id": "0.0-172.0", "trial": 6, "time_elapsed": 1008680, "serialpos": 22, "key_press": -1, "wordID": 597, "type": "PRES_AUD", "trial_index": 235}, "uniqueid": "MTK1761:30H4UDGLT3P47ZW3FO1S9TSQGR9MPH", "dateTime": 1516297128376}, {"current_trial": 236, "trialdata": {"rt": -1000, "trial_type": "single-audio", "word": "toaster", "stimulus": "/static/audio/wordpool/TOASTER.wav", "conditions": [24, 800, "a", 24000], "internal_node_id": "0.0-173.0", "trial": 6, "time_elapsed": 1010423, "serialpos": 23, "key_press": -1, "wordID": 1471, "type": "PRES_AUD", "trial_index": 236}, "uniqueid": "MTK1761:30H4UDGLT3P47ZW3FO1S9TSQGR9MPH", "dateTime": 1516297130119}, {"current_trial": 237, "trialdata": {"rt": -1, "trial_type": "single-stim", "stimulus": "", "internal_node_id": "0.0-174.0-0.0", "time_elapsed": 1011628, "key_press": -1, "type": "PRE_RECALL_DELAY", "trial_index": 237}, "uniqueid": "MTK1761:30H4UDGLT3P47ZW3FO1S9TSQGR9MPH", "dateTime": 1516297131324}, {"current_trial": 238, "trialdata": {"rt": -1000, "trial_type": "single-audio", "stimulus": "/static/audio/400Hz.wav", "internal_node_id": "0.0-175.0", "time_elapsed": 1012130, "key_press": -1, "type": "PRE_RECALL_ALERT", "trial_index": 238}, "uniqueid": "MTK1761:30H4UDGLT3P47ZW3FO1S9TSQGR9MPH", "dateTime": 1516297131826}, {"current_trial": 239, "trialdata": {"rt": [3417, 4887, 7367, 9673, 14013, 16586, 25805, 32786, 38943, 42075], "recwords": ["toaster", "fox", "parrot", "rooster", "tuba", "outfit", "bearaue", "teacher", "boyfriend", "lover"], "key_times": [488, 723, 879, 986, 1301, 1413, 1556, 3417, 3716, 3883, 4156, 4887, 5333, 5407, 5554, 6135, 6288, 6509, 7367, 7868, 8109, 8254, 8408, 8868, 8962, 9100, 9673, 12523, 12654, 12844, 12945, 14013, 15011, 15123, 15228, 15706, 15825, 15983, 16586, 17848, 18226, 18415, 18793, 18944, 19223, 19388, 19492, 23470, 25805, 29136, 29248, 29468, 29628, 29811, 29881, 30126, 30338, 30516, 30684, 30848, 30959, 31688, 31793, 31856, 32786, 33395, 33688, 33883, 34230, 34816, 35394, 35563, 35720, 36383, 36400, 37069, 37569, 37975, 38117, 38219, 38399, 38487, 38943, 39307, 39510, 39610, 39770, 39868, 42075], "trial_type": "free-recall", "conditions": [24, 800, "a", 24000], "internal_node_id": "0.0-176.0-0.0", "key_presses": [84, 79, 65, 83, 84, 69, 82, 13, 70, 79, 88, 13, 80, 65, 82, 82, 79, 84, 13, 82, 79, 79, 83, 84, 69, 82, 13, 84, 85, 66, 65, 13, 79, 85, 84, 70, 73, 84, 13, 66, 69, 65, 8, 82, 65, 85, 69, 65, 13, 84, 69, 67, 72, 69, 82, 8, 8, 8, 8, 65, 67, 72, 69, 82, 13, 66, 79, 84, 70, 82, 8, 8, 8, 89, 85, 8, 70, 82, 73, 69, 78, 68, 13, 76, 79, 86, 69, 82, 13], "trial": 6, "time_elapsed": 1072131, "type": "FREE_RECALL", "trial_index": 239}, "uniqueid": "MTK1761:30H4UDGLT3P47ZW3FO1S9TSQGR9MPH", "dateTime": 1516297191829}, {"current_trial": 240, "trialdata": {"rt": 1690, "trial_type": "text", "internal_node_id": "0.0-177.0", "time_elapsed": 1075824, "key_press": 32, "type": "INSTRUCTIONS", "trial_index": 240}, "uniqueid": "MTK1761:30H4UDGLT3P47ZW3FO1S9TSQGR9MPH", "dateTime": 1516297195520}, {"current_trial": 241, "trialdata": {"rt": [2779, 5047, 7083, 9161, 11291, 13103, 15302, 17370, 18764, 21885], "trial_type": "math-distractor", "key_times": [2303, 2779, 4288, 4818, 5047, 6394, 6937, 7083, 8847, 8993, 9161, 10432, 11092, 11291, 12504, 12920, 13103, 14956, 15169, 15302, 16802, 17242, 17370, 18478, 18598, 18764, 20772, 21150, 21885, 23550], "responses": ["9", "18", "19", "22", "19", "15", "23", "16", "12", "23"], "num2": [3, 6, 4, 4, 6, 4, 9, 4, 6, 9, 3], "num3": [2, 4, 7, 9, 7, 5, 9, 4, 1, 8, 5], "conditions": [24, 1600, "a", 24000], "internal_node_id": "0.0-178.0", "key_presses": [57, 13, 49, 56, 13, 49, 57, 13, 50, 50, 13, 49, 57, 13, 49, 53, 13, 50, 51, 13, 49, 54, 13, 49, 50, 13, 50, 51, 13, 49], "trial": 7, "time_e