{"assignmentId": "3YDTZAI2WYNLMHOVOIQ6M3TSQGR410", "workerId": "MTK1447", "questiondata": {"origin": "United States", "strat-rehearsal": "79", "marital": "Single", "education": "Bachelor's degree", "ethnicity": "Not Hispanic", "color_depth": 24, "distracted": "No", "wrote-notes": "Yes", "strat-other": "", "screen_width": 1600, "avail_screen_width": 1600, "avail_screen_height": 860, "strat-image": "24", "language": "English", "gender": "Female", "age": "33", "gender_other": "", "race": ["White"], "strat-categorize": "65", "pixel_depth": 24, "strat-spatial": "2", "strat-story": "5", "race_other": "", "screen_height": 900}, "bonus": 0, "hitId": "3UAU495MIIZ3CNRHJOAXMJ8A14ROU4", "counterbalance": 2373, "useragent": "Mozilla/5.0 (Windows NT 6.2; Win64; x64) AppleWebKit/537.36 (KHTML, like Gecko) Chrome/63.0.3239.132 Safari/537.36", "eventdata": [{"eventtype": "initialized", "interval": 0, "value": null, "timestamp": 1515885885820}, {"eventtype": "window_resize", "interval": 0, "value": [1600, 853], "timestamp": 1515885885820}, {"eventtype": "focus", "interval": 127080, "value": "off", "timestamp": 1515886012900}, {"eventtype": "focus", "interval": 18624, "value": "on", "timestamp": 1515886031524}, {"eventtype": "focus", "interval": 802970, "value": "off", "timestamp": 1515886834494}, {"eventtype": "focus", "interval": 9383, "value": "on", "timestamp": 1515886843877}, {"eventtype": "focus", "interval": 288288, "value": "off", "timestamp": 1515887132165}, {"eventtype": "focus", "interval": 45884, "value": "on", "timestamp": 1515887178049}, {"eventtype": "focus", "interval": 815305, "value": "off", "timestamp": 1515887993354}, {"eventtype": "focus", "interval": 7188, "value": "on", "timestamp": 1515888000542}, {"eventtype": "focus", "interval": 705473, "value": "off", "timestamp": 1515888706015}, {"eventtype": "focus", "interval": 9521, "value": "on", "timestamp": 1515888715536}], "data": [{"current_trial": 0, "trialdata": {"rt": 4881, "trial_type": "text", "internal_node_id": "0.0-0.0", "time_elapsed": 4886, "key_press": 74, "type": "INSTRUCTIONS", "trial_index": 0}, "uniqueid": "MTK1447:3YDTZAI2WYNLMHOVOIQ6M3TSQGR410", "dateTime": 1515885906194}, {"current_trial": 1, "trialdata": {"rt": 45087, "trial_type": "text", "internal_node_id": "0.0-1.0", "time_elapsed": 49978, "key_press": 83, "type": "INSTRUCTIONS", "trial_index": 1}, "uniqueid": "MTK1447:3YDTZAI2WYNLMHOVOIQ6M3TSQGR410", "dateTime": 1515885951284}, {"current_trial": 2, "trialdata": {"rt": [13928], "trial_type": "audio-test", "responses": ["ocean"], "internal_node_id": "0.0-2.0", "time_elapsed": 63934, "type": "AUDIO_TEST", "trial_index": 2}, "uniqueid": "MTK1447:3YDTZAI2WYNLMHOVOIQ6M3TSQGR410", "dateTime": 1515885965240}, {"current_trial": 3, "trialdata": {"rt": [8161], "trial_type": "audio-test", "responses": ["crystal"], "internal_node_id": "0.0-3.0", "time_elapsed": 72102, "type": "AUDIO_TEST", "trial_index": 3}, "uniqueid": "MTK1447:3YDTZAI2WYNLMHOVOIQ6M3TSQGR410", "dateTime": 1515885973408}, {"current_trial": 4, "trialdata": {"rt": [5888], "trial_type": "audio-test", "responses": ["spice"], "internal_node_id": "0.0-4.0", "time_elapsed": 77996, "type": "AUDIO_TEST", "trial_index": 4}, "uniqueid": "MTK1447:3YDTZAI2WYNLMHOVOIQ6M3TSQGR410", "dateTime": 1515885979302}, {"current_trial": 5, "trialdata": {"rt": 27964, "trial_type": "survey-text", "responses": "{\"Q0\":\"4:00 am\",\"Q1\":\"12:00 pm\",\"Q2\":\"3\"}", "internal_node_id": "0.0-5.0", "time_elapsed": 106716, "type": "SLEEP_SURVEY", "trial_index": 5}, "uniqueid": "MTK1447:3YDTZAI2WYNLMHOVOIQ6M3TSQGR410", "dateTime": 1515886008023}, {"current_trial": 6, "trialdata": {"rt": 86888, "trial_type": "text", "internal_node_id": "0.0-6.0", "time_elapsed": 194607, "key_press": 74, "type": "INSTRUCTIONS", "trial_index": 6}, "uniqueid": "MTK1447:3YDTZAI2WYNLMHOVOIQ6M3TSQGR410", "dateTime": 1515886095913}, {"current_trial": 7, "trialdata": {"rt": 23461, "trial_type": "text", "internal_node_id": "0.0-7.0", "time_elapsed": 218571, "key_press": 68, "type": "INSTRUCTIONS", "trial_index": 7}, "uniqueid": "MTK1447:3YDTZAI2WYNLMHOVOIQ6M3TSQGR410", "dateTime": 1515886119877}, {"current_trial": 8, "trialdata": {"rt": 8707, "trial_type": "text", "internal_node_id": "0.0-8.0", "time_elapsed": 227780, "key_press": 68, "type": "INSTRUCTIONS", "trial_index": 8}, "uniqueid": "MTK1447:3YDTZAI2WYNLMHOVOIQ6M3TSQGR410", "dateTime": 1515886129087}, {"current_trial": 9, "trialdata": {"rt": [3217, 5818, 8667, 11497, 17040], "trial_type": "math-distractor", "key_times": [2622, 2792, 3217, 5531, 5640, 5818, 7915, 7980, 8667, 11155, 11327, 11497, 16357, 16725, 17040], "responses": ["16", "21", "12", "11", "26"], "num2": [5, 6, 2, 1, 9, 8], "num3": [7, 6, 7, 8, 9, 1], "conditions": [18, 1200, "a", 18000], "internal_node_id": "0.0-9.0", "key_presses": [49, 54, 13, 50, 49, 13, 49, 50, 13, 49, 49, 13, 50, 54, 13], "trial": 0, "time_elapsed": 246792, "type": "DISTRACTOR", "trial_index": 9, "num1": [4, 9, 3, 2, 8, 7]}, "uniqueid": "MTK1447:3YDTZAI2WYNLMHOVOIQ6M3TSQGR410", "dateTime": 1515886148099}, {"current_trial": 10, "trialdata": {"rt": -1, "trial_type": "single-stim", "stimulus": "<p id=\"stim\">10</p>", "internal_node_id": "0.0-10.0-0.0", "time_elapsed": 249798, "key_press": -1, "trial_index": 10}, "uniqueid": "MTK1447:3YDTZAI2WYNLMHOVOIQ6M3TSQGR410", "dateTime": 1515886151104}, {"current_trial": 11, "trialdata": {"rt": -1, "trial_type": "single-stim", "stimulus": "<p id=\"stim\">9</p>", "internal_node_id": "0.0-10.0-1.0", "time_elapsed": 250801, "key_press": -1, "trial_index": 11}, "uniqueid": "MTK1447:3YDTZAI2WYNLMHOVOIQ6M3TSQGR410", "dateTime": 1515886152107}, {"current_trial": 12, "trialdata": {"rt": -1, "trial_type": "single-stim", "stimulus": "<p id=\"stim\">8</p>", "internal_node_id": "0.0-10.0-2.0", "time_elapsed": 251804, "key_press": -1, "trial_index": 12}, "uniqueid": "MTK1447:3YDTZAI2WYNLMHOVOIQ6M3TSQGR410", "dateTime": 1515886153110}, {"current_trial": 13, "trialdata": {"rt": -1, "trial_type": "single-stim", "stimulus": "<p id=\"stim\">7</p>", "internal_node_id": "0.0-10.0-3.0", "time_elapsed": 252806, "key_press": -1, "trial_index": 13}, "uniqueid": "MTK1447:3YDTZAI2WYNLMHOVOIQ6M3TSQGR410", "dateTime": 1515886154112}, {"current_trial": 14, "trialdata": {"rt": -1, "trial_type": "single-stim", "stimulus": "<p id=\"stim\">6</p>", "internal_node_id": "0.0-10.0-4.0", "time_elapsed": 253808, "key_press": -1, "trial_index": 14}, "uniqueid": "MTK1447:3YDTZAI2WYNLMHOVOIQ6M3TSQGR410", "dateTime": 1515886155114}, {"current_trial": 15, "trialdata": {"rt": -1, "trial_type": "single-stim", "stimulus": "<p id=\"stim\">5</p>", "internal_node_id": "0.0-10.0-5.0", "time_elapsed": 254811, "key_press": -1, "trial_index": 15}, "uniqueid": "MTK1447:3YDTZAI2WYNLMHOVOIQ6M3TSQGR410", "dateTime": 1515886156118}, {"current_trial": 16, "trialdata": {"rt": -1, "trial_type": "single-stim", "stimulus": "<p id=\"stim\">4</p>", "internal_node_id": "0.0-10.0-6.0", "time_elapsed": 255814, "key_press": -1, "trial_index": 16}, "uniqueid": "MTK1447:3YDTZAI2WYNLMHOVOIQ6M3TSQGR410", "dateTime": 1515886157120}, {"current_trial": 17, "trialdata": {"rt": -1, "trial_type": "single-stim", "stimulus": "<p id=\"stim\">3</p>", "internal_node_id": "0.0-10.0-7.0", "time_elapsed": 256816, "key_press": -1, "trial_index": 17}, "uniqueid": "MTK1447:3YDTZAI2WYNLMHOVOIQ6M3TSQGR410", "dateTime": 1515886158122}, {"current_trial": 18, "trialdata": {"rt": -1, "trial_type": "single-stim", "stimulus": "<p id=\"stim\">2</p>", "internal_node_id": "0.0-10.0-8.0", "time_elapsed": 257819, "key_press": -1, "trial_index": 18}, "uniqueid": "MTK1447:3YDTZAI2WYNLMHOVOIQ6M3TSQGR410", "dateTime": 1515886159125}, {"current_trial": 19, "trialdata": {"rt": -1, "trial_type": "single-stim", "stimulus": "<p id=\"stim\">1</p>", "internal_node_id": "0.0-10.0-9.0", "time_elapsed": 258821, "key_press": -1, "trial_index": 19}, "uniqueid": "MTK1447:3YDTZAI2WYNLMHOVOIQ6M3TSQGR410", "dateTime": 1515886160127}, {"current_trial": 20, "trialdata": {"rt": -1, "trial_type": "single-stim", "stimulus": "<p id=\"stim\">+</p>", "internal_node_id": "0.0-11.0-0.0", "time_elapsed": 260323, "key_press": -1, "type": "FIXATION", "trial_index": 20}, "uniqueid": "MTK1447:3YDTZAI2WYNLMHOVOIQ6M3TSQGR410", "dateTime": 1515886161629}, {"current_trial": 21, "trialdata": {"rt": -1000, "trial_type": "single-audio", "word": "jello", "stimulus": "/static/audio/wordpool/JELLO.wav", "conditions": [18, 1200, "a", 18000], "internal_node_id": "0.0-12.0", "trial": 0, "time_elapsed": 262592, "serialpos": 0, "key_press": -1, "wordID": 753, "type": "PRES_AUD", "trial_index": 21}, "uniqueid": "MTK1447:3YDTZAI2WYNLMHOVOIQ6M3TSQGR410", "dateTime": 1515886163898}, {"current_trial": 22, "trialdata": {"rt": -1000, "trial_type": "single-audio", "word": "rod", "stimulus": "/static/audio/wordpool/ROD.wav", "conditions": [18, 1200, "a", 18000], "internal_node_id": "0.0-13.0", "trial": 0, "time_elapsed": 264792, "serialpos": 1, "key_press": -1, "wordID": 1202, "type": "PRES_AUD", "trial_index": 22}, "uniqueid": "MTK1447:3YDTZAI2WYNLMHOVOIQ6M3TSQGR410", "dateTime": 1515886166098}, {"current_trial": 23, "trialdata": {"rt": -1000, "trial_type": "single-audio", "word": "gangster", "stimulus": "/static/audio/wordpool/GANGSTER.wav", "conditions": [18, 1200, "a", 18000], "internal_node_id": "0.0-14.0", "trial": 0, "time_elapsed": 266960, "serialpos": 2, "key_press": -1, "wordID": 619, "type": "PRES_AUD", "trial_index": 23}, "uniqueid": "MTK1447:3YDTZAI2WYNLMHOVOIQ6M3TSQGR410", "dateTime": 1515886168267}, {"current_trial": 24, "trialdata": {"rt": -1000, "trial_type": "single-audio", "word": "hound", "stimulus": "/static/audio/wordpool/HOUND.wav", "conditions": [18, 1200, "a", 18000], "internal_node_id": "0.0-15.0", "trial": 0, "time_elapsed": 269333, "serialpos": 3, "key_press": -1, "wordID": 723, "type": "PRES_AUD", "trial_index": 24}, "uniqueid": "MTK1447:3YDTZAI2WYNLMHOVOIQ6M3TSQGR410", "dateTime": 1515886170639}, {"current_trial": 25, "trialdata": {"rt": -1000, "trial_type": "single-audio", "word": "ulcer", "stimulus": "/static/audio/wordpool/ULCER.wav", "conditions": [18, 1200, "a", 18000], "internal_node_id": "0.0-16.0", "trial": 0, "time_elapsed": 271396, "serialpos": 4, "key_press": -1, "wordID": 1532, "type": "PRES_AUD", "trial_index": 25}, "uniqueid": "MTK1447:3YDTZAI2WYNLMHOVOIQ6M3TSQGR410", "dateTime": 1515886172702}, {"current_trial": 26, "trialdata": {"rt": -1000, "trial_type": "single-audio", "word": "goblin", "stimulus": "/static/audio/wordpool/GOBLIN.wav", "conditions": [18, 1200, "a", 18000], "internal_node_id": "0.0-17.0", "trial": 0, "time_elapsed": 273518, "serialpos": 5, "key_press": -1, "wordID": 644, "type": "PRES_AUD", "trial_index": 26}, "uniqueid": "MTK1447:3YDTZAI2WYNLMHOVOIQ6M3TSQGR410", "dateTime": 1515886174825}, {"current_trial": 27, "trialdata": {"rt": -1000, "trial_type": "single-audio", "word": "sister", "stimulus": "/static/audio/wordpool/SISTER.wav", "conditions": [18, 1200, "a", 18000], "internal_node_id": "0.0-18.0", "trial": 0, "time_elapsed": 275829, "serialpos": 6, "key_press": -1, "wordID": 1311, "type": "PRES_AUD", "trial_index": 27}, "uniqueid": "MTK1447:3YDTZAI2WYNLMHOVOIQ6M3TSQGR410", "dateTime": 1515886177135}, {"current_trial": 28, "trialdata": {"rt": -1000, "trial_type": "single-audio", "word": "couch", "stimulus": "/static/audio/wordpool/COUCH.wav", "conditions": [18, 1200, "a", 18000], "internal_node_id": "0.0-19.0", "trial": 0, "time_elapsed": 278172, "serialpos": 7, "key_press": -1, "wordID": 385, "type": "PRES_AUD", "trial_index": 28}, "uniqueid": "MTK1447:3YDTZAI2WYNLMHOVOIQ6M3TSQGR410", "dateTime": 1515886179478}, {"current_trial": 29, "trialdata": {"rt": -1000, "trial_type": "single-audio", "word": "tart", "stimulus": "/static/audio/wordpool/TART.wav", "conditions": [18, 1200, "a", 18000], "internal_node_id": "0.0-20.0", "trial": 0, "time_elapsed": 280499, "serialpos": 8, "key_press": -1, "wordID": 1435, "type": "PRES_AUD", "trial_index": 29}, "uniqueid": "MTK1447:3YDTZAI2WYNLMHOVOIQ6M3TSQGR410", "dateTime": 1515886181806}, {"current_trial": 30, "trialdata": {"rt": -1000, "trial_type": "single-audio", "word": "bucket", "stimulus": "/static/audio/wordpool/BUCKET.wav", "conditions": [18, 1200, "a", 18000], "internal_node_id": "0.0-21.0", "trial": 0, "time_elapsed": 282628, "serialpos": 9, "key_press": -1, "wordID": 183, "type": "PRES_AUD", "trial_index": 30}, "uniqueid": "MTK1447:3YDTZAI2WYNLMHOVOIQ6M3TSQGR410", "dateTime": 1515886183934}, {"current_trial": 31, "trialdata": {"rt": -1000, "trial_type": "single-audio", "word": "trombone", "stimulus": "/static/audio/wordpool/TROMBONE.wav", "conditions": [18, 1200, "a", 18000], "internal_node_id": "0.0-22.0", "trial": 0, "time_elapsed": 284898, "serialpos": 10, "key_press": -1, "wordID": 1507, "type": "PRES_AUD", "trial_index": 31}, "uniqueid": "MTK1447:3YDTZAI2WYNLMHOVOIQ6M3TSQGR410", "dateTime": 1515886186204}, {"current_trial": 32, "trialdata": {"rt": -1000, "trial_type": "single-audio", "word": "pigeon", "stimulus": "/static/audio/wordpool/PIGEON.wav", "conditions": [18, 1200, "a", 18000], "internal_node_id": "0.0-23.0", "trial": 0, "time_elapsed": 287038, "serialpos": 11, "key_press": -1, "wordID": 1064, "type": "PRES_AUD", "trial_index": 32}, "uniqueid": "MTK1447:3YDTZAI2WYNLMHOVOIQ6M3TSQGR410", "dateTime": 1515886188344}, {"current_trial": 33, "trialdata": {"rt": -1000, "trial_type": "single-audio", "word": "space", "stimulus": "/static/audio/wordpool/SPACE.wav", "conditions": [18, 1200, "a", 18000], "internal_node_id": "0.0-24.0", "trial": 0, "time_elapsed": 289071, "serialpos": 12, "key_press": -1, "wordID": 1344, "type": "PRES_AUD", "trial_index": 33}, "uniqueid": "MTK1447:3YDTZAI2WYNLMHOVOIQ6M3TSQGR410", "dateTime": 1515886190377}, {"current_trial": 34, "trialdata": {"rt": -1000, "trial_type": "single-audio", "word": "camel", "stimulus": "/static/audio/wordpool/CAMEL.wav", "conditions": [18, 1200, "a", 18000], "internal_node_id": "0.0-25.0", "trial": 0, "time_elapsed": 291472, "serialpos": 13, "key_press": -1, "wordID": 222, "type": "PRES_AUD", "trial_index": 34}, "uniqueid": "MTK1447:3YDTZAI2WYNLMHOVOIQ6M3TSQGR410", "dateTime": 1515886192779}, {"current_trial": 35, "trialdata": {"rt": -1000, "trial_type": "single-audio", "word": "driver", "stimulus": "/static/audio/wordpool/DRIVER.wav", "conditions": [18, 1200, "a", 18000], "internal_node_id": "0.0-26.0", "trial": 0, "time_elapsed": 293627, "serialpos": 14, "key_press": -1, "wordID": 498, "type": "PRES_AUD", "trial_index": 35}, "uniqueid": "MTK1447:3YDTZAI2WYNLMHOVOIQ6M3TSQGR410", "dateTime": 1515886194934}, {"current_trial": 36, "trialdata": {"rt": -1000, "trial_type": "single-audio", "word": "tortoise", "stimulus": "/static/audio/wordpool/TORTOISE.wav", "conditions": [18, 1200, "a", 18000], "internal_node_id": "0.0-27.0", "trial": 0, "time_elapsed": 295843, "serialpos": 15, "key_press": -1, "wordID": 1485, "type": "PRES_AUD", "trial_index": 36}, "uniqueid": "MTK1447:3YDTZAI2WYNLMHOVOIQ6M3TSQGR410", "dateTime": 1515886197150}, {"current_trial": 37, "trialdata": {"rt": -1000, "trial_type": "single-audio", "word": "vagrant", "stimulus": "/static/audio/wordpool/VAGRANT.wav", "conditions": [18, 1200, "a", 18000], "internal_node_id": "0.0-28.0", "trial": 0, "time_elapsed": 298127, "serialpos": 16, "key_press": -1, "wordID": 1543, "type": "PRES_AUD", "trial_index": 37}, "uniqueid": "MTK1447:3YDTZAI2WYNLMHOVOIQ6M3TSQGR410", "dateTime": 1515886199433}, {"current_trial": 38, "trialdata": {"rt": -1000, "trial_type": "single-audio", "word": "garbage", "stimulus": "/static/audio/wordpool/GARBAGE.wav", "conditions": [18, 1200, "a", 18000], "internal_node_id": "0.0-29.0", "trial": 0, "time_elapsed": 300542, "serialpos": 17, "key_press": -1, "wordID": 621, "type": "PRES_AUD", "trial_index": 38}, "uniqueid": "MTK1447:3YDTZAI2WYNLMHOVOIQ6M3TSQGR410", "dateTime": 1515886201849}, {"current_trial": 39, "trialdata": {"rt": -1, "trial_type": "single-stim", "stimulus": "", "internal_node_id": "0.0-30.0-0.0", "time_elapsed": 301896, "key_press": -1, "type": "PRE_RECALL_DELAY", "trial_index": 39}, "uniqueid": "MTK1447:3YDTZAI2WYNLMHOVOIQ6M3TSQGR410", "dateTime": 1515886203202}, {"current_trial": 40, "trialdata": {"rt": -1000, "trial_type": "single-audio", "stimulus": "/static/audio/400Hz.wav", "internal_node_id": "0.0-31.0", "time_elapsed": 302403, "key_press": -1, "type": "PRE_RECALL_ALERT", "trial_index": 40}, "uniqueid": "MTK1447:3YDTZAI2WYNLMHOVOIQ6M3TSQGR410", "dateTime": 1515886203710}, {"current_trial": 41, "trialdata": {"rt": [3263, 5719, 7546, 12566, 15597, 22445, 40220, 53439], "recwords": ["vagrant", "garbage", "sister", "trombone", "vagrant", "gangster", "sister", "tart"], "key_times": [2105, 2225, 2343, 2513, 2741, 2836, 3061, 3263, 4398, 4449, 4728, 4810, 5061, 5217, 5384, 5719, 6606, 6699, 6820, 6944, 7081, 7262, 7546, 8225, 8675, 8808, 8862, 9286, 9542, 9703, 10419, 10568, 10868, 11026, 11405, 11536, 12170, 12235, 12368, 12566, 14110, 14215, 14794, 14892, 15111, 15228, 15402, 15597, 21192, 21366, 21482, 21696, 21804, 21951, 22045, 22225, 22445, 39418, 39498, 39639, 39804, 39919, 40093, 40220, 52383, 52459, 52936, 53151, 53439], "trial_type": "free-recall", "conditions": [18, 1200, "a", 18000], "internal_node_id": "0.0-32.0-0.0", "key_presses": [86, 65, 71, 82, 65, 78, 84, 13, 71, 65, 82, 66, 65, 71, 69, 13, 83, 73, 83, 84, 69, 82, 13, 84, 82, 79, 77, 66, 78, 69, 8, 8, 73, 78, 8, 8, 79, 78, 69, 13, 86, 65, 71, 82, 65, 78, 84, 13, 71, 65, 78, 71, 83, 84, 69, 82, 13, 83, 73, 83, 84, 69, 82, 13, 84, 65, 82, 84, 13], "trial": 0, "time_elapsed": 362410, "type": "FREE_RECALL", "trial_index": 41}, "uniqueid": "MTK1447:3YDTZAI2WYNLMHOVOIQ6M3TSQGR410", "dateTime": 1515886263721}, {"current_trial": 42, "trialdata": {"rt": 80548, "trial_type": "text", "internal_node_id": "0.0-33.0", "time_elapsed": 444966, "key_press": 13, "type": "INSTRUCTIONS", "trial_index": 42}, "uniqueid": "MTK1447:3YDTZAI2WYNLMHOVOIQ6M3TSQGR410", "dateTime": 1515886346272}, {"current_trial": 43, "trialdata": {"rt": [5004, 8285, 10144, 11844, 14672, 16088], "trial_type": "math-distractor", "key_times": [3574, 3868, 4184, 5004, 7950, 8097, 8285, 9829, 9984, 10144, 11521, 11659, 11844, 13777, 14355, 14672, 15907, 16088], "responses": ["15", "13", "11", "10", "18", "9"], "num2": [9, 2, 5, 4, 8, 4, 8], "num3": [5, 7, 2, 1, 5, 4, 7], "conditions": [18, 1200, "a", 18000], "internal_node_id": "0.0-34.0", "key_presses": [49, 53, 16, 13, 49, 51, 13, 49, 49, 13, 49, 48, 13, 49, 56, 13, 57, 13], "trial": 1, "time_elapsed": 464973, "type": "DISTRACTOR", "trial_index": 43, "num1": [1, 4, 4, 5, 5, 1, 6]}, "uniqueid": "MTK1447:3YDTZAI2WYNLMHOVOIQ6M3TSQGR410", "dateTime": 1515886366280}, {"current_trial": 44, "trialdata": {"rt": -1, "trial_type": "single-stim", "stimulus": "<p id=\"stim\">10</p>", "internal_node_id": "0.0-35.0-0.0", "time_elapsed": 467976, "key_press": -1, "trial_index": 44}, "uniqueid": "MTK1447:3YDTZAI2WYNLMHOVOIQ6M3TSQGR410", "dateTime": 1515886369283}, {"current_trial": 45, "trialdata": {"rt": -1, "trial_type": "single-stim", "stimulus": "<p id=\"stim\">9</p>", "internal_node_id": "0.0-35.0-1.0", "time_elapsed": 468979, "key_press": -1, "trial_index": 45}, "uniqueid": "MTK1447:3YDTZAI2WYNLMHOVOIQ6M3TSQGR410", "dateTime": 1515886370285}, {"current_trial": 46, "trialdata": {"rt": -1, "trial_type": "single-stim", "stimulus": "<p id=\"stim\">8</p>", "internal_node_id": "0.0-35.0-2.0", "time_elapsed": 469981, "key_press": -1, "trial_index": 46}, "uniqueid": "MTK1447:3YDTZAI2WYNLMHOVOIQ6M3TSQGR410", "dateTime": 1515886371288}, {"current_trial": 47, "trialdata": {"rt": -1, "trial_type": "single-stim", "stimulus": "<p id=\"stim\">7</p>", "internal_node_id": "0.0-35.0-3.0", "time_elapsed": 470983, "key_press": -1, "trial_index": 47}, "uniqueid": "MTK1447:3YDTZAI2WYNLMHOVOIQ6M3TSQGR410", "dateTime": 1515886372290}, {"current_trial": 48, "trialdata": {"rt": -1, "trial_type": "single-stim", "stimulus": "<p id=\"stim\">6</p>", "internal_node_id": "0.0-35.0-4.0", "time_elapsed": 471986, "key_press": -1, "trial_index": 48}, "uniqueid": "MTK1447:3YDTZAI2WYNLMHOVOIQ6M3TSQGR410", "dateTime": 1515886373292}, {"current_trial": 49, "trialdata": {"rt": -1, "trial_type": "single-stim", "stimulus": "<p id=\"stim\">5</p>", "internal_node_id": "0.0-35.0-5.0", "time_elapsed": 472988, "key_press": -1, "trial_index": 49}, "uniqueid": "MTK1447:3YDTZAI2WYNLMHOVOIQ6M3TSQGR410", "dateTime": 1515886374294}, {"current_trial": 50, "trialdata": {"rt": -1, "trial_type": "single-stim", "stimulus": "<p id=\"stim\">4</p>", "internal_node_id": "0.0-35.0-6.0", "time_elapsed": 473990, "key_press": -1, "trial_index": 50}, "uniqueid": "MTK1447:3YDTZAI2WYNLMHOVOIQ6M3TSQGR410", "dateTime": 1515886375297}, {"current_trial": 51, "trialdata": {"rt": -1, "trial_type": "single-stim", "stimulus": "<p id=\"stim\">3</p>", "internal_node_id": "0.0-35.0-7.0", "time_elapsed": 474992, "key_press": -1, "trial_index": 51}, "uniqueid": "MTK1447:3YDTZAI2WYNLMHOVOIQ6M3TSQGR410", "dateTime": 1515886376299}, {"current_trial": 52, "trialdata": {"rt": -1, "trial_type": "single-stim", "stimulus": "<p id=\"stim\">2</p>", "internal_node_id": "0.0-35.0-8.0", "time_elapsed": 475994, "key_press": -1, "trial_index": 52}, "uniqueid": "MTK1447:3YDTZAI2WYNLMHOVOIQ6M3TSQGR410", "dateTime": 1515886377301}, {"current_trial": 53, "trialdata": {"rt": -1, "trial_type": "single-stim", "stimulus": "<p id=\"stim\">1</p>", "internal_node_id": "0.0-35.0-9.0", "time_elapsed": 476998, "key_press": -1, "trial_index": 53}, "uniqueid": "MTK1447:3YDTZAI2WYNLMHOVOIQ6M3TSQGR410", "dateTime": 1515886378304}, {"current_trial": 54, "trialdata": {"rt": -1, "trial_type": "single-stim", "stimulus": "<p id=\"stim\">+</p>", "internal_node_id": "0.0-36.0-0.0", "time_elapsed": 478501, "key_press": -1, "type": "FIXATION", "trial_index": 54}, "uniqueid": "MTK1447:3YDTZAI2WYNLMHOVOIQ6M3TSQGR410", "dateTime": 1515886379807}, {"current_trial": 55, "trialdata": {"rt": -1000, "trial_type": "single-audio", "word": "patrol", "stimulus": "/static/audio/wordpool/PATROL.wav", "conditions": [18, 1200, "a", 18000], "internal_node_id": "0.0-37.0", "trial": 1, "time_elapsed": 480677, "serialpos": 0, "key_press": -1, "wordID": 1026, "type": "PRES_AUD", "trial_index": 55}, "uniqueid": "MTK1447:3YDTZAI2WYNLMHOVOIQ6M3TSQGR410", "dateTime": 1515886381983}, {"current_trial": 56, "trialdata": {"rt": -1000, "trial_type": "single-audio", "word": "antler", "stimulus": "/static/audio/wordpool/ANTLER.wav", "conditions": [18, 1200, "a", 18000], "internal_node_id": "0.0-38.0", "trial": 1, "time_elapsed": 482724, "serialpos": 1, "key_press": -1, "wordID": 28, "type": "PRES_AUD", "trial_index": 56}, "uniqueid": "MTK1447:3YDTZAI2WYNLMHOVOIQ6M3TSQGR410", "dateTime": 1515886384030}, {"current_trial": 57, "trialdata": {"rt": -1000, "trial_type": "single-audio", "word": "citrus", "stimulus": "/static/audio/wordpool/CITRUS.wav", "conditions": [18, 1200, "a", 18000], "internal_node_id": "0.0-39.0", "trial": 1, "time_elapsed": 484854, "serialpos": 2, "key_press": -1, "wordID": 312, "type": "PRES_AUD", "trial_index": 57}, "uniqueid": "MTK1447:3YDTZAI2WYNLMHOVOIQ6M3TSQGR410", "dateTime": 1515886386160}, {"current_trial": 58, "trialdata": {"rt": -1000, "trial_type": "single-audio", "word": "carrot", "stimulus": "/static/audio/wordpool/CARROT.wav", "conditions": [18, 1200, "a", 18000], "internal_node_id": "0.0-40.0", "trial": 1, "time_elapsed": 486892, "serialpos": 3, "key_press": -1, "wordID": 248, "type": "PRES_AUD", "trial_index": 58}, "uniqueid": "MTK1447:3YDTZAI2WYNLMHOVOIQ6M3TSQGR410", "dateTime": 1515886388198}, {"current_trial": 59, "trialdata": {"rt": -1000, "trial_type": "single-audio", "word": "pluto", "stimulus": "/static/audio/wordpool/PLUTO.wav", "conditions": [18, 1200, "a", 18000], "internal_node_id": "0.0-41.0", "trial": 1, "time_elapsed": 488914, "serialpos": 4, "key_press": -1, "wordID": 1091, "type": "PRES_AUD", "trial_index": 59}, "uniqueid": "MTK1447:3YDTZAI2WYNLMHOVOIQ6M3TSQGR410", "dateTime": 1515886390220}, {"current_trial": 60, "trialdata": {"rt": -1000, "trial_type": "single-audio", "word": "peach", "stimulus": "/static/audio/wordpool/PEACH.wav", "conditions": [18, 1200, "a", 18000], "internal_node_id": "0.0-42.0", "trial": 1, "time_elapsed": 491208, "serialpos": 5, "key_press": -1, "wordID": 1030, "type": "PRES_AUD", "trial_index": 60}, "uniqueid": "MTK1447:3YDTZAI2WYNLMHOVOIQ6M3TSQGR410", "dateTime": 1515886392515}, {"current_trial": 61, "trialdata": {"rt": -1000, "trial_type": "single-audio", "word": "raft", "stimulus": "/static/audio/wordpool/RAFT.wav", "conditions": [18, 1200, "a", 18000], "internal_node_id": "0.0-43.0", "trial": 1, "time_elapsed": 493443, "serialpos": 6, "key_press": -1, "wordID": 1158, "type": "PRES_AUD", "trial_index": 61}, "uniqueid": "MTK1447:3YDTZAI2WYNLMHOVOIQ6M3TSQGR410", "dateTime": 1515886394749}, {"current_trial": 62, "trialdata": {"rt": -1000, "trial_type": "single-audio", "word": "notebook", "stimulus": "/static/audio/wordpool/NOTEBOOK.wav", "conditions": [18, 1200, "a", 18000], "internal_node_id": "0.0-44.0", "trial": 1, "time_elapsed": 495503, "serialpos": 7, "key_press": -1, "wordID": 958, "type": "PRES_AUD", "trial_index": 62}, "uniqueid": "MTK1447:3YDTZAI2WYNLMHOVOIQ6M3TSQGR410", "dateTime": 1515886396809}, {"current_trial": 63, "trialdata": {"rt": -1000, "trial_type": "single-audio", "word": "bubble", "stimulus": "/static/audio/wordpool/BUBBLE.wav", "conditions": [18, 1200, "a", 18000], "internal_node_id": "0.0-45.0", "trial": 1, "time_elapsed": 497533, "serialpos": 8, "key_press": -1, "wordID": 182, "type": "PRES_AUD", "trial_index": 63}, "uniqueid": "MTK1447:3YDTZAI2WYNLMHOVOIQ6M3TSQGR410", "dateTime": 1515886398839}, {"current_trial": 64, "trialdata": {"rt": -1000, "trial_type": "single-audio", "word": "daughter", "stimulus": "/static/audio/wordpool/DAUGHTER.wav", "conditions": [18, 1200, "a", 18000], "internal_node_id": "0.0-46.0", "trial": 1, "time_elapsed": 499795, "serialpos": 9, "key_press": -1, "wordID": 441, "type": "PRES_AUD", "trial_index": 64}, "uniqueid": "MTK1447:3YDTZAI2WYNLMHOVOIQ6M3TSQGR410", "dateTime": 1515886401102}, {"current_trial": 65, "trialdata": {"rt": -1000, "trial_type": "single-audio", "word": "guard", "stimulus": "/static/audio/wordpool/GUARD.wav", "conditions": [18, 1200, "a", 18000], "internal_node_id": "0.0-47.0", "trial": 1, "time_elapsed": 502107, "serialpos": 10, "key_press": -1, "wordID": 666, "type": "PRES_AUD", "trial_index": 65}, "uniqueid": "MTK1447:3YDTZAI2WYNLMHOVOIQ6M3TSQGR410", "dateTime": 1515886403413}, {"current_trial": 66, "trialdata": {"rt": -1000, "trial_type": "single-audio", "word": "tablet", "stimulus": "/static/audio/wordpool/TABLET.wav", "conditions": [18, 1200, "a", 18000], "internal_node_id": "0.0-48.0", "trial": 1, "time_elapsed": 504372, "serialpos": 11, "key_press": -1, "wordID": 1426, "type": "PRES_AUD", "trial_index": 66}, "uniqueid": "MTK1447:3YDTZAI2WYNLMHOVOIQ6M3TSQGR410", "dateTime": 1515886405678}, {"current_trial": 67, "trialdata": {"rt": -1000, "trial_type": "single-audio", "word": "swimmer", "stimulus": "/static/audio/wordpool/SWIMMER.wav", "conditions": [18, 1200, "a", 18000], "internal_node_id": "0.0-49.0", "trial": 1, "time_elapsed": 506743, "serialpos": 12, "key_press": -1, "wordID": 1419, "type": "PRES_AUD", "trial_index": 67}, "uniqueid": "MTK1447:3YDTZAI2WYNLMHOVOIQ6M3TSQGR410", "dateTime": 1515886408049}, {"current_trial": 68, "trialdata": {"rt": -1000, "trial_type": "single-audio", "word": "beef", "stimulus": "/static/audio/wordpool/BEEF.wav", "conditions": [18, 1200, "a", 18000], "internal_node_id": "0.0-50.0", "trial": 1, "time_elapsed": 508897, "serialpos": 13, "key_press": -1, "wordID": 112, "type": "PRES_AUD", "trial_index": 68}, "uniqueid": "MTK1447:3YDTZAI2WYNLMHOVOIQ6M3TSQGR410", "dateTime": 1515886410212}, {"current_trial": 69, "trialdata": {"rt": -1000, "trial_type": "single-audio", "word": "machine", "stimulus": "/static/audio/wordpool/MACHINE.wav", "conditions": [18, 1200, "a", 18000], "internal_node_id": "0.0-51.0", "trial": 1, "time_elapsed": 511098, "serialpos": 14, "key_press": -1, "wordID": 851, "type": "PRES_AUD", "trial_index": 69}, "uniqueid": "MTK1447:3YDTZAI2WYNLMHOVOIQ6M3TSQGR410", "dateTime": 1515886412405}, {"current_trial": 70, "trialdata": {"rt": -1000, "trial_type": "single-audio", "word": "puddle", "stimulus": "/static/audio/wordpool/PUDDLE.wav", "conditions": [18, 1200, "a", 18000], "internal_node_id": "0.0-52.0", "trial": 1, "time_elapsed": 513190, "serialpos": 15, "key_press": -1, "wordID": 1139, "type": "PRES_AUD", "trial_index": 70}, "uniqueid": "MTK1447:3YDTZAI2WYNLMHOVOIQ6M3TSQGR410", "dateTime": 1515886414496}, {"current_trial": 71, "trialdata": {"rt": -1000, "trial_type": "single-audio", "word": "belly", "stimulus": "/static/audio/wordpool/BELLY.wav", "conditions": [18, 1200, "a", 18000], "internal_node_id": "0.0-53.0", "trial": 1, "time_elapsed": 515236, "serialpos": 16, "key_press": -1, "wordID": 118, "type": "PRES_AUD", "trial_index": 71}, "uniqueid": "MTK1447:3YDTZAI2WYNLMHOVOIQ6M3TSQGR410", "dateTime": 1515886416543}, {"current_trial": 72, "trialdata": {"rt": -1000, "trial_type": "single-audio", "word": "monster", "stimulus": "/static/audio/wordpool/MONSTER.wav", "conditions": [18, 1200, "a", 18000], "internal_node_id": "0.0-54.0", "trial": 1, "time_elapsed": 517434, "serialpos": 17, "key_press": -1, "wordID": 911, "type": "PRES_AUD", "trial_index": 72}, "uniqueid": "MTK1447:3YDTZAI2WYNLMHOVOIQ6M3TSQGR410", "dateTime": 1515886418740}, {"current_trial": 73, "trialdata": {"rt": -1, "trial_type": "single-stim", "stimulus": "", "internal_node_id": "0.0-55.0-0.0", "time_elapsed": 518767, "key_press": -1, "type": "PRE_RECALL_DELAY", "trial_index": 73}, "uniqueid": "MTK1447:3YDTZAI2WYNLMHOVOIQ6M3TSQGR410", "dateTime": 1515886420073}, {"current_trial": 74, "trialdata": {"rt": -1000, "trial_type": "single-audio", "stimulus": "/static/audio/400Hz.wav", "internal_node_id": "0.0-56.0", "time_elapsed": 519269, "key_press": -1, "type": "PRE_RECALL_ALERT", "trial_index": 74}, "uniqueid": "MTK1447:3YDTZAI2WYNLMHOVOIQ6M3TSQGR410", "dateTime": 1515886420575}, {"current_trial": 75, "trialdata": {"rt": [2026, 3548, 7162, 9650, 11475, 14074, 23793, 35050], "recwords": ["monster", "beef", "huddle", "citrus", "tablet", "raft", "monster", "bubble"], "key_times": [1067, 1149, 1268, 1434, 1573, 1692, 1911, 2026, 2607, 2689, 2863, 3070, 3548, 4421, 4832, 4995, 5181, 5253, 5530, 5813, 5957, 6588, 6765, 6854, 7012, 7162, 8529, 8678, 8980, 9126, 9257, 9458, 9650, 10415, 10527, 10662, 10828, 11018, 11159, 11475, 12480, 13030, 13158, 13433, 13682, 13813, 14074, 22869, 22945, 23108, 23247, 23373, 23499, 23670, 23793, 33862, 33975, 34121, 34479, 34713, 34870, 35050, 59923], "trial_type": "free-recall", "conditions": [18, 1200, "a", 18000], "internal_node_id": "0.0-57.0-0.0", "key_presses": [77, 79, 78, 83, 84, 69, 82, 13, 66, 69, 69, 70, 13, 85, 8, 72, 85, 85, 70, 8, 8, 68, 68, 76, 69, 13, 67, 73, 84, 82, 85, 83, 13, 84, 65, 66, 76, 69, 84, 13, 70, 8, 82, 65, 70, 84, 13, 77, 79, 78, 83, 84, 69, 82, 13, 66, 85, 66, 66, 76, 69, 13, 66], "trial": 1, "time_elapsed": 579269, "type": "FREE_RECALL", "trial_index": 75}, "uniqueid": "MTK1447:3YDTZAI2WYNLMHOVOIQ6M3TSQGR410", "dateTime": 1515886480581}, {"current_trial": 76, "trialdata": {"rt": 3246, "trial_type": "text", "internal_node_id": "0.0-58.0", "time_elapsed": 584523, "key_press": 68, "type": "INSTRUCTIONS", "trial_index": 76}, "uniqueid": "MTK1447:3YDTZAI2WYNLMHOVOIQ6M3TSQGR410", "dateTime": 1515886485829}, {"current_trial": 77, "trialdata": {"rt": [4924, 7928, 10478, 12678, 17526, 19520, 21944], "trial_type": "math-distractor", "key_times": [3871, 4197, 4924, 7434, 7608, 7928, 9664, 9940, 10478, 12268, 12393, 12678, 17218, 17346, 17526, 19033, 19323, 19520, 21531, 21747, 21944], "responses": ["16", "17", "16", "16", "20", "10", "16"], "num2": [3, 7, 6, 8, 8, 1, 4, 7], "num3": [5, 1, 2, 7, 8, 6, 3, 1], "conditions": [12, 1600, "a", 24000], "internal_node_id": "0.0-59.0", "key_presses": [49, 54, 13, 49, 55, 13, 49, 54, 13, 49, 54, 13, 50, 48, 13, 49, 48, 13, 49, 54, 13], "trial": 2, "time_elapsed": 609529, "type": "DISTRACTOR", "trial_index": 77, "num1": [8, 9, 8, 1, 4, 3, 9, 4]}, "uniqueid": "MTK1447:3YDTZAI2WYNLMHOVOIQ6M3TSQGR410", "dateTime": 1515886510836}, {"current_trial": 78, "trialdata": {"rt": -1, "trial_type": "single-stim", "stimulus": "<p id=\"stim\">10</p>", "internal_node_id": "0.0-60.0-0.0", "time_elapsed": 612533, "key_press": -1, "trial_index": 78}, "uniqueid": "MTK1447:3YDTZAI2WYNLMHOVOIQ6M3TSQGR410", "dateTime": 1515886513841}, {"current_trial": 79, "trialdata": {"rt": -1, "trial_type": "single-stim", "stimulus": "<p id=\"stim\">9</p>", "internal_node_id": "0.0-60.0-1.0", "time_elapsed": 613537, "key_press": -1, "trial_index": 79}, "uniqueid": "MTK1447:3YDTZAI2WYNLMHOVOIQ6M3TSQGR410", "dateTime": 1515886514843}, {"current_trial": 80, "trialdata": {"rt": -1, "trial_type": "single-stim", "stimulus": "<p id=\"stim\">8</p>", "internal_node_id": "0.0-60.0-2.0", "time_elapsed": 614539, "key_press": -1, "trial_index": 80}, "uniqueid": "MTK1447:3YDTZAI2WYNLMHOVOIQ6M3TSQGR410", "dateTime": 1515886515845}, {"current_trial": 81, "trialdata": {"rt": -1, "trial_type": "single-stim", "stimulus": "<p id=\"stim\">7</p>", "internal_node_id": "0.0-60.0-3.0", "time_elapsed": 615541, "key_press": -1, "trial_index": 81}, "uniqueid": "MTK1447:3YDTZAI2WYNLMHOVOIQ6M3TSQGR410", "dateTime": 1515886516847}, {"current_trial": 82, "trialdata": {"rt": -1, "trial_type": "single-stim", "stimulus": "<p id=\"stim\">6</p>", "internal_node_id": "0.0-60.0-4.0", "time_elapsed": 616542, "key_press": -1, "trial_index": 82}, "uniqueid": "MTK1447:3YDTZAI2WYNLMHOVOIQ6M3TSQGR410", "dateTime": 1515886517848}, {"current_trial": 83, "trialdata": {"rt": -1, "trial_type": "single-stim", "stimulus": "<p id=\"stim\">5</p>", "internal_node_id": "0.0-60.0-5.0", "time_elapsed": 617545, "key_press": -1, "trial_index": 83}, "uniqueid": "MTK1447:3YDTZAI2WYNLMHOVOIQ6M3TSQGR410", "dateTime": 1515886518851}, {"current_trial": 84, "trialdata": {"rt": -1, "trial_type": "single-stim", "stimulus": "<p id=\"stim\">4</p>", "internal_node_id": "0.0-60.0-6.0", "time_elapsed": 618548, "key_press": -1, "trial_index": 84}, "uniqueid": "MTK1447:3YDTZAI2WYNLMHOVOIQ6M3TSQGR410", "dateTime": 1515886519854}, {"current_trial": 85, "trialdata": {"rt": -1, "trial_type": "single-stim", "stimulus": "<p id=\"stim\">3</p>", "internal_node_id": "0.0-60.0-7.0", "time_elapsed": 619550, "key_press": -1, "trial_index": 85}, "uniqueid": "MTK1447:3YDTZAI2WYNLMHOVOIQ6M3TSQGR410", "dateTime": 1515886520856}, {"current_trial": 86, "trialdata": {"rt": -1, "trial_type": "single-stim", "stimulus": "<p id=\"stim\">2</p>", "internal_node_id": "0.0-60.0-8.0", "time_elapsed": 620552, "key_press": -1, "trial_index": 86}, "uniqueid": "MTK1447:3YDTZAI2WYNLMHOVOIQ6M3TSQGR410", "dateTime": 1515886521858}, {"current_trial": 87, "trialdata": {"rt": -1, "trial_type": "single-stim", "stimulus": "<p id=\"stim\">1</p>", "internal_node_id": "0.0-60.0-9.0", "time_elapsed": 621554, "key_press": -1, "trial_index": 87}, "uniqueid": "MTK1447:3YDTZAI2WYNLMHOVOIQ6M3TSQGR410", "dateTime": 1515886522860}, {"current_trial": 88, "trialdata": {"rt": -1, "trial_type": "single-stim", "stimulus": "<p id=\"stim\">+</p>", "internal_node_id": "0.0-61.0-0.0", "time_elapsed": 623056, "key_press": -1, "type": "FIXATION", "trial_index": 88}, "uniqueid": "MTK1447:3YDTZAI2WYNLMHOVOIQ6M3TSQGR410", "dateTime": 1515886524362}, {"current_trial": 89, "trialdata": {"rt": -1000, "trial_type": "single-audio", "word": "venus", "stimulus": "/static/audio/wordpool/VENUS.wav", "conditions": [12, 1600, "a", 24000], "internal_node_id": "0.0-62.0", "trial": 2, "time_elapsed": 625752, "serialpos": 0, "key_press": -1, "wordID": 1556, "type": "PRES_AUD", "trial_index": 89}, "uniqueid": "MTK1447:3YDTZAI2WYNLMHOVOIQ6M3TSQGR410", "dateTime": 1515886527058}, {"current_trial": 90, "trialdata": {"rt": -1000, "trial_type": "single-audio", "word": "thread", "stimulus": "/static/audio/wordpool/THREAD.wav", "conditions": [12, 1600, "a", 24000], "internal_node_id": "0.0-63.0", "trial": 2, "time_elapsed": 628407, "serialpos": 1, "key_press": -1, "wordID": 1459, "type": "PRES_AUD", "trial_index": 90}, "uniqueid": "MTK1447:3YDTZAI2WYNLMHOVOIQ6M3TSQGR410", "dateTime": 1515886529713}, {"current_trial": 91, "trialdata": {"rt": -1000, "trial_type": "single-audio", "word": "twig", "stimulus": "/static/audio/wordpool/TWIG.wav", "conditions": [12, 1600, "a", 24000], "internal_node_id": "0.0-64.0", "trial": 2, "time_elapsed": 631154, "serialpos": 2, "key_press": -1, "wordID": 1526, "type": "PRES_AUD", "trial_index": 91}, "uniqueid": "MTK1447:3YDTZAI2WYNLMHOVOIQ6M3TSQGR410", "dateTime": 1515886532460}, {"current_trial": 92, "trialdata": {"rt": -1000, "trial_type": "single-audio", "word": "costume", "stimulus": "/static/audio/wordpool/COSTUME.wav", "conditions": [12, 1600, "a", 24000], "internal_node_id": "0.0-65.0", "trial": 2, "time_elapsed": 633777, "serialpos": 3, "key_press": -1, "wordID": 382, "type": "PRES_AUD", "trial_index": 92}, "uniqueid": "MTK1447:3YDTZAI2WYNLMHOVOIQ6M3TSQGR410", "dateTime": 1515886535083}, {"current_trial": 93, "trialdata": {"rt": -1000, "trial_type": "single-audio", "word": "tutu", "stimulus": "/static/audio/wordpool/TUTU.wav", "conditions": [12, 1600, "a", 24000], "internal_node_id": "0.0-66.0", "trial": 2, "time_elapsed": 636276, "serialpos": 4, "key_press": -1, "wordID": 1523, "type": "PRES_AUD", "trial_index": 93}, "uniqueid": "MTK1447:3YDTZAI2WYNLMHOVOIQ6M3TSQGR410", "dateTime": 1515886537582}, {"current_trial": 94, "trialdata": {"rt": -1000, "trial_type": "single-audio", "word": "rabbit", "stimulus": "/static/audio/wordpool/RABBIT.wav", "conditions": [12, 1600, "a", 24000], "internal_node_id": "0.0-67.0", "trial": 2, "time_elapsed": 639024, "serialpos": 5, "key_press": -1, "wordID": 1151, "type": "PRES_AUD", "trial_index": 94}, "uniqueid": "MTK1447:3YDTZAI2WYNLMHOVOIQ6M3TSQGR410", "dateTime": 1515886540330}, {"current_trial": 95, "trialdata": {"rt": -1000, "trial_type": "single-audio", "word": "robber", "stimulus": "/static/audio/wordpool/ROBBER.wav", "conditions": [12, 1600, "a", 24000], "internal_node_id": "0.0-68.0", "trial": 2, "time_elapsed": 641484, "serialpos": 6, "key_press": -1, "wordID": 1196, "type": "PRES_AUD", "trial_index": 95}, "uniqueid": "MTK1447:3YDTZAI2WYNLMHOVOIQ6M3TSQGR410", "dateTime": 1515886542790}, {"current_trial": 96, "trialdata": {"rt": -1000, "trial_type": "single-audio", "word": "slope", "stimulus": "/static/audio/wordpool/SLOPE.wav", "conditions": [12, 1600, "a", 24000], "internal_node_id": "0.0-69.0", "trial": 2, "time_elapsed": 643988, "serialpos": 7, "key_press": -1, "wordID": 1327, "type": "PRES_AUD", "trial_index": 96}, "uniqueid": "MTK1447:3YDTZAI2WYNLMHOVOIQ6M3TSQGR410", "dateTime": 1515886545294}, {"current_trial": 97, "trialdata": {"rt": -1000, "trial_type": "single-audio", "word": "iceberg", "stimulus": "/static/audio/wordpool/ICEBERG.wav", "conditions": [12, 1600, "a", 24000], "internal_node_id": "0.0-70.0", "trial": 2, "time_elapsed": 646533, "serialpos": 8, "key_press": -1, "wordID": 730, "type": "PRES_AUD", "trial_index": 97}, "uniqueid": "MTK1447:3YDTZAI2WYNLMHOVOIQ6M3TSQGR410", "dateTime": 1515886547839}, {"current_trial": 98, "trialdata": {"rt": -1000, "trial_type": "single-audio", "word": "comet", "stimulus": "/static/audio/wordpool/COMET.wav", "conditions": [12, 1600, "a", 24000], "internal_node_id": "0.0-71.0", "trial": 2, "time_elapsed": 648998, "serialpos": 9, "key_press": -1, "wordID": 352, "type": "PRES_AUD", "trial_index": 98}, "uniqueid": "MTK1447:3YDTZAI2WYNLMHOVOIQ6M3TSQGR410", "dateTime": 1515886550304}, {"current_trial": 99, "trialdata": {"rt": -1000, "trial_type": "single-audio", "word": "bunny", "stimulus": "/static/audio/wordpool/BUNNY.wav", "conditions": [12, 1600, "a", 24000], "internal_node_id": "0.0-72.0", "trial": 2, "time_elapsed": 651736, "serialpos": 10, "key_press": -1, "wordID": 197, "type": "PRES_AUD", "trial_index": 99}, "uniqueid": "MTK1447:3YDTZAI2WYNLMHOVOIQ6M3TSQGR410", "dateTime": 1515886553042}, {"current_trial": 100, "trialdata": {"rt": -1000, "trial_type": "single-audio", "word": "smog", "stimulus": "/static/audio/wordpool/SMOG.wav", "conditions": [12, 1600, "a", 24000], "internal_node_id": "0.0-73.0", "trial": 2, "time_elapsed": 654377, "serialpos": 11, "key_press": -1, "wordID": 1329, "type": "PRES_AUD", "trial_index": 100}, "uniqueid": "MTK1447:3YDTZAI2WYNLMHOVOIQ6M3TSQGR410", "dateTime": 1515886555683}, {"current_trial": 101, "trialdata": {"rt": -1, "trial_type": "single-stim", "stimulus": "", "internal_node_id": "0.0-74.0-0.0", "time_elapsed": 655758, "key_press": -1, "type": "PRE_RECALL_DELAY", "trial_index": 101}, "uniqueid": "MTK1447:3YDTZAI2WYNLMHOVOIQ6M3TSQGR410", "dateTime": 1515886557065}, {"current_trial": 102, "trialdata": {"rt": -1000, "trial_type": "single-audio", "stimulus": "/static/audio/400Hz.wav", "internal_node_id": "0.0-75.0", "time_elapsed": 656263, "key_press": -1, "type": "PRE_RECALL_ALERT", "trial_index": 102}, "uniqueid": "MTK1447:3YDTZAI2WYNLMHOVOIQ6M3TSQGR410", "dateTime": 1515886557570}, {"current_trial": 103, "trialdata": {"rt": [2941, 4948, 6873, 8647, 14366], "recwords": ["smog", "bunny", "rabbit", "carrot", "smog"], "key_times": [2026, 2230, 2333, 2594, 2941, 3494, 3723, 3946, 4083, 4269, 4948, 5516, 5785, 5940, 6139, 6166, 6710, 6873, 7180, 7423, 7679, 7870, 7976, 8234, 8647, 13677, 13750, 13818, 14017, 14366], "trial_type": "free-recall", "conditions": [12, 1600, "a", 24000], "internal_node_id": "0.0-76.0-0.0", "key_presses": [83, 77, 79, 71, 13, 66, 85, 78, 78, 89, 13, 82, 65, 66, 66, 73, 84, 13, 67, 65, 82, 82, 79, 84, 13, 83, 77, 79, 71, 13], "trial": 2, "time_elapsed": 716270, "type": "FREE_RECALL", "trial_index": 103}, "uniqueid": "MTK1447:3YDTZAI2WYNLMHOVOIQ6M3TSQGR410", "dateTime": 1515886617581}, {"current_trial": 104, "trialdata": {"rt": 1064, "trial_type": "text", "internal_node_id": "0.0-77.0", "time_elapsed": 719342, "key_press": 68, "type": "INSTRUCTIONS", "trial_index": 104}, "uniqueid": "MTK1447:3YDTZAI2WYNLMHOVOIQ6M3TSQGR410", "dateTime": 1515886620648}, {"current_trial": 105, "trialdata": {"rt": [3547, 8045, 11106], "trial_type": "math-distractor", "key_times": [3003, 3417, 3547, 7750, 7902, 8045, 10452, 10939, 11106], "responses": ["16", "24", "15"], "num2": [8, 7, 2, 7], "num3": [3, 7, 4, 6], "conditions": [12, 1600, "a", 12000], "internal_node_id": "0.0-78.0", "key_presses": [49, 54, 13, 50, 52, 13, 49, 53, 13], "trial": 3, "time_elapsed": 733347, "type": "DISTRACTOR", "trial_index": 105, "num1": [5, 8, 9, 7]}, "uniqueid": "MTK1447:3YDTZAI2WYNLMHOVOIQ6M3TSQGR410", "dateTime": 1515886634653}, {"current_trial": 106, "trialdata": {"rt": -1, "trial_type": "single-stim", "stimulus": "<p id=\"stim\">10</p>", "internal_node_id": "0.0-79.0-0.0", "time_elapsed": 736349, "key_press": -1, "trial_index": 106}, "uniqueid": "MTK1447:3YDTZAI2WYNLMHOVOIQ6M3TSQGR410", "dateTime": 1515886637655}, {"current_trial": 107, "trialdata": {"rt": -1, "trial_type": "single-stim", "stimulus": "<p id=\"stim\">9</p>", "internal_node_id": "0.0-79.0-1.0", "time_elapsed": 737352, "key_press": -1, "trial_index": 107}, "uniqueid": "MTK1447:3YDTZAI2WYNLMHOVOIQ6M3TSQGR410", "dateTime": 1515886638658}, {"current_trial": 108, "trialdata": {"rt": -1, "trial_type": "single-stim", "stimulus": "<p id=\"stim\">8</p>", "internal_node_id": "0.0-79.0-2.0", "time_elapsed": 738354, "key_press": -1, "trial_index": 108}, "uniqueid": "MTK1447:3YDTZAI2WYNLMHOVOIQ6M3TSQGR410", "dateTime": 1515886639661}, {"current_trial": 109, "trialdata": {"rt": -1, "trial_type": "single-stim", "stimulus": "<p id=\"stim\">7</p>", "internal_node_id": "0.0-79.0-3.0", "time_elapsed": 739356, "key_press": -1, "trial_index": 109}, "uniqueid": "MTK1447:3YDTZAI2WYNLMHOVOIQ6M3TSQGR410", "dateTime": 1515886640662}, {"current_trial": 110, "trialdata": {"rt": -1, "trial_type": "single-stim", "stimulus": "<p id=\"stim\">6</p>", "internal_node_id": "0.0-79.0-4.0", "time_elapsed": 740358, "key_press": -1, "trial_index": 110}, "uniqueid": "MTK1447:3YDTZAI2WYNLMHOVOIQ6M3TSQGR410", "dateTime": 1515886641664}, {"current_trial": 111, "trialdata": {"rt": -1, "trial_type": "single-stim", "stimulus": "<p id=\"stim\">5</p>", "internal_node_id": "0.0-79.0-5.0", "time_elapsed": 741360, "key_press": -1, "trial_index": 111}, "uniqueid": "MTK1447:3YDTZAI2WYNLMHOVOIQ6M3TSQGR410", "dateTime": 1515886642666}, {"current_trial": 112, "trialdata": {"rt": -1, "trial_type": "single-stim", "stimulus": "<p id=\"stim\">4</p>", "internal_node_id": "0.0-79.0-6.0", "time_elapsed": 742361, "key_press": -1, "trial_index": 112}, "uniqueid": "MTK1447:3YDTZAI2WYNLMHOVOIQ6M3TSQGR410", "dateTime": 1515886643668}, {"current_trial": 113, "trialdata": {"rt": -1, "trial_type": "single-stim", "stimulus": "<p id=\"stim\">3</p>", "internal_node_id": "0.0-79.0-7.0", "time_elapsed": 743363, "key_press": -1, "trial_index": 113}, "uniqueid": "MTK1447:3YDTZAI2WYNLMHOVOIQ6M3TSQGR410", "dateTime": 1515886644669}, {"current_trial": 114, "trialdata": {"rt": -1, "trial_type": "single-stim", "stimulus": "<p id=\"stim\">2</p>", "internal_node_id": "0.0-79.0-8.0", "time_elapsed": 744365, "key_press": -1, "trial_index": 114}, "uniqueid": "MTK1447:3YDTZAI2WYNLMHOVOIQ6M3TSQGR410", "dateTime": 1515886645671}, {"current_trial": 115, "trialdata": {"rt": -1, "trial_type": "single-stim", "stimulus": "<p id=\"stim\">1</p>", "internal_node_id": "0.0-79.0-9.0", "time_elapsed": 745367, "key_press": -1, "trial_index": 115}, "uniqueid": "MTK1447:3YDTZAI2WYNLMHOVOIQ6M3TSQGR410", "dateTime": 1515886646673}, {"current_trial": 116, "trialdata": {"rt": -1, "trial_type": "single-stim", "stimulus": "<p id=\"stim\">+</p>", "internal_node_id": "0.0-80.0-0.0", "time_elapsed": 746870, "key_press": -1, "type": "FIXATION", "trial_index": 116}, "uniqueid": "MTK1447:3YDTZAI2WYNLMHOVOIQ6M3TSQGR410", "dateTime": 1515886648176}, {"current_trial": 117, "trialdata": {"rt": -1000, "trial_type": "single-audio", "word": "playground", "stimulus": "/static/audio/wordpool/PLAYGROUND.wav", "conditions": [12, 1600, "a", 12000], "internal_node_id": "0.0-81.0", "trial": 3, "time_elapsed": 749366, "serialpos": 0, "key_press": -1, "wordID": 1086, "type": "PRES_AUD", "trial_index": 117}, "uniqueid": "MTK1447:3YDTZAI2WYNLMHOVOIQ6M3TSQGR410", "dateTime": 1515886650672}, {"current_trial": 118, "trialdata": {"rt": -1000, "trial_type": "single-audio", "word": "chauffeur", "stimulus": "/static/audio/wordpool/CHAUFFEUR.wav", "conditions": [12, 1600, "a", 12000], "internal_node_id": "0.0-82.0", "trial": 3, "time_elapsed": 751934, "serialpos": 1, "key_press": -1, "wordID": 282, "type": "PRES_AUD", "trial_index": 118}, "uniqueid": "MTK1447:3YDTZAI2WYNLMHOVOIQ6M3TSQGR410", "dateTime": 1515886653241}, {"current_trial": 119, "trialdata": {"rt": -1000, "trial_type": "single-audio", "word": "lace", "stimulus": "/static/audio/wordpool/LACE.wav", "conditions": [12, 1600, "a", 12000], "internal_node_id": "0.0-83.0", "trial": 3, "time_elapsed": 754502, "serialpos": 2, "key_press": -1, "wordID": 791, "type": "PRES_AUD", "trial_index": 119}, "uniqueid": "MTK1447:3YDTZAI2WYNLMHOVOIQ6M3TSQGR410", "dateTime": 1515886655808}, {"current_trial": 120, "trialdata": {"rt": -1000, "trial_type": "single-audio", "word": "possum", "stimulus": "/static/audio/wordpool/POSSUM.wav", "conditions": [12, 1600, "a", 12000], "internal_node_id": "0.0-84.0", "trial": 3, "time_elapsed": 757171, "serialpos": 3, "key_press": -1, "wordID": 1111, "type": "PRES_AUD", "trial_index": 120}, "uniqueid": "MTK1447:3YDTZAI2WYNLMHOVOIQ6M3TSQGR410", "dateTime": 1515886658478}, {"current_trial": 121, "trialdata": {"rt": -1000, "trial_type": "single-audio", "word": "label", "stimulus": "/static/audio/wordpool/LABEL.wav", "conditions": [12, 1600, "a", 12000], "internal_node_id": "0.0-85.0", "trial": 3, "time_elapsed": 759592, "serialpos": 4, "key_press": -1, "wordID": 789, "type": "PRES_AUD", "trial_index": 121}, "uniqueid": "MTK1447:3YDTZAI2WYNLMHOVOIQ6M3TSQGR410", "dateTime": 1515886660898}, {"current_trial": 122, "trialdata": {"rt": -1000, "trial_type": "single-audio", "word": "bullet", "stimulus": "/static/audio/wordpool/BULLET.wav", "conditions": [12, 1600, "a", 12000], "internal_node_id": "0.0-86.0", "trial": 3, "time_elapsed": 762371, "serialpos": 5, "key_press": -1, "wordID": 193, "type": "PRES_AUD", "trial_index": 122}, "uniqueid": "MTK1447:3YDTZAI2WYNLMHOVOIQ6M3TSQGR410", "dateTime": 1515886663677}, {"current_trial": 123, "trialdata": {"rt": -1000, "trial_type": "single-audio", "word": "blender", "stimulus": "/static/audio/wordpool/BLENDER.wav", "conditions": [12, 1600, "a", 12000], "internal_node_id": "0.0-87.0", "trial": 3, "time_elapsed": 765052, "serialpos": 6, "key_press": -1, "wordID": 135, "type": "PRES_AUD", "trial_index": 123}, "uniqueid": "MTK1447:3YDTZAI2WYNLMHOVOIQ6M3TSQGR410", "dateTime": 1515886666358}, {"current_trial": 124, "trialdata": {"rt": -1000, "trial_type": "single-audio", "word": "spool", "stimulus": "/static/audio/wordpool/SPOOL.wav", "conditions": [12, 1600, "a", 12000], "internal_node_id": "0.0-88.0", "trial": 3, "time_elapsed": 767723, "serialpos": 7, "key_press": -1, "wordID": 1355, "type": "PRES_AUD", "trial_index": 124}, "uniqueid": "MTK1447:3YDTZAI2WYNLMHOVOIQ6M3TSQGR410", "dateTime": 1515886669030}, {"current_trial": 125, "trialdata": {"rt": -1000, "trial_type": "single-audio", "word": "doughnut", "stimulus": "/static/audio/wordpool/DOUGHNUT.wav", "conditions": [12, 1600, "a", 12000], "internal_node_id": "0.0-89.0", "trial": 3, "time_elapsed": 770278, "serialpos": 8, "key_press": -1, "wordID": 489, "type": "PRES_AUD", "trial_index": 125}, "uniqueid": "MTK1447:3YDTZAI2WYNLMHOVOIQ6M3TSQGR410", "dateTime": 1515886671584}, {"current_trial": 126, "trialdata": {"rt": -1000, "trial_type": "single-audio", "word": "sandwich", "stimulus": "/static/audio/wordpool/SANDWICH.wav", "conditions": [12, 1600, "a", 12000], "internal_node_id": "0.0-90.0", "trial": 3, "time_elapsed": 772823, "serialpos": 9, "key_press": -1, "wordID": 1231, "type": "PRES_AUD", "trial_index": 126}, "uniqueid": "MTK1447:3YDTZAI2WYNLMHOVOIQ6M3TSQGR410", "dateTime": 1515886674129}, {"current_trial": 127, "trialdata": {"rt": -1000, "trial_type": "single-audio", "word": "silk", "stimulus": "/static/audio/wordpool/SILK.wav", "conditions": [12, 1600, "a", 12000], "internal_node_id": "0.0-91.0", "trial": 3, "time_elapsed": 775464, "serialpos": 10, "key_press": -1, "wordID": 1306, "type": "PRES_AUD", "trial_index": 127}, "uniqueid": "MTK1447:3YDTZAI2WYNLMHOVOIQ6M3TSQGR410", "dateTime": 1515886676770}, {"current_trial": 128, "trialdata": {"rt": -1000, "trial_type": "single-audio", "word": "subway", "stimulus": "/static/audio/wordpool/SUBWAY.wav", "conditions": [12, 1600, "a", 12000], "internal_node_id": "0.0-92.0", "trial": 3, "time_elapsed": 777974, "serialpos": 11, "key_press": -1, "wordID": 1399, "type": "PRES_AUD", "trial_index": 128}, "uniqueid": "MTK1447:3YDTZAI2WYNLMHOVOIQ6M3TSQGR410", "dateTime": 1515886679280}, {"current_trial": 129, "trialdata": {"rt": -1, "trial_type": "single-stim", "stimulus": "", "internal_node_id": "0.0-93.0-0.0", "time_elapsed": 779301, "key_press": -1, "type": "PRE_RECALL_DELAY", "trial_index": 129}, "uniqueid": "MTK1447:3YDTZAI2WYNLMHOVOIQ6M3TSQGR410", "dateTime": 1515886680607}, {"current_trial": 130, "trialdata": {"rt": -1000, "trial_type": "single-audio", "stimulus": "/static/audio/400Hz.wav", "internal_node_id": "0.0-94.0", "time_elapsed": 779813, "key_press": -1, "type": "PRE_RECALL_ALERT", "trial_index": 130}, "uniqueid": "MTK1447:3YDTZAI2WYNLMHOVOIQ6M3TSQGR410", "dateTime": 1515886681119}, {"current_trial": 131, "trialdata": {"rt": [2308, 5204, 6116, 10428, 42298, 55569], "recwords": ["subway", "chauffeur", "lace", "playground", "lace", "possum"], "key_times": [1058, 1294, 1388, 1563, 1748, 1912, 2308, 2628, 2815, 3056, 3311, 3495, 4113, 4343, 4723, 4854, 5204, 5523, 5613, 5829, 5933, 6116, 6890, 7620, 7847, 8016, 8140, 8328, 8688, 8840, 9053, 9151, 9416, 9601, 10428, 41763, 41838, 42059, 42158, 42298, 54435, 54706, 54840, 55028, 55126, 55345, 55569], "trial_type": "free-recall", "conditions": [12, 1600, "a", 12000], "internal_node_id": "0.0-95.0-0.0", "key_presses": [83, 85, 66, 87, 65, 89, 13, 67, 72, 65, 85, 70, 70, 69, 85, 82, 13, 76, 65, 67, 69, 13, 79, 8, 80, 76, 65, 89, 71, 82, 79, 85, 78, 68, 13, 76, 65, 67, 69, 13, 80, 79, 83, 83, 85, 77, 13], "trial": 3, "time_elapsed": 839827, "type": "FREE_RECALL", "trial_index": 131}, "uniqueid": "MTK1447:3YDTZAI2WYNLMHOVOIQ6M3TSQGR410", "dateTime": 1515886741138}, {"current_trial": 132, "trialdata": {"rt": 15645, "trial_type": "text", "internal_node_id": "0.0-96.0", "time_elapsed": 857478, "key_press": 68, "type": "INSTRUCTIONS", "trial_index": 132}, "uniqueid": "MTK1447:3YDTZAI2WYNLMHOVOIQ6M3TSQGR410", "dateTime": 1515886758785}, {"current_trial": 133, "trialdata": {"rt": [3023, 4478, 8041, 10961], "trial_type": "math-distractor", "key_times": [2688, 2837, 3023, 3887, 4351, 4478, 6863, 7061, 7282, 7825, 8041, 10595, 10772, 10961], "responses": ["18", "13", "17", "20"], "num2": [6, 5, 8, 7, 4], "num3": [5, 3, 3, 5, 3], "conditions": [12, 800, "a", 12000], "internal_node_id": "0.0-97.0", "key_presses": [49, 56, 13, 49, 51, 13, 49, 55, 222, 8, 13, 50, 48, 13], "trial": 4, "time_elapsed": 871483, "type": "DISTRACTOR", "trial_index": 133, "num1": [7, 5, 6, 8, 2]}, "uniqueid": "MTK1447:3YDTZAI2WYNLMHOVOIQ6M3TSQGR410", "dateTime": 1515886772790}, {"current_trial": 134, "trialdata": {"rt": -1, "trial_type": "single-stim", "stimulus": "<p id=\"stim\">10</p>", "internal_node_id": "0.0-98.0-0.0", "time_elapsed": 874486, "key_press": -1, "trial_index": 134}, "uniqueid": "MTK1447:3YDTZAI2WYNLMHOVOIQ6M3TSQGR410", "dateTime": 1515886775792}, {"current_trial": 135, "trialdata": {"rt": -1, "trial_type": "single-stim", "stimulus": "<p id=\"stim\">9</p>", "internal_node_id": "0.0-98.0-1.0", "time_elapsed": 875488, "key_press": -1, "trial_index": 135}, "uniqueid": "MTK1447:3YDTZAI2WYNLMHOVOIQ6M3TSQGR410", "dateTime": 1515886776794}, {"current_trial": 136, "trialdata": {"rt": -1, "trial_type": "single-stim", "stimulus": "<p id=\"stim\">8</p>", "internal_node_id": "0.0-98.0-2.0", "time_elapsed": 876490, "key_press": -1, "trial_index": 136}, "uniqueid": "MTK1447:3YDTZAI2WYNLMHOVOIQ6M3TSQGR410", "dateTime": 1515886777796}, {"current_trial": 137, "trialdata": {"rt": -1, "trial_type": "single-stim", "stimulus": "<p id=\"stim\">7</p>", "internal_node_id": "0.0-98.0-3.0", "time_elapsed": 877491, "key_press": -1, "trial_index": 137}, "uniqueid": "MTK1447:3YDTZAI2WYNLMHOVOIQ6M3TSQGR410", "dateTime": 1515886778797}, {"current_trial": 138, "trialdata": {"rt": -1, "trial_type": "single-stim", "stimulus": "<p id=\"stim\">6</p>", "internal_node_id": "0.0-98.0-4.0", "time_elapsed": 878495, "key_press": -1, "trial_index": 138}, "uniqueid": "MTK1447:3YDTZAI2WYNLMHOVOIQ6M3TSQGR410", "dateTime": 1515886779801}, {"current_trial": 139, "trialdata": {"rt": -1, "trial_type": "single-stim", "stimulus": "<p id=\"stim\">5</p>", "internal_node_id": "0.0-98.0-5.0", "time_elapsed": 879497, "key_press": -1, "trial_index": 139}, "uniqueid": "MTK1447:3YDTZAI2WYNLMHOVOIQ6M3TSQGR410", "dateTime": 1515886780803}, {"current_trial": 140, "trialdata": {"rt": -1, "trial_type": "single-stim", "stimulus": "<p id=\"stim\">4</p>", "internal_node_id": "0.0-98.0-6.0", "time_elapsed": 880500, "key_press": -1, "trial_index": 140}, "uniqueid": "MTK1447:3YDTZAI2WYNLMHOVOIQ6M3TSQGR410", "dateTime": 1515886781806}, {"current_trial": 141, "trialdata": {"rt": -1, "trial_type": "single-stim", "stimulus": "<p id=\"stim\">3</p>", "internal_node_id": "0.0-98.0-7.0", "time_elapsed": 881502, "key_press": -1, "trial_index": 141}, "uniqueid": "MTK1447:3YDTZAI2WYNLMHOVOIQ6M3TSQGR410", "dateTime": 1515886782808}, {"current_trial": 142, "trialdata": {"rt": -1, "trial_type": "single-stim", "stimulus": "<p id=\"stim\">2</p>", "internal_node_id": "0.0-98.0-8.0", "time_elapsed": 882504, "key_press": -1, "trial_index": 142}, "uniqueid": "MTK1447:3YDTZAI2WYNLMHOVOIQ6M3TSQGR410", "dateTime": 1515886783810}, {"current_trial": 143, "trialdata": {"rt": -1, "trial_type": "single-stim", "stimulus": "<p id=\"stim\">1</p>", "internal_node_id": "0.0-98.0-9.0", "time_elapsed": 883506, "key_press": -1, "trial_index": 143}, "uniqueid": "MTK1447:3YDTZAI2WYNLMHOVOIQ6M3TSQGR410", "dateTime": 1515886784812}, {"current_trial": 144, "trialdata": {"rt": -1, "trial_type": "single-stim", "stimulus": "<p id=\"stim\">+</p>", "internal_node_id": "0.0-99.0-0.0", "time_elapsed": 885009, "key_press": -1, "type": "FIXATION", "trial_index": 144}, "uniqueid": "MTK1447:3YDTZAI2WYNLMHOVOIQ6M3TSQGR410", "dateTime": 1515886786315}, {"current_trial": 145, "trialdata": {"rt": -1000, "trial_type": "single-audio", "word": "cellar", "stimulus": "/static/audio/wordpool/CELLAR.wav", "conditions": [12, 800, "a", 12000], "internal_node_id": "0.0-100.0", "trial": 4, "time_elapsed": 886880, "serialpos": 0, "key_press": -1, "wordID": 266, "type": "PRES_AUD", "trial_index": 145}, "uniqueid": "MTK1447:3YDTZAI2WYNLMHOVOIQ6M3TSQGR410", "dateTime": 1515886788187}, {"current_trial": 146, "trialdata": {"rt": -1000, "trial_type": "single-audio", "word": "cabbage", "stimulus": "/static/audio/wordpool/CABBAGE.wav", "conditions": [12, 800, "a", 12000], "internal_node_id": "0.0-101.0", "trial": 4, "time_elapsed": 888541, "serialpos": 1, "key_press": -1, "wordID": 209, "type": "PRES_AUD", "trial_index": 146}, "uniqueid": "MTK1447:3YDTZAI2WYNLMHOVOIQ6M3TSQGR410", "dateTime": 1515886789847}, {"current_trial": 147, "trialdata": {"rt": -1000, "trial_type": "single-audio", "word": "tile", "stimulus": "/static/audio/wordpool/TILE.wav", "conditions": [12, 800, "a", 12000], "internal_node_id": "0.0-102.0", "trial": 4, "time_elapsed": 890307, "serialpos": 2, "key_press": -1, "wordID": 1467, "type": "PRES_AUD", "trial_index": 147}, "uniqueid": "MTK1447:3YDTZAI2WYNLMHOVOIQ6M3TSQGR410", "dateTime": 1515886791614}, {"current_trial": 148, "trialdata": {"rt": -1000, "trial_type": "single-audio", "word": "robot", "stimulus": "/static/audio/wordpool/ROBOT.wav", "conditions": [12, 800, "a", 12000], "internal_node_id": "0.0-103.0", "trial": 4, "time_elapsed": 892075, "serialpos": 3, "key_press": -1, "wordID": 1199, "type": "PRES_AUD", "trial_index": 148}, "uniqueid": "MTK1447:3YDTZAI2WYNLMHOVOIQ6M3TSQGR410", "dateTime": 1515886793381}, {"current_trial": 149, "trialdata": {"rt": -1000, "trial_type": "single-audio", "word": "perfume", "stimulus": "/static/audio/wordpool/PERFUME.wav", "conditions": [12, 800, "a", 12000], "internal_node_id": "0.0-104.0", "trial": 4, "time_elapsed": 893982, "serialpos": 4, "key_press": -1, "wordID": 1048, "type": "PRES_AUD", "trial_index": 149}, "uniqueid": "MTK1447:3YDTZAI2WYNLMHOVOIQ6M3TSQGR410", "dateTime": 1515886795288}, {"current_trial": 150, "trialdata": {"rt": -1000, "trial_type": "single-audio", "word": "witness", "stimulus": "/static/audio/wordpool/WITNESS.wav", "conditions": [12, 800, "a", 12000], "internal_node_id": "0.0-105.0", "trial": 4, "time_elapsed": 895702, "serialpos": 5, "key_press": -1, "wordID": 1617, "type": "PRES_AUD", "trial_index": 150}, "uniqueid": "MTK1447:3YDTZAI2WYNLMHOVOIQ6M3TSQGR410", "dateTime": 1515886797008}, {"current_trial": 151, "trialdata": {"rt": -1000, "trial_type": "single-audio", "word": "friend", "stimulus": "/static/audio/wordpool/FRIEND.wav", "conditions": [12, 800, "a", 12000], "internal_node_id": "0.0-106.0", "trial": 4, "time_elapsed": 897666, "serialpos": 6, "key_press": -1, "wordID": 605, "type": "PRES_AUD", "trial_index": 151}, "uniqueid": "MTK1447:3YDTZAI2WYNLMHOVOIQ6M3TSQGR410", "dateTime": 1515886798972}, {"current_trial": 152, "trialdata": {"rt": -1000, "trial_type": "single-audio", "word": "stomach", "stimulus": "/static/audio/wordpool/STOMACH.wav", "conditions": [12, 800, "a", 12000], "internal_node_id": "0.0-107.0", "trial": 4, "time_elapsed": 899317, "serialpos": 7, "key_press": -1, "wordID": 1383, "type": "PRES_AUD", "trial_index": 152}, "uniqueid": "MTK1447:3YDTZAI2WYNLMHOVOIQ6M3TSQGR410", "dateTime": 1515886800623}, {"current_trial": 153, "trialdata": {"rt": -1000, "trial_type": "single-audio", "word": "chest", "stimulus": "/static/audio/wordpool/CHEST.wav", "conditions": [12, 800, "a", 12000], "internal_node_id": "0.0-108.0", "trial": 4, "time_elapsed": 901035, "serialpos": 8, "key_press": -1, "wordID": 294, "type": "PRES_AUD", "trial_index": 153}, "uniqueid": "MTK1447:3YDTZAI2WYNLMHOVOIQ6M3TSQGR410", "dateTime": 1515886802341}, {"current_trial": 154, "trialdata": {"rt": -1000, "trial_type": "single-audio", "word": "ghetto", "stimulus": "/static/audio/wordpool/GHETTO.wav", "conditions": [12, 800, "a", 12000], "internal_node_id": "0.0-109.0", "trial": 4, "time_elapsed": 902800, "serialpos": 9, "key_press": -1, "wordID": 632, "type": "PRES_AUD", "trial_index": 154}, "uniqueid": "MTK1447:3YDTZAI2WYNLMHOVOIQ6M3TSQGR410", "dateTime": 1515886804106}, {"current_trial": 155, "trialdata": {"rt": -1000, "trial_type": "single-audio", "word": "fragrance", "stimulus": "/static/audio/wordpool/FRAGRANCE.wav", "conditions": [12, 800, "a", 12000], "internal_node_id": "0.0-110.0", "trial": 4, "time_elapsed": 904550, "serialpos": 10, "key_press": -1, "wordID": 598, "type": "PRES_AUD", "trial_index": 155}, "uniqueid": "MTK1447:3YDTZAI2WYNLMHOVOIQ6M3TSQGR410", "dateTime": 1515886805856}, {"current_trial": 156, "trialdata": {"rt": -1000, "trial_type": "single-audio", "word": "elbow", "stimulus": "/static/audio/wordpool/ELBOW.wav", "conditions": [12, 800, "a", 12000], "internal_node_id": "0.0-111.0", "trial": 4, "time_elapsed": 906547, "serialpos": 11, "key_press": -1, "wordID": 519, "type": "PRES_AUD", "trial_index": 156}, "uniqueid": "MTK1447:3YDTZAI2WYNLMHOVOIQ6M3TSQGR410", "dateTime": 1515886807853}, {"current_trial": 157, "trialdata": {"rt": -1, "trial_type": "single-stim", "stimulus": "", "internal_node_id": "0.0-112.0-0.0", "time_elapsed": 907842, "key_press": -1, "type": "PRE_RECALL_DELAY", "trial_index": 157}, "uniqueid": "MTK1447:3YDTZAI2WYNLMHOVOIQ6M3TSQGR410", "dateTime": 1515886809148}, {"current_trial": 158, "trialdata": {"rt": -1000, "trial_type": "single-audio", "stimulus": "/static/audio/400Hz.wav", "internal_node_id": "0.0-113.0", "time_elapsed": 908347, "key_press": -1, "type": "PRE_RECALL_ALERT", "trial_index": 158}, "uniqueid": "MTK1447:3YDTZAI2WYNLMHOVOIQ6M3TSQGR410", "dateTime": 1515886809653}, {"current_trial": 159, "trialdata": {"rt": [1963, 4382, 5867, 11214], "recwords": ["elbow", "fragrance", "cellar", "friend"], "key_times": [632, 716, 1133, 1315, 1459, 1963, 2850, 3069, 3330, 3468, 3615, 3845, 3985, 4135, 4236, 4382, 4702, 4769, 4923, 5076, 5164, 5477, 5867, 10236, 10405, 10566, 10703, 10856, 10999, 11214], "trial_type": "free-recall", "conditions": [12, 800, "a", 12000], "internal_node_id": "0.0-114.0-0.0", "key_presses": [69, 76, 66, 79, 87, 13, 70, 82, 65, 71, 82, 65, 78, 67, 69, 13, 67, 69, 76, 76, 65, 82, 13, 70, 82, 73, 69, 78, 68, 13], "trial": 4, "time_elapsed": 968352, "type": "FREE_RECALL", "trial_index": 159}, "uniqueid": "MTK1447:3YDTZAI2WYNLMHOVOIQ6M3TSQGR410", "dateTime": 1515886869664}, {"current_trial": 160, "trialdata": {"rt": 157324, "trial_type": "text", "internal_node_id": "0.0-115.0", "time_elapsed": 1127686, "key_press": 78, "type": "INSTRUCTIONS", "trial_index": 160}, "uniqueid": "MTK1447:3YDTZAI2WYNLMHOVOIQ6M3TSQGR410", "dateTime": 1515887028992}, {"current_trial": 161, "trialdata": {"rt": [2147, 4081, 7083, 9678, 11170], "trial_type": "math-distractor", "key_times": [1555, 2030, 2147, 3711, 3861, 4081, 6576, 6807, 7083, 9489, 9678, 10834, 10989, 11170], "responses": ["13", "16", "17", "7", "12"], "num2": [2, 4, 4, 2, 9, 9], "num3": [9, 7, 4, 1, 3, 3], "conditions": [12, 1600, "a", 12000], "internal_node_id": "0.0-116.0", "key_presses": [49, 51, 13, 49, 54, 13, 49, 55, 13, 55, 13, 49, 50, 13], "trial": 5, "time_elapsed": 1141692, "type": "DISTRACTOR", "trial_index": 161, "num1": [2, 5, 9, 4, 9, 7]}, "uniqueid": "MTK1447:3YDTZAI2WYNLMHOVOIQ6M3TSQGR410", "dateTime": 1515887042998}, {"current_trial": 162, "trialdata": {"rt": -1, "trial_type": "single-stim", "stimulus": "<p id=\"stim\">10</p>", "internal_node_id": "0.0-117.0-0.0", "time_elapsed": 1144696, "key_press": -1, "trial_index": 162}, "uniqueid": "MTK1447:3YDTZAI2WYNLMHOVOIQ6M3TSQGR410", "dateTime": 1515887046002}, {"current_trial": 163, "trialdata": {"rt": -1, "trial_type": "single-stim", "stimulus": "<p id=\"stim\">9</p>", "internal_node_id": "0.0-117.0-1.0", "time_elapsed": 1145697, "key_press": -1, "trial_index": 163}, "uniqueid": "MTK1447:3YDTZAI2WYNLMHOVOIQ6M3TSQGR410", "dateTime": 1515887047003}, {"current_trial": 164, "trialdata": {"rt": -1, "trial_type": "single-stim", "stimulus": "<p id=\"stim\">8</p>", "internal_node_id": "0.0-117.0-2.0", "time_elapsed": 1146699, "key_press": -1, "trial_index": 164}, "uniqueid": "MTK1447:3YDTZAI2WYNLMHOVOIQ6M3TSQGR410", "dateTime": 1515887048005}, {"current_trial": 165, "trialdata": {"rt": -1, "trial_type": "single-stim", "stimulus": "<p id=\"stim\">7</p>", "internal_node_id": "0.0-117.0-3.0", "time_elapsed": 1147701, "key_press": -1, "trial_index": 165}, "uniqueid": "MTK1447:3YDTZAI2WYNLMHOVOIQ6M3TSQGR410", "dateTime": 1515887049007}, {"current_trial": 166, "trialdata": {"rt": -1, "trial_type": "single-stim", "stimulus": "<p id=\"stim\">6</p>", "internal_node_id": "0.0-117.0-4.0", "time_elapsed": 1148704, "key_press": -1, "trial_index": 166}, "uniqueid": "MTK1447:3YDTZAI2WYNLMHOVOIQ6M3TSQGR410", "dateTime": 1515887050010}, {"current_trial": 167, "trialdata": {"rt": -1, "trial_type": "single-stim", "stimulus": "<p id=\"stim\">5</p>", "internal_node_id": "0.0-117.0-5.0", "time_elapsed": 1149706, "key_press": -1, "trial_index": 167}, "uniqueid": "MTK1447:3YDTZAI2WYNLMHOVOIQ6M3TSQGR410", "dateTime": 1515887051012}, {"current_trial": 168, "trialdata": {"rt": -1, "trial_type": "single-stim", "stimulus": "<p id=\"stim\">4</p>", "internal_node_id": "0.0-117.0-6.0", "time_elapsed": 1150708, "key_press": -1, "trial_index": 168}, "uniqueid": "MTK1447:3YDTZAI2WYNLMHOVOIQ6M3TSQGR410", "dateTime": 1515887052014}, {"current_trial": 169, "trialdata": {"rt": -1, "trial_type": "single-stim", "stimulus": "<p id=\"stim\">3</p>", "internal_node_id": "0.0-117.0-7.0", "time_elapsed": 1151712, "key_press": -1, "trial_index": 169}, "uniqueid": "MTK1447:3YDTZAI2WYNLMHOVOIQ6M3TSQGR410", "dateTime": 1515887053018}, {"current_trial": 170, "trialdata": {"rt": -1, "trial_type": "single-stim", "stimulus": "<p id=\"stim\">2</p>", "internal_node_id": "0.0-117.0-8.0", "time_elapsed": 1152715, "key_press": -1, "trial_index": 170}, "uniqueid": "MTK1447:3YDTZAI2WYNLMHOVOIQ6M3TSQGR410", "dateTime": 1515887054021}, {"current_trial": 171, "trialdata": {"rt": -1, "trial_type": "single-stim", "stimulus": "<p id=\"stim\">1</p>", "internal_node_id": "0.0-117.0-9.0", "time_elapsed": 1153717, "key_press": -1, "trial_index": 171}, "uniqueid": "MTK1447:3YDTZAI2WYNLMHOVOIQ6M3TSQGR410", "dateTime": 1515887055023}, {"current_trial": 172, "trialdata": {"rt": -1, "trial_type": "single-stim", "stimulus": "<p id=\"stim\">+</p>", "internal_node_id": "0.0-118.0-0.0", "time_elapsed": 1155219, "key_press": -1, "type": "FIXATION", "trial_index": 172}, "uniqueid": "MTK1447:3YDTZAI2WYNLMHOVOIQ6M3TSQGR410", "dateTime": 1515887056525}, {"current_trial": 173, "trialdata": {"rt": -1000, "trial_type": "single-audio", "word": "canyon", "stimulus": "/static/audio/wordpool/CANYON.wav", "conditions": [12, 1600, "a", 12000], "internal_node_id": "0.0-119.0", "trial": 5, "time_elapsed": 1157740, "serialpos": 0, "key_press": -1, "wordID": 234, "type": "PRES_AUD", "trial_index": 173}, "uniqueid": "MTK1447:3YDTZAI2WYNLMHOVOIQ6M3TSQGR410", "dateTime": 1515887059046}, {"current_trial": 174, "trialdata": {"rt": -1000, "trial_type": "single-audio", "word": "valley", "stimulus": "/static/audio/wordpool/VALLEY.wav", "conditions": [12, 1600, "a", 12000], "internal_node_id": "0.0-120.0", "trial": 5, "time_elapsed": 1160488, "serialpos": 1, "key_press": -1, "wordID": 1544, "type": "PRES_AUD", "trial_index": 174}, "uniqueid": "MTK1447:3YDTZAI2WYNLMHOVOIQ6M3TSQGR410", "dateTime": 1515887061794}, {"current_trial": 175, "trialdata": {"rt": -1000, "trial_type": "single-audio", "word": "forehead", "stimulus": "/static/audio/wordpool/FOREHEAD.wav", "conditions": [12, 1600, "a", 12000], "internal_node_id": "0.0-121.0", "trial": 5, "time_elapsed": 1163221, "serialpos": 2, "key_press": -1, "wordID": 591, "type": "PRES_AUD", "trial_index": 175}, "uniqueid": "MTK1447:3YDTZAI2WYNLMHOVOIQ6M3TSQGR410", "dateTime": 1515887064527}, {"current_trial": 176, "trialdata": {"rt": -1000, "trial_type": "single-audio", "word": "briefcase", "stimulus": "/static/audio/wordpool/BRIEFCASE.wav", "conditions": [12, 1600, "a", 12000], "internal_node_id": "0.0-122.0", "trial": 5, "time_elapsed": 1165999, "serialpos": 3, "key_press": -1, "wordID": 174, "type": "PRES_AUD", "trial_index": 176}, "uniqueid": "MTK1447:3YDTZAI2WYNLMHOVOIQ6M3TSQGR410", "dateTime": 1515887067305}, {"current_trial": 177, "trialdata": {"rt": -1000, "trial_type": "single-audio", "word": "picnic", "stimulus": "/static/audio/wordpool/PICNIC.wav", "conditions": [12, 1600, "a", 12000], "internal_node_id": "0.0-123.0", "trial": 5, "time_elapsed": 1168617, "serialpos": 4, "key_press": -1, "wordID": 1059, "type": "PRES_AUD", "trial_index": 177}, "uniqueid": "MTK1447:3YDTZAI2WYNLMHOVOIQ6M3TSQGR410", "dateTime": 1515887069923}, {"current_trial": 178, "trialdata": {"rt": -1000, "trial_type": "single-audio", "word": "globe", "stimulus": "/static/audio/wordpool/GLOBE.wav", "conditions": [12, 1600, "a", 12000], "internal_node_id": "0.0-124.0", "trial": 5, "time_elapsed": 1171095, "serialpos": 5, "key_press": -1, "wordID": 640, "type": "PRES_AUD", "trial_index": 178}, "uniqueid": "MTK1447:3YDTZAI2WYNLMHOVOIQ6M3TSQGR410", "dateTime": 1515887072401}, {"current_trial": 179, "trialdata": {"rt": -1000, "trial_type": "single-audio", "word": "permit", "stimulus": "/static/audio/wordpool/PERMIT.wav", "conditions": [12, 1600, "a", 12000], "internal_node_id": "0.0-125.0", "trial": 5, "time_elapsed": 1173835, "serialpos": 6, "key_press": -1, "wordID": 1050, "type": "PRES_AUD", "trial_index": 179}, "uniqueid": "MTK1447:3YDTZAI2WYNLMHOVOIQ6M3TSQGR410", "dateTime": 1515887075142}, {"current_trial": 180, "trialdata": {"rt": -1000, "trial_type": "single-audio", "word": "zebra", "stimulus": "/static/audio/wordpool/ZEBRA.wav", "conditions": [12, 1600, "a", 12000], "internal_node_id": "0.0-126.0", "trial": 5, "time_elapsed": 1176617, "serialpos": 7, "key_press": -1, "wordID": 1634, "type": "PRES_AUD", "trial_index": 180}, "uniqueid": "MTK1447:3YDTZAI2WYNLMHOVOIQ6M3TSQGR410", "dateTime": 1515887077923}, {"current_trial": 181, "trialdata": {"rt": -1000, "trial_type": "single-audio", "word": "lava", "stimulus": "/static/audio/wordpool/LAVA.wav", "conditions": [12, 1600, "a", 12000], "internal_node_id": "0.0-127.0", "trial": 5, "time_elapsed": 1179315, "serialpos": 8, "key_press": -1, "wordID": 803, "type": "PRES_AUD", "trial_index": 181}, "uniqueid": "MTK1447:3YDTZAI2WYNLMHOVOIQ6M3TSQGR410", "dateTime": 1515887080621}, {"current_trial": 182, "trialdata": {"rt": -1000, "trial_type": "single-audio", "word": "suitcase", "stimulus": "/static/audio/wordpool/SUITCASE.wav", "conditions": [12, 1600, "a", 12000], "internal_node_id": "0.0-128.0", "trial": 5, "time_elapsed": 1181891, "serialpos": 9, "key_press": -1, "wordID": 1402, "type": "PRES_AUD", "trial_index": 182}, "uniqueid": "MTK1447:3YDTZAI2WYNLMHOVOIQ6M3TSQGR410", "dateTime": 1515887083197}, {"current_trial": 183, "trialdata": {"rt": -1000, "trial_type": "single-audio", "word": "knife", "stimulus": "/static/audio/wordpool/KNIFE.wav", "conditions": [12, 1600, "a", 12000], "internal_node_id": "0.0-129.0", "trial": 5, "time_elapsed": 1184578, "serialpos": 10, "key_press": -1, "wordID": 784, "type": "PRES_AUD", "trial_index": 183}, "uniqueid": "MTK1447:3YDTZAI2WYNLMHOVOIQ6M3TSQGR410", "dateTime": 1515887085884}, {"current_trial": 184, "trialdata": {"rt": -1000, "trial_type": "single-audio", "word": "mop", "stimulus": "/static/audio/wordpool/MOP.wav", "conditions": [12, 1600, "a", 12000], "internal_node_id": "0.0-130.0", "trial": 5, "time_elapsed": 1186998, "serialpos": 11, "key_press": -1, "wordID": 915, "type": "PRES_AUD", "trial_index": 184}, "uniqueid": "MTK1447:3YDTZAI2WYNLMHOVOIQ6M3TSQGR410", "dateTime": 1515887088304}, {"current_trial": 185, "trialdata": {"rt": -1, "trial_type": "single-stim", "stimulus": "", "internal_node_id": "0.0-131.0-0.0", "time_elapsed": 1188387, "key_press": -1, "type": "PRE_RECALL_DELAY", "trial_index": 185}, "uniqueid": "MTK1447:3YDTZAI2WYNLMHOVOIQ6M3TSQGR410", "dateTime": 1515887089694}, {"current_trial": 186, "trialdata": {"rt": -1000, "trial_type": "single-audio", "stimulus": "/static/audio/400Hz.wav", "internal_node_id": "0.0-132.0", "time_elapsed": 1188894, "key_press": -1, "type": "PRE_RECALL_ALERT", "trial_index": 186}, "uniqueid": "MTK1447:3YDTZAI2WYNLMHOVOIQ6M3TSQGR410", "dateTime": 1515887090201}, {"current_trial": 187, "trialdata": {"rt": [1899, 3572, 5409, 6901, 10434, 22613, 28276], "recwords": ["mop", "canyone", "valley", "suitcase", "valley", "lava", "forehead"], "key_times": [484, 579, 784, 1899, 2491, 2715, 2768, 2963, 3145, 3234, 3378, 3572, 4566, 4693, 4799, 4929, 5042, 5185, 5409, 5639, 5719, 5803, 6026, 6127, 6335, 6533, 6704, 6901, 9502, 9655, 9788, 9910, 10026, 10172, 10434, 21918, 22018, 22267, 22389, 22613, 26113, 26195, 26355, 26965, 27118, 27291, 27492, 27736, 28276], "trial_type": "free-recall", "conditions": [12, 1600, "a", 12000], "internal_node_id": "0.0-133.0-0.0", "key_presses": [77, 79, 80, 13, 67, 65, 78, 89, 79, 78, 69, 13, 86, 65, 76, 76, 69, 89, 13, 83, 85, 73, 84, 67, 65, 83, 69, 13, 86, 65, 76, 76, 69, 89, 13, 76, 65, 86, 65, 13, 70, 79, 82, 69, 72, 69, 65, 68, 13], "trial": 5, "time_elapsed": 1248900, "type": "FREE_RECALL", "trial_index": 187}, "uniqueid": "MTK1447:3YDTZAI2WYNLMHOVOIQ6M3TSQGR410", "dateTime": 1515887150214}, {"current_trial": 188, "trialdata": {"rt": 28089, "trial_type": "text", "internal_node_id": "0.0-134.0", "time_elapsed": 1278999, "key_press": 74, "type": "INSTRUCTIONS", "trial_index": 188}, "uniqueid": "MTK1447:3YDTZAI2WYNLMHOVOIQ6M3TSQGR410", "dateTime": 1515887180305}, {"current_trial": 189, "trialdata": {"rt": [1925, 3277, 6851, 11847, 14292, 15784, 18599, 20227, 22683], "trial_type": "math-distractor", "key_times": [1555, 1781, 1925, 3055, 3110, 3277, 6533, 6691, 6851, 11360, 11685, 11847, 13758, 14149, 14292, 15489, 15630, 15784, 18283, 18483, 18599, 19867, 20117, 20227, 22054, 22489, 22683], "responses": ["13", "12", "20", "22", "16", "13", "14", "14", "19"], "num2": [2, 9, 7, 9, 7, 6, 9, 3, 9, 7], "num3": [9, 3, 8, 7, 1, 3, 3, 7, 4, 5], "conditions": [24, 800, "a", 24000], "internal_node_id": "0.0-135.0", "key_presses": [49, 51, 13, 49, 50, 13, 50, 48, 13, 50, 50, 13, 49, 54, 13, 49, 51, 13, 49, 52, 13, 49, 52, 13, 49, 57, 13], "trial": 6, "time_elapsed": 1305006, "type": "DISTRACTOR", "trial_index": 189, "num1": [2, 9, 5, 6, 8, 4, 2, 4, 6, 4]}, "uniqueid": "MTK1447:3YDTZAI2WYNLMHOVOIQ6M3TSQGR410", "dateTime": 1515887206312}, {"current_trial": 190, "trialdata": {"rt": -1, "trial_type": "single-stim", "stimulus": "<p id=\"stim\">10</p>", "internal_node_id": "0.0-136.0-0.0", "time_elapsed": 1308009, "key_press": -1, "trial_index": 190}, "uniqueid": "MTK1447:3YDTZAI2WYNLMHOVOIQ6M3TSQGR410", "dateTime": 1515887209315}, {"current_trial": 191, "trialdata": {"rt": -1, "trial_type": "single-stim", "stimulus": "<p id=\"stim\">9</p>", "internal_node_id": "0.0-136.0-1.0", "time_elapsed": 1309011, "key_press": -1, "trial_index": 191}, "uniqueid": "MTK1447:3YDTZAI2WYNLMHOVOIQ6M3TSQGR410", "dateTime": 1515887210317}, {"current_trial": 192, "trialdata": {"rt": -1, "trial_type": "single-stim", "stimulus": "<p id=\"stim\">8</p>", "internal_node_id": "0.0-136.0-2.0", "time_elapsed": 1310014, "key_press": -1, "trial_index": 192}, "uniqueid": "MTK1447:3YDTZAI2WYNLMHOVOIQ6M3TSQGR410", "dateTime": 1515887211320}, {"current_trial": 193, "trialdata": {"rt": -1, "trial_type": "single-stim", "stimulus": "<p id=\"stim\">7</p>", "internal_node_id": "0.0-136.0-3.0", "time_elapsed": 1311016, "key_press": -1, "trial_index": 193}, "uniqueid": "MTK1447:3YDTZAI2WYNLMHOVOIQ6M3TSQGR410", "dateTime": 1515887212322}, {"current_trial": 194, "trialdata": {"rt": -1, "trial_type": "single-stim", "stimulus": "<p id=\"stim\">6</p>", "internal_node_id": "0.0-136.0-4.0", "time_elapsed": 1312018, "key_press": -1, "trial_index": 194}, "uniqueid": "MTK1447:3YDTZAI2WYNLMHOVOIQ6M3TSQGR410", "dateTime": 1515887213324}, {"current_trial": 195, "trialdata": {"rt": -1, "trial_type": "single-stim", "stimulus": "<p id=\"stim\">5</p>", "internal_node_id": "0.0-136.0-5.0", "time_elapsed": 1313020, "key_press": -1, "trial_index": 195}, "uniqueid": "MTK1447:3YDTZAI2WYNLMHOVOIQ6M3TSQGR410", "dateTime": 1515887214327}, {"current_trial": 196, "trialdata": {"rt": -1, "trial_type": "single-stim", "stimulus": "<p id=\"stim\">4</p>", "internal_node_id": "0.0-136.0-6.0", "time_elapsed": 1314023, "key_press": -1, "trial_index": 196}, "uniqueid": "MTK1447:3YDTZAI2WYNLMHOVOIQ6M3TSQGR410", "dateTime": 1515887215329}, {"current_trial": 197, "trialdata": {"rt": -1, "trial_type": "single-stim", "stimulus": "<p id=\"stim\">3</p>", "internal_node_id": "0.0-136.0-7.0", "time_elapsed": 1315025, "key_press": -1, "trial_index": 197}, "uniqueid": "MTK1447:3YDTZAI2WYNLMHOVOIQ6M3TSQGR410", "dateTime": 1515887216332}, {"current_trial": 198, "trialdata": {"rt": -1, "trial_type": "single-stim", "stimulus": "<p id=\"stim\">2</p>", "internal_node_id": "0.0-136.0-8.0", "time_elapsed": 1316027, "key_press": -1, "trial_index": 198}, "uniqueid": "MTK1447:3YDTZAI2WYNLMHOVOIQ6M3TSQGR410", "dateTime": 1515887217333}, {"current_trial": 199, "trialdata": {"rt": -1, "trial_type": "single-stim", "stimulus": "<p id=\"stim\">1</p>", "internal_node_id": "0.0-136.0-9.0", "time_elapsed": 1317030, "key_press": -1, "trial_index": 199}, "uniqueid": "MTK1447:3YDTZAI2WYNLMHOVOIQ6M3TSQGR410", "dateTime": 1515887218336}, {"current_trial": 200, "trialdata": {"rt": -1, "trial_type": "single-stim", "stimulus": "<p id=\"stim\">+</p>", "internal_node_id": "0.0-137.0-0.0", "time_elapsed": 1318532, "key_press": -1, "type": "FIXATION", "trial_index": 200}, "uniqueid": "MTK1447:3YDTZAI2WYNLMHOVOIQ6M3TSQGR410", "dateTime": 1515887219838}, {"current_trial": 201, "trialdata": {"rt": -1000, "trial_type": "single-audio", "word": "asia", "stimulus": "/static/audio/wordpool/ASIA.wav", "conditions": [24, 800, "a", 24000], "internal_node_id": "0.0-138.0", "trial": 6, "time_elapsed": 1320463, "serialpos": 0, "key_press": -1, "wordID": 45, "type": "PRES_AUD", "trial_index": 201}, "uniqueid": "MTK1447:3YDTZAI2WYNLMHOVOIQ6M3TSQGR410", "dateTime": 1515887221770}, {"current_trial": 202, "trialdata": {"rt": -1000, "trial_type": "single-audio", "word": "drawing", "stimulus": "/static/audio/wordpool/DRAWING.wav", "conditions": [24, 800, "a", 24000], "internal_node_id": "0.0-139.0", "trial": 6, "time_elapsed": 1322355, "serialpos": 1, "key_press": -1, "wordID": 493, "type": "PRES_AUD", "trial_index": 202}, "uniqueid": "MTK1447:3YDTZAI2WYNLMHOVOIQ6M3TSQGR410", "dateTime": 1515887223661}, {"current_trial": 203, "trialdata": {"rt": -1000, "trial_type": "single-audio", "word": "kitchen", "stimulus": "/static/audio/wordpool/KITCHEN.wav", "conditions": [24, 800, "a", 24000], "internal_node_id": "0.0-140.0", "trial": 6, "time_elapsed": 1324209, "serialpos": 2, "key_press": -1, "wordID": 777, "type": "PRES_AUD", "trial_index": 203}, "uniqueid": "MTK1447:3YDTZAI2WYNLMHOVOIQ6M3TSQGR410", "dateTime": 1515887225515}, {"current_trial": 204, "trialdata": {"rt": -1000, "trial_type": "single-audio", "word": "stream", "stimulus": "/static/audio/wordpool/STREAM.wav", "conditions": [24, 800, "a", 24000], "internal_node_id": "0.0-141.0", "trial": 6, "time_elapsed": 1325942, "serialpos": 3, "key_press": -1, "wordID": 1391, "type": "PRES_AUD", "trial_index": 204}, "uniqueid": "MTK1447:3YDTZAI2WYNLMHOVOIQ6M3TSQGR410", "dateTime": 1515887227249}, {"current_trial": 205, "trialdata": {"rt": -1000, "trial_type": "single-audio", "word": "washer", "stimulus": "/static/audio/wordpool/WASHER.wav", "conditions": [24, 800, "a", 24000], "internal_node_id": "0.0-142.0", "trial": 6, "time_elapsed": 1327909, "serialpos": 4, "key_press": -1, "wordID": 1591, "type": "PRES_AUD", "trial_index": 205}, "uniqueid": "MTK1447:3YDTZAI2WYNLMHOVOIQ6M3TSQGR410", "dateTime": 1515887229215}, {"current_trial": 206, "trialdata": {"rt": -1000, "trial_type": "single-audio", "word": "shoulder", "stimulus": "/static/audio/wordpool/SHOULDER.wav", "conditions": [24, 800, "a", 24000], "internal_node_id": "0.0-143.0", "trial": 6, "time_elapsed": 1329646, "serialpos": 5, "key_press": -1, "wordID": 1293, "type": "PRES_AUD", "trial_index": 206}, "uniqueid": "MTK1447:3YDTZAI2WYNLMHOVOIQ6M3TSQGR410", "dateTime": 1515887230952}, {"current_trial": 207, "trialdata": {"rt": -1000, "trial_type": "single-audio", "word": "ankle", "stimulus": "/static/audio/wordpool/ANKLE.wav", "conditions": [24, 800, "a", 24000], "internal_node_id": "0.0-144.0", "trial": 6, "time_elapsed": 1331423, "serialpos": 6, "key_press": -1, "wordID": 23, "type": "PRES_AUD", "trial_index": 207}, "uniqueid": "MTK1447:3YDTZAI2WYNLMHOVOIQ6M3TSQGR410", "dateTime": 1515887232729}, {"current_trial": 208, "trialdata": {"rt": -1000, "trial_type": "single-audio", "word": "basement", "stimulus": "/static/audio/wordpool/BASEMENT.wav", "conditions": [24, 800, "a", 24000], "internal_node_id": "0.0-145.0", "trial": 6, "time_elapsed": 1333358, "serialpos": 7, "key_press": -1, "wordID": 93, "type": "PRES_AUD", "trial_index": 208}, "uniqueid": "MTK1447:3YDTZAI2WYNLMHOVOIQ6M3TSQGR410", "dateTime": 1515887234665}, {"current_trial": 209, "trialdata": {"rt": -1000, "trial_type": "single-audio", "word": "pocket", "stimulus": "/static/audio/wordpool/POCKET.wav", "conditions": [24, 800, "a", 24000], "internal_node_id": "0.0-146.0", "trial": 6, "time_elapsed": 1335003, "serialpos": 8, "key_press": -1, "wordID": 1092, "type": "PRES_AUD", "trial_index": 209}, "uniqueid": "MTK1447:3YDTZAI2WYNLMHOVOIQ6M3TSQGR410", "dateTime": 1515887236309}, {"current_trial": 210, "trialdata": {"rt": -1000, "trial_type": "single-audio", "word": "pliers", "stimulus": "/static/audio/wordpool/PLIERS.wav", "conditions": [24, 800, "a", 24000], "internal_node_id": "0.0-147.0", "trial": 6, "time_elapsed": 1336669, "serialpos": 9, "key_press": -1, "wordID": 1088, "type": "PRES_AUD", "trial_index": 210}, "uniqueid": "MTK1447:3YDTZAI2WYNLMHOVOIQ6M3TSQGR410", "dateTime": 1515887237976}, {"current_trial": 211, "trialdata": {"rt": -1000, "trial_type": "single-audio", "word": "cowboy", "stimulus": "/static/audio/wordpool/COWBOY.wav", "conditions": [24, 800, "a", 24000], "internal_node_id": "0.0-148.0", "trial": 6, "time_elapsed": 1338590, "serialpos": 10, "key_press": -1, "wordID": 394, "type": "PRES_AUD", "trial_index": 211}, "uniqueid": "MTK1447:3YDTZAI2WYNLMHOVOIQ6M3TSQGR410", "dateTime": 1515887239896}, {"current_trial": 212, "trialdata": {"rt": -1000, "trial_type": "single-audio", "word": "scribble", "stimulus": "/static/audio/wordpool/SCRIBBLE.wav", "conditions": [24, 800, "a", 24000], "internal_node_id": "0.0-149.0", "trial": 6, "time_elapsed": 1340213, "serialpos": 11, "key_press": -1, "wordID": 1255, "type": "PRES_AUD", "trial_index": 212}, "uniqueid": "MTK1447:3YDTZAI2WYNLMHOVOIQ6M3TSQGR410", "dateTime": 1515887241526}, {"current_trial": 213, "trialdata": {"rt": -1000, "trial_type": "single-audio", "word": "juggler", "stimulus": "/static/audio/wordpool/JUGGLER.wav", "conditions": [24, 800, "a", 24000], "internal_node_id": "0.0-150.0", "trial": 6, "time_elapsed": 1342007, "serialpos": 12, "key_press": -1, "wordID": 762, "type": "PRES_AUD", "trial_index": 213}, "uniqueid": "MTK1447:3YDTZAI2WYNLMHOVOIQ6M3TSQGR410", "dateTime": 1515887243313}, {"current_trial": 214, "trialdata": {"rt": -1000, "trial_type": "single-audio", "word": "champagne", "stimulus": "/static/audio/wordpool/CHAMPAGNE.wav", "conditions": [24, 800, "a", 24000], "internal_node_id": "0.0-151.0", "trial": 6, "time_elapsed": 1343911, "serialpos": 13, "key_press": -1, "wordID": 277, "type": "PRES_AUD", "trial_index": 214}, "uniqueid": "MTK1447:3YDTZAI2WYNLMHOVOIQ6M3TSQGR410", "dateTime": 1515887245217}, {"current_trial": 215, "trialdata": {"rt": -1000, "trial_type": "single-audio", "word": "pork", "stimulus": "/static/audio/wordpool/PORK.wav", "conditions": [24, 800, "a", 24000], "internal_node_id": "0.0-152.0", "trial": 6, "time_elapsed": 1345686, "serialpos": 14, "key_press": -1, "wordID": 1107, "type": "PRES_AUD", "trial_index": 215}, "uniqueid": "MTK1447:3YDTZAI2WYNLMHOVOIQ6M3TSQGR410", "dateTime": 1515887246992}, {"current_trial": 216, "trialdata": {"rt": -1000, "trial_type": "single-audio", "word": "body", "stimulus": "/static/audio/wordpool/BODY.wav", "conditions": [24, 800, "a", 24000], "internal_node_id": "0.0-153.0", "trial": 6, "time_elapsed": 1347378, "serialpos": 15, "key_press": -1, "wordID": 144, "type": "PRES_AUD", "trial_index": 216}, "uniqueid": "MTK1447:3YDTZAI2WYNLMHOVOIQ6M3TSQGR410", "dateTime": 1515887248685}, {"current_trial": 217, "trialdata": {"rt": -1000, "trial_type": "single-audio", "word": "chapel", "stimulus": "/static/audio/wordpool/CHAPEL.wav", "conditions": [24, 800, "a", 24000], "internal_node_id": "0.0-154.0", "trial": 6, "time_elapsed": 1349049, "serialpos": 16, "key_press": -1, "wordID": 279, "type": "PRES_AUD", "trial_index": 217}, "uniqueid": "MTK1447:3YDTZAI2WYNLMHOVOIQ6M3TSQGR410", "dateTime": 1515887250356}, {"current_trial": 218, "trialdata": {"rt": -1000, "trial_type": "single-audio", "word": "donkey", "stimulus": "/static/audio/wordpool/DONKEY.wav", "conditions": [24, 800, "a", 24000], "internal_node_id": "0.0-155.0", "trial": 6, "time_elapsed": 1350714, "serialpos": 17, "key_press": -1, "wordID": 483, "type": "PRES_AUD", "trial_index": 218}, "uniqueid": "MTK1447:3YDTZAI2WYNLMHOVOIQ6M3TSQGR410", "dateTime": 1515887252020}, {"current_trial": 219, "trialdata": {"rt": -1000, "trial_type": "single-audio", "word": "brother", "stimulus": "/static/audio/wordpool/BROTHER.wav", "conditions": [24, 800, "a", 24000], "internal_node_id": "0.0-156.0", "trial": 6, "time_elapsed": 1352376, "serialpos": 18, "key_press": -1, "wordID": 178, "type": "PRES_AUD", "trial_index": 219}, "uniqueid": "MTK1447:3YDTZAI2WYNLMHOVOIQ6M3TSQGR410", "dateTime": 1515887253683}, {"current_trial": 220, "trialdata": {"rt": -1000, "trial_type": "single-audio", "word": "seafood", "stimulus": "/static/audio/wordpool/SEAFOOD.wav", "conditions": [24, 800, "a", 24000], "internal_node_id": "0.0-157.0", "trial": 6, "time_elapsed": 1354293, "serialpos": 19, "key_press": -1, "wordID": 1259, "type": "PRES_AUD", "trial_index": 220}, "uniqueid": "MTK1447:3YDTZAI2WYNLMHOVOIQ6M3TSQGR410", "dateTime": 1515887255600}, {"current_trial": 221, "trialdata": {"rt": -1000, "trial_type": "single-audio", "word": "gymnast", "stimulus": "/static/audio/wordpool/GYMNAST.wav", "conditions": [24, 800, "a", 24000], "internal_node_id": "0.0-158.0", "trial": 6, "time_elapsed": 1356043, "serialpos": 20, "key_press": -1, "wordID": 674, "type": "PRES_AUD", "trial_index": 221}, "uniqueid": "MTK1447:3YDTZAI2WYNLMHOVOIQ6M3TSQGR410", "dateTime": 1515887257349}, {"current_trial": 222, "trialdata": {"rt": -1000, "trial_type": "single-audio", "word": "girl", "stimulus": "/static/audio/wordpool/GIRL.wav", "conditions": [24, 800, "a", 24000], "internal_node_id": "0.0-159.0", "trial": 6, "time_elapsed": 1357667, "serialpos": 21, "key_press": -1, "wordID": 636, "type": "PRES_AUD", "trial_index": 222}, "uniqueid": "MTK1447:3YDTZAI2WYNLMHOVOIQ6M3TSQGR410", "dateTime": 1515887258974}, {"current_trial": 223, "trialdata": {"rt": -1000, "trial_type": "single-audio", "word": "shrub", "stimulus": "/static/audio/wordpool/SHRUB.wav", "conditions": [24, 800, "a", 24000], "internal_node_id": "0.0-160.0", "trial": 6, "time_elapsed": 1359399, "serialpos": 22, "key_press": -1, "wordID": 1298, "type": "PRES_AUD", "trial_index": 223}, "uniqueid": "MTK1447:3YDTZAI2WYNLMHOVOIQ6M3TSQGR410", "dateTime": 1515887260706}, {"current_trial": 224, "trialdata": {"rt": -1000, "trial_type": "single-audio", "word": "orchid", "stimulus": "/static/audio/wordpool/ORCHID.wav", "conditions": [24, 800, "a", 24000], "internal_node_id": "0.0-161.0", "trial": 6, "time_elapsed": 1361194, "serialpos": 23, "key_press": -1, "wordID": 981, "type": "PRES_AUD", "trial_index": 224}, "uniqueid": "MTK1447:3YDTZAI2WYNLMHOVOIQ6M3TSQGR410", "dateTime": 1515887262500}, {"current_trial": 225, "trialdata": {"rt": -1, "trial_type": "single-stim", "stimulus": "", "internal_node_id": "0.0-162.0-0.0", "time_elapsed": 1362523, "key_press": -1, "type": "PRE_RECALL_DELAY", "trial_index": 225}, "uniqueid": "MTK1447:3YDTZAI2WYNLMHOVOIQ6M3TSQGR410", "dateTime": 1515887263829}, {"current_trial": 226, "trialdata": {"rt": -1000, "trial_type": "single-audio", "stimulus": "/static/audio/400Hz.wav", "internal_node_id": "0.0-163.0", "time_elapsed": 1363028, "key_press": -1, "type": "PRE_RECALL_ALERT", "trial_index": 226}, "uniqueid": "MTK1447:3YDTZAI2WYNLMHOVOIQ6M3TSQGR410", "dateTime": 1515887264334}, {"current_trial": 227, "trialdata": {"rt": [3606, 6612, 11210, 12916, 14427, 39345], "recwords": ["shrub", "orchid", "donkey", "zebra", "shoulder", "drawing"], "key_times": [835, 1578, 1672, 1931, 2182, 2538, 2645, 3296, 3373, 3606, 4248, 4381, 4606, 4746, 6256, 6521, 6612, 6870, 7171, 7590, 8041, 8373, 8766, 8950, 9354, 9479, 10151, 10496, 10666, 10822, 10958, 11210, 12016, 12270, 12486, 12601, 12811, 12916, 13277, 13352, 13521, 13623, 13737, 13857, 14062, 14253, 14427, 37651, 37845, 38069, 38329, 38722, 38814, 38925, 39345], "trial_type": "free-recall", "conditions": [24, 800, "a", 24000], "internal_node_id": "0.0-164.0-0.0", "key_presses": [83, 72, 82, 89, 66, 8, 8, 85, 66, 13, 79, 82, 67, 72, 73, 68, 13, 68, 78, 8, 78, 8, 78, 75, 8, 8, 79, 78, 75, 69, 89, 13, 90, 69, 66, 82, 65, 13, 83, 72, 79, 85, 76, 68, 69, 82, 13, 68, 82, 65, 87, 73, 78, 71, 13], "trial": 6, "time_elapsed": 1423025, "type": "FREE_RECALL", "trial_index": 227}, "uniqueid": "MTK1447:3YDTZAI2WYNLMHOVOIQ6M3TSQGR410", "dateTime": 1515887324340}, {"current_trial": 228, "trialdata": {"rt": 448, "trial_type": "text", "internal_node_id": "0.0-165.0", "time_elapsed": 1425493, "key_press": 83, "type": "INSTRUCTIONS", "trial_index": 228}, "uniqueid": "MTK1447:3YDTZAI2WYNLMHOVOIQ6M3TSQGR410", "dateTime": 1515887326799}, {"current_trial": 229, "trialdata": {"rt": [3199, 7885, 10495], "trial_type": "math-distractor", "key_times": [2849, 2933, 3199, 7642, 7729, 7885, 10298, 10495], "responses": ["13", "21", "8"], "num2": [2, 4, 4, 9], "num3": [5, 9, 2, 1], "conditions": [24, 800, "a", 12000], "internal_node_id": "0.0-166.0", "key_presses": [49, 51, 13, 50, 49, 13, 56, 13], "trial": 7, "time_elapsed": 1439500, "type": "DISTRACTOR", "trial_index": 229, "num1": [6, 8, 2, 2]}, "uniqueid": "MTK1447:3YDTZAI2WYNLMHOVOIQ6M3TSQGR410", "dateTime": 1515887340806}, {"current_trial": 230, "trialdata": {"rt": -1, "trial_type": "single-stim", "stimulus": "<p id=\"stim\">10</p>", "internal_node_id": "0.0-167.0-0.0", "time_elapsed": 1442502, "key_press": -1, "trial_index": 230}, "uniqueid": "MTK1447:3YDTZAI2WYNLMHOVOIQ6M3TSQGR410", "dateTime": 1515887343808}, {"current_trial": 231, "trialdata": {"rt": -1, "trial_type": "single-stim", "stimulus": "<p id=\"stim\">9</p>", "internal_node_id": "0.0-167.0-1.0", "time_elapsed": 1443504, "key_press": -1, "trial_index": 231}, "uniqueid": "MTK1447:3YDTZAI2WYNLMHOVOIQ6M3TSQGR410", "dateTime": 1515887344810}, {"current_trial": 232, "trialdata": {"rt": -1, "trial_type": "single-stim", "stimulus": "<p id=\"stim\">8</p>", "internal_node_id": "0.0-167.0-2.0", "time_elapsed": 1444506, "key_press": -1, "trial_index": 232}, "uniqueid": "MTK1447:3YDTZAI2WYNLMHOVOIQ6M3TSQGR410", "dateTime": 1515887345813}, {"current_trial": 233, "trialdata": {"rt": -1, "trial_type": "single-stim", "stimulus": "<p id=\"stim\">7</p>", "internal_node_id": "0.0-167.0-3.0", "time_elapsed": 1445510, "key_press": -1, "trial_index": 233}, "uniqueid": "MTK1447:3YDTZAI2WYNLMHOVOIQ6M3TSQGR410", "dateTime": 1515887346816}, {"current_trial": 234, "trialdata": {"rt": -1, "trial_type": "single-stim", "stimulus": "<p id=\"stim\">6</p>", "internal_node_id": "0.0-167.0-4.0", "time_elapsed": 1446512, "key_press": -1, "trial_index": 234}, "uniqueid": "MTK1447:3YDTZAI2WYNLMHOVOIQ6M3TSQGR410", "dateTime": 1515887347818}, {"current_trial": 235, "trialdata": {"rt": -1, "trial_type": "single-stim", "stimulus": "<p id=\"stim\">5</p>", "internal_node_id": "0.0-167.0-5.0", "time_elapsed": 1447514, "key_press": -1, "trial_index": 235}, "uniqueid": "MTK1447:3YDTZAI2WYNLMHOVOIQ6M3TSQGR410", "dateTime": 1515887348820}, {"current_trial": 236, "trialdata": {"rt": -1, "trial_type": "single-stim", "stimulus": "<p id=\"stim\">4</p>", "internal_node_id": "0.0-167.0-6.0", "time_elapsed": 1448517, "key_press": -1, "trial_index": 236}, "uniqueid": "MTK1447:3YDTZAI2WYNLMHOVOIQ6M3TSQGR410", "dateTime": 1515887349823}, {"current_trial": 237, "trialdata": {"rt": -1, "trial_type": "single-stim", "stimulus": "<p id=\"stim\">3</p>", "internal_node_id": "0.0-167.0-7.0", "time_elapsed": 1449519, "key_press": -1, "trial_index": 237}, "uniqueid": "MTK1447:3YDTZAI2WYNLMHOVOIQ6M3TSQGR410", "dateTime": 1515887350825}, {"current_trial": 238, "trialdata": {"rt": -1, "trial_type": "single-stim", "stimulus": "<p id=\"stim\">2</p>", "internal_node_id": "0.0-167.0-8.0", "time_elapsed": 1450521, "key_press": -1, "trial_index": 238}, "uniqueid": "MTK1447:3YDTZAI2WYNLMHOVOIQ6M3TSQGR410", "dateTime": 1515887351827}, {"current_trial": 239, "trialdata": {"rt": -1, "trial_type": "single-stim", "stimulus": "<p id=\"stim\">1</p>", "internal_node_id": "0.0-167.0-9.0", "time_elapsed": 1451523, "key_press": -1, "trial_index": 239}, "uniqueid": "MTK1447:3YDTZAI2WYNLMHOVOIQ6M3TSQGR410", "dateTime": 1515887352830}, {"current_trial": 240, "trialdata": {"rt": -1, "trial_type": "single-stim", "stimulus": "<p id=\"stim\">+</p>", "internal_node_id": "0.0-168.0-0.0", "time_elapsed": 1453025, "key_press": -1, "type": "FIXATION", "trial_index": 240}, "uniqueid": "MTK1447:3YDTZAI2WYNLMHOVOIQ6M3TSQGR410", "dateTime": 1515887354331}, {"current_trial": 241, "trialdata": {"rt": -1000, "trial_type": "single-audio", "word": "teacher", "stimulus": "/static/audio/wordpool/TEACHER.wav", "conditions": [24, 800, "a", 12000], "internal_node_id": "0.0-169.0", "trial": 7, "time_elapsed": 1454732, "serialpos": 0, "key_press": -1, "wordID": 1439, "type": "PRES_AUD", "trial_index": 241}, "uniqueid": "MTK1447:3YDTZAI2WYNLMHOVOIQ6M3TSQGR410", "dateTime": 1515887356038}, {"current_trial": 242, "trialdata": {"rt": -1000, "trial_type": "single-audio", "word": "student", "stimulus": "/static/audio/wordpool/STUDENT.wav", "conditions": [24, 800, "a", 12000], "internal_node_id": "0.0-170.0", "trial": 7, "time_elapsed": 1456472, "serialpos": 1, "key_press": -1, "wordID": 1394, "type": "PRES_AUD", "trial_index": 242}, "uniqueid": "MTK1447:3YDTZAI2WYNLMHOVOIQ6M3TSQGR410", "dateTime": 1515887357778}, {"current_trial": 243, "trialdata": {"rt": -1000, "trial_type": "single-audio", "word": "lady", "stimulus": "/static/audio/wordpool/LADY.wav", "conditions": [24, 800, "a", 12000], "internal_node_id": "0.0-171.0", "trial": 7, "time_elapsed": 1458393, "serialpos": 2, "key_press": -1, "wordID": 793, "type": "PRES_AUD", "trial_index": 243}, "uniqueid": "MTK1447:3YDTZAI2WYNLMHOVOIQ6M3TSQGR410", "dateTime": 1515887359700}, {"current_trial": 244, "trialdata": {"rt": -1000, "trial_type": "single-audio", "word": "headband", "stimulus": "/static/audio/wordpool/HEADBAND.wav", "conditions": [24, 800, "a", 12000], "internal_node_id": "0.0-172.0", "trial": 7, "time_elapsed": 1460305, "serialpos": 3, "key_press": -1, "wordID": 695, "type": "PRES_AUD", "trial_index": 244}, "uniqueid": "MTK1447:3YDTZAI2WYNLMHOVOIQ6M3TSQGR410", "dateTime": 1515887361611}, {"current_trial": 245, "trialdata": {"rt": -1000, "trial_type": "single-audio", "word": "dress", "stimulus": "/static/audio/wordpool/DRESS.wav", "conditions": [24, 800, "a", 12000], "internal_node_id": "0.0-173.0", "trial": 7, "time_elapsed": 1462002, "serialpos": 4, "key_press": -1, "wordID": 494, "type": "PRES_AUD", "trial_index": 245}, "uniqueid": "MTK1447:3YDTZAI2WYNLMHOVOIQ6M3TSQGR410", "dateTime": 1515887363308}, {"current_trial": 246, "trialdata": {"rt": -1000, "trial_type": "single-audio", "word": "lipstick", "stimulus": "/static/audio/wordpool/LIPSTICK.wav", "conditions": [24, 800, "a", 12000], "internal_node_id": "0.0-174.0", "trial": 7, "time_elapsed": 1463961, "serialpos": 5, "key_press": -1, "wordID": 828, "type": "PRES_AUD", "trial_index": 246}, "uniqueid": "MTK1447:3YDTZAI2WYNLMHOVOIQ6M3TSQGR410", "dateTime": 1515887365267}, {"current_trial": 247, "trialdata": {"rt": -1000, "trial_type": "single-audio", "word": "soda", "stimulus": "/static/audio/wordpool/SODA.wav", "conditions": [24, 800, "a", 12000], "internal_node_id": "0.0-175.0", "trial": 7, "time_elapsed": 1465857, "serialpos": 6, "key_press": -1, "wordID": 1340, "type": "PRES_AUD", "trial_index": 247}, "uniqueid": "MTK1447:3YDTZAI2WYNLMHOVOIQ6M3TSQGR410", "dateTime": 1515887367163}, {"current_trial": 248, "trialdata": {"rt": -1000, "trial_type": "single-audio", "word": "mildew", "stimulus": "/static/audio/wordpool/MILDEW.wav", "conditions": [24, 800, "a", 12000], "internal_node_id": "0.0-176.0", "trial": 7, "time_elapsed": 1467791, "serialpos": 7, "key_press": -1, "wordID": 892, "type": "PRES_AUD", "trial_index": 248}, "uniqueid": "MTK1447:3YDTZAI2WYNLMHOVOIQ6M3TSQGR410", "dateTime": 1515887369097}, {"current_trial": 249, "trialdata": {"rt": -1000, "trial_type": "single-audio", "word": "dancer", "stimulus": "/static/audio/wordpool/DANCER.wav", "conditions": [24, 800, "a", 12000], "internal_node_id": "0.0-177.0", "trial": 7, "time_elapsed": 1469723, "serialpos": 8, "key_press": -1, "wordID": 436, "type": "PRES_AUD", "trial_index": 249}, "uniqueid": "MTK1447:3YDTZAI2WYNLMHOVOIQ6M3TSQGR410", "dateTime": 1515887371029}, {"current_trial": 250, "trialdata": {"rt": -1000, "trial_type": "single-audio", "word": "clam", "stimulus": "/static/audio/wordpool/CLAM.wav", "conditions": [24, 800, "a", 12000], "internal_node_id": "0.0-178.0", "trial": 7, "time_elapsed": 1471352, "serialpos": 9, "key_press": -1, "wordID": 314, "type": "PRES_AUD", "trial_index": 250}, "uniqueid": "MTK1447:3YDTZAI2WYNLMHOVOIQ6M3TSQGR410", "dateTime": 1515887372658}, {"current_trial": 251, "trialdata": {"rt": -1000, "trial_type": "single-audio", "word": "sibling", "stimulus": "/static/audio/wordpool/SIBLING.wav", "conditions": [24, 800, "a", 12000], "internal_node_id": "0.0-179.0", "trial": 7, "time_elapsed": 1473318, "serialpos": 10, "key_press": -1, "wordID": 1300, "type": "PRES_AUD", "trial_index": 251}, "uniqueid": "MTK1447:3YDTZAI2WYNLMHOVOIQ6M3TSQGR410", "dateTime": 1515887374624}, {"current_trial": 252, "trialdata": {"rt": -1000, "trial_type": "single-audio", "word": "woman", "stimulus": "/static/audio/wordpool/WOMAN.wav", "conditions": [24, 800, "a", 12000], "internal_node_id": "0.0-180.0", "trial": 7, "time_elapsed": 1475222, "serialpos": 11, "key_press": -1, "wordID": 1619, "type": "PRES_AUD", "trial_index": 252}, "uniqueid": "MTK1447:3YDTZAI2WYNLMHOVOIQ6M3TSQGR410", "dateTime": 1515887376528}, {"current_trial": 253, "trialdata": {"rt": -1000, "trial_type": "single-audio", "word": "france", "stimulus": "/static/audio/wordpool/FRANCE.wav", "conditions": [24, 800, "a", 12000], "internal_node_id": "0.0-181.0", "trial": 7, "time_elapsed": 1477158, "serialpos": 12, "key_press": -1, "wordID": 600, "type": "PRES_AUD", "trial_index": 253}, "uniqueid": "MTK1447:3YDTZAI2WYNLMHOVOIQ6M3