{"condition": 0, "counterbalance": 1843, "assignmentId": "35USIKEBNSN2FBZYCTHJG8Q9N366NN", "workerId": "MTK1290", "hitId": "3DWGDA5POFBITA9GICMR69XLMCDV1O", "currenttrial": 626, "bonus": 0, "data": [{"uniqueid": "MTK1290:35USIKEBNSN2FBZYCTHJG8Q9N366NN", "current_trial": 0, "dateTime": 1513536049070, "trialdata": {"rt": 1885, "key_press": 32, "type": "INSTRUCTIONS", "trial_type": "text", "trial_index": 0, "time_elapsed": 1889, "internal_node_id": "0.0-0.0"}}, {"uniqueid": "MTK1290:35USIKEBNSN2FBZYCTHJG8Q9N366NN", "current_trial": 1, "dateTime": 1513536059107, "trialdata": {"rt": 10033, "key_press": 175, "type": "INSTRUCTIONS", "trial_type": "text", "trial_index": 1, "time_elapsed": 11928, "internal_node_id": "0.0-1.0"}}, {"uniqueid": "MTK1290:35USIKEBNSN2FBZYCTHJG8Q9N366NN", "current_trial": 2, "dateTime": 1513536157315, "trialdata": {"rt": [98139], "responses": ["ocean"], "type": "AUDIO_TEST", "trial_type": "audio-test", "trial_index": 2, "time_elapsed": 110135, "internal_node_id": "0.0-2.0"}}, {"uniqueid": "MTK1290:35USIKEBNSN2FBZYCTHJG8Q9N366NN", "current_trial": 3, "dateTime": 1513536164381, "trialdata": {"rt": [7063], "responses": ["crystal"], "type": "AUDIO_TEST", "trial_type": "audio-test", "trial_index": 3, "time_elapsed": 117202, "internal_node_id": "0.0-3.0"}}, {"uniqueid": "MTK1290:35USIKEBNSN2FBZYCTHJG8Q9N366NN", "current_trial": 4, "dateTime": 1513536168415, "trialdata": {"rt": [4030], "responses": ["spice"], "type": "AUDIO_TEST", "trial_type": "audio-test", "trial_index": 4, "time_elapsed": 121236, "internal_node_id": "0.0-4.0"}}, {"uniqueid": "MTK1290:35USIKEBNSN2FBZYCTHJG8Q9N366NN", "current_trial": 5, "dateTime": 1513536211927, "trialdata": {"rt": 42757, "responses": "{\"Q0\":\"2 AM\",\"Q1\":\"9 AM \",\"Q2\":\"5\"}", "type": "SLEEP_SURVEY", "trial_type": "survey-text", "trial_index": 5, "time_elapsed": 164748, "internal_node_id": "0.0-5.0"}}, {"uniqueid": "MTK1290:35USIKEBNSN2FBZYCTHJG8Q9N366NN", "current_trial": 6, "dateTime": 1513536252120, "trialdata": {"rt": 39189, "key_press": 32, "type": "INSTRUCTIONS", "trial_type": "text", "trial_index": 6, "time_elapsed": 204940, "internal_node_id": "0.0-6.0"}}, {"uniqueid": "MTK1290:35USIKEBNSN2FBZYCTHJG8Q9N366NN", "current_trial": 7, "dateTime": 1513536267704, "trialdata": {"rt": 15082, "key_press": 32, "type": "INSTRUCTIONS", "trial_type": "text", "trial_index": 7, "time_elapsed": 220525, "internal_node_id": "0.0-7.0"}}, {"uniqueid": "MTK1290:35USIKEBNSN2FBZYCTHJG8Q9N366NN", "current_trial": 8, "dateTime": 1513536272394, "trialdata": {"rt": 4186, "key_press": 32, "type": "INSTRUCTIONS", "trial_type": "text", "trial_index": 8, "time_elapsed": 225215, "internal_node_id": "0.0-8.0"}}, {"uniqueid": "MTK1290:35USIKEBNSN2FBZYCTHJG8Q9N366NN", "current_trial": 9, "dateTime": 1513536291404, "trialdata": {"rt": [3321, 5549, 7955, 13521, 15757], "responses": ["14", "6", "11", "15", "11"], "num1": [8, 1, 6, 5, 2, 4], "num2": [4, 3, 2, 7, 6, 5], "num3": [2, 2, 3, 3, 3, 3], "type": "DISTRACTOR", "conditions": [18, 1200, "v", 18000], "trial": 0, "trial_type": "math-distractor", "trial_index": 9, "time_elapsed": 244225, "internal_node_id": "0.0-9.0"}}, {"uniqueid": "MTK1290:35USIKEBNSN2FBZYCTHJG8Q9N366NN", "current_trial": 10, "dateTime": 1513536294414, "trialdata": {"rt": -1, "stimulus": "<p id=\"stim\">10</p>", "key_press": -1, "trial_type": "single-stim", "trial_index": 10, "time_elapsed": 247235, "internal_node_id": "0.0-10.0-0.0"}}, {"uniqueid": "MTK1290:35USIKEBNSN2FBZYCTHJG8Q9N366NN", "current_trial": 11, "dateTime": 1513536295418, "trialdata": {"rt": -1, "stimulus": "<p id=\"stim\">9</p>", "key_press": -1, "trial_type": "single-stim", "trial_index": 11, "time_elapsed": 248239, "internal_node_id": "0.0-10.0-1.0"}}, {"uniqueid": "MTK1290:35USIKEBNSN2FBZYCTHJG8Q9N366NN", "current_trial": 12, "dateTime": 1513536296422, "trialdata": {"rt": -1, "stimulus": "<p id=\"stim\">8</p>", "key_press": -1, "trial_type": "single-stim", "trial_index": 12, "time_elapsed": 249243, "internal_node_id": "0.0-10.0-2.0"}}, {"uniqueid": "MTK1290:35USIKEBNSN2FBZYCTHJG8Q9N366NN", "current_trial": 13, "dateTime": 1513536297428, "trialdata": {"rt": -1, "stimulus": "<p id=\"stim\">7</p>", "key_press": -1, "trial_type": "single-stim", "trial_index": 13, "time_elapsed": 250249, "internal_node_id": "0.0-10.0-3.0"}}, {"uniqueid": "MTK1290:35USIKEBNSN2FBZYCTHJG8Q9N366NN", "current_trial": 14, "dateTime": 1513536298431, "trialdata": {"rt": -1, "stimulus": "<p id=\"stim\">6</p>", "key_press": -1, "trial_type": "single-stim", "trial_index": 14, "time_elapsed": 251252, "internal_node_id": "0.0-10.0-4.0"}}, {"uniqueid": "MTK1290:35USIKEBNSN2FBZYCTHJG8Q9N366NN", "current_trial": 15, "dateTime": 1513536299435, "trialdata": {"rt": -1, "stimulus": "<p id=\"stim\">5</p>", "key_press": -1, "trial_type": "single-stim", "trial_index": 15, "time_elapsed": 252256, "internal_node_id": "0.0-10.0-5.0"}}, {"uniqueid": "MTK1290:35USIKEBNSN2FBZYCTHJG8Q9N366NN", "current_trial": 16, "dateTime": 1513536300438, "trialdata": {"rt": -1, "stimulus": "<p id=\"stim\">4</p>", "key_press": -1, "trial_type": "single-stim", "trial_index": 16, "time_elapsed": 253259, "internal_node_id": "0.0-10.0-6.0"}}, {"uniqueid": "MTK1290:35USIKEBNSN2FBZYCTHJG8Q9N366NN", "current_trial": 17, "dateTime": 1513536301444, "trialdata": {"rt": -1, "stimulus": "<p id=\"stim\">3</p>", "key_press": -1, "trial_type": "single-stim", "trial_index": 17, "time_elapsed": 254264, "internal_node_id": "0.0-10.0-7.0"}}, {"uniqueid": "MTK1290:35USIKEBNSN2FBZYCTHJG8Q9N366NN", "current_trial": 18, "dateTime": 1513536302446, "trialdata": {"rt": -1, "stimulus": "<p id=\"stim\">2</p>", "key_press": -1, "trial_type": "single-stim", "trial_index": 18, "time_elapsed": 255267, "internal_node_id": "0.0-10.0-8.0"}}, {"uniqueid": "MTK1290:35USIKEBNSN2FBZYCTHJG8Q9N366NN", "current_trial": 19, "dateTime": 1513536303448, "trialdata": {"rt": -1, "stimulus": "<p id=\"stim\">1</p>", "key_press": -1, "trial_type": "single-stim", "trial_index": 19, "time_elapsed": 256269, "internal_node_id": "0.0-10.0-9.0"}}, {"uniqueid": "MTK1290:35USIKEBNSN2FBZYCTHJG8Q9N366NN", "current_trial": 20, "dateTime": 1513536304952, "trialdata": {"rt": -1, "stimulus": "<p id=\"stim\">+</p>", "key_press": -1, "type": "FIXATION", "trial_type": "single-stim", "trial_index": 20, "time_elapsed": 257773, "internal_node_id": "0.0-11.0-0.0"}}, {"uniqueid": "MTK1290:35USIKEBNSN2FBZYCTHJG8Q9N366NN", "current_trial": 21, "dateTime": 1513536306155, "trialdata": {"rt": -1, "stimulus": "<p id=\"stim\">ANKLE</p>", "key_press": -1, "type": "PRES_VIS", "word": "ankle", "wordID": 23, "conditions": [18, 1200, "v", 18000], "trial": 0, "serialpos": 0, "trial_type": "single-stim", "trial_index": 21, "time_elapsed": 258976, "internal_node_id": "0.0-12.0"}}, {"uniqueid": "MTK1290:35USIKEBNSN2FBZYCTHJG8Q9N366NN", "current_trial": 22, "dateTime": 1513536308376, "trialdata": {"rt": -1, "stimulus": "<p id=\"stim\">SERVER</p>", "key_press": -1, "type": "PRES_VIS", "word": "server", "wordID": 1271, "conditions": [18, 1200, "v", 18000], "trial": 0, "serialpos": 1, "trial_type": "single-stim", "trial_index": 22, "time_elapsed": 261197, "internal_node_id": "0.0-13.0"}}, {"uniqueid": "MTK1290:35USIKEBNSN2FBZYCTHJG8Q9N366NN", "current_trial": 23, "dateTime": 1513536310575, "trialdata": {"rt": -1, "stimulus": "<p id=\"stim\">GRILL</p>", "key_press": -1, "type": "PRES_VIS", "word": "grill", "wordID": 660, "conditions": [18, 1200, "v", 18000], "trial": 0, "serialpos": 2, "trial_type": "single-stim", "trial_index": 23, "time_elapsed": 263396, "internal_node_id": "0.0-14.0"}}, {"uniqueid": "MTK1290:35USIKEBNSN2FBZYCTHJG8Q9N366NN", "current_trial": 24, "dateTime": 1513536312897, "trialdata": {"rt": -1, "stimulus": "<p id=\"stim\">TUNNEL</p>", "key_press": -1, "type": "PRES_VIS", "word": "tunnel", "wordID": 1518, "conditions": [18, 1200, "v", 18000], "trial": 0, "serialpos": 3, "trial_type": "single-stim", "trial_index": 24, "time_elapsed": 265718, "internal_node_id": "0.0-15.0"}}, {"uniqueid": "MTK1290:35USIKEBNSN2FBZYCTHJG8Q9N366NN", "current_trial": 25, "dateTime": 1513536315035, "trialdata": {"rt": -1, "stimulus": "<p id=\"stim\">NURSE</p>", "key_press": -1, "type": "PRES_VIS", "word": "nurse", "wordID": 962, "conditions": [18, 1200, "v", 18000], "trial": 0, "serialpos": 4, "trial_type": "single-stim", "trial_index": 25, "time_elapsed": 267856, "internal_node_id": "0.0-16.0"}}, {"uniqueid": "MTK1290:35USIKEBNSN2FBZYCTHJG8Q9N366NN", "current_trial": 26, "dateTime": 1513536317359, "trialdata": {"rt": -1, "stimulus": "<p id=\"stim\">TURKEY</p>", "key_press": -1, "type": "PRES_VIS", "word": "turkey", "wordID": 1519, "conditions": [18, 1200, "v", 18000], "trial": 0, "serialpos": 5, "trial_type": "single-stim", "trial_index": 26, "time_elapsed": 270180, "internal_node_id": "0.0-17.0"}}, {"uniqueid": "MTK1290:35USIKEBNSN2FBZYCTHJG8Q9N366NN", "current_trial": 27, "dateTime": 1513536319643, "trialdata": {"rt": -1, "stimulus": "<p id=\"stim\">TURNIP</p>", "key_press": -1, "type": "PRES_VIS", "word": "turnip", "wordID": 1520, "conditions": [18, 1200, "v", 18000], "trial": 0, "serialpos": 6, "trial_type": "single-stim", "trial_index": 27, "time_elapsed": 272464, "internal_node_id": "0.0-18.0"}}, {"uniqueid": "MTK1290:35USIKEBNSN2FBZYCTHJG8Q9N366NN", "current_trial": 28, "dateTime": 1513536321908, "trialdata": {"rt": -1, "stimulus": "<p id=\"stim\">QUEEN</p>", "key_press": -1, "type": "PRES_VIS", "word": "queen", "wordID": 1148, "conditions": [18, 1200, "v", 18000], "trial": 0, "serialpos": 7, "trial_type": "single-stim", "trial_index": 28, "time_elapsed": 274729, "internal_node_id": "0.0-19.0"}}, {"uniqueid": "MTK1290:35USIKEBNSN2FBZYCTHJG8Q9N366NN", "current_trial": 29, "dateTime": 1513536324219, "trialdata": {"rt": -1, "stimulus": "<p id=\"stim\">BLADE</p>", "key_press": -1, "type": "PRES_VIS", "word": "blade", "wordID": 133, "conditions": [18, 1200, "v", 18000], "trial": 0, "serialpos": 8, "trial_type": "single-stim", "trial_index": 29, "time_elapsed": 277039, "internal_node_id": "0.0-20.0"}}, {"uniqueid": "MTK1290:35USIKEBNSN2FBZYCTHJG8Q9N366NN", "current_trial": 30, "dateTime": 1513536326515, "trialdata": {"rt": -1, "stimulus": "<p id=\"stim\">STAR</p>", "key_press": -1, "type": "PRES_VIS", "word": "star", "wordID": 1372, "conditions": [18, 1200, "v", 18000], "trial": 0, "serialpos": 9, "trial_type": "single-stim", "trial_index": 30, "time_elapsed": 279336, "internal_node_id": "0.0-21.0"}}, {"uniqueid": "MTK1290:35USIKEBNSN2FBZYCTHJG8Q9N366NN", "current_trial": 31, "dateTime": 1513536328766, "trialdata": {"rt": -1, "stimulus": "<p id=\"stim\">PLAID</p>", "key_press": -1, "type": "PRES_VIS", "word": "plaid", "wordID": 1079, "conditions": [18, 1200, "v", 18000], "trial": 0, "serialpos": 10, "trial_type": "single-stim", "trial_index": 31, "time_elapsed": 281587, "internal_node_id": "0.0-22.0"}}, {"uniqueid": "MTK1290:35USIKEBNSN2FBZYCTHJG8Q9N366NN", "current_trial": 32, "dateTime": 1513536330977, "trialdata": {"rt": -1, "stimulus": "<p id=\"stim\">PISTOL</p>", "key_press": -1, "type": "PRES_VIS", "word": "pistol", "wordID": 1074, "conditions": [18, 1200, "v", 18000], "trial": 0, "serialpos": 11, "trial_type": "single-stim", "trial_index": 32, "time_elapsed": 283798, "internal_node_id": "0.0-23.0"}}, {"uniqueid": "MTK1290:35USIKEBNSN2FBZYCTHJG8Q9N366NN", "current_trial": 33, "dateTime": 1513536333121, "trialdata": {"rt": -1, "stimulus": "<p id=\"stim\">JELLY</p>", "key_press": -1, "type": "PRES_VIS", "word": "jelly", "wordID": 754, "conditions": [18, 1200, "v", 18000], "trial": 0, "serialpos": 12, "trial_type": "single-stim", "trial_index": 33, "time_elapsed": 285942, "internal_node_id": "0.0-24.0"}}, {"uniqueid": "MTK1290:35USIKEBNSN2FBZYCTHJG8Q9N366NN", "current_trial": 34, "dateTime": 1513536335362, "trialdata": {"rt": -1, "stimulus": "<p id=\"stim\">MISSILE</p>", "key_press": -1, "type": "PRES_VIS", "word": "missile", "wordID": 899, "conditions": [18, 1200, "v", 18000], "trial": 0, "serialpos": 13, "trial_type": "single-stim", "trial_index": 34, "time_elapsed": 288183, "internal_node_id": "0.0-25.0"}}, {"uniqueid": "MTK1290:35USIKEBNSN2FBZYCTHJG8Q9N366NN", "current_trial": 35, "dateTime": 1513536337682, "trialdata": {"rt": -1, "stimulus": "<p id=\"stim\">PLAYGROUND</p>", "key_press": -1, "type": "PRES_VIS", "word": "playground", "wordID": 1086, "conditions": [18, 1200, "v", 18000], "trial": 0, "serialpos": 14, "trial_type": "single-stim", "trial_index": 35, "time_elapsed": 290503, "internal_node_id": "0.0-26.0"}}, {"uniqueid": "MTK1290:35USIKEBNSN2FBZYCTHJG8Q9N366NN", "current_trial": 36, "dateTime": 1513536339906, "trialdata": {"rt": -1, "stimulus": "<p id=\"stim\">GIFT</p>", "key_press": -1, "type": "PRES_VIS", "word": "gift", "wordID": 634, "conditions": [18, 1200, "v", 18000], "trial": 0, "serialpos": 15, "trial_type": "single-stim", "trial_index": 36, "time_elapsed": 292727, "internal_node_id": "0.0-27.0"}}, {"uniqueid": "MTK1290:35USIKEBNSN2FBZYCTHJG8Q9N366NN", "current_trial": 37, "dateTime": 1513536342154, "trialdata": {"rt": -1, "stimulus": "<p id=\"stim\">DAUGHTER</p>", "key_press": -1, "type": "PRES_VIS", "word": "daughter", "wordID": 441, "conditions": [18, 1200, "v", 18000], "trial": 0, "serialpos": 16, "trial_type": "single-stim", "trial_index": 37, "time_elapsed": 294975, "internal_node_id": "0.0-28.0"}}, {"uniqueid": "MTK1290:35USIKEBNSN2FBZYCTHJG8Q9N366NN", "current_trial": 38, "dateTime": 1513536344550, "trialdata": {"rt": -1, "stimulus": "<p id=\"stim\">BATHTUB</p>", "key_press": -1, "type": "PRES_VIS", "word": "bathtub", "wordID": 99, "conditions": [18, 1200, "v", 18000], "trial": 0, "serialpos": 17, "trial_type": "single-stim", "trial_index": 38, "time_elapsed": 297371, "internal_node_id": "0.0-29.0"}}, {"uniqueid": "MTK1290:35USIKEBNSN2FBZYCTHJG8Q9N366NN", "current_trial": 39, "dateTime": 1513536346836, "trialdata": {"rt": -1, "stimulus": "", "key_press": -1, "type": "PRE_RECALL_DELAY", "trial_type": "single-stim", "trial_index": 39, "time_elapsed": 299657, "internal_node_id": "0.0-30.0-0.0"}}, {"uniqueid": "MTK1290:35USIKEBNSN2FBZYCTHJG8Q9N366NN", "current_trial": 40, "dateTime": 1513536347341, "trialdata": {"rt": -1000, "stimulus": "/static/audio/400Hz.wav", "key_press": -1, "type": "PRE_RECALL_ALERT", "trial_type": "single-audio", "trial_index": 40, "time_elapsed": 300162, "internal_node_id": "0.0-31.0"}}, {"uniqueid": "MTK1290:35USIKEBNSN2FBZYCTHJG8Q9N366NN", "current_trial": 41, "dateTime": 1513536407349, "trialdata": {"rt": [1802, 4359, 6302, 8370, 9595, 12485, 14071, 18498, 20056, 27216, 30776, 45422], "recwords": ["ankle", "tunnel", "nurse", "turkey", "grill", "bathtub", "nurse", "server", "turkey", "tunnel", "star", ""], "type": "FREE_RECALL", "conditions": [18, 1200, "v", 18000], "trial": 0, "trial_type": "free-recall", "trial_index": 41, "time_elapsed": 360166, "internal_node_id": "0.0-32.0-0.0"}}, {"uniqueid": "MTK1290:35USIKEBNSN2FBZYCTHJG8Q9N366NN", "current_trial": 42, "dateTime": 1513536410699, "trialdata": {"rt": 1345, "key_press": 32, "type": "INSTRUCTIONS", "trial_type": "text", "trial_index": 42, "time_elapsed": 363520, "internal_node_id": "0.0-33.0"}}, {"uniqueid": "MTK1290:35USIKEBNSN2FBZYCTHJG8Q9N366NN", "current_trial": 43, "dateTime": 1513536430707, "trialdata": {"rt": [3395, 6396, 8372, 12412], "responses": ["10", "16", "13", "18"], "num1": [3, 7, 6, 4, 8], "num2": [1, 8, 1, 8, 7], "num3": [6, 1, 6, 6, 7], "type": "DISTRACTOR", "conditions": [18, 1200, "a", 18000], "trial": 1, "trial_type": "math-distractor", "trial_index": 43, "time_elapsed": 383528, "internal_node_id": "0.0-34.0"}}, {"uniqueid": "MTK1290:35USIKEBNSN2FBZYCTHJG8Q9N366NN", "current_trial": 44, "dateTime": 1513536433709, "trialdata": {"rt": -1, "stimulus": "<p id=\"stim\">10</p>", "key_press": -1, "trial_type": "single-stim", "trial_index": 44, "time_elapsed": 386529, "internal_node_id": "0.0-35.0-0.0"}}, {"uniqueid": "MTK1290:35USIKEBNSN2FBZYCTHJG8Q9N366NN", "current_trial": 45, "dateTime": 1513536434712, "trialdata": {"rt": -1, "stimulus": "<p id=\"stim\">9</p>", "key_press": -1, "trial_type": "single-stim", "trial_index": 45, "time_elapsed": 387533, "internal_node_id": "0.0-35.0-1.0"}}, {"uniqueid": "MTK1290:35USIKEBNSN2FBZYCTHJG8Q9N366NN", "current_trial": 46, "dateTime": 1513536435716, "trialdata": {"rt": -1, "stimulus": "<p id=\"stim\">8</p>", "key_press": -1, "trial_type": "single-stim", "trial_index": 46, "time_elapsed": 388537, "internal_node_id": "0.0-35.0-2.0"}}, {"uniqueid": "MTK1290:35USIKEBNSN2FBZYCTHJG8Q9N366NN", "current_trial": 47, "dateTime": 1513536436721, "trialdata": {"rt": -1, "stimulus": "<p id=\"stim\">7</p>", "key_press": -1, "trial_type": "single-stim", "trial_index": 47, "time_elapsed": 389542, "internal_node_id": "0.0-35.0-3.0"}}, {"uniqueid": "MTK1290:35USIKEBNSN2FBZYCTHJG8Q9N366NN", "current_trial": 48, "dateTime": 1513536437725, "trialdata": {"rt": -1, "stimulus": "<p id=\"stim\">6</p>", "key_press": -1, "trial_type": "single-stim", "trial_index": 48, "time_elapsed": 390546, "internal_node_id": "0.0-35.0-4.0"}}, {"uniqueid": "MTK1290:35USIKEBNSN2FBZYCTHJG8Q9N366NN", "current_trial": 49, "dateTime": 1513536438730, "trialdata": {"rt": -1, "stimulus": "<p id=\"stim\">5</p>", "key_press": -1, "trial_type": "single-stim", "trial_index": 49, "time_elapsed": 391551, "internal_node_id": "0.0-35.0-5.0"}}, {"uniqueid": "MTK1290:35USIKEBNSN2FBZYCTHJG8Q9N366NN", "current_trial": 50, "dateTime": 1513536439732, "trialdata": {"rt": -1, "stimulus": "<p id=\"stim\">4</p>", "key_press": -1, "trial_type": "single-stim", "trial_index": 50, "time_elapsed": 392552, "internal_node_id": "0.0-35.0-6.0"}}, {"uniqueid": "MTK1290:35USIKEBNSN2FBZYCTHJG8Q9N366NN", "current_trial": 51, "dateTime": 1513536440733, "trialdata": {"rt": -1, "stimulus": "<p id=\"stim\">3</p>", "key_press": -1, "trial_type": "single-stim", "trial_index": 51, "time_elapsed": 393554, "internal_node_id": "0.0-35.0-7.0"}}, {"uniqueid": "MTK1290:35USIKEBNSN2FBZYCTHJG8Q9N366NN", "current_trial": 52, "dateTime": 1513536441738, "trialdata": {"rt": -1, "stimulus": "<p id=\"stim\">2</p>", "key_press": -1, "trial_type": "single-stim", "trial_index": 52, "time_elapsed": 394559, "internal_node_id": "0.0-35.0-8.0"}}, {"uniqueid": "MTK1290:35USIKEBNSN2FBZYCTHJG8Q9N366NN", "current_trial": 53, "dateTime": 1513536442743, "trialdata": {"rt": -1, "stimulus": "<p id=\"stim\">1</p>", "key_press": -1, "trial_type": "single-stim", "trial_index": 53, "time_elapsed": 395564, "internal_node_id": "0.0-35.0-9.0"}}, {"uniqueid": "MTK1290:35USIKEBNSN2FBZYCTHJG8Q9N366NN", "current_trial": 54, "dateTime": 1513536444245, "trialdata": {"rt": -1, "stimulus": "<p id=\"stim\">+</p>", "key_press": -1, "type": "FIXATION", "trial_type": "single-stim", "trial_index": 54, "time_elapsed": 397066, "internal_node_id": "0.0-36.0-0.0"}}, {"uniqueid": "MTK1290:35USIKEBNSN2FBZYCTHJG8Q9N366NN", "current_trial": 55, "dateTime": 1513536446641, "trialdata": {"rt": -1000, "stimulus": "/static/audio/wordpool/AIRPORT.wav", "key_press": -1, "type": "PRES_AUD", "word": "airport", "wordID": 12, "conditions": [18, 1200, "a", 18000], "trial": 1, "serialpos": 0, "trial_type": "single-audio", "trial_index": 55, "time_elapsed": 399462, "internal_node_id": "0.0-37.0"}}, {"uniqueid": "MTK1290:35USIKEBNSN2FBZYCTHJG8Q9N366NN", "current_trial": 56, "dateTime": 1513536448672, "trialdata": {"rt": -1000, "stimulus": "/static/audio/wordpool/THIEF.wav", "key_press": -1, "type": "PRES_AUD", "word": "thief", "wordID": 1455, "conditions": [18, 1200, "a", 18000], "trial": 1, "serialpos": 1, "trial_type": "single-audio", "trial_index": 56, "time_elapsed": 401492, "internal_node_id": "0.0-38.0"}}, {"uniqueid": "MTK1290:35USIKEBNSN2FBZYCTHJG8Q9N366NN", "current_trial": 57, "dateTime": 1513536451072, "trialdata": {"rt": -1000, "stimulus": "/static/audio/wordpool/LACE.wav", "key_press": -1, "type": "PRES_AUD", "word": "lace", "wordID": 791, "conditions": [18, 1200, "a", 18000], "trial": 1, "serialpos": 2, "trial_type": "single-audio", "trial_index": 57, "time_elapsed": 403893, "internal_node_id": "0.0-39.0"}}, {"uniqueid": "MTK1290:35USIKEBNSN2FBZYCTHJG8Q9N366NN", "current_trial": 58, "dateTime": 1513536453116, "trialdata": {"rt": -1000, "stimulus": "/static/audio/wordpool/HEADBAND.wav", "key_press": -1, "type": "PRES_AUD", "word": "headband", "wordID": 695, "conditions": [18, 1200, "a", 18000], "trial": 1, "serialpos": 3, "trial_type": "single-audio", "trial_index": 58, "time_elapsed": 405937, "internal_node_id": "0.0-40.0"}}, {"uniqueid": "MTK1290:35USIKEBNSN2FBZYCTHJG8Q9N366NN", "current_trial": 59, "dateTime": 1513536455260, "trialdata": {"rt": -1000, "stimulus": "/static/audio/wordpool/TUBA.wav", "key_press": -1, "type": "PRES_AUD", "word": "tuba", "wordID": 1514, "conditions": [18, 1200, "a", 18000], "trial": 1, "serialpos": 4, "trial_type": "single-audio", "trial_index": 59, "time_elapsed": 408081, "internal_node_id": "0.0-41.0"}}, {"uniqueid": "MTK1290:35USIKEBNSN2FBZYCTHJG8Q9N366NN", "current_trial": 60, "dateTime": 1513536457482, "trialdata": {"rt": -1000, "stimulus": "/static/audio/wordpool/WOMAN.wav", "key_press": -1, "type": "PRES_AUD", "word": "woman", "wordID": 1619, "conditions": [18, 1200, "a", 18000], "trial": 1, "serialpos": 5, "trial_type": "single-audio", "trial_index": 60, "time_elapsed": 410303, "internal_node_id": "0.0-42.0"}}, {"uniqueid": "MTK1290:35USIKEBNSN2FBZYCTHJG8Q9N366NN", "current_trial": 61, "dateTime": 1513536459855, "trialdata": {"rt": -1000, "stimulus": "/static/audio/wordpool/CREVICE.wav", "key_press": -1, "type": "PRES_AUD", "word": "crevice", "wordID": 404, "conditions": [18, 1200, "a", 18000], "trial": 1, "serialpos": 6, "trial_type": "single-audio", "trial_index": 61, "time_elapsed": 412676, "internal_node_id": "0.0-43.0"}}, {"uniqueid": "MTK1290:35USIKEBNSN2FBZYCTHJG8Q9N366NN", "current_trial": 62, "dateTime": 1513536461870, "trialdata": {"rt": -1000, "stimulus": "/static/audio/wordpool/CHIPMUNK.wav", "key_press": -1, "type": "PRES_AUD", "word": "chipmunk", "wordID": 303, "conditions": [18, 1200, "a", 18000], "trial": 1, "serialpos": 7, "trial_type": "single-audio", "trial_index": 62, "time_elapsed": 414691, "internal_node_id": "0.0-44.0"}}, {"uniqueid": "MTK1290:35USIKEBNSN2FBZYCTHJG8Q9N366NN", "current_trial": 63, "dateTime": 1513536464086, "trialdata": {"rt": -1000, "stimulus": "/static/audio/wordpool/BANJO.wav", "key_press": -1, "type": "PRES_AUD", "word": "banjo", "wordID": 81, "conditions": [18, 1200, "a", 18000], "trial": 1, "serialpos": 8, "trial_type": "single-audio", "trial_index": 63, "time_elapsed": 416906, "internal_node_id": "0.0-45.0"}}, {"uniqueid": "MTK1290:35USIKEBNSN2FBZYCTHJG8Q9N366NN", "current_trial": 64, "dateTime": 1513536466318, "trialdata": {"rt": -1000, "stimulus": "/static/audio/wordpool/HORNET.wav", "key_press": -1, "type": "PRES_AUD", "word": "hornet", "wordID": 717, "conditions": [18, 1200, "a", 18000], "trial": 1, "serialpos": 9, "trial_type": "single-audio", "trial_index": 64, "time_elapsed": 419139, "internal_node_id": "0.0-46.0"}}, {"uniqueid": "MTK1290:35USIKEBNSN2FBZYCTHJG8Q9N366NN", "current_trial": 65, "dateTime": 1513536468423, "trialdata": {"rt": -1000, "stimulus": "/static/audio/wordpool/NOVEL.wav", "key_press": -1, "type": "PRES_AUD", "word": "novel", "wordID": 959, "conditions": [18, 1200, "a", 18000], "trial": 1, "serialpos": 10, "trial_type": "single-audio", "trial_index": 65, "time_elapsed": 421243, "internal_node_id": "0.0-47.0"}}, {"uniqueid": "MTK1290:35USIKEBNSN2FBZYCTHJG8Q9N366NN", "current_trial": 66, "dateTime": 1513536470554, "trialdata": {"rt": -1000, "stimulus": "/static/audio/wordpool/BOUQUET.wav", "key_press": -1, "type": "PRES_AUD", "word": "bouquet", "wordID": 156, "conditions": [18, 1200, "a", 18000], "trial": 1, "serialpos": 11, "trial_type": "single-audio", "trial_index": 66, "time_elapsed": 423375, "internal_node_id": "0.0-48.0"}}, {"uniqueid": "MTK1290:35USIKEBNSN2FBZYCTHJG8Q9N366NN", "current_trial": 67, "dateTime": 1513536472747, "trialdata": {"rt": -1000, "stimulus": "/static/audio/wordpool/APPLE.wav", "key_press": -1, "type": "PRES_AUD", "word": "apple", "wordID": 32, "conditions": [18, 1200, "a", 18000], "trial": 1, "serialpos": 12, "trial_type": "single-audio", "trial_index": 67, "time_elapsed": 425568, "internal_node_id": "0.0-49.0"}}, {"uniqueid": "MTK1290:35USIKEBNSN2FBZYCTHJG8Q9N366NN", "current_trial": 68, "dateTime": 1513536475022, "trialdata": {"rt": -1000, "stimulus": "/static/audio/wordpool/PARTNER.wav", "key_press": -1, "type": "PRES_AUD", "word": "partner", "wordID": 1016, "conditions": [18, 1200, "a", 18000], "trial": 1, "serialpos": 13, "trial_type": "single-audio", "trial_index": 68, "time_elapsed": 427839, "internal_node_id": "0.0-50.0"}}, {"uniqueid": "MTK1290:35USIKEBNSN2FBZYCTHJG8Q9N366NN", "current_trial": 69, "dateTime": 1513536477170, "trialdata": {"rt": -1000, "stimulus": "/static/audio/wordpool/KEEPER.wav", "key_press": -1, "type": "PRES_AUD", "word": "keeper", "wordID": 768, "conditions": [18, 1200, "a", 18000], "trial": 1, "serialpos": 14, "trial_type": "single-audio", "trial_index": 69, "time_elapsed": 429991, "internal_node_id": "0.0-51.0"}}, {"uniqueid": "MTK1290:35USIKEBNSN2FBZYCTHJG8Q9N366NN", "current_trial": 70, "dateTime": 1513536479196, "trialdata": {"rt": -1000, "stimulus": "/static/audio/wordpool/CIGAR.wav", "key_press": -1, "type": "PRES_AUD", "word": "cigar", "wordID": 307, "conditions": [18, 1200, "a", 18000], "trial": 1, "serialpos": 15, "trial_type": "single-audio", "trial_index": 70, "time_elapsed": 432017, "internal_node_id": "0.0-52.0"}}, {"uniqueid": "MTK1290:35USIKEBNSN2FBZYCTHJG8Q9N366NN", "current_trial": 71, "dateTime": 1513536481346, "trialdata": {"rt": -1000, "stimulus": "/static/audio/wordpool/PECAN.wav", "key_press": -1, "type": "PRES_AUD", "word": "pecan", "wordID": 1035, "conditions": [18, 1200, "a", 18000], "trial": 1, "serialpos": 16, "trial_type": "single-audio", "trial_index": 71, "time_elapsed": 434167, "internal_node_id": "0.0-53.0"}}, {"uniqueid": "MTK1290:35USIKEBNSN2FBZYCTHJG8Q9N366NN", "current_trial": 72, "dateTime": 1513536483537, "trialdata": {"rt": -1000, "stimulus": "/static/audio/wordpool/RAFT.wav", "key_press": -1, "type": "PRES_AUD", "word": "raft", "wordID": 1158, "conditions": [18, 1200, "a", 18000], "trial": 1, "serialpos": 17, "trial_type": "single-audio", "trial_index": 72, "time_elapsed": 436358, "internal_node_id": "0.0-54.0"}}, {"uniqueid": "MTK1290:35USIKEBNSN2FBZYCTHJG8Q9N366NN", "current_trial": 73, "dateTime": 1513536484895, "trialdata": {"rt": -1, "stimulus": "", "key_press": -1, "type": "PRE_RECALL_DELAY", "trial_type": "single-stim", "trial_index": 73, "time_elapsed": 437716, "internal_node_id": "0.0-55.0-0.0"}}, {"uniqueid": "MTK1290:35USIKEBNSN2FBZYCTHJG8Q9N366NN", "current_trial": 74, "dateTime": 1513536485399, "trialdata": {"rt": -1000, "stimulus": "/static/audio/400Hz.wav", "key_press": -1, "type": "PRE_RECALL_ALERT", "trial_type": "single-audio", "trial_index": 74, "time_elapsed": 438220, "internal_node_id": "0.0-56.0"}}, {"uniqueid": "MTK1290:35USIKEBNSN2FBZYCTHJG8Q9N366NN", "current_trial": 75, "dateTime": 1513536545410, "trialdata": {"rt": [3724, 6082, 6996, 9804, 10706, 12800, 16082, 17601, 18735, 23371], "recwords": ["airport", "theif", "lace", "headband", "woman", "keeper", "pecan", "lace", "raft", "woman"], "type": "FREE_RECALL", "conditions": [18, 1200, "a", 18000], "trial": 1, "trial_type": "free-recall", "trial_index": 75, "time_elapsed": 498227, "internal_node_id": "0.0-57.0-0.0"}}, {"uniqueid": "MTK1290:35USIKEBNSN2FBZYCTHJG8Q9N366NN", "current_trial": 76, "dateTime": 1513536549305, "trialdata": {"rt": 1888, "key_press": 32, "type": "INSTRUCTIONS", "trial_type": "text", "trial_index": 76, "time_elapsed": 502122, "internal_node_id": "0.0-58.0"}}, {"uniqueid": "MTK1290:35USIKEBNSN2FBZYCTHJG8Q9N366NN", "current_trial": 77, "dateTime": 1513536574313, "trialdata": {"rt": [4238, 11054, 13544, 15849, 17842, 20850, 22754], "responses": ["25", "17", "9", "11", "16", "12", "12"], "num1": [8, 1, 5, 2, 1, 7, 9, 6], "num2": [8, 9, 2, 3, 8, 4, 2, 9], "num3": [9, 7, 2, 6, 7, 1, 1, 7], "type": "DISTRACTOR", "conditions": [12, 1600, "v", 24000], "trial": 2, "trial_type": "math-distractor", "trial_index": 77, "time_elapsed": 527134, "internal_node_id": "0.0-59.0"}}, {"uniqueid": "MTK1290:35USIKEBNSN2FBZYCTHJG8Q9N366NN", "current_trial": 78, "dateTime": 1513536577316, "trialdata": {"rt": -1, "stimulus": "<p id=\"stim\">10</p>", "key_press": -1, "trial_type": "single-stim", "trial_index": 78, "time_elapsed": 530137, "internal_node_id": "0.0-60.0-0.0"}}, {"uniqueid": "MTK1290:35USIKEBNSN2FBZYCTHJG8Q9N366NN", "current_trial": 79, "dateTime": 1513536578322, "trialdata": {"rt": -1, "stimulus": "<p id=\"stim\">9</p>", "key_press": -1, "trial_type": "single-stim", "trial_index": 79, "time_elapsed": 531143, "internal_node_id": "0.0-60.0-1.0"}}, {"uniqueid": "MTK1290:35USIKEBNSN2FBZYCTHJG8Q9N366NN", "current_trial": 80, "dateTime": 1513536579324, "trialdata": {"rt": -1, "stimulus": "<p id=\"stim\">8</p>", "key_press": -1, "trial_type": "single-stim", "trial_index": 80, "time_elapsed": 532145, "internal_node_id": "0.0-60.0-2.0"}}, {"uniqueid": "MTK1290:35USIKEBNSN2FBZYCTHJG8Q9N366NN", "current_trial": 81, "dateTime": 1513536580328, "trialdata": {"rt": -1, "stimulus": "<p id=\"stim\">7</p>", "key_press": -1, "trial_type": "single-stim", "trial_index": 81, "time_elapsed": 533149, "internal_node_id": "0.0-60.0-3.0"}}, {"uniqueid": "MTK1290:35USIKEBNSN2FBZYCTHJG8Q9N366NN", "current_trial": 82, "dateTime": 1513536581332, "trialdata": {"rt": -1, "stimulus": "<p id=\"stim\">6</p>", "key_press": -1, "trial_type": "single-stim", "trial_index": 82, "time_elapsed": 534153, "internal_node_id": "0.0-60.0-4.0"}}, {"uniqueid": "MTK1290:35USIKEBNSN2FBZYCTHJG8Q9N366NN", "current_trial": 83, "dateTime": 1513536582334, "trialdata": {"rt": -1, "stimulus": "<p id=\"stim\">5</p>", "key_press": -1, "trial_type": "single-stim", "trial_index": 83, "time_elapsed": 535155, "internal_node_id": "0.0-60.0-5.0"}}, {"uniqueid": "MTK1290:35USIKEBNSN2FBZYCTHJG8Q9N366NN", "current_trial": 84, "dateTime": 1513536583338, "trialdata": {"rt": -1, "stimulus": "<p id=\"stim\">4</p>", "key_press": -1, "trial_type": "single-stim", "trial_index": 84, "time_elapsed": 536159, "internal_node_id": "0.0-60.0-6.0"}}, {"uniqueid": "MTK1290:35USIKEBNSN2FBZYCTHJG8Q9N366NN", "current_trial": 85, "dateTime": 1513536584343, "trialdata": {"rt": -1, "stimulus": "<p id=\"stim\">3</p>", "key_press": -1, "trial_type": "single-stim", "trial_index": 85, "time_elapsed": 537164, "internal_node_id": "0.0-60.0-7.0"}}, {"uniqueid": "MTK1290:35USIKEBNSN2FBZYCTHJG8Q9N366NN", "current_trial": 86, "dateTime": 1513536585346, "trialdata": {"rt": -1, "stimulus": "<p id=\"stim\">2</p>", "key_press": -1, "trial_type": "single-stim", "trial_index": 86, "time_elapsed": 538167, "internal_node_id": "0.0-60.0-8.0"}}, {"uniqueid": "MTK1290:35USIKEBNSN2FBZYCTHJG8Q9N366NN", "current_trial": 87, "dateTime": 1513536586348, "trialdata": {"rt": -1, "stimulus": "<p id=\"stim\">1</p>", "key_press": -1, "trial_type": "single-stim", "trial_index": 87, "time_elapsed": 539169, "internal_node_id": "0.0-60.0-9.0"}}, {"uniqueid": "MTK1290:35USIKEBNSN2FBZYCTHJG8Q9N366NN", "current_trial": 88, "dateTime": 1513536587852, "trialdata": {"rt": -1, "stimulus": "<p id=\"stim\">+</p>", "key_press": -1, "type": "FIXATION", "trial_type": "single-stim", "trial_index": 88, "time_elapsed": 540673, "internal_node_id": "0.0-61.0-0.0"}}, {"uniqueid": "MTK1290:35USIKEBNSN2FBZYCTHJG8Q9N366NN", "current_trial": 89, "dateTime": 1513536589454, "trialdata": {"rt": -1, "stimulus": "<p id=\"stim\">SCALLOP</p>", "key_press": -1, "type": "PRES_VIS", "word": "scallop", "wordID": 1241, "conditions": [12, 1600, "v", 24000], "trial": 2, "serialpos": 0, "trial_type": "single-stim", "trial_index": 89, "time_elapsed": 542275, "internal_node_id": "0.0-62.0"}}, {"uniqueid": "MTK1290:35USIKEBNSN2FBZYCTHJG8Q9N366NN", "current_trial": 90, "dateTime": 1513536592152, "trialdata": {"rt": -1, "stimulus": "<p id=\"stim\">HOOD</p>", "key_press": -1, "type": "PRES_VIS", "word": "hood", "wordID": 713, "conditions": [12, 1600, "v", 24000], "trial": 2, "serialpos": 1, "trial_type": "single-stim", "trial_index": 90, "time_elapsed": 544973, "internal_node_id": "0.0-63.0"}}, {"uniqueid": "MTK1290:35USIKEBNSN2FBZYCTHJG8Q9N366NN", "current_trial": 91, "dateTime": 1513536594877, "trialdata": {"rt": -1, "stimulus": "<p id=\"stim\">RADISH</p>", "key_press": -1, "type": "PRES_VIS", "word": "radish", "wordID": 1157, "conditions": [12, 1600, "v", 24000], "trial": 2, "serialpos": 2, "trial_type": "single-stim", "trial_index": 91, "time_elapsed": 547698, "internal_node_id": "0.0-64.0"}}, {"uniqueid": "MTK1290:35USIKEBNSN2FBZYCTHJG8Q9N366NN", "current_trial": 92, "dateTime": 1513536597589, "trialdata": {"rt": -1, "stimulus": "<p id=\"stim\">POSTAGE</p>", "key_press": -1, "type": "PRES_VIS", "word": "postage", "wordID": 1112, "conditions": [12, 1600, "v", 24000], "trial": 2, "serialpos": 3, "trial_type": "single-stim", "trial_index": 92, "time_elapsed": 550410, "internal_node_id": "0.0-65.0"}}, {"uniqueid": "MTK1290:35USIKEBNSN2FBZYCTHJG8Q9N366NN", "current_trial": 93, "dateTime": 1513536600144, "trialdata": {"rt": -1, "stimulus": "<p id=\"stim\">BOYFRIEND</p>", "key_press": -1, "type": "PRES_VIS", "word": "boyfriend", "wordID": 161, "conditions": [12, 1600, "v", 24000], "trial": 2, "serialpos": 4, "trial_type": "single-stim", "trial_index": 93, "time_elapsed": 552965, "internal_node_id": "0.0-66.0"}}, {"uniqueid": "MTK1290:35USIKEBNSN2FBZYCTHJG8Q9N366NN", "current_trial": 94, "dateTime": 1513536602811, "trialdata": {"rt": -1, "stimulus": "<p id=\"stim\">NIGHTGOWN</p>", "key_press": -1, "type": "PRES_VIS", "word": "nightgown", "wordID": 952, "conditions": [12, 1600, "v", 24000], "trial": 2, "serialpos": 5, "trial_type": "single-stim", "trial_index": 94, "time_elapsed": 555632, "internal_node_id": "0.0-67.0"}}, {"uniqueid": "MTK1290:35USIKEBNSN2FBZYCTHJG8Q9N366NN", "current_trial": 95, "dateTime": 1513536605373, "trialdata": {"rt": -1, "stimulus": "<p id=\"stim\">CUPBOARD</p>", "key_press": -1, "type": "PRES_VIS", "word": "cupboard", "wordID": 424, "conditions": [12, 1600, "v", 24000], "trial": 2, "serialpos": 6, "trial_type": "single-stim", "trial_index": 95, "time_elapsed": 558194, "internal_node_id": "0.0-68.0"}}, {"uniqueid": "MTK1290:35USIKEBNSN2FBZYCTHJG8Q9N366NN", "current_trial": 96, "dateTime": 1513536607899, "trialdata": {"rt": -1, "stimulus": "<p id=\"stim\">ICEBERG</p>", "key_press": -1, "type": "PRES_VIS", "word": "iceberg", "wordID": 730, "conditions": [12, 1600, "v", 24000], "trial": 2, "serialpos": 7, "trial_type": "single-stim", "trial_index": 96, "time_elapsed": 560720, "internal_node_id": "0.0-69.0"}}, {"uniqueid": "MTK1290:35USIKEBNSN2FBZYCTHJG8Q9N366NN", "current_trial": 97, "dateTime": 1513536610410, "trialdata": {"rt": -1, "stimulus": "<p id=\"stim\">COUSIN</p>", "key_press": -1, "type": "PRES_VIS", "word": "cousin", "wordID": 391, "conditions": [12, 1600, "v", 24000], "trial": 2, "serialpos": 8, "trial_type": "single-stim", "trial_index": 97, "time_elapsed": 563231, "internal_node_id": "0.0-70.0"}}, {"uniqueid": "MTK1290:35USIKEBNSN2FBZYCTHJG8Q9N366NN", "current_trial": 98, "dateTime": 1513536613131, "trialdata": {"rt": -1, "stimulus": "<p id=\"stim\">BARLEY</p>", "key_press": -1, "type": "PRES_VIS", "word": "barley", "wordID": 87, "conditions": [12, 1600, "v", 24000], "trial": 2, "serialpos": 9, "trial_type": "single-stim", "trial_index": 98, "time_elapsed": 565952, "internal_node_id": "0.0-71.0"}}, {"uniqueid": "MTK1290:35USIKEBNSN2FBZYCTHJG8Q9N366NN", "current_trial": 99, "dateTime": 1513536615711, "trialdata": {"rt": -1, "stimulus": "<p id=\"stim\">FRECKLE</p>", "key_press": -1, "type": "PRES_VIS", "word": "freckle", "wordID": 601, "conditions": [12, 1600, "v", 24000], "trial": 2, "serialpos": 10, "trial_type": "single-stim", "trial_index": 99, "time_elapsed": 568532, "internal_node_id": "0.0-72.0"}}, {"uniqueid": "MTK1290:35USIKEBNSN2FBZYCTHJG8Q9N366NN", "current_trial": 100, "dateTime": 1513536618150, "trialdata": {"rt": -1, "stimulus": "<p id=\"stim\">PIMPLE</p>", "key_press": -1, "type": "PRES_VIS", "word": "pimple", "wordID": 1070, "conditions": [12, 1600, "v", 24000], "trial": 2, "serialpos": 11, "trial_type": "single-stim", "trial_index": 100, "time_elapsed": 570971, "internal_node_id": "0.0-73.0"}}, {"uniqueid": "MTK1290:35USIKEBNSN2FBZYCTHJG8Q9N366NN", "current_trial": 101, "dateTime": 1513536620413, "trialdata": {"rt": -1, "stimulus": "", "key_press": -1, "type": "PRE_RECALL_DELAY", "trial_type": "single-stim", "trial_index": 101, "time_elapsed": 573234, "internal_node_id": "0.0-74.0-0.0"}}, {"uniqueid": "MTK1290:35USIKEBNSN2FBZYCTHJG8Q9N366NN", "current_trial": 102, "dateTime": 1513536620914, "trialdata": {"rt": -1000, "stimulus": "/static/audio/400Hz.wav", "key_press": -1, "type": "PRE_RECALL_ALERT", "trial_type": "single-audio", "trial_index": 102, "time_elapsed": 573735, "internal_node_id": "0.0-75.0"}}, {"uniqueid": "MTK1290:35USIKEBNSN2FBZYCTHJG8Q9N366NN", "current_trial": 103, "dateTime": 1513536680922, "trialdata": {"rt": [4608, 7261, 10626, 15012, 20401, 24166, 27645, 33006, 37223, 43425], "recwords": ["scallop", "hood", "boyfriend", "nightgown", "postage", "cupboard", "barley", "hood", "freckle", "cousin"], "type": "FREE_RECALL", "conditions": [12, 1600, "v", 24000], "trial": 2, "trial_type": "free-recall", "trial_index": 103, "time_elapsed": 633740, "internal_node_id": "0.0-76.0-0.0"}}, {"uniqueid": "MTK1290:35USIKEBNSN2FBZYCTHJG8Q9N366NN", "current_trial": 104, "dateTime": 1513536684728, "trialdata": {"rt": 1804, "key_press": 32, "type": "INSTRUCTIONS", "trial_type": "text", "trial_index": 104, "time_elapsed": 637549, "internal_node_id": "0.0-77.0"}}, {"uniqueid": "MTK1290:35USIKEBNSN2FBZYCTHJG8Q9N366NN", "current_trial": 105, "dateTime": 1513536698738, "trialdata": {"rt": [8902], "responses": ["24"], "num1": [9, 3], "num2": [8, 9], "num3": [7, 8], "type": "DISTRACTOR", "conditions": [24, 800, "a", 12000], "trial": 3, "trial_type": "math-distractor", "trial_index": 105, "time_elapsed": 651559, "internal_node_id": "0.0-78.0"}}, {"uniqueid": "MTK1290:35USIKEBNSN2FBZYCTHJG8Q9N366NN", "current_trial": 106, "dateTime": 1513536701743, "trialdata": {"rt": -1, "stimulus": "<p id=\"stim\">10</p>", "key_press": -1, "trial_type": "single-stim", "trial_index": 106, "time_elapsed": 654563, "internal_node_id": "0.0-79.0-0.0"}}, {"uniqueid": "MTK1290:35USIKEBNSN2FBZYCTHJG8Q9N366NN", "current_trial": 107, "dateTime": 1513536702747, "trialdata": {"rt": -1, "stimulus": "<p id=\"stim\">9</p>", "key_press": -1, "trial_type": "single-stim", "trial_index": 107, "time_elapsed": 655568, "internal_node_id": "0.0-79.0-1.0"}}, {"uniqueid": "MTK1290:35USIKEBNSN2FBZYCTHJG8Q9N366NN", "current_trial": 108, "dateTime": 1513536703752, "trialdata": {"rt": -1, "stimulus": "<p id=\"stim\">8</p>", "key_press": -1, "trial_type": "single-stim", "trial_index": 108, "time_elapsed": 656573, "internal_node_id": "0.0-79.0-2.0"}}, {"uniqueid": "MTK1290:35USIKEBNSN2FBZYCTHJG8Q9N366NN", "current_trial": 109, "dateTime": 1513536704756, "trialdata": {"rt": -1, "stimulus": "<p id=\"stim\">7</p>", "key_press": -1, "trial_type": "single-stim", "trial_index": 109, "time_elapsed": 657577, "internal_node_id": "0.0-79.0-3.0"}}, {"uniqueid": "MTK1290:35USIKEBNSN2FBZYCTHJG8Q9N366NN", "current_trial": 110, "dateTime": 1513536705759, "trialdata": {"rt": -1, "stimulus": "<p id=\"stim\">6</p>", "key_press": -1, "trial_type": "single-stim", "trial_index": 110, "time_elapsed": 658580, "internal_node_id": "0.0-79.0-4.0"}}, {"uniqueid": "MTK1290:35USIKEBNSN2FBZYCTHJG8Q9N366NN", "current_trial": 111, "dateTime": 1513536706763, "trialdata": {"rt": -1, "stimulus": "<p id=\"stim\">5</p>", "key_press": -1, "trial_type": "single-stim", "trial_index": 111, "time_elapsed": 659584, "internal_node_id": "0.0-79.0-5.0"}}, {"uniqueid": "MTK1290:35USIKEBNSN2FBZYCTHJG8Q9N366NN", "current_trial": 112, "dateTime": 1513536707768, "trialdata": {"rt": -1, "stimulus": "<p id=\"stim\">4</p>", "key_press": -1, "trial_type": "single-stim", "trial_index": 112, "time_elapsed": 660589, "internal_node_id": "0.0-79.0-6.0"}}, {"uniqueid": "MTK1290:35USIKEBNSN2FBZYCTHJG8Q9N366NN", "current_trial": 113, "dateTime": 1513536708770, "trialdata": {"rt": -1, "stimulus": "<p id=\"stim\">3</p>", "key_press": -1, "trial_type": "single-stim", "trial_index": 113, "time_elapsed": 661591, "internal_node_id": "0.0-79.0-7.0"}}, {"uniqueid": "MTK1290:35USIKEBNSN2FBZYCTHJG8Q9N366NN", "current_trial": 114, "dateTime": 1513536709775, "trialdata": {"rt": -1, "stimulus": "<p id=\"stim\">2</p>", "key_press": -1, "trial_type": "single-stim", "trial_index": 114, "time_elapsed": 662596, "internal_node_id": "0.0-79.0-8.0"}}, {"uniqueid": "MTK1290:35USIKEBNSN2FBZYCTHJG8Q9N366NN", "current_trial": 115, "dateTime": 1513536710781, "trialdata": {"rt": -1, "stimulus": "<p id=\"stim\">1</p>", "key_press": -1, "trial_type": "single-stim", "trial_index": 115, "time_elapsed": 663600, "internal_node_id": "0.0-79.0-9.0"}}, {"uniqueid": "MTK1290:35USIKEBNSN2FBZYCTHJG8Q9N366NN", "current_trial": 116, "dateTime": 1513536712286, "trialdata": {"rt": -1, "stimulus": "<p id=\"stim\">+</p>", "key_press": -1, "type": "FIXATION", "trial_type": "single-stim", "trial_index": 116, "time_elapsed": 665107, "internal_node_id": "0.0-80.0-0.0"}}, {"uniqueid": "MTK1290:35USIKEBNSN2FBZYCTHJG8Q9N366NN", "current_trial": 117, "dateTime": 1513536714194, "trialdata": {"rt": -1000, "stimulus": "/static/audio/wordpool/TILE.wav", "key_press": -1, "type": "PRES_AUD", "word": "tile", "wordID": 1467, "conditions": [24, 800, "a", 12000], "trial": 3, "serialpos": 0, "trial_type": "single-audio", "trial_index": 117, "time_elapsed": 667015, "internal_node_id": "0.0-81.0"}}, {"uniqueid": "MTK1290:35USIKEBNSN2FBZYCTHJG8Q9N366NN", "current_trial": 118, "dateTime": 1513536715880, "trialdata": {"rt": -1000, "stimulus": "/static/audio/wordpool/BRICK.wav", "key_press": -1, "type": "PRES_AUD", "word": "brick", "wordID": 171, "conditions": [24, 800, "a", 12000], "trial": 3, "serialpos": 1, "trial_type": "single-audio", "trial_index": 118, "time_elapsed": 668701, "internal_node_id": "0.0-82.0"}}, {"uniqueid": "MTK1290:35USIKEBNSN2FBZYCTHJG8Q9N366NN", "current_trial": 119, "dateTime": 1513536717505, "trialdata": {"rt": -1000, "stimulus": "/static/audio/wordpool/GLOBE.wav", "key_press": -1, "type": "PRES_AUD", "word": "globe", "wordID": 640, "conditions": [24, 800, "a", 12000], "trial": 3, "serialpos": 2, "trial_type": "single-audio", "trial_index": 119, "time_elapsed": 670325, "internal_node_id": "0.0-83.0"}}, {"uniqueid": "MTK1290:35USIKEBNSN2FBZYCTHJG8Q9N366NN", "current_trial": 120, "dateTime": 1513536719241, "trialdata": {"rt": -1000, "stimulus": "/static/audio/wordpool/LIPSTICK.wav", "key_press": -1, "type": "PRES_AUD", "word": "lipstick", "wordID": 828, "conditions": [24, 800, "a", 12000], "trial": 3, "serialpos": 3, "trial_type": "single-audio", "trial_index": 120, "time_elapsed": 672062, "internal_node_id": "0.0-84.0"}}, {"uniqueid": "MTK1290:35USIKEBNSN2FBZYCTHJG8Q9N366NN", "current_trial": 121, "dateTime": 1513536721253, "trialdata": {"rt": -1000, "stimulus": "/static/audio/wordpool/FIREMAN.wav", "key_press": -1, "type": "PRES_AUD", "word": "fireman", "wordID": 568, "conditions": [24, 800, "a", 12000], "trial": 3, "serialpos": 4, "trial_type": "single-audio", "trial_index": 121, "time_elapsed": 674074, "internal_node_id": "0.0-85.0"}}, {"uniqueid": "MTK1290:35USIKEBNSN2FBZYCTHJG8Q9N366NN", "current_trial": 122, "dateTime": 1513536722992, "trialdata": {"rt": -1000, "stimulus": "/static/audio/wordpool/JURY.wav", "key_press": -1, "type": "PRES_AUD", "word": "jury", "wordID": 765, "conditions": [24, 800, "a", 12000], "trial": 3, "serialpos": 5, "trial_type": "single-audio", "trial_index": 122, "time_elapsed": 675813, "internal_node_id": "0.0-86.0"}}, {"uniqueid": "MTK1290:35USIKEBNSN2FBZYCTHJG8Q9N366NN", "current_trial": 123, "dateTime": 1513536724830, "trialdata": {"rt": -1000, "stimulus": "/static/audio/wordpool/SODA.wav", "key_press": -1, "type": "PRES_AUD", "word": "soda", "wordID": 1340, "conditions": [24, 800, "a", 12000], "trial": 3, "serialpos": 6, "trial_type": "single-audio", "trial_index": 123, "time_elapsed": 677651, "internal_node_id": "0.0-87.0"}}, {"uniqueid": "MTK1290:35USIKEBNSN2FBZYCTHJG8Q9N366NN", "current_trial": 124, "dateTime": 1513536726706, "trialdata": {"rt": -1000, "stimulus": "/static/audio/wordpool/BRIEFCASE.wav", "key_press": -1, "type": "PRES_AUD", "word": "briefcase", "wordID": 174, "conditions": [24, 800, "a", 12000], "trial": 3, "serialpos": 7, "trial_type": "single-audio", "trial_index": 124, "time_elapsed": 679527, "internal_node_id": "0.0-88.0"}}, {"uniqueid": "MTK1290:35USIKEBNSN2FBZYCTHJG8Q9N366NN", "current_trial": 125, "dateTime": 1513536728485, "trialdata": {"rt": -1000, "stimulus": "/static/audio/wordpool/WORLD.wav", "key_press": -1, "type": "PRES_AUD", "word": "world", "wordID": 1621, "conditions": [24, 800, "a", 12000], "trial": 3, "serialpos": 8, "trial_type": "single-audio", "trial_index": 125, "time_elapsed": 681306, "internal_node_id": "0.0-89.0"}}, {"uniqueid": "MTK1290:35USIKEBNSN2FBZYCTHJG8Q9N366NN", "current_trial": 126, "dateTime": 1513536730456, "trialdata": {"rt": -1000, "stimulus": "/static/audio/wordpool/RIFLE.wav", "key_press": -1, "type": "PRES_AUD", "word": "rifle", "wordID": 1191, "conditions": [24, 800, "a", 12000], "trial": 3, "serialpos": 9, "trial_type": "single-audio", "trial_index": 126, "time_elapsed": 683277, "internal_node_id": "0.0-90.0"}}, {"uniqueid": "MTK1290:35USIKEBNSN2FBZYCTHJG8Q9N366NN", "current_trial": 127, "dateTime": 1513536732402, "trialdata": {"rt": -1000, "stimulus": "/static/audio/wordpool/SPIDER.wav", "key_press": -1, "type": "PRES_AUD", "word": "spider", "wordID": 1350, "conditions": [24, 800, "a", 12000], "trial": 3, "serialpos": 10, "trial_type": "single-audio", "trial_index": 127, "time_elapsed": 685223, "internal_node_id": "0.0-91.0"}}, {"uniqueid": "MTK1290:35USIKEBNSN2FBZYCTHJG8Q9N366NN", "current_trial": 128, "dateTime": 1513536734098, "trialdata": {"rt": -1000, "stimulus": "/static/audio/wordpool/SUSPECT.wav", "key_press": -1, "type": "PRES_AUD", "word": "suspect", "wordID": 1414, "conditions": [24, 800, "a", 12000], "trial": 3, "serialpos": 11, "trial_type": "single-audio", "trial_index": 128, "time_elapsed": 686919, "internal_node_id": "0.0-92.0"}}, {"uniqueid": "MTK1290:35USIKEBNSN2FBZYCTHJG8Q9N366NN", "current_trial": 129, "dateTime": 1513536735727, "trialdata": {"rt": -1000, "stimulus": "/static/audio/wordpool/COFFEE.wav", "key_press": -1, "type": "PRES_AUD", "word": "coffee", "wordID": 340, "conditions": [24, 800, "a", 12000], "trial": 3, "serialpos": 12, "trial_type": "single-audio", "trial_index": 129, "time_elapsed": 688548, "internal_node_id": "0.0-93.0"}}, {"uniqueid": "MTK1290:35USIKEBNSN2FBZYCTHJG8Q9N366NN", "current_trial": 130, "dateTime": 1513536737684, "trialdata": {"rt": -1000, "stimulus": "/static/audio/wordpool/SWIMMER.wav", "key_press": -1, "type": "PRES_AUD", "word": "swimmer", "wordID": 1419, "conditions": [24, 800, "a", 12000], "trial": 3, "serialpos": 13, "trial_type": "single-audio", "trial_index": 130, "time_elapsed": 690505, "internal_node_id": "0.0-94.0"}}, {"uniqueid": "MTK1290:35USIKEBNSN2FBZYCTHJG8Q9N366NN", "current_trial": 131, "dateTime": 1513536739596, "trialdata": {"rt": -1000, "stimulus": "/static/audio/wordpool/DRESS.wav", "key_press": -1, "type": "PRES_AUD", "word": "dress", "wordID": 494, "conditions": [24, 800, "a", 12000], "trial": 3, "serialpos": 14, "trial_type": "single-audio", "trial_index": 131, "time_elapsed": 692417, "internal_node_id": "0.0-95.0"}}, {"uniqueid": "MTK1290:35USIKEBNSN2FBZYCTHJG8Q9N366NN", "current_trial": 132, "dateTime": 1513536741519, "trialdata": {"rt": -1000, "stimulus": "/static/audio/wordpool/LAKE.wav", "key_press": -1, "type": "PRES_AUD", "word": "lake", "wordID": 795, "conditions": [24, 800, "a", 12000], "trial": 3, "serialpos": 15, "trial_type": "single-audio", "trial_index": 132, "time_elapsed": 694340, "internal_node_id": "0.0-96.0"}}, {"uniqueid": "MTK1290:35USIKEBNSN2FBZYCTHJG8Q9N366NN", "current_trial": 133, "dateTime": 1513536743343, "trialdata": {"rt": -1000, "stimulus": "/static/audio/wordpool/CANAL.wav", "key_press": -1, "type": "PRES_AUD", "word": "canal", "wordID": 225, "conditions": [24, 800, "a", 12000], "trial": 3, "serialpos": 16, "trial_type": "single-audio", "trial_index": 133, "time_elapsed": 696164, "internal_node_id": "0.0-97.0"}}, {"uniqueid": "MTK1290:35USIKEBNSN2FBZYCTHJG8Q9N366NN", "current_trial": 134, "dateTime": 1513536745055, "trialdata": {"rt": -1000, "stimulus": "/static/audio/wordpool/LUGGAGE.wav", "key_press": -1, "type": "PRES_AUD", "word": "luggage", "wordID": 846, "conditions": [24, 800, "a", 12000], "trial": 3, "serialpos": 17, "trial_type": "single-audio", "trial_index": 134, "time_elapsed": 697875, "internal_node_id": "0.0-98.0"}}, {"uniqueid": "MTK1290:35USIKEBNSN2FBZYCTHJG8Q9N366NN", "current_trial": 135, "dateTime": 1513536746976, "trialdata": {"rt": -1000, "stimulus": "/static/audio/wordpool/DRIVER.wav", "key_press": -1, "type": "PRES_AUD", "word": "driver", "wordID": 498, "conditions": [24, 800, "a", 12000], "trial": 3, "serialpos": 18, "trial_type": "single-audio", "trial_index": 135, "time_elapsed": 699797, "internal_node_id": "0.0-99.0"}}, {"uniqueid": "MTK1290:35USIKEBNSN2FBZYCTHJG8Q9N366NN", "current_trial": 136, "dateTime": 1513536748944, "trialdata": {"rt": -1000, "stimulus": "/static/audio/wordpool/AUTHOR.wav", "key_press": -1, "type": "PRES_AUD", "word": "author", "wordID": 60, "conditions": [24, 800, "a", 12000], "trial": 3, "serialpos": 19, "trial_type": "single-audio", "trial_index": 136, "time_elapsed": 701765, "internal_node_id": "0.0-100.0"}}, {"uniqueid": "MTK1290:35USIKEBNSN2FBZYCTHJG8Q9N366NN", "current_trial": 137, "dateTime": 1513536750573, "trialdata": {"rt": -1000, "stimulus": "/static/audio/wordpool/WIDOW.wav", "key_press": -1, "type": "PRES_AUD", "word": "widow", "wordID": 1607, "conditions": [24, 800, "a", 12000], "trial": 3, "serialpos": 20, "trial_type": "single-audio", "trial_index": 137, "time_elapsed": 703394, "internal_node_id": "0.0-101.0"}}, {"uniqueid": "MTK1290:35USIKEBNSN2FBZYCTHJG8Q9N366NN", "current_trial": 138, "dateTime": 1513536752518, "trialdata": {"rt": -1000, "stimulus": "/static/audio/wordpool/WIFE.wav", "key_press": -1, "type": "PRES_AUD", "word": "wife", "wordID": 1608, "conditions": [24, 800, "a", 12000], "trial": 3, "serialpos": 21, "trial_type": "single-audio", "trial_index": 138, "time_elapsed": 705338, "internal_node_id": "0.0-102.0"}}, {"uniqueid": "MTK1290:35USIKEBNSN2FBZYCTHJG8Q9N366NN", "current_trial": 139, "dateTime": 1513536754315, "trialdata": {"rt": -1000, "stimulus": "/static/audio/wordpool/SKIRT.wav", "key_press": -1, "type": "PRES_AUD", "word": "skirt", "wordID": 1318, "conditions": [24, 800, "a", 12000], "trial": 3, "serialpos": 22, "trial_type": "single-audio", "trial_index": 139, "time_elapsed": 707136, "internal_node_id": "0.0-103.0"}}, {"uniqueid": "MTK1290:35USIKEBNSN2FBZYCTHJG8Q9N366NN", "current_trial": 140, "dateTime": 1513536756035, "trialdata": {"rt": -1000, "stimulus": "/static/audio/wordpool/HONEY.wav", "key_press": -1, "type": "PRES_AUD", "word": "honey", "wordID": 712, "conditions": [24, 800, "a", 12000], "trial": 3, "serialpos": 23, "trial_type": "single-audio", "trial_index": 140, "time_elapsed": 708856, "internal_node_id": "0.0-104.0"}}, {"uniqueid": "MTK1290:35USIKEBNSN2FBZYCTHJG8Q9N366NN", "current_trial": 141, "dateTime": 1513536757373, "trialdata": {"rt": -1, "stimulus": "", "key_press": -1, "type": "PRE_RECALL_DELAY", "trial_type": "single-stim", "trial_index": 141, "time_elapsed": 710194, "internal_node_id": "0.0-105.0-0.0"}}, {"uniqueid": "MTK1290:35USIKEBNSN2FBZYCTHJG8Q9N366NN", "current_trial": 142, "dateTime": 1513536757879, "trialdata": {"rt": -1000, "stimulus": "/static/audio/400Hz.wav", "key_press": -1, "type": "PRE_RECALL_ALERT", "trial_type": "single-audio", "trial_index": 142, "time_elapsed": 710700, "internal_node_id": "0.0-106.0"}}, {"uniqueid": "MTK1290:35USIKEBNSN2FBZYCTHJG8Q9N366NN", "current_trial": 143, "dateTime": 1513536817885, "trialdata": {"rt": [6543, 12843, 16042, 20028, 22529, 25313, 26612, 30464, 33275, 39383, 42530, 47636, 48591, 51691, 59116], "recwords": ["tile", "brick", "lipstick", "brief", "briefcase", "jury", "soda", "spide", "coffee", "dress", "lake", "skirt", "honey", "widow", "suspect"], "type": "FREE_RECALL", "conditions": [24, 800, "a", 12000], "trial": 3, "trial_type": "free-recall", "trial_index": 143, "time_elapsed": 770703, "internal_node_id": "0.0-107.0-0.0"}}, {"uniqueid": "MTK1290:35USIKEBNSN2FBZYCTHJG8Q9N366NN", "current_trial": 144, "dateTime": 1513536821678, "trialdata": {"rt": 1791, "key_press": 32, "type": "INSTRUCTIONS", "trial_type": "text", "trial_index": 144, "time_elapsed": 774499, "internal_node_id": "0.0-108.0"}}, {"uniqueid": "MTK1290:35USIKEBNSN2FBZYCTHJG8Q9N366NN", "current_trial": 145, "dateTime": 1513536835686, "trialdata": {"rt": [2729, 5467, 8529], "responses": ["11", "11", "18"], "num1": [4, 3, 8, 7], "num2": [5, 2, 3, 1], "num3": [2, 5, 7, 9], "type": "DISTRACTOR", "conditions": [12, 800, "a", 12000], "trial": 4, "trial_type": "math-distractor", "trial_index": 145, "time_elapsed": 788507, "internal_node_id": "0.0-109.0"}}, {"uniqueid": "MTK1290:35USIKEBNSN2FBZYCTHJG8Q9N366NN", "current_trial": 146, "dateTime": 1513536838694, "trialdata": {"rt": -1, "stimulus": "<p id=\"stim\">10</p>", "key_press": -1, "trial_type": "single-stim", "trial_index": 146, "time_elapsed": 791515, "internal_node_id": "0.0-110.0-0.0"}}, {"uniqueid": "MTK1290:35USIKEBNSN2FBZYCTHJG8Q9N366NN", "current_trial": 147, "dateTime": 1513536839696, "trialdata": {"rt": -1, "stimulus": "<p id=\"stim\">9</p>", "key_press": -1, "trial_type": "single-stim", "trial_index": 147, "time_elapsed": 792517, "internal_node_id": "0.0-110.0-1.0"}}, {"uniqueid": "MTK1290:35USIKEBNSN2FBZYCTHJG8Q9N366NN", "current_trial": 148, "dateTime": 1513536840700, "trialdata": {"rt": -1, "stimulus": "<p id=\"stim\">8</p>", "key_press": -1, "trial_type": "single-stim", "trial_index": 148, "time_elapsed": 793521, "internal_node_id": "0.0-110.0-2.0"}}, {"uniqueid": "MTK1290:35USIKEBNSN2FBZYCTHJG8Q9N366NN", "current_trial": 149, "dateTime": 1513536841702, "trialdata": {"rt": -1, "stimulus": "<p id=\"stim\">7</p>", "key_press": -1, "trial_type": "single-stim", "trial_index": 149, "time_elapsed": 794523, "internal_node_id": "0.0-110.0-3.0"}}, {"uniqueid": "MTK1290:35USIKEBNSN2FBZYCTHJG8Q9N366NN", "current_trial": 150, "dateTime": 1513536842708, "trialdata": {"rt": 8, "stimulus": "<p id=\"stim\">6</p>", "key_press": 96, "trial_type": "single-stim", "trial_index": 150, "time_elapsed": 795529, "internal_node_id": "0.0-110.0-4.0"}}, {"uniqueid": "MTK1290:35USIKEBNSN2FBZYCTHJG8Q9N366NN", "current_trial": 151, "dateTime": 1513536843709, "trialdata": {"rt": -1, "stimulus": "<p id=\"stim\">5</p>", "key_press": -1, "trial_type": "single-stim", "trial_index": 151, "time_elapsed": 796530, "internal_node_id": "0.0-110.0-5.0"}}, {"uniqueid": "MTK1290:35USIKEBNSN2FBZYCTHJG8Q9N366NN", "current_trial": 152, "dateTime": 1513536844711, "trialdata": {"rt": -1, "stimulus": "<p id=\"stim\">4</p>", "key_press": -1, "trial_type": "single-stim", "trial_index": 152, "time_elapsed": 797532, "internal_node_id": "0.0-110.0-6.0"}}, {"uniqueid": "MTK1290:35USIKEBNSN2FBZYCTHJG8Q9N366NN", "current_trial": 153, "dateTime": 1513536845714, "trialdata": {"rt": -1, "stimulus": "<p id=\"stim\">3</p>", "key_press": -1, "trial_type": "single-stim", "trial_index": 153, "time_elapsed": 798535, "internal_node_id": "0.0-110.0-7.0"}}, {"uniqueid": "MTK1290:35USIKEBNSN2FBZYCTHJG8Q9N366NN", "current_trial": 154, "dateTime": 1513536846716, "trialdata": {"rt": -1, "stimulus": "<p id=\"stim\">2</p>", "key_press": -1, "trial_type": "single-stim", "trial_index": 154, "time_elapsed": 799537, "internal_node_id": "0.0-110.0-8.0"}}, {"uniqueid": "MTK1290:35USIKEBNSN2FBZYCTHJG8Q9N366NN", "current_trial": 155, "dateTime": 1513536847722, "trialdata": {"rt": -1, "stimulus": "<p id=\"stim\">1</p>", "key_press": -1, "trial_type": "single-stim", "trial_index": 155, "time_elapsed": 800542, "internal_node_id": "0.0-110.0-9.0"}}, {"uniqueid": "MTK1290:35USIKEBNSN2FBZYCTHJG8Q9N366NN", "current_trial": 156, "dateTime": 1513536849224, "trialdata": {"rt": -1, "stimulus": "<p id=\"stim\">+</p>", "key_press": -1, "type": "FIXATION", "trial_type": "single-stim", "trial_index": 156, "time_elapsed": 802045, "internal_node_id": "0.0-111.0-0.0"}}, {"uniqueid": "MTK1290:35USIKEBNSN2FBZYCTHJG8Q9N366NN", "current_trial": 157, "dateTime": 1513536850922, "trialdata": {"rt": -1000, "stimulus": "/static/audio/wordpool/SILK.wav", "key_press": -1, "type": "PRES_AUD", "word": "silk", "wordID": 1306, "conditions": [12, 800, "a", 12000], "trial": 4, "serialpos": 0, "trial_type": "single-audio", "trial_index": 157, "time_elapsed": 803743, "internal_node_id": "0.0-112.0"}}, {"uniqueid": "MTK1290:35USIKEBNSN2FBZYCTHJG8Q9N366NN", "current_trial": 158, "dateTime": 1513536852719, "trialdata": {"rt": -1000, "stimulus": "/static/audio/wordpool/WAITRESS.wav", "key_press": -1, "type": "PRES_AUD", "word": "waitress", "wordID": 1580, "conditions": [12, 800, "a", 12000], "trial": 4, "serialpos": 1, "trial_type": "single-audio", "trial_index": 158, "time_elapsed": 805538, "internal_node_id": "0.0-113.0"}}, {"uniqueid": "MTK1290:35USIKEBNSN2FBZYCTHJG8Q9N366NN", "current_trial": 159, "dateTime": 1513536854650, "trialdata": {"rt": -1000, "stimulus": "/static/audio/wordpool/YARN.wav", "key_press": -1, "type": "PRES_AUD", "word": "yarn", "wordID": 1630, "conditions": [12, 800, "a", 12000], "trial": 4, "serialpos": 2, "trial_type": "single-audio", "trial_index": 159, "time_elapsed": 807471, "internal_node_id": "0.0-114.0"}}, {"uniqueid": "MTK1290:35USIKEBNSN2FBZYCTHJG8Q9N366NN", "current_trial": 160, "dateTime": 1513536856594, "trialdata": {"rt": -1000, "stimulus": "/static/audio/wordpool/SALT.wav", "key_press": -1, "type": "PRES_AUD", "word": "salt", "wordID": 1228, "conditions": [12, 800, "a", 12000], "trial": 4, "serialpos": 3, "trial_type": "single-audio", "trial_index": 160, "time_elapsed": 809415, "internal_node_id": "0.0-115.0"}}, {"uniqueid": "MTK1290:35USIKEBNSN2FBZYCTHJG8Q9N366NN", "current_trial": 161, "dateTime": 1513536858470, "trialdata": {"rt": -1000, "stimulus": "/static/audio/wordpool/COBRA.wav", "key_press": -1, "type": "PRES_AUD", "word": "cobra", "wordID": 335, "conditions": [12, 800, "a", 12000], "trial": 4, "serialpos": 4, "trial_type": "single-audio", "trial_index": 161, "time_elapsed": 811291, "internal_node_id": "0.0-116.0"}}, {"uniqueid": "MTK1290:35USIKEBNSN2FBZYCTHJG8Q9N366NN", "current_trial": 162, "dateTime": 1513536860474, "trialdata": {"rt": -1000, "stimulus": "/static/audio/wordpool/SUITCASE.wav", "key_press": -1, "type": "PRES_AUD", "word": "suitcase", "wordID": 1402, "conditions": [12, 800, "a", 12000], "trial": 4, "serialpos": 5, "trial_type": "single-audio", "trial_index": 162, "time_elapsed": 813295, "internal_node_id": "0.0-117.0"}}, {"uniqueid": "MTK1290:35USIKEBNSN2FBZYCTHJG8Q9N366NN", "current_trial": 163, "dateTime": 1513536862139, "trialdata": {"rt": -1000, "stimulus": "/static/audio/wordpool/SIDEWALK.wav", "key_press": -1, "type": "PRES_AUD", "word": "sidewalk", "wordID": 1302, "conditions": [12, 800, "a", 12000], "trial": 4, "serialpos": 6, "trial_type": "single-audio", "trial_index": 163, "time_elapsed": 814960, "internal_node_id": "0.0-118.0"}}, {"uniqueid": "MTK1290:35USIKEBNSN2FBZYCTHJG8Q9N366NN", "current_trial": 164, "dateTime": 1513536863823, "trialdata": {"rt": -1000, "stimulus": "/static/audio/wordpool/SPARROW.wav", "key_press": -1, "type": "PRES_AUD", "word": "sparrow", "wordID": 1346, "conditions": [12, 800, "a", 12000], "trial": 4, "serialpos": 7, "trial_type": "single-audio", "trial_index": 164, "time_elapsed": 816644, "internal_node_id": "0.0-119.0"}}, {"uniqueid": "MTK1290:35USIKEBNSN2FBZYCTHJG8Q9N366NN", "current_trial": 165, "dateTime": 1513536865523, "trialdata": {"rt": -1000, "stimulus": "/static/audio/wordpool/COD.wav", "key_press": -1, "type": "PRES_AUD", "word": "cod", "wordID": 339, "conditions": [12, 800, "a", 12000], "trial": 4, "serialpos": 8, "trial_type": "single-audio", "trial_index": 165, "time_elapsed": 818344, "internal_node_id": "0.0-120.0"}}, {"uniqueid": "MTK1290:35USIKEBNSN2FBZYCTHJG8Q9N366NN", "current_trial": 166, "dateTime": 1513536867468, "trialdata": {"rt": -1000, "stimulus": "/static/audio/wordpool/PLAZA.wav", "key_press": -1, "type": "PRES_AUD", "word": "plaza", "wordID": 1087, "conditions": [12, 800, "a", 12000], "trial": 4, "serialpos": 9, "trial_type": "single-audio", "trial_index": 166, "time_elapsed": 820289, "internal_node_id": "0.0-121.0"}}, {"uniqueid": "MTK1290:35USIKEBNSN2FBZYCTHJG8Q9N366NN", "current_trial": 167, "dateTime": 1513536869318, "trialdata": {"rt": -1000, "stimulus": "/static/audio/wordpool/COUNTY.wav", "key_press": -1, "type": "PRES_AUD", "word": "county", "wordID": 388, "conditions": [12, 800, "a", 12000], "trial": 4, "serialpos": 10, "trial_type": "single-audio", "trial_index": 167, "time_elapsed": 822139, "internal_node_id": "0.0-122.0"}}, {"uniqueid": "MTK1290:35USIKEBNSN2FBZYCTHJG8Q9N366NN", "current_trial": 168, "dateTime": 1513536871328, "trialdata": {"rt": -1000, "stimulus": "/static/audio/wordpool/SHERIFF.wav", "key_press": -1, "type": "PRES_AUD", "word": "sheriff", "wordID": 1283, "conditions": [12, 800, "a", 12000], "trial": 4, "serialpos": 11, "trial_type": "single-audio", "trial_index": 168, "time_elapsed": 824149, "internal_node_id": "0.0-123.0"}}, {"uniqueid": "MTK1290:35USIKEBNSN2FBZYCTHJG8Q9N366NN", "current_trial": 169, "dateTime": 1513536872676, "trialdata": {"rt": -1, "stimulus": "", "key_press": -1, "type": "PRE_RECALL_DELAY", "trial_type": "single-stim", "trial_index": 169, "time_elapsed": 825497, "internal_node_id": "0.0-124.0-0.0"}}, {"uniqueid": "MTK1290:35USIKEBNSN2FBZYCTHJG8Q9N366NN", "current_trial": 170, "dateTime": 1513536873182, "trialdata": {"rt": -1000, "stimulus": "/static/audio/400Hz.wav", "key_press": -1, "type": "PRE_RECALL_ALERT", "trial_type": "single-audio", "trial_index": 170, "time_elapsed": 826003, "internal_node_id": "0.0-125.0"}}, {"uniqueid": "MTK1290:35USIKEBNSN2FBZYCTHJG8Q9N366NN", "current_trial": 171, "dateTime": 1513536933192, "trialdata": {"rt": [6406, 8258, 9906, 13450, 15636, 18334, 21067, 32060, 35187], "recwords": ["sick", "waitress", "salt", "cobra", "suit", "suitcase", "sidewalk", "sidewalk", "sheriff"], "type": "FREE_RECALL", "conditions": [12, 800, "a", 12000], "trial": 4, "trial_type": "free-recall", "trial_index": 171, "time_elapsed": 886007, "internal_node_id": "0.0-126.0-0.0"}}, {"uniqueid": "MTK1290:35USIKEBNSN2FBZYCTHJG8Q9N366NN", "current_trial": 172, "dateTime": 1513536937506, "trialdata": {"rt": 2310, "key_press": 32, "type": "INSTRUCTIONS", "trial_type": "text", "trial_index": 172, "time_elapsed": 890327, "internal_node_id": "0.0-127.0"}}, {"uniqueid": "MTK1290:35USIKEBNSN2FBZYCTHJG8Q9N366NN", "current_trial": 173, "dateTime": 1513536951514, "trialdata": {"rt": [3023, 5835, 9837], "responses": ["19", "11", "17"], "num1": [9, 2, 8, 8], "num2": [9, 5, 6, 6], "num3": [1, 4, 3, 7], "type": "DISTRACTOR", "conditions": [24, 1600, "a", 12000], "trial": 5, "trial_type": "math-distractor", "trial_index": 173, "time_elapsed": 904335, "internal_node_id": "0.0-128.0"}}, {"uniqueid": "MTK1290:35USIKEBNSN2FBZYCTHJG8Q9N366NN", "current_trial": 174, "dateTime": 1513536954519, "trialdata": {"rt": -1, "stimulus": "<p id=\"stim\">10</p>", "key_press": -1, "trial_type": "single-stim", "trial_index": 174, "time_elapsed": 907340, "internal_node_id": "0.0-129.0-0.0"}}, {"uniqueid": "MTK1290:35USIKEBNSN2FBZYCTHJG8Q9N366NN", "current_trial": 175, "dateTime": 1513536955524, "trialdata": {"rt": -1, "stimulus": "<p id=\"stim\">9</p>", "key_press": -1, "trial_type": "single-stim", "trial_index": 175, "time_elapsed": 908345, "internal_node_id": "0.0-129.0-1.0"}}, {"uniqueid": "MTK1290:35USIKEBNSN2FBZYCTHJG8Q9N366NN", "current_trial": 176, "dateTime": 1513536956529, "trialdata": {"rt": -1, "stimulus": "<p id=\"stim\">8</p>", "key_press": -1, "trial_type": "single-stim", "trial_index": 176, "time_elapsed": 909350, "internal_node_id": "0.0-129.0-2.0"}}, {"uniqueid": "MTK1290:35USIKEBNSN2FBZYCTHJG8Q9N366NN", "current_trial": 177, "dateTime": 1513536957537, "trialdata": {"rt": -1, "stimulus": "<p id=\"stim\">7</p>", "key_press": -1, "trial_type": "single-stim", "trial_index": 177, "time_elapsed": 910357, "internal_node_id": "0.0-129.0-3.0"}}, {"uniqueid": "MTK1290:35USIKEBNSN2FBZYCTHJG8Q9N366NN", "current_trial": 178, "dateTime": 1513536958542, "trialdata": {"rt": -1, "stimulus": "<p id=\"stim\">6</p>", "key_press": -1, "trial_type": "single-stim", "trial_index": 178, "time_elapsed": 911363, "internal_node_id": "0.0-129.0-4.0"}}, {"uniqueid": "MTK1290:35USIKEBNSN2FBZYCTHJG8Q9N366NN", "current_trial": 179, "dateTime": 1513536959547, "trialdata": {"rt": -1, "stimulus": "<p id=\"stim\">5</p>", "key_press": -1, "trial_type": "single-stim", "trial_index": 179, "time_elapsed": 912367, "internal_node_id": "0.0-129.0-5.0"}}, {"uniqueid": "MTK1290:35USIKEBNSN2FBZYCTHJG8Q9N366NN", "current_trial": 180, "dateTime": 1513536960549, "trialdata": {"rt": -1, "stimulus": "<p id=\"stim\">4</p>", "key_press": -1, "trial_type": "single-stim", "trial_index": 180, "time_elapsed": 913370, "internal_node_id": "0.0-129.0-6.0"}}, {"uniqueid": "MTK1290:35USIKEBNSN2FBZYCTHJG8Q9N366NN", "current_trial": 181, "dateTime": 1513536961552, "trialdata": {"rt": -1, "stimulus": "<p id=\"stim\">3</p>", "key_press": -1, "trial_type": "single-stim", "trial_index": 181, "time_elapsed": 914373, "internal_node_id": "0.0-129.0-7.0"}}, {"uniqueid": "MTK1290:35USIKEBNSN2FBZYCTHJG8Q9N366NN", "current_trial": 182, "dateTime": 1513536962555, "trialdata": {"rt": -1, "stimulus": "<p id=\"stim\">2</p>", "key_press": -1, "trial_type": "single-stim", "trial_index": 182, "time_elapsed": 915376, "internal_node_id": "0.0-129.0-8.0"}}, {"uniqueid": "MTK1290:35USIKEBNSN2FBZYCTHJG8Q9N366NN", "current_trial": 183, "dateTime": 1513536963557, "trialdata": {"rt": -1, "stimulus": "<p id=\"stim\">1</p>", "key_press": -1, "trial_type": "single-stim", "trial_index": 183, "time_elapsed": 916378, "internal_node_id": "0.0-129.0-9.0"}}, {"uniqueid": "MTK1290:35USIKEBNSN2FBZYCTHJG8Q9N366NN", "current_trial": 184, "dateTime": 1513536965059, "trialdata": {"rt": -1, "stimulus": "<p id=\"stim\">+</p>", "key_press": -1, "type": "FIXATION", "trial_type": "single-stim", "trial_index": 184, "time_elapsed": 917879, "internal_node_id": "0.0-130.0-0.0"}}, {"uniqueid": "MTK1290:35USIKEBNSN2FBZYCTHJG8Q9N366NN", "current_trial": 185, "dateTime": 1513536967489, "trialdata": {"rt": -1000, "stimulus": "/static/audio/wordpool/SHOVEL.wav", "key_press": -1, "type": "PRES_AUD", "word": "shovel", "wordID": 1294, "conditions": [24, 1600, "a", 12000], "trial": 5, "serialpos": 0, "trial_type": "single-audio", "trial_index": 185, "time_elapsed": 920310, "internal_node_id": "0.0-131.0"}}, {"uniqueid": "MTK1290:35USIKEBNSN2FBZYCTHJG8Q9N366NN", "current_trial": 186, "dateTime": 1513536969964, "trialdata": {"rt": -1000, "stimulus": "/static/audio/wordpool/MARSH.wav", "key_press": -1, "type": "PRES_AUD", "word": "marsh", "wordID": 873, "conditions": [24, 1600, "a", 12000], "trial": 5, "serialpos": 1, "trial_type": "single-audio", "trial_index": 186, "time_elapsed": 922785, "internal_node_id": "0.0-132.0"}}, {"uniqueid": "MTK1290:35USIKEBNSN2FBZYCTHJG8Q9N366NN", "current_trial": 187, "dateTime": 1513536972608, "trialdata": {"rt": -1000, "stimulus": "/static/audio/wordpool/DONOR.wav", "key_press": -1, "type": "PRES_AUD", "word": "donor", "wordID": 484, "conditions": [24, 1600, "a", 12000], "trial": 5, "serialpos": 2, "trial_type": "single-audio", "trial_index": 187, "time_elapsed": 925428, "internal_node_id": "0.0-133.0"}}, {"uniqueid": "MTK1290:35USIKEBNSN2FBZYCTHJG8Q9N366NN", "current_trial": 188, "dateTime": 1513536975383, "trialdata": {"rt": -1000, "stimulus": "/static/audio/wordpool/CAFE.wav", "key_press": -1, "type": "PRES_AUD", "word": "cafe", "wordID": 215, "conditions": [24, 1600, "a", 12000], "trial": 5, "serialpos": 3, "trial_type": "single-audio", "trial_index": 188, "time_elapsed": 928204, "internal_node_id": "0.0-134.0"}}, {"uniqueid": "MTK1290:35USIKEBNSN2FBZYCTHJG8Q9N366NN", "current_trial": 189, "dateTime": 1513536978007, "trialdata": {"rt": -1000, "stimulus": "/static/audio/wordpool/ROOSTER.wav", "key_press": -1, "type": "PRES_AUD", "word": "rooster", "wordID": 1208, "conditions": [24, 1600, "a", 12000], "trial": 5, "serialpos": 4, "trial_type": "single-audio", "trial_index": 189, "time_elapsed": 930828, "internal_node_id": "0.0-135.0"}}, {"uniqueid": "MTK1290:35USIKEBNSN2FBZYCTHJG8Q9N366NN", "current_trial": 190, "dateTime": 1513536980574, "trialdata": {"rt": -1000, "stimulus": "/static/audio/wordpool/LEOPARD.wav", "key_press": -1, "type": "PRES_AUD", "word": "leopard", "wordID": 811, "conditions": [24, 1600, "a", 12000], "trial": 5, "serialpos": 5, "trial_type": "single-audio", "trial_index": 190, "time_elapsed": 933395, "internal_node_id": "0.0-136.0"}}, {"uniqueid": "MTK1290:35USIKEBNSN2FBZYCTHJG8Q9N366NN", "current_trial": 191, "dateTime": 1513536983284, "trialdata": {"rt": -1000, "stimulus": "/static/audio/wordpool/PEACH.wav", "key_press": -1, "type": "PRES_AUD", "word": "peach", "wordID": 1030, "conditions": [24, 1600, "a", 12000], "trial": 5, "serialpos": 6, "trial_type": "single-audio", "trial_index": 191, "time_elapsed": 936105, "internal_node_id": "0.0-137.0"}}, {"uniqueid": "MTK1290:35USIKEBNSN2FBZYCTHJG8Q9N366NN", "current_trial": 192, "dateTime": 1513536985793, "trialdata": {"rt": -1000, "stimulus": "/static/audio/wordpool/COIN.wav", "key_press": -1, "type": "PRES_AUD", "word": "coin", "wordID": 342, "conditions": [24, 1600, "a", 12000], "trial": 5, "serialpos": 7, "trial_type": "single-audio", "trial_index": 192, "time_elapsed": 938614, "internal_node_id": "0.0-138.0"}}, {"uniqueid": "MTK1290:35USIKEBNSN2FBZYCTHJG8Q9N366NN", "current_trial": 193, "dateTime": 1513536988333, "trialdata": {"rt": -1000, "stimulus": "/static/audio/wordpool/PALACE.wav", "key_press": -1, "type": "PRES_AUD", "word": "palace", "wordID": 1005, "conditions": [24, 1600, "a", 12000], "trial": 5, "serialpos": 8, "trial_type": "single-audio", "trial_index": 193, "time_elapsed": 941154, "internal_node_id": "0.0-139.0"}}, {"uniqueid": "MTK1290:35USIKEBNSN2FBZYCTHJG8Q9N366NN", "current_trial": 194, "dateTime": 1513536991051, "trialdata": {"rt": -1000, "stimulus": "/static/audio/wordpool/ELBOW.wav", "key_press": -1, "type": "PRES_AUD", "word": "elbow", "wordID": 519, "conditions": [24, 1600, "a", 12000], "trial": 5, "serialpos": 9, "trial_type": "single-audio", "trial_index": 194, "time_elapsed": 943872, "internal_node_id": "0.0-140.0"}}, {"uniqueid": "MTK1290:35USIKEBNSN2FBZYCTHJG8Q9N366NN", "current_trial": 195, "dateTime": 1513536993637, "trialdata": {"rt": -1000, "stimulus": "/static/audio/wordpool/SHOULDER.wav", "key_press": -1, "type": "PRES_AUD", "word": "shoulder", "wordID": 1293, "conditions": [24, 1600, "a", 12000], "trial": 5, "serialpos": 10, "trial_type": "single-audio", "trial_index": 195, "time_elapsed": 946458, "internal_node_id": "0.0-141.0"}}, {"uniqueid": "MTK1290:35USIKEBNSN2FBZYCTHJG8Q9N366NN", "current_trial": 196, "dateTime": 1513536996116, "trialdata": {"rt": -1000, "stimulus": "/static/audio/wordpool/RIVER.wav", "key_press": -1, "type": "PRES_AUD", "word": "river", "wordID": 1193, "conditions": [24, 1600, "a", 12000], "trial": 5, "serialpos": 11, "trial_type": "single-audio", "trial_index": 196, "time_elapsed": 948937, "internal_node_id": "0.0-142.0"}}, {"uniqueid": "MTK1290:35USIKEBNSN2FBZYCTHJG8Q9N366NN", "current_trial": 197, "dateTime": 1513536998591, "trialdata": {"rt": -1000, "stimulus": "/static/audio/wordpool/TEACHER.wav", "key_press": -1, "type": "PRES_AUD", "word": "teacher", "wordID": 1439, "conditions": [24, 1600, "a", 12000], "trial": 5, "serialpos": 12, "trial_type": "single-audio", "trial_index": 197, "time_elapsed": 951412, "internal_node_id": "0.0-143.0"}}, {"uniqueid": "MTK1290:35USIKEBNSN2FBZYCTHJG8Q9N366NN", "current_trial": 198, "dateTime": 1513537001152, "trialdata": {"rt": -1000, "stimulus": "/static/audio/wordpool/PIGEON.wav", "key_press": -1, "type": "PRES_AUD", "word": "pigeon", "wordID": 1064, "conditions": [24, 1600, "a", 12000], "trial": 5, "serialpos": 13, "trial_type": "single-audio", "trial_index": 198, "time_elapsed": 953973, "internal_node_id": "0.0-144.0"}}, {"uniqueid": "MTK1290:35USIKEBNSN2FBZYCTHJG8Q9N366NN", "current_trial": 199, "dateTime": 1513537003818, "trialdata": {"rt": -1000, "stimulus": "/static/audio/wordpool/PERMIT.wav", "key_press": -1, "type": "PRES_AUD", "word": "permit", "wordID": 1050, "conditions": [24, 1600, "a", 12000], "trial": 5, "serialpos": 14, "trial_type": "single-audio", "trial_index": 199, "time_elapsed": 956639, "internal_node_id": "0.0-145.0"}}, {"uniqueid": "MTK1290:35USIKEBNSN2FBZYCTHJG8Q9N366NN", "current_trial": 200, "dateTime": 1513537006519, "trialdata": {"rt": -1000, "stimulus": "/static/audio/wordpool/BEAVER.wav", "key_press": -1, "type": "PRES_AUD", "word": "beaver", "wordID": 108, "conditions": [24, 1600, "a", 12000], "trial": 5, "serialpos": 15, "trial_type": "single-audio", "trial_index": 200, "time_elapsed": 959340, "internal_node_id": "0.0-146.0"}}, {"uniqueid": "MTK1290:35USIKEBNSN2FBZYCTHJG8Q9N366NN", "current_trial": 201, "dateTime": 1513537008961, "trialdata": {"rt": -1000, "stimulus": "/static/audio/wordpool/COUNTRY.wav", "key_press": -1, "type": "PRES_AUD", "word": "country", "wordID": 387, "conditions": [24, 1600, "a", 12000], "trial": 5, "serialpos": 16, "trial_type": "single-audio", "trial_index": 201, "time_elapsed": 961782, "internal_node_id": "0.0-147.0"}}, {"uniqueid": "MTK1290:35USIKEBNSN2FBZYCTHJG8Q9N366NN", "current_trial": 202, "dateTime": 1513537011471, "trialdata": {"rt": -1000, "stimulus": "/static/audio/wordpool/GRAVEL.wav", "key_press": -1, "type": "PRES_AUD", "word": "gravel", "wordID": 658, "conditions": [24, 1600, "a", 12000], "trial": 5, "serialpos": 17, "trial_type": "single-audio", "trial_index": 202, "time_elapsed": 964292, "internal_node_id": "0.0-148.0"}}, {"uniqueid": "MTK1290:35USIKEBNSN2FBZYCTHJG8Q9N366NN", "current_trial": 203, "dateTime": 1513537013977, "trialdata": {"rt": -1000, "stimulus": "/static/audio/wordpool/LAGOON.wav", "key_press": -1, "type": "PRES_AUD", "word": "lagoon", "wordID": 794, "conditions": [24, 1600, "a", 12000], "trial": 5, "serialpos": 18, "trial_type": "single-audio", "trial_index": 203, "time_elapsed": 966798, "internal_node_id": "0.0-149.0"}}, {"uniqueid": "MTK1290:35USIKEBNSN2FBZYCTHJG8Q9N366NN", "current_trial": 204, "dateTime": 1513537016589, "trialdata": {"rt": -1000, "stimulus": "/static/audio/wordpool/LAVA.wav", "key_press": -1, "type": "PRES_AUD", "word": "lava", "wordID": 803, "conditions": [24, 1600, "a", 12000], "trial": 5, "serialpos": 19, "trial_type": "single-audio", "trial_index": 204, "time_elapsed": 969410, "internal_node_id": "0.0-150.0"}}, {"uniqueid": "MTK1290:35USIKEBNSN2FBZYCTHJG8Q9N366NN", "current_trial": 205, "dateTime": 1513537019130, "trialdata": {"rt": -1000, "stimulus": "/static/audio/wordpool/WAITER.wav", "key_press": -1, "type": "PRES_AUD", "word": "waiter", "wordID": 1579, "conditions": [24, 1600, "a", 12000], "trial": 5, "serialpos": 20, "trial_type": "single-audio", "trial_index": 205, "time_elapsed": 971951, "internal_node_id": "0.0-151.0"}}, {"uniqueid": "MTK1290:35USIKEBNSN2FBZYCTHJG8Q9N366NN", "current_trial": 206, "dateTime": 1513537021666, "trialdata": {"rt": -1000, "stimulus": "/static/audio/wordpool/DINER.wav", "key_press": -1, "type": "PRES_AUD", "word": "diner", "wordID": 466, "conditions": [24, 1600, "a", 12000], "trial": 5, "serialpos": 21, "trial_type": "single-audio", "trial_index": 206, "time_elapsed": 974487, "internal_node_id": "0.0-152.0"}}, {"uniqueid": "MTK1290:35USIKEBNSN2FBZYCTHJG8Q9N366NN", "current_trial": 207, "dateTime": 1513537024417, "trialdata": {"rt": -1000, "stimulus": "/static/audio/wordpool/TROUT.wav", "key_press": -1, "type": "PRES_AUD", "word": "trout", "wordID": 1510, "conditions": [24, 1600, "a", 12000], "trial": 5, "serialpos": 22, "trial_type": "single-audio", "trial_index": 207, "time_elapsed": 977238, "internal_node_id": "0.0-153.0"}}, {"uniqueid": "MTK1290:35USIKEBNSN2FBZYCTHJG8Q9N366NN", "current_trial": 208, "dateTime": 1513537027034, "trialdata": {"rt": -1000, "stimulus": "/static/audio/wordpool/RABBIT.wav", "key_press": -1, "type": "PRES_AUD", "word": "rabbit", "wordID": 1151, "conditions": [24, 1600, "a", 12000], "trial": 5, "serialpos": 23, "trial_type": "single-audio", "trial_index": 208, "time_elapsed": 979855, "internal_node_id": "0.0-154.0"}}, {"uniqueid": "MTK1290:35USIKEBNSN2FBZYCTHJG8Q9N366NN", "current_trial": 209, "dateTime": 1513537028310, "trialdata": {"rt": -1, "stimulus": "", "key_press": -1, "type": "PRE_RECALL_DELAY", "trial_type": "single-stim", "trial_index": 209, "time_elapsed": 981131, "internal_node_id": "0.0-155.0-0.0"}}, {"uniqueid": "MTK1290:35USIKEBNSN2FBZYCTHJG8Q9N366NN", "current_trial": 210, "dateTime": 1513537028812, "trialdata": {"rt": -1000, "stimulus": "/static/audio/400Hz.wav", "key_press": -1, "type": "PRE_RECALL_ALERT", "trial_type": "single-audio", "trial_index": 210, "time_elapsed": 981632, "internal_node_id": "0.0-156.0"}}, {"uniqueid": "MTK1290:35USIKEBNSN2FBZYCTHJG8Q9N366NN", "current_trial": 211, "dateTime": 1513537088819, "trialdata": {"rt": [5045, 7441, 9716, 12581, 16888, 20839, 24894, 28439, 30756, 35646, 37373, 43595, 48990, 57452], "recwords": ["donor", "marsh", "cafe", "leopard", "coin", "river", "permit", "waiter", "diner", "trout", "rabbit", "shovel", "donor", "diner"], "type": "FREE_RECALL", "conditions": [24, 1600, "a", 12000], "trial": 5, "trial_type": "free-recall", "trial_index": 211, "time_elapsed": 1041637, "internal_node_id": "0.0-157.0-0.0"}}, {"uniqueid": "MTK1290:35USIKEBNSN2FBZYCTHJG8Q9N366NN", "current_trial": 212, "dateTime": 1513537092059, "trialdata": {"rt": 1235, "key_press": 32, "type": "INSTRUCTIONS", "trial_type": "text", "trial_index": 212, "time_elapsed": 1044880, "internal_node_id": "0.0-158.0"}}, {"uniqueid": "MTK1290:35USIKEBNSN2FBZYCTHJG8Q9N366NN", "current_trial": 213, "dateTime": 1513537118068, "trialdata": {"rt": [2666, 6733, 13214, 15417, 19251, 23702], "responses": ["12", "14", "15", "11", "17", "16"], "num1": [5, 4, 5, 3, 6, 9, 7], "num2": [1, 3, 3, 6, 8, 4, 5], "num3": [6, 7, 7, 2, 3, 2, 6], "type": "DISTRACTOR", "conditions": [12, 800, "a", 24000], "trial": 6, "trial_type": "math-distractor", "trial_index": 213, "time_elapsed": 1070889, "internal_node_id": "0.0-159.0"}}, {"uniqueid": "MTK1290:35USIKEBNSN2FBZYCTHJG8Q9N366NN", "current_trial": 214, "dateTime": 1513537121076, "trialdata": {"rt": -1, "stimulus": "<p id=\"stim\">10</p>", "key_press": -1, "trial_type": "single-stim", "trial_index": 214, "time_elapsed": 1073897, "internal_node_id": "0.0-160.0-0.0"}}, {"uniqueid": "MTK1290:35USIKEBNSN2FBZYCTHJG8Q9N366NN", "current_trial": 215, "dateTime": 1513537122078, "trialdata": {"rt": -1, "stimulus": "<p id=\"stim\">9</p>", "key_press": -1, "trial_type": "single-stim", "trial_index": 215, "time_elapsed": 1074899, "internal_node_id": "0.0-160.0-1.0"}}, {"uniqueid": "MTK1290:35USIKEBNSN2FBZYCTHJG8Q9N366NN", "current_trial": 216, "dateTime": 1513537123083, "trialdata": {"rt": -1, "stimulus": "<p id=\"stim\">8</p>", "key_press": -1, "trial_type": "single-stim", "trial_index": 216, "time_elapsed": 1075904, "internal_node_id": "0.0-160.0-2.0"}}, {"uniqueid": "MTK1290:35USIKEBNSN2FBZYCTHJG8Q9N366NN", "current_trial": 217, "dateTime": 1513537124086, "trialdata": {"rt": -1, "stimulus": "<p id=\"stim\">7</p>", "key_press": -1, "trial_type": "single-stim", "trial_index": 217, "time_elapsed": 1076906, "internal_node_id": "0.0-160.0-3.0"}}, {"uniqueid": "MTK1290:35USIKEBNSN2FBZYCTHJG8Q9N366NN", "current_trial": 218, "dateTime": 1513537125090, "trialdata": {"rt": -1, "stimulus": "<p id=\"stim\">6</p>", "key_press": -1, "trial_type": "single-stim", "trial_index": 218, "time_elapsed": 1077911, "internal_node_id": "0.0-160.0-4.0"}}, {"uniqueid": "MTK1290:35USIKEBNSN2FBZYCTHJG8Q9N366NN", "current_trial": 219, "dateTime": 1513537126095, "trialdata": {"rt": -1, "stimulus": "<p id=\"stim\">5</p>", "key_press": -1, "trial_type": "single-stim", "trial_index": 219, "time_elapsed": 1078916, "internal_node_id": "0.0-160.0-5.0"}}, {"uniqueid": "MTK1290:35USIKEBNSN2FBZYCTHJG8Q9N366NN", "current_trial": 220, "dateTime": 1513537127100, "trialdata": {"rt": -1, "stimulus": "<p id=\"stim\">4</p>", "key_press": -1, "trial_type": "single-stim", "trial_index": 220, "time_elapsed": 1079921, "internal_node_id": "0.0-160.0-6.0"}}, {"uniqueid": "MTK1290:35USIKEBNSN2FBZYCTHJG8Q9N366NN", "current_trial": 221, "dateTime": 1513537128106, "trialdata": {"rt": -1, "stimulus": "<p id=\"stim\">3</p>", "key_press": -1, "trial_type": "single-stim", "trial_index": 221, "time_elapsed": 1080926, "internal_node_id": "0.0-160.0-7.0"}}, {"uniqueid": "MTK1290:35USIKEBNSN2FBZYCTHJG8Q9N366NN", "current_trial": 222, "dateTime": 1513537129110, "trialdata": {"rt": -1, "stimulus": "<p id=\"stim\">2</p>", "key_press": -1, "trial_type": "single-stim", "trial_index": 222, "time_elapsed": 1081931, "internal_node_id": "0.0-160.0-8.0"}}, {"uniqueid": "MTK1290:35USIKEBNSN2FBZYCTHJG8Q9N366NN", "current_trial": 223, "dateTime": 1513537130115, "trialdata": {"rt": -1, "stimulus": "<p id=\"stim\">1</p>", "key_press": -1, "trial_type": "single-stim", "trial_index": 223, "time_elapsed": 1082936, "internal_node_id": "0.0-160.0-9.0"}}, {"uniqueid": "MTK1290:35USIKEBNSN2FBZYCTHJG8Q9N366NN", "current_trial": 224, "dateTime": 1513537131618, "trialdata": {"rt": -1, "stimulus": "<p id=\"stim\">+</p>", "key_press": -1, "type": "FIXATION", "trial_type": "single-stim", "trial_index": 224, "time_elapsed": 1084439, "internal_node_id": "0.0-161.0-0.0"}}, {"uniqueid": "MTK1290:35USIKEBNSN2FBZYCTHJG8Q9N366NN", "current_trial": 225, "dateTime": 1513537133591, "trialdata": {"rt": -1000, "stimulus": "/static/audio/wordpool/ASIA.wav", "key_press": -1, "type": "PRES_AUD", "word": "asia", "wordID": 45, "conditions": [12, 800, "a", 24000], "trial": 6, "serialpos": 0, "trial_type": "single-audio", "trial_index": 225, "time_elapsed": 1086412, "internal_node_id": "0.0-162.0"}}, {"uniqueid": "MTK1290:35USIKEBNSN2FBZYCTHJG8Q9N366NN", "current_trial": 226, "dateTime": 1513537135545, "trialdata": {"rt": -1000, "stimulus": "/static/audio/wordpool/CONCERT.wav", "key_press": -1, "type": "PRES_AUD", "word": "concert", "wordID": 359, "conditions": [12, 800, "a", 24000], "trial": 6, "serialpos": 1, "trial_type": "single-audio", "trial_index": 226, "time_elapsed": 1088366, "internal_node_id": "0.0-163.0"}}, {"uniqueid": "MTK1290:35USIKEBNSN2FBZYCTHJG8Q9N366NN", "current_trial": 227, "dateTime": 1513537137314, "trialdata": {"rt": -1000, "stimulus": "/static/audio/wordpool/ACTRESS.wav", "key_press": -1, "type": "PRES_AUD", "word": "actress", "wordID": 5, "conditions": [12, 800, "a", 24000], "trial": 6, "serialpos": 2, "trial_type": "single-audio", "trial_index": 227, "time_elapsed": 1090135, "internal_node_id": "0.0-164.0"}}, {"uniqueid": "MTK1290:35USIKEBNSN2FBZYCTHJG8Q9N366NN", "current_trial": 228, "dateTime": 1513537139022, "trialdata": {"rt": -1000, "stimulus": "/static/audio/wordpool/NEUTRON.wav", "key_press": -1, "type": "PRES_AUD", "word": "neutron", "wordID": 946, "conditions": [12, 800, "a", 24000], "trial": 6, "serialpos": 3, "trial_type": "single-audio", "trial_index": 228, "time_elapsed": 1091843, "internal_node_id": "0.0-165.0"}}, {"uniqueid": "MTK1290:35USIKEBNSN2FBZYCTHJG8Q9N366NN", "current_trial": 229, "dateTime": 1513537141025, "trialdata": {"rt": -1000, "stimulus": "/static/audio/wordpool/SUPPER.wav", "key_press": -1, "type": "PRES_AUD", "word": "supper", "wordID": 1410, "conditions": [12, 800, "a", 24000], "trial": 6, "serialpos": 4, "trial_type": "single-audio", "trial_index": 229, "time_elapsed": 1093846, "internal_node_id": "0.0-166.0"}}, {"uniqueid": "MTK1290:35USIKEBNSN2FBZYCTHJG8Q9N366NN", "current_trial": 230, "dateTime": 1513537142633, "trialdata": {"rt": -1000, "stimulus": "/static/audio/wordpool/OUTLAW.wav", "key_press": -1, "type": "PRES_AUD", "word": "outlaw", "wordID": 988, "conditions": [12, 800, "a", 24000], "trial": 6, "serialpos": 5, "trial_type": "single-audio", "trial_index": 230, "time_elapsed": 1095454, "internal_node_id": "0.0-167.0"}}, {"uniqueid": "MTK1290:35USIKEBNSN2FBZYCTHJG8Q9N366NN", "current_trial": 231, "dateTime": 1513537144423, "trialdata": {"rt": -1000, "stimulus": "/static/audio/wordpool/CATTLE.wav", "key_press": -1, "type": "PRES_AUD", "word": "cattle", "wordID": 260, "conditions": [12, 800, "a", 24000], "trial": 6, "serialpos": 6, "trial_type": "single-audio", "trial_index": 231, "time_elapsed": 1097244, "internal_node_id": "0.0-168.0"}}, {"uniqueid": "MTK1290:35USIKEBNSN2FBZYCTHJG8Q9N366NN", "current_trial": 232, "dateTime": 1513537146297, "trialdata": {"rt": -1000, "stimulus": "/static/audio/wordpool/BROOK.wav", "key_press": -1, "type": "PRES_AUD", "word": "brook", "wordID": 176, "conditions": [12, 800, "a", 24000], "trial": 6, "serialpos": 7, "trial_type": "single-audio", "trial_index": 232, "time_elapsed": 1099118, "internal_node_id": "0.0-169.0"}}, {"uniqueid": "MTK1290:35USIKEBNSN2FBZYCTHJG8Q9N366NN", "current_trial": 233, "dateTime": 1513537148140, "trialdata": {"rt": -1000, "stimulus": "/static/audio/wordpool/BUNNY.wav", "key_press": -1, "type": "PRES_AUD", "word": "bunny", "wordID": 197, "conditions": [12, 800, "a", 24000], "trial": 6, "serialpos": 8, "trial_type": "single-audio", "trial_index": 233, "time_elapsed": 1100961, "internal_node_id": "0.0-170.0"}}, {"uniqueid": "MTK1290:35USIKEBNSN2FBZYCTHJG8Q9N366NN", "current_trial": 234, "dateTime": 1513537149756, "trialdata": {"rt": -1000, "stimulus": "/static/audio/wordpool/PUPPY.wav", "key_press": -1, "type": "PRES_AUD", "word": "puppy", "wordID": 1143, "conditions": [12, 800, "a", 24000], "trial": 6, "serialpos": 9, "trial_type": "single-audio", "trial_index": 234, "time_elapsed": 1102577, "internal_node_id": "0.0-171.0"}}, {"uniqueid": "MTK1290:35USIKEBNSN2FBZYCTHJG8Q9N366NN", "current_trial": 235, "dateTime": 1513537151436, "trialdata": {"rt": -1000, "stimulus": "/static/audio/wordpool/ACTOR.wav", "key_press": -1, "type": "PRES_AUD", "word": "actor", "wordID": 4, "conditions": [12, 800, "a", 24000], "trial": 6, "serialpos": 10, "trial_type": "single-audio", "trial_index": 235, "time_elapsed": 1104257, "internal_node_id": "0.0-172.0"}}, {"uniqueid": "MTK1290:35USIKEBNSN2FBZYCTHJG8Q9N366NN", "current_trial": 236, "dateTime": 1513537153269, "trialdata": {"rt": -1000, "stimulus": "/static/audio/wordpool/KIDNEY.wav", "key_press": -1, "type": "PRES_AUD", "word": "kidney", "wordID": 775, "conditions": [12, 800, "a", 24000], "trial": 6, "serialpos": 11, "trial_type": "single-audio", "trial_index": 236, "time_elapsed": 1106089, "internal_node_id": "0.0-173.0"}}, {"uniqueid": "MTK1290:35USIKEBNSN2FBZYCTHJG8Q9N366NN", "current_trial": 237, "dateTime": 1513537154593, "trialdata": {"rt": -1, "stimulus": "", "key_press": -1, "type": "PRE_RECALL_DELAY", "trial_type": "single-stim", "trial_index": 237, "time_elapsed": 1107414, "internal_node_id": "0.0-174.0-0.0"}}, {"uniqueid": "MTK1290:35USIKEBNSN2FBZYCTHJG8Q9N366NN", "current_trial": 238, "dateTime": 1513537155097, "trialdata": {"rt": -1000, "stimulus": "/static/audio/400Hz.wav", "key_press": -1, "type": "PRE_RECALL_ALERT", "trial_type": "single-audio", "trial_index": 238, "time_elapsed": 1107918, "internal_node_id": "0.0-175.0"}}, {"uniqueid": "MTK1290:35USIKEBNSN2FBZYCTHJG8Q9N366NN", "current_trial": 239, "dateTime": 1513537215112, "trialdata": {"rt": [4766, 7173, 8854, 10603, 13599, 19678, 21118, 26554, 27595, 37690], "recwords": ["outlaw", "actress", "actor", "bunny", "puppy", "concert", "brooke", "outlaw", "asia", "kidney"], "type": "FREE_RECALL", "conditions": [12, 800, "a", 24000], "trial": 6, "trial_type": "free-recall", "trial_index": 239, "time_elapsed": 1167924, "internal_node_id": "0.0-176.0-0.0"}}, {"uniqueid": "MTK1290:35USIKEBNSN2FBZYCTHJG8Q9N366NN", "current_trial": 240, "dateTime": 1513537218495, "trialdata": {"rt": 1381, "key_press": 32, "type": "INSTRUCTIONS", "trial_type": "text", "trial_index": 240, "time_elapsed": 1171316, "internal_node_id": "0.0-177.0"}}, {"uniqueid": "MTK1290:35USIKEBNSN2FBZYCTHJG8Q9N366NN", "current_trial": 241, "dateTime": 1513537232502, "trialdata": {"rt": [3159, 6178], "responses": ["16", "11"], "num1": [5, 1, 7], "num2": [6, 3, 6], "num3": [5, 7, 4], "type": "DISTRACTOR", "conditions": [12, 800, "v", 12000], "trial": 7, "trial_type": "math-distractor", "trial_index": 241, "time_elapsed": 1185322, "internal_node_id": "0.0-178.0"}}, {"uniqueid": "MTK1290:35USIKEBNSN2FBZYCTHJG8Q9N366NN", "current_trial": 242, "dateTime": 1513537235505, "trialdata": {"rt": -1, "stimulus": "<p id=\"stim\">10</p>", "key_press": -1, "trial_type": "single-stim", "trial_index": 242, "time_elapsed": 1188326, "internal_node_id": "0.0-179.0-0.0"}}, {"uniqueid": "MTK1290:35USIKEBNSN2FBZYCTHJG8Q9N366NN", "current_trial": 243, "dateTime": 1513537236511, "trialdata": {"rt": -1, "stimulus": "<p id=\"stim\">9</p>", "key_press": -1, "trial_type": "single-stim", "trial_index": 243, "time_elapsed": 1189332, "internal_node_id": "0.0-179.0-1.0"}}, {"uniqueid": "MTK1290:35USIKEBNSN2FBZYCTHJG8Q9N366NN", "current_trial": 244, "dateTime": 1513537237516, "trialdata": {"rt": -1, "stimulus": "<p id=\"stim\">8</p>", "key_press": -1, "trial_type": "single-stim", "trial_index": 244, "time_elapsed": 1190337, "internal_node_id": "0.0-179.0-2.0"}}, {"uniqueid": "MTK1290:35USIKEBNSN2FBZYCTHJG8Q9N366NN", "current_trial": 245, "dateTime": 1513537238520, "trialdata": {"rt": -1, "stimulus": "<p id=\"stim\">7</p>", "key_press": -1, "trial_type": "single-stim", "trial_index": 245, "time_elapsed": 1191340, "internal_node_id": "0.0-179.0-3.0"}}, {"uniqueid": "MTK1290:35USIKEBNSN2FBZYCTHJG8Q9N366NN", "current_trial": 246, "dateTime": 1513537239524, "trialdata": {"rt": -1, "stimulus": "<p id=\"stim\">6</p>", "key_press": -1, "trial_type": "single-stim", "trial_index": 246, "time_elapsed": 1192344, "internal_node_id": "0.0-179.0-4.0"}}, {"uniqueid": "MTK1290:35USIKEBNSN2FBZYCTHJG8Q9N366NN", "current_trial": 247, "dateTime": 1513537240527, "trialdata": {"rt": -1, "stimulus": "<p id=\"stim\">5</p>", "key_press": -1, "trial_type": "single-stim", "trial_index": 247, "time_elapsed": 1193347, "internal_node_id": "0.0-179.0-5.0"}}, {"uniqueid": "MTK1290:35USIKEBNSN2FBZYCTHJG8Q9N366NN", "current_trial": 248, "dateTime": 1513537241531, "trialdata": {"rt": -1, "stimulus": "<p id=\"stim\">4</p>", "key_press": -1, "trial_type": "single-stim", "trial_index": 248, "time_elapsed": 1194352, "internal_node_id": "0.0-179.0-6.0"}}, {"uniqueid": "MTK1290:35USIKEBNSN2FBZYCTHJG8Q9N366NN", "current_trial": 249, "dateTime": 1513537242535, "trialdata": {"rt": -1, "stimulus": "<p id=\"stim\">3</p>", "key_press": -1, "trial_type": "single-stim", "trial_index": 249, "time_elapsed": 1195356, "internal_node_id": "0.0-179.0-7.0"}}, {"uniqueid": "MTK1290:35USIKEBNSN2FBZYCTHJG8Q9N366NN", "current_trial": 250, "dateTime": 1513537243542, "trialdata": {"rt": -1, "stimulus": "<p id=\"stim\">2</p>", "key_press": -1, "trial_type": "single-stim", "trial_index": 250, "time_elapsed": 1196363, "internal_node_id": "0.0-179.0-8.0"}}, {"uniqueid": "MTK1290:35USIKEBNSN2FBZYCTHJG8Q9N366NN", "current_trial": 251, "dateTime": 1513537244546, "trialdata": {"rt": -1, "stimulus": "<p id=\"stim\">1</p>", "key_press": -1, "trial_type": "single-stim", "trial_index": 251, "time_elapsed": 1197367, "internal_node_id": "0.0-179.0-9.0"}}, {"uniqueid": "MTK1290:35USIKEBNSN2FBZYCTHJG8Q9N366NN", "current_trial": 252, "dateTime": 1513537246051, "trialdata": {"rt": -1, "stimulus": "<p id=\"stim\">+</p>", "key_press": -1, "type": "FIXATION", "trial_type": "single-stim", "trial_index": 252, "time_elapsed": 1198872, "internal_node_id": "0.0-180.0-0.0"}}, {"uniqueid": "MTK1290:35USIKEBNSN2FBZYCTHJG8Q9N366NN", "current_trial": 253, "dateTime": 1513537246856, "trialdata": {"rt": -1, "stimulus": "<p id=\"stim\">SEAFOOD</p>", "key_press": -1, "type": "PRES_VIS", "word": "seafood", "wordID": 1259, "conditions": [12, 800, "v", 12000], "trial": 7, "serialpos": 0, "trial_type": "single-stim", "trial_index": 253, "time_elapsed": 1199676, "internal_node_id": "0.0-181.0"}}, {"uniqueid": "MTK1290:35USIKEBNSN2FBZYCTHJG8Q9N366NN", "current_trial": 254, "dateTime": 1513537248716, "trialdata": {"rt": -1, "stimulus": "<p id=\"stim\">GUARD</p>", "key_press": -1, "type": "PRES_VIS", "word": "guard", "wordID": 666, "conditions": [12, 800, "v", 12000], "trial": 7, "serialpos": 1, "trial_type": "single-stim", "trial_index": 254, "time_elapsed": 1201537, "internal_node_id": "0.0-182.0"}}, {"uniqueid": "MTK1290:35USIKEBNSN2FBZYCTHJG8Q9N366NN", "current_trial": 255, "dateTime": 1513537250521, "trialdata": {"rt": -1, "stimulus": "<p id=\"stim\">FREEZER</p>", "key_press": -1, "type": "PRES_VIS", "word": "freezer", "wordID": 603, "conditions": [12, 800, "v", 12000], "trial": 7, "serialpos": 2, "trial_type": "single-stim", "trial_index": 255, "time_elapsed": 1203342, "internal_node_id": "0.0-183.0"}}, {"uniqueid": "MTK1290:35USIKEBNSN2FBZYCTHJG8Q9N366NN", "current_trial": 256, "dateTime": 1513537252144, "trialdata": {"rt": -1, "stimulus": "<p id=\"stim\">ITEM</p>", "key_press": -1, "type": "PRES_VIS", "word": "item", "wordID": 745, "conditions": [12, 800, "v", 12000], "trial": 7, "serialpos": 3, "trial_type": "single-stim", "trial_index": 256, "time_elapsed": 1204964, "internal_node_id": "0.0-184.0"}}, {"uniqueid": "MTK1290:35USIKEBNSN2FBZYCTHJG8Q9N366NN", "current_trial": 257, "dateTime": 1513537254014, "trialdata": {"rt": -1, "stimulus": "<p id=\"stim\">ANTLER</p>", "key_press": -1, "type": "PRES_VIS", "word": "antler", "wordID": 28, "conditions": [12, 800, "v", 12000], "trial": 7, "serialpos": 4, "trial_type": "single-stim", "trial_index": 257, "time_elapsed": 1206835, "internal_node_id": "0.0-185.0"}}, {"uniqueid": "MTK1290:35USIKEBNSN2FBZYCTHJG8Q9N366NN", "current_trial": 258, "dateTime": 1513537255631, "trialdata": {"rt": -1, "stimulus": "<p id=\"stim\">MARS</p>", "key_press": -1, "type": "PRES_VIS", "word": "mars", "wordID": 872, "conditions": [12, 800, "v", 12000], "trial": 7, "serialpos": 5, "trial_type": "single-stim", "trial_index": 258, "time_elapsed": 1208452, "internal_node_id": "0.0-186.0"}}, {"uniqueid": "MTK1290:35USIKEBNSN2FBZYCTHJG8Q9N366NN", "current_trial": 259, "dateTime": 1513537257541, "trialdata": {"rt": -1, "stimulus": "<p id=\"stim\">PERFUME</p>", "key_press": -1, "type": "PRES_VIS", "word": "perfume", "wordID": 1048, "conditions": [12, 800, "v", 12000], "trial": 7, "serialpos": 6, "trial_type": "single-stim", "trial_index": 259, "time_elapsed": 1210362, "internal_node_id": "0.0-187.0"}}, {"uniqueid": "MTK1290:35USIKEBNSN2FBZYCTHJG8Q9N366NN", "current_trial": 260, "dateTime": 1513537259338, "trialdata": {"rt": -1, "stimulus": "<p id=\"stim\">GLASS</p>", "key_press": -1, "type": "PRES_VIS", "word": "glass", "wordID": 638, "conditions": [12, 800, "v", 12000], "trial": 7, "serialpos": 7, "trial_type": "single-stim", "trial_index": 260, "time_elapsed": 1212158, "internal_node_id": "0.0-188.0"}}, {"uniqueid": "MTK1290:35USIKEBNSN2FBZYCTHJG8Q9N366NN", "current_trial": 261, "dateTime": 1513537260957, "trialdata": {"rt": -1, "stimulus": "<p id=\"stim\">SALMON</p>", "key_press": -1, "type": "PRES_VIS", "word": "salmon", "wordID": 1226, "conditions": [12, 800, "v", 12000], "trial": 7, "serialpos": 8, "trial_type": "single-stim", "trial_index": 261, "time_elapsed": 1213778, "internal_node_id": "0.0-189.0"}}, {"uniqueid": "MTK1290:35USIKEBNSN2FBZYCTHJG8Q9N366NN", "current_trial": 262, "dateTime": 1513537262603, "trialdata": {"rt": -1, "stimulus": "<p id=\"stim\">FRUIT</p>", "key_press": -1, "type": "PRES_VIS", "word": "fruit", "wordID": 609, "conditions": [12, 800, "v", 12000], "trial": 7, "serialpos": 9, "trial_type": "single-stim", "trial_index": 262, "time_elapsed": 1215424, "internal_node_id": "0.0-190.0"}}, {"uniqueid": "MTK1290:35USIKEBNSN2FBZYCTHJG8Q9N366NN", "current_trial": 263, "dateTime": 1513537264273, "trialdata": {"rt": -1, "stimulus": "<p id=\"stim\">HANDBAG</p>", "key_press": -1, "type": "PRES_VIS", "word": "handbag", "wordID": 683, "conditions": [12, 800, "v", 12000], "trial": 7, "serialpos": 10, "trial_type": "single-stim", "trial_index": 263, "time_elapsed": 1217094, "internal_node_id": "0.0-191.0"}}, {"uniqueid": "MTK1290:35USIKEBNSN2FBZYCTHJG8Q9N366NN", "current_trial": 264, "dateTime": 1513537266095, "trialdata": {"rt": -1, "stimulus": "<p id=\"stim\">NECKLACE</p>", "key_press": -1, "type": "PRES_VIS", "word": "necklace", "wordID": 939, "conditions": [12, 800, "v", 12000], "trial": 7, "serialpos": 11, "trial_type": "single-stim", "trial_index": 264, "time_elapsed": 1218916, "internal_node_id": "0.0-192.0"}}, {"uniqueid": "MTK1290:35USIKEBNSN2FBZYCTHJG8Q9N366NN", "current_trial": 265, "dateTime": 1513537268532, "trialdata": {"rt": -1, "stimulus": "", "key_press": -1, "type": "PRE_RECALL_DELAY", "trial_type": "single-stim", "trial_index": 265, "time_elapsed": 1221353, "internal_node_id": "0.0-193.0-0.0"}}, {"uniqueid": "MTK1290:35USIKEBNSN2FBZYCTHJG8Q9N366NN", "current_trial": 266, "dateTime": 1513537269034, "trialdata": {"rt": -1000, "stimulus": "/static/audio/400Hz.wav", "key_press": -1, "type": "PRE_RECALL_ALERT", "trial_type": "single-audio", "trial_index": 266, "time_elapsed": 1221855, "internal_node_id": "0.0-194.0"}}, {"uniqueid": "MTK1290:35USIKEBNSN2FBZYCTHJG8Q9N366NN", "current_trial": 267, "dateTime": 1513537329045, "trialdata": {"rt": [5227, 10140, 13794, 16697, 18541, 20695, 26141, 32623], "recwords": ["seafood", "freezer", "antler", "salmon", "glass", "fruit", "necklace", "handbag"], "type": "FREE_RECALL", "conditions": [12, 800, "v", 12000], "trial": 7, "trial_type": "free-recall", "trial_index": 267, "time_elapsed": 1281861, "internal_node_id": "0.0-195.0-0.0"}}, {"uniqueid": "MTK1290:35USIKEBNSN2FBZYCTHJG8Q9N366NN", "current_trial": 268, "dateTime": 1513537332834, "trialdata": {"rt": 1786, "key_press": 32, "type": "INSTRUCTIONS", "trial_type": "text", "trial_index": 268, "time_elapsed": 1285655, "internal_node_id": "0.0-196.0"}}, {"uniqueid": "MTK1290:35USIKEBNSN2FBZYCTHJG8Q9N366NN", "current_trial": 269, "dateTime": 1513537358842, "trialdata": {"rt": [2472, 5565, 8736, 10840, 12445, 21519, 23941], "responses": ["16", "16", "15", "11", "5", "24", "11"], "num1": [7, 5, 4, 4, 1, 8, 2, 9], "num2": [1, 8, 2, 1, 3, 7, 6, 2], "num3": [8, 3, 9, 6, 1, 9, 3, 6], "type": "DISTRACTOR", "conditions": [24, 1600, "a", 24000], "trial": 8, "trial_type": "math-distractor", "trial_index": 269, "time_elapsed": 1311663, "internal_node_id": "0.0-197.0"}}, {"uniqueid": "MTK1290:35USIKEBNSN2FBZYCTHJG8Q9N366NN", "current_trial": 270, "dateTime": 1513537361849, "trialdata": {"rt": -1, "stimulus": "<p id=\"stim\">10</p>", "key_press": -1, "trial_type": "single-stim", "trial_index": 270, "time_elapsed": 1314670, "internal_node_id": "0.0-198.0-0.0"}}, {"uniqueid": "MTK1290:35USIKEBNSN2FBZYCTHJG8Q9N366NN", "current_trial": 271, "dateTime": 1513537362852, "trialdata": {"rt": -1, "stimulus": "<p id=\"stim\">9</p>", "key_press": -1, "trial_type": "single-stim", "trial_index": 271, "time_elapsed": 1315673, "internal_node_id": "0.0-198.0-1.0"}}, {"uniqueid": "MTK1290:35USIKEBNSN2FBZYCTHJG8Q9N366NN", "current_trial": 272, "dateTime": 1513537363856, "trialdata": {"rt": -1, "stimu