{"assignmentId": "3OVR4I9USQQ93L8C9XGLN410YR5Q41", "workerId": "MTK1382", "questiondata": {"origin": "United States", "strat-rehearsal": "7", "marital": "Single", "education": "Some college", "ethnicity": "Not Hispanic", "color_depth": 24, "distracted": "No", "wrote-notes": "No", "strat-other": "n/a", "screen_width": 1280, "avail_screen_width": 1280, "avail_screen_height": 728, "strat-image": "14", "language": "English", "gender": "Female", "age": "50", "gender_other": "", "race": ["White"], "strat-categorize": "74", "pixel_depth": 24, "strat-spatial": "11", "strat-story": "60", "race_other": "", "screen_height": 768}, "bonus": 0, "hitId": "3XUSYT70IT8WS4OCV8IXMI84H0E0DC", "counterbalance": 1958, "useragent": "Mozilla/5.0 (Windows NT 10.0; Win64; x64) AppleWebKit/537.36 (KHTML, like Gecko) Chrome/63.0.3239.132 Safari/537.36", "eventdata": [{"eventtype": "initialized", "interval": 0, "value": null, "timestamp": 1515867612942}, {"eventtype": "window_resize", "interval": 0, "value": [982, 721], "timestamp": 1515867612942}, {"eventtype": "focus", "interval": 38815, "value": "off", "timestamp": 1515867651757}, {"eventtype": "focus", "interval": 2417, "value": "on", "timestamp": 1515867654174}, {"eventtype": "focus", "interval": 8164, "value": "off", "timestamp": 1515867662338}, {"eventtype": "focus", "interval": 4064, "value": "on", "timestamp": 1515867666402}, {"eventtype": "window_resize", "interval": 7440, "value": [989, 721], "timestamp": 1515867673842}, {"eventtype": "window_resize", "interval": 6708, "value": [946, 721], "timestamp": 1515867680550}, {"eventtype": "window_resize", "interval": 9472, "value": [954, 721], "timestamp": 1515867690022}, {"eventtype": "focus", "interval": 770, "value": "off", "timestamp": 1515867690792}, {"eventtype": "focus", "interval": 4805, "value": "on", "timestamp": 1515867695597}, {"eventtype": "window_resize", "interval": 5354, "value": [960, 721], "timestamp": 1515867700951}, {"eventtype": "window_resize", "interval": 21436, "value": [960, 681], "timestamp": 1515867722387}, {"eventtype": "window_resize", "interval": 10268, "value": [977, 681], "timestamp": 1515867732655}], "data": [{"current_trial": 0, "trialdata": {"rt": 3094, "trial_type": "text", "internal_node_id": "0.0-0.0", "time_elapsed": 3097, "key_press": 32, "type": "INSTRUCTIONS", "trial_index": 0}, "uniqueid": "MTK1382:3OVR4I9USQQ93L8C9XGLN410YR5Q41", "dateTime": 1515867655271}, {"current_trial": 1, "trialdata": {"rt": 82099, "trial_type": "text", "internal_node_id": "0.0-1.0", "time_elapsed": 85199, "key_press": 32, "type": "INSTRUCTIONS", "trial_index": 1}, "uniqueid": "MTK1382:3OVR4I9USQQ93L8C9XGLN410YR5Q41", "dateTime": 1515867737373}, {"current_trial": 2, "trialdata": {"rt": [5462], "trial_type": "audio-test", "responses": ["ocean"], "internal_node_id": "0.0-2.0", "time_elapsed": 90672, "type": "AUDIO_TEST", "trial_index": 2}, "uniqueid": "MTK1382:3OVR4I9USQQ93L8C9XGLN410YR5Q41", "dateTime": 1515867742845}, {"current_trial": 3, "trialdata": {"rt": [5842], "trial_type": "audio-test", "responses": ["crystal"], "internal_node_id": "0.0-3.0", "time_elapsed": 96519, "type": "AUDIO_TEST", "trial_index": 3}, "uniqueid": "MTK1382:3OVR4I9USQQ93L8C9XGLN410YR5Q41", "dateTime": 1515867748692}, {"current_trial": 4, "trialdata": {"rt": [6939], "trial_type": "audio-test", "responses": ["spice"], "internal_node_id": "0.0-4.0", "time_elapsed": 103464, "type": "AUDIO_TEST", "trial_index": 4}, "uniqueid": "MTK1382:3OVR4I9USQQ93L8C9XGLN410YR5Q41", "dateTime": 1515867755637}, {"current_trial": 5, "trialdata": {"rt": 48977, "trial_type": "survey-text", "responses": "{\"Q0\":\"12:30 am\",\"Q1\":\"7:30 am\",\"Q2\":\"5\"}", "internal_node_id": "0.0-5.0", "time_elapsed": 153195, "type": "SLEEP_SURVEY", "trial_index": 5}, "uniqueid": "MTK1382:3OVR4I9USQQ93L8C9XGLN410YR5Q41", "dateTime": 1515867805368}, {"current_trial": 6, "trialdata": {"rt": 65225, "trial_type": "text", "internal_node_id": "0.0-6.0", "time_elapsed": 219423, "key_press": 32, "type": "INSTRUCTIONS", "trial_index": 6}, "uniqueid": "MTK1382:3OVR4I9USQQ93L8C9XGLN410YR5Q41", "dateTime": 1515867871596}, {"current_trial": 7, "trialdata": {"rt": 59442, "trial_type": "text", "internal_node_id": "0.0-7.0", "time_elapsed": 279367, "key_press": 32, "type": "INSTRUCTIONS", "trial_index": 7}, "uniqueid": "MTK1382:3OVR4I9USQQ93L8C9XGLN410YR5Q41", "dateTime": 1515867931540}, {"current_trial": 8, "trialdata": {"rt": 11426, "trial_type": "text", "internal_node_id": "0.0-8.0", "time_elapsed": 291295, "key_press": 32, "type": "INSTRUCTIONS", "trial_index": 8}, "uniqueid": "MTK1382:3OVR4I9USQQ93L8C9XGLN410YR5Q41", "dateTime": 1515867943468}, {"current_trial": 9, "trialdata": {"rt": [4914, 7522, 10010, 12083, 16483], "trial_type": "math-distractor", "key_times": [2339, 2340, 3466, 4106, 4914, 6874, 6938, 7522, 9282, 9794, 10010, 11954, 12083, 15650, 16050, 16483], "responses": ["17", "10", "17", "9", "21"], "num2": [5, 3, 9, 1, 8, 3], "num3": [8, 3, 4, 5, 8, 9], "conditions": [18, 1200, "a", 18000], "internal_node_id": "0.0-9.0", "key_presses": [97, 100, 8, 103, 13, 49, 48, 13, 49, 55, 13, 57, 13, 50, 49, 13], "trial": 0, "time_elapsed": 310302, "type": "DISTRACTOR", "trial_index": 9, "num1": [4, 4, 4, 3, 5, 3]}, "uniqueid": "MTK1382:3OVR4I9USQQ93L8C9XGLN410YR5Q41", "dateTime": 1515867962475}, {"current_trial": 10, "trialdata": {"rt": -1, "trial_type": "single-stim", "stimulus": "<p id=\"stim\">10</p>", "internal_node_id": "0.0-10.0-0.0", "time_elapsed": 313305, "key_press": -1, "trial_index": 10}, "uniqueid": "MTK1382:3OVR4I9USQQ93L8C9XGLN410YR5Q41", "dateTime": 1515867965478}, {"current_trial": 11, "trialdata": {"rt": -1, "trial_type": "single-stim", "stimulus": "<p id=\"stim\">9</p>", "internal_node_id": "0.0-10.0-1.0", "time_elapsed": 314307, "key_press": -1, "trial_index": 11}, "uniqueid": "MTK1382:3OVR4I9USQQ93L8C9XGLN410YR5Q41", "dateTime": 1515867966480}, {"current_trial": 12, "trialdata": {"rt": -1, "trial_type": "single-stim", "stimulus": "<p id=\"stim\">8</p>", "internal_node_id": "0.0-10.0-2.0", "time_elapsed": 315309, "key_press": -1, "trial_index": 12}, "uniqueid": "MTK1382:3OVR4I9USQQ93L8C9XGLN410YR5Q41", "dateTime": 1515867967482}, {"current_trial": 13, "trialdata": {"rt": -1, "trial_type": "single-stim", "stimulus": "<p id=\"stim\">7</p>", "internal_node_id": "0.0-10.0-3.0", "time_elapsed": 316311, "key_press": -1, "trial_index": 13}, "uniqueid": "MTK1382:3OVR4I9USQQ93L8C9XGLN410YR5Q41", "dateTime": 1515867968484}, {"current_trial": 14, "trialdata": {"rt": -1, "trial_type": "single-stim", "stimulus": "<p id=\"stim\">6</p>", "internal_node_id": "0.0-10.0-4.0", "time_elapsed": 317312, "key_press": -1, "trial_index": 14}, "uniqueid": "MTK1382:3OVR4I9USQQ93L8C9XGLN410YR5Q41", "dateTime": 1515867969485}, {"current_trial": 15, "trialdata": {"rt": -1, "trial_type": "single-stim", "stimulus": "<p id=\"stim\">5</p>", "internal_node_id": "0.0-10.0-5.0", "time_elapsed": 318314, "key_press": -1, "trial_index": 15}, "uniqueid": "MTK1382:3OVR4I9USQQ93L8C9XGLN410YR5Q41", "dateTime": 1515867970487}, {"current_trial": 16, "trialdata": {"rt": -1, "trial_type": "single-stim", "stimulus": "<p id=\"stim\">4</p>", "internal_node_id": "0.0-10.0-6.0", "time_elapsed": 319317, "key_press": -1, "trial_index": 16}, "uniqueid": "MTK1382:3OVR4I9USQQ93L8C9XGLN410YR5Q41", "dateTime": 1515867971490}, {"current_trial": 17, "trialdata": {"rt": -1, "trial_type": "single-stim", "stimulus": "<p id=\"stim\">3</p>", "internal_node_id": "0.0-10.0-7.0", "time_elapsed": 320319, "key_press": -1, "trial_index": 17}, "uniqueid": "MTK1382:3OVR4I9USQQ93L8C9XGLN410YR5Q41", "dateTime": 1515867972492}, {"current_trial": 18, "trialdata": {"rt": -1, "trial_type": "single-stim", "stimulus": "<p id=\"stim\">2</p>", "internal_node_id": "0.0-10.0-8.0", "time_elapsed": 321321, "key_press": -1, "trial_index": 18}, "uniqueid": "MTK1382:3OVR4I9USQQ93L8C9XGLN410YR5Q41", "dateTime": 1515867973494}, {"current_trial": 19, "trialdata": {"rt": -1, "trial_type": "single-stim", "stimulus": "<p id=\"stim\">1</p>", "internal_node_id": "0.0-10.0-9.0", "time_elapsed": 322322, "key_press": -1, "trial_index": 19}, "uniqueid": "MTK1382:3OVR4I9USQQ93L8C9XGLN410YR5Q41", "dateTime": 1515867974495}, {"current_trial": 20, "trialdata": {"rt": -1, "trial_type": "single-stim", "stimulus": "<p id=\"stim\">+</p>", "internal_node_id": "0.0-11.0-0.0", "time_elapsed": 323823, "key_press": -1, "type": "FIXATION", "trial_index": 20}, "uniqueid": "MTK1382:3OVR4I9USQQ93L8C9XGLN410YR5Q41", "dateTime": 1515867975996}, {"current_trial": 21, "trialdata": {"rt": -1000, "trial_type": "single-audio", "word": "luggage", "stimulus": "/static/audio/wordpool/LUGGAGE.wav", "conditions": [18, 1200, "a", 18000], "internal_node_id": "0.0-12.0", "trial": 0, "time_elapsed": 325915, "serialpos": 0, "key_press": -1, "wordID": 846, "type": "PRES_AUD", "trial_index": 21}, "uniqueid": "MTK1382:3OVR4I9USQQ93L8C9XGLN410YR5Q41", "dateTime": 1515867978088}, {"current_trial": 22, "trialdata": {"rt": -1000, "trial_type": "single-audio", "word": "tart", "stimulus": "/static/audio/wordpool/TART.wav", "conditions": [18, 1200, "a", 18000], "internal_node_id": "0.0-13.0", "trial": 0, "time_elapsed": 327931, "serialpos": 1, "key_press": -1, "wordID": 1435, "type": "PRES_AUD", "trial_index": 22}, "uniqueid": "MTK1382:3OVR4I9USQQ93L8C9XGLN410YR5Q41", "dateTime": 1515867980104}, {"current_trial": 23, "trialdata": {"rt": -1000, "trial_type": "single-audio", "word": "dorm", "stimulus": "/static/audio/wordpool/DORM.wav", "conditions": [18, 1200, "a", 18000], "internal_node_id": "0.0-14.0", "trial": 0, "time_elapsed": 330216, "serialpos": 2, "key_press": -1, "wordID": 487, "type": "PRES_AUD", "trial_index": 23}, "uniqueid": "MTK1382:3OVR4I9USQQ93L8C9XGLN410YR5Q41", "dateTime": 1515867982389}, {"current_trial": 24, "trialdata": {"rt": -1000, "trial_type": "single-audio", "word": "waitress", "stimulus": "/static/audio/wordpool/WAITRESS.wav", "conditions": [18, 1200, "a", 18000], "internal_node_id": "0.0-15.0", "trial": 0, "time_elapsed": 332574, "serialpos": 3, "key_press": -1, "wordID": 1580, "type": "PRES_AUD", "trial_index": 24}, "uniqueid": "MTK1382:3OVR4I9USQQ93L8C9XGLN410YR5Q41", "dateTime": 1515867984747}, {"current_trial": 25, "trialdata": {"rt": -1000, "trial_type": "single-audio", "word": "scribble", "stimulus": "/static/audio/wordpool/SCRIBBLE.wav", "conditions": [18, 1200, "a", 18000], "internal_node_id": "0.0-16.0", "trial": 0, "time_elapsed": 334759, "serialpos": 4, "key_press": -1, "wordID": 1255, "type": "PRES_AUD", "trial_index": 25}, "uniqueid": "MTK1382:3OVR4I9USQQ93L8C9XGLN410YR5Q41", "dateTime": 1515867986932}, {"current_trial": 26, "trialdata": {"rt": -1000, "trial_type": "single-audio", "word": "flesh", "stimulus": "/static/audio/wordpool/FLESH.wav", "conditions": [18, 1200, "a", 18000], "internal_node_id": "0.0-17.0", "trial": 0, "time_elapsed": 336803, "serialpos": 5, "key_press": -1, "wordID": 578, "type": "PRES_AUD", "trial_index": 26}, "uniqueid": "MTK1382:3OVR4I9USQQ93L8C9XGLN410YR5Q41", "dateTime": 1515867988976}, {"current_trial": 27, "trialdata": {"rt": -1000, "trial_type": "single-audio", "word": "blade", "stimulus": "/static/audio/wordpool/BLADE.wav", "conditions": [18, 1200, "a", 18000], "internal_node_id": "0.0-18.0", "trial": 0, "time_elapsed": 339033, "serialpos": 6, "key_press": -1, "wordID": 133, "type": "PRES_AUD", "trial_index": 27}, "uniqueid": "MTK1382:3OVR4I9USQQ93L8C9XGLN410YR5Q41", "dateTime": 1515867991206}, {"current_trial": 28, "trialdata": {"rt": -1000, "trial_type": "single-audio", "word": "author", "stimulus": "/static/audio/wordpool/AUTHOR.wav", "conditions": [18, 1200, "a", 18000], "internal_node_id": "0.0-19.0", "trial": 0, "time_elapsed": 341077, "serialpos": 7, "key_press": -1, "wordID": 60, "type": "PRES_AUD", "trial_index": 28}, "uniqueid": "MTK1382:3OVR4I9USQQ93L8C9XGLN410YR5Q41", "dateTime": 1515867993251}, {"current_trial": 29, "trialdata": {"rt": -1000, "trial_type": "single-audio", "word": "wrench", "stimulus": "/static/audio/wordpool/WRENCH.wav", "conditions": [18, 1200, "a", 18000], "internal_node_id": "0.0-20.0", "trial": 0, "time_elapsed": 343085, "serialpos": 8, "key_press": -1, "wordID": 1624, "type": "PRES_AUD", "trial_index": 29}, "uniqueid": "MTK1382:3OVR4I9USQQ93L8C9XGLN410YR5Q41", "dateTime": 1515867995258}, {"current_trial": 30, "trialdata": {"rt": -1000, "trial_type": "single-audio", "word": "plate", "stimulus": "/static/audio/wordpool/PLATE.wav", "conditions": [18, 1200, "a", 18000], "internal_node_id": "0.0-21.0", "trial": 0, "time_elapsed": 345300, "serialpos": 9, "key_press": -1, "wordID": 1085, "type": "PRES_AUD", "trial_index": 30}, "uniqueid": "MTK1382:3OVR4I9USQQ93L8C9XGLN410YR5Q41", "dateTime": 1515867997473}, {"current_trial": 31, "trialdata": {"rt": -1000, "trial_type": "single-audio", "word": "dust", "stimulus": "/static/audio/wordpool/DUST.wav", "conditions": [18, 1200, "a", 18000], "internal_node_id": "0.0-22.0", "trial": 0, "time_elapsed": 347662, "serialpos": 10, "key_press": -1, "wordID": 507, "type": "PRES_AUD", "trial_index": 31}, "uniqueid": "MTK1382:3OVR4I9USQQ93L8C9XGLN410YR5Q41", "dateTime": 1515867999835}, {"current_trial": 32, "trialdata": {"rt": -1000, "trial_type": "single-audio", "word": "hook", "stimulus": "/static/audio/wordpool/HOOK.wav", "conditions": [18, 1200, "a", 18000], "internal_node_id": "0.0-23.0", "trial": 0, "time_elapsed": 350045, "serialpos": 11, "key_press": -1, "wordID": 714, "type": "PRES_AUD", "trial_index": 32}, "uniqueid": "MTK1382:3OVR4I9USQQ93L8C9XGLN410YR5Q41", "dateTime": 1515868002218}, {"current_trial": 33, "trialdata": {"rt": -1000, "trial_type": "single-audio", "word": "piano", "stimulus": "/static/audio/wordpool/PIANO.wav", "conditions": [18, 1200, "a", 18000], "internal_node_id": "0.0-24.0", "trial": 0, "time_elapsed": 352101, "serialpos": 12, "key_press": -1, "wordID": 1056, "type": "PRES_AUD", "trial_index": 33}, "uniqueid": "MTK1382:3OVR4I9USQQ93L8C9XGLN410YR5Q41", "dateTime": 1515868004274}, {"current_trial": 34, "trialdata": {"rt": -1000, "trial_type": "single-audio", "word": "scarecrow", "stimulus": "/static/audio/wordpool/SCARECROW.wav", "conditions": [18, 1200, "a", 18000], "internal_node_id": "0.0-25.0", "trial": 0, "time_elapsed": 354187, "serialpos": 13, "key_press": -1, "wordID": 1244, "type": "PRES_AUD", "trial_index": 34}, "uniqueid": "MTK1382:3OVR4I9USQQ93L8C9XGLN410YR5Q41", "dateTime": 1515868006360}, {"current_trial": 35, "trialdata": {"rt": -1000, "trial_type": "single-audio", "word": "bunny", "stimulus": "/static/audio/wordpool/BUNNY.wav", "conditions": [18, 1200, "a", 18000], "internal_node_id": "0.0-26.0", "trial": 0, "time_elapsed": 356506, "serialpos": 14, "key_press": -1, "wordID": 197, "type": "PRES_AUD", "trial_index": 35}, "uniqueid": "MTK1382:3OVR4I9USQQ93L8C9XGLN410YR5Q41", "dateTime": 1515868008679}, {"current_trial": 36, "trialdata": {"rt": -1000, "trial_type": "single-audio", "word": "clothes", "stimulus": "/static/audio/wordpool/CLOTHES.wav", "conditions": [18, 1200, "a", 18000], "internal_node_id": "0.0-27.0", "trial": 0, "time_elapsed": 358591, "serialpos": 15, "key_press": -1, "wordID": 326, "type": "PRES_AUD", "trial_index": 36}, "uniqueid": "MTK1382:3OVR4I9USQQ93L8C9XGLN410YR5Q41", "dateTime": 1515868010764}, {"current_trial": 37, "trialdata": {"rt": -1000, "trial_type": "single-audio", "word": "journal", "stimulus": "/static/audio/wordpool/JOURNAL.wav", "conditions": [18, 1200, "a", 18000], "internal_node_id": "0.0-28.0", "trial": 0, "time_elapsed": 360680, "serialpos": 16, "key_press": -1, "wordID": 759, "type": "PRES_AUD", "trial_index": 37}, "uniqueid": "MTK1382:3OVR4I9USQQ93L8C9XGLN410YR5Q41", "dateTime": 1515868012853}, {"current_trial": 38, "trialdata": {"rt": -1000, "trial_type": "single-audio", "word": "market", "stimulus": "/static/audio/wordpool/MARKET.wav", "conditions": [18, 1200, "a", 18000], "internal_node_id": "0.0-29.0", "trial": 0, "time_elapsed": 362711, "serialpos": 17, "key_press": -1, "wordID": 870, "type": "PRES_AUD", "trial_index": 38}, "uniqueid": "MTK1382:3OVR4I9USQQ93L8C9XGLN410YR5Q41", "dateTime": 1515868014885}, {"current_trial": 39, "trialdata": {"rt": -1, "trial_type": "single-stim", "stimulus": "", "internal_node_id": "0.0-30.0-0.0", "time_elapsed": 363985, "key_press": -1, "type": "PRE_RECALL_DELAY", "trial_index": 39}, "uniqueid": "MTK1382:3OVR4I9USQQ93L8C9XGLN410YR5Q41", "dateTime": 1515868016158}, {"current_trial": 40, "trialdata": {"rt": -1000, "trial_type": "single-audio", "stimulus": "/static/audio/400Hz.wav", "internal_node_id": "0.0-31.0", "time_elapsed": 364487, "key_press": -1, "type": "PRE_RECALL_ALERT", "trial_index": 40}, "uniqueid": "MTK1382:3OVR4I9USQQ93L8C9XGLN410YR5Q41", "dateTime": 1515868016660}, {"current_trial": 41, "trialdata": {"rt": [4005, 8573, 10516, 12253, 14997, 16709, 18805, 21349, 25244, 30597, 34429, 37885, 54164], "recwords": ["dorm", "clothes", "journal", "author", "waitress", "plate", "piano", "hook", "scribble", "scarecrow", "tart", "blade", "scarecrow"], "key_times": [2502, 2621, 2813, 3045, 4005, 5789, 5933, 6133, 6421, 6669, 6813, 7141, 8573, 9141, 9309, 9453, 9629, 9917, 10021, 10173, 10516, 10885, 11037, 11189, 11301, 11453, 11725, 12253, 13117, 13341, 13533, 13661, 13941, 14181, 14501, 14677, 14997, 15396, 15733, 15877, 16085, 16373, 16709, 17413, 17669, 17965, 18189, 18389, 18805, 19365, 19789, 19941, 20285, 21349, 22173, 22364, 22637, 22741, 23389, 23517, 24037, 24149, 25244, 27029, 27365, 27589, 27829, 28124, 28549, 28885, 29149, 29189, 30597, 32629, 32821, 33021, 33437, 34429, 34916, 35069, 35166, 35420, 35733, 37885, 50309, 50941, 51285, 51589, 51837, 52053, 52421, 53005, 53165, 53397, 53693, 53837, 53909, 54164], "trial_type": "free-recall", "conditions": [18, 1200, "a", 18000], "internal_node_id": "0.0-32.0-0.0", "key_presses": [68, 79, 82, 77, 32, 67, 76, 79, 84, 72, 69, 83, 13, 74, 79, 85, 82, 78, 65, 76, 13, 65, 85, 84, 72, 79, 82, 13, 87, 65, 73, 84, 82, 69, 83, 83, 13, 80, 76, 65, 84, 69, 13, 80, 73, 65, 78, 79, 13, 72, 79, 79, 75, 13, 83, 67, 82, 73, 66, 66, 76, 69, 13, 83, 67, 65, 82, 69, 67, 82, 79, 87, 13, 84, 65, 82, 84, 13, 66, 76, 65, 68, 69, 13, 83, 67, 65, 82, 69, 87, 67, 8, 8, 67, 82, 79, 87, 13], "trial": 0, "time_elapsed": 424492, "type": "FREE_RECALL", "trial_index": 41}, "uniqueid": "MTK1382:3OVR4I9USQQ93L8C9XGLN410YR5Q41", "dateTime": 1515868076667}, {"current_trial": 42, "trialdata": {"rt": 2407, "trial_type": "text", "internal_node_id": "0.0-33.0", "time_elapsed": 428903, "key_press": 32, "type": "INSTRUCTIONS", "trial_index": 42}, "uniqueid": "MTK1382:3OVR4I9USQQ93L8C9XGLN410YR5Q41", "dateTime": 1515868081076}, {"current_trial": 43, "trialdata": {"rt": [2509, 4741, 7117, 9524, 11853, 13965, 16742], "trial_type": "math-distractor", "key_times": [1885, 1948, 2509, 3893, 4421, 4741, 6340, 6933, 7117, 8637, 9389, 9524, 11077, 11693, 11853, 13381, 13837, 13965, 16285, 16365, 16742], "responses": ["17", "15", "17", "18", "19", "17", "14"], "num2": [7, 5, 7, 9, 7, 4, 2, 9], "num3": [7, 3, 4, 2, 7, 9, 5, 4], "conditions": [18, 1200, "a", 18000], "internal_node_id": "0.0-34.0", "key_presses": [49, 55, 13, 49, 53, 13, 49, 55, 13, 49, 56, 13, 49, 57, 13, 49, 55, 13, 49, 52, 13], "trial": 1, "time_elapsed": 448908, "type": "DISTRACTOR", "trial_index": 43, "num1": [3, 7, 6, 7, 5, 4, 7, 1]}, "uniqueid": "MTK1382:3OVR4I9USQQ93L8C9XGLN410YR5Q41", "dateTime": 1515868101081}, {"current_trial": 44, "trialdata": {"rt": -1, "trial_type": "single-stim", "stimulus": "<p id=\"stim\">10</p>", "internal_node_id": "0.0-35.0-0.0", "time_elapsed": 451910, "key_press": -1, "trial_index": 44}, "uniqueid": "MTK1382:3OVR4I9USQQ93L8C9XGLN410YR5Q41", "dateTime": 1515868104084}, {"current_trial": 45, "trialdata": {"rt": -1, "trial_type": "single-stim", "stimulus": "<p id=\"stim\">9</p>", "internal_node_id": "0.0-35.0-1.0", "time_elapsed": 452912, "key_press": -1, "trial_index": 45}, "uniqueid": "MTK1382:3OVR4I9USQQ93L8C9XGLN410YR5Q41", "dateTime": 1515868105085}, {"current_trial": 46, "trialdata": {"rt": -1, "trial_type": "single-stim", "stimulus": "<p id=\"stim\">8</p>", "internal_node_id": "0.0-35.0-2.0", "time_elapsed": 453913, "key_press": -1, "trial_index": 46}, "uniqueid": "MTK1382:3OVR4I9USQQ93L8C9XGLN410YR5Q41", "dateTime": 1515868106086}, {"current_trial": 47, "trialdata": {"rt": -1, "trial_type": "single-stim", "stimulus": "<p id=\"stim\">7</p>", "internal_node_id": "0.0-35.0-3.0", "time_elapsed": 454916, "key_press": -1, "trial_index": 47}, "uniqueid": "MTK1382:3OVR4I9USQQ93L8C9XGLN410YR5Q41", "dateTime": 1515868107089}, {"current_trial": 48, "trialdata": {"rt": -1, "trial_type": "single-stim", "stimulus": "<p id=\"stim\">6</p>", "internal_node_id": "0.0-35.0-4.0", "time_elapsed": 455918, "key_press": -1, "trial_index": 48}, "uniqueid": "MTK1382:3OVR4I9USQQ93L8C9XGLN410YR5Q41", "dateTime": 1515868108091}, {"current_trial": 49, "trialdata": {"rt": -1, "trial_type": "single-stim", "stimulus": "<p id=\"stim\">5</p>", "internal_node_id": "0.0-35.0-5.0", "time_elapsed": 456919, "key_press": -1, "trial_index": 49}, "uniqueid": "MTK1382:3OVR4I9USQQ93L8C9XGLN410YR5Q41", "dateTime": 1515868109092}, {"current_trial": 50, "trialdata": {"rt": -1, "trial_type": "single-stim", "stimulus": "<p id=\"stim\">4</p>", "internal_node_id": "0.0-35.0-6.0", "time_elapsed": 457921, "key_press": -1, "trial_index": 50}, "uniqueid": "MTK1382:3OVR4I9USQQ93L8C9XGLN410YR5Q41", "dateTime": 1515868110094}, {"current_trial": 51, "trialdata": {"rt": -1, "trial_type": "single-stim", "stimulus": "<p id=\"stim\">3</p>", "internal_node_id": "0.0-35.0-7.0", "time_elapsed": 458922, "key_press": -1, "trial_index": 51}, "uniqueid": "MTK1382:3OVR4I9USQQ93L8C9XGLN410YR5Q41", "dateTime": 1515868111096}, {"current_trial": 52, "trialdata": {"rt": -1, "trial_type": "single-stim", "stimulus": "<p id=\"stim\">2</p>", "internal_node_id": "0.0-35.0-8.0", "time_elapsed": 459924, "key_press": -1, "trial_index": 52}, "uniqueid": "MTK1382:3OVR4I9USQQ93L8C9XGLN410YR5Q41", "dateTime": 1515868112097}, {"current_trial": 53, "trialdata": {"rt": -1, "trial_type": "single-stim", "stimulus": "<p id=\"stim\">1</p>", "internal_node_id": "0.0-35.0-9.0", "time_elapsed": 460926, "key_press": -1, "trial_index": 53}, "uniqueid": "MTK1382:3OVR4I9USQQ93L8C9XGLN410YR5Q41", "dateTime": 1515868113099}, {"current_trial": 54, "trialdata": {"rt": -1, "trial_type": "single-stim", "stimulus": "<p id=\"stim\">+</p>", "internal_node_id": "0.0-36.0-0.0", "time_elapsed": 462427, "key_press": -1, "type": "FIXATION", "trial_index": 54}, "uniqueid": "MTK1382:3OVR4I9USQQ93L8C9XGLN410YR5Q41", "dateTime": 1515868114600}, {"current_trial": 55, "trialdata": {"rt": -1000, "trial_type": "single-audio", "word": "keeper", "stimulus": "/static/audio/wordpool/KEEPER.wav", "conditions": [18, 1200, "a", 18000], "internal_node_id": "0.0-37.0", "trial": 1, "time_elapsed": 464481, "serialpos": 0, "key_press": -1, "wordID": 768, "type": "PRES_AUD", "trial_index": 55}, "uniqueid": "MTK1382:3OVR4I9USQQ93L8C9XGLN410YR5Q41", "dateTime": 1515868116654}, {"current_trial": 56, "trialdata": {"rt": -1000, "trial_type": "single-audio", "word": "marsh", "stimulus": "/static/audio/wordpool/MARSH.wav", "conditions": [18, 1200, "a", 18000], "internal_node_id": "0.0-38.0", "trial": 1, "time_elapsed": 466544, "serialpos": 1, "key_press": -1, "wordID": 873, "type": "PRES_AUD", "trial_index": 56}, "uniqueid": "MTK1382:3OVR4I9USQQ93L8C9XGLN410YR5Q41", "dateTime": 1515868118717}, {"current_trial": 57, "trialdata": {"rt": -1000, "trial_type": "single-audio", "word": "uncle", "stimulus": "/static/audio/wordpool/UNCLE.wav", "conditions": [18, 1200, "a", 18000], "internal_node_id": "0.0-39.0", "trial": 1, "time_elapsed": 468595, "serialpos": 2, "key_press": -1, "wordID": 1535, "type": "PRES_AUD", "trial_index": 57}, "uniqueid": "MTK1382:3OVR4I9USQQ93L8C9XGLN410YR5Q41", "dateTime": 1515868120769}, {"current_trial": 58, "trialdata": {"rt": -1000, "trial_type": "single-audio", "word": "missile", "stimulus": "/static/audio/wordpool/MISSILE.wav", "conditions": [18, 1200, "a", 18000], "internal_node_id": "0.0-40.0", "trial": 1, "time_elapsed": 470703, "serialpos": 3, "key_press": -1, "wordID": 899, "type": "PRES_AUD", "trial_index": 58}, "uniqueid": "MTK1382:3OVR4I9USQQ93L8C9XGLN410YR5Q41", "dateTime": 1515868122876}, {"current_trial": 59, "trialdata": {"rt": -1000, "trial_type": "single-audio", "word": "couch", "stimulus": "/static/audio/wordpool/COUCH.wav", "conditions": [18, 1200, "a", 18000], "internal_node_id": "0.0-41.0", "trial": 1, "time_elapsed": 472730, "serialpos": 4, "key_press": -1, "wordID": 385, "type": "PRES_AUD", "trial_index": 59}, "uniqueid": "MTK1382:3OVR4I9USQQ93L8C9XGLN410YR5Q41", "dateTime": 1515868124903}, {"current_trial": 60, "trialdata": {"rt": -1000, "trial_type": "single-audio", "word": "xerox", "stimulus": "/static/audio/wordpool/XEROX.wav", "conditions": [18, 1200, "a", 18000], "internal_node_id": "0.0-42.0", "trial": 1, "time_elapsed": 475115, "serialpos": 5, "key_press": -1, "wordID": 1627, "type": "PRES_AUD", "trial_index": 60}, "uniqueid": "MTK1382:3OVR4I9USQQ93L8C9XGLN410YR5Q41", "dateTime": 1515868127289}, {"current_trial": 61, "trialdata": {"rt": -1000, "trial_type": "single-audio", "word": "barley", "stimulus": "/static/audio/wordpool/BARLEY.wav", "conditions": [18, 1200, "a", 18000], "internal_node_id": "0.0-43.0", "trial": 1, "time_elapsed": 477128, "serialpos": 6, "key_press": -1, "wordID": 87, "type": "PRES_AUD", "trial_index": 61}, "uniqueid": "MTK1382:3OVR4I9USQQ93L8C9XGLN410YR5Q41", "dateTime": 1515868129301}, {"current_trial": 62, "trialdata": {"rt": -1000, "trial_type": "single-audio", "word": "teacher", "stimulus": "/static/audio/wordpool/TEACHER.wav", "conditions": [18, 1200, "a", 18000], "internal_node_id": "0.0-44.0", "trial": 1, "time_elapsed": 479204, "serialpos": 7, "key_press": -1, "wordID": 1439, "type": "PRES_AUD", "trial_index": 62}, "uniqueid": "MTK1382:3OVR4I9USQQ93L8C9XGLN410YR5Q41", "dateTime": 1515868131377}, {"current_trial": 63, "trialdata": {"rt": -1000, "trial_type": "single-audio", "word": "cod", "stimulus": "/static/audio/wordpool/COD.wav", "conditions": [18, 1200, "a", 18000], "internal_node_id": "0.0-45.0", "trial": 1, "time_elapsed": 481420, "serialpos": 8, "key_press": -1, "wordID": 339, "type": "PRES_AUD", "trial_index": 63}, "uniqueid": "MTK1382:3OVR4I9USQQ93L8C9XGLN410YR5Q41", "dateTime": 1515868133593}, {"current_trial": 64, "trialdata": {"rt": -1000, "trial_type": "single-audio", "word": "casket", "stimulus": "/static/audio/wordpool/CASKET.wav", "conditions": [18, 1200, "a", 18000], "internal_node_id": "0.0-46.0", "trial": 1, "time_elapsed": 483735, "serialpos": 9, "key_press": -1, "wordID": 254, "type": "PRES_AUD", "trial_index": 64}, "uniqueid": "MTK1382:3OVR4I9USQQ93L8C9XGLN410YR5Q41", "dateTime": 1515868135908}, {"current_trial": 65, "trialdata": {"rt": -1000, "trial_type": "single-audio", "word": "radish", "stimulus": "/static/audio/wordpool/RADISH.wav", "conditions": [18, 1200, "a", 18000], "internal_node_id": "0.0-47.0", "trial": 1, "time_elapsed": 485908, "serialpos": 10, "key_press": -1, "wordID": 1157, "type": "PRES_AUD", "trial_index": 65}, "uniqueid": "MTK1382:3OVR4I9USQQ93L8C9XGLN410YR5Q41", "dateTime": 1515868138081}, {"current_trial": 66, "trialdata": {"rt": -1000, "trial_type": "single-audio", "word": "bike", "stimulus": "/static/audio/wordpool/BIKE.wav", "conditions": [18, 1200, "a", 18000], "internal_node_id": "0.0-48.0", "trial": 1, "time_elapsed": 488186, "serialpos": 11, "key_press": -1, "wordID": 124, "type": "PRES_AUD", "trial_index": 66}, "uniqueid": "MTK1382:3OVR4I9USQQ93L8C9XGLN410YR5Q41", "dateTime": 1515868140360}, {"current_trial": 67, "trialdata": {"rt": -1000, "trial_type": "single-audio", "word": "crown", "stimulus": "/static/audio/wordpool/CROWN.wav", "conditions": [18, 1200, "a", 18000], "internal_node_id": "0.0-49.0", "trial": 1, "time_elapsed": 490371, "serialpos": 12, "key_press": -1, "wordID": 414, "type": "PRES_AUD", "trial_index": 67}, "uniqueid": "MTK1382:3OVR4I9USQQ93L8C9XGLN410YR5Q41", "dateTime": 1515868142544}, {"current_trial": 68, "trialdata": {"rt": -1000, "trial_type": "single-audio", "word": "chapel", "stimulus": "/static/audio/wordpool/CHAPEL.wav", "conditions": [18, 1200, "a", 18000], "internal_node_id": "0.0-50.0", "trial": 1, "time_elapsed": 492642, "serialpos": 13, "key_press": -1, "wordID": 279, "type": "PRES_AUD", "trial_index": 68}, "uniqueid": "MTK1382:3OVR4I9USQQ93L8C9XGLN410YR5Q41", "dateTime": 1515868144817}, {"current_trial": 69, "trialdata": {"rt": -1000, "trial_type": "single-audio", "word": "backbone", "stimulus": "/static/audio/wordpool/BACKBONE.wav", "conditions": [18, 1200, "a", 18000], "internal_node_id": "0.0-51.0", "trial": 1, "time_elapsed": 494926, "serialpos": 14, "key_press": -1, "wordID": 65, "type": "PRES_AUD", "trial_index": 69}, "uniqueid": "MTK1382:3OVR4I9USQQ93L8C9XGLN410YR5Q41", "dateTime": 1515868147099}, {"current_trial": 70, "trialdata": {"rt": -1000, "trial_type": "single-audio", "word": "box", "stimulus": "/static/audio/wordpool/BOX.wav", "conditions": [18, 1200, "a", 18000], "internal_node_id": "0.0-52.0", "trial": 1, "time_elapsed": 497299, "serialpos": 15, "key_press": -1, "wordID": 158, "type": "PRES_AUD", "trial_index": 70}, "uniqueid": "MTK1382:3OVR4I9USQQ93L8C9XGLN410YR5Q41", "dateTime": 1515868149473}, {"current_trial": 71, "trialdata": {"rt": -1000, "trial_type": "single-audio", "word": "racket", "stimulus": "/static/audio/wordpool/RACKET.wav", "conditions": [18, 1200, "a", 18000], "internal_node_id": "0.0-53.0", "trial": 1, "time_elapsed": 499402, "serialpos": 16, "key_press": -1, "wordID": 1154, "type": "PRES_AUD", "trial_index": 71}, "uniqueid": "MTK1382:3OVR4I9USQQ93L8C9XGLN410YR5Q41", "dateTime": 1515868151575}, {"current_trial": 72, "trialdata": {"rt": -1000, "trial_type": "single-audio", "word": "viking", "stimulus": "/static/audio/wordpool/VIKING.wav", "conditions": [18, 1200, "a", 18000], "internal_node_id": "0.0-54.0", "trial": 1, "time_elapsed": 501608, "serialpos": 17, "key_press": -1, "wordID": 1564, "type": "PRES_AUD", "trial_index": 72}, "uniqueid": "MTK1382:3OVR4I9USQQ93L8C9XGLN410YR5Q41", "dateTime": 1515868153781}, {"current_trial": 73, "trialdata": {"rt": -1, "trial_type": "single-stim", "stimulus": "", "internal_node_id": "0.0-55.0-0.0", "time_elapsed": 502892, "key_press": -1, "type": "PRE_RECALL_DELAY", "trial_index": 73}, "uniqueid": "MTK1382:3OVR4I9USQQ93L8C9XGLN410YR5Q41", "dateTime": 1515868155065}, {"current_trial": 74, "trialdata": {"rt": -1000, "trial_type": "single-audio", "stimulus": "/static/audio/400Hz.wav", "internal_node_id": "0.0-56.0", "time_elapsed": 503394, "key_press": -1, "type": "PRE_RECALL_ALERT", "trial_index": 74}, "uniqueid": "MTK1382:3OVR4I9USQQ93L8C9XGLN410YR5Q41", "dateTime": 1515868155567}, {"current_trial": 75, "trialdata": {"rt": [4184, 7256, 9617, 11161, 13081, 20338, 21938, 25025, 28890, 32417, 34689, 37682, 39321, 42545, 48641], "recwords": ["cod", "box", "viking", "casket", "chapel", "radish", "barley", "xerox", "missile", "uncle", "couch", "marsh", "crown", "teacher", "backbone"], "key_times": [3497, 3553, 3761, 4184, 4969, 5009, 5465, 6521, 6889, 7256, 8577, 8745, 8929, 9097, 9265, 9441, 9617, 10161, 10345, 10529, 10617, 10736, 10929, 11161, 11873, 11994, 12129, 12257, 12361, 12625, 13081, 18881, 19057, 19473, 19610, 19697, 19833, 20338, 20754, 20938, 21073, 21241, 21481, 21585, 21938, 24042, 24321, 24529, 24657, 24817, 25025, 25633, 25850, 26090, 26265, 26737, 27209, 27753, 28890, 30322, 30585, 30705, 30865, 31017, 32417, 33441, 33545, 33673, 33937, 34162, 34689, 36202, 36282, 36441, 37113, 37361, 37682, 38281, 38537, 38738, 38873, 39018, 39321, 41017, 41257, 41465, 41705, 41874, 42009, 42305, 42545, 42961, 43161, 43417, 43561, 43745, 43873, 44081, 44209, 48641], "trial_type": "free-recall", "conditions": [18, 1200, "a", 18000], "internal_node_id": "0.0-57.0-0.0", "key_presses": [67, 79, 68, 13, 66, 79, 83, 8, 88, 13, 86, 73, 75, 73, 78, 71, 13, 67, 65, 83, 75, 69, 84, 13, 67, 72, 65, 80, 69, 76, 13, 82, 65, 68, 73, 83, 72, 13, 66, 65, 82, 76, 69, 89, 13, 88, 69, 82, 79, 88, 13, 77, 73, 83, 83, 73, 76, 69, 13, 85, 78, 67, 76, 69, 13, 67, 79, 85, 67, 72, 13, 77, 65, 82, 83, 72, 13, 67, 82, 79, 87, 78, 13, 84, 69, 65, 67, 72, 69, 82, 13, 66, 65, 67, 75, 66, 79, 78, 69, 13], "trial": 1, "time_elapsed": 563397, "type": "FREE_RECALL", "trial_index": 75}, "uniqueid": "MTK1382:3OVR4I9USQQ93L8C9XGLN410YR5Q41", "dateTime": 1515868215573}, {"current_trial": 76, "trialdata": {"rt": 2268, "trial_type": "text", "internal_node_id": "0.0-58.0", "time_elapsed": 567670, "key_press": 32, "type": "INSTRUCTIONS", "trial_index": 76}, "uniqueid": "MTK1382:3OVR4I9USQQ93L8C9XGLN410YR5Q41", "dateTime": 1515868219843}, {"current_trial": 77, "trialdata": {"rt": [2197, 4381, 7342, 9814, 11902], "trial_type": "math-distractor", "key_times": [1677, 2022, 2197, 3941, 4229, 4381, 6918, 7149, 7342, 9285, 9526, 9814, 11461, 11549, 11902], "responses": ["14", "14", "12", "14", "18"], "num2": [6, 9, 3, 5, 9, 5], "num3": [6, 3, 5, 8, 2, 8], "conditions": [24, 1600, "a", 12000], "internal_node_id": "0.0-59.0", "key_presses": [49, 52, 13, 49, 52, 13, 49, 50, 13, 49, 52, 13, 49, 56, 13], "trial": 2, "time_elapsed": 580674, "type": "DISTRACTOR", "trial_index": 77, "num1": [4, 2, 4, 1, 7, 1]}, "uniqueid": "MTK1382:3OVR4I9USQQ93L8C9XGLN410YR5Q41", "dateTime": 1515868232847}, {"current_trial": 78, "trialdata": {"rt": -1, "trial_type": "single-stim", "stimulus": "<p id=\"stim\">10</p>", "internal_node_id": "0.0-60.0-0.0", "time_elapsed": 583676, "key_press": -1, "trial_index": 78}, "uniqueid": "MTK1382:3OVR4I9USQQ93L8C9XGLN410YR5Q41", "dateTime": 1515868235849}, {"current_trial": 79, "trialdata": {"rt": -1, "trial_type": "single-stim", "stimulus": "<p id=\"stim\">9</p>", "internal_node_id": "0.0-60.0-1.0", "time_elapsed": 584677, "key_press": -1, "trial_index": 79}, "uniqueid": "MTK1382:3OVR4I9USQQ93L8C9XGLN410YR5Q41", "dateTime": 1515868236850}, {"current_trial": 80, "trialdata": {"rt": -1, "trial_type": "single-stim", "stimulus": "<p id=\"stim\">8</p>", "internal_node_id": "0.0-60.0-2.0", "time_elapsed": 585680, "key_press": -1, "trial_index": 80}, "uniqueid": "MTK1382:3OVR4I9USQQ93L8C9XGLN410YR5Q41", "dateTime": 1515868237853}, {"current_trial": 81, "trialdata": {"rt": -1, "trial_type": "single-stim", "stimulus": "<p id=\"stim\">7</p>", "internal_node_id": "0.0-60.0-3.0", "time_elapsed": 586682, "key_press": -1, "trial_index": 81}, "uniqueid": "MTK1382:3OVR4I9USQQ93L8C9XGLN410YR5Q41", "dateTime": 1515868238855}, {"current_trial": 82, "trialdata": {"rt": -1, "trial_type": "single-stim", "stimulus": "<p id=\"stim\">6</p>", "internal_node_id": "0.0-60.0-4.0", "time_elapsed": 587683, "key_press": -1, "trial_index": 82}, "uniqueid": "MTK1382:3OVR4I9USQQ93L8C9XGLN410YR5Q41", "dateTime": 1515868239857}, {"current_trial": 83, "trialdata": {"rt": -1, "trial_type": "single-stim", "stimulus": "<p id=\"stim\">5</p>", "internal_node_id": "0.0-60.0-5.0", "time_elapsed": 588685, "key_press": -1, "trial_index": 83}, "uniqueid": "MTK1382:3OVR4I9USQQ93L8C9XGLN410YR5Q41", "dateTime": 1515868240858}, {"current_trial": 84, "trialdata": {"rt": -1, "trial_type": "single-stim", "stimulus": "<p id=\"stim\">4</p>", "internal_node_id": "0.0-60.0-6.0", "time_elapsed": 589686, "key_press": -1, "trial_index": 84}, "uniqueid": "MTK1382:3OVR4I9USQQ93L8C9XGLN410YR5Q41", "dateTime": 1515868241859}, {"current_trial": 85, "trialdata": {"rt": -1, "trial_type": "single-stim", "stimulus": "<p id=\"stim\">3</p>", "internal_node_id": "0.0-60.0-7.0", "time_elapsed": 590688, "key_press": -1, "trial_index": 85}, "uniqueid": "MTK1382:3OVR4I9USQQ93L8C9XGLN410YR5Q41", "dateTime": 1515868242861}, {"current_trial": 86, "trialdata": {"rt": -1, "trial_type": "single-stim", "stimulus": "<p id=\"stim\">2</p>", "internal_node_id": "0.0-60.0-8.0", "time_elapsed": 591689, "key_press": -1, "trial_index": 86}, "uniqueid": "MTK1382:3OVR4I9USQQ93L8C9XGLN410YR5Q41", "dateTime": 1515868243862}, {"current_trial": 87, "trialdata": {"rt": -1, "trial_type": "single-stim", "stimulus": "<p id=\"stim\">1</p>", "internal_node_id": "0.0-60.0-9.0", "time_elapsed": 592690, "key_press": -1, "trial_index": 87}, "uniqueid": "MTK1382:3OVR4I9USQQ93L8C9XGLN410YR5Q41", "dateTime": 1515868244864}, {"current_trial": 88, "trialdata": {"rt": -1, "trial_type": "single-stim", "stimulus": "<p id=\"stim\">+</p>", "internal_node_id": "0.0-61.0-0.0", "time_elapsed": 594192, "key_press": -1, "type": "FIXATION", "trial_index": 88}, "uniqueid": "MTK1382:3OVR4I9USQQ93L8C9XGLN410YR5Q41", "dateTime": 1515868246365}, {"current_trial": 89, "trialdata": {"rt": -1000, "trial_type": "single-audio", "word": "spool", "stimulus": "/static/audio/wordpool/SPOOL.wav", "conditions": [24, 1600, "a", 12000], "internal_node_id": "0.0-62.0", "trial": 2, "time_elapsed": 596755, "serialpos": 0, "key_press": -1, "wordID": 1355, "type": "PRES_AUD", "trial_index": 89}, "uniqueid": "MTK1382:3OVR4I9USQQ93L8C9XGLN410YR5Q41", "dateTime": 1515868248928}, {"current_trial": 90, "trialdata": {"rt": -1000, "trial_type": "single-audio", "word": "orchid", "stimulus": "/static/audio/wordpool/ORCHID.wav", "conditions": [24, 1600, "a", 12000], "internal_node_id": "0.0-63.0", "trial": 2, "time_elapsed": 599456, "serialpos": 1, "key_press": -1, "wordID": 981, "type": "PRES_AUD", "trial_index": 90}, "uniqueid": "MTK1382:3OVR4I9USQQ93L8C9XGLN410YR5Q41", "dateTime": 1515868251629}, {"current_trial": 91, "trialdata": {"rt": -1000, "trial_type": "single-audio", "word": "stomach", "stimulus": "/static/audio/wordpool/STOMACH.wav", "conditions": [24, 1600, "a", 12000], "internal_node_id": "0.0-64.0", "trial": 2, "time_elapsed": 601965, "serialpos": 2, "key_press": -1, "wordID": 1383, "type": "PRES_AUD", "trial_index": 91}, "uniqueid": "MTK1382:3OVR4I9USQQ93L8C9XGLN410YR5Q41", "dateTime": 1515868254138}, {"current_trial": 92, "trialdata": {"rt": -1000, "trial_type": "single-audio", "word": "chipmunk", "stimulus": "/static/audio/wordpool/CHIPMUNK.wav", "conditions": [24, 1600, "a", 12000], "internal_node_id": "0.0-65.0", "trial": 2, "time_elapsed": 604536, "serialpos": 3, "key_press": -1, "wordID": 303, "type": "PRES_AUD", "trial_index": 92}, "uniqueid": "MTK1382:3OVR4I9USQQ93L8C9XGLN410YR5Q41", "dateTime": 1515868256711}, {"current_trial": 93, "trialdata": {"rt": -1000, "trial_type": "single-audio", "word": "knife", "stimulus": "/static/audio/wordpool/KNIFE.wav", "conditions": [24, 1600, "a", 12000], "internal_node_id": "0.0-66.0", "trial": 2, "time_elapsed": 606965, "serialpos": 4, "key_press": -1, "wordID": 784, "type": "PRES_AUD", "trial_index": 93}, "uniqueid": "MTK1382:3OVR4I9USQQ93L8C9XGLN410YR5Q41", "dateTime": 1515868259138}, {"current_trial": 94, "trialdata": {"rt": -1000, "trial_type": "single-audio", "word": "crib", "stimulus": "/static/audio/wordpool/CRIB.wav", "conditions": [24, 1600, "a", 12000], "internal_node_id": "0.0-67.0", "trial": 2, "time_elapsed": 609760, "serialpos": 5, "key_press": -1, "wordID": 406, "type": "PRES_AUD", "trial_index": 94}, "uniqueid": "MTK1382:3OVR4I9USQQ93L8C9XGLN410YR5Q41", "dateTime": 1515868261933}, {"current_trial": 95, "trialdata": {"rt": -1000, "trial_type": "single-audio", "word": "mattress", "stimulus": "/static/audio/wordpool/MATTRESS.wav", "conditions": [24, 1600, "a", 12000], "internal_node_id": "0.0-68.0", "trial": 2, "time_elapsed": 612537, "serialpos": 6, "key_press": -1, "wordID": 878, "type": "PRES_AUD", "trial_index": 95}, "uniqueid": "MTK1382:3OVR4I9USQQ93L8C9XGLN410YR5Q41", "dateTime": 1515868264710}, {"current_trial": 96, "trialdata": {"rt": -1000, "trial_type": "single-audio", "word": "pepper", "stimulus": "/static/audio/wordpool/PEPPER.wav", "conditions": [24, 1600, "a", 12000], "internal_node_id": "0.0-69.0", "trial": 2, "time_elapsed": 614988, "serialpos": 7, "key_press": -1, "wordID": 1046, "type": "PRES_AUD", "trial_index": 96}, "uniqueid": "MTK1382:3OVR4I9USQQ93L8C9XGLN410YR5Q41", "dateTime": 1515868267161}, {"current_trial": 97, "trialdata": {"rt": -1000, "trial_type": "single-audio", "word": "rod", "stimulus": "/static/audio/wordpool/ROD.wav", "conditions": [24, 1600, "a", 12000], "internal_node_id": "0.0-70.0", "trial": 2, "time_elapsed": 617446, "serialpos": 8, "key_press": -1, "wordID": 1202, "type": "PRES_AUD", "trial_index": 97}, "uniqueid": "MTK1382:3OVR4I9USQQ93L8C9XGLN410YR5Q41", "dateTime": 1515868269619}, {"current_trial": 98, "trialdata": {"rt": -1000, "trial_type": "single-audio", "word": "marine", "stimulus": "/static/audio/wordpool/MARINE.wav", "conditions": [24, 1600, "a", 12000], "internal_node_id": "0.0-71.0", "trial": 2, "time_elapsed": 620035, "serialpos": 9, "key_press": -1, "wordID": 868, "type": "PRES_AUD", "trial_index": 98}, "uniqueid": "MTK1382:3OVR4I9USQQ93L8C9XGLN410YR5Q41", "dateTime": 1515868272208}, {"current_trial": 99, "trialdata": {"rt": -1000, "trial_type": "single-audio", "word": "cocoon", "stimulus": "/static/audio/wordpool/COCOON.wav", "conditions": [24, 1600, "a", 12000], "internal_node_id": "0.0-72.0", "trial": 2, "time_elapsed": 622522, "serialpos": 10, "key_press": -1, "wordID": 338, "type": "PRES_AUD", "trial_index": 99}, "uniqueid": "MTK1382:3OVR4I9USQQ93L8C9XGLN410YR5Q41", "dateTime": 1515868274695}, {"current_trial": 100, "trialdata": {"rt": -1000, "trial_type": "single-audio", "word": "bug", "stimulus": "/static/audio/wordpool/BUG.wav", "conditions": [24, 1600, "a", 12000], "internal_node_id": "0.0-73.0", "trial": 2, "time_elapsed": 625160, "serialpos": 11, "key_press": -1, "wordID": 186, "type": "PRES_AUD", "trial_index": 100}, "uniqueid": "MTK1382:3OVR4I9USQQ93L8C9XGLN410YR5Q41", "dateTime": 1515868277333}, {"current_trial": 101, "trialdata": {"rt": -1000, "trial_type": "single-audio", "word": "europe", "stimulus": "/static/audio/wordpool/EUROPE.wav", "conditions": [24, 1600, "a", 12000], "internal_node_id": "0.0-74.0", "trial": 2, "time_elapsed": 627852, "serialpos": 12, "key_press": -1, "wordID": 540, "type": "PRES_AUD", "trial_index": 101}, "uniqueid": "MTK1382:3OVR4I9USQQ93L8C9XGLN410YR5Q41", "dateTime": 1515868280025}, {"current_trial": 102, "trialdata": {"rt": -1000, "trial_type": "single-audio", "word": "japan", "stimulus": "/static/audio/wordpool/JAPAN.wav", "conditions": [24, 1600, "a", 12000], "internal_node_id": "0.0-75.0", "trial": 2, "time_elapsed": 630527, "serialpos": 13, "key_press": -1, "wordID": 748, "type": "PRES_AUD", "trial_index": 102}, "uniqueid": "MTK1382:3OVR4I9USQQ93L8C9XGLN410YR5Q41", "dateTime": 1515868282700}, {"current_trial": 103, "trialdata": {"rt": -1000, "trial_type": "single-audio", "word": "mailbox", "stimulus": "/static/audio/wordpool/MAILBOX.wav", "conditions": [24, 1600, "a", 12000], "internal_node_id": "0.0-76.0", "trial": 2, "time_elapsed": 633269, "serialpos": 14, "key_press": -1, "wordID": 856, "type": "PRES_AUD", "trial_index": 103}, "uniqueid": "MTK1382:3OVR4I9USQQ93L8C9XGLN410YR5Q41", "dateTime": 1515868285442}, {"current_trial": 104, "trialdata": {"rt": -1000, "trial_type": "single-audio", "word": "concert", "stimulus": "/static/audio/wordpool/CONCERT.wav", "conditions": [24, 1600, "a", 12000], "internal_node_id": "0.0-77.0", "trial": 2, "time_elapsed": 635782, "serialpos": 15, "key_press": -1, "wordID": 359, "type": "PRES_AUD", "trial_index": 104}, "uniqueid": "MTK1382:3OVR4I9USQQ93L8C9XGLN410YR5Q41", "dateTime": 1515868287955}, {"current_trial": 105, "trialdata": {"rt": -1000, "trial_type": "single-audio", "word": "summit", "stimulus": "/static/audio/wordpool/SUMMIT.wav", "conditions": [24, 1600, "a", 12000], "internal_node_id": "0.0-78.0", "trial": 2, "time_elapsed": 638310, "serialpos": 16, "key_press": -1, "wordID": 1404, "type": "PRES_AUD", "trial_index": 105}, "uniqueid": "MTK1382:3OVR4I9USQQ93L8C9XGLN410YR5Q41", "dateTime": 1515868290483}, {"current_trial": 106, "trialdata": {"rt": -1000, "trial_type": "single-audio", "word": "champagne", "stimulus": "/static/audio/wordpool/CHAMPAGNE.wav", "conditions": [24, 1600, "a", 12000], "internal_node_id": "0.0-79.0", "trial": 2, "time_elapsed": 640782, "serialpos": 17, "key_press": -1, "wordID": 277, "type": "PRES_AUD", "trial_index": 106}, "uniqueid": "MTK1382:3OVR4I9USQQ93L8C9XGLN410YR5Q41", "dateTime": 1515868292955}, {"current_trial": 107, "trialdata": {"rt": -1000, "trial_type": "single-audio", "word": "diver", "stimulus": "/static/audio/wordpool/DIVER.wav", "conditions": [24, 1600, "a", 12000], "internal_node_id": "0.0-80.0", "trial": 2, "time_elapsed": 643458, "serialpos": 18, "key_press": -1, "wordID": 475, "type": "PRES_AUD", "trial_index": 107}, "uniqueid": "MTK1382:3OVR4I9USQQ93L8C9XGLN410YR5Q41", "dateTime": 1515868295631}, {"current_trial": 108, "trialdata": {"rt": -1000, "trial_type": "single-audio", "word": "coffee", "stimulus": "/static/audio/wordpool/COFFEE.wav", "conditions": [24, 1600, "a", 12000], "internal_node_id": "0.0-81.0", "trial": 2, "time_elapsed": 646060, "serialpos": 19, "key_press": -1, "wordID": 340, "type": "PRES_AUD", "trial_index": 108}, "uniqueid": "MTK1382:3OVR4I9USQQ93L8C9XGLN410YR5Q41", "dateTime": 1515868298233}, {"current_trial": 109, "trialdata": {"rt": -1000, "trial_type": "single-audio", "word": "judge", "stimulus": "/static/audio/wordpool/JUDGE.wav", "conditions": [24, 1600, "a", 12000], "internal_node_id": "0.0-82.0", "trial": 2, "time_elapsed": 648580, "serialpos": 20, "key_press": -1, "wordID": 760, "type": "PRES_AUD", "trial_index": 109}, "uniqueid": "MTK1382:3OVR4I9USQQ93L8C9XGLN410YR5Q41", "dateTime": 1515868300753}, {"current_trial": 110, "trialdata": {"rt": -1000, "trial_type": "single-audio", "word": "citrus", "stimulus": "/static/audio/wordpool/CITRUS.wav", "conditions": [24, 1600, "a", 12000], "internal_node_id": "0.0-83.0", "trial": 2, "time_elapsed": 651077, "serialpos": 21, "key_press": -1, "wordID": 312, "type": "PRES_AUD", "trial_index": 110}, "uniqueid": "MTK1382:3OVR4I9USQQ93L8C9XGLN410YR5Q41", "dateTime": 1515868303250}, {"current_trial": 111, "trialdata": {"rt": -1000, "trial_type": "single-audio", "word": "gymnast", "stimulus": "/static/audio/wordpool/GYMNAST.wav", "conditions": [24, 1600, "a", 12000], "internal_node_id": "0.0-84.0", "trial": 2, "time_elapsed": 653833, "serialpos": 22, "key_press": -1, "wordID": 674, "type": "PRES_AUD", "trial_index": 111}, "uniqueid": "MTK1382:3OVR4I9USQQ93L8C9XGLN410YR5Q41", "dateTime": 1515868306006}, {"current_trial": 112, "trialdata": {"rt": -1000, "trial_type": "single-audio", "word": "soda", "stimulus": "/static/audio/wordpool/SODA.wav", "conditions": [24, 1600, "a", 12000], "internal_node_id": "0.0-85.0", "trial": 2, "time_elapsed": 656619, "serialpos": 23, "key_press": -1, "wordID": 1340, "type": "PRES_AUD", "trial_index": 112}, "uniqueid": "MTK1382:3OVR4I9USQQ93L8C9XGLN410YR5Q41", "dateTime": 1515868308792}, {"current_trial": 113, "trialdata": {"rt": -1, "trial_type": "single-stim", "stimulus": "", "internal_node_id": "0.0-86.0-0.0", "time_elapsed": 657838, "key_press": -1, "type": "PRE_RECALL_DELAY", "trial_index": 113}, "uniqueid": "MTK1382:3OVR4I9USQQ93L8C9XGLN410YR5Q41", "dateTime": 1515868310012}, {"current_trial": 114, "trialdata": {"rt": -1000, "trial_type": "single-audio", "stimulus": "/static/audio/400Hz.wav", "internal_node_id": "0.0-87.0", "time_elapsed": 658340, "key_press": -1, "type": "PRE_RECALL_ALERT", "trial_index": 114}, "uniqueid": "MTK1382:3OVR4I9USQQ93L8C9XGLN410YR5Q41", "dateTime": 1515868310513}, {"current_trial": 115, "trialdata": {"rt": [3419, 7376, 10224, 12624, 22480, 27648, 29417, 31296, 32969, 41609, 44184, 46288, 50008, 52209, 56720], "recwords": ["soda", "citrus", "gymnast", "bug", "coccoon", "marine", "diver", "europe", "japan", "coffee", "orchid", "crib", "mattress", "concert", "champagne"], "key_times": [2817, 2912, 3024, 3209, 3419, 6089, 6288, 6456, 6705, 6826, 7000, 7376, 7808, 8376, 9024, 9345, 9504, 9728, 9961, 10224, 10752, 10849, 11000, 12624, 19009, 19304, 21336, 21488, 21737, 21889, 22129, 22480, 24201, 24320, 24528, 24626, 24880, 25016, 27648, 28064, 28176, 28401, 28625, 28840, 29417, 29912, 30024, 30216, 30280, 30456, 30705, 30856, 31296, 31689, 31792, 32080, 32185, 32328, 32528, 32969, 39209, 39833, 40120, 40256, 40512, 40680, 41609, 42441, 42512, 42776, 42865, 43016, 43120, 44184, 45328, 45584, 45721, 45880, 46288, 46968, 47048, 47576, 48400, 48808, 49048, 49656, 49808, 50008, 50544, 50632, 50824, 50960, 51208, 51408, 51920, 52209, 53032, 53160, 53288, 53464, 53736, 53864, 54104, 54280, 54392, 56720], "trial_type": "free-recall", "conditions": [24, 1600, "a", 12000], "internal_node_id": "0.0-88.0-0.0", "key_presses": [83, 79, 68, 65, 13, 67, 73, 84, 82, 85, 83, 13, 71, 89, 77, 78, 65, 83, 84, 13, 66, 85, 71, 13, 67, 79, 67, 67, 79, 79, 78, 13, 77, 65, 82, 73, 78, 69, 13, 68, 73, 86, 69, 82, 13, 16, 69, 85, 82, 79, 80, 69, 13, 16, 74, 65, 80, 65, 78, 13, 67, 79, 70, 70, 69, 69, 13, 79, 82, 67, 72, 73, 68, 13, 67, 82, 73, 66, 13, 77, 65, 84, 84, 82, 69, 83, 83, 13, 67, 79, 78, 67, 69, 82, 84, 13, 67, 72, 65, 77, 80, 65, 71, 78, 69, 13], "trial": 2, "time_elapsed": 718343, "type": "FREE_RECALL", "trial_index": 115}, "uniqueid": "MTK1382:3OVR4I9USQQ93L8C9XGLN410YR5Q41", "dateTime": 1515868370520}, {"current_trial": 116, "trialdata": {"rt": 3089, "trial_type": "text", "internal_node_id": "0.0-89.0", "time_elapsed": 723438, "key_press": 32, "type": "INSTRUCTIONS", "trial_index": 116}, "uniqueid": "MTK1382:3OVR4I9USQQ93L8C9XGLN410YR5Q41", "dateTime": 1515868375611}, {"current_trial": 117, "trialdata": {"rt": [2437, 4837, 6749, 9013, 11349], "trial_type": "math-distractor", "key_times": [1917, 2437, 4405, 4621, 4837, 6653, 6749, 8453, 8861, 9013, 10677, 11213, 11349], "responses": ["6", "12", "8", "15", "13"], "num2": [3, 9, 6, 8, 1, 9], "num3": [1, 1, 1, 5, 4, 9], "conditions": [12, 800, "a", 12000], "internal_node_id": "0.0-90.0", "key_presses": [54, 13, 49, 50, 13, 56, 13, 49, 53, 13, 49, 51, 13], "trial": 3, "time_elapsed": 737441, "type": "DISTRACTOR", "trial_index": 117, "num1": [2, 2, 1, 2, 8, 5]}, "uniqueid": "MTK1382:3OVR4I9USQQ93L8C9XGLN410YR5Q41", "dateTime": 1515868389614}, {"current_trial": 118, "trialdata": {"rt": -1, "trial_type": "single-stim", "stimulus": "<p id=\"stim\">10</p>", "internal_node_id": "0.0-91.0-0.0", "time_elapsed": 740443, "key_press": -1, "trial_index": 118}, "uniqueid": "MTK1382:3OVR4I9USQQ93L8C9XGLN410YR5Q41", "dateTime": 1515868392616}, {"current_trial": 119, "trialdata": {"rt": -1, "trial_type": "single-stim", "stimulus": "<p id=\"stim\">9</p>", "internal_node_id": "0.0-91.0-1.0", "time_elapsed": 741445, "key_press": -1, "trial_index": 119}, "uniqueid": "MTK1382:3OVR4I9USQQ93L8C9XGLN410YR5Q41", "dateTime": 1515868393618}, {"current_trial": 120, "trialdata": {"rt": -1, "trial_type": "single-stim", "stimulus": "<p id=\"stim\">8</p>", "internal_node_id": "0.0-91.0-2.0", "time_elapsed": 742447, "key_press": -1, "trial_index": 120}, "uniqueid": "MTK1382:3OVR4I9USQQ93L8C9XGLN410YR5Q41", "dateTime": 1515868394620}, {"current_trial": 121, "trialdata": {"rt": -1, "trial_type": "single-stim", "stimulus": "<p id=\"stim\">7</p>", "internal_node_id": "0.0-91.0-3.0", "time_elapsed": 743449, "key_press": -1, "trial_index": 121}, "uniqueid": "MTK1382:3OVR4I9USQQ93L8C9XGLN410YR5Q41", "dateTime": 1515868395622}, {"current_trial": 122, "trialdata": {"rt": -1, "trial_type": "single-stim", "stimulus": "<p id=\"stim\">6</p>", "internal_node_id": "0.0-91.0-4.0", "time_elapsed": 744451, "key_press": -1, "trial_index": 122}, "uniqueid": "MTK1382:3OVR4I9USQQ93L8C9XGLN410YR5Q41", "dateTime": 1515868396624}, {"current_trial": 123, "trialdata": {"rt": -1, "trial_type": "single-stim", "stimulus": "<p id=\"stim\">5</p>", "internal_node_id": "0.0-91.0-5.0", "time_elapsed": 745453, "key_press": -1, "trial_index": 123}, "uniqueid": "MTK1382:3OVR4I9USQQ93L8C9XGLN410YR5Q41", "dateTime": 1515868397626}, {"current_trial": 124, "trialdata": {"rt": -1, "trial_type": "single-stim", "stimulus": "<p id=\"stim\">4</p>", "internal_node_id": "0.0-91.0-6.0", "time_elapsed": 746454, "key_press": -1, "trial_index": 124}, "uniqueid": "MTK1382:3OVR4I9USQQ93L8C9XGLN410YR5Q41", "dateTime": 1515868398627}, {"current_trial": 125, "trialdata": {"rt": -1, "trial_type": "single-stim", "stimulus": "<p id=\"stim\">3</p>", "internal_node_id": "0.0-91.0-7.0", "time_elapsed": 747455, "key_press": -1, "trial_index": 125}, "uniqueid": "MTK1382:3OVR4I9USQQ93L8C9XGLN410YR5Q41", "dateTime": 1515868399628}, {"current_trial": 126, "trialdata": {"rt": -1, "trial_type": "single-stim", "stimulus": "<p id=\"stim\">2</p>", "internal_node_id": "0.0-91.0-8.0", "time_elapsed": 748457, "key_press": -1, "trial_index": 126}, "uniqueid": "MTK1382:3OVR4I9USQQ93L8C9XGLN410YR5Q41", "dateTime": 1515868400631}, {"current_trial": 127, "trialdata": {"rt": -1, "trial_type": "single-stim", "stimulus": "<p id=\"stim\">1</p>", "internal_node_id": "0.0-91.0-9.0", "time_elapsed": 749461, "key_press": -1, "trial_index": 127}, "uniqueid": "MTK1382:3OVR4I9USQQ93L8C9XGLN410YR5Q41", "dateTime": 1515868401634}, {"current_trial": 128, "trialdata": {"rt": -1, "trial_type": "single-stim", "stimulus": "<p id=\"stim\">+</p>", "internal_node_id": "0.0-92.0-0.0", "time_elapsed": 750963, "key_press": -1, "type": "FIXATION", "trial_index": 128}, "uniqueid": "MTK1382:3OVR4I9USQQ93L8C9XGLN410YR5Q41", "dateTime": 1515868403136}, {"current_trial": 129, "trialdata": {"rt": -1000, "trial_type": "single-audio", "word": "poet", "stimulus": "/static/audio/wordpool/POET.wav", "conditions": [12, 800, "a", 12000], "internal_node_id": "0.0-93.0", "trial": 3, "time_elapsed": 752681, "serialpos": 0, "key_press": -1, "wordID": 1094, "type": "PRES_AUD", "trial_index": 129}, "uniqueid": "MTK1382:3OVR4I9USQQ93L8C9XGLN410YR5Q41", "dateTime": 1515868404854}, {"current_trial": 130, "trialdata": {"rt": -1000, "trial_type": "single-audio", "word": "flask", "stimulus": "/static/audio/wordpool/FLASK.wav", "conditions": [12, 800, "a", 12000], "internal_node_id": "0.0-94.0", "trial": 3, "time_elapsed": 754616, "serialpos": 1, "key_press": -1, "wordID": 575, "type": "PRES_AUD", "trial_index": 130}, "uniqueid": "MTK1382:3OVR4I9USQQ93L8C9XGLN410YR5Q41", "dateTime": 1515868406789}, {"current_trial": 131, "trialdata": {"rt": -1000, "trial_type": "single-audio", "word": "inmate", "stimulus": "/static/audio/wordpool/INMATE.wav", "conditions": [12, 800, "a", 12000], "internal_node_id": "0.0-95.0", "trial": 3, "time_elapsed": 756289, "serialpos": 2, "key_press": -1, "wordID": 737, "type": "PRES_AUD", "trial_index": 131}, "uniqueid": "MTK1382:3OVR4I9USQQ93L8C9XGLN410YR5Q41", "dateTime": 1515868408462}, {"current_trial": 132, "trialdata": {"rt": -1000, "trial_type": "single-audio", "word": "shrub", "stimulus": "/static/audio/wordpool/SHRUB.wav", "conditions": [12, 800, "a", 12000], "internal_node_id": "0.0-96.0", "trial": 3, "time_elapsed": 757966, "serialpos": 3, "key_press": -1, "wordID": 1298, "type": "PRES_AUD", "trial_index": 132}, "uniqueid": "MTK1382:3OVR4I9USQQ93L8C9XGLN410YR5Q41", "dateTime": 1515868410139}, {"current_trial": 133, "trialdata": {"rt": -1000, "trial_type": "single-audio", "word": "child", "stimulus": "/static/audio/wordpool/CHILD.wav", "conditions": [12, 800, "a", 12000], "internal_node_id": "0.0-97.0", "trial": 3, "time_elapsed": 759700, "serialpos": 4, "key_press": -1, "wordID": 298, "type": "PRES_AUD", "trial_index": 133}, "uniqueid": "MTK1382:3OVR4I9USQQ93L8C9XGLN410YR5Q41", "dateTime": 1515868411873}, {"current_trial": 134, "trialdata": {"rt": -1000, "trial_type": "single-audio", "word": "leg", "stimulus": "/static/audio/wordpool/LEG.wav", "conditions": [12, 800, "a", 12000], "internal_node_id": "0.0-98.0", "trial": 3, "time_elapsed": 761597, "serialpos": 5, "key_press": -1, "wordID": 808, "type": "PRES_AUD", "trial_index": 134}, "uniqueid": "MTK1382:3OVR4I9USQQ93L8C9XGLN410YR5Q41", "dateTime": 1515868413770}, {"current_trial": 135, "trialdata": {"rt": -1000, "trial_type": "single-audio", "word": "window", "stimulus": "/static/audio/wordpool/WINDOW.wav", "conditions": [12, 800, "a", 12000], "internal_node_id": "0.0-99.0", "trial": 3, "time_elapsed": 763315, "serialpos": 6, "key_press": -1, "wordID": 1610, "type": "PRES_AUD", "trial_index": 135}, "uniqueid": "MTK1382:3OVR4I9USQQ93L8C9XGLN410YR5Q41", "dateTime": 1515868415489}, {"current_trial": 136, "trialdata": {"rt": -1000, "trial_type": "single-audio", "word": "motel", "stimulus": "/static/audio/wordpool/MOTEL.wav", "conditions": [12, 800, "a", 12000], "internal_node_id": "0.0-100.0", "trial": 3, "time_elapsed": 765048, "serialpos": 7, "key_press": -1, "wordID": 918, "type": "PRES_AUD", "trial_index": 136}, "uniqueid": "MTK1382:3OVR4I9USQQ93L8C9XGLN410YR5Q41", "dateTime": 1515868417221}, {"current_trial": 137, "trialdata": {"rt": -1000, "trial_type": "single-audio", "word": "swimmer", "stimulus": "/static/audio/wordpool/SWIMMER.wav", "conditions": [12, 800, "a", 12000], "internal_node_id": "0.0-101.0", "trial": 3, "time_elapsed": 766675, "serialpos": 8, "key_press": -1, "wordID": 1419, "type": "PRES_AUD", "trial_index": 137}, "uniqueid": "MTK1382:3OVR4I9USQQ93L8C9XGLN410YR5Q41", "dateTime": 1515868418848}, {"current_trial": 138, "trialdata": {"rt": -1000, "trial_type": "single-audio", "word": "shoulder", "stimulus": "/static/audio/wordpool/SHOULDER.wav", "conditions": [12, 800, "a", 12000], "internal_node_id": "0.0-102.0", "trial": 3, "time_elapsed": 768416, "serialpos": 9, "key_press": -1, "wordID": 1293, "type": "PRES_AUD", "trial_index": 138}, "uniqueid": "MTK1382:3OVR4I9USQQ93L8C9XGLN410YR5Q41", "dateTime": 1515868420590}, {"current_trial": 139, "trialdata": {"rt": -1000, "trial_type": "single-audio", "word": "tutu", "stimulus": "/static/audio/wordpool/TUTU.wav", "conditions": [12, 800, "a", 12000], "internal_node_id": "0.0-103.0", "trial": 3, "time_elapsed": 770298, "serialpos": 10, "key_press": -1, "wordID": 1523, "type": "PRES_AUD", "trial_index": 139}, "uniqueid": "MTK1382:3OVR4I9USQQ93L8C9XGLN410YR5Q41", "dateTime": 1515868422471}, {"current_trial": 140, "trialdata": {"rt": -1000, "trial_type": "single-audio", "word": "nightgown", "stimulus": "/static/audio/wordpool/NIGHTGOWN.wav", "conditions": [12, 800, "a", 12000], "internal_node_id": "0.0-104.0", "trial": 3, "time_elapsed": 771960, "serialpos": 11, "key_press": -1, "wordID": 952, "type": "PRES_AUD", "trial_index": 140}, "uniqueid": "MTK1382:3OVR4I9USQQ93L8C9XGLN410YR5Q41", "dateTime": 1515868424133}, {"current_trial": 141, "trialdata": {"rt": -1, "trial_type": "single-stim", "stimulus": "", "internal_node_id": "0.0-105.0-0.0", "time_elapsed": 773188, "key_press": -1, "type": "PRE_RECALL_DELAY", "trial_index": 141}, "uniqueid": "MTK1382:3OVR4I9USQQ93L8C9XGLN410YR5Q41", "dateTime": 1515868425361}, {"current_trial": 142, "trialdata": {"rt": -1000, "trial_type": "single-audio", "stimulus": "/static/audio/400Hz.wav", "internal_node_id": "0.0-106.0", "time_elapsed": 773690, "key_press": -1, "type": "PRE_RECALL_ALERT", "trial_index": 142}, "uniqueid": "MTK1382:3OVR4I9USQQ93L8C9XGLN410YR5Q41", "dateTime": 1515868425863}, {"current_trial": 143, "trialdata": {"rt": [6585, 8481, 10049, 12945, 16953, 18305, 21281, 25209, 30457, 39425, 46465], "recwords": ["nightgown", "inmate", "flask", "tutu", "flask", "poet", "leg", "window", "motel", "child", "swimmer"], "key_times": [4658, 4889, 5089, 5209, 5361, 5632, 5849, 5937, 6121, 6585, 7121, 7289, 7497, 7633, 7801, 8017, 8481, 8817, 8952, 9113, 9329, 9481, 10049, 10977, 11073, 11169, 12113, 12945, 15834, 15924, 16041, 16329, 16489, 16953, 17553, 17721, 17881, 18073, 18305, 19625, 19705, 20985, 21281, 21809, 21897, 22097, 22209, 23441, 23513, 25209, 26809, 27033, 27169, 27361, 27489, 30457, 38689, 38809, 38961, 39121, 39177, 39425, 43297, 43497, 43586, 43809, 43937, 44033, 44209, 45833, 45977, 46081, 46297, 46465], "trial_type": "free-recall", "conditions": [12, 800, "a", 12000], "internal_node_id": "0.0-107.0-0.0", "key_presses": [78, 73, 71, 72, 84, 71, 79, 87, 78, 13, 73, 78, 77, 65, 84, 69, 13, 70, 76, 65, 83, 75, 13, 84, 85, 84, 85, 13, 70, 76, 65, 83, 75, 13, 80, 79, 69, 84, 13, 76, 69, 71, 13, 87, 73, 78, 68, 79, 87, 13, 77, 79, 84, 69, 76, 13, 67, 72, 73, 76, 68, 13, 83, 87, 73, 77, 77, 71, 69, 8, 8, 69, 82, 13], "trial": 3, "time_elapsed": 833694, "type": "FREE_RECALL", "trial_index": 143}, "uniqueid": "MTK1382:3OVR4I9USQQ93L8C9XGLN410YR5Q41", "dateTime": 1515868485870}, {"current_trial": 144, "trialdata": {"rt": 1587, "trial_type": "text", "internal_node_id": "0.0-108.0", "time_elapsed": 837286, "key_press": 32, "type": "INSTRUCTIONS", "trial_index": 144}, "uniqueid": "MTK1382:3OVR4I9USQQ93L8C9XGLN410YR5Q41", "dateTime": 1515868489459}, {"current_trial": 145, "trialdata": {"rt": [3406, 6213, 8269, 10549], "trial_type": "math-distractor", "key_times": [2245, 2757, 3406, 5109, 5845, 6213, 7885, 8133, 8269, 10077, 10181, 10549], "responses": ["16", "19", "12", "18"], "num2": [4, 8, 6, 3, 2], "num3": [6, 6, 3, 9, 6], "conditions": [12, 1600, "a", 12000], "internal_node_id": "0.0-109.0", "key_presses": [49, 54, 13, 49, 57, 13, 49, 50, 13, 49, 56, 13], "trial": 4, "time_elapsed": 851290, "type": "DISTRACTOR", "trial_index": 145, "num1": [6, 5, 3, 6, 4]}, "uniqueid": "MTK1382:3OVR4I9USQQ93L8C9XGLN410YR5Q41", "dateTime": 1515868503464}, {"current_trial": 146, "trialdata": {"rt": -1, "trial_type": "single-stim", "stimulus": "<p id=\"stim\">10</p>", "internal_node_id": "0.0-110.0-0.0", "time_elapsed": 854293, "key_press": -1, "trial_index": 146}, "uniqueid": "MTK1382:3OVR4I9USQQ93L8C9XGLN410YR5Q41", "dateTime": 1515868506466}, {"current_trial": 147, "trialdata": {"rt": -1, "trial_type": "single-stim", "stimulus": "<p id=\"stim\">9</p>", "internal_node_id": "0.0-110.0-1.0", "time_elapsed": 855295, "key_press": -1, "trial_index": 147}, "uniqueid": "MTK1382:3OVR4I9USQQ93L8C9XGLN410YR5Q41", "dateTime": 1515868507468}, {"current_trial": 148, "trialdata": {"rt": -1, "trial_type": "single-stim", "stimulus": "<p id=\"stim\">8</p>", "internal_node_id": "0.0-110.0-2.0", "time_elapsed": 856296, "key_press": -1, "trial_index": 148}, "uniqueid": "MTK1382:3OVR4I9USQQ93L8C9XGLN410YR5Q41", "dateTime": 1515868508469}, {"current_trial": 149, "trialdata": {"rt": -1, "trial_type": "single-stim", "stimulus": "<p id=\"stim\">7</p>", "internal_node_id": "0.0-110.0-3.0", "time_elapsed": 857298, "key_press": -1, "trial_index": 149}, "uniqueid": "MTK1382:3OVR4I9USQQ93L8C9XGLN410YR5Q41", "dateTime": 1515868509471}, {"current_trial": 150, "trialdata": {"rt": -1, "trial_type": "single-stim", "stimulus": "<p id=\"stim\">6</p>", "internal_node_id": "0.0-110.0-4.0", "time_elapsed": 858300, "key_press": -1, "trial_index": 150}, "uniqueid": "MTK1382:3OVR4I9USQQ93L8C9XGLN410YR5Q41", "dateTime": 1515868510474}, {"current_trial": 151, "trialdata": {"rt": -1, "trial_type": "single-stim", "stimulus": "<p id=\"stim\">5</p>", "internal_node_id": "0.0-110.0-5.0", "time_elapsed": 859302, "key_press": -1, "trial_index": 151}, "uniqueid": "MTK1382:3OVR4I9USQQ93L8C9XGLN410YR5Q41", "dateTime": 1515868511476}, {"current_trial": 152, "trialdata": {"rt": -1, "trial_type": "single-stim", "stimulus": "<p id=\"stim\">4</p>", "internal_node_id": "0.0-110.0-6.0", "time_elapsed": 860304, "key_press": -1, "trial_index": 152}, "uniqueid": "MTK1382:3OVR4I9USQQ93L8C9XGLN410YR5Q41", "dateTime": 1515868512477}, {"current_trial": 153, "trialdata": {"rt": -1, "trial_type": "single-stim", "stimulus": "<p id=\"stim\">3</p>", "internal_node_id": "0.0-110.0-7.0", "time_elapsed": 861306, "key_press": -1, "trial_index": 153}, "uniqueid": "MTK1382:3OVR4I9USQQ93L8C9XGLN410YR5Q41", "dateTime": 1515868513479}, {"current_trial": 154, "trialdata": {"rt": -1, "trial_type": "single-stim", "stimulus": "<p id=\"stim\">2</p>", "internal_node_id": "0.0-110.0-8.0", "time_elapsed": 862308, "key_press": -1, "trial_index": 154}, "uniqueid": "MTK1382:3OVR4I9USQQ93L8C9XGLN410YR5Q41", "dateTime": 1515868514482}, {"current_trial": 155, "trialdata": {"rt": -1, "trial_type": "single-stim", "stimulus": "<p id=\"stim\">1</p>", "internal_node_id": "0.0-110.0-9.0", "time_elapsed": 863310, "key_press": -1, "trial_index": 155}, "uniqueid": "MTK1382:3OVR4I9USQQ93L8C9XGLN410YR5Q41", "dateTime": 1515868515483}, {"current_trial": 156, "trialdata": {"rt": -1, "trial_type": "single-stim", "stimulus": "<p id=\"stim\">+</p>", "internal_node_id": "0.0-111.0-0.0", "time_elapsed": 864811, "key_press": -1, "type": "FIXATION", "trial_index": 156}, "uniqueid": "MTK1382:3OVR4I9USQQ93L8C9XGLN410YR5Q41", "dateTime": 1515868516984}, {"current_trial": 157, "trialdata": {"rt": -1000, "trial_type": "single-audio", "word": "oyster", "stimulus": "/static/audio/wordpool/OYSTER.wav", "conditions": [12, 1600, "a", 12000], "internal_node_id": "0.0-112.0", "trial": 4, "time_elapsed": 867502, "serialpos": 0, "key_press": -1, "wordID": 994, "type": "PRES_AUD", "trial_index": 157}, "uniqueid": "MTK1382:3OVR4I9USQQ93L8C9XGLN410YR5Q41", "dateTime": 1515868519675}, {"current_trial": 158, "trialdata": {"rt": -1000, "trial_type": "single-audio", "word": "cross", "stimulus": "/static/audio/wordpool/CROSS.wav", "conditions": [12, 1600, "a", 12000], "internal_node_id": "0.0-113.0", "trial": 4, "time_elapsed": 870011, "serialpos": 1, "key_press": -1, "wordID": 412, "type": "PRES_AUD", "trial_index": 158}, "uniqueid": "MTK1382:3OVR4I9USQQ93L8C9XGLN410YR5Q41", "dateTime": 1515868522184}, {"current_trial": 159, "trialdata": {"rt": -1000, "trial_type": "single-audio", "word": "necklace", "stimulus": "/static/audio/wordpool/NECKLACE.wav", "conditions": [12, 1600, "a", 12000], "internal_node_id": "0.0-114.0", "trial": 4, "time_elapsed": 872635, "serialpos": 2, "key_press": -1, "wordID": 939, "type": "PRES_AUD", "trial_index": 159}, "uniqueid": "MTK1382:3OVR4I9USQQ93L8C9XGLN410YR5Q41", "dateTime": 1515868524808}, {"current_trial": 160, "trialdata": {"rt": -1000, "trial_type": "single-audio", "word": "bouquet", "stimulus": "/static/audio/wordpool/BOUQUET.wav", "conditions": [12, 1600, "a", 12000], "internal_node_id": "0.0-115.0", "trial": 4, "time_elapsed": 875237, "serialpos": 3, "key_press": -1, "wordID": 156, "type": "PRES_AUD", "trial_index": 160}, "uniqueid": "MTK1382:3OVR4I9USQQ93L8C9XGLN410YR5Q41", "dateTime": 1515868527410}, {"current_trial": 161, "trialdata": {"rt": -1000, "trial_type": "single-audio", "word": "picnic", "stimulus": "/static/audio/wordpool/PICNIC.wav", "conditions": [12, 1600, "a", 12000], "internal_node_id": "0.0-116.0", "trial": 4, "time_elapsed": 877678, "serialpos": 4, "key_press": -1, "wordID": 1059, "type": "PRES_AUD", "trial_index": 161}, "uniqueid": "MTK1382:3OVR4I9USQQ93L8C9XGLN410YR5Q41", "dateTime": 1515868529851}, {"current_trial": 162, "trialdata": {"rt": -1000, "trial_type": "single-audio", "word": "handbag", "stimulus": "/static/audio/wordpool/HANDBAG.wav", "conditions": [12, 1600, "a", 12000], "internal_node_id": "0.0-117.0", "trial": 4, "time_elapsed": 880303, "serialpos": 5, "key_press": -1, "wordID": 683, "type": "PRES_AUD", "trial_index": 162}, "uniqueid": "MTK1382:3OVR4I9USQQ93L8C9XGLN410YR5Q41", "dateTime": 1515868532477}, {"current_trial": 163, "trialdata": {"rt": -1000, "trial_type": "single-audio", "word": "beaker", "stimulus": "/static/audio/wordpool/BEAKER.wav", "conditions": [12, 1600, "a", 12000], "internal_node_id": "0.0-118.0", "trial": 4, "time_elapsed": 882762, "serialpos": 6, "key_press": -1, "wordID": 103, "type": "PRES_AUD", "trial_index": 163}, "uniqueid": "MTK1382:3OVR4I9USQQ93L8C9XGLN410YR5Q41", "dateTime": 1515868534935}, {"current_trial": 164, "trialdata": {"rt": -1000, "trial_type": "single-audio", "word": "stream", "stimulus": "/static/audio/wordpool/STREAM.wav", "conditions": [12, 1600, "a", 12000], "internal_node_id": "0.0-119.0", "trial": 4, "time_elapsed": 885412, "serialpos": 7, "key_press": -1, "wordID": 1391, "type": "PRES_AUD", "trial_index": 164}, "uniqueid": "MTK1382:3OVR4I9USQQ93L8C9XGLN410YR5Q41", "dateTime": 1515868537585}, {"current_trial": 165, "trialdata": {"rt": -1000, "trial_type": "single-audio", "word": "lizard", "stimulus": "/static/audio/wordpool/LIZARD.wav", "conditions": [12, 1600, "a", 12000], "internal_node_id": "0.0-120.0", "trial": 4, "time_elapsed": 887979, "serialpos": 8, "key_press": -1, "wordID": 833, "type": "PRES_AUD", "trial_index": 165}, "uniqueid": "MTK1382:3OVR4I9USQQ93L8C9XGLN410YR5Q41", "dateTime": 1515868540152}, {"current_trial": 166, "trialdata": {"rt": -1000, "trial_type": "single-audio", "word": "panther", "stimulus": "/static/audio/wordpool/PANTHER.wav", "conditions": [12, 1600, "a", 12000], "internal_node_id": "0.0-121.0", "trial": 4, "time_elapsed": 890527, "serialpos": 9, "key_press": -1, "wordID": 1008, "type": "PRES_AUD", "trial_index": 166}, "uniqueid": "MTK1382:3OVR4I9USQQ93L8C9XGLN410YR5Q41", "dateTime": 1515868542700}, {"current_trial": 167, "trialdata": {"rt": -1000, "trial_type": "single-audio", "word": "compass", "stimulus": "/static/audio/wordpool/COMPASS.wav", "conditions": [12, 1600, "a", 12000], "internal_node_id": "0.0-122.0", "trial": 4, "time_elapsed": 893114, "serialpos": 10, "key_press": -1, "wordID": 357, "type": "PRES_AUD", "trial_index": 167}, "uniqueid": "MTK1382:3OVR4I9USQQ93L8C9XGLN410YR5Q41", "dateTime": 1515868545287}, {"current_trial": 168, "trialdata": {"rt": -1000, "trial_type": "single-audio", "word": "tunnel", "stimulus": "/static/audio/wordpool/TUNNEL.wav", "conditions": [12, 1600, "a", 12000], "internal_node_id": "0.0-123.0", "trial": 4, "time_elapsed": 895519, "serialpos": 11, "key_press": -1, "wordID": 1518, "type": "PRES_AUD", "trial_index": 168}, "uniqueid": "MTK1382:3OVR4I9USQQ93L8C9XGLN410YR5Q41", "dateTime": 1515868547692}, {"current_trial": 169, "trialdata": {"rt": -1, "trial_type": "single-stim", "stimulus": "", "internal_node_id": "0.0-124.0-0.0", "time_elapsed": 896821, "key_press": -1, "type": "PRE_RECALL_DELAY", "trial_index": 169}, "uniqueid": "MTK1382:3OVR4I9USQQ93L8C9XGLN410YR5Q41", "dateTime": 1515868548994}, {"current_trial": 170, "trialdata": {"rt": -1000, "trial_type": "single-audio", "stimulus": "/static/audio/400Hz.wav", "internal_node_id": "0.0-125.0", "time_elapsed": 897323, "key_press": -1, "type": "PRE_RECALL_ALERT", "trial_index": 170}, "uniqueid": "MTK1382:3OVR4I9USQQ93L8C9XGLN410YR5Q41", "dateTime": 1515868549496}, {"current_trial": 171, "trialdata": {"rt": [4129, 5833, 8504, 12377, 14568, 16449, 19120, 23465, 27161, 30449, 34753], "recwords": ["tunnel", "oyster", "handbag", "compass", "stream", "lizard", "bouquet", "necklace", "picnic", "hamper", "beaker"], "key_times": [3105, 3161, 3409, 3529, 3657, 3776, 4129, 4585, 4761, 4849, 5065, 5280, 5464, 5833, 7161, 7250, 7465, 7553, 7801, 8041, 8225, 8504, 8993, 9065, 9489, 9673, 10609, 10785, 11233, 11713, 11841, 12065, 12217, 12377, 12609, 12825, 13049, 13281, 13513, 13697, 14568, 14929, 15105, 15233, 15449, 15737, 16049, 16449, 16833, 16945, 17281, 18073, 18385, 18465, 18729, 19120, 21241, 21393, 21689, 21856, 22281, 22401, 22657, 22913, 23465, 24073, 24329, 24417, 24905, 25145, 25217, 27161, 29401, 29481, 29696, 29912, 30016, 30168, 30449, 31377, 31585, 31801, 32009, 32121, 32313, 34753], "trial_type": "free-recall", "conditions": [12, 1600, "a", 12000], "internal_node_id": "0.0-126.0-0.0", "key_presses": [84, 85, 78, 78, 69, 76, 13, 79, 89, 83, 84, 69, 82, 13, 72, 65, 78, 68, 66, 65, 71, 13, 67, 79, 80, 65, 8, 8, 77, 80, 65, 83, 83, 13, 83, 84, 82, 69, 65, 77, 13, 76, 73, 90, 65, 82, 68, 13, 66, 79, 85, 81, 85, 69, 84, 13, 78, 69, 67, 75, 76, 65, 67, 69, 13, 80, 73, 67, 78, 73, 67, 13, 72, 65, 77, 80, 69, 82, 13, 66, 69, 65, 75, 69, 82, 13], "trial": 4, "time_elapsed": 957325, "type": "FREE_RECALL", "trial_index": 171}, "uniqueid": "MTK1382:3OVR4I9USQQ93L8C9XGLN410YR5Q41", "dateTime": 1515868609502}, {"current_trial": 172, "trialdata": {"rt": 1476, "trial_type": "text", "internal_node_id": "0.0-127.0", "time_elapsed": 960805, "key_press": 32, "type": "INSTRUCTIONS", "trial_index": 172}, "uniqueid": "MTK1382:3OVR4I9USQQ93L8C9XGLN410YR5Q41", "dateTime": 1515868612978}, {"current_trial": 173, "trialdata": {"rt": [2076, 3724, 5612, 8228, 10549, 13405, 17429, 22180], "trial_type": "math-distractor", "key_times": [1733, 1909, 2076, 3364, 3429, 3724, 5277, 5469, 5612, 8133, 8228, 10093, 10252, 10549, 12765, 13100, 13405, 16893, 17205, 17429, 21421, 21852, 22180, 23973], "responses": ["11", "18", "12", "9", "19", "20", "24", "25"], "num2": [7, 6, 7, 2, 7, 6, 9, 9, 6], "num3": [2, 8, 4, 2, 8, 7, 7, 7, 7], "conditions": [12, 800, "a", 24000], "internal_node_id": "0.0-128.0", "key_presses": [49, 49, 13, 49, 56, 13, 49, 50, 13, 57, 13, 49, 57, 13, 50, 48, 13, 50, 52, 13, 50, 53, 13, 49], "trial": 5, "time_elapsed": 986810, "type": "DISTRACTOR", "trial_index": 173, "num1": [2, 4, 1, 5, 4, 7, 8, 7, 2]}, "uniqueid": "MTK1382:3OVR4I9USQQ93L8C9XGLN410YR5Q41", "dateTime": 1515868638983}, {"current_trial": 174, "trialdata": {"rt": -1, "trial_type": "single-stim", "stimulus": "<p id=\"stim\">10</p>", "internal_node_id": "0.0-129.0-0.0", "time_elapsed": 989812, "key_press": -1, "trial_index": 174}, "uniqueid": "MTK1382:3OVR4I9USQQ93L8C9XGLN410YR5Q41", "dateTime": 1515868641986}, {"current_trial": 175, "trialdata": {"rt": -1, "trial_type": "single-stim", "stimulus": "<p id=\"stim\">9</p>", "internal_node_id": "0.0-129.0-1.0", "time_elapsed": 990814, "key_press": -1, "trial_index": 175}, "uniqueid": "MTK1382:3OVR4I9USQQ93L8C9XGLN410YR5Q41", "dateTime": 1515868642987}, {"current_trial": 176, "trialdata": {"rt": -1, "trial_type": "single-stim", "stimulus": "<p id=\"stim\">8</p>", "internal_node_id": "0.0-129.0-2.0", "time_elapsed": 991816, "key_press": -1, "trial_index": 176}, "uniqueid": "MTK1382:3OVR4I9USQQ93L8C9XGLN410YR5Q41", "dateTime": 1515868643989}, {"current_trial": 177, "trialdata": {"rt": -1, "trial_type": "single-stim", "stimulus": "<p id=\"stim\">7</p>", "internal_node_id": "0.0-129.0-3.0", "time_elapsed": 992819, "key_press": -1, "trial_index": 177}, "uniqueid": "MTK1382:3OVR4I9USQQ93L8C9XGLN410YR5Q41", "dateTime": 1515868644993}, {"current_trial": 178, "trialdata": {"rt": -1, "trial_type": "single-stim", "stimulus": "<p id=\"stim\">6</p>", "internal_node_id": "0.0-129.0-4.0", "time_elapsed": 993821, "key_press": -1, "trial_index": 178}, "uniqueid": "MTK1382:3OVR4I9USQQ93L8C9XGLN410YR5Q41", "dateTime": 1515868645994}, {"current_trial": 179, "trialdata": {"rt": -1, "trial_type": "single-stim", "stimulus": "<p id=\"stim\">5</p>", "internal_node_id": "0.0-129.0-5.0", "time_elapsed": 994822, "key_press": -1, "trial_index": 179}, "uniqueid": "MTK1382:3OVR4I9USQQ93L8C9XGLN410YR5Q41", "dateTime": 1515868646996}, {"current_trial": 180, "trialdata": {"rt": -1, "trial_type": "single-stim", "stimulus": "<p id=\"stim\">4</p>", "internal_node_id": "0.0-129.0-6.0", "time_elapsed": 995824, "key_press": -1, "trial_index": 180}, "uniqueid": "MTK1382:3OVR4I9USQQ93L8C9XGLN410YR5Q41", "dateTime": 1515868647997}, {"current_trial": 181, "trialdata": {"rt": -1, "trial_type": "single-stim", "stimulus": "<p id=\"stim\">3</p>", "internal_node_id": "0.0-129.0-7.0", "time_elapsed": 996826, "key_press": -1, "trial_index": 181}, "uniqueid": "MTK1382:3OVR4I9USQQ93L8C9XGLN410YR5Q41", "dateTime": 1515868648999}, {"current_trial": 182, "trialdata": {"rt": -1, "trial_type": "single-stim", "stimulus": "<p id=\"stim\">2</p>", "internal_node_id": "0.0-129.0-8.0", "time_elapsed": 997828, "key_press": -1, "trial_index": 182}, "uniqueid": "MTK1382:3OVR4I9USQQ93L8C9XGLN410YR5Q41", "dateTime": 1515868650001}, {"current_trial": 183, "trialdata": {"rt": -1, "trial_type": "single-stim", "stimulus": "<p id=\"stim\">1</p>", "internal_node_id": "0.0-129.0-9.0", "time_elapsed": 998829, "key_press": -1, "trial_index": 183}, "uniqueid": "MTK1382:3OVR4I9USQQ93L8C9XGLN410YR5Q41", "dateTime": 1515868651002}, {"current_trial": 184, "trialdata": {"rt": -1, "trial_type": "single-stim", "stimulus": "<p id=\"stim\">+</p>", "internal_node_id": "0.0-130.0-0.0", "time_elapsed": 1000331, "key_press": -1, "type": "FIXATION", "trial_index": 184}, "uniqueid": "MTK1382:3OVR4I9USQQ93L8C9XGLN410YR5Q41", "dateTime": 1515868652504}, {"current_trial": 185, "trialdata": {"rt": -1000, "trial_type": "single-audio", "word": "saddle", "stimulus": "/static/audio/wordpool/SADDLE.wav", "conditions": [12, 800, "a", 24000], "internal_node_id": "0.0-131.0", "trial": 5, "time_elapsed": 1002274, "serialpos": 0, "key_press": -1, "wordID": 1220, "type": "PRES_AUD", "trial_index": 185}, "uniqueid": "MTK1382:3OVR4I9USQQ93L8C9XGLN410YR5Q41", "dateTime": 1515868654448}, {"current_trial": 186, "trialdata": {"rt": -1000, "trial_type": "single-audio", "word": "glove", "stimulus": "/static/audio/wordpool/GLOVE.wav", "conditions": [12, 800, "a", 24000], "internal_node_id": "0.0-132.0", "trial": 5, "time_elapsed": 1004025, "serialpos": 1, "key_press": -1, "wordID": 641, "type": "PRES_AUD", "trial_index": 186}, "uniqueid": "MTK1382:3OVR4I9USQQ93L8C9XGLN410YR5Q41", "dateTime": 1515868656198}, {"current_trial": 187, "trialdata": {"rt": -1000, "trial_type": "single-audio", "word": "globe", "stimulus": "/static/audio/wordpool/GLOBE.wav", "conditions": [12, 800, "a", 24000], "internal_node_id": "0.0-133.0", "trial": 5, "time_elapsed": 1005730, "serialpos": 2, "key_press": -1, "wordID": 640, "type": "PRES_AUD", "trial_index": 187}, "uniqueid": "MTK1382:3OVR4I9USQQ93L8C9XGLN410YR5Q41", "dateTime": 1515868657903}, {"current_trial": 188, "trialdata": {"rt": -1000, "trial_type": "single-audio", "word": "world", "stimulus": "/static/audio/wordpool/WORLD.wav", "conditions": [12, 800, "a", 24000], "internal_node_id": "0.0-134.0", "trial": 5, "time_elapsed": 1007459, "serialpos": 3, "key_press": -1, "wordID": 1621, "type": "PRES_AUD", "trial_index": 188}, "uniqueid": "MTK1382:3OVR4I9USQQ93L8C9XGLN410YR5Q41", "dateTime": 1515868659632}, {"current_trial": 189, "trialdata": {"rt": -1000, "trial_type": "single-audio", "word": "wardrobe", "stimulus": "/static/audio/wordpool/WARDROBE.wav", "conditions": [12, 800, "a", 24000], "internal_node_id": "0.0-135.0", "trial": 5, "time_elapsed": 1009149, "serialpos": 4, "key_press": -1, "wordID": 1586, "type": "PRES_AUD", "trial_index": 189}, "uniqueid": "MTK1382:3OVR4I9USQQ93L8C9XGLN410YR5Q41", "dateTime": 1515868661322}, {"current_trial": 190, "trialdata": {"rt": -1000, "trial_type": "single-audio", "word": "picture", "stimulus": "/static/audio/wordpool/PICTURE.wav", "conditions": [12, 800, "a", 24000], "internal_node_id": "0.0-136.0", "trial": 5, "time_elapsed": 1010970, "serialpos": 5, "key_press": -1, "wordID": 1060, "type": "PRES_AUD", "trial_index": 190}, "uniqueid": "MTK1382:3OVR4I9USQQ93L8C9XGLN410YR5Q41", "dateTime": 1515868663143}, {"current_trial": 191, "trialdata": {"rt": -1000, "trial_type": "single-audio", "word": "kleenex", "stimulus": "/static/audio/wordpool/KLEENEX.wav", "conditions": [12, 800, "a", 24000], "internal_node_id": "0.0-137.0", "trial": 5, "time_elapsed": 1012726, "serialpos": 6, "key_press": -1, "wordID": 781, "type": "PRES_AUD", "trial_index": 191}, "uniqueid": "MTK1382:3OVR4I9USQQ93L8C9XGLN410YR5Q41", "dateTime": 1515868664899}, {"current_trial": 192, "trialdata": {"rt": -1000, "trial_type": "single-audio", "word": "widow", "stimulus": "/static/audio/wordpool/WIDOW.wav", "conditions": [12, 800, "a", 24000], "internal_node_id": "0.0-138.0", "trial": 5, "time_elapsed": 1014599, "serialpos": 7, "key_press": -1, "wordID": 1607, "type": "PRES_AUD", "trial_index": 192}, "uniqueid": "MTK1382:3OVR4I9USQQ93L8C9XGLN410YR5Q41", "dateTime": 1515868666772}, {"current_trial": 193, "trialdata": {"rt": -1000, "trial_type": "single-audio", "word": "body", "stimulus": "/static/audio/wordpool/BODY.wav", "conditions": [12, 800, "a", 24000], "internal_node_id": "0.0-139.0", "trial": 5, "time_elapsed": 1016438, "serialpos": 8, "key_press": -1, "wordID": 144, "type": "PRES_AUD", "trial_index": 193}, "uniqueid": "MTK1382:3OVR4I9USQQ93L8C9XGLN410YR5Q41", "dateTime": 1515868668611}, {"current_trial": 194, "trialdata": {"rt": -1000, "trial_type": "single-audio", "word": "dolphin", "stimulus": "/static/audio/wordpool/DOLPHIN.wav", "conditions": [12, 800, "a", 24000], "internal_node_id": "0.0-140.0", "trial": 5, "time_elapsed": 1018183, "serialpos": 9, "key_press": -1, "wordID": 482, "type": "PRES_AUD", "trial_index": 194}, "uniqueid": "MTK1382:3OVR4I9USQQ93L8C9XGLN410YR5Q41", "dateTime": 1515868670356}, {"current_trial": 195, "trialdata": {"rt": -1000, "trial_type": "single-audio", "word": "antler", "stimulus": "/static/audio/wordpool/ANTLER.wav", "conditions": [12, 800, "a", 24000], "internal_node_id": "0.0-141.0", "trial": 5, "time_elapsed": 1019858, "serialpos": 10, "key_press": -1, "wordID": 28, "type": "PRES_AUD", "trial_index": 195}, "uniqueid": "MTK1382:3OVR4I9USQQ93L8C9XGLN410YR5Q41", "dateTime": 1515868672031}, {"current_trial": 196, "trialdata": {"rt": -1000, "trial_type": "single-audio", "word": "husband", "stimulus": "/static/audio/wordpool/HUSBAND.wav", "conditions": [12, 800, "a", 24000], "internal_node_id": "0.0-142.0", "trial": 5, "time_elapsed": 1021833, "serialpos": 11, "key_press": -1, "wordID": 727, "type": "PRES_AUD", "trial_index": 196}, "uniqueid": "MTK1382:3OVR4I9USQQ93L8C9XGLN410YR5Q41", "dateTime": 1515868674006}, {"current_trial": 197, "trialdata": {"rt": -1, "trial_type": "single-stim", "stimulus": "", "internal_node_id": "0.0-143.0-0.0", "time_elapsed": 1023089, "key_press": -1, "type": "PRE_RECALL_DELAY", "trial_index": 197}, "uniqueid": "MTK1382:3OVR4I9USQQ93L8C9XGLN410YR5Q41", "dateTime": 1515868675262}, {"current_trial": 198, "trialdata": {"rt": -1000, "trial_type": "single-audio", "stimulus": "/static/audio/400Hz.wav", "internal_node_id": "0.0-144.0", "time_elapsed": 1023592, "key_press": -1, "type": "PRE_RECALL_ALERT", "trial_index": 198}, "uniqueid": "MTK1382:3OVR4I9USQQ93L8C9XGLN410YR5Q41", "dateTime": 1515868675765}, {"current_trial": 199, "trialdata": {"rt": [5756, 7235, 8531, 9804, 11075, 17251, 21644, 25340, 34692, 40172], "recwords": ["husband", "widow", "antler", "globe", "world", "saddle", "picture", "body", "kleenex", "widow"], "key_times": [4195, 4355, 4411, 4900, 5083, 5195, 5484, 5756, 6099, 6203, 6387, 6483, 6771, 7235, 7507, 7635, 7804, 7939, 8059, 8203, 8531, 8931, 9076, 9251, 9355, 9555, 9804, 10107, 10205, 10316, 10460, 10587, 11075, 13187, 13380, 13451, 14971, 15467, 15603, 15724, 15827, 17251, 17996, 18251, 18539, 19716, 19829, 19987, 20204, 21644, 24171, 24299, 24411, 24563, 25340, 28603, 28691, 28923, 29467, 29636, 29763, 29955, 30211, 34692, 39180, 39307, 39459, 39587, 39683, 40172], "trial_type": "free-recall", "conditions": [12, 800, "a", 24000], "internal_node_id": "0.0-145.0-0.0", "key_presses": [72, 85, 83, 66, 65, 78, 68, 13, 87, 73, 68, 79, 87, 13, 65, 78, 84, 76, 69, 82, 13, 71, 76, 79, 66, 69, 13, 87, 79, 82, 76, 68, 13, 83, 65, 76, 8, 68, 68, 76, 69, 13, 80, 73, 67, 84, 85, 82, 69, 13, 66, 79, 68, 89, 13, 16, 75, 76, 69, 69, 78, 69, 88, 13, 87, 73, 68, 79, 87, 13], "trial": 5, "time_elapsed": 1083596, "type": "FREE_RECALL", "trial_index": 199}, "uniqueid": "MTK1382:3OVR4I9USQQ93L8C9XGLN410YR5Q41", "dateTime": 1515868735772}, {"current_trial": 200, "trialdata": {"rt": 3420, "trial_type": "text", "internal_node_id": "0.0-146.0", "time_elapsed": 1089021, "key_press": 32, "type": "INSTRUCTIONS", "trial_index": 200}, "uniqueid": "MTK1382:3OVR4I9USQQ93L8C9XGLN410YR5Q41", "dateTime": 1515868741194}, {"current_trial": 201, "trialdata": {"rt": [1965, 4573, 9221, 10926, 14573, 17181, 19037, 20700, 22725], "trial_type": "math-distractor", "key_times": [1365, 1805, 1965, 3317, 4309, 4573, 8861, 9029, 9221, 10613, 10797, 10926, 12773, 13245, 14573, 16469, 16542, 17181, 18901, 19037, 20316, 20525, 20700, 22340, 22725], "responses": ["14", "16", "23", "13", "18", "17", "7", "13", "7"], "num2": [3, 9, 8, 6, 4, 2, 3, 4, 5, 3], "num3": [7, 1, 8, 4, 5, 8, 1, 3, 1, 5], "conditions": [12, 1600, "a", 24000], "internal_node_id": "0.0-147.0", "key_presses": [49, 52, 13, 49, 54, 13, 50, 51, 13, 49, 51, 13, 49, 56, 13, 49, 55, 13, 55, 13, 49, 51, 13, 55, 13], "trial": 6, "time_elapsed": 1115024, "type": "DISTRACTOR", "trial_index": 201, "num1": [4, 6, 7, 3, 9, 7, 3, 6, 1, 3]}, "uniqueid": "MTK1382:3OVR4I9USQQ93L8C9XGLN410YR5Q41", "dateTime": 1515868767197}, {"current_trial": 202, "trialdata": {"rt": -1, "trial_type": "single-stim", "stimulus": "<p id=\"stim\">10</p>", "internal_node_id": "0.0-148.0-0.0", "time_elapsed": 1118027, "key_press": -1, "trial_index": 202}, "uniqueid": "MTK1382:3OVR4I9USQQ93L8C9XGLN410YR5Q41", "dateTime": 1515868770200}, {"current_trial": 203, "trialdata": {"rt": -1, "trial_type": "single-stim", "stimulus": "<p id=\"stim\">9</p>", "internal_node_id": "0.0-148.0-1.0", "time_elapsed": 1119030, "key_press": -1, "trial_index": 203}, "uniqueid": "MTK1382:3OVR4I9USQQ93L8C9XGLN410YR5Q41", "dateTime": 1515868771204}, {"current_trial": 204, "trialdata": {"rt": -1, "trial_type": "single-stim", "stimulus": "<p id=\"stim\">8</p>", "internal_node_id": "0.0-148.0-2.0", "time_elapsed": 1120032, "key_press": -1, "trial_index": 204}, "uniqueid": "MTK1382:3OVR4I9USQQ93L8C9XGLN410YR5Q41", "dateTime": 1515868772205}, {"current_trial": 205, "trialdata": {"rt": -1, "trial_type": "single-stim", "stimulus": "<p id=\"stim\">7</p>", "internal_node_id": "0.0-148.0-3.0", "time_elapsed": 1121033, "key_press": -1, "trial_index": 205}, "uniqueid": "MTK1382:3OVR4I9USQQ93L8C9XGLN410YR5Q41", "dateTime": 1515868773206}, {"current_trial": 206, "trialdata": {"rt": -1, "trial_type": "single-stim", "stimulus": "<p id=\"stim\">6</p>", "internal_node_id": "0.0-148.0-4.0", "time_elapsed": 1122035, "key_press": -1, "trial_index": 206}, "uniqueid": "MTK1382:3OVR4I9USQQ93L8C9XGLN410YR5Q41", "dateTime": 1515868774208}, {"current_trial": 207, "trialdata": {"rt": -1, "trial_type": "single-stim", "stimulus": "<p id=\"stim\">5</p>", "internal_node_id": "0.0-148.0-5.0", "time_elapsed": 1123038, "key_press": -1, "trial_index": 207}, "uniqueid": "MTK1382:3OVR4I9USQQ93L8C9XGLN410YR5Q41", "dateTime": 1515868775211}, {"current_trial": 208, "trialdata": {"rt": -1, "trial_type": "single-stim", "stimulus": "<p id=\"stim\">4</p>", "internal_node_id": "0.0-148.0-6.0", "time_elapsed": 1124040, "key_press": -1, "trial_index": 208}, "uniqueid": "MTK1382:3OVR4I9USQQ93L8C9XGLN410YR5Q41", "dateTime": 1515868776213}, {"current_trial": 209, "trialdata": {"rt": -1, "trial_type": "single-stim", "stimulus": "<p id=\"stim\">3</p>", "internal_node_id": "0.0-148.0-7.0", "time_elapsed": 1125041, "key_press": -1, "trial_index": 209}, "uniqueid": "MTK1382:3OVR4I9USQQ93L8C9XGLN410YR5Q41", "dateTime": 1515868777214}, {"current_trial": 210, "trialdata": {"rt": -1, "trial_type": "single-stim", "stimulus": "<p id=\"stim\">2</p>", "internal_node_id": "0.0-148.0-8.0", "time_elapsed": 1126042, "key_press": -1, "trial_index": 210}, "uniqueid": "MTK1382:3OVR4I9USQQ93L8C9XGLN410YR5Q41", "dateTime": 1515868778215}, {"current_trial": 211, "trialdata": {"rt": -1, "trial_type": "single-stim", "stimulus": "<p id=\"stim\">1</p>", "internal_node_id": "0.0-148.0-9.0", "time_elapsed": 1127044, "key_press": -1, "trial_index": 211}, "uniqueid": "MTK1382:3OVR4I9USQQ93L8C9XGLN410YR5Q41", "dateTime": 1515868779217}, {"current_trial": 212, "trialdata": {"rt": -1, "trial_type": "single-stim", "stimulus": "<p id=\"stim\">+</p>", "internal_node_id": "0.0-149.0-0.0", "time_elapsed": 1128546, "key_press": -1, "type": "FIXATION", "trial_index": 212}, "uniqueid": "MTK1382:3OVR4I9USQQ93L8C9XGLN410YR5Q41", "dateTime": 1515868780719}, {"current_trial": 213, "trialdata": {"rt": -1000, "trial_type": "single-audio", "word": "jelly", "stimulus": "/static/audio/wordpool/JELLY.wav", "conditions": [12, 1600, "a", 24000], "internal_node_id": "0.0-150.0", "trial": 6, "time_elapsed": 1131072, "serialpos": 0, "key_press": -1, "wordID": 754, "type": "PRES_AUD", "trial_index": 213}, "uniqueid": "MTK1382:3OVR4I9USQQ93L8C9XGLN410YR5Q41", "dateTime": 1515868783245}, {"current_trial": 214, "trialdata": {"rt": -1000, "trial_type": "single-audio", "word": "cook", "stimulus": "/static/audio/wordpool/COOK.wav", "conditions": [12, 1600, "a", 24000], "internal_node_id": "0.0-151.0", "trial": 6, "time_elapsed": 1133805, "serialpos": 1, "key_press": -1, "wordID": 371, "type": "PRES_AUD", "trial_index": 214}, "uniqueid": "MTK1382:3OVR4I9USQQ93L8C9XGLN410YR5Q41", "dateTime": 1515868785978}, {"current_trial": 215, "trialdata": {"rt": -1000, "trial_type": "single-audio", "word": "garden", "stimulus": "/static/audio/wordpool/GARDEN.wav", "conditions": [12, 1600, "a", 24000], "internal_node_id": "0.0-152.0", "trial": 6, "time_elapsed": 1136524, "serialpos": 2, "key_press": -1, "wordID": 622, "type": "PRES_AUD", "trial_index": 215}, "uniqueid": "MTK1382:3OVR4I9USQQ93L8C9XGLN410YR5Q41", "dateTime": 1515868788697}, {"current_trial": 216, "trialdata": {"rt": -1000, "trial_type": "single-audio", "word": "bathtub", "stimulus": "/static/audio/wordpool/BATHTUB.wav", "conditions": [12, 1600, "a", 24000], "internal_node_id": "0.0-153.0", "trial": 6, "time_elapsed": 1139207, "serialpos": 3, "key_press": -1, "wordID": 99, "type": "PRES_AUD", "trial_index": 216}, "uniqueid": "MTK1382:3OVR4I9USQQ93L8C9XGLN410YR5Q41", "dateTime": 1515868791381}, {"current_trial": 217, "trialdata": {"rt": -1000, "trial_type": "single-audio", "word": "student", "stimulus": "/static/audio/wordpool/STUDENT.wav", "conditions": [12, 1600, "a", 24000], "internal_node_id": "0.0-154.0", "trial": 6, "time_elapsed": 1141902, "serialpos": 4, "key_press": -1, "wordID": 1394, "type": "PRES_AUD", "trial_index": 217}, "uniqueid": "MTK1382:3OVR4I9USQQ93L8C9XGLN410YR5Q41", "dateTime": 1515868794075}, {"current_trial": 218, "trialdata": {"rt": -1000, "trial_type": "single-audio", "word": "cowboy", "stimulus": "/static/audio/wordpool/COWBOY.wav", "conditions": [12, 1600, "a", 24000], "internal_node_id": "0.0-155.0", "trial": 6, "time_elapsed": 1144383, "serialpos": 5, "key_press": -1, "wordID": 394, "type": "PRES_AUD", "trial_index": 218}, "uniqueid": "MTK1382:3OVR4I9USQQ93L8C9XGLN410YR5Q41", "dateTime": 1515868796556}, {"current_trial": 219, "trialdata": {"rt": -1000, "trial_type": "single-audio", "word": "woman", "stimulus": "/static/audio/wordpool/WOMAN.wav", "conditions": [12, 1600, "a", 24000], "internal_node_id": "0.0-156.0", "trial": 6, "time_elapsed": 1147013, "serialpos": 6, "key_press": -1, "wordID": 1619, "type": "PRES_AUD", "trial_index": 219}, "uniqueid": "MTK1382:3OVR4I9USQQ93L8C9XGLN410YR5Q41", "dateTime": 1515868799186}, {"current_trial": 220, "trialdata": {"rt": -1000, "trial_type": "single-audio", "word": "climber", "stimulus": "/static/audio/wordpool/CLIMBER.wav", "conditions": [12, 1600, "a", 24000], "internal_node_id": "0.0-157.0", "trial": 6, "time_elapsed": 1149769, "serialpos": 7, "key_press": -1, "wordID": 322, "type": "PRES_AUD", "trial_index": 220}, "uniqueid": "MTK1382:3OVR4I9USQQ93L8C9XGLN410YR5Q41", "dateTime": 1515868801942}, {"current_trial": 221, "trialdata": {"rt": -1000, "trial_type": "single-audio", "word": "lightning", "stimulus": "/static/audio/wordpool/LIGHTNING.wav", "conditions": [12, 1600, "a", 24000], "internal_node_id": "0.0-158.0", "trial": 6, "time_elapsed": 1152247, "serialpos": 8, "key_press": -1, "wordID": 819, "type": "PRES_AUD", "trial_index": 221}, "uniqueid": "MTK1382:3OVR4I9USQQ93L8C9XGLN410YR5Q41", "dateTime": 1515868804421}, {"current_trial": 222, "trialdata": {"rt": -1000, "trial_type": "single-audio", "word": "custard", "stimulus": "/static/audio/wordpool/CUSTARD.wav", "conditions": [12, 1600, "a", 24000], "internal_node_id": "0.0-159.0", "trial": 6, "time_elapsed": 1154818, "serialpos": 9, "key_press": -1, "wordID": 428, "type": "PRES_AUD", "trial_index": 222}, "uniqueid": "MTK1382:3OVR4I9USQQ93L8C9XGLN410YR5Q41", "dateTime": 1515868806991}, {"current_trial": 223, "trialdata": {"rt": -1000, "trial_type": "single-audio", "word": "piston", "stimulus": "/static/audio/wordpool/PISTON.wav", "conditions": [12, 1600, "a", 24000], "internal_node_id": "0.0-160.0", "trial": 6, "time_elapsed": 1157599, "serialpos": 10, "key_press": -1, "wordID": 1075, "type": "PRES_AUD", "trial_index": 223}, "uniqueid": "MTK1382:3OVR4I9USQQ93L8C9XGLN410YR5Q41", "dateTime": 1515868809772}, {"current_trial": 224, "trialdata": {"rt": -1000, "trial_type": "single-audio", "word": "valve", "stimulus": "/static/audio/wordpool/VALVE.wav", "conditions": [12, 1600, "a", 24000], "internal_node_id": "0.0-161.0", "trial": 6, "time_elapsed": 1160325, "serialpos": 11, "key_press": -1, "wordID": 1545, "type": "PRES_AUD", "trial_index": 224}, "uniqueid": "MTK1382:3OVR4I9USQQ93L8C9XGLN410YR5Q41", "dateTime": 1515868812498}, {"current_trial": 225, "trialdata": {"rt": -1, "trial_type": "single-stim", "stimulus": "", "internal_node_id": "0.0-162.0-0.0", "time_elapsed": 1161570, "key_press": -1, "type": "PRE_RECALL_DELAY", "trial_index": 225}, "uniqueid": "MTK1382:3OVR4I9USQQ93L8C9XGLN410YR5Q41", "dateTime": 1515868813743}, {"current_trial": 226, "trialdata": {"rt": -1000, "trial_type": "single-audio", "stimulus": "/static/audio/400Hz.wav", "internal_node_id": "0.0-163.0", "time_elapsed": 1162072, "key_press": -1, "type": "PRE_RECALL_ALERT", "trial_index": 226}, "uniqueid": "MTK1382:3OVR4I9USQQ93L8C9XGLN410YR5Q41", "dateTime": 1515868814245}, {"current_trial": 227, "trialdata": {"rt": [2754, 4067, 9379, 12187, 13699, 17563, 20315, 24371, 32707, 35139], "recwords": ["piston", "valve", "woman", "cowboy", "climber", "jully", "bathtub", "student", "custard", "lightning"], "key_times": [1179, 1347, 1507, 1715, 1787, 1987, 2754, 3163, 3355, 3379, 3611, 3795, 4067, 4379, 4459, 4635, 4835, 7202, 7347, 7507, 7660, 8154, 8395, 8651, 8755, 8867, 9379, 9882, 9987, 10228, 10595, 10795, 11003, 12187, 12507, 12635, 12803, 12987, 13083, 13267, 13427, 13699, 15603, 15819, 16362, 16515, 16819, 17563, 18787, 18955, 19131, 19299, 19611, 19747, 19939, 20315, 20635, 20867, 20971, 21131, 21314, 21475, 21563, 24371, 31163, 31355, 31403, 31635, 31939, 32195, 32467, 32707, 33587, 33875, 34123, 34227, 34371, 34475, 34635, 34851, 34947, 35139], "trial_type": "free-recall", "conditions": [12, 1600, "a", 24000], "internal_node_id": "0.0-164.0-0.0", "key_presses": [80, 73, 83, 84, 79, 78, 13, 86, 65, 76, 86, 69, 13, 76, 65, 68, 89, 8, 8, 8, 8, 87, 79, 77, 65, 78, 13, 67, 79, 87, 66, 79, 89, 13, 67, 76, 73, 77, 66, 69, 82, 13, 74, 85, 76, 76, 89, 13, 66, 65, 84, 72, 84, 85, 66, 13, 83, 84, 85, 68, 69, 78, 84, 13, 67, 85, 83, 84, 65, 82, 68, 13, 76, 73, 71, 72, 84, 78, 73, 78, 71, 13], "trial": 6, "time_elapsed": 1222074, "type": "FREE_RECALL", "trial_index": 227}, "uniqueid": "MTK1382:3OVR4I9USQQ93L8C9XGLN410YR5Q41", "dateTime": 1515868874252}, {"current_trial": 228, "trialdata": {"rt": 1595, "trial_type": "text", "internal_node_id": "0.0-165.0", "time_elapsed": 1225677, "key_press": 32, "type": "INSTRUCTIONS", "trial_index": 228}, "uniqueid": "MTK1382:3OVR4I9USQQ93L8C9XGLN410YR5Q41", "dateTime": 1515868877850}, {"current_trial": 229, "trialdata": {"rt": [3062, 5158, 7542, 9486, 11478], "trial_type": "math-distractor", "key_times": [2382, 2766, 3062, 4654, 4870, 5158, 6630, 7254, 7542, 8718, 9270, 9486, 10982, 11309, 11478], "responses": ["23", "22", "18", "15", "13"], "num2": [5, 9, 8, 6, 7, 2], "num3": [9, 4, 2, 1, 2, 2], "conditions": [24, 1600, "a", 12000], "internal_node_id": "0.0-166.0", "key_presses": [50, 51, 13, 50, 50, 13, 49, 56, 13, 49, 53, 13, 49, 51, 13], "trial": 7, "time_elapsed": 1239680, "type": "DISTRACTOR", "trial_index": 229, "num1": [9, 9, 8, 8, 4, 2]}, "uniqueid": "MTK1382:3OVR4I9USQQ93L8C9XGLN410YR5Q41", "dateTime": 1515868891853}, {"current_trial": 230, "trialdata": {"rt": -1, "trial_type": "single-stim", "stimulus": "<p id=\"stim\">10</p>", "internal_node_id": "0.0-167.0-0.0", "time_elapsed": 1242682, "key_press": -1, "trial_index": 230}, "uniqueid": "MTK1382:3OVR4I9USQQ93L8C9XGLN410YR5Q41", "dateTime": 1515868894855}, {"current_trial": 231, "trialdata": {"rt": -1, "trial_type": "single-stim", "stimulus": "<p id=\"stim\">9</p>", "internal_node_id": "0.0-167.0-1.0", "time_elapsed": 1243685, "key_press": -1, "trial_index": 231}, "uniqueid": "MTK1382:3OVR4I9USQQ93L8C9XGLN410YR5Q41", "dateTime": 1515868895858}, {"current_trial": 232, "trialdata": {"rt": -1, "trial_type": "single-stim", "stimulus": "<p id=\"stim\">8</p>", "internal_node_id": "0.0-167.0-2.0", "time_elapsed": 1244687, "key_press": -1, "trial_index": 232}, "uniqueid": "MTK1382:3OVR4I9USQQ93L8C9XGLN410YR5Q41", "dateTime": 1515868896860}, {"current_trial": 233, "trialdata": {"rt": -1, "trial_type": "single-stim", "stimulus": "<p id=\"stim\">7</p>", "internal_node_id": "0.0-167.0-3.0", "time_elapsed": 1245690, "key_press": -1, "trial_index": 233}, "uniqueid": "MTK1382:3OVR4I9USQQ93L8C9XGLN410YR5Q41", "dateTime": 1515868897863}, {"current_trial": 234, "trialdata": {"rt": -1, "trial_type": "single-stim", "stimulus": "<p id=\"stim\">6</p>", "internal_node_id": "0.0-167.0-4.0", "time_elapsed": 1246692, "key_press": -1, "trial_index": 234}, "uniqueid": "MTK1382:3OVR4I9USQQ93L8C9XGLN410YR5Q41", "dateTime": 1515868898865}, {"current_trial": 235, "trialdata": {"rt": -1, "trial_type": "single-stim", "stimulus": "<p id=\"stim\">5</p>", "internal_node_id": "0.0-167.0-5.0", "time_elapsed": 1247694, "key_press": -1, "trial_index": 235}, "uniqueid": "MTK1382:3OVR4I9USQQ93L8C9XGLN410YR5Q41", "dateTime": 1515868899867}, {"current_trial": 236, "trialdata": {"rt": -1, "trial_type": "single-stim", "stimulus": "<p id=\"stim\">4</p>", "internal_node_id": "0.0-167.0-6.0", "time_elapsed": 1248697, "key_press": -1, "trial_index": 236}, "uniqueid": "MTK1382:3OVR4I9USQQ93L8C9XGLN410YR5Q41", "dateTime": 1515868900870}, {"current_trial": 237, "trialdata": {"rt": -1, "trial_type": "single-stim", "stimulus": "<p id=\"stim\">3</p>", "internal_node_id": "0.0-167.0-7.0", "time_elapsed": 1249699, "key_press": -1, "trial_index": 237}, "uniqueid": "MTK1382:3OVR4I9USQQ93L8C9XGLN410YR5Q41", "dateTime": 1515868901872}, {"current_trial": 238, "trialdata": {"rt": -1, "trial_type": "single-stim", "stimulus": "<p id=\"stim\">2</p>", "internal_node_id": "0.0-167.0-8.0", "time_elapsed": 1250701, "key_press": -1, "trial_index": 238}, "uniqueid": "MTK1382:3OVR4I9USQQ93L8C9XGLN410YR5Q41", "dateTime": 1515868902874}, {"current_trial": 239, "trialdata": {"rt": -1, "trial_type": "single-stim", "stimulus": "<p id=\"stim\">1</p>", "internal_node_id": "0.0-167.0-9.0", "time_elapsed": 1251703, "key_press": -1, "trial_index": 239}, "uniqueid": "MTK1382:3OVR4I9USQQ93L8C9XGLN410YR5Q41", "dateTime": 1515868903876}, {"current_trial": 240, "trialdata": {"rt": -1, "trial_type": "single-stim", "stimulus": "<p id=\"stim\">+</p>", "internal_node_id": "0.0-168.0-0.0", "time_elapsed": 1253205, "key_press": -1, "type": "FIXATION", "trial_index": 240}, "uniqueid": "MTK1382:3OVR4I9USQQ93L8C9XGLN410YR5Q41", "dateTime": 1515868905378}, {"current_trial": 241, "trialdata": {"rt": -1000, "trial_type": "single-audio", "word": "basement", "stimulus": "/static/audio/wordpool/BASEMENT.wav", "conditions": [24, 1600, "a", 12000], "internal_node_id": "0.0-169.0", "trial": 7, "time_elapsed": 1255827, "serialpos": 0, "key_press": -1, "wordID": 93, "type": "PRES_AUD", "trial_index": 241}, "uniqueid": "MTK1382:3OVR4I9USQQ93L8C9XGLN410YR5Q41", "dateTime": 1515868908000}, {"current_trial": 242, "trialdata": {"rt": -1000, "trial_type": "single-audio", "word": "pasta", "stimulus": "/static/audio/wordpool/PASTA.wav", "conditions": [24, 1600, "a", 12000], "internal_node_id": "0.0-170.0", "trial": 7, "time_elapsed": 1258317, "serialpos": 1, "key_press": -1, "wordID": 1020, "type": "PRES_AUD", "trial_index": 242}, "uniqueid": "MTK1382:3OVR4I9USQQ93L8C9XGLN410YR5Q41", "dateTime": 1515868910490}, {"current_trial": 243, "trialdata": {"rt": -1000, "trial_type": "single-audio", "word": "police", "stimulus": "/static/audio/wordpool/POLICE.wav", "conditions": [24, 1600, "a", 12000], "internal_node_id": "0.0-171.0", "trial": 7, "time_elapsed": 1260749, "serialpos": 2, "key_press": -1, "wordID": 1097, "type": "PRES_AUD", "trial_index": 243}, "uniqueid": "MTK1382:3OVR4I9USQQ93L8C9XGLN410YR5Q41", "dateTime": 151586891292