{"assignmentId": "3QAPZX2QN5KBCEOQOL3IFJDK1BV207", "workerId": "MTK1451", "questiondata": {"origin": "United States", "strat-rehearsal": "83", "marital": "Married/Domestic Partnership", "education": "Some college", "ethnicity": "Not Hispanic", "color_depth": 24, "distracted": "No", "wrote-notes": "No", "strat-other": "saying the words outloud as they were shown on the screen", "screen_width": 1024, "avail_screen_width": 1024, "avail_screen_height": 768, "strat-image": "45", "language": "english", "gender": "Female", "age": "30", "gender_other": "", "race": ["White"], "strat-categorize": "91", "pixel_depth": 24, "strat-spatial": "85", "strat-story": "50", "race_other": "", "screen_height": 768}, "bonus": 0, "hitId": "3MIVREZQVH5SU3ZL4NYZ51UCEEAKQA", "counterbalance": 1326, "useragent": "Mozilla/5.0 (Windows NT 6.0) AppleWebKit/537.36 (KHTML, like Gecko) Chrome/49.0.2623.112 Safari/537.36", "eventdata": [{"eventtype": "initialized", "interval": 0, "value": null, "timestamp": 1515889698372}, {"eventtype": "window_resize", "interval": 0, "value": [1024, 711], "timestamp": 1515889698372}, {"eventtype": "focus", "interval": 784574, "value": "off", "timestamp": 1515890482946}, {"eventtype": "focus", "interval": 3413, "value": "on", "timestamp": 1515890486359}], "data": [{"current_trial": 0, "trialdata": {"rt": 3026, "trial_type": "text", "internal_node_id": "0.0-0.0", "time_elapsed": 3033, "key_press": 13, "type": "INSTRUCTIONS", "trial_index": 0}, "uniqueid": "MTK1451:3QAPZX2QN5KBCEOQOL3IFJDK1BV207", "dateTime": 1515889702250}, {"current_trial": 1, "trialdata": {"rt": 24228, "trial_type": "text", "internal_node_id": "0.0-1.0", "time_elapsed": 27268, "key_press": 13, "type": "INSTRUCTIONS", "trial_index": 1}, "uniqueid": "MTK1451:3QAPZX2QN5KBCEOQOL3IFJDK1BV207", "dateTime": 1515889726483}, {"current_trial": 2, "trialdata": {"rt": [9581], "trial_type": "audio-test", "responses": ["ocean"], "internal_node_id": "0.0-2.0", "time_elapsed": 36892, "type": "AUDIO_TEST", "trial_index": 2}, "uniqueid": "MTK1451:3QAPZX2QN5KBCEOQOL3IFJDK1BV207", "dateTime": 1515889736106}, {"current_trial": 3, "trialdata": {"rt": [14065], "trial_type": "audio-test", "responses": ["crystal"], "internal_node_id": "0.0-3.0", "time_elapsed": 50965, "type": "AUDIO_TEST", "trial_index": 3}, "uniqueid": "MTK1451:3QAPZX2QN5KBCEOQOL3IFJDK1BV207", "dateTime": 1515889750179}, {"current_trial": 4, "trialdata": {"rt": [9127], "trial_type": "audio-test", "responses": ["spice"], "internal_node_id": "0.0-4.0", "time_elapsed": 60100, "type": "AUDIO_TEST", "trial_index": 4}, "uniqueid": "MTK1451:3QAPZX2QN5KBCEOQOL3IFJDK1BV207", "dateTime": 1515889759314}, {"current_trial": 5, "trialdata": {"rt": 29918, "trial_type": "survey-text", "responses": "{\"Q0\":\"1 am\",\"Q1\":\"11 am\",\"Q2\":\"4\"}", "internal_node_id": "0.0-5.0", "time_elapsed": 90775, "type": "SLEEP_SURVEY", "trial_index": 5}, "uniqueid": "MTK1451:3QAPZX2QN5KBCEOQOL3IFJDK1BV207", "dateTime": 1515889789989}, {"current_trial": 6, "trialdata": {"rt": 59578, "trial_type": "text", "internal_node_id": "0.0-6.0", "time_elapsed": 151355, "key_press": 13, "type": "INSTRUCTIONS", "trial_index": 6}, "uniqueid": "MTK1451:3QAPZX2QN5KBCEOQOL3IFJDK1BV207", "dateTime": 1515889850569}, {"current_trial": 7, "trialdata": {"rt": 23226, "trial_type": "text", "internal_node_id": "0.0-7.0", "time_elapsed": 175083, "key_press": 13, "type": "INSTRUCTIONS", "trial_index": 7}, "uniqueid": "MTK1451:3QAPZX2QN5KBCEOQOL3IFJDK1BV207", "dateTime": 1515889874297}, {"current_trial": 8, "trialdata": {"rt": 11266, "trial_type": "text", "internal_node_id": "0.0-8.0", "time_elapsed": 186849, "key_press": 13, "type": "INSTRUCTIONS", "trial_index": 8}, "uniqueid": "MTK1451:3QAPZX2QN5KBCEOQOL3IFJDK1BV207", "dateTime": 1515889886064}, {"current_trial": 9, "trialdata": {"rt": [4481, 10034, 12098, 15594], "trial_type": "math-distractor", "key_times": [3475, 4481, 9642, 9834, 10034, 11769, 12098, 15228, 15418, 15594], "responses": ["6", "21", "7", "21"], "num2": [3, 9, 1, 8, 3], "num3": [1, 8, 3, 8, 5], "conditions": [18, 1200, "v", 18000], "internal_node_id": "0.0-9.0", "key_presses": [102, 13, 98, 97, 13, 103, 13, 98, 97, 13], "trial": 0, "time_elapsed": 205857, "type": "DISTRACTOR", "trial_index": 9, "num1": [2, 4, 3, 5, 6]}, "uniqueid": "MTK1451:3QAPZX2QN5KBCEOQOL3IFJDK1BV207", "dateTime": 1515889905071}, {"current_trial": 10, "trialdata": {"rt": -1, "trial_type": "single-stim", "stimulus": "<p id=\"stim\">10</p>", "internal_node_id": "0.0-10.0-0.0", "time_elapsed": 208860, "key_press": -1, "trial_index": 10}, "uniqueid": "MTK1451:3QAPZX2QN5KBCEOQOL3IFJDK1BV207", "dateTime": 1515889908074}, {"current_trial": 11, "trialdata": {"rt": -1, "trial_type": "single-stim", "stimulus": "<p id=\"stim\">9</p>", "internal_node_id": "0.0-10.0-1.0", "time_elapsed": 209862, "key_press": -1, "trial_index": 11}, "uniqueid": "MTK1451:3QAPZX2QN5KBCEOQOL3IFJDK1BV207", "dateTime": 1515889909076}, {"current_trial": 12, "trialdata": {"rt": -1, "trial_type": "single-stim", "stimulus": "<p id=\"stim\">8</p>", "internal_node_id": "0.0-10.0-2.0", "time_elapsed": 210863, "key_press": -1, "trial_index": 12}, "uniqueid": "MTK1451:3QAPZX2QN5KBCEOQOL3IFJDK1BV207", "dateTime": 1515889910077}, {"current_trial": 13, "trialdata": {"rt": -1, "trial_type": "single-stim", "stimulus": "<p id=\"stim\">7</p>", "internal_node_id": "0.0-10.0-3.0", "time_elapsed": 211865, "key_press": -1, "trial_index": 13}, "uniqueid": "MTK1451:3QAPZX2QN5KBCEOQOL3IFJDK1BV207", "dateTime": 1515889911079}, {"current_trial": 14, "trialdata": {"rt": -1, "trial_type": "single-stim", "stimulus": "<p id=\"stim\">6</p>", "internal_node_id": "0.0-10.0-4.0", "time_elapsed": 212866, "key_press": -1, "trial_index": 14}, "uniqueid": "MTK1451:3QAPZX2QN5KBCEOQOL3IFJDK1BV207", "dateTime": 1515889912080}, {"current_trial": 15, "trialdata": {"rt": -1, "trial_type": "single-stim", "stimulus": "<p id=\"stim\">5</p>", "internal_node_id": "0.0-10.0-5.0", "time_elapsed": 213867, "key_press": -1, "trial_index": 15}, "uniqueid": "MTK1451:3QAPZX2QN5KBCEOQOL3IFJDK1BV207", "dateTime": 1515889913081}, {"current_trial": 16, "trialdata": {"rt": -1, "trial_type": "single-stim", "stimulus": "<p id=\"stim\">4</p>", "internal_node_id": "0.0-10.0-6.0", "time_elapsed": 214867, "key_press": -1, "trial_index": 16}, "uniqueid": "MTK1451:3QAPZX2QN5KBCEOQOL3IFJDK1BV207", "dateTime": 1515889914081}, {"current_trial": 17, "trialdata": {"rt": -1, "trial_type": "single-stim", "stimulus": "<p id=\"stim\">3</p>", "internal_node_id": "0.0-10.0-7.0", "time_elapsed": 215868, "key_press": -1, "trial_index": 17}, "uniqueid": "MTK1451:3QAPZX2QN5KBCEOQOL3IFJDK1BV207", "dateTime": 1515889915082}, {"current_trial": 18, "trialdata": {"rt": -1, "trial_type": "single-stim", "stimulus": "<p id=\"stim\">2</p>", "internal_node_id": "0.0-10.0-8.0", "time_elapsed": 216869, "key_press": -1, "trial_index": 18}, "uniqueid": "MTK1451:3QAPZX2QN5KBCEOQOL3IFJDK1BV207", "dateTime": 1515889916083}, {"current_trial": 19, "trialdata": {"rt": -1, "trial_type": "single-stim", "stimulus": "<p id=\"stim\">1</p>", "internal_node_id": "0.0-10.0-9.0", "time_elapsed": 217871, "key_press": -1, "trial_index": 19}, "uniqueid": "MTK1451:3QAPZX2QN5KBCEOQOL3IFJDK1BV207", "dateTime": 1515889917085}, {"current_trial": 20, "trialdata": {"rt": -1, "trial_type": "single-stim", "stimulus": "<p id=\"stim\">+</p>", "internal_node_id": "0.0-11.0-0.0", "time_elapsed": 219373, "key_press": -1, "type": "FIXATION", "trial_index": 20}, "uniqueid": "MTK1451:3QAPZX2QN5KBCEOQOL3IFJDK1BV207", "dateTime": 1515889918587}, {"current_trial": 21, "trialdata": {"rt": -1, "trial_type": "single-stim", "word": "guard", "stimulus": "<p id=\"stim\">GUARD</p>", "conditions": [18, 1200, "v", 18000], "internal_node_id": "0.0-12.0", "trial": 0, "time_elapsed": 220573, "serialpos": 0, "key_press": -1, "wordID": 666, "type": "PRES_VIS", "trial_index": 21}, "uniqueid": "MTK1451:3QAPZX2QN5KBCEOQOL3IFJDK1BV207", "dateTime": 1515889919787}, {"current_trial": 22, "trialdata": {"rt": -1, "trial_type": "single-stim", "word": "picnic", "stimulus": "<p id=\"stim\">PICNIC</p>", "conditions": [18, 1200, "v", 18000], "internal_node_id": "0.0-13.0", "trial": 0, "time_elapsed": 222797, "serialpos": 1, "key_press": -1, "wordID": 1059, "type": "PRES_VIS", "trial_index": 22}, "uniqueid": "MTK1451:3QAPZX2QN5KBCEOQOL3IFJDK1BV207", "dateTime": 1515889922011}, {"current_trial": 23, "trialdata": {"rt": -1, "trial_type": "single-stim", "word": "friend", "stimulus": "<p id=\"stim\">FRIEND</p>", "conditions": [18, 1200, "v", 18000], "internal_node_id": "0.0-14.0", "trial": 0, "time_elapsed": 225078, "serialpos": 2, "key_press": -1, "wordID": 605, "type": "PRES_VIS", "trial_index": 23}, "uniqueid": "MTK1451:3QAPZX2QN5KBCEOQOL3IFJDK1BV207", "dateTime": 1515889924292}, {"current_trial": 24, "trialdata": {"rt": -1, "trial_type": "single-stim", "word": "fireman", "stimulus": "<p id=\"stim\">FIREMAN</p>", "conditions": [18, 1200, "v", 18000], "internal_node_id": "0.0-15.0", "trial": 0, "time_elapsed": 227126, "serialpos": 3, "key_press": -1, "wordID": 568, "type": "PRES_VIS", "trial_index": 24}, "uniqueid": "MTK1451:3QAPZX2QN5KBCEOQOL3IFJDK1BV207", "dateTime": 1515889926340}, {"current_trial": 25, "trialdata": {"rt": -1, "trial_type": "single-stim", "word": "radish", "stimulus": "<p id=\"stim\">RADISH</p>", "conditions": [18, 1200, "v", 18000], "internal_node_id": "0.0-16.0", "trial": 0, "time_elapsed": 229292, "serialpos": 4, "key_press": -1, "wordID": 1157, "type": "PRES_VIS", "trial_index": 25}, "uniqueid": "MTK1451:3QAPZX2QN5KBCEOQOL3IFJDK1BV207", "dateTime": 1515889928506}, {"current_trial": 26, "trialdata": {"rt": -1, "trial_type": "single-stim", "word": "viking", "stimulus": "<p id=\"stim\">VIKING</p>", "conditions": [18, 1200, "v", 18000], "internal_node_id": "0.0-17.0", "trial": 0, "time_elapsed": 231442, "serialpos": 5, "key_press": -1, "wordID": 1564, "type": "PRES_VIS", "trial_index": 26}, "uniqueid": "MTK1451:3QAPZX2QN5KBCEOQOL3IFJDK1BV207", "dateTime": 1515889930656}, {"current_trial": 27, "trialdata": {"rt": -1, "trial_type": "single-stim", "word": "chauffeur", "stimulus": "<p id=\"stim\">CHAUFFEUR</p>", "conditions": [18, 1200, "v", 18000], "internal_node_id": "0.0-18.0", "trial": 0, "time_elapsed": 233834, "serialpos": 6, "key_press": -1, "wordID": 282, "type": "PRES_VIS", "trial_index": 27}, "uniqueid": "MTK1451:3QAPZX2QN5KBCEOQOL3IFJDK1BV207", "dateTime": 1515889933048}, {"current_trial": 28, "trialdata": {"rt": -1, "trial_type": "single-stim", "word": "dashboard", "stimulus": "<p id=\"stim\">DASHBOARD</p>", "conditions": [18, 1200, "v", 18000], "internal_node_id": "0.0-19.0", "trial": 0, "time_elapsed": 235972, "serialpos": 7, "key_press": -1, "wordID": 440, "type": "PRES_VIS", "trial_index": 28}, "uniqueid": "MTK1451:3QAPZX2QN5KBCEOQOL3IFJDK1BV207", "dateTime": 1515889935186}, {"current_trial": 29, "trialdata": {"rt": -1, "trial_type": "single-stim", "word": "journal", "stimulus": "<p id=\"stim\">JOURNAL</p>", "conditions": [18, 1200, "v", 18000], "internal_node_id": "0.0-20.0", "trial": 0, "time_elapsed": 238125, "serialpos": 8, "key_press": -1, "wordID": 759, "type": "PRES_VIS", "trial_index": 29}, "uniqueid": "MTK1451:3QAPZX2QN5KBCEOQOL3IFJDK1BV207", "dateTime": 1515889937339}, {"current_trial": 30, "trialdata": {"rt": -1, "trial_type": "single-stim", "word": "peach", "stimulus": "<p id=\"stim\">PEACH</p>", "conditions": [18, 1200, "v", 18000], "internal_node_id": "0.0-21.0", "trial": 0, "time_elapsed": 240510, "serialpos": 9, "key_press": -1, "wordID": 1030, "type": "PRES_VIS", "trial_index": 30}, "uniqueid": "MTK1451:3QAPZX2QN5KBCEOQOL3IFJDK1BV207", "dateTime": 1515889939725}, {"current_trial": 31, "trialdata": {"rt": -1, "trial_type": "single-stim", "word": "gift", "stimulus": "<p id=\"stim\">GIFT</p>", "conditions": [18, 1200, "v", 18000], "internal_node_id": "0.0-22.0", "trial": 0, "time_elapsed": 242631, "serialpos": 10, "key_press": -1, "wordID": 634, "type": "PRES_VIS", "trial_index": 31}, "uniqueid": "MTK1451:3QAPZX2QN5KBCEOQOL3IFJDK1BV207", "dateTime": 1515889941845}, {"current_trial": 32, "trialdata": {"rt": -1, "trial_type": "single-stim", "word": "mailman", "stimulus": "<p id=\"stim\">MAILMAN</p>", "conditions": [18, 1200, "v", 18000], "internal_node_id": "0.0-23.0", "trial": 0, "time_elapsed": 244832, "serialpos": 11, "key_press": -1, "wordID": 857, "type": "PRES_VIS", "trial_index": 32}, "uniqueid": "MTK1451:3QAPZX2QN5KBCEOQOL3IFJDK1BV207", "dateTime": 1515889944046}, {"current_trial": 33, "trialdata": {"rt": -1, "trial_type": "single-stim", "word": "market", "stimulus": "<p id=\"stim\">MARKET</p>", "conditions": [18, 1200, "v", 18000], "internal_node_id": "0.0-24.0", "trial": 0, "time_elapsed": 246898, "serialpos": 12, "key_press": -1, "wordID": 870, "type": "PRES_VIS", "trial_index": 33}, "uniqueid": "MTK1451:3QAPZX2QN5KBCEOQOL3IFJDK1BV207", "dateTime": 1515889946112}, {"current_trial": 34, "trialdata": {"rt": -1, "trial_type": "single-stim", "word": "fox", "stimulus": "<p id=\"stim\">FOX</p>", "conditions": [18, 1200, "v", 18000], "internal_node_id": "0.0-25.0", "trial": 0, "time_elapsed": 249250, "serialpos": 13, "key_press": -1, "wordID": 597, "type": "PRES_VIS", "trial_index": 34}, "uniqueid": "MTK1451:3QAPZX2QN5KBCEOQOL3IFJDK1BV207", "dateTime": 1515889948465}, {"current_trial": 35, "trialdata": {"rt": -1, "trial_type": "single-stim", "word": "termite", "stimulus": "<p id=\"stim\">TERMITE</p>", "conditions": [18, 1200, "v", 18000], "internal_node_id": "0.0-26.0", "trial": 0, "time_elapsed": 251424, "serialpos": 14, "key_press": -1, "wordID": 1450, "type": "PRES_VIS", "trial_index": 35}, "uniqueid": "MTK1451:3QAPZX2QN5KBCEOQOL3IFJDK1BV207", "dateTime": 1515889950638}, {"current_trial": 36, "trialdata": {"rt": -1, "trial_type": "single-stim", "word": "shelf", "stimulus": "<p id=\"stim\">SHELF</p>", "conditions": [18, 1200, "v", 18000], "internal_node_id": "0.0-27.0", "trial": 0, "time_elapsed": 253810, "serialpos": 15, "key_press": -1, "wordID": 1279, "type": "PRES_VIS", "trial_index": 36}, "uniqueid": "MTK1451:3QAPZX2QN5KBCEOQOL3IFJDK1BV207", "dateTime": 1515889953024}, {"current_trial": 37, "trialdata": {"rt": -1, "trial_type": "single-stim", "word": "padding", "stimulus": "<p id=\"stim\">PADDING</p>", "conditions": [18, 1200, "v", 18000], "internal_node_id": "0.0-28.0", "trial": 0, "time_elapsed": 256202, "serialpos": 16, "key_press": -1, "wordID": 998, "type": "PRES_VIS", "trial_index": 37}, "uniqueid": "MTK1451:3QAPZX2QN5KBCEOQOL3IFJDK1BV207", "dateTime": 1515889955417}, {"current_trial": 38, "trialdata": {"rt": -1, "trial_type": "single-stim", "word": "breast", "stimulus": "<p id=\"stim\">BREAST</p>", "conditions": [18, 1200, "v", 18000], "internal_node_id": "0.0-29.0", "trial": 0, "time_elapsed": 258271, "serialpos": 17, "key_press": -1, "wordID": 170, "type": "PRES_VIS", "trial_index": 38}, "uniqueid": "MTK1451:3QAPZX2QN5KBCEOQOL3IFJDK1BV207", "dateTime": 1515889957486}, {"current_trial": 39, "trialdata": {"rt": -1, "trial_type": "single-stim", "stimulus": "", "internal_node_id": "0.0-30.0-0.0", "time_elapsed": 260487, "key_press": -1, "type": "PRE_RECALL_DELAY", "trial_index": 39}, "uniqueid": "MTK1451:3QAPZX2QN5KBCEOQOL3IFJDK1BV207", "dateTime": 1515889959701}, {"current_trial": 40, "trialdata": {"rt": -1000, "trial_type": "single-audio", "stimulus": "/static/audio/400Hz.wav", "internal_node_id": "0.0-31.0", "time_elapsed": 260991, "key_press": -1, "type": "PRE_RECALL_ALERT", "trial_index": 40}, "uniqueid": "MTK1451:3QAPZX2QN5KBCEOQOL3IFJDK1BV207", "dateTime": 1515889960206}, {"current_trial": 41, "trialdata": {"rt": [3796, 7284, 9347, 14166, 16884, 20524, 24051, 51171], "recwords": ["breast", "termite", "guard", "shelf", "chauffer", "friend", "market", "picnic"], "key_times": [1811, 2187, 2324, 2627, 3076, 3292, 3796, 4835, 5059, 5187, 5443, 5828, 6036, 6277, 7284, 7756, 8085, 8196, 8460, 9083, 9347, 9683, 10507, 10796, 11293, 12180, 13372, 13964, 14166, 14453, 14789, 14948, 15212, 15628, 15844, 16068, 16196, 16884, 18467, 18723, 19108, 19195, 19467, 19811, 20524, 22403, 22515, 22804, 23115, 23235, 23595, 24051, 49251, 49547, 49891, 50387, 50580, 50851, 51171, 57085, 57219, 57467, 57579, 58131, 59891], "trial_type": "free-recall", "conditions": [18, 1200, "v", 18000], "internal_node_id": "0.0-32.0-0.0", "key_presses": [66, 82, 69, 65, 83, 84, 13, 84, 69, 82, 77, 73, 84, 69, 13, 71, 85, 65, 82, 68, 13, 83, 72, 69, 76, 71, 8, 70, 13, 67, 72, 65, 85, 70, 70, 69, 82, 13, 70, 82, 73, 69, 78, 68, 13, 77, 65, 82, 75, 69, 84, 13, 80, 73, 67, 78, 73, 67, 13, 77, 65, 73, 76, 66, 8], "trial": 0, "time_elapsed": 320999, "type": "FREE_RECALL", "trial_index": 41}, "uniqueid": "MTK1451:3QAPZX2QN5KBCEOQOL3IFJDK1BV207", "dateTime": 1515890020218}, {"current_trial": 42, "trialdata": {"rt": 1805, "trial_type": "text", "internal_node_id": "0.0-33.0", "time_elapsed": 324809, "key_press": 13, "type": "INSTRUCTIONS", "trial_index": 42}, "uniqueid": "MTK1451:3QAPZX2QN5KBCEOQOL3IFJDK1BV207", "dateTime": 1515890024024}, {"current_trial": 43, "trialdata": {"rt": [4574, 7319, 9886, 12511, 14527, 16294], "trial_type": "math-distractor", "key_times": [3910, 4278, 4574, 6910, 7134, 7319, 9558, 9710, 9886, 12022, 12158, 12511, 14295, 14527, 16118, 16294], "responses": ["16", "21", "11", "15", "7", "7"], "num2": [7, 5, 6, 2, 1, 1, 2], "num3": [3, 8, 3, 5, 4, 3, 5], "conditions": [18, 1200, "v", 18000], "internal_node_id": "0.0-34.0", "key_presses": [97, 102, 13, 98, 97, 13, 97, 97, 13, 97, 101, 13, 103, 13, 103, 13], "trial": 1, "time_elapsed": 344812, "type": "DISTRACTOR", "trial_index": 43, "num1": [6, 8, 2, 8, 2, 3, 8]}, "uniqueid": "MTK1451:3QAPZX2QN5KBCEOQOL3IFJDK1BV207", "dateTime": 1515890044026}, {"current_trial": 44, "trialdata": {"rt": -1, "trial_type": "single-stim", "stimulus": "<p id=\"stim\">10</p>", "internal_node_id": "0.0-35.0-0.0", "time_elapsed": 347814, "key_press": -1, "trial_index": 44}, "uniqueid": "MTK1451:3QAPZX2QN5KBCEOQOL3IFJDK1BV207", "dateTime": 1515890047028}, {"current_trial": 45, "trialdata": {"rt": -1, "trial_type": "single-stim", "stimulus": "<p id=\"stim\">9</p>", "internal_node_id": "0.0-35.0-1.0", "time_elapsed": 348815, "key_press": -1, "trial_index": 45}, "uniqueid": "MTK1451:3QAPZX2QN5KBCEOQOL3IFJDK1BV207", "dateTime": 1515890048029}, {"current_trial": 46, "trialdata": {"rt": -1, "trial_type": "single-stim", "stimulus": "<p id=\"stim\">8</p>", "internal_node_id": "0.0-35.0-2.0", "time_elapsed": 349816, "key_press": -1, "trial_index": 46}, "uniqueid": "MTK1451:3QAPZX2QN5KBCEOQOL3IFJDK1BV207", "dateTime": 1515890049030}, {"current_trial": 47, "trialdata": {"rt": -1, "trial_type": "single-stim", "stimulus": "<p id=\"stim\">7</p>", "internal_node_id": "0.0-35.0-3.0", "time_elapsed": 350816, "key_press": -1, "trial_index": 47}, "uniqueid": "MTK1451:3QAPZX2QN5KBCEOQOL3IFJDK1BV207", "dateTime": 1515890050030}, {"current_trial": 48, "trialdata": {"rt": -1, "trial_type": "single-stim", "stimulus": "<p id=\"stim\">6</p>", "internal_node_id": "0.0-35.0-4.0", "time_elapsed": 351818, "key_press": -1, "trial_index": 48}, "uniqueid": "MTK1451:3QAPZX2QN5KBCEOQOL3IFJDK1BV207", "dateTime": 1515890051034}, {"current_trial": 49, "trialdata": {"rt": -1, "trial_type": "single-stim", "stimulus": "<p id=\"stim\">5</p>", "internal_node_id": "0.0-35.0-5.0", "time_elapsed": 352820, "key_press": -1, "trial_index": 49}, "uniqueid": "MTK1451:3QAPZX2QN5KBCEOQOL3IFJDK1BV207", "dateTime": 1515890052034}, {"current_trial": 50, "trialdata": {"rt": -1, "trial_type": "single-stim", "stimulus": "<p id=\"stim\">4</p>", "internal_node_id": "0.0-35.0-6.0", "time_elapsed": 353822, "key_press": -1, "trial_index": 50}, "uniqueid": "MTK1451:3QAPZX2QN5KBCEOQOL3IFJDK1BV207", "dateTime": 1515890053036}, {"current_trial": 51, "trialdata": {"rt": -1, "trial_type": "single-stim", "stimulus": "<p id=\"stim\">3</p>", "internal_node_id": "0.0-35.0-7.0", "time_elapsed": 354822, "key_press": -1, "trial_index": 51}, "uniqueid": "MTK1451:3QAPZX2QN5KBCEOQOL3IFJDK1BV207", "dateTime": 1515890054036}, {"current_trial": 52, "trialdata": {"rt": -1, "trial_type": "single-stim", "stimulus": "<p id=\"stim\">2</p>", "internal_node_id": "0.0-35.0-8.0", "time_elapsed": 355824, "key_press": -1, "trial_index": 52}, "uniqueid": "MTK1451:3QAPZX2QN5KBCEOQOL3IFJDK1BV207", "dateTime": 1515890055038}, {"current_trial": 53, "trialdata": {"rt": -1, "trial_type": "single-stim", "stimulus": "<p id=\"stim\">1</p>", "internal_node_id": "0.0-35.0-9.0", "time_elapsed": 356825, "key_press": -1, "trial_index": 53}, "uniqueid": "MTK1451:3QAPZX2QN5KBCEOQOL3IFJDK1BV207", "dateTime": 1515890056039}, {"current_trial": 54, "trialdata": {"rt": -1, "trial_type": "single-stim", "stimulus": "<p id=\"stim\">+</p>", "internal_node_id": "0.0-36.0-0.0", "time_elapsed": 358327, "key_press": -1, "type": "FIXATION", "trial_index": 54}, "uniqueid": "MTK1451:3QAPZX2QN5KBCEOQOL3IFJDK1BV207", "dateTime": 1515890057541}, {"current_trial": 55, "trialdata": {"rt": -1, "trial_type": "single-stim", "word": "passage", "stimulus": "<p id=\"stim\">PASSAGE</p>", "conditions": [18, 1200, "v", 18000], "internal_node_id": "0.0-37.0", "trial": 1, "time_elapsed": 359529, "serialpos": 0, "key_press": -1, "wordID": 1018, "type": "PRES_VIS", "trial_index": 55}, "uniqueid": "MTK1451:3QAPZX2QN5KBCEOQOL3IFJDK1BV207", "dateTime": 1515890058743}, {"current_trial": 56, "trialdata": {"rt": -1, "trial_type": "single-stim", "word": "drawing", "stimulus": "<p id=\"stim\">DRAWING</p>", "conditions": [18, 1200, "v", 18000], "internal_node_id": "0.0-38.0", "trial": 1, "time_elapsed": 361738, "serialpos": 1, "key_press": -1, "wordID": 493, "type": "PRES_VIS", "trial_index": 56}, "uniqueid": "MTK1451:3QAPZX2QN5KBCEOQOL3IFJDK1BV207", "dateTime": 1515890060952}, {"current_trial": 57, "trialdata": {"rt": -1, "trial_type": "single-stim", "word": "jelly", "stimulus": "<p id=\"stim\">JELLY</p>", "conditions": [18, 1200, "v", 18000], "internal_node_id": "0.0-39.0", "trial": 1, "time_elapsed": 364002, "serialpos": 2, "key_press": -1, "wordID": 754, "type": "PRES_VIS", "trial_index": 57}, "uniqueid": "MTK1451:3QAPZX2QN5KBCEOQOL3IFJDK1BV207", "dateTime": 1515890063216}, {"current_trial": 58, "trialdata": {"rt": -1, "trial_type": "single-stim", "word": "taxi", "stimulus": "<p id=\"stim\">TAXI</p>", "conditions": [18, 1200, "v", 18000], "internal_node_id": "0.0-40.0", "trial": 1, "time_elapsed": 366163, "serialpos": 3, "key_press": -1, "wordID": 1437, "type": "PRES_VIS", "trial_index": 58}, "uniqueid": "MTK1451:3QAPZX2QN5KBCEOQOL3IFJDK1BV207", "dateTime": 1515890065377}, {"current_trial": 59, "trialdata": {"rt": -1, "trial_type": "single-stim", "word": "pliers", "stimulus": "<p id=\"stim\">PLIERS</p>", "conditions": [18, 1200, "v", 18000], "internal_node_id": "0.0-41.0", "trial": 1, "time_elapsed": 368537, "serialpos": 4, "key_press": -1, "wordID": 1088, "type": "PRES_VIS", "trial_index": 59}, "uniqueid": "MTK1451:3QAPZX2QN5KBCEOQOL3IFJDK1BV207", "dateTime": 1515890067751}, {"current_trial": 60, "trialdata": {"rt": -1, "trial_type": "single-stim", "word": "curtain", "stimulus": "<p id=\"stim\">CURTAIN</p>", "conditions": [18, 1200, "v", 18000], "internal_node_id": "0.0-42.0", "trial": 1, "time_elapsed": 370542, "serialpos": 5, "key_press": -1, "wordID": 426, "type": "PRES_VIS", "trial_index": 60}, "uniqueid": "MTK1451:3QAPZX2QN5KBCEOQOL3IFJDK1BV207", "dateTime": 1515890069756}, {"current_trial": 61, "trialdata": {"rt": -1, "trial_type": "single-stim", "word": "leopard", "stimulus": "<p id=\"stim\">LEOPARD</p>", "conditions": [18, 1200, "v", 18000], "internal_node_id": "0.0-43.0", "trial": 1, "time_elapsed": 372910, "serialpos": 6, "key_press": -1, "wordID": 811, "type": "PRES_VIS", "trial_index": 61}, "uniqueid": "MTK1451:3QAPZX2QN5KBCEOQOL3IFJDK1BV207", "dateTime": 1515890072125}, {"current_trial": 62, "trialdata": {"rt": -1, "trial_type": "single-stim", "word": "tortoise", "stimulus": "<p id=\"stim\">TORTOISE</p>", "conditions": [18, 1200, "v", 18000], "internal_node_id": "0.0-44.0", "trial": 1, "time_elapsed": 375202, "serialpos": 7, "key_press": -1, "wordID": 1485, "type": "PRES_VIS", "trial_index": 62}, "uniqueid": "MTK1451:3QAPZX2QN5KBCEOQOL3IFJDK1BV207", "dateTime": 1515890074416}, {"current_trial": 63, "trialdata": {"rt": -1, "trial_type": "single-stim", "word": "cocoon", "stimulus": "<p id=\"stim\">COCOON</p>", "conditions": [18, 1200, "v", 18000], "internal_node_id": "0.0-45.0", "trial": 1, "time_elapsed": 377600, "serialpos": 8, "key_press": -1, "wordID": 338, "type": "PRES_VIS", "trial_index": 63}, "uniqueid": "MTK1451:3QAPZX2QN5KBCEOQOL3IFJDK1BV207", "dateTime": 1515890076814}, {"current_trial": 64, "trialdata": {"rt": -1, "trial_type": "single-stim", "word": "slug", "stimulus": "<p id=\"stim\">SLUG</p>", "conditions": [18, 1200, "v", 18000], "internal_node_id": "0.0-46.0", "trial": 1, "time_elapsed": 379795, "serialpos": 9, "key_press": -1, "wordID": 1328, "type": "PRES_VIS", "trial_index": 64}, "uniqueid": "MTK1451:3QAPZX2QN5KBCEOQOL3IFJDK1BV207", "dateTime": 1515890079009}, {"current_trial": 65, "trialdata": {"rt": -1, "trial_type": "single-stim", "word": "whiskers", "stimulus": "<p id=\"stim\">WHISKERS</p>", "conditions": [18, 1200, "v", 18000], "internal_node_id": "0.0-47.0", "trial": 1, "time_elapsed": 382192, "serialpos": 10, "key_press": -1, "wordID": 1604, "type": "PRES_VIS", "trial_index": 65}, "uniqueid": "MTK1451:3QAPZX2QN5KBCEOQOL3IFJDK1BV207", "dateTime": 1515890081406}, {"current_trial": 66, "trialdata": {"rt": -1, "trial_type": "single-stim", "word": "sunrise", "stimulus": "<p id=\"stim\">SUNRISE</p>", "conditions": [18, 1200, "v", 18000], "internal_node_id": "0.0-48.0", "trial": 1, "time_elapsed": 384216, "serialpos": 11, "key_press": -1, "wordID": 1406, "type": "PRES_VIS", "trial_index": 66}, "uniqueid": "MTK1451:3QAPZX2QN5KBCEOQOL3IFJDK1BV207", "dateTime": 1515890083430}, {"current_trial": 67, "trialdata": {"rt": -1, "trial_type": "single-stim", "word": "laser", "stimulus": "<p id=\"stim\">LASER</p>", "conditions": [18, 1200, "v", 18000], "internal_node_id": "0.0-49.0", "trial": 1, "time_elapsed": 386249, "serialpos": 12, "key_press": -1, "wordID": 800, "type": "PRES_VIS", "trial_index": 67}, "uniqueid": "MTK1451:3QAPZX2QN5KBCEOQOL3IFJDK1BV207", "dateTime": 1515890085463}, {"current_trial": 68, "trialdata": {"rt": -1, "trial_type": "single-stim", "word": "spoon", "stimulus": "<p id=\"stim\">SPOON</p>", "conditions": [18, 1200, "v", 18000], "internal_node_id": "0.0-50.0", "trial": 1, "time_elapsed": 388447, "serialpos": 13, "key_press": -1, "wordID": 1356, "type": "PRES_VIS", "trial_index": 68}, "uniqueid": "MTK1451:3QAPZX2QN5KBCEOQOL3IFJDK1BV207", "dateTime": 1515890087661}, {"current_trial": 69, "trialdata": {"rt": -1, "trial_type": "single-stim", "word": "female", "stimulus": "<p id=\"stim\">FEMALE</p>", "conditions": [18, 1200, "v", 18000], "internal_node_id": "0.0-51.0", "trial": 1, "time_elapsed": 390578, "serialpos": 14, "key_press": -1, "wordID": 558, "type": "PRES_VIS", "trial_index": 69}, "uniqueid": "MTK1451:3QAPZX2QN5KBCEOQOL3IFJDK1BV207", "dateTime": 1515890089792}, {"current_trial": 70, "trialdata": {"rt": -1, "trial_type": "single-stim", "word": "maple", "stimulus": "<p id=\"stim\">MAPLE</p>", "conditions": [18, 1200, "v", 18000], "internal_node_id": "0.0-52.0", "trial": 1, "time_elapsed": 392755, "serialpos": 15, "key_press": -1, "wordID": 865, "type": "PRES_VIS", "trial_index": 70}, "uniqueid": "MTK1451:3QAPZX2QN5KBCEOQOL3IFJDK1BV207", "dateTime": 1515890091969}, {"current_trial": 71, "trialdata": {"rt": -1, "trial_type": "single-stim", "word": "coin", "stimulus": "<p id=\"stim\">COIN</p>", "conditions": [18, 1200, "v", 18000], "internal_node_id": "0.0-53.0", "trial": 1, "time_elapsed": 394778, "serialpos": 16, "key_press": -1, "wordID": 342, "type": "PRES_VIS", "trial_index": 71}, "uniqueid": "MTK1451:3QAPZX2QN5KBCEOQOL3IFJDK1BV207", "dateTime": 1515890093993}, {"current_trial": 72, "trialdata": {"rt": -1, "trial_type": "single-stim", "word": "rug", "stimulus": "<p id=\"stim\">RUG</p>", "conditions": [18, 1200, "v", 18000], "internal_node_id": "0.0-54.0", "trial": 1, "time_elapsed": 396841, "serialpos": 17, "key_press": -1, "wordID": 1214, "type": "PRES_VIS", "trial_index": 72}, "uniqueid": "MTK1451:3QAPZX2QN5KBCEOQOL3IFJDK1BV207", "dateTime": 1515890096055}, {"current_trial": 73, "trialdata": {"rt": -1, "trial_type": "single-stim", "stimulus": "", "internal_node_id": "0.0-55.0-0.0", "time_elapsed": 399013, "key_press": -1, "type": "PRE_RECALL_DELAY", "trial_index": 73}, "uniqueid": "MTK1451:3QAPZX2QN5KBCEOQOL3IFJDK1BV207", "dateTime": 1515890098227}, {"current_trial": 74, "trialdata": {"rt": -1000, "trial_type": "single-audio", "stimulus": "/static/audio/400Hz.wav", "internal_node_id": "0.0-56.0", "time_elapsed": 399514, "key_press": -1, "type": "PRE_RECALL_ALERT", "trial_index": 74}, "uniqueid": "MTK1451:3QAPZX2QN5KBCEOQOL3IFJDK1BV207", "dateTime": 1515890098728}, {"current_trial": 75, "trialdata": {"rt": [3637, 5654, 7390, 14717, 16221, 19286, 24230, 27173, 29528, 32605, 37437, 41989, 50238, 55845], "recwords": ["rug", "female", "pliers", "sunrise", "laser", "spoon", "cacoon", "jelly", "taxi", "curtian", "leopard", "whiskers", "maple", "coin"], "key_times": [2981, 3165, 3349, 3637, 4246, 4454, 4718, 4870, 5182, 5374, 5654, 5966, 6198, 6430, 6590, 6734, 7062, 7390, 11773, 12109, 12517, 13157, 13357, 13533, 13893, 14717, 15069, 15237, 15502, 15805, 15924, 16221, 17125, 17310, 17605, 17765, 18205, 19286, 21274, 22229, 22926, 23149, 23357, 23669, 24230, 25149, 25486, 25813, 25974, 26717, 27173, 27509, 27766, 28614, 28990, 29528, 31134, 31406, 31621, 31829, 32045, 32093, 32262, 32605, 34750, 34934, 35173, 35285, 35421, 35677, 36094, 37437, 38439, 38877, 39133, 39770, 40205, 40494, 40621, 41629, 41989, 48472, 48638, 48838, 49173, 49381, 50238, 51917, 52085, 52175, 52526, 55845], "trial_type": "free-recall", "conditions": [18, 1200, "v", 18000], "internal_node_id": "0.0-57.0-0.0", "key_presses": [82, 85, 71, 13, 70, 69, 77, 65, 76, 69, 13, 80, 76, 73, 69, 82, 83, 13, 83, 85, 78, 82, 73, 83, 69, 13, 76, 65, 83, 69, 82, 13, 83, 80, 79, 79, 78, 13, 67, 65, 67, 79, 79, 78, 13, 74, 69, 76, 76, 89, 13, 84, 65, 88, 73, 13, 67, 85, 82, 84, 73, 65, 78, 13, 76, 69, 79, 80, 65, 82, 68, 13, 87, 72, 73, 83, 75, 69, 82, 83, 13, 77, 65, 80, 76, 69, 13, 67, 79, 73, 78, 13], "trial": 1, "time_elapsed": 459517, "type": "FREE_RECALL", "trial_index": 75}, "uniqueid": "MTK1451:3QAPZX2QN5KBCEOQOL3IFJDK1BV207", "dateTime": 1515890158738}, {"current_trial": 76, "trialdata": {"rt": 3926, "trial_type": "text", "internal_node_id": "0.0-58.0", "time_elapsed": 465451, "key_press": 13, "type": "INSTRUCTIONS", "trial_index": 76}, "uniqueid": "MTK1451:3QAPZX2QN5KBCEOQOL3IFJDK1BV207", "dateTime": 1515890164666}, {"current_trial": 77, "trialdata": {"rt": [3956, 6036, 10157, 12085, 14069, 17356, 20212, 22576], "trial_type": "math-distractor", "key_times": [3421, 3700, 3956, 5580, 5764, 6036, 9269, 9797, 10157, 11543, 11765, 12085, 13788, 14069, 16709, 17116, 17356, 19668, 19900, 20212, 22101, 22358, 22576], "responses": ["17", "14", "13", "11", "9", "13", "17", "13"], "num2": [9, 4, 2, 3, 6, 8, 9, 1, 1], "num3": [4, 6, 4, 1, 1, 1, 3, 9, 3], "conditions": [24, 800, "v", 24000], "internal_node_id": "0.0-59.0", "key_presses": [97, 103, 13, 97, 100, 13, 97, 99, 13, 97, 97, 13, 105, 13, 97, 99, 13, 97, 103, 13, 97, 99, 13], "trial": 2, "time_elapsed": 490455, "type": "DISTRACTOR", "trial_index": 77, "num1": [4, 4, 7, 7, 2, 4, 5, 3, 1]}, "uniqueid": "MTK1451:3QAPZX2QN5KBCEOQOL3IFJDK1BV207", "dateTime": 1515890189669}, {"current_trial": 78, "trialdata": {"rt": -1, "trial_type": "single-stim", "stimulus": "<p id=\"stim\">10</p>", "internal_node_id": "0.0-60.0-0.0", "time_elapsed": 493455, "key_press": -1, "trial_index": 78}, "uniqueid": "MTK1451:3QAPZX2QN5KBCEOQOL3IFJDK1BV207", "dateTime": 1515890192669}, {"current_trial": 79, "trialdata": {"rt": -1, "trial_type": "single-stim", "stimulus": "<p id=\"stim\">9</p>", "internal_node_id": "0.0-60.0-1.0", "time_elapsed": 494456, "key_press": -1, "trial_index": 79}, "uniqueid": "MTK1451:3QAPZX2QN5KBCEOQOL3IFJDK1BV207", "dateTime": 1515890193670}, {"current_trial": 80, "trialdata": {"rt": -1, "trial_type": "single-stim", "stimulus": "<p id=\"stim\">8</p>", "internal_node_id": "0.0-60.0-2.0", "time_elapsed": 495457, "key_press": -1, "trial_index": 80}, "uniqueid": "MTK1451:3QAPZX2QN5KBCEOQOL3IFJDK1BV207", "dateTime": 1515890194671}, {"current_trial": 81, "trialdata": {"rt": -1, "trial_type": "single-stim", "stimulus": "<p id=\"stim\">7</p>", "internal_node_id": "0.0-60.0-3.0", "time_elapsed": 496457, "key_press": -1, "trial_index": 81}, "uniqueid": "MTK1451:3QAPZX2QN5KBCEOQOL3IFJDK1BV207", "dateTime": 1515890195671}, {"current_trial": 82, "trialdata": {"rt": -1, "trial_type": "single-stim", "stimulus": "<p id=\"stim\">6</p>", "internal_node_id": "0.0-60.0-4.0", "time_elapsed": 497459, "key_press": -1, "trial_index": 82}, "uniqueid": "MTK1451:3QAPZX2QN5KBCEOQOL3IFJDK1BV207", "dateTime": 1515890196673}, {"current_trial": 83, "trialdata": {"rt": -1, "trial_type": "single-stim", "stimulus": "<p id=\"stim\">5</p>", "internal_node_id": "0.0-60.0-5.0", "time_elapsed": 498461, "key_press": -1, "trial_index": 83}, "uniqueid": "MTK1451:3QAPZX2QN5KBCEOQOL3IFJDK1BV207", "dateTime": 1515890197675}, {"current_trial": 84, "trialdata": {"rt": -1, "trial_type": "single-stim", "stimulus": "<p id=\"stim\">4</p>", "internal_node_id": "0.0-60.0-6.0", "time_elapsed": 499462, "key_press": -1, "trial_index": 84}, "uniqueid": "MTK1451:3QAPZX2QN5KBCEOQOL3IFJDK1BV207", "dateTime": 1515890198676}, {"current_trial": 85, "trialdata": {"rt": -1, "trial_type": "single-stim", "stimulus": "<p id=\"stim\">3</p>", "internal_node_id": "0.0-60.0-7.0", "time_elapsed": 500465, "key_press": -1, "trial_index": 85}, "uniqueid": "MTK1451:3QAPZX2QN5KBCEOQOL3IFJDK1BV207", "dateTime": 1515890199679}, {"current_trial": 86, "trialdata": {"rt": -1, "trial_type": "single-stim", "stimulus": "<p id=\"stim\">2</p>", "internal_node_id": "0.0-60.0-8.0", "time_elapsed": 501465, "key_press": -1, "trial_index": 86}, "uniqueid": "MTK1451:3QAPZX2QN5KBCEOQOL3IFJDK1BV207", "dateTime": 1515890200679}, {"current_trial": 87, "trialdata": {"rt": -1, "trial_type": "single-stim", "stimulus": "<p id=\"stim\">1</p>", "internal_node_id": "0.0-60.0-9.0", "time_elapsed": 502466, "key_press": -1, "trial_index": 87}, "uniqueid": "MTK1451:3QAPZX2QN5KBCEOQOL3IFJDK1BV207", "dateTime": 1515890201680}, {"current_trial": 88, "trialdata": {"rt": -1, "trial_type": "single-stim", "stimulus": "<p id=\"stim\">+</p>", "internal_node_id": "0.0-61.0-0.0", "time_elapsed": 503966, "key_press": -1, "type": "FIXATION", "trial_index": 88}, "uniqueid": "MTK1451:3QAPZX2QN5KBCEOQOL3IFJDK1BV207", "dateTime": 1515890203180}, {"current_trial": 89, "trialdata": {"rt": -1, "trial_type": "single-stim", "word": "robin", "stimulus": "<p id=\"stim\">ROBIN</p>", "conditions": [24, 800, "v", 24000], "internal_node_id": "0.0-62.0", "trial": 2, "time_elapsed": 504767, "serialpos": 0, "key_press": -1, "wordID": 1198, "type": "PRES_VIS", "trial_index": 89}, "uniqueid": "MTK1451:3QAPZX2QN5KBCEOQOL3IFJDK1BV207", "dateTime": 1515890203981}, {"current_trial": 90, "trialdata": {"rt": -1, "trial_type": "single-stim", "word": "cod", "stimulus": "<p id=\"stim\">COD</p>", "conditions": [24, 800, "v", 24000], "internal_node_id": "0.0-63.0", "trial": 2, "time_elapsed": 506493, "serialpos": 1, "key_press": -1, "wordID": 339, "type": "PRES_VIS", "trial_index": 90}, "uniqueid": "MTK1451:3QAPZX2QN5KBCEOQOL3IFJDK1BV207", "dateTime": 1515890205707}, {"current_trial": 91, "trialdata": {"rt": -1, "trial_type": "single-stim", "word": "crab", "stimulus": "<p id=\"stim\">CRAB</p>", "conditions": [24, 800, "v", 24000], "internal_node_id": "0.0-64.0", "trial": 2, "time_elapsed": 508475, "serialpos": 2, "key_press": -1, "wordID": 396, "type": "PRES_VIS", "trial_index": 91}, "uniqueid": "MTK1451:3QAPZX2QN5KBCEOQOL3IFJDK1BV207", "dateTime": 1515890207689}, {"current_trial": 92, "trialdata": {"rt": -1, "trial_type": "single-stim", "word": "atom", "stimulus": "<p id=\"stim\">ATOM</p>", "conditions": [24, 800, "v", 24000], "internal_node_id": "0.0-65.0", "trial": 2, "time_elapsed": 510252, "serialpos": 3, "key_press": -1, "wordID": 54, "type": "PRES_VIS", "trial_index": 92}, "uniqueid": "MTK1451:3QAPZX2QN5KBCEOQOL3IFJDK1BV207", "dateTime": 1515890209466}, {"current_trial": 93, "trialdata": {"rt": -1, "trial_type": "single-stim", "word": "scotch", "stimulus": "<p id=\"stim\">SCOTCH</p>", "conditions": [24, 800, "v", 24000], "internal_node_id": "0.0-66.0", "trial": 2, "time_elapsed": 511968, "serialpos": 4, "key_press": -1, "wordID": 1250, "type": "PRES_VIS", "trial_index": 93}, "uniqueid": "MTK1451:3QAPZX2QN5KBCEOQOL3IFJDK1BV207", "dateTime": 1515890211182}, {"current_trial": 94, "trialdata": {"rt": -1, "trial_type": "single-stim", "word": "turnip", "stimulus": "<p id=\"stim\">TURNIP</p>", "conditions": [24, 800, "v", 24000], "internal_node_id": "0.0-67.0", "trial": 2, "time_elapsed": 513577, "serialpos": 5, "key_press": -1, "wordID": 1520, "type": "PRES_VIS", "trial_index": 94}, "uniqueid": "MTK1451:3QAPZX2QN5KBCEOQOL3IFJDK1BV207", "dateTime": 1515890212791}, {"current_trial": 95, "trialdata": {"rt": -1, "trial_type": "single-stim", "word": "princess", "stimulus": "<p id=\"stim\">PRINCESS</p>", "conditions": [24, 800, "v", 24000], "internal_node_id": "0.0-68.0", "trial": 2, "time_elapsed": 515552, "serialpos": 6, "key_press": -1, "wordID": 1124, "type": "PRES_VIS", "trial_index": 95}, "uniqueid": "MTK1451:3QAPZX2QN5KBCEOQOL3IFJDK1BV207", "dateTime": 1515890214766}, {"current_trial": 96, "trialdata": {"rt": -1, "trial_type": "single-stim", "word": "apple", "stimulus": "<p id=\"stim\">APPLE</p>", "conditions": [24, 800, "v", 24000], "internal_node_id": "0.0-69.0", "trial": 2, "time_elapsed": 517499, "serialpos": 7, "key_press": -1, "wordID": 32, "type": "PRES_VIS", "trial_index": 96}, "uniqueid": "MTK1451:3QAPZX2QN5KBCEOQOL3IFJDK1BV207", "dateTime": 1515890216713}, {"current_trial": 97, "trialdata": {"rt": -1, "trial_type": "single-stim", "word": "film", "stimulus": "<p id=\"stim\">FILM</p>", "conditions": [24, 800, "v", 24000], "internal_node_id": "0.0-70.0", "trial": 2, "time_elapsed": 519353, "serialpos": 8, "key_press": -1, "wordID": 564, "type": "PRES_VIS", "trial_index": 97}, "uniqueid": "MTK1451:3QAPZX2QN5KBCEOQOL3IFJDK1BV207", "dateTime": 1515890218567}, {"current_trial": 98, "trialdata": {"rt": -1, "trial_type": "single-stim", "word": "grill", "stimulus": "<p id=\"stim\">GRILL</p>", "conditions": [24, 800, "v", 24000], "internal_node_id": "0.0-71.0", "trial": 2, "time_elapsed": 521298, "serialpos": 9, "key_press": -1, "wordID": 660, "type": "PRES_VIS", "trial_index": 98}, "uniqueid": "MTK1451:3QAPZX2QN5KBCEOQOL3IFJDK1BV207", "dateTime": 1515890220512}, {"current_trial": 99, "trialdata": {"rt": -1, "trial_type": "single-stim", "word": "banquet", "stimulus": "<p id=\"stim\">BANQUET</p>", "conditions": [24, 800, "v", 24000], "internal_node_id": "0.0-72.0", "trial": 2, "time_elapsed": 523184, "serialpos": 10, "key_press": -1, "wordID": 85, "type": "PRES_VIS", "trial_index": 99}, "uniqueid": "MTK1451:3QAPZX2QN5KBCEOQOL3IFJDK1BV207", "dateTime": 1515890222398}, {"current_trial": 100, "trialdata": {"rt": -1, "trial_type": "single-stim", "word": "actor", "stimulus": "<p id=\"stim\">ACTOR</p>", "conditions": [24, 800, "v", 24000], "internal_node_id": "0.0-73.0", "trial": 2, "time_elapsed": 524936, "serialpos": 11, "key_press": -1, "wordID": 4, "type": "PRES_VIS", "trial_index": 100}, "uniqueid": "MTK1451:3QAPZX2QN5KBCEOQOL3IFJDK1BV207", "dateTime": 1515890224150}, {"current_trial": 101, "trialdata": {"rt": -1, "trial_type": "single-stim", "word": "wife", "stimulus": "<p id=\"stim\">WIFE</p>", "conditions": [24, 800, "v", 24000], "internal_node_id": "0.0-74.0", "trial": 2, "time_elapsed": 526790, "serialpos": 12, "key_press": -1, "wordID": 1608, "type": "PRES_VIS", "trial_index": 101}, "uniqueid": "MTK1451:3QAPZX2QN5KBCEOQOL3IFJDK1BV207", "dateTime": 1515890226004}, {"current_trial": 102, "trialdata": {"rt": -1, "trial_type": "single-stim", "word": "robber", "stimulus": "<p id=\"stim\">ROBBER</p>", "conditions": [24, 800, "v", 24000], "internal_node_id": "0.0-75.0", "trial": 2, "time_elapsed": 528746, "serialpos": 13, "key_press": -1, "wordID": 1196, "type": "PRES_VIS", "trial_index": 102}, "uniqueid": "MTK1451:3QAPZX2QN5KBCEOQOL3IFJDK1BV207", "dateTime": 1515890227960}, {"current_trial": 103, "trialdata": {"rt": -1, "trial_type": "single-stim", "word": "knife", "stimulus": "<p id=\"stim\">KNIFE</p>", "conditions": [24, 800, "v", 24000], "internal_node_id": "0.0-76.0", "trial": 2, "time_elapsed": 530721, "serialpos": 14, "key_press": -1, "wordID": 784, "type": "PRES_VIS", "trial_index": 103}, "uniqueid": "MTK1451:3QAPZX2QN5KBCEOQOL3IFJDK1BV207", "dateTime": 1515890229935}, {"current_trial": 104, "trialdata": {"rt": -1, "trial_type": "single-stim", "word": "sword", "stimulus": "<p id=\"stim\">SWORD</p>", "conditions": [24, 800, "v", 24000], "internal_node_id": "0.0-77.0", "trial": 2, "time_elapsed": 532409, "serialpos": 15, "key_press": -1, "wordID": 1422, "type": "PRES_VIS", "trial_index": 104}, "uniqueid": "MTK1451:3QAPZX2QN5KBCEOQOL3IFJDK1BV207", "dateTime": 1515890231624}, {"current_trial": 105, "trialdata": {"rt": -1, "trial_type": "single-stim", "word": "cousin", "stimulus": "<p id=\"stim\">COUSIN</p>", "conditions": [24, 800, "v", 24000], "internal_node_id": "0.0-78.0", "trial": 2, "time_elapsed": 534286, "serialpos": 16, "key_press": -1, "wordID": 391, "type": "PRES_VIS", "trial_index": 105}, "uniqueid": "MTK1451:3QAPZX2QN5KBCEOQOL3IFJDK1BV207", "dateTime": 1515890233500}, {"current_trial": 106, "trialdata": {"rt": -1, "trial_type": "single-stim", "word": "mummy", "stimulus": "<p id=\"stim\">MUMMY</p>", "conditions": [24, 800, "v", 24000], "internal_node_id": "0.0-79.0", "trial": 2, "time_elapsed": 536036, "serialpos": 17, "key_press": -1, "wordID": 931, "type": "PRES_VIS", "trial_index": 106}, "uniqueid": "MTK1451:3QAPZX2QN5KBCEOQOL3IFJDK1BV207", "dateTime": 1515890235250}, {"current_trial": 107, "trialdata": {"rt": -1, "trial_type": "single-stim", "word": "clothes", "stimulus": "<p id=\"stim\">CLOTHES</p>", "conditions": [24, 800, "v", 24000], "internal_node_id": "0.0-80.0", "trial": 2, "time_elapsed": 537995, "serialpos": 18, "key_press": -1, "wordID": 326, "type": "PRES_VIS", "trial_index": 107}, "uniqueid": "MTK1451:3QAPZX2QN5KBCEOQOL3IFJDK1BV207", "dateTime": 1515890237209}, {"current_trial": 108, "trialdata": {"rt": -1, "trial_type": "single-stim", "word": "suspect", "stimulus": "<p id=\"stim\">SUSPECT</p>", "conditions": [24, 800, "v", 24000], "internal_node_id": "0.0-81.0", "trial": 2, "time_elapsed": 539599, "serialpos": 19, "key_press": -1, "wordID": 1414, "type": "PRES_VIS", "trial_index": 108}, "uniqueid": "MTK1451:3QAPZX2QN5KBCEOQOL3IFJDK1BV207", "dateTime": 1515890238813}, {"current_trial": 109, "trialdata": {"rt": -1, "trial_type": "single-stim", "word": "hero", "stimulus": "<p id=\"stim\">HERO</p>", "conditions": [24, 800, "v", 24000], "internal_node_id": "0.0-82.0", "trial": 2, "time_elapsed": 541300, "serialpos": 20, "key_press": -1, "wordID": 705, "type": "PRES_VIS", "trial_index": 109}, "uniqueid": "MTK1451:3QAPZX2QN5KBCEOQOL3IFJDK1BV207", "dateTime": 1515890240514}, {"current_trial": 110, "trialdata": {"rt": -1, "trial_type": "single-stim", "word": "egypt", "stimulus": "<p id=\"stim\">EGYPT</p>", "conditions": [24, 800, "v", 24000], "internal_node_id": "0.0-83.0", "trial": 2, "time_elapsed": 543190, "serialpos": 21, "key_press": -1, "wordID": 518, "type": "PRES_VIS", "trial_index": 110}, "uniqueid": "MTK1451:3QAPZX2QN5KBCEOQOL3IFJDK1BV207", "dateTime": 1515890242404}, {"current_trial": 111, "trialdata": {"rt": -1, "trial_type": "single-stim", "word": "pocket", "stimulus": "<p id=\"stim\">POCKET</p>", "conditions": [24, 800, "v", 24000], "internal_node_id": "0.0-84.0", "trial": 2, "time_elapsed": 545127, "serialpos": 22, "key_press": -1, "wordID": 1092, "type": "PRES_VIS", "trial_index": 111}, "uniqueid": "MTK1451:3QAPZX2QN5KBCEOQOL3IFJDK1BV207", "dateTime": 1515890244341}, {"current_trial": 112, "trialdata": {"rt": -1, "trial_type": "single-stim", "word": "chipmunk", "stimulus": "<p id=\"stim\">CHIPMUNK</p>", "conditions": [24, 800, "v", 24000], "internal_node_id": "0.0-85.0", "trial": 2, "time_elapsed": 546742, "serialpos": 23, "key_press": -1, "wordID": 303, "type": "PRES_VIS", "trial_index": 112}, "uniqueid": "MTK1451:3QAPZX2QN5KBCEOQOL3IFJDK1BV207", "dateTime": 1515890245956}, {"current_trial": 113, "trialdata": {"rt": -1, "trial_type": "single-stim", "stimulus": "", "internal_node_id": "0.0-86.0-0.0", "time_elapsed": 548940, "key_press": -1, "type": "PRE_RECALL_DELAY", "trial_index": 113}, "uniqueid": "MTK1451:3QAPZX2QN5KBCEOQOL3IFJDK1BV207", "dateTime": 1515890248155}, {"current_trial": 114, "trialdata": {"rt": -1000, "trial_type": "single-audio", "stimulus": "/static/audio/400Hz.wav", "internal_node_id": "0.0-87.0", "time_elapsed": 549441, "key_press": -1, "type": "PRE_RECALL_ALERT", "trial_index": 114}, "uniqueid": "MTK1451:3QAPZX2QN5KBCEOQOL3IFJDK1BV207", "dateTime": 1515890248655}, {"current_trial": 115, "trialdata": {"rt": [6239, 10550, 12855, 15462, 18062, 20742, 23550, 28327, 29830, 35143, 38631, 43823, 51047, 53631, 58343], "recwords": ["chimunk", "robin", "crab", "robber", "hero", "knife", "sword", "princess", "apple", "film", "turnip", "cod", "scotch", "atom", "cousin"], "key_times": [2294, 2518, 3335, 3983, 4295, 5103, 5231, 6239, 7422, 7606, 8119, 8414, 9670, 10550, 11375, 11808, 12135, 12623, 12855, 13527, 13967, 14415, 14631, 14823, 15006, 15462, 16062, 16246, 16423, 16815, 18062, 18849, 19150, 20134, 20318, 20580, 20742, 21318, 21605, 22015, 22255, 23031, 23550, 24407, 24640, 24887, 25495, 25863, 26183, 26959, 27278, 27622, 27830, 28327, 28527, 28911, 29094, 29342, 29518, 29830, 32599, 32775, 33455, 34095, 35143, 36047, 36311, 36862, 37726, 38023, 38311, 38631, 42695, 42967, 43487, 43823, 45911, 46287, 49087, 49967, 50415, 50591, 51047, 52158, 52903, 53079, 53263, 53631, 56488, 57048, 57238, 57454, 57552, 57742, 58343], "trial_type": "free-recall", "conditions": [24, 800, "v", 24000], "internal_node_id": "0.0-88.0-0.0", "key_presses": [67, 72, 73, 77, 85, 78, 75, 13, 82, 79, 66, 73, 78, 13, 67, 82, 65, 66, 13, 82, 79, 66, 66, 69, 82, 13, 72, 69, 82, 79, 13, 75, 78, 73, 70, 69, 13, 83, 87, 79, 82, 68, 13, 80, 82, 79, 8, 73, 78, 67, 69, 83, 83, 13, 65, 80, 80, 76, 69, 32, 70, 73, 76, 77, 13, 84, 85, 82, 78, 73, 80, 13, 67, 79, 68, 13, 83, 67, 79, 84, 67, 72, 13, 65, 84, 79, 77, 13, 67, 79, 85, 83, 73, 78, 13], "trial": 2, "time_elapsed": 609444, "type": "FREE_RECALL", "trial_index": 115}, "uniqueid": "MTK1451:3QAPZX2QN5KBCEOQOL3IFJDK1BV207", "dateTime": 1515890308662}, {"current_trial": 116, "trialdata": {"rt": 3049, "trial_type": "text", "internal_node_id": "0.0-89.0", "time_elapsed": 614497, "key_press": 13, "type": "INSTRUCTIONS", "trial_index": 116}, "uniqueid": "MTK1451:3QAPZX2QN5KBCEOQOL3IFJDK1BV207", "dateTime": 1515890313712}, {"current_trial": 117, "trialdata": {"rt": [1513, 7950, 11326, 14549, 17934, 20382, 22870], "trial_type": "math-distractor", "key_times": [1246, 1513, 5893, 6934, 7654, 7750, 7950, 10726, 11054, 11326, 13773, 14349, 14549, 17622, 17734, 17934, 20046, 20110, 20382, 22198, 22478, 22870], "responses": ["3", "23", "17", "19", "21", "12", "15"], "num2": [1, 8, 8, 6, 8, 5, 4, 8], "num3": [1, 9, 2, 9, 6, 1, 9, 2], "conditions": [24, 1600, "v", 24000], "internal_node_id": "0.0-90.0", "key_presses": [99, 13, 97, 8, 98, 99, 13, 97, 103, 13, 97, 105, 13, 98, 97, 13, 97, 98, 13, 97, 101, 13], "trial": 3, "time_elapsed": 640501, "type": "DISTRACTOR", "trial_index": 117, "num1": [1, 6, 7, 4, 7, 6, 2, 3]}, "uniqueid": "MTK1451:3QAPZX2QN5KBCEOQOL3IFJDK1BV207", "dateTime": 1515890339716}, {"current_trial": 118, "trialdata": {"rt": -1, "trial_type": "single-stim", "stimulus": "<p id=\"stim\">10</p>", "internal_node_id": "0.0-91.0-0.0", "time_elapsed": 643503, "key_press": -1, "trial_index": 118}, "uniqueid": "MTK1451:3QAPZX2QN5KBCEOQOL3IFJDK1BV207", "dateTime": 1515890342717}, {"current_trial": 119, "trialdata": {"rt": -1, "trial_type": "single-stim", "stimulus": "<p id=\"stim\">9</p>", "internal_node_id": "0.0-91.0-1.0", "time_elapsed": 644504, "key_press": -1, "trial_index": 119}, "uniqueid": "MTK1451:3QAPZX2QN5KBCEOQOL3IFJDK1BV207", "dateTime": 1515890343718}, {"current_trial": 120, "trialdata": {"rt": -1, "trial_type": "single-stim", "stimulus": "<p id=\"stim\">8</p>", "internal_node_id": "0.0-91.0-2.0", "time_elapsed": 645506, "key_press": -1, "trial_index": 120}, "uniqueid": "MTK1451:3QAPZX2QN5KBCEOQOL3IFJDK1BV207", "dateTime": 1515890344720}, {"current_trial": 121, "trialdata": {"rt": -1, "trial_type": "single-stim", "stimulus": "<p id=\"stim\">7</p>", "internal_node_id": "0.0-91.0-3.0", "time_elapsed": 646507, "key_press": -1, "trial_index": 121}, "uniqueid": "MTK1451:3QAPZX2QN5KBCEOQOL3IFJDK1BV207", "dateTime": 1515890345721}, {"current_trial": 122, "trialdata": {"rt": -1, "trial_type": "single-stim", "stimulus": "<p id=\"stim\">6</p>", "internal_node_id": "0.0-91.0-4.0", "time_elapsed": 647508, "key_press": -1, "trial_index": 122}, "uniqueid": "MTK1451:3QAPZX2QN5KBCEOQOL3IFJDK1BV207", "dateTime": 1515890346722}, {"current_trial": 123, "trialdata": {"rt": -1, "trial_type": "single-stim", "stimulus": "<p id=\"stim\">5</p>", "internal_node_id": "0.0-91.0-5.0", "time_elapsed": 648510, "key_press": -1, "trial_index": 123}, "uniqueid": "MTK1451:3QAPZX2QN5KBCEOQOL3IFJDK1BV207", "dateTime": 1515890347724}, {"current_trial": 124, "trialdata": {"rt": -1, "trial_type": "single-stim", "stimulus": "<p id=\"stim\">4</p>", "internal_node_id": "0.0-91.0-6.0", "time_elapsed": 649512, "key_press": -1, "trial_index": 124}, "uniqueid": "MTK1451:3QAPZX2QN5KBCEOQOL3IFJDK1BV207", "dateTime": 1515890348726}, {"current_trial": 125, "trialdata": {"rt": -1, "trial_type": "single-stim", "stimulus": "<p id=\"stim\">3</p>", "internal_node_id": "0.0-91.0-7.0", "time_elapsed": 650512, "key_press": -1, "trial_index": 125}, "uniqueid": "MTK1451:3QAPZX2QN5KBCEOQOL3IFJDK1BV207", "dateTime": 1515890349726}, {"current_trial": 126, "trialdata": {"rt": -1, "trial_type": "single-stim", "stimulus": "<p id=\"stim\">2</p>", "internal_node_id": "0.0-91.0-8.0", "time_elapsed": 651513, "key_press": -1, "trial_index": 126}, "uniqueid": "MTK1451:3QAPZX2QN5KBCEOQOL3IFJDK1BV207", "dateTime": 1515890350727}, {"current_trial": 127, "trialdata": {"rt": -1, "trial_type": "single-stim", "stimulus": "<p id=\"stim\">1</p>", "internal_node_id": "0.0-91.0-9.0", "time_elapsed": 652515, "key_press": -1, "trial_index": 127}, "uniqueid": "MTK1451:3QAPZX2QN5KBCEOQOL3IFJDK1BV207", "dateTime": 1515890351729}, {"current_trial": 128, "trialdata": {"rt": -1, "trial_type": "single-stim", "stimulus": "<p id=\"stim\">+</p>", "internal_node_id": "0.0-92.0-0.0", "time_elapsed": 654018, "key_press": -1, "type": "FIXATION", "trial_index": 128}, "uniqueid": "MTK1451:3QAPZX2QN5KBCEOQOL3IFJDK1BV207", "dateTime": 1515890353232}, {"current_trial": 129, "trialdata": {"rt": -1, "trial_type": "single-stim", "word": "student", "stimulus": "<p id=\"stim\">STUDENT</p>", "conditions": [24, 1600, "v", 24000], "internal_node_id": "0.0-93.0", "trial": 3, "time_elapsed": 655619, "serialpos": 0, "key_press": -1, "wordID": 1394, "type": "PRES_VIS", "trial_index": 129}, "uniqueid": "MTK1451:3QAPZX2QN5KBCEOQOL3IFJDK1BV207", "dateTime": 1515890354834}, {"current_trial": 130, "trialdata": {"rt": -1, "trial_type": "single-stim", "word": "office", "stimulus": "<p id=\"stim\">OFFICE</p>", "conditions": [24, 1600, "v", 24000], "internal_node_id": "0.0-94.0", "trial": 3, "time_elapsed": 658136, "serialpos": 1, "key_press": -1, "wordID": 971, "type": "PRES_VIS", "trial_index": 130}, "uniqueid": "MTK1451:3QAPZX2QN5KBCEOQOL3IFJDK1BV207", "dateTime": 1515890357350}, {"current_trial": 131, "trialdata": {"rt": -1, "trial_type": "single-stim", "word": "cabbage", "stimulus": "<p id=\"stim\">CABBAGE</p>", "conditions": [24, 1600, "v", 24000], "internal_node_id": "0.0-95.0", "trial": 3, "time_elapsed": 660802, "serialpos": 2, "key_press": -1, "wordID": 209, "type": "PRES_VIS", "trial_index": 131}, "uniqueid": "MTK1451:3QAPZX2QN5KBCEOQOL3IFJDK1BV207", "dateTime": 1515890360018}, {"current_trial": 132, "trialdata": {"rt": -1, "trial_type": "single-stim", "word": "college", "stimulus": "<p id=\"stim\">COLLEGE</p>", "conditions": [24, 1600, "v", 24000], "internal_node_id": "0.0-96.0", "trial": 3, "time_elapsed": 663559, "serialpos": 3, "key_press": -1, "wordID": 345, "type": "PRES_VIS", "trial_index": 132}, "uniqueid": "MTK1451:3QAPZX2QN5KBCEOQOL3IFJDK1BV207", "dateTime": 1515890362773}, {"current_trial": 133, "trialdata": {"rt": -1, "trial_type": "single-stim", "word": "airport", "stimulus": "<p id=\"stim\">AIRPORT</p>", "conditions": [24, 1600, "v", 24000], "internal_node_id": "0.0-97.0", "trial": 3, "time_elapsed": 666140, "serialpos": 4, "key_press": -1, "wordID": 12, "type": "PRES_VIS", "trial_index": 133}, "uniqueid": "MTK1451:3QAPZX2QN5KBCEOQOL3IFJDK1BV207", "dateTime": 1515890365355}, {"current_trial": 134, "trialdata": {"rt": -1, "trial_type": "single-stim", "word": "police", "stimulus": "<p id=\"stim\">POLICE</p>", "conditions": [24, 1600, "v", 24000], "internal_node_id": "0.0-98.0", "trial": 3, "time_elapsed": 668581, "serialpos": 5, "key_press": -1, "wordID": 1097, "type": "PRES_VIS", "trial_index": 134}, "uniqueid": "MTK1451:3QAPZX2QN5KBCEOQOL3IFJDK1BV207", "dateTime": 1515890367796}, {"current_trial": 135, "trialdata": {"rt": -1, "trial_type": "single-stim", "word": "country", "stimulus": "<p id=\"stim\">COUNTRY</p>", "conditions": [24, 1600, "v", 24000], "internal_node_id": "0.0-99.0", "trial": 3, "time_elapsed": 671036, "serialpos": 6, "key_press": -1, "wordID": 387, "type": "PRES_VIS", "trial_index": 135}, "uniqueid": "MTK1451:3QAPZX2QN5KBCEOQOL3IFJDK1BV207", "dateTime": 1515890370250}, {"current_trial": 136, "trialdata": {"rt": -1, "trial_type": "single-stim", "word": "world", "stimulus": "<p id=\"stim\">WORLD</p>", "conditions": [24, 1600, "v", 24000], "internal_node_id": "0.0-100.0", "trial": 3, "time_elapsed": 673636, "serialpos": 7, "key_press": -1, "wordID": 1621, "type": "PRES_VIS", "trial_index": 136}, "uniqueid": "MTK1451:3QAPZX2QN5KBCEOQOL3IFJDK1BV207", "dateTime": 1515890372850}, {"current_trial": 137, "trialdata": {"rt": -1, "trial_type": "single-stim", "word": "cookbook", "stimulus": "<p id=\"stim\">COOKBOOK</p>", "conditions": [24, 1600, "v", 24000], "internal_node_id": "0.0-101.0", "trial": 3, "time_elapsed": 676372, "serialpos": 8, "key_press": -1, "wordID": 372, "type": "PRES_VIS", "trial_index": 137}, "uniqueid": "MTK1451:3QAPZX2QN5KBCEOQOL3IFJDK1BV207", "dateTime": 1515890375586}, {"current_trial": 138, "trialdata": {"rt": -1, "trial_type": "single-stim", "word": "beaver", "stimulus": "<p id=\"stim\">BEAVER</p>", "conditions": [24, 1600, "v", 24000], "internal_node_id": "0.0-102.0", "trial": 3, "time_elapsed": 678981, "serialpos": 9, "key_press": -1, "wordID": 108, "type": "PRES_VIS", "trial_index": 138}, "uniqueid": "MTK1451:3QAPZX2QN5KBCEOQOL3IFJDK1BV207", "dateTime": 1515890378195}, {"current_trial": 139, "trialdata": {"rt": -1, "trial_type": "single-stim", "word": "hawk", "stimulus": "<p id=\"stim\">HAWK</p>", "conditions": [24, 1600, "v", 24000], "internal_node_id": "0.0-103.0", "trial": 3, "time_elapsed": 681557, "serialpos": 10, "key_press": -1, "wordID": 691, "type": "PRES_VIS", "trial_index": 139}, "uniqueid": "MTK1451:3QAPZX2QN5KBCEOQOL3IFJDK1BV207", "dateTime": 1515890380771}, {"current_trial": 140, "trialdata": {"rt": -1, "trial_type": "single-stim", "word": "chemist", "stimulus": "<p id=\"stim\">CHEMIST</p>", "conditions": [24, 1600, "v", 24000], "internal_node_id": "0.0-104.0", "trial": 3, "time_elapsed": 684155, "serialpos": 11, "key_press": -1, "wordID": 291, "type": "PRES_VIS", "trial_index": 140}, "uniqueid": "MTK1451:3QAPZX2QN5KBCEOQOL3IFJDK1BV207", "dateTime": 1515890383369}, {"current_trial": 141, "trialdata": {"rt": -1, "trial_type": "single-stim", "word": "yarn", "stimulus": "<p id=\"stim\">YARN</p>", "conditions": [24, 1600, "v", 24000], "internal_node_id": "0.0-105.0", "trial": 3, "time_elapsed": 686677, "serialpos": 12, "key_press": -1, "wordID": 1630, "type": "PRES_VIS", "trial_index": 141}, "uniqueid": "MTK1451:3QAPZX2QN5KBCEOQOL3IFJDK1BV207", "dateTime": 1515890385891}, {"current_trial": 142, "trialdata": {"rt": -1, "trial_type": "single-stim", "word": "cashew", "stimulus": "<p id=\"stim\">CASHEW</p>", "conditions": [24, 1600, "v", 24000], "internal_node_id": "0.0-106.0", "trial": 3, "time_elapsed": 689315, "serialpos": 13, "key_press": -1, "wordID": 252, "type": "PRES_VIS", "trial_index": 142}, "uniqueid": "MTK1451:3QAPZX2QN5KBCEOQOL3IFJDK1BV207", "dateTime": 1515890388530}, {"current_trial": 143, "trialdata": {"rt": -1, "trial_type": "single-stim", "word": "wardrobe", "stimulus": "<p id=\"stim\">WARDROBE</p>", "conditions": [24, 1600, "v", 24000], "internal_node_id": "0.0-107.0", "trial": 3, "time_elapsed": 692063, "serialpos": 14, "key_press": -1, "wordID": 1586, "type": "PRES_VIS", "trial_index": 143}, "uniqueid": "MTK1451:3QAPZX2QN5KBCEOQOL3IFJDK1BV207", "dateTime": 1515890391277}, {"current_trial": 144, "trialdata": {"rt": -1, "trial_type": "single-stim", "word": "rattle", "stimulus": "<p id=\"stim\">RATTLE</p>", "conditions": [24, 1600, "v", 24000], "internal_node_id": "0.0-108.0", "trial": 3, "time_elapsed": 694572, "serialpos": 15, "key_press": -1, "wordID": 1169, "type": "PRES_VIS", "trial_index": 144}, "uniqueid": "MTK1451:3QAPZX2QN5KBCEOQOL3IFJDK1BV207", "dateTime": 1515890393786}, {"current_trial": 145, "trialdata": {"rt": -1, "trial_type": "single-stim", "word": "salad", "stimulus": "<p id=\"stim\">SALAD</p>", "conditions": [24, 1600, "v", 24000], "internal_node_id": "0.0-109.0", "trial": 3, "time_elapsed": 697004, "serialpos": 16, "key_press": -1, "wordID": 1223, "type": "PRES_VIS", "trial_index": 145}, "uniqueid": "MTK1451:3QAPZX2QN5KBCEOQOL3IFJDK1BV207", "dateTime": 1515890396218}, {"current_trial": 146, "trialdata": {"rt": -1, "trial_type": "single-stim", "word": "trench", "stimulus": "<p id=\"stim\">TRENCH</p>", "conditions": [24, 1600, "v", 24000], "internal_node_id": "0.0-110.0", "trial": 3, "time_elapsed": 699703, "serialpos": 17, "key_press": -1, "wordID": 1502, "type": "PRES_VIS", "trial_index": 146}, "uniqueid": "MTK1451:3QAPZX2QN5KBCEOQOL3IFJDK1BV207", "dateTime": 1515890398917}, {"current_trial": 147, "trialdata": {"rt": -1, "trial_type": "single-stim", "word": "yacht", "stimulus": "<p id=\"stim\">YACHT</p>", "conditions": [24, 1600, "v", 24000], "internal_node_id": "0.0-111.0", "trial": 3, "time_elapsed": 702476, "serialpos": 18, "key_press": -1, "wordID": 1628, "type": "PRES_VIS", "trial_index": 147}, "uniqueid": "MTK1451:3QAPZX2QN5KBCEOQOL3IFJDK1BV207", "dateTime": 1515890401690}, {"current_trial": 148, "trialdata": {"rt": -1, "trial_type": "single-stim", "word": "dress", "stimulus": "<p id=\"stim\">DRESS</p>", "conditions": [24, 1600, "v", 24000], "internal_node_id": "0.0-112.0", "trial": 3, "time_elapsed": 704888, "serialpos": 19, "key_press": -1, "wordID": 494, "type": "PRES_VIS", "trial_index": 148}, "uniqueid": "MTK1451:3QAPZX2QN5KBCEOQOL3IFJDK1BV207", "dateTime": 1515890404103}, {"current_trial": 149, "trialdata": {"rt": -1, "trial_type": "single-stim", "word": "woman", "stimulus": "<p id=\"stim\">WOMAN</p>", "conditions": [24, 1600, "v", 24000], "internal_node_id": "0.0-113.0", "trial": 3, "time_elapsed": 707556, "serialpos": 20, "key_press": -1, "wordID": 1619, "type": "PRES_VIS", "trial_index": 149}, "uniqueid": "MTK1451:3QAPZX2QN5KBCEOQOL3IFJDK1BV207", "dateTime": 1515890406770}, {"current_trial": 150, "trialdata": {"rt": -1, "trial_type": "single-stim", "word": "lady", "stimulus": "<p id=\"stim\">LADY</p>", "conditions": [24, 1600, "v", 24000], "internal_node_id": "0.0-114.0", "trial": 3, "time_elapsed": 710192, "serialpos": 21, "key_press": -1, "wordID": 793, "type": "PRES_VIS", "trial_index": 150}, "uniqueid": "MTK1451:3QAPZX2QN5KBCEOQOL3IFJDK1BV207", "dateTime": 1515890409406}, {"current_trial": 151, "trialdata": {"rt": -1, "trial_type": "single-stim", "word": "motor", "stimulus": "<p id=\"stim\">MOTOR</p>", "conditions": [24, 1600, "v", 24000], "internal_node_id": "0.0-115.0", "trial": 3, "time_elapsed": 712673, "serialpos": 22, "key_press": -1, "wordID": 921, "type": "PRES_VIS", "trial_index": 151}, "uniqueid": "MTK1451:3QAPZX2QN5KBCEOQOL3IFJDK1BV207", "dateTime": 1515890411887}, {"current_trial": 152, "trialdata": {"rt": -1, "trial_type": "single-stim", "word": "burglar", "stimulus": "<p id=\"stim\">BURGLAR</p>", "conditions": [24, 1600, "v", 24000], "internal_node_id": "0.0-116.0", "trial": 3, "time_elapsed": 715431, "serialpos": 23, "key_press": -1, "wordID": 199, "type": "PRES_VIS", "trial_index": 152}, "uniqueid": "MTK1451:3QAPZX2QN5KBCEOQOL3IFJDK1BV207", "dateTime": 1515890414645}, {"current_trial": 153, "trialdata": {"rt": -1, "trial_type": "single-stim", "stimulus": "", "internal_node_id": "0.0-117.0-0.0", "time_elapsed": 717624, "key_press": -1, "type": "PRE_RECALL_DELAY", "trial_index": 153}, "uniqueid": "MTK1451:3QAPZX2QN5KBCEOQOL3IFJDK1BV207", "dateTime": 1515890416838}, {"current_trial": 154, "trialdata": {"rt": -1000, "trial_type": "single-audio", "stimulus": "/static/audio/400Hz.wav", "internal_node_id": "0.0-118.0", "time_elapsed": 718126, "key_press": -1, "type": "PRE_RECALL_ALERT", "trial_index": 154}, "uniqueid": "MTK1451:3QAPZX2QN5KBCEOQOL3IFJDK1BV207", "dateTime": 1515890417340}, {"current_trial": 155, "trialdata": {"rt": [4231, 6208, 7856, 9591, 11680, 13631, 16464, 19728, 26048, 29424, 33447, 41288, 56816], "recwords": ["burglar", "wpman", "lady", "dress", "student", "chemist", "college", "world", "country", "hawk", "office", "trench", "college"], "key_times": [1609, 1907, 2175, 2527, 3143, 3269, 3575, 4231, 4656, 4896, 5552, 5672, 5856, 6208, 6464, 6624, 7112, 7456, 7856, 8320, 8576, 8792, 9200, 9423, 9591, 9815, 10215, 10519, 10879, 11088, 11251, 11432, 11680, 12041, 12200, 12336, 12544, 12736, 12992, 13444, 13631, 13927, 14191, 14479, 14649, 14816, 16008, 16201, 16464, 18000, 18247, 18416, 18664, 19496, 19728, 23695, 23911, 24071, 25040, 25167, 25415, 25711, 26048, 26824, 26928, 28112, 28696, 29424, 32000, 32297, 32456, 32800, 32968, 33225, 33447, 39495, 39735, 39903, 40640, 40760, 40890, 41288, 54944, 55208, 55514, 55673, 55840, 56408, 56632, 56816], "trial_type": "free-recall", "conditions": [24, 1600, "v", 24000], "internal_node_id": "0.0-119.0-0.0", "key_presses": [66, 85, 82, 71, 76, 65, 82, 13, 87, 80, 77, 65, 78, 13, 76, 65, 68, 89, 13, 68, 82, 69, 83, 83, 13, 83, 84, 85, 68, 69, 78, 84, 13, 67, 72, 69, 77, 73, 83, 84, 13, 67, 79, 76, 76, 69, 71, 69, 13, 87, 79, 82, 76, 68, 13, 67, 79, 85, 78, 84, 82, 89, 13, 72, 65, 87, 75, 13, 79, 70, 70, 73, 67, 69, 13, 84, 82, 69, 78, 67, 72, 13, 67, 79, 76, 76, 69, 71, 69, 13], "trial": 3, "time_elapsed": 778131, "type": "FREE_RECALL", "trial_index": 155}, "uniqueid": "MTK1451:3QAPZX2QN5KBCEOQOL3IFJDK1BV207", "dateTime": 1515890477356}, {"current_trial": 156, "trialdata": {"rt": 7863, "trial_type": "text", "internal_node_id": "0.0-120.0", "time_elapsed": 788005, "key_press": 13, "type": "INSTRUCTIONS", "trial_index": 156}, "uniqueid": "MTK1451:3QAPZX2QN5KBCEOQOL3IFJDK1BV207", "dateTime": 1515890487220}, {"current_trial": 157, "trialdata": {"rt": [3812, 7788, 9564, 12091, 15204, 17292, 19715, 23788], "trial_type": "math-distractor", "key_times": [3452, 3636, 3812, 7196, 7436, 7788, 9260, 9354, 9564, 11731, 11835, 12091, 15012, 15204, 16965, 17092, 17292, 19412, 19452, 19715, 23349, 23556, 23788], "responses": ["11", "16", "12", "16", "7", "12", "21", "16"], "num2": [2, 5, 2, 1, 3, 3, 1, 2, 6], "num3": [7, 3, 5, 8, 2, 8, 7, 6, 1], "conditions": [12, 1600, "v", 24000], "internal_node_id": "0.0-121.0", "key_presses": [97, 97, 13, 97, 102, 13, 97, 98, 13, 97, 102, 13, 103, 13, 97, 98, 13, 98, 97, 13, 97, 102, 13], "trial": 4, "time_elapsed": 814024, "type": "DISTRACTOR", "trial_index": 157, "num1": [2, 8, 5, 7, 2, 1, 4, 8, 5]}, "uniqueid": "MTK1451:3QAPZX2QN5KBCEOQOL3IFJDK1BV207", "dateTime": 1515890513239}, {"current_trial": 158, "trialdata": {"rt": -1, "trial_type": "single-stim", "stimulus": "<p id=\"stim\">10</p>", "internal_node_id": "0.0-122.0-0.0", "time_elapsed": 817026, "key_press": -1, "trial_index": 158}, "uniqueid": "MTK1451:3QAPZX2QN5KBCEOQOL3IFJDK1BV207", "dateTime": 1515890516241}, {"current_trial": 159, "trialdata": {"rt": -1, "trial_type": "single-stim", "stimulus": "<p id=\"stim\">9</p>", "internal_node_id": "0.0-122.0-1.0", "time_elapsed": 818028, "key_press": -1, "trial_index": 159}, "uniqueid": "MTK1451:3QAPZX2QN5KBCEOQOL3IFJDK1BV207", "dateTime": 1515890517242}, {"current_trial": 160, "trialdata": {"rt": -1, "trial_type": "single-stim", "stimulus": "<p id=\"stim\">8</p>", "internal_node_id": "0.0-122.0-2.0", "time_elapsed": 819029, "key_press": -1, "trial_index": 160}, "uniqueid": "MTK1451:3QAPZX2QN5KBCEOQOL3IFJDK1BV207", "dateTime": 1515890518243}, {"current_trial": 161, "trialdata": {"rt": -1, "trial_type": "single-stim", "stimulus": "<p id=\"stim\">7</p>", "internal_node_id": "0.0-122.0-3.0", "time_elapsed": 820030, "key_press": -1, "trial_index": 161}, "uniqueid": "MTK1451:3QAPZX2QN5KBCEOQOL3IFJDK1BV207", "dateTime": 1515890519244}, {"current_trial": 162, "trialdata": {"rt": -1, "trial_type": "single-stim", "stimulus": "<p id=\"stim\">6</p>", "internal_node_id": "0.0-122.0-4.0", "time_elapsed": 821032, "key_press": -1, "trial_index": 162}, "uniqueid": "MTK1451:3QAPZX2QN5KBCEOQOL3IFJDK1BV207", "dateTime": 1515890520246}, {"current_trial": 163, "trialdata": {"rt": -1, "trial_type": "single-stim", "stimulus": "<p id=\"stim\">5</p>", "internal_node_id": "0.0-122.0-5.0", "time_elapsed": 822032, "key_press": -1, "trial_index": 163}, "uniqueid": "MTK1451:3QAPZX2QN5KBCEOQOL3IFJDK1BV207", "dateTime": 1515890521246}, {"current_trial": 164, "trialdata": {"rt": -1, "trial_type": "single-stim", "stimulus": "<p id=\"stim\">4</p>", "internal_node_id": "0.0-122.0-6.0", "time_elapsed": 823033, "key_press": -1, "trial_index": 164}, "uniqueid": "MTK1451:3QAPZX2QN5KBCEOQOL3IFJDK1BV207", "dateTime": 1515890522247}, {"current_trial": 165, "trialdata": {"rt": -1, "trial_type": "single-stim", "stimulus": "<p id=\"stim\">3</p>", "internal_node_id": "0.0-122.0-7.0", "time_elapsed": 824034, "key_press": -1, "trial_index": 165}, "uniqueid": "MTK1451:3QAPZX2QN5KBCEOQOL3IFJDK1BV207", "dateTime": 1515890523248}, {"current_trial": 166, "trialdata": {"rt": -1, "trial_type": "single-stim", "stimulus": "<p id=\"stim\">2</p>", "internal_node_id": "0.0-122.0-8.0", "time_elapsed": 825036, "key_press": -1, "trial_index": 166}, "uniqueid": "MTK1451:3QAPZX2QN5KBCEOQOL3IFJDK1BV207", "dateTime": 1515890524250}, {"current_trial": 167, "trialdata": {"rt": -1, "trial_type": "single-stim", "stimulus": "<p id=\"stim\">1</p>", "internal_node_id": "0.0-122.0-9.0", "time_elapsed": 826038, "key_press": -1, "trial_index": 167}, "uniqueid": "MTK1451:3QAPZX2QN5KBCEOQOL3IFJDK1BV207", "dateTime": 1515890525252}, {"current_trial": 168, "trialdata": {"rt": -1, "trial_type": "single-stim", "stimulus": "<p id=\"stim\">+</p>", "internal_node_id": "0.0-123.0-0.0", "time_elapsed": 827538, "key_press": -1, "type": "FIXATION", "trial_index": 168}, "uniqueid": "MTK1451:3QAPZX2QN5KBCEOQOL3IFJDK1BV207", "dateTime": 1515890526752}, {"current_trial": 169, "trialdata": {"rt": -1, "trial_type": "single-stim", "word": "mammal", "stimulus": "<p id=\"stim\">MAMMAL</p>", "conditions": [12, 1600, "v", 24000], "internal_node_id": "0.0-124.0", "trial": 4, "time_elapsed": 829139, "serialpos": 0, "key_press": -1, "wordID": 860, "type": "PRES_VIS", "trial_index": 169}, "uniqueid": "MTK1451:3QAPZX2QN5KBCEOQOL3IFJDK1BV207", "dateTime": 1515890528354}, {"current_trial": 170, "trialdata": {"rt": -1, "trial_type": "single-stim", "word": "poet", "stimulus": "<p id=\"stim\">POET</p>", "conditions": [12, 1600, "v", 24000], "internal_node_id": "0.0-125.0", "trial": 4, "time_elapsed": 831831, "serialpos": 1, "key_press": -1, "wordID": 1094, "type": "PRES_VIS", "trial_index": 170}, "uniqueid": "MTK1451:3QAPZX2QN5KBCEOQOL3IFJDK1BV207", "dateTime": 1515890531045}, {"current_trial": 171, "trialdata": {"rt": -1, "trial_type": "single-stim", "word": "pilot", "stimulus": "<p id=\"stim\">PILOT</p>", "conditions": [12, 1600, "v", 24000], "internal_node_id": "0.0-126.0", "trial": 4, "time_elapsed": 834436, "serialpos": 2, "key_press": -1, "wordID": 1069, "type": "PRES_VIS", "trial_index": 171}, "uniqueid": "MTK1451:3QAPZX2QN5KBCEOQOL3IFJDK1BV207", "dateTime": 1515890533650}, {"current_trial": 172, "trialdata": {"rt": -1, "trial_type": "single-stim", "word": "shark", "stimulus": "<p id=\"stim\">SHARK</p>", "conditions": [12, 1600, "v", 24000], "internal_node_id": "0.0-127.0", "trial": 4, "time_elapsed": 837073, "serialpos": 3, "key_press": -1, "wordID": 1274, "type": "PRES_VIS", "trial_index": 172}, "uniqueid": "MTK1451:3QAPZX2QN5KBCEOQOL3IFJDK1BV207", "dateTime": 1515890536287}, {"current_trial": 173, "trialdata": {"rt": -1, "trial_type": "single-stim", "word": "wasp", "stimulus": "<p id=\"stim\">WASP</p>", "conditions": [12, 1600, "v", 24000], "internal_node_id": "0.0-128.0", "trial": 4, "time_elapsed": 839672, "serialpos": 4, "key_press": -1, "wordID": 1592, "type": "PRES_VIS", "trial_index": 173}, "uniqueid": "MTK1451:3QAPZX2QN5KBCEOQOL3IFJDK1BV207", "dateTime": 1515890538886}, {"current_trial": 174, "trialdata": {"rt": -1, "trial_type": "single-stim", "word": "spider", "stimulus": "<p id=\"stim\">SPIDER</p>", "conditions": [12, 1600, "v", 24000], "internal_node_id": "0.0-129.0", "trial": 4, "time_elapsed": 842230, "serialpos": 5, "key_press": -1, "wordID": 1350, "type": "PRES_VIS", "trial_index": 174}, "uniqueid": "MTK1451:3QAPZX2QN5KBCEOQOL3IFJDK1BV207", "dateTime": 1515890541444}, {"current_trial": 175, "trialdata": {"rt": -1, "trial_type": "single-stim", "word": "valve", "stimulus": "<p id=\"stim\">VALVE</p>", "conditions": [12, 1600, "v", 24000], "internal_node_id": "0.0-130.0", "trial": 4, "time_elapsed": 844885, "serialpos": 6, "key_press": -1, "wordID": 1545, "type": "PRES_VIS", "trial_index": 175}, "uniqueid": "MTK1451:3QAPZX2QN5KBCEOQOL3IFJDK1BV207", "dateTime": 1515890544100}, {"current_trial": 176, "trialdata": {"rt": -1, "trial_type": "single-stim", "word": "freezer", "stimulus": "<p id=\"stim\">FREEZER</p>", "conditions": [12, 1600, "v", 24000], "internal_node_id": "0.0-131.0", "trial": 4, "time_elapsed": 847505, "serialpos": 7, "key_press": -1, "wordID": 603, "type": "PRES_VIS", "trial_index": 176}, "uniqueid": "MTK1451:3QAPZX2QN5KBCEOQOL3IFJDK1BV207", "dateTime": 1515890546719}, {"current_trial": 177, "trialdata": {"rt": -1, "trial_type": "single-stim", "word": "beef", "stimulus": "<p id=\"stim\">BEEF</p>", "conditions": [12, 1600, "v", 24000], "internal_node_id": "0.0-132.0", "trial": 4, "time_elapsed": 850032, "serialpos": 8, "key_press": -1, "wordID": 112, "type": "PRES_VIS", "trial_index": 177}, "uniqueid": "MTK1451:3QAPZX2QN5KBCEOQOL3IFJDK1BV207", "dateTime": 1515890549246}, {"current_trial": 178, "trialdata": {"rt": -1, "trial_type": "single-stim", "word": "portrait", "stimulus": "<p id=\"stim\">PORTRAIT</p>", "conditions": [12, 1600, "v", 24000], "internal_node_id": "0.0-133.0", "trial": 4, "time_elapsed": 852824, "serialpos": 9, "key_press": -1, "wordID": 1110, "type": "PRES_VIS", "trial_index": 178}, "uniqueid": "MTK1451:3QAPZX2QN5KBCEOQOL3IFJDK1BV207", "dateTime": 1515890552038}, {"current_trial": 179, "trialdata": {"rt": -1, "trial_type": "single-stim", "word": "soda", "stimulus": "<p id=\"stim\">SODA</p>", "conditions": [12, 1600, "v", 24000], "internal_node_id": "0.0-134.0", "trial": 4, "time_elapsed": 855611, "serialpos": 10, "key_press": -1, "wordID": 1340, "type": "PRES_VIS", "trial_index": 179}, "uniqueid": "MTK1451:3QAPZX2QN5KBCEOQOL3IFJDK1BV207", "dateTime": 1515890554825}, {"current_trial": 180, "trialdata": {"rt": -1, "trial_type": "single-stim", "word": "cloud", "stimulus": "<p id=\"stim\">CLOUD</p>", "conditions": [12, 1600, "v", 24000], "internal_node_id": "0.0-135.0", "trial": 4, "time_elapsed": 858350, "serialpos": 11, "key_press": -1, "wordID": 327, "type": "PRES_VIS", "trial_index": 180}, "uniqueid": "MTK1451:3QAPZX2QN5KBCEOQOL3IFJDK1BV207", "dateTime": 1515890557564}, {"current_trial": 181, "trialdata": {"rt": -1, "trial_type": "single-stim", "stimulus": "", "internal_node_id": "0.0-136.0-0.0", "time_elapsed": 860578, "key_press": -1, "type": "PRE_RECALL_DELAY", "trial_index": 181}, "uniqueid": "MTK1451:3QAPZX2QN5KBCEOQOL3IFJDK1BV207", "dateTime": 1515890559792}, {"current_trial": 182, "trialdata": {"rt": -1000, "trial_type": "single-audio", "stimulus": "/static/audio/400Hz.wav", "internal_node_id": "0.0-137.0", "time_elapsed": 861079, "key_press": -1, "type": "PRE_RECALL_ALERT", "trial_index": 182}, "uniqueid": "MTK1451:3QAPZX2QN5KBCEOQOL3IFJDK1BV207", "dateTime": 1515890560293}, {"current_trial": 183, "trialdata": {"rt": [2638, 5607, 8095, 12647, 19696], "recwords": ["cloud", "mammal", "wasp", "shark", "poet"], "key_times": [1447, 1671, 1967, 2143, 2431, 2638, 3134, 3294, 3478, 3606, 4935, 5127, 5607, 6839, 7063, 7207, 7671, 8095, 10710, 11006, 11150, 11526, 11895, 12647, 17407, 17671, 18255, 19071, 19696], "trial_type": "free-recall", "conditions": [12, 1600, "v", 24000], "internal_node_id": "0.0-138.0-0.0", "key_presses": [67, 76, 79, 85, 68, 13, 77, 65, 77, 77, 65, 76, 13, 87, 65, 83, 80, 13, 83, 72, 65, 82, 75, 13, 80, 79, 69, 84, 13], "trial": 4, "time_elapsed": 921085, "type": "FREE_RECALL", "trial_index": 183}, "uniqueid": "MTK1451:3QAPZX2QN5KBCEOQOL3IFJDK1BV207", "dateTime": 1515890620313}, {"current_trial": 184, "trialdata": {"rt": 1695, "trial_type": "text", "internal_node_id": "0.0-139.0", "time_elapsed": 924795, "key_press": 13, "type": "INSTRUCTIONS", "trial_index": 184}, "uniqueid": "MTK1451:3QAPZX2QN5KBCEOQOL3IFJDK1BV207", "dateTime": 1515890624009}, {"current_trial": 185, "trialdata": {"rt": [4172, 6924, 10012, 11836], "trial_type": "math-distractor", "key_times": [3828, 3924, 4172, 6509, 6748, 6924, 9333, 9684, 10012, 11548, 11836], "responses": ["16", "10", "19", "6"], "num2": [3, 1, 6, 4, 7], "num3": [8, 4, 8, 1, 1], "conditions": [24, 1600, "v", 12000], "internal_node_id": "0.0-140.0", "key_presses": [97, 102, 13, 97, 96, 13, 97, 105, 13, 102, 13], "trial": 5, "time_elapsed": 938799, "type": "DISTRACTOR", "trial_index": 185, "num1": [5, 5, 5, 1, 9]}, "uniqueid": "MTK1451:3QAPZX2QN5KBCEOQOL3IFJDK1BV207", "dateTime": 1515890638013}, {"current_trial": 186, "trialdata": {"rt": -1, "trial_type": "single-stim", "stimulus": "<p id=\"stim\">10</p>", "internal_node_id": "0.0-141.0-0.0", "time_elapsed": 941800, "key_press": -1, "trial_index": 186}, "uniqueid": "MTK1451:3QAPZX2QN5KBCEOQOL3IFJDK1BV207", "dateTime": 1515890641014}, {"current_trial": 187, "trialdata": {"rt": -1, "trial_type": "single-stim", "stimulus": "<p id=\"stim\">9</p>", "internal_node_id": "0.0-141.0-1.0", "time_elapsed": 942801, "key_press": -1, "trial_index": 187}, "uniqueid": "MTK1451:3QAPZX2QN5KBCEOQOL3IFJDK1BV207", "dateTime": 1515890642015}, {"current_trial": 188, "trialdata": {"rt": -1, "trial_type": "single-stim", "stimulus": "<p id=\"stim\">8</p>", "internal_node_id": "0.0-141.0-2.0", "time_elapsed": 943803, "key_press": -1, "trial_index": 188}, "uniqueid": "MTK1451:3QAPZX2QN5KBCEOQOL3IFJDK1BV207", "dateTime": 1515890643017}, {"current_trial": 189, "trialdata": {"rt": -1, "trial_type": "single-stim", "stimulus": "<p id=\"stim\">7</p>", "internal_node_id": "0.0-141.0-3.0", "time_elapsed": 944804, "key_press": -1, "trial_index": 189}, "uniqueid": "MTK1451:3QAPZX2QN5KBCEOQOL3IFJDK1BV207", "dateTime": 1515890644018}, {"current_trial": 190, "trialdata": {"rt": -1, "trial_type": "single-stim", "stimulus": "<p id=\"stim\">6</p>", "internal_node_id": "0.0-141.0-4.0", "time_elapsed": 945805, "key_press": -1, "trial_index": 190}, "uniqueid": "MTK1451:3QAPZX2QN5KBCEOQOL3IFJDK1BV207", "dateTime": 1515890645019}, {"current_trial": 191, "trialdata": {"rt": -1, "trial_type": "single-stim", "stimulus": "<p id=\"stim\">5</p>", "internal_node_id": "0.0-141.0-5.0", "time_elapsed": 946806, "key_press": -1, "trial_index": 191}, "uniqueid": "MTK1451:3QAPZX2QN5KBCEOQOL3IFJDK1BV207", "dateTime": 1515890646020}, {"current_trial": 192, "trialdata": {"rt": -1, "trial_type": "single-stim", "stimulus": "<p id=\"stim\">4</p>", "internal_node_id": "0.0-141.0-6.0", "time_elapsed": 947807, "key_press": -1, "trial_index": 192}, "uniqueid": "MTK1451:3QAPZX2QN5KBCEOQOL3IFJDK1BV207", "dateTime": 1515890647021}, {"current_trial": 193, "trialdata": {"rt": -1, "trial_type": "single-stim", "stimulus": "<p id=\"stim\">3</p>", "internal_node_id": "0.0-141.0-7.0", "time_elapsed": 948808, "key_press": -1, "trial_index": 193}, "uniqueid": "MTK1451:3QAPZX2QN5KBCEOQOL3IFJDK1BV207", "dateTime": 1515890648022}, {"current_trial": 194, "trialdata": {"rt": -1, "trial_type": "single-stim", "stimulus": "<p id=\"stim\">2</p>", "internal_node_id": "0.0-141.0-8.0", "time_elapsed": 949809, "key_press": -1, "trial_index": 194}, "uniqueid": "MTK1451:3QAPZX2QN5KBCEOQOL3IFJDK1BV207", "dateTime": 1515890649023}, {"current_trial": 195, "trialdata": {"rt": -1, "trial_type": "single-stim", "stimulus": "<p id=\"stim\">1</p>", "internal_node_id": "0.0-141.0-9.0", "time_elapsed": 950810, "key_press": -1, "trial_index": 195}, "uniqueid": "MTK1451:3QAPZX2QN5KBCEOQOL3IFJDK1BV207", "dateTime": 1515890650024}, {"current_trial": 196, "trialdata": {"rt": -1, "trial_type": "single-stim", "stimulus": "<p id=\"stim\">+</p>", "internal_node_id": "0.0-142.0-0.0", "time_elapsed": 952312, "key_press": -1, "type": "FIXATION", "trial_index": 196}, "uniqueid": "MTK1451:3QAPZX2QN5KBCEOQOL3IFJDK1BV207", "dateTime": 1515890651526}, {"current_trial": 197, "trialdata": {"rt": -1, "trial_type": "single-stim", "word": "machine", "stimulus": "<p id=\"stim\">MACHINE</p>", "conditions": [24, 1600, "v", 12000], "internal_node_id": "0.0-143.0", "trial": 5, "time_elapsed": 953913, "serialpos": 0, "key_press": -1, "wordID": 851, "type": "PRES_VIS", "trial_index": 197}, "uniqueid": "MTK1451:3QAPZX2QN5KBCEOQOL3IFJDK1BV207", "dateTime": 1515890653127}, {"current_trial": 198, "trialdata": {"rt": -1, "trial_type": "single-stim", "word": "liver", "stimulus": "<p id=\"stim\">LIVER</p>", "conditions": [24, 1600, "v", 12000], "internal_node_id": "0.0-144.0", "trial": 5, "time_elapsed": 956340, "serialpos": 1, "key_press": -1, "wordID": 832, "type": "PRES_VIS", "trial_index": 198}, "uniqueid": "MTK1451:3QAPZX2QN5KBCEOQOL3IFJDK1BV207", "dateTime": 1515890655554}, {"current_trial": 199, "trialdata": {"rt": -1, "trial_type": "single-stim", "word": "crater", "stimulus": "<p id=\"stim\">CRATER</p>", "conditions": [24, 1600, "v", 12000], "internal_node_id": "0.0-145.0", "trial": 5, "time_elapsed": 958958, "serialpos": 2, "key_press": -1, "wordID": 399, "type": "PRES_VIS", "trial_index": 199}, "uniqueid": "MTK1451:3QAPZX2QN5KBCEOQOL3IFJDK1BV207", "dateTime": 1515890658172}, {"current_trial": 200, "trialdata": {"rt": -1, "trial_type": "single-stim", "word": "brook", "stimulus": "<p id=\"stim\">BROOK</p>", "conditions": [24, 1600, "v", 12000], "internal_node_id": "0.0-146.0", "trial": 5, "time_elapsed": 961749, "serialpos": 3, "key_press": -1, "wordID": 176, "type": "PRES_VIS", "trial_index": 200}, "uniqueid": "MTK1451:3QAPZX2QN5KBCEOQOL3IFJDK1BV207", "dateTime": 1515890660963}, {"current_trial": 201, "trialdata": {"rt": -1, "trial_type": "single-stim", "word": "stone", "stimulus": "<p id=\"stim\">STONE</p>", "conditions": [24, 1600, "v", 12000], "internal_node_id": "0.0-147.0", "trial": 5, "time_elapsed": 964487, "serialpos": 4, "key_press": -1, "wordID": 1384, "type": "PRES_VIS", "trial_index": 201}, "uniqueid": "MTK1451:3QAPZX2QN5KBCEOQOL3IFJDK1BV207", "dateTime": 1515890663701}, {"current_trial": 202, "trialdata": {"rt": -1, "trial_type": "single-stim", "word": "lava", "stimulus": "<p id=\"stim\">LAVA</p>", "conditions": [24, 1600, "v", 12000], "internal_node_id": "0.0-148.0", "trial": 5, "time_elapsed": 967214, "serialpos": 5, "key_press": -1, "wordID": 803, "type": "PRES_VIS", "trial_index": 202}, "uniqueid": "MTK1451:3QAPZX2QN5KBCEOQOL3IFJDK1BV207", "dateTime": 1515890666429}, {"current_trial": 203, "trialdata": {"rt": -1, "trial_type": "single-stim", "word": "canal", "stimulus": "<p id=\"stim\">CANAL</p>", "conditions": [24, 1600, "v", 12000], "internal_node_id": "0.0-149.0", "trial": 5, "time_elapsed": 969664, "serialpos": 6, "key_press": -1, "wordID": 225, "type": "PRES_VIS", "trial_index": 203}, "uniqueid": "MTK1451:3QAPZX2QN5KBCEOQOL3IFJDK1BV207", "dateTime": 1515890668878}, {"current_trial": 204, "trialdata": {"rt": -1, "trial_type": "single-stim", "word": "icing", "stimulus": "<p id=\"stim\">ICING</p>", "conditions": [24, 1600, "v", 12000], "internal_node_id": "0.0-150.0", "trial": 5, "time_elapsed": 972461, "serialpos": 7, "key_press": -1, "wordID": 731, "type": "PRES_VIS", "trial_index": 204}, "uniqueid": "MTK1451:3QAPZX2QN5KBCEOQOL3IFJDK1BV207", "dateTime": 1515890671675}, {"current_trial": 205, "trialdata": {"rt": -1, "trial_type": "single-stim", "word": "dandruff", "stimulus": "<p id=\"stim\">DANDRUFF</p>", "conditions": [24, 1600, "v", 12000], "internal_node_id": "0.0-151.0", "trial": 5, "time_elapsed": 975160, "serialpos": 8, "key_press": -1, "wordID": 438, "type": "PRES_VIS", "trial_index": 205}, "uniqueid": "MTK1451:3QAPZX2QN5KBCEOQOL3IFJDK1BV207", "dateTime": 1515890674375}, {"current_trial": 206, "trialdata": {"rt": -1, "trial_type": "single-stim", "word": "parsley", "stimulus": "<p id=\"stim\">PARSLEY</p>", "conditions": [24, 1600, "v", 12000], "internal_node_id": "0.0-152.0", "trial": 5, "time_elapsed": 977910, "serialpos": 9, "key_press": -1, "wordID": 1015, "type": "PRES_VIS", "trial_index": 206}, "uniqueid": "MTK1451:3QAPZX2QN5KBCEOQOL3IFJDK1BV207", "dateTime": 1515890677125}, {"current_trial": 207, "trialdata": {"rt": -1, "trial_type": "single-stim", "word": "omelet", "stimulus": "<p id=\"stim\">OMELET</p>", "conditions": [24, 1600, "v", 12000], "internal_node_id": "0.0-153.0", "trial": 5, "time_elapsed": 980491, "serialpos": 10, "key_press": -1, "wordID": 975, "type": "PRES_VIS", "trial_index": 207}, "uniqueid": "MTK1451:3QAPZX2QN5KBCEOQOL3IFJDK1BV207", "dateTime": 1515890679705}, {"current_trial": 208, "trialdata": {"rt": -1, "trial_type": "single-stim", "word": "sandwich", "stimulus": "<p id=\"stim\">SANDWICH</p>", "conditions": [24, 1600, "v", 12000], "internal_node_id": "0.0-154.0", "trial": 5, "time_elapsed": 982895, "serialpos": 11, "key_press": -1, "wordID": 1231, "type": "PRES_VIS", "trial_index": 208}, "uniqueid": "MTK1451:3QAPZX2QN5KBCEOQOL3IFJDK1BV207", "dateTime": 1515890682109}, {"current_trial": 209, "trialdata": {"rt": -1, "trial_type": "single-stim", "word": "flute", "stimulus": "<p id=\"stim\">FLUTE</p>", "conditions": [24, 1600, "v", 12000], "internal_node_id": "0.0-155.0", "trial": 5, "time_elapsed": 985314, "serialpos": 12, "key_press": -1, "wordID": 584, "type": "PRES_VIS", "trial_index": 209}, "uniqueid": "MTK1451:3QAPZX2QN5KBCEOQOL3IFJDK1BV207", "dateTime": 1515890684528}, {"current_trial": 210, "trialdata": {"rt": -1, "trial_type": "single-stim", "word": "waitress", "stimulus": "<p id=\"stim\">WAITRESS</p>", "conditions": [24, 1600, "v", 12000], "internal_node_id": "0.0-156.0", "trial": 5, "time_elapsed": 988058, "serialpos": 13, "key_press": -1, "wordID": 1580, "type": "PRES_VIS", "trial_index": 210}, "uniqueid": "MTK1451:3QAPZX2QN5KBCEOQOL3IFJDK1BV207", "dateTime": 1515890687272}, {"current_trial": 211, "trialdata": {"rt": -1, "trial_type": "single-stim", "word": "flask", "stimulus": "<p id=\"stim\">FLASK</p>", "conditions": [24, 1600, "v", 12000], "internal_node_id": "0.0-157.0", "trial": 5, "time_elapsed": 990566, "serialpos": 14, "key_press": -1, "wordID": 575, "type": "PRES_VIS", "trial_index": 211}, "uniqueid": "MTK1451:3QAPZX2QN5KBCEOQOL3IFJDK1BV207", "dateTime": 1515890689780}, {"current_trial": 212, "trialdata": {"rt": -1, "trial_type": "single-stim", "word": "freckle", "stimulus": "<p id=\"stim\">FRECKLE</p>", "conditions": [24, 1600, "v", 12000], "internal_node_id": "0.0-158.0", "trial": 5, "time_elapsed": 993310, "serialpos": 15, "key_press": -1, "wordID": 601, "type": "PRES_VIS", "trial_index": 212}, "uniqueid": "MTK1451:3QAPZX2QN5KBCEOQOL3IFJDK1BV207", "dateTime": 1515890692524}, {"current_trial": 213, "trialdata": {"rt": -1, "trial_type": "single-stim", "word": "stamp", "stimulus": "<p id=\"stim\">STAMP</p>", "conditions": [24, 1600, "v", 12000], "internal_node_id": "0.0-159.0", "trial": 5, "time_elapsed": 996047, "serialpos": 16, "key_press": -1, "wordID": 1369, "type": "PRES_VIS", "trial_index": 213}, "uniqueid": "MTK1451:3QAPZX2QN5KBCEOQOL3IFJDK1BV207", "dateTime": 1515890695261}, {"current_trial": 214, "trialdata": {"rt": -1, "trial_type": "single-stim", "word": "beaker", "stimulus": "<p id=\"stim\">BEAKER</p>", "conditions": [24, 1600, "v", 12000], "internal_node_id": "0.0-160.0", "trial": 5, "time_elapsed": 998808, "serialpos": 17, "key_press": -1, "wordID": 103, "type": "PRES_VIS", "trial_index": 214}, "uniqueid": "MTK1451:3QAPZX2QN5KBCEOQOL3IFJDK1BV207", "dateTime": 1515890698022}, {"current_trial": 215, "trialdata": {"rt": -1, "trial_type": "single-stim", "word": "cyclone", "stimulus": "<p id=\"stim\">CYCLONE</p>", "conditions": [24, 1600, "v", 12000], "internal_node_id": "0.0-161.0", "trial": 5, "time_elapsed": 1001305, "serialpos": 18, "key_press": -1, "wordID": 430, "type": "PRES_VIS", "trial_index": 215}, "uniqueid": "MTK1451:3QAPZX2QN5KBCEOQOL3IFJDK1BV207", "dateTime": 1515890700519}, {"current_trial": 216, "trialdata": {"rt": -1, "trial_type": "single-stim", "word": "missile", "stimulus": "<p id=\"stim\">MISSILE</p>", "conditions": [24, 1600, "v", 12000], "internal_node_id": "0.0-162.0", "trial": 5, "time_elapsed": 1004027, "serialpos": 19, "key_press": -1, "wordID": 899, "type": "PRES_VIS", "trial_index": 216}, "uniqueid": "MTK1451:3QAPZX2QN5KBCEOQOL3IFJDK1BV207", "dateTime": 1515890703241}, {"current_trial": 217, "trialdata": {"rt": -1, "trial_type": "single-stim", "word": "tuba", "stimulus": "<p id=\"stim\">TUBA</p>", "conditions": [24, 1600, "v", 12000], "internal_node_id": "0.0-163.0", "trial": 5, "time_elapsed": 1006727, "serialpos": 20, "key_press": -1, "wordID": 1514, "type": "PRES_VIS", "trial_index": 217}, "uniqueid": "MTK1451:3QAPZX2QN5KBCEOQOL3IFJDK1BV207", "dateTime": 1515890705941}, {"current_trial": 218, "trialdata": {"rt": -1, "trial_type": "single-stim", "word": "harp", "stimulus": "<p id=\"stim\">HARP</p>", "conditions": [24, 1600, "v", 12000], "internal_node_id": "0.0-164.0", "trial": 5, "time_elapsed": 1009335, "serialpos": 21, "key_press": -1, "wordID": 688, "type": "PRES_VIS", "trial_index": 218}, "uniqueid": "MTK1451:3QAPZX2QN5KBCEOQOL3IFJDK1BV207", "dateTime": 1515890708549}, {"current_trial": 219, "trialdata": {"rt": -1, "trial_type": "single-stim", "word": "server", "stimulus": "<p id=\"stim\">SERVER</p>", "conditions": [24, 1600, "v", 12000], "internal_node_id": "0.0-165.0", "trial": 5, "time_elapsed": 1011927, "serialpos": 22, "key_press": -1, "wordID": 1271, "type": "PRES_VIS", "trial_index": 219}, "uniqueid": "MTK1451:3QAPZX2QN5KBCEOQOL3IFJDK1BV207", "dateTime": 1515890711141}, {"current_trial": 220, "trialdata": {"rt": -1, "trial_type": "single-stim", "word": "washer", "stimulus": "<p id=\"stim\">WASHER</p>", "conditions": [24, 1600, "v", 12000], "internal_node_id": "0.0-166.0", "trial": 5, "time_elapsed": 1014569, "serialpos": 23, "key_press": -1, "wordID": 1591, "type": "PRES_VIS", "trial_index": 220}, "uniqueid": "MTK1451:3QAPZX2QN5KBCEOQOL3IFJDK1BV207", "dateTime": 1515890713783}, {"current_trial": 221, "trialdata": {"rt": -1, "trial_type": "single-stim", "stimulus": "", "internal_node_id": "0.0-167.0-0.0", "time_elapsed": 1016888, "key_press": -1, "type": "PRE_RECALL_DELAY", "trial_index": 221}, "uniqueid": "MTK1451:3QAPZX2QN5KBCEOQOL3IFJDK1BV207", "dateTime": 1515890716103}, {"current_trial": 222, "trialdata": {"rt": -1000, "trial_type": "single-audio", "stimulus": "/static/audio/400Hz.wav", "internal_node_id": "0.0-168.0", "time_elapsed": 1017392, "key_press": -1, "type": "PRE_RECALL_ALERT", "trial_index": 222}, "uniqueid": "MTK1451:3QAPZX2QN5KBCEOQOL3IFJDK1BV207", "dateTime": 1515890716607}, {"current_trial": 223, "trialdata": {"rt": [3843, 5916, 8469, 13491, 17813, 21587, 25316, 28340, 35027, 38444, 43995, 48340, 53028, 59244], "recwords": ["washer", "server", "waitress", "beaker", "cyclone", "brook", "stone", "machine", "dandruff", "flute", "freckle", "parsley", "flask", "omlet"], "key_times": [1092, 1300, 2028, 2900, 3043, 3179, 3843, 4155, 4492, 4572, 5116, 5420, 5540, 5916, 6203, 6395, 6683, 6875, 7204, 7325, 7836, 8076, 8469, 12035, 12187, 12339, 12715, 13027, 13179, 13491, 14956, 15436, 15732, 16148, 16396, 17172, 17428, 17813, 19292, 19619, 19915, 20411, 20835, 20987, 21211, 21587, 22228, 22899, 23099, 23548, 25020, 25316, 25956, 26060, 26372, 26660, 26820, 26932, 27108, 28340, 30308, 32572, 32772, 33187, 33531, 34179, 34436, 34675, 35027, 36315, 36739, 37075, 37372, 37796, 38444, 41388, 41732, 41988, 42460, 42700, 42941, 43091, 43995, 45348, 45484, 46116, 46655, 46956, 47268, 47644, 48340, 49795, 50619, 50820, 51292, 52060, 53028, 55915, 56483, 56931, 57019, 57315, 59244], "trial_type": "free-recall", "conditions": [24, 1600, "v", 12000], "internal_node_id": "0.0-169.0-0.0", "key_presses": [87, 65, 83, 72, 69, 82, 13, 83, 69, 82, 86, 69, 82, 13, 87, 65, 73, 84, 82, 69, 83, 83, 13, 66, 69, 65, 75, 69, 82, 13, 67, 89, 67, 76, 79, 78, 69, 13, 66, 82, 82, 8, 79, 79, 75, 13, 83, 84, 79, 78, 69, 32, 77, 65, 67, 72, 73, 78, 69, 13, 68, 65, 78, 68, 82, 85, 70, 70, 13, 70, 76, 85, 84, 69, 13, 70, 82, 69, 67, 75, 76, 69, 13, 80, 65, 82, 83, 76, 69, 89, 13, 70, 76, 65, 83, 75, 13, 79, 77, 76, 69, 84, 13], "trial": 5, "time_elapsed": 1077399, "type": "FREE_RECALL", "trial_index": 223}, "uniqueid": "MTK1451:3QAPZX2QN5KBCEOQOL3IFJDK1BV207", "dateTime": 1515890776626}, {"current_trial": 224, "trialdata": {"rt": 5068, "trial_type": "text", "internal_node_id": "0.0-170.0", "time_elapsed": 1084481, "key_press": 13, "type": "INSTRUCTIONS", "trial_index": 224}, "uniqueid": "MTK1451:3QAPZX2QN5KBCEOQOL3IFJDK1BV207", "dateTime": 1515890783696}, {"current_trial": 225, "trialdata": {"rt": [2229, 5213, 7060, 8981, 11405, 15350, 17485, 20348, 22669], "trial_type": "math-distractor", "key_times": [1629, 1965, 2229, 4895, 5013, 5213, 6822, 7060, 8637, 8749, 8981, 11149, 11405, 15005, 15069, 15350, 17133, 17269, 17485, 20044, 20164, 20348, 22180, 22469, 22669], "responses": ["17", "20", "9", "12", "8", "16", "20", "21", "18"], "num2": [7, 8, 1, 7, 1, 8, 8, 9, 8, 7], "num3": [5, 3, 5, 3, 1, 7, 9, 5, 7, 2], "conditions": [24, 800, "v", 24000], "internal_node_id": "0.0-171.0", "key_presses": [97, 103, 13, 98, 96, 13, 105, 13, 97, 98, 13, 104, 13, 97, 102, 13, 98, 96, 13, 98, 97, 13, 97, 104, 13], "trial": 6, "time_elapsed": 1110486, "type": "DISTRACTOR", "trial_index": 225, "num1": [5, 9, 3, 2, 6, 1, 3, 7, 3, 6]}, "uniqueid": "MTK1451:3QAPZX2QN5KBCEOQOL3IFJDK1BV207", "dateTime": 1515890809700}, {"current_trial": 226, "trialdata": {"rt": -1, "trial_type": "single-stim", "stimulus": "<p id=\"stim\">10</p>", "internal_node_id": "0.0-172.0-0.0", "time_elapsed": 1113487, "key_press": -1, "trial_index": 226}, "uniqueid": "MTK1451:3QAPZX2QN5KBCEOQOL3IFJDK1BV207", "dateTime": 1515890812701}, {"current_trial": 227, "trialdata": {"rt": -1, "trial_type": "single-stim", "stimulus": "<p id=\"stim\">9</p>", "internal_node_id": "0.0-172.0-1.0", "time_elapsed": 1114488, "key_press": -1, "trial_index": 227}, "uniqueid": "MTK1451:3QAPZX2QN5KBCEOQOL3IFJDK1BV207", "dateTime": 1515890813702}, {"current_trial": 228, "trialdata": {"rt": -1, "trial_type": "single-stim", "stimulus": "<p id=\"stim\">8</p>", "internal_node_id": "0.0-172.0-2.0", "time_elapsed": 1115490, "key_press": -1, "trial_index": 228}, "uniqueid": "MTK1451:3QAPZX2QN5KBCEOQOL3IFJDK1BV207", "dateTime": 1515890814704}, {"current_trial": 229, "trialdata": {"rt": -1, "trial_type": "single-stim", "stimulus": "<p id=\"stim\">7</p>", "internal_node_id": "0.0-172.0-3.0", "time_elapsed": 1116491, "key_press": -1, "trial_index": 229}, "uniqueid": "MTK1451:3QAPZX2QN5KBCEOQOL3IFJDK1BV207", "dateTime": 1515890815705}, {"current_trial": 230, "trialdata": {"rt": -1, "trial_type": "single-stim", "stimulus": "<p id=\"stim\">6</p>", "internal_node_id": "0.0-172.0-4.0", "time_elapsed": 1117520, "key_press": -1, "trial_index": 230}, "uniqueid": "MTK1451:3QAPZX2QN5KBCEOQOL3IFJDK1BV207", "dateTime": 1515890816734}, {"current_trial": 231, "trialdata": {"rt": -1, "trial_type": "single-stim", "stimulus": "<p id=\"stim\">5</p>", "internal_node_id": "0.0-172.0-5.0", "time_elapsed": 1118522, "key_press": -1, "trial_index": 231}, "uniqueid": "MTK1451:3QAPZX2QN5KBCEOQOL3IFJDK1BV207", "dateTime": 1515890817736}, {"current_trial": 232, "trialdata": {"rt": -1, "trial_type": "single-stim", "stimulus": "<p id=\"stim\">4</p>", "internal_node_id": "0.0-172.0-6.0", "time_elapsed": 1119524, "key_press": -1, "trial_index": 232}, "uniqueid": "MTK1451:3QAPZX2QN5KBCEOQOL3IFJDK1BV207", "dateTime": 1515890818738}, {"current_trial": 233, "trialdata": {"rt": -1, "trial_type": "single-stim", "stimulus": "<p id=\"stim\">3</p>", "internal_node_id": "0.0-172.0-7.0", "time_elapsed": 1120524, "key_press": -1, "trial_index": 233}, "uniqueid": "MTK1451:3QAPZX2QN5KBCEOQOL3IFJDK1BV207", "dateTime": 1515890819738}, {"current_trial": 234, "trialdata": {"rt": -1, "trial_type": "single-stim", "stimulus": "<p id=\"stim\">2</p>", "internal_node_id": "0.0-172.0-8.0", "time_elapsed": 1121525, "key_press": -1, "trial_index": 234}, "uniqueid": "MTK1451:3QAPZX2QN5KBCEOQOL3IFJDK1BV207", "dateTime": 1515890820739}, {"current_trial": 235, "trialdata": {"rt": -1, "trial_type": "single-stim", "stimulus": "<p id=\"stim\">1</p>", "internal_node_id": "0.0-172.0-9.0", "time_elapsed": 1122526, "key_press": -1, "trial_index": 235}, "uniqueid": "MTK1451:3QAPZX2QN5KBCEOQOL3IFJDK1BV207", "dateTime": 1515890821740}, {"current_trial": 236, "trialdata": {"rt": -1, "trial_type": "single-stim", "stimulus": "<p id=\"stim\">+</p>", "internal_node_id": "0.0-173.0-0.0", "time_elapsed": 1124028, "key_press": -1, "type": "FIXATION", "trial_index": 236}, "uniqueid": "MTK1451:3QAPZX2QN5KBCEOQOL3IFJDK1BV207", "dateTime": 1515890823242}, {"current_trial": 237, "trialdata": {"rt": -1, "trial_type": "single-stim", "word": "scalpel", "stimulus": "<p id=\"stim\">SCALPEL</p>", "conditions": [24, 800, "v", 24000], "internal_node_id": "0.0-174.0", "trial": 6, "time_elapsed": 1124830, "serialpos": 0, "key_press": -1, "wordID": 1242, "type": "PRES_VIS", "trial_index": 237}, "uniqueid": "MTK1451:3QAPZX2QN5KBCEOQOL3IFJDK1BV207", "dateTime": 1515890824044}, {"current_trial": 238, "trialdata": {"rt": -1, "trial_type": "single-stim", "word": "farmer", "stimulus": "<p id=\"stim\">FARMER</p>", "conditions": [24, 800, "v", 24000], "internal_node_id": "0.0-175.0", "trial": 6, "time_elapsed": 1126824, "serialpos": 1, "key_press": -1, "wordID": 552, "type": "PRES_VIS", "trial_index": 238}, "uniqueid": "MTK1451:3QAPZX2QN5KBCEOQOL3IFJDK1BV207", "dateTime": 1515890826039}, {"current_trial": 239, "trialdata": {"rt": -1, "trial_type": "single-stim", "word": "pigeon", "stimulus": "<p id=\"stim\">PIGEON</p>", "conditions": [24, 800, "v", 24000], "internal_node_id": "0.0-176.0", "trial": 6, "time_elapsed": 1128486, "serialpos": 2, "key_press": -1, "wordID": 1064, "type": "PRES_VIS", "trial_index": 239}, "uniqueid": "MTK1451:3QAPZX2QN5KBCEOQOL3IFJDK1BV207", "dateTime": 1515890827700}, {"current_trial": 240, "trialdata": {"rt": -1, "trial_type": "single-stim", "word": "cattle", "stimulus": "<p id=\"stim\">CATTLE</p>", "conditions": [24, 800, "v", 24000], "internal_node_id": "0.0-177.0", "trial": 6, "time_elapsed": 1130105, "serialpos": 3, "key_press": -1, "wordID": 260, "type": "PRES_VIS", "trial_index": 240}, "uniqueid": "MTK1451:3QAPZX2QN5KBCEOQOL3IFJDK1BV207", "dateTime": 1515890829319}, {"current_trial": 241, "trialdata": {"rt": -1, "trial_type": "single-stim", "word": "victim", "stimulus": "<p id=\"stim\">VICTIM</p>", "conditions": [24, 800, "v", 24000], "internal_node_id": "0.0-178.0", "trial": 6, "time_elapsed": 1132013, "serialpos": 4, "key_press": -1, "wordID": 1561, "type": "PRES_VIS", "trial_index": 241}, "uniqueid": "MTK1451:3QAPZX2QN5KBCEOQOL3IFJDK1BV207", "dateTime": 1515890831228}, {"current_trial": 242, "trialdata": {"rt": -1, "trial_type": "single-stim", "word": "quail", "stimulus": "<p id=\"stim\">QUAIL</p>", "conditions": [24, 800, "v", 24000], "internal_node_id": "0.0-179.0", "trial": 6, "time_elapsed": 1133729, "serialpos": 5, "key_press": -1, "wordID": 1146, "type": "PRES_VIS", "trial_index": 242}, "uniqueid": "MTK1451:3QAPZX2QN5KBCEOQOL3IFJDK1BV207", "dateTime": 1515890832943}, {"current_trial": 243, "trialdata": {"rt": -1, "trial_type": "single-stim", "word": "lace", "stimulus": "<p id=\"stim\">LACE</p>", "conditions": [24, 800, "v", 24000], "internal_node_id": "0.0-180.0", "trial": 6, "time_elapsed": 1135701, "serialpos": 6, "key_press": -1, "wordID": 791, "type": "PRES_VIS", "trial_index": 243}, "uniqueid": "MTK1451:3QAPZX2QN5KBCEOQOL3IFJDK1BV207", "dateTime": 1515890834915}, {"current_trial": 244, "trialdata": {"rt": -1, "trial_type": "single-stim", "word": "church", "stimulus": "<p id=\"stim\">CHURCH</p>", "conditions": [24, 800, "v", 24000], "internal_node_id": "0.0-181.0", "trial": 6, "time_elapsed": 1137387, "serialpos": 7, "key_press": -1, "wordID": 306, "type": "PRES_VIS", "trial_index": 244}, "uniqueid": "MTK1451:3QAPZX2QN5KBCEOQOL3IFJDK1BV207", "dateTime": 1515890836601}, {"current_trial": 245, "trialdata": {"rt": -1, "trial_type": "single-stim", "word": "chapel", "stimulus": "<p id=\"stim\">CHAPEL</p>", "conditions": [24, 800, "v", 24000], "internal_node_id": "0.0-182.0", "trial": 6, "time_elapsed": 1139143, "serialpos": 8, "key_press": -1, "wordID": 279, "type": "PRES_VIS", "trial_index": 245}, "uniqueid": "MTK1451:3QAPZX2QN5KBCEOQOL3IFJDK1BV207", "dateTime": 1515890838357}, {"current_trial": 246, "trialdata": {"rt": -1, "trial_type": "single-stim", "word": "silk", "stimulus": "<p id=\"stim\">SILK</p>", "conditions": [24, 800, "v", 24000], "internal_node_id": "0.0-183.0", "trial": 6, "time_elapsed": 1140869, "serialpos": 9, "key_press": -1, "wordID": 1306, "type": "PRES_VIS", "trial_index": 246}, "uniqueid": "MTK1451:3QAPZX2QN5KBCEOQOL3IFJDK1BV207", "dateTime": 1515890840083}, {"current_trial": 247, "trialdata": {"rt": -1, "trial_type": "single-stim", "word": "quarter", "stimulus": "<p id=\"stim\">QUARTER</p>", "conditions": [24, 800, "v", 24000], "internal_node_id": "0.0-184.0", "trial": 6, "time_elapsed": 1142866, "serialpos": 10, "key_press": -1, "wordID": 1147, "type": "PRES_VIS", "trial_index": 247}, "uniqueid": "MTK1451:3QAPZX2QN5KBCEOQOL3IFJDK1BV207", "dateTime": 1515890842080}, {"current_trial": 248, "trialdata": {"rt": -1, "trial_type": "single-stim", "word": "sponge", "stimulus": "<p id=\"stim\">SPONGE</p>", "conditions": [24, 800, "v", 24000], "internal_node_id": "0.0-185.0", "trial": 6, "time_elapsed": 1144663, "serialpos": 11, "key_press": -1, "wordID": 1354, "type": "PRES_VIS", "trial_index": 248}, "uniqueid": "MTK1451:3QAPZX2QN5KBCEOQOL3IFJDK1BV207", "dateTime": 1515890843878}, {"current_trial": 249, "trialdata": {"rt": -1, "trial_type": "single-stim", "word": "typist", "stimulus": "<p id=\"stim\">TYPIST</p>", "conditions": [24, 800, "v", 24000], "internal_node_id": "0.0-186.0", "trial": 6, "time_elapsed": 1146542, "serialpos": 12, "key_press": -1, "wordID": 1531, "type": "PRES_VIS", "trial_index": 249}, "uniqueid": "MTK1451:3QAPZX2QN5KB