{"assignmentId": "3JZQSN0I3RHSOCBNQI7SKUUPJAYGFB", "workerId": "MTK1865", "questiondata": {"avail_screen_height": 677, "color_depth": 24, "screen_width": 1366, "pixel_depth": 24, "avail_screen_width": 1366, "screen_height": 768}, "bonus": 0, "hitId": "3HY86PZXPYP1RZNUNMXH659ZNFL1EW", "counterbalance": 2683, "useragent": "Mozilla/5.0 (Macintosh; Intel Mac OS X 10_11_6) AppleWebKit/537.36 (KHTML, like Gecko) Chrome/62.0.3202.94 Safari/537.36", "eventdata": [{"eventtype": "initialized", "interval": 0, "value": null, "timestamp": 1516482128331}, {"eventtype": "window_resize", "interval": 0, "value": [1366, 626], "timestamp": 1516482128331}, {"eventtype": "focus", "interval": 1134966, "value": "off", "timestamp": 1516483263297}, {"eventtype": "focus", "interval": 6952, "value": "on", "timestamp": 1516483270249}, {"eventtype": "focus", "interval": 55926, "value": "off", "timestamp": 1516483326175}, {"eventtype": "focus", "interval": 23626, "value": "on", "timestamp": 1516483349801}], "data": [{"current_trial": 0, "trialdata": {"rt": 2983, "trial_type": "text", "internal_node_id": "0.0-0.0", "time_elapsed": 2987, "key_press": 32, "type": "INSTRUCTIONS", "trial_index": 0}, "uniqueid": "MTK1865:3JZQSN0I3RHSOCBNQI7SKUUPJAYGFB", "dateTime": 1516482162882}, {"current_trial": 1, "trialdata": {"rt": 10727, "trial_type": "text", "internal_node_id": "0.0-1.0", "time_elapsed": 13716, "key_press": 32, "type": "INSTRUCTIONS", "trial_index": 1}, "uniqueid": "MTK1865:3JZQSN0I3RHSOCBNQI7SKUUPJAYGFB", "dateTime": 1516482173610}, {"current_trial": 2, "trialdata": {"rt": [6837], "trial_type": "audio-test", "responses": ["ocean"], "internal_node_id": "0.0-2.0", "time_elapsed": 20564, "type": "AUDIO_TEST", "trial_index": 2}, "uniqueid": "MTK1865:3JZQSN0I3RHSOCBNQI7SKUUPJAYGFB", "dateTime": 1516482180458}, {"current_trial": 3, "trialdata": {"rt": [5604], "trial_type": "audio-test", "responses": ["crystal"], "internal_node_id": "0.0-3.0", "time_elapsed": 26174, "type": "AUDIO_TEST", "trial_index": 3}, "uniqueid": "MTK1865:3JZQSN0I3RHSOCBNQI7SKUUPJAYGFB", "dateTime": 1516482186069}, {"current_trial": 4, "trialdata": {"rt": [4898], "trial_type": "audio-test", "responses": ["spice"], "internal_node_id": "0.0-4.0", "time_elapsed": 31078, "type": "AUDIO_TEST", "trial_index": 4}, "uniqueid": "MTK1865:3JZQSN0I3RHSOCBNQI7SKUUPJAYGFB", "dateTime": 1516482190972}, {"current_trial": 5, "trialdata": {"rt": 19766, "trial_type": "survey-text", "responses": "{\"Q0\":\"9:30pm\",\"Q1\":\"7:00am\",\"Q2\":\"3\"}", "internal_node_id": "0.0-5.0", "time_elapsed": 51602, "type": "SLEEP_SURVEY", "trial_index": 5}, "uniqueid": "MTK1865:3JZQSN0I3RHSOCBNQI7SKUUPJAYGFB", "dateTime": 1516482211497}, {"current_trial": 6, "trialdata": {"rt": 12234, "trial_type": "text", "internal_node_id": "0.0-6.0", "time_elapsed": 64841, "key_press": 32, "type": "INSTRUCTIONS", "trial_index": 6}, "uniqueid": "MTK1865:3JZQSN0I3RHSOCBNQI7SKUUPJAYGFB", "dateTime": 1516482224736}, {"current_trial": 7, "trialdata": {"rt": 8474, "trial_type": "text", "internal_node_id": "0.0-7.0", "time_elapsed": 73819, "key_press": 32, "type": "INSTRUCTIONS", "trial_index": 7}, "uniqueid": "MTK1865:3JZQSN0I3RHSOCBNQI7SKUUPJAYGFB", "dateTime": 1516482233713}, {"current_trial": 8, "trialdata": {"rt": 3472, "trial_type": "text", "internal_node_id": "0.0-8.0", "time_elapsed": 77792, "key_press": 32, "type": "INSTRUCTIONS", "trial_index": 8}, "uniqueid": "MTK1865:3JZQSN0I3RHSOCBNQI7SKUUPJAYGFB", "dateTime": 1516482237686}, {"current_trial": 9, "trialdata": {"rt": [4343, 7946, 9807, 13226, 15118, 17448], "trial_type": "math-distractor", "key_times": [3933, 4044, 4343, 7104, 7423, 7946, 9568, 9807, 13006, 13130, 13226, 14704, 14978, 15118, 17079, 17179, 17448], "responses": ["13", "17", "8", "21", "15", "18"], "num2": [6, 5, 1, 8, 7, 9, 3], "num3": [3, 9, 1, 7, 5, 4, 3], "conditions": [18, 1200, "a", 18000], "internal_node_id": "0.0-9.0", "key_presses": [49, 51, 13, 49, 55, 13, 56, 13, 50, 49, 13, 49, 53, 13, 49, 56, 13], "trial": 0, "time_elapsed": 96806, "type": "DISTRACTOR", "trial_index": 9, "num1": [4, 3, 6, 6, 3, 5, 2]}, "uniqueid": "MTK1865:3JZQSN0I3RHSOCBNQI7SKUUPJAYGFB", "dateTime": 1516482256700}, {"current_trial": 10, "trialdata": {"rt": -1, "trial_type": "single-stim", "stimulus": "<p id=\"stim\">10</p>", "internal_node_id": "0.0-10.0-0.0", "time_elapsed": 99812, "key_press": -1, "trial_index": 10}, "uniqueid": "MTK1865:3JZQSN0I3RHSOCBNQI7SKUUPJAYGFB", "dateTime": 1516482259707}, {"current_trial": 11, "trialdata": {"rt": -1, "trial_type": "single-stim", "stimulus": "<p id=\"stim\">9</p>", "internal_node_id": "0.0-10.0-1.0", "time_elapsed": 100816, "key_press": -1, "trial_index": 11}, "uniqueid": "MTK1865:3JZQSN0I3RHSOCBNQI7SKUUPJAYGFB", "dateTime": 1516482260710}, {"current_trial": 12, "trialdata": {"rt": -1, "trial_type": "single-stim", "stimulus": "<p id=\"stim\">8</p>", "internal_node_id": "0.0-10.0-2.0", "time_elapsed": 101820, "key_press": -1, "trial_index": 12}, "uniqueid": "MTK1865:3JZQSN0I3RHSOCBNQI7SKUUPJAYGFB", "dateTime": 1516482261714}, {"current_trial": 13, "trialdata": {"rt": -1, "trial_type": "single-stim", "stimulus": "<p id=\"stim\">7</p>", "internal_node_id": "0.0-10.0-3.0", "time_elapsed": 102824, "key_press": -1, "trial_index": 13}, "uniqueid": "MTK1865:3JZQSN0I3RHSOCBNQI7SKUUPJAYGFB", "dateTime": 1516482262718}, {"current_trial": 14, "trialdata": {"rt": -1, "trial_type": "single-stim", "stimulus": "<p id=\"stim\">6</p>", "internal_node_id": "0.0-10.0-4.0", "time_elapsed": 103829, "key_press": -1, "trial_index": 14}, "uniqueid": "MTK1865:3JZQSN0I3RHSOCBNQI7SKUUPJAYGFB", "dateTime": 1516482263723}, {"current_trial": 15, "trialdata": {"rt": -1, "trial_type": "single-stim", "stimulus": "<p id=\"stim\">5</p>", "internal_node_id": "0.0-10.0-5.0", "time_elapsed": 104833, "key_press": -1, "trial_index": 15}, "uniqueid": "MTK1865:3JZQSN0I3RHSOCBNQI7SKUUPJAYGFB", "dateTime": 1516482264727}, {"current_trial": 16, "trialdata": {"rt": -1, "trial_type": "single-stim", "stimulus": "<p id=\"stim\">4</p>", "internal_node_id": "0.0-10.0-6.0", "time_elapsed": 105837, "key_press": -1, "trial_index": 16}, "uniqueid": "MTK1865:3JZQSN0I3RHSOCBNQI7SKUUPJAYGFB", "dateTime": 1516482265731}, {"current_trial": 17, "trialdata": {"rt": -1, "trial_type": "single-stim", "stimulus": "<p id=\"stim\">3</p>", "internal_node_id": "0.0-10.0-7.0", "time_elapsed": 106842, "key_press": -1, "trial_index": 17}, "uniqueid": "MTK1865:3JZQSN0I3RHSOCBNQI7SKUUPJAYGFB", "dateTime": 1516482266736}, {"current_trial": 18, "trialdata": {"rt": -1, "trial_type": "single-stim", "stimulus": "<p id=\"stim\">2</p>", "internal_node_id": "0.0-10.0-8.0", "time_elapsed": 107845, "key_press": -1, "trial_index": 18}, "uniqueid": "MTK1865:3JZQSN0I3RHSOCBNQI7SKUUPJAYGFB", "dateTime": 1516482267739}, {"current_trial": 19, "trialdata": {"rt": -1, "trial_type": "single-stim", "stimulus": "<p id=\"stim\">1</p>", "internal_node_id": "0.0-10.0-9.0", "time_elapsed": 108849, "key_press": -1, "trial_index": 19}, "uniqueid": "MTK1865:3JZQSN0I3RHSOCBNQI7SKUUPJAYGFB", "dateTime": 1516482268743}, {"current_trial": 20, "trialdata": {"rt": -1, "trial_type": "single-stim", "stimulus": "<p id=\"stim\">+</p>", "internal_node_id": "0.0-11.0-0.0", "time_elapsed": 110352, "key_press": -1, "type": "FIXATION", "trial_index": 20}, "uniqueid": "MTK1865:3JZQSN0I3RHSOCBNQI7SKUUPJAYGFB", "dateTime": 1516482270247}, {"current_trial": 21, "trialdata": {"rt": -1000, "trial_type": "single-audio", "word": "stallion", "stimulus": "/static/audio/wordpool/STALLION.wav", "conditions": [18, 1200, "a", 18000], "internal_node_id": "0.0-12.0", "trial": 0, "time_elapsed": 112403, "serialpos": 0, "key_press": -1, "wordID": 1368, "type": "PRES_AUD", "trial_index": 21}, "uniqueid": "MTK1865:3JZQSN0I3RHSOCBNQI7SKUUPJAYGFB", "dateTime": 1516482272297}, {"current_trial": 22, "trialdata": {"rt": -1000, "trial_type": "single-audio", "word": "plate", "stimulus": "/static/audio/wordpool/PLATE.wav", "conditions": [18, 1200, "a", 18000], "internal_node_id": "0.0-13.0", "trial": 0, "time_elapsed": 114591, "serialpos": 1, "key_press": -1, "wordID": 1085, "type": "PRES_AUD", "trial_index": 22}, "uniqueid": "MTK1865:3JZQSN0I3RHSOCBNQI7SKUUPJAYGFB", "dateTime": 1516482274485}, {"current_trial": 23, "trialdata": {"rt": -1000, "trial_type": "single-audio", "word": "piano", "stimulus": "/static/audio/wordpool/PIANO.wav", "conditions": [18, 1200, "a", 18000], "internal_node_id": "0.0-14.0", "trial": 0, "time_elapsed": 116720, "serialpos": 2, "key_press": -1, "wordID": 1056, "type": "PRES_AUD", "trial_index": 23}, "uniqueid": "MTK1865:3JZQSN0I3RHSOCBNQI7SKUUPJAYGFB", "dateTime": 1516482276614}, {"current_trial": 24, "trialdata": {"rt": -1000, "trial_type": "single-audio", "word": "softball", "stimulus": "/static/audio/wordpool/SOFTBALL.wav", "conditions": [18, 1200, "a", 18000], "internal_node_id": "0.0-15.0", "trial": 0, "time_elapsed": 119038, "serialpos": 3, "key_press": -1, "wordID": 1342, "type": "PRES_AUD", "trial_index": 24}, "uniqueid": "MTK1865:3JZQSN0I3RHSOCBNQI7SKUUPJAYGFB", "dateTime": 1516482278932}, {"current_trial": 25, "trialdata": {"rt": -1000, "trial_type": "single-audio", "word": "subway", "stimulus": "/static/audio/wordpool/SUBWAY.wav", "conditions": [18, 1200, "a", 18000], "internal_node_id": "0.0-16.0", "trial": 0, "time_elapsed": 121247, "serialpos": 4, "key_press": -1, "wordID": 1399, "type": "PRES_AUD", "trial_index": 25}, "uniqueid": "MTK1865:3JZQSN0I3RHSOCBNQI7SKUUPJAYGFB", "dateTime": 1516482281141}, {"current_trial": 26, "trialdata": {"rt": -1000, "trial_type": "single-audio", "word": "gallon", "stimulus": "/static/audio/wordpool/GALLON.wav", "conditions": [18, 1200, "a", 18000], "internal_node_id": "0.0-17.0", "trial": 0, "time_elapsed": 123601, "serialpos": 5, "key_press": -1, "wordID": 617, "type": "PRES_AUD", "trial_index": 26}, "uniqueid": "MTK1865:3JZQSN0I3RHSOCBNQI7SKUUPJAYGFB", "dateTime": 1516482283495}, {"current_trial": 27, "trialdata": {"rt": -1000, "trial_type": "single-audio", "word": "carriage", "stimulus": "/static/audio/wordpool/CARRIAGE.wav", "conditions": [18, 1200, "a", 18000], "internal_node_id": "0.0-18.0", "trial": 0, "time_elapsed": 125894, "serialpos": 6, "key_press": -1, "wordID": 247, "type": "PRES_AUD", "trial_index": 27}, "uniqueid": "MTK1865:3JZQSN0I3RHSOCBNQI7SKUUPJAYGFB", "dateTime": 1516482285788}, {"current_trial": 28, "trialdata": {"rt": -1000, "trial_type": "single-audio", "word": "europe", "stimulus": "/static/audio/wordpool/EUROPE.wav", "conditions": [18, 1200, "a", 18000], "internal_node_id": "0.0-19.0", "trial": 0, "time_elapsed": 128100, "serialpos": 7, "key_press": -1, "wordID": 540, "type": "PRES_AUD", "trial_index": 28}, "uniqueid": "MTK1865:3JZQSN0I3RHSOCBNQI7SKUUPJAYGFB", "dateTime": 1516482287994}, {"current_trial": 29, "trialdata": {"rt": -1000, "trial_type": "single-audio", "word": "kitchen", "stimulus": "/static/audio/wordpool/KITCHEN.wav", "conditions": [18, 1200, "a", 18000], "internal_node_id": "0.0-20.0", "trial": 0, "time_elapsed": 130248, "serialpos": 8, "key_press": -1, "wordID": 777, "type": "PRES_AUD", "trial_index": 29}, "uniqueid": "MTK1865:3JZQSN0I3RHSOCBNQI7SKUUPJAYGFB", "dateTime": 1516482290142}, {"current_trial": 30, "trialdata": {"rt": -1000, "trial_type": "single-audio", "word": "clamp", "stimulus": "/static/audio/wordpool/CLAMP.wav", "conditions": [18, 1200, "a", 18000], "internal_node_id": "0.0-21.0", "trial": 0, "time_elapsed": 132459, "serialpos": 9, "key_press": -1, "wordID": 315, "type": "PRES_AUD", "trial_index": 30}, "uniqueid": "MTK1865:3JZQSN0I3RHSOCBNQI7SKUUPJAYGFB", "dateTime": 1516482292354}, {"current_trial": 31, "trialdata": {"rt": -1000, "trial_type": "single-audio", "word": "rebel", "stimulus": "/static/audio/wordpool/REBEL.wav", "conditions": [18, 1200, "a", 18000], "internal_node_id": "0.0-22.0", "trial": 0, "time_elapsed": 134735, "serialpos": 10, "key_press": -1, "wordID": 1171, "type": "PRES_AUD", "trial_index": 31}, "uniqueid": "MTK1865:3JZQSN0I3RHSOCBNQI7SKUUPJAYGFB", "dateTime": 1516482294630}, {"current_trial": 32, "trialdata": {"rt": -1000, "trial_type": "single-audio", "word": "cobra", "stimulus": "/static/audio/wordpool/COBRA.wav", "conditions": [18, 1200, "a", 18000], "internal_node_id": "0.0-23.0", "trial": 0, "time_elapsed": 136825, "serialpos": 11, "key_press": -1, "wordID": 335, "type": "PRES_AUD", "trial_index": 32}, "uniqueid": "MTK1865:3JZQSN0I3RHSOCBNQI7SKUUPJAYGFB", "dateTime": 1516482296719}, {"current_trial": 33, "trialdata": {"rt": -1000, "trial_type": "single-audio", "word": "lumber", "stimulus": "/static/audio/wordpool/LUMBER.wav", "conditions": [18, 1200, "a", 18000], "internal_node_id": "0.0-24.0", "trial": 0, "time_elapsed": 138979, "serialpos": 12, "key_press": -1, "wordID": 847, "type": "PRES_AUD", "trial_index": 33}, "uniqueid": "MTK1865:3JZQSN0I3RHSOCBNQI7SKUUPJAYGFB", "dateTime": 1516482298873}, {"current_trial": 34, "trialdata": {"rt": -1000, "trial_type": "single-audio", "word": "pasta", "stimulus": "/static/audio/wordpool/PASTA.wav", "conditions": [18, 1200, "a", 18000], "internal_node_id": "0.0-25.0", "trial": 0, "time_elapsed": 141144, "serialpos": 13, "key_press": -1, "wordID": 1020, "type": "PRES_AUD", "trial_index": 34}, "uniqueid": "MTK1865:3JZQSN0I3RHSOCBNQI7SKUUPJAYGFB", "dateTime": 1516482301038}, {"current_trial": 35, "trialdata": {"rt": -1000, "trial_type": "single-audio", "word": "pilot", "stimulus": "/static/audio/wordpool/PILOT.wav", "conditions": [18, 1200, "a", 18000], "internal_node_id": "0.0-26.0", "trial": 0, "time_elapsed": 143323, "serialpos": 14, "key_press": -1, "wordID": 1069, "type": "PRES_AUD", "trial_index": 35}, "uniqueid": "MTK1865:3JZQSN0I3RHSOCBNQI7SKUUPJAYGFB", "dateTime": 1516482303217}, {"current_trial": 36, "trialdata": {"rt": -1000, "trial_type": "single-audio", "word": "bouquet", "stimulus": "/static/audio/wordpool/BOUQUET.wav", "conditions": [18, 1200, "a", 18000], "internal_node_id": "0.0-27.0", "trial": 0, "time_elapsed": 145585, "serialpos": 15, "key_press": -1, "wordID": 156, "type": "PRES_AUD", "trial_index": 36}, "uniqueid": "MTK1865:3JZQSN0I3RHSOCBNQI7SKUUPJAYGFB", "dateTime": 1516482305479}, {"current_trial": 37, "trialdata": {"rt": -1000, "trial_type": "single-audio", "word": "machine", "stimulus": "/static/audio/wordpool/MACHINE.wav", "conditions": [18, 1200, "a", 18000], "internal_node_id": "0.0-28.0", "trial": 0, "time_elapsed": 147924, "serialpos": 16, "key_press": -1, "wordID": 851, "type": "PRES_AUD", "trial_index": 37}, "uniqueid": "MTK1865:3JZQSN0I3RHSOCBNQI7SKUUPJAYGFB", "dateTime": 1516482307818}, {"current_trial": 38, "trialdata": {"rt": -1000, "trial_type": "single-audio", "word": "quail", "stimulus": "/static/audio/wordpool/QUAIL.wav", "conditions": [18, 1200, "a", 18000], "internal_node_id": "0.0-29.0", "trial": 0, "time_elapsed": 150288, "serialpos": 17, "key_press": -1, "wordID": 1146, "type": "PRES_AUD", "trial_index": 38}, "uniqueid": "MTK1865:3JZQSN0I3RHSOCBNQI7SKUUPJAYGFB", "dateTime": 1516482310183}, {"current_trial": 39, "trialdata": {"rt": -1, "trial_type": "single-stim", "stimulus": "", "internal_node_id": "0.0-30.0-0.0", "time_elapsed": 151622, "key_press": -1, "type": "PRE_RECALL_DELAY", "trial_index": 39}, "uniqueid": "MTK1865:3JZQSN0I3RHSOCBNQI7SKUUPJAYGFB", "dateTime": 1516482311516}, {"current_trial": 40, "trialdata": {"rt": -1000, "trial_type": "single-audio", "stimulus": "/static/audio/400Hz.wav", "internal_node_id": "0.0-31.0", "time_elapsed": 152124, "key_press": -1, "type": "PRE_RECALL_ALERT", "trial_index": 40}, "uniqueid": "MTK1865:3JZQSN0I3RHSOCBNQI7SKUUPJAYGFB", "dateTime": 1516482312018}, {"current_trial": 41, "trialdata": {"rt": [2470, 3975, 5107, 7553, 8605, 10865, 14289, 22861, 28721], "recwords": ["stallion", "kitchen", "europe", "clamp", "pasta", "quail", "plate", "lumber", "piano"], "key_times": [1052, 1312, 1541, 1673, 1814, 1989, 2152, 2260, 2470, 3016, 3196, 3304, 3521, 3621, 3686, 3797, 3975, 4336, 4460, 4602, 4734, 4838, 4950, 5107, 6154, 6389, 6734, 6976, 7096, 7204, 7328, 7553, 7878, 7986, 8102, 8222, 8389, 8605, 10001, 10249, 10430, 10516, 10660, 10865, 13818, 13937, 14013, 14101, 14177, 14289, 16723, 17293, 21692, 21913, 22174, 22433, 22621, 22717, 22861, 28037, 28172, 28292, 28432, 28528, 28721], "trial_type": "free-recall", "conditions": [18, 1200, "a", 18000], "internal_node_id": "0.0-32.0-0.0", "key_presses": [83, 84, 65, 76, 76, 73, 79, 78, 13, 75, 73, 84, 67, 72, 69, 78, 13, 69, 85, 82, 79, 80, 69, 13, 67, 65, 8, 76, 65, 77, 80, 13, 80, 65, 83, 84, 65, 13, 81, 85, 65, 73, 76, 13, 80, 76, 65, 84, 69, 13, 76, 8, 76, 85, 77, 66, 69, 82, 13, 80, 73, 65, 78, 79, 13], "trial": 0, "time_elapsed": 212132, "type": "FREE_RECALL", "trial_index": 41}, "uniqueid": "MTK1865:3JZQSN0I3RHSOCBNQI7SKUUPJAYGFB", "dateTime": 1516482372036}, {"current_trial": 42, "trialdata": {"rt": 1656, "trial_type": "text", "internal_node_id": "0.0-33.0", "time_elapsed": 215801, "key_press": 32, "type": "INSTRUCTIONS", "trial_index": 42}, "uniqueid": "MTK1865:3JZQSN0I3RHSOCBNQI7SKUUPJAYGFB", "dateTime": 1516482375696}, {"current_trial": 43, "trialdata": {"rt": [3010, 5215, 7155, 9128, 10499, 12748, 14890, 16514], "trial_type": "math-distractor", "key_times": [2637, 2749, 3010, 4756, 4852, 5215, 6916, 6988, 7155, 8471, 8591, 9128, 10270, 10366, 10499, 12520, 12596, 12748, 14321, 14626, 14890, 16228, 16373, 16514], "responses": ["19", "14", "13", "19", "14", "14", "10", "11"], "num2": [6, 6, 6, 4, 5, 9, 2, 4, 3], "num3": [4, 2, 5, 6, 5, 3, 4, 5, 9], "conditions": [18, 1200, "a", 18000], "internal_node_id": "0.0-34.0", "key_presses": [49, 57, 13, 49, 52, 13, 49, 51, 13, 49, 57, 13, 49, 52, 13, 49, 52, 13, 49, 48, 13, 49, 49, 13], "trial": 1, "time_elapsed": 235812, "type": "DISTRACTOR", "trial_index": 43, "num1": [9, 6, 3, 9, 4, 3, 4, 2, 2]}, "uniqueid": "MTK1865:3JZQSN0I3RHSOCBNQI7SKUUPJAYGFB", "dateTime": 1516482395706}, {"current_trial": 44, "trialdata": {"rt": -1, "trial_type": "single-stim", "stimulus": "<p id=\"stim\">10</p>", "internal_node_id": "0.0-35.0-0.0", "time_elapsed": 238818, "key_press": -1, "trial_index": 44}, "uniqueid": "MTK1865:3JZQSN0I3RHSOCBNQI7SKUUPJAYGFB", "dateTime": 1516482398712}, {"current_trial": 45, "trialdata": {"rt": -1, "trial_type": "single-stim", "stimulus": "<p id=\"stim\">9</p>", "internal_node_id": "0.0-35.0-1.0", "time_elapsed": 239822, "key_press": -1, "trial_index": 45}, "uniqueid": "MTK1865:3JZQSN0I3RHSOCBNQI7SKUUPJAYGFB", "dateTime": 1516482399716}, {"current_trial": 46, "trialdata": {"rt": -1, "trial_type": "single-stim", "stimulus": "<p id=\"stim\">8</p>", "internal_node_id": "0.0-35.0-2.0", "time_elapsed": 240826, "key_press": -1, "trial_index": 46}, "uniqueid": "MTK1865:3JZQSN0I3RHSOCBNQI7SKUUPJAYGFB", "dateTime": 1516482400720}, {"current_trial": 47, "trialdata": {"rt": -1, "trial_type": "single-stim", "stimulus": "<p id=\"stim\">7</p>", "internal_node_id": "0.0-35.0-3.0", "time_elapsed": 241830, "key_press": -1, "trial_index": 47}, "uniqueid": "MTK1865:3JZQSN0I3RHSOCBNQI7SKUUPJAYGFB", "dateTime": 1516482401725}, {"current_trial": 48, "trialdata": {"rt": -1, "trial_type": "single-stim", "stimulus": "<p id=\"stim\">6</p>", "internal_node_id": "0.0-35.0-4.0", "time_elapsed": 242835, "key_press": -1, "trial_index": 48}, "uniqueid": "MTK1865:3JZQSN0I3RHSOCBNQI7SKUUPJAYGFB", "dateTime": 1516482402729}, {"current_trial": 49, "trialdata": {"rt": -1, "trial_type": "single-stim", "stimulus": "<p id=\"stim\">5</p>", "internal_node_id": "0.0-35.0-5.0", "time_elapsed": 243839, "key_press": -1, "trial_index": 49}, "uniqueid": "MTK1865:3JZQSN0I3RHSOCBNQI7SKUUPJAYGFB", "dateTime": 1516482403733}, {"current_trial": 50, "trialdata": {"rt": -1, "trial_type": "single-stim", "stimulus": "<p id=\"stim\">4</p>", "internal_node_id": "0.0-35.0-6.0", "time_elapsed": 244843, "key_press": -1, "trial_index": 50}, "uniqueid": "MTK1865:3JZQSN0I3RHSOCBNQI7SKUUPJAYGFB", "dateTime": 1516482404737}, {"current_trial": 51, "trialdata": {"rt": -1, "trial_type": "single-stim", "stimulus": "<p id=\"stim\">3</p>", "internal_node_id": "0.0-35.0-7.0", "time_elapsed": 245847, "key_press": -1, "trial_index": 51}, "uniqueid": "MTK1865:3JZQSN0I3RHSOCBNQI7SKUUPJAYGFB", "dateTime": 1516482405741}, {"current_trial": 52, "trialdata": {"rt": -1, "trial_type": "single-stim", "stimulus": "<p id=\"stim\">2</p>", "internal_node_id": "0.0-35.0-8.0", "time_elapsed": 246851, "key_press": -1, "trial_index": 52}, "uniqueid": "MTK1865:3JZQSN0I3RHSOCBNQI7SKUUPJAYGFB", "dateTime": 1516482406745}, {"current_trial": 53, "trialdata": {"rt": -1, "trial_type": "single-stim", "stimulus": "<p id=\"stim\">1</p>", "internal_node_id": "0.0-35.0-9.0", "time_elapsed": 247855, "key_press": -1, "trial_index": 53}, "uniqueid": "MTK1865:3JZQSN0I3RHSOCBNQI7SKUUPJAYGFB", "dateTime": 1516482407749}, {"current_trial": 54, "trialdata": {"rt": -1, "trial_type": "single-stim", "stimulus": "<p id=\"stim\">+</p>", "internal_node_id": "0.0-36.0-0.0", "time_elapsed": 249358, "key_press": -1, "type": "FIXATION", "trial_index": 54}, "uniqueid": "MTK1865:3JZQSN0I3RHSOCBNQI7SKUUPJAYGFB", "dateTime": 1516482409262}, {"current_trial": 55, "trialdata": {"rt": -1000, "trial_type": "single-audio", "word": "ghetto", "stimulus": "/static/audio/wordpool/GHETTO.wav", "conditions": [18, 1200, "a", 18000], "internal_node_id": "0.0-37.0", "trial": 1, "time_elapsed": 251479, "serialpos": 0, "key_press": -1, "wordID": 632, "type": "PRES_AUD", "trial_index": 55}, "uniqueid": "MTK1865:3JZQSN0I3RHSOCBNQI7SKUUPJAYGFB", "dateTime": 1516482411386}, {"current_trial": 56, "trialdata": {"rt": -1000, "trial_type": "single-audio", "word": "widow", "stimulus": "/static/audio/wordpool/WIDOW.wav", "conditions": [18, 1200, "a", 18000], "internal_node_id": "0.0-38.0", "trial": 1, "time_elapsed": 253830, "serialpos": 1, "key_press": -1, "wordID": 1607, "type": "PRES_AUD", "trial_index": 56}, "uniqueid": "MTK1865:3JZQSN0I3RHSOCBNQI7SKUUPJAYGFB", "dateTime": 1516482413724}, {"current_trial": 57, "trialdata": {"rt": -1000, "trial_type": "single-audio", "word": "lightning", "stimulus": "/static/audio/wordpool/LIGHTNING.wav", "conditions": [18, 1200, "a", 18000], "internal_node_id": "0.0-39.0", "trial": 1, "time_elapsed": 256038, "serialpos": 2, "key_press": -1, "wordID": 819, "type": "PRES_AUD", "trial_index": 57}, "uniqueid": "MTK1865:3JZQSN0I3RHSOCBNQI7SKUUPJAYGFB", "dateTime": 1516482415933}, {"current_trial": 58, "trialdata": {"rt": -1000, "trial_type": "single-audio", "word": "dorm", "stimulus": "/static/audio/wordpool/DORM.wav", "conditions": [18, 1200, "a", 18000], "internal_node_id": "0.0-40.0", "trial": 1, "time_elapsed": 258289, "serialpos": 3, "key_press": -1, "wordID": 487, "type": "PRES_AUD", "trial_index": 58}, "uniqueid": "MTK1865:3JZQSN0I3RHSOCBNQI7SKUUPJAYGFB", "dateTime": 1516482418183}, {"current_trial": 59, "trialdata": {"rt": -1000, "trial_type": "single-audio", "word": "peach", "stimulus": "/static/audio/wordpool/PEACH.wav", "conditions": [18, 1200, "a", 18000], "internal_node_id": "0.0-41.0", "trial": 1, "time_elapsed": 260373, "serialpos": 4, "key_press": -1, "wordID": 1030, "type": "PRES_AUD", "trial_index": 59}, "uniqueid": "MTK1865:3JZQSN0I3RHSOCBNQI7SKUUPJAYGFB", "dateTime": 1516482420267}, {"current_trial": 60, "trialdata": {"rt": -1000, "trial_type": "single-audio", "word": "freezer", "stimulus": "/static/audio/wordpool/FREEZER.wav", "conditions": [18, 1200, "a", 18000], "internal_node_id": "0.0-42.0", "trial": 1, "time_elapsed": 262689, "serialpos": 5, "key_press": -1, "wordID": 603, "type": "PRES_AUD", "trial_index": 60}, "uniqueid": "MTK1865:3JZQSN0I3RHSOCBNQI7SKUUPJAYGFB", "dateTime": 1516482422583}, {"current_trial": 61, "trialdata": {"rt": -1000, "trial_type": "single-audio", "word": "badge", "stimulus": "/static/audio/wordpool/BADGE.wav", "conditions": [18, 1200, "a", 18000], "internal_node_id": "0.0-43.0", "trial": 1, "time_elapsed": 265081, "serialpos": 6, "key_press": -1, "wordID": 67, "type": "PRES_AUD", "trial_index": 61}, "uniqueid": "MTK1865:3JZQSN0I3RHSOCBNQI7SKUUPJAYGFB", "dateTime": 1516482424975}, {"current_trial": 62, "trialdata": {"rt": -1000, "trial_type": "single-audio", "word": "jelly", "stimulus": "/static/audio/wordpool/JELLY.wav", "conditions": [18, 1200, "a", 18000], "internal_node_id": "0.0-44.0", "trial": 1, "time_elapsed": 267089, "serialpos": 7, "key_press": -1, "wordID": 754, "type": "PRES_AUD", "trial_index": 62}, "uniqueid": "MTK1865:3JZQSN0I3RHSOCBNQI7SKUUPJAYGFB", "dateTime": 1516482426983}, {"current_trial": 63, "trialdata": {"rt": -1000, "trial_type": "single-audio", "word": "crib", "stimulus": "/static/audio/wordpool/CRIB.wav", "conditions": [18, 1200, "a", 18000], "internal_node_id": "0.0-45.0", "trial": 1, "time_elapsed": 269162, "serialpos": 8, "key_press": -1, "wordID": 406, "type": "PRES_AUD", "trial_index": 63}, "uniqueid": "MTK1865:3JZQSN0I3RHSOCBNQI7SKUUPJAYGFB", "dateTime": 1516482429056}, {"current_trial": 64, "trialdata": {"rt": -1000, "trial_type": "single-audio", "word": "actress", "stimulus": "/static/audio/wordpool/ACTRESS.wav", "conditions": [18, 1200, "a", 18000], "internal_node_id": "0.0-46.0", "trial": 1, "time_elapsed": 271385, "serialpos": 9, "key_press": -1, "wordID": 5, "type": "PRES_AUD", "trial_index": 64}, "uniqueid": "MTK1865:3JZQSN0I3RHSOCBNQI7SKUUPJAYGFB", "dateTime": 1516482431279}, {"current_trial": 65, "trialdata": {"rt": -1000, "trial_type": "single-audio", "word": "eagle", "stimulus": "/static/audio/wordpool/EAGLE.wav", "conditions": [18, 1200, "a", 18000], "internal_node_id": "0.0-47.0", "trial": 1, "time_elapsed": 273701, "serialpos": 10, "key_press": -1, "wordID": 511, "type": "PRES_AUD", "trial_index": 65}, "uniqueid": "MTK1865:3JZQSN0I3RHSOCBNQI7SKUUPJAYGFB", "dateTime": 1516482433596}, {"current_trial": 66, "trialdata": {"rt": -1000, "trial_type": "single-audio", "word": "ground", "stimulus": "/static/audio/wordpool/GROUND.wav", "conditions": [18, 1200, "a", 18000], "internal_node_id": "0.0-48.0", "trial": 1, "time_elapsed": 275814, "serialpos": 11, "key_press": -1, "wordID": 665, "type": "PRES_AUD", "trial_index": 66}, "uniqueid": "MTK1865:3JZQSN0I3RHSOCBNQI7SKUUPJAYGFB", "dateTime": 1516482435708}, {"current_trial": 67, "trialdata": {"rt": -1000, "trial_type": "single-audio", "word": "sidewalk", "stimulus": "/static/audio/wordpool/SIDEWALK.wav", "conditions": [18, 1200, "a", 18000], "internal_node_id": "0.0-49.0", "trial": 1, "time_elapsed": 277893, "serialpos": 12, "key_press": -1, "wordID": 1302, "type": "PRES_AUD", "trial_index": 67}, "uniqueid": "MTK1865:3JZQSN0I3RHSOCBNQI7SKUUPJAYGFB", "dateTime": 1516482437787}, {"current_trial": 68, "trialdata": {"rt": -1000, "trial_type": "single-audio", "word": "drill", "stimulus": "/static/audio/wordpool/DRILL.wav", "conditions": [18, 1200, "a", 18000], "internal_node_id": "0.0-50.0", "trial": 1, "time_elapsed": 280087, "serialpos": 13, "key_press": -1, "wordID": 496, "type": "PRES_AUD", "trial_index": 68}, "uniqueid": "MTK1865:3JZQSN0I3RHSOCBNQI7SKUUPJAYGFB", "dateTime": 1516482439981}, {"current_trial": 69, "trialdata": {"rt": -1000, "trial_type": "single-audio", "word": "clock", "stimulus": "/static/audio/wordpool/CLOCK.wav", "conditions": [18, 1200, "a", 18000], "internal_node_id": "0.0-51.0", "trial": 1, "time_elapsed": 282293, "serialpos": 14, "key_press": -1, "wordID": 324, "type": "PRES_AUD", "trial_index": 69}, "uniqueid": "MTK1865:3JZQSN0I3RHSOCBNQI7SKUUPJAYGFB", "dateTime": 1516482442187}, {"current_trial": 70, "trialdata": {"rt": -1000, "trial_type": "single-audio", "word": "perfume", "stimulus": "/static/audio/wordpool/PERFUME.wav", "conditions": [18, 1200, "a", 18000], "internal_node_id": "0.0-52.0", "trial": 1, "time_elapsed": 284650, "serialpos": 15, "key_press": -1, "wordID": 1048, "type": "PRES_AUD", "trial_index": 70}, "uniqueid": "MTK1865:3JZQSN0I3RHSOCBNQI7SKUUPJAYGFB", "dateTime": 1516482444544}, {"current_trial": 71, "trialdata": {"rt": -1000, "trial_type": "single-audio", "word": "stream", "stimulus": "/static/audio/wordpool/STREAM.wav", "conditions": [18, 1200, "a", 18000], "internal_node_id": "0.0-53.0", "trial": 1, "time_elapsed": 286741, "serialpos": 16, "key_press": -1, "wordID": 1391, "type": "PRES_AUD", "trial_index": 71}, "uniqueid": "MTK1865:3JZQSN0I3RHSOCBNQI7SKUUPJAYGFB", "dateTime": 1516482446635}, {"current_trial": 72, "trialdata": {"rt": -1000, "trial_type": "single-audio", "word": "barrel", "stimulus": "/static/audio/wordpool/BARREL.wav", "conditions": [18, 1200, "a", 18000], "internal_node_id": "0.0-54.0", "trial": 1, "time_elapsed": 289013, "serialpos": 17, "key_press": -1, "wordID": 90, "type": "PRES_AUD", "trial_index": 72}, "uniqueid": "MTK1865:3JZQSN0I3RHSOCBNQI7SKUUPJAYGFB", "dateTime": 1516482448907}, {"current_trial": 73, "trialdata": {"rt": -1, "trial_type": "single-stim", "stimulus": "", "internal_node_id": "0.0-55.0-0.0", "time_elapsed": 290325, "key_press": -1, "type": "PRE_RECALL_DELAY", "trial_index": 73}, "uniqueid": "MTK1865:3JZQSN0I3RHSOCBNQI7SKUUPJAYGFB", "dateTime": 1516482450219}, {"current_trial": 74, "trialdata": {"rt": -1000, "trial_type": "single-audio", "stimulus": "/static/audio/400Hz.wav", "internal_node_id": "0.0-56.0", "time_elapsed": 290827, "key_press": -1, "type": "PRE_RECALL_ALERT", "trial_index": 74}, "uniqueid": "MTK1865:3JZQSN0I3RHSOCBNQI7SKUUPJAYGFB", "dateTime": 1516482450721}, {"current_trial": 75, "trialdata": {"rt": [2555, 3675, 5047, 6999, 9060, 9887, 14014, 14814], "recwords": ["peach", "barrel", "stream", "ghetto", "lightning", "dorm", "freezer", "crib"], "key_times": [1997, 2052, 2172, 2297, 2365, 2555, 2903, 3040, 3096, 3240, 3342, 3491, 3675, 4330, 4434, 4617, 4697, 4749, 4845, 5047, 6233, 6326, 6393, 6501, 6603, 6687, 6999, 7362, 7490, 7566, 7791, 8167, 8377, 8493, 8650, 8738, 8862, 8922, 9060, 9453, 9545, 9658, 9745, 9887, 11374, 11574, 11751, 11929, 13423, 13782, 13906, 14014, 14269, 14465, 14553, 14641, 14814], "trial_type": "free-recall", "conditions": [18, 1200, "a", 18000], "internal_node_id": "0.0-57.0-0.0", "key_presses": [80, 69, 65, 67, 72, 13, 66, 65, 82, 82, 69, 76, 13, 83, 84, 82, 69, 65, 77, 13, 71, 72, 69, 84, 84, 79, 13, 76, 73, 71, 84, 8, 72, 84, 78, 73, 78, 71, 13, 68, 79, 82, 77, 13, 70, 82, 69, 69, 90, 69, 82, 13, 67, 82, 73, 66, 13], "trial": 1, "time_elapsed": 350836, "type": "FREE_RECALL", "trial_index": 75}, "uniqueid": "MTK1865:3JZQSN0I3RHSOCBNQI7SKUUPJAYGFB", "dateTime": 1516482510732}, {"current_trial": 76, "trialdata": {"rt": 3231, "trial_type": "text", "internal_node_id": "0.0-58.0", "time_elapsed": 356076, "key_press": 32, "type": "INSTRUCTIONS", "trial_index": 76}, "uniqueid": "MTK1865:3JZQSN0I3RHSOCBNQI7SKUUPJAYGFB", "dateTime": 1516482515970}, {"current_trial": 77, "trialdata": {"rt": [2721, 4517, 6507, 8492, 10122, 12011, 13498, 15570, 17076, 19442, 20780], "trial_type": "math-distractor", "key_times": [2341, 2481, 2721, 3838, 4235, 4517, 6200, 6304, 6507, 8333, 8413, 8492, 9749, 10122, 11729, 11876, 12011, 13239, 13370, 13498, 15398, 15466, 15570, 16907, 17076, 18688, 19233, 19442, 20470, 20591, 20780, 23983], "responses": ["17", "16", "17", "21", "9", "11", "11", "13", "9", "17", "11"], "num2": [9, 7, 9, 5, 3, 5, 2, 1, 1, 9, 1, 7], "num3": [2, 7, 5, 9, 3, 5, 1, 4, 7, 3, 1, 7], "conditions": [24, 1600, "a", 24000], "internal_node_id": "0.0-59.0", "key_presses": [49, 55, 13, 49, 54, 13, 49, 55, 13, 50, 49, 13, 57, 13, 49, 49, 13, 49, 49, 13, 49, 51, 13, 57, 13, 49, 55, 13, 49, 49, 13, 49], "trial": 2, "time_elapsed": 381085, "type": "DISTRACTOR", "trial_index": 77, "num1": [6, 2, 3, 9, 3, 1, 8, 8, 1, 5, 9, 1]}, "uniqueid": "MTK1865:3JZQSN0I3RHSOCBNQI7SKUUPJAYGFB", "dateTime": 1516482540979}, {"current_trial": 78, "trialdata": {"rt": -1, "trial_type": "single-stim", "stimulus": "<p id=\"stim\">10</p>", "internal_node_id": "0.0-60.0-0.0", "time_elapsed": 384093, "key_press": -1, "trial_index": 78}, "uniqueid": "MTK1865:3JZQSN0I3RHSOCBNQI7SKUUPJAYGFB", "dateTime": 1516482543988}, {"current_trial": 79, "trialdata": {"rt": -1, "trial_type": "single-stim", "stimulus": "<p id=\"stim\">9</p>", "internal_node_id": "0.0-60.0-1.0", "time_elapsed": 385097, "key_press": -1, "trial_index": 79}, "uniqueid": "MTK1865:3JZQSN0I3RHSOCBNQI7SKUUPJAYGFB", "dateTime": 1516482544992}, {"current_trial": 80, "trialdata": {"rt": -1, "trial_type": "single-stim", "stimulus": "<p id=\"stim\">8</p>", "internal_node_id": "0.0-60.0-2.0", "time_elapsed": 386102, "key_press": -1, "trial_index": 80}, "uniqueid": "MTK1865:3JZQSN0I3RHSOCBNQI7SKUUPJAYGFB", "dateTime": 1516482545996}, {"current_trial": 81, "trialdata": {"rt": -1, "trial_type": "single-stim", "stimulus": "<p id=\"stim\">7</p>", "internal_node_id": "0.0-60.0-3.0", "time_elapsed": 387106, "key_press": -1, "trial_index": 81}, "uniqueid": "MTK1865:3JZQSN0I3RHSOCBNQI7SKUUPJAYGFB", "dateTime": 1516482547000}, {"current_trial": 82, "trialdata": {"rt": -1, "trial_type": "single-stim", "stimulus": "<p id=\"stim\">6</p>", "internal_node_id": "0.0-60.0-4.0", "time_elapsed": 388110, "key_press": -1, "trial_index": 82}, "uniqueid": "MTK1865:3JZQSN0I3RHSOCBNQI7SKUUPJAYGFB", "dateTime": 1516482548004}, {"current_trial": 83, "trialdata": {"rt": -1, "trial_type": "single-stim", "stimulus": "<p id=\"stim\">5</p>", "internal_node_id": "0.0-60.0-5.0", "time_elapsed": 389114, "key_press": -1, "trial_index": 83}, "uniqueid": "MTK1865:3JZQSN0I3RHSOCBNQI7SKUUPJAYGFB", "dateTime": 1516482549008}, {"current_trial": 84, "trialdata": {"rt": -1, "trial_type": "single-stim", "stimulus": "<p id=\"stim\">4</p>", "internal_node_id": "0.0-60.0-6.0", "time_elapsed": 390118, "key_press": -1, "trial_index": 84}, "uniqueid": "MTK1865:3JZQSN0I3RHSOCBNQI7SKUUPJAYGFB", "dateTime": 1516482550012}, {"current_trial": 85, "trialdata": {"rt": -1, "trial_type": "single-stim", "stimulus": "<p id=\"stim\">3</p>", "internal_node_id": "0.0-60.0-7.0", "time_elapsed": 391122, "key_press": -1, "trial_index": 85}, "uniqueid": "MTK1865:3JZQSN0I3RHSOCBNQI7SKUUPJAYGFB", "dateTime": 1516482551017}, {"current_trial": 86, "trialdata": {"rt": -1, "trial_type": "single-stim", "stimulus": "<p id=\"stim\">2</p>", "internal_node_id": "0.0-60.0-8.0", "time_elapsed": 392126, "key_press": -1, "trial_index": 86}, "uniqueid": "MTK1865:3JZQSN0I3RHSOCBNQI7SKUUPJAYGFB", "dateTime": 1516482552020}, {"current_trial": 87, "trialdata": {"rt": -1, "trial_type": "single-stim", "stimulus": "<p id=\"stim\">1</p>", "internal_node_id": "0.0-60.0-9.0", "time_elapsed": 393132, "key_press": -1, "trial_index": 87}, "uniqueid": "MTK1865:3JZQSN0I3RHSOCBNQI7SKUUPJAYGFB", "dateTime": 1516482553026}, {"current_trial": 88, "trialdata": {"rt": -1, "trial_type": "single-stim", "stimulus": "<p id=\"stim\">+</p>", "internal_node_id": "0.0-61.0-0.0", "time_elapsed": 394634, "key_press": -1, "type": "FIXATION", "trial_index": 88}, "uniqueid": "MTK1865:3JZQSN0I3RHSOCBNQI7SKUUPJAYGFB", "dateTime": 1516482554528}, {"current_trial": 89, "trialdata": {"rt": -1000, "trial_type": "single-audio", "word": "wagon", "stimulus": "/static/audio/wordpool/WAGON.wav", "conditions": [24, 1600, "a", 24000], "internal_node_id": "0.0-62.0", "trial": 2, "time_elapsed": 397103, "serialpos": 0, "key_press": -1, "wordID": 1577, "type": "PRES_AUD", "trial_index": 89}, "uniqueid": "MTK1865:3JZQSN0I3RHSOCBNQI7SKUUPJAYGFB", "dateTime": 1516482556998}, {"current_trial": 90, "trialdata": {"rt": -1000, "trial_type": "single-audio", "word": "lipstick", "stimulus": "/static/audio/wordpool/LIPSTICK.wav", "conditions": [24, 1600, "a", 24000], "internal_node_id": "0.0-63.0", "trial": 2, "time_elapsed": 399530, "serialpos": 1, "key_press": -1, "wordID": 828, "type": "PRES_AUD", "trial_index": 90}, "uniqueid": "MTK1865:3JZQSN0I3RHSOCBNQI7SKUUPJAYGFB", "dateTime": 1516482559424}, {"current_trial": 91, "trialdata": {"rt": -1000, "trial_type": "single-audio", "word": "mailman", "stimulus": "/static/audio/wordpool/MAILMAN.wav", "conditions": [24, 1600, "a", 24000], "internal_node_id": "0.0-64.0", "trial": 2, "time_elapsed": 401956, "serialpos": 2, "key_press": -1, "wordID": 857, "type": "PRES_AUD", "trial_index": 91}, "uniqueid": "MTK1865:3JZQSN0I3RHSOCBNQI7SKUUPJAYGFB", "dateTime": 1516482561850}, {"current_trial": 92, "trialdata": {"rt": -1000, "trial_type": "single-audio", "word": "pebble", "stimulus": "/static/audio/wordpool/PEBBLE.wav", "conditions": [24, 1600, "a", 24000], "internal_node_id": "0.0-65.0", "trial": 2, "time_elapsed": 404528, "serialpos": 3, "key_press": -1, "wordID": 1034, "type": "PRES_AUD", "trial_index": 92}, "uniqueid": "MTK1865:3JZQSN0I3RHSOCBNQI7SKUUPJAYGFB", "dateTime": 1516482564422}, {"current_trial": 93, "trialdata": {"rt": -1000, "trial_type": "single-audio", "word": "turtle", "stimulus": "/static/audio/wordpool/TURTLE.wav", "conditions": [24, 1600, "a", 24000], "internal_node_id": "0.0-66.0", "trial": 2, "time_elapsed": 407181, "serialpos": 4, "key_press": -1, "wordID": 1521, "type": "PRES_AUD", "trial_index": 93}, "uniqueid": "MTK1865:3JZQSN0I3RHSOCBNQI7SKUUPJAYGFB", "dateTime": 1516482567075}, {"current_trial": 94, "trialdata": {"rt": -1000, "trial_type": "single-audio", "word": "eyelash", "stimulus": "/static/audio/wordpool/EYELASH.wav", "conditions": [24, 1600, "a", 24000], "internal_node_id": "0.0-67.0", "trial": 2, "time_elapsed": 409967, "serialpos": 5, "key_press": -1, "wordID": 545, "type": "PRES_AUD", "trial_index": 94}, "uniqueid": "MTK1865:3JZQSN0I3RHSOCBNQI7SKUUPJAYGFB", "dateTime": 1516482569862}, {"current_trial": 95, "trialdata": {"rt": -1000, "trial_type": "single-audio", "word": "pliers", "stimulus": "/static/audio/wordpool/PLIERS.wav", "conditions": [24, 1600, "a", 24000], "internal_node_id": "0.0-68.0", "trial": 2, "time_elapsed": 412771, "serialpos": 6, "key_press": -1, "wordID": 1088, "type": "PRES_AUD", "trial_index": 95}, "uniqueid": "MTK1865:3JZQSN0I3RHSOCBNQI7SKUUPJAYGFB", "dateTime": 1516482572665}, {"current_trial": 96, "trialdata": {"rt": -1000, "trial_type": "single-audio", "word": "garlic", "stimulus": "/static/audio/wordpool/GARLIC.wav", "conditions": [24, 1600, "a", 24000], "internal_node_id": "0.0-69.0", "trial": 2, "time_elapsed": 415482, "serialpos": 7, "key_press": -1, "wordID": 623, "type": "PRES_AUD", "trial_index": 96}, "uniqueid": "MTK1865:3JZQSN0I3RHSOCBNQI7SKUUPJAYGFB", "dateTime": 1516482575376}, {"current_trial": 97, "trialdata": {"rt": -1000, "trial_type": "single-audio", "word": "lettuce", "stimulus": "/static/audio/wordpool/LETTUCE.wav", "conditions": [24, 1600, "a", 24000], "internal_node_id": "0.0-70.0", "trial": 2, "time_elapsed": 417954, "serialpos": 8, "key_press": -1, "wordID": 813, "type": "PRES_AUD", "trial_index": 97}, "uniqueid": "MTK1865:3JZQSN0I3RHSOCBNQI7SKUUPJAYGFB", "dateTime": 1516482577848}, {"current_trial": 98, "trialdata": {"rt": -1000, "trial_type": "single-audio", "word": "camel", "stimulus": "/static/audio/wordpool/CAMEL.wav", "conditions": [24, 1600, "a", 24000], "internal_node_id": "0.0-71.0", "trial": 2, "time_elapsed": 420366, "serialpos": 9, "key_press": -1, "wordID": 222, "type": "PRES_AUD", "trial_index": 98}, "uniqueid": "MTK1865:3JZQSN0I3RHSOCBNQI7SKUUPJAYGFB", "dateTime": 1516482580260}, {"current_trial": 99, "trialdata": {"rt": -1000, "trial_type": "single-audio", "word": "shirt", "stimulus": "/static/audio/wordpool/SHIRT.wav", "conditions": [24, 1600, "a", 24000], "internal_node_id": "0.0-72.0", "trial": 2, "time_elapsed": 422927, "serialpos": 10, "key_press": -1, "wordID": 1286, "type": "PRES_AUD", "trial_index": 99}, "uniqueid": "MTK1865:3JZQSN0I3RHSOCBNQI7SKUUPJAYGFB", "dateTime": 1516482582821}, {"current_trial": 100, "trialdata": {"rt": -1000, "trial_type": "single-audio", "word": "mailbox", "stimulus": "/static/audio/wordpool/MAILBOX.wav", "conditions": [24, 1600, "a", 24000], "internal_node_id": "0.0-73.0", "trial": 2, "time_elapsed": 425612, "serialpos": 11, "key_press": -1, "wordID": 856, "type": "PRES_AUD", "trial_index": 100}, "uniqueid": "MTK1865:3JZQSN0I3RHSOCBNQI7SKUUPJAYGFB", "dateTime": 1516482585506}, {"current_trial": 101, "trialdata": {"rt": -1000, "trial_type": "single-audio", "word": "costume", "stimulus": "/static/audio/wordpool/COSTUME.wav", "conditions": [24, 1600, "a", 24000], "internal_node_id": "0.0-74.0", "trial": 2, "time_elapsed": 428253, "serialpos": 12, "key_press": -1, "wordID": 382, "type": "PRES_AUD", "trial_index": 101}, "uniqueid": "MTK1865:3JZQSN0I3RHSOCBNQI7SKUUPJAYGFB", "dateTime": 1516482588148}, {"current_trial": 102, "trialdata": {"rt": -1000, "trial_type": "single-audio", "word": "sunrise", "stimulus": "/static/audio/wordpool/SUNRISE.wav", "conditions": [24, 1600, "a", 24000], "internal_node_id": "0.0-75.0", "trial": 2, "time_elapsed": 430785, "serialpos": 13, "key_press": -1, "wordID": 1406, "type": "PRES_AUD", "trial_index": 102}, "uniqueid": "MTK1865:3JZQSN0I3RHSOCBNQI7SKUUPJAYGFB", "dateTime": 1516482590679}, {"current_trial": 103, "trialdata": {"rt": -1000, "trial_type": "single-audio", "word": "finger", "stimulus": "/static/audio/wordpool/FINGER.wav", "conditions": [24, 1600, "a", 24000], "internal_node_id": "0.0-76.0", "trial": 2, "time_elapsed": 433350, "serialpos": 14, "key_press": -1, "wordID": 566, "type": "PRES_AUD", "trial_index": 103}, "uniqueid": "MTK1865:3JZQSN0I3RHSOCBNQI7SKUUPJAYGFB", "dateTime": 1516482593244}, {"current_trial": 104, "trialdata": {"rt": -1000, "trial_type": "single-audio", "word": "dress", "stimulus": "/static/audio/wordpool/DRESS.wav", "conditions": [24, 1600, "a", 24000], "internal_node_id": "0.0-77.0", "trial": 2, "time_elapsed": 435957, "serialpos": 15, "key_press": -1, "wordID": 494, "type": "PRES_AUD", "trial_index": 104}, "uniqueid": "MTK1865:3JZQSN0I3RHSOCBNQI7SKUUPJAYGFB", "dateTime": 1516482595851}, {"current_trial": 105, "trialdata": {"rt": -1000, "trial_type": "single-audio", "word": "partner", "stimulus": "/static/audio/wordpool/PARTNER.wav", "conditions": [24, 1600, "a", 24000], "internal_node_id": "0.0-78.0", "trial": 2, "time_elapsed": 438401, "serialpos": 16, "key_press": -1, "wordID": 1016, "type": "PRES_AUD", "trial_index": 105}, "uniqueid": "MTK1865:3JZQSN0I3RHSOCBNQI7SKUUPJAYGFB", "dateTime": 1516482598295}, {"current_trial": 106, "trialdata": {"rt": -1000, "trial_type": "single-audio", "word": "tractor", "stimulus": "/static/audio/wordpool/TRACTOR.wav", "conditions": [24, 1600, "a", 24000], "internal_node_id": "0.0-79.0", "trial": 2, "time_elapsed": 441106, "serialpos": 17, "key_press": -1, "wordID": 1492, "type": "PRES_AUD", "trial_index": 106}, "uniqueid": "MTK1865:3JZQSN0I3RHSOCBNQI7SKUUPJAYGFB", "dateTime": 1516482601000}, {"current_trial": 107, "trialdata": {"rt": -1000, "trial_type": "single-audio", "word": "truck", "stimulus": "/static/audio/wordpool/TRUCK.wav", "conditions": [24, 1600, "a", 24000], "internal_node_id": "0.0-80.0", "trial": 2, "time_elapsed": 443753, "serialpos": 18, "key_press": -1, "wordID": 1511, "type": "PRES_AUD", "trial_index": 107}, "uniqueid": "MTK1865:3JZQSN0I3RHSOCBNQI7SKUUPJAYGFB", "dateTime": 1516482603648}, {"current_trial": 108, "trialdata": {"rt": -1000, "trial_type": "single-audio", "word": "paper", "stimulus": "/static/audio/wordpool/PAPER.wav", "conditions": [24, 1600, "a", 24000], "internal_node_id": "0.0-81.0", "trial": 2, "time_elapsed": 446447, "serialpos": 19, "key_press": -1, "wordID": 1010, "type": "PRES_AUD", "trial_index": 108}, "uniqueid": "MTK1865:3JZQSN0I3RHSOCBNQI7SKUUPJAYGFB", "dateTime": 1516482606341}, {"current_trial": 109, "trialdata": {"rt": -1000, "trial_type": "single-audio", "word": "puppy", "stimulus": "/static/audio/wordpool/PUPPY.wav", "conditions": [24, 1600, "a", 24000], "internal_node_id": "0.0-82.0", "trial": 2, "time_elapsed": 448879, "serialpos": 20, "key_press": -1, "wordID": 1143, "type": "PRES_AUD", "trial_index": 109}, "uniqueid": "MTK1865:3JZQSN0I3RHSOCBNQI7SKUUPJAYGFB", "dateTime": 1516482608773}, {"current_trial": 110, "trialdata": {"rt": -1000, "trial_type": "single-audio", "word": "omelet", "stimulus": "/static/audio/wordpool/OMELET.wav", "conditions": [24, 1600, "a", 24000], "internal_node_id": "0.0-83.0", "trial": 2, "time_elapsed": 451590, "serialpos": 21, "key_press": -1, "wordID": 975, "type": "PRES_AUD", "trial_index": 110}, "uniqueid": "MTK1865:3JZQSN0I3RHSOCBNQI7SKUUPJAYGFB", "dateTime": 1516482611484}, {"current_trial": 111, "trialdata": {"rt": -1000, "trial_type": "single-audio", "word": "liver", "stimulus": "/static/audio/wordpool/LIVER.wav", "conditions": [24, 1600, "a", 24000], "internal_node_id": "0.0-84.0", "trial": 2, "time_elapsed": 454370, "serialpos": 22, "key_press": -1, "wordID": 832, "type": "PRES_AUD", "trial_index": 111}, "uniqueid": "MTK1865:3JZQSN0I3RHSOCBNQI7SKUUPJAYGFB", "dateTime": 1516482614264}, {"current_trial": 112, "trialdata": {"rt": -1000, "trial_type": "single-audio", "word": "hand", "stimulus": "/static/audio/wordpool/HAND.wav", "conditions": [24, 1600, "a", 24000], "internal_node_id": "0.0-85.0", "trial": 2, "time_elapsed": 456844, "serialpos": 23, "key_press": -1, "wordID": 682, "type": "PRES_AUD", "trial_index": 112}, "uniqueid": "MTK1865:3JZQSN0I3RHSOCBNQI7SKUUPJAYGFB", "dateTime": 1516482616738}, {"current_trial": 113, "trialdata": {"rt": -1, "trial_type": "single-stim", "stimulus": "", "internal_node_id": "0.0-86.0-0.0", "time_elapsed": 458237, "key_press": -1, "type": "PRE_RECALL_DELAY", "trial_index": 113}, "uniqueid": "MTK1865:3JZQSN0I3RHSOCBNQI7SKUUPJAYGFB", "dateTime": 1516482618131}, {"current_trial": 114, "trialdata": {"rt": -1000, "trial_type": "single-audio", "stimulus": "/static/audio/400Hz.wav", "internal_node_id": "0.0-87.0", "time_elapsed": 458739, "key_press": -1, "type": "PRE_RECALL_ALERT", "trial_index": 114}, "uniqueid": "MTK1865:3JZQSN0I3RHSOCBNQI7SKUUPJAYGFB", "dateTime": 1516482618633}, {"current_trial": 115, "trialdata": {"rt": [2182, 3111, 5271, 8202, 9452, 10610, 12579, 14894, 18973, 20752, 26161, 30948], "recwords": ["puppy", "hand", "liver", "omelette", "lipstick", "wagon", "pebble", "mailbox", "truck", "tractor", "letter", "dress"], "key_times": [1221, 1492, 1654, 1800, 1964, 2182, 2648, 2770, 2866, 2995, 3111, 3592, 3624, 3952, 4074, 4561, 4773, 4849, 4983, 5155, 5271, 5518, 5662, 5774, 5926, 6112, 6330, 6719, 6856, 7259, 7550, 7614, 7723, 7897, 8019, 8202, 8439, 8631, 8764, 8856, 8928, 9037, 9198, 9266, 9452, 9803, 9891, 10039, 10164, 10240, 10610, 11258, 11520, 11860, 11916, 12076, 12218, 12366, 12479, 12579, 14034, 14142, 14250, 14370, 14583, 14679, 14755, 14894, 18087, 18428, 18572, 18672, 18768, 18973, 19069, 19161, 19338, 19430, 19650, 19742, 20237, 20386, 20426, 20525, 20644, 20752, 25039, 25179, 25543, 25747, 25966, 26078, 26161, 30164, 30400, 30492, 30698, 30848, 30948], "trial_type": "free-recall", "conditions": [24, 1600, "a", 24000], "internal_node_id": "0.0-88.0-0.0", "key_presses": [80, 85, 80, 80, 89, 13, 72, 65, 78, 68, 13, 73, 86, 8, 8, 76, 73, 86, 69, 82, 13, 79, 77, 69, 84, 76, 76, 8, 8, 8, 76, 69, 84, 84, 69, 13, 76, 73, 80, 83, 84, 73, 67, 75, 13, 87, 65, 71, 79, 78, 13, 80, 66, 8, 69, 66, 66, 76, 69, 13, 77, 65, 73, 76, 66, 79, 88, 13, 84, 82, 85, 67, 75, 13, 84, 82, 65, 67, 79, 84, 8, 8, 84, 79, 82, 13, 76, 69, 84, 84, 69, 82, 13, 68, 82, 69, 83, 83, 13], "trial": 2, "time_elapsed": 518746, "type": "FREE_RECALL", "trial_index": 115}, "uniqueid": "MTK1865:3JZQSN0I3RHSOCBNQI7SKUUPJAYGFB", "dateTime": 1516482678642}, {"current_trial": 116, "trialdata": {"rt": 1554, "trial_type": "text", "internal_node_id": "0.0-89.0", "time_elapsed": 522308, "key_press": 32, "type": "INSTRUCTIONS", "trial_index": 116}, "uniqueid": "MTK1865:3JZQSN0I3RHSOCBNQI7SKUUPJAYGFB", "dateTime": 1516482682202}, {"current_trial": 117, "trialdata": {"rt": [1548, 3265, 4916, 7264, 9373, 11139], "trial_type": "math-distractor", "key_times": [1221, 1345, 1548, 2943, 3055, 3265, 4673, 4819, 4916, 6237, 6446, 6588, 7035, 7264, 8953, 9140, 9373, 10746, 10920, 11139], "responses": ["19", "18", "11", "13", "16", "17"], "num2": [9, 4, 4, 9, 3, 5, 6], "num3": [5, 5, 5, 3, 4, 8, 9], "conditions": [24, 800, "a", 12000], "internal_node_id": "0.0-90.0", "key_presses": [49, 57, 13, 49, 56, 13, 49, 49, 13, 49, 51, 51, 8, 13, 49, 54, 13, 49, 55, 13], "trial": 3, "time_elapsed": 536319, "type": "DISTRACTOR", "trial_index": 117, "num1": [5, 9, 2, 1, 9, 4, 4]}, "uniqueid": "MTK1865:3JZQSN0I3RHSOCBNQI7SKUUPJAYGFB", "dateTime": 1516482696213}, {"current_trial": 118, "trialdata": {"rt": -1, "trial_type": "single-stim", "stimulus": "<p id=\"stim\">10</p>", "internal_node_id": "0.0-91.0-0.0", "time_elapsed": 539327, "key_press": -1, "trial_index": 118}, "uniqueid": "MTK1865:3JZQSN0I3RHSOCBNQI7SKUUPJAYGFB", "dateTime": 1516482699221}, {"current_trial": 119, "trialdata": {"rt": -1, "trial_type": "single-stim", "stimulus": "<p id=\"stim\">9</p>", "internal_node_id": "0.0-91.0-1.0", "time_elapsed": 540330, "key_press": -1, "trial_index": 119}, "uniqueid": "MTK1865:3JZQSN0I3RHSOCBNQI7SKUUPJAYGFB", "dateTime": 1516482700225}, {"current_trial": 120, "trialdata": {"rt": -1, "trial_type": "single-stim", "stimulus": "<p id=\"stim\">8</p>", "internal_node_id": "0.0-91.0-2.0", "time_elapsed": 541335, "key_press": -1, "trial_index": 120}, "uniqueid": "MTK1865:3JZQSN0I3RHSOCBNQI7SKUUPJAYGFB", "dateTime": 1516482701229}, {"current_trial": 121, "trialdata": {"rt": -1, "trial_type": "single-stim", "stimulus": "<p id=\"stim\">7</p>", "internal_node_id": "0.0-91.0-3.0", "time_elapsed": 542339, "key_press": -1, "trial_index": 121}, "uniqueid": "MTK1865:3JZQSN0I3RHSOCBNQI7SKUUPJAYGFB", "dateTime": 1516482702233}, {"current_trial": 122, "trialdata": {"rt": -1, "trial_type": "single-stim", "stimulus": "<p id=\"stim\">6</p>", "internal_node_id": "0.0-91.0-4.0", "time_elapsed": 543341, "key_press": -1, "trial_index": 122}, "uniqueid": "MTK1865:3JZQSN0I3RHSOCBNQI7SKUUPJAYGFB", "dateTime": 1516482703235}, {"current_trial": 123, "trialdata": {"rt": -1, "trial_type": "single-stim", "stimulus": "<p id=\"stim\">5</p>", "internal_node_id": "0.0-91.0-5.0", "time_elapsed": 544343, "key_press": -1, "trial_index": 123}, "uniqueid": "MTK1865:3JZQSN0I3RHSOCBNQI7SKUUPJAYGFB", "dateTime": 1516482704237}, {"current_trial": 124, "trialdata": {"rt": -1, "trial_type": "single-stim", "stimulus": "<p id=\"stim\">4</p>", "internal_node_id": "0.0-91.0-6.0", "time_elapsed": 545344, "key_press": -1, "trial_index": 124}, "uniqueid": "MTK1865:3JZQSN0I3RHSOCBNQI7SKUUPJAYGFB", "dateTime": 1516482705238}, {"current_trial": 125, "trialdata": {"rt": -1, "trial_type": "single-stim", "stimulus": "<p id=\"stim\">3</p>", "internal_node_id": "0.0-91.0-7.0", "time_elapsed": 546345, "key_press": -1, "trial_index": 125}, "uniqueid": "MTK1865:3JZQSN0I3RHSOCBNQI7SKUUPJAYGFB", "dateTime": 1516482706239}, {"current_trial": 126, "trialdata": {"rt": -1, "trial_type": "single-stim", "stimulus": "<p id=\"stim\">2</p>", "internal_node_id": "0.0-91.0-8.0", "time_elapsed": 547346, "key_press": -1, "trial_index": 126}, "uniqueid": "MTK1865:3JZQSN0I3RHSOCBNQI7SKUUPJAYGFB", "dateTime": 1516482707242}, {"current_trial": 127, "trialdata": {"rt": -1, "trial_type": "single-stim", "stimulus": "<p id=\"stim\">1</p>", "internal_node_id": "0.0-91.0-9.0", "time_elapsed": 548350, "key_press": -1, "trial_index": 127}, "uniqueid": "MTK1865:3JZQSN0I3RHSOCBNQI7SKUUPJAYGFB", "dateTime": 1516482708244}, {"current_trial": 128, "trialdata": {"rt": -1, "trial_type": "single-stim", "stimulus": "<p id=\"stim\">+</p>", "internal_node_id": "0.0-92.0-0.0", "time_elapsed": 549856, "key_press": -1, "type": "FIXATION", "trial_index": 128}, "uniqueid": "MTK1865:3JZQSN0I3RHSOCBNQI7SKUUPJAYGFB", "dateTime": 1516482709750}, {"current_trial": 129, "trialdata": {"rt": -1000, "trial_type": "single-audio", "word": "coffee", "stimulus": "/static/audio/wordpool/COFFEE.wav", "conditions": [24, 800, "a", 12000], "internal_node_id": "0.0-93.0", "trial": 3, "time_elapsed": 551645, "serialpos": 0, "key_press": -1, "wordID": 340, "type": "PRES_AUD", "trial_index": 129}, "uniqueid": "MTK1865:3JZQSN0I3RHSOCBNQI7SKUUPJAYGFB", "dateTime": 1516482711540}, {"current_trial": 130, "trialdata": {"rt": -1000, "trial_type": "single-audio", "word": "ox", "stimulus": "/static/audio/wordpool/OX.wav", "conditions": [24, 800, "a", 12000], "internal_node_id": "0.0-94.0", "trial": 3, "time_elapsed": 553631, "serialpos": 1, "key_press": -1, "wordID": 993, "type": "PRES_AUD", "trial_index": 130}, "uniqueid": "MTK1865:3JZQSN0I3RHSOCBNQI7SKUUPJAYGFB", "dateTime": 1516482713525}, {"current_trial": 131, "trialdata": {"rt": -1000, "trial_type": "single-audio", "word": "barley", "stimulus": "/static/audio/wordpool/BARLEY.wav", "conditions": [24, 800, "a", 12000], "internal_node_id": "0.0-95.0", "trial": 3, "time_elapsed": 555450, "serialpos": 2, "key_press": -1, "wordID": 87, "type": "PRES_AUD", "trial_index": 131}, "uniqueid": "MTK1865:3JZQSN0I3RHSOCBNQI7SKUUPJAYGFB", "dateTime": 1516482715344}, {"current_trial": 132, "trialdata": {"rt": -1000, "trial_type": "single-audio", "word": "keeper", "stimulus": "/static/audio/wordpool/KEEPER.wav", "conditions": [24, 800, "a", 12000], "internal_node_id": "0.0-96.0", "trial": 3, "time_elapsed": 557361, "serialpos": 3, "key_press": -1, "wordID": 768, "type": "PRES_AUD", "trial_index": 132}, "uniqueid": "MTK1865:3JZQSN0I3RHSOCBNQI7SKUUPJAYGFB", "dateTime": 1516482717255}, {"current_trial": 133, "trialdata": {"rt": -1000, "trial_type": "single-audio", "word": "leg", "stimulus": "/static/audio/wordpool/LEG.wav", "conditions": [24, 800, "a", 12000], "internal_node_id": "0.0-97.0", "trial": 3, "time_elapsed": 559088, "serialpos": 4, "key_press": -1, "wordID": 808, "type": "PRES_AUD", "trial_index": 133}, "uniqueid": "MTK1865:3JZQSN0I3RHSOCBNQI7SKUUPJAYGFB", "dateTime": 1516482718982}, {"current_trial": 134, "trialdata": {"rt": -1000, "trial_type": "single-audio", "word": "shoulder", "stimulus": "/static/audio/wordpool/SHOULDER.wav", "conditions": [24, 800, "a", 12000], "internal_node_id": "0.0-98.0", "trial": 3, "time_elapsed": 560829, "serialpos": 5, "key_press": -1, "wordID": 1293, "type": "PRES_AUD", "trial_index": 134}, "uniqueid": "MTK1865:3JZQSN0I3RHSOCBNQI7SKUUPJAYGFB", "dateTime": 1516482720723}, {"current_trial": 135, "trialdata": {"rt": -1000, "trial_type": "single-audio", "word": "county", "stimulus": "/static/audio/wordpool/COUNTY.wav", "conditions": [24, 800, "a", 12000], "internal_node_id": "0.0-99.0", "trial": 3, "time_elapsed": 562669, "serialpos": 6, "key_press": -1, "wordID": 388, "type": "PRES_AUD", "trial_index": 135}, "uniqueid": "MTK1865:3JZQSN0I3RHSOCBNQI7SKUUPJAYGFB", "dateTime": 1516482722564}, {"current_trial": 136, "trialdata": {"rt": -1000, "trial_type": "single-audio", "word": "mattress", "stimulus": "/static/audio/wordpool/MATTRESS.wav", "conditions": [24, 800, "a", 12000], "internal_node_id": "0.0-100.0", "trial": 3, "time_elapsed": 564492, "serialpos": 7, "key_press": -1, "wordID": 878, "type": "PRES_AUD", "trial_index": 136}, "uniqueid": "MTK1865:3JZQSN0I3RHSOCBNQI7SKUUPJAYGFB", "dateTime": 1516482724386}, {"current_trial": 137, "trialdata": {"rt": -1000, "trial_type": "single-audio", "word": "patrol", "stimulus": "/static/audio/wordpool/PATROL.wav", "conditions": [24, 800, "a", 12000], "internal_node_id": "0.0-101.0", "trial": 3, "time_elapsed": 566425, "serialpos": 8, "key_press": -1, "wordID": 1026, "type": "PRES_AUD", "trial_index": 137}, "uniqueid": "MTK1865:3JZQSN0I3RHSOCBNQI7SKUUPJAYGFB", "dateTime": 1516482726319}, {"current_trial": 138, "trialdata": {"rt": -1000, "trial_type": "single-audio", "word": "cattle", "stimulus": "/static/audio/wordpool/CATTLE.wav", "conditions": [24, 800, "a", 12000], "internal_node_id": "0.0-102.0", "trial": 3, "time_elapsed": 568156, "serialpos": 9, "key_press": -1, "wordID": 260, "type": "PRES_AUD", "trial_index": 138}, "uniqueid": "MTK1865:3JZQSN0I3RHSOCBNQI7SKUUPJAYGFB", "dateTime": 1516482728050}, {"current_trial": 139, "trialdata": {"rt": -1000, "trial_type": "single-audio", "word": "soda", "stimulus": "/static/audio/wordpool/SODA.wav", "conditions": [24, 800, "a", 12000], "internal_node_id": "0.0-103.0", "trial": 3, "time_elapsed": 569827, "serialpos": 10, "key_press": -1, "wordID": 1340, "type": "PRES_AUD", "trial_index": 139}, "uniqueid": "MTK1865:3JZQSN0I3RHSOCBNQI7SKUUPJAYGFB", "dateTime": 1516482729721}, {"current_trial": 140, "trialdata": {"rt": -1000, "trial_type": "single-audio", "word": "guard", "stimulus": "/static/audio/wordpool/GUARD.wav", "conditions": [24, 800, "a", 12000], "internal_node_id": "0.0-104.0", "trial": 3, "time_elapsed": 571656, "serialpos": 11, "key_press": -1, "wordID": 666, "type": "PRES_AUD", "trial_index": 140}, "uniqueid": "MTK1865:3JZQSN0I3RHSOCBNQI7SKUUPJAYGFB", "dateTime": 1516482731550}, {"current_trial": 141, "trialdata": {"rt": -1000, "trial_type": "single-audio", "word": "panther", "stimulus": "/static/audio/wordpool/PANTHER.wav", "conditions": [24, 800, "a", 12000], "internal_node_id": "0.0-105.0", "trial": 3, "time_elapsed": 573496, "serialpos": 12, "key_press": -1, "wordID": 1008, "type": "PRES_AUD", "trial_index": 141}, "uniqueid": "MTK1865:3JZQSN0I3RHSOCBNQI7SKUUPJAYGFB", "dateTime": 1516482733390}, {"current_trial": 142, "trialdata": {"rt": -1000, "trial_type": "single-audio", "word": "doughnut", "stimulus": "/static/audio/wordpool/DOUGHNUT.wav", "conditions": [24, 800, "a", 12000], "internal_node_id": "0.0-106.0", "trial": 3, "time_elapsed": 575325, "serialpos": 13, "key_press": -1, "wordID": 489, "type": "PRES_AUD", "trial_index": 142}, "uniqueid": "MTK1865:3JZQSN0I3RHSOCBNQI7SKUUPJAYGFB", "dateTime": 1516482735219}, {"current_trial": 143, "trialdata": {"rt": -1000, "trial_type": "single-audio", "word": "wrist", "stimulus": "/static/audio/wordpool/WRIST.wav", "conditions": [24, 800, "a", 12000], "internal_node_id": "0.0-107.0", "trial": 3, "time_elapsed": 576986, "serialpos": 14, "key_press": -1, "wordID": 1625, "type": "PRES_AUD", "trial_index": 143}, "uniqueid": "MTK1865:3JZQSN0I3RHSOCBNQI7SKUUPJAYGFB", "dateTime": 1516482736880}, {"current_trial": 144, "trialdata": {"rt": -1000, "trial_type": "single-audio", "word": "possum", "stimulus": "/static/audio/wordpool/POSSUM.wav", "conditions": [24, 800, "a", 12000], "internal_node_id": "0.0-108.0", "trial": 3, "time_elapsed": 578819, "serialpos": 15, "key_press": -1, "wordID": 1111, "type": "PRES_AUD", "trial_index": 144}, "uniqueid": "MTK1865:3JZQSN0I3RHSOCBNQI7SKUUPJAYGFB", "dateTime": 1516482738713}, {"current_trial": 145, "trialdata": {"rt": -1000, "trial_type": "single-audio", "word": "goblin", "stimulus": "/static/audio/wordpool/GOBLIN.wav", "conditions": [24, 800, "a", 12000], "internal_node_id": "0.0-109.0", "trial": 3, "time_elapsed": 580491, "serialpos": 16, "key_press": -1, "wordID": 644, "type": "PRES_AUD", "trial_index": 145}, "uniqueid": "MTK1865:3JZQSN0I3RHSOCBNQI7SKUUPJAYGFB", "dateTime": 1516482740385}, {"current_trial": 146, "trialdata": {"rt": -1000, "trial_type": "single-audio", "word": "seal", "stimulus": "/static/audio/wordpool/SEAL.wav", "conditions": [24, 800, "a", 12000], "internal_node_id": "0.0-110.0", "trial": 3, "time_elapsed": 582381, "serialpos": 17, "key_press": -1, "wordID": 1261, "type": "PRES_AUD", "trial_index": 146}, "uniqueid": "MTK1865:3JZQSN0I3RHSOCBNQI7SKUUPJAYGFB", "dateTime": 1516482742275}, {"current_trial": 147, "trialdata": {"rt": -1000, "trial_type": "single-audio", "word": "mammal", "stimulus": "/static/audio/wordpool/MAMMAL.wav", "conditions": [24, 800, "a", 12000], "internal_node_id": "0.0-111.0", "trial": 3, "time_elapsed": 584336, "serialpos": 18, "key_press": -1, "wordID": 860, "type": "PRES_AUD", "trial_index": 147}, "uniqueid": "MTK1865:3JZQSN0I3RHSOCBNQI7SKUUPJAYGFB", "dateTime": 1516482744231}, {"current_trial": 148, "trialdata": {"rt": -1000, "trial_type": "single-audio", "word": "plaster", "stimulus": "/static/audio/wordpool/PLASTER.wav", "conditions": [24, 800, "a", 12000], "internal_node_id": "0.0-112.0", "trial": 3, "time_elapsed": 585965, "serialpos": 19, "key_press": -1, "wordID": 1084, "type": "PRES_AUD", "trial_index": 148}, "uniqueid": "MTK1865:3JZQSN0I3RHSOCBNQI7SKUUPJAYGFB", "dateTime": 1516482745860}, {"current_trial": 149, "trialdata": {"rt": -1000, "trial_type": "single-audio", "word": "donkey", "stimulus": "/static/audio/wordpool/DONKEY.wav", "conditions": [24, 800, "a", 12000], "internal_node_id": "0.0-113.0", "trial": 3, "time_elapsed": 587898, "serialpos": 20, "key_press": -1, "wordID": 483, "type": "PRES_AUD", "trial_index": 149}, "uniqueid": "MTK1865:3JZQSN0I3RHSOCBNQI7SKUUPJAYGFB", "dateTime": 1516482747793}, {"current_trial": 150, "trialdata": {"rt": -1000, "trial_type": "single-audio", "word": "snack", "stimulus": "/static/audio/wordpool/SNACK.wav", "conditions": [24, 800, "a", 12000], "internal_node_id": "0.0-114.0", "trial": 3, "time_elapsed": 589692, "serialpos": 21, "key_press": -1, "wordID": 1330, "type": "PRES_AUD", "trial_index": 150}, "uniqueid": "MTK1865:3JZQSN0I3RHSOCBNQI7SKUUPJAYGFB", "dateTime": 1516482749586}, {"current_trial": 151, "trialdata": {"rt": -1000, "trial_type": "single-audio", "word": "pizza", "stimulus": "/static/audio/wordpool/PIZZA.wav", "conditions": [24, 800, "a", 12000], "internal_node_id": "0.0-115.0", "trial": 3, "time_elapsed": 591341, "serialpos": 22, "key_press": -1, "wordID": 1078, "type": "PRES_AUD", "trial_index": 151}, "uniqueid": "MTK1865:3JZQSN0I3RHSOCBNQI7SKUUPJAYGFB", "dateTime": 1516482751235}, {"current_trial": 152, "trialdata": {"rt": -1000, "trial_type": "single-audio", "word": "venus", "stimulus": "/static/audio/wordpool/VENUS.wav", "conditions": [24, 800, "a", 12000], "internal_node_id": "0.0-116.0", "trial": 3, "time_elapsed": 593065, "serialpos": 23, "key_press": -1, "wordID": 1556, "type": "PRES_AUD", "trial_index": 152}, "uniqueid": "MTK1865:3JZQSN0I3RHSOCBNQI7SKUUPJAYGFB", "dateTime": 1516482752959}, {"current_trial": 153, "trialdata": {"rt": -1, "trial_type": "single-stim", "stimulus": "", "internal_node_id": "0.0-117.0-0.0", "time_elapsed": 594453, "key_press": -1, "type": "PRE_RECALL_DELAY", "trial_index": 153}, "uniqueid": "MTK1865:3JZQSN0I3RHSOCBNQI7SKUUPJAYGFB", "dateTime": 1516482754347}, {"current_trial": 154, "trialdata": {"rt": -1000, "trial_type": "single-audio", "stimulus": "/static/audio/400Hz.wav", "internal_node_id": "0.0-118.0", "time_elapsed": 594954, "key_press": -1, "type": "PRE_RECALL_ALERT", "trial_index": 154}, "uniqueid": "MTK1865:3JZQSN0I3RHSOCBNQI7SKUUPJAYGFB", "dateTime": 1516482754848}, {"current_trial": 155, "trialdata": {"rt": [1553, 3436, 4983, 6046, 7581, 8272, 14507, 18034], "recwords": ["venu", "venus", "snack", "pizza", "keeper", "ox", "panther", "goblin"], "key_times": [902, 1019, 1199, 1311, 1553, 2767, 2876, 3024, 3120, 3216, 3436, 3719, 3837, 3973, 4149, 4534, 4652, 4784, 4983, 5211, 5331, 5412, 5550, 5784, 6046, 6751, 6958, 7097, 7244, 7372, 7472, 7581, 7928, 8056, 8272, 13660, 13762, 13890, 14011, 14123, 14215, 14303, 14507, 17131, 17239, 17355, 17575, 17707, 17910, 18034], "trial_type": "free-recall", "conditions": [24, 800, "a", 12000], "internal_node_id": "0.0-119.0-0.0", "key_presses": [86, 69, 78, 85, 13, 86, 69, 78, 85, 83, 13, 83, 78, 65, 75, 8, 67, 75, 13, 80, 73, 90, 90, 65, 13, 75, 69, 69, 80, 69, 82, 13, 79, 88, 13, 80, 65, 78, 84, 72, 69, 82, 13, 71, 79, 66, 76, 73, 78, 13], "trial": 3, "time_elapsed": 654961, "type": "FREE_RECALL", "trial_index": 155}, "uniqueid": "MTK1865:3JZQSN0I3RHSOCBNQI7SKUUPJAYGFB", "dateTime": 1516482814858}, {"current_trial": 156, "trialdata": {"rt": 1883, "trial_type": "text", "internal_node_id": "0.0-120.0", "time_elapsed": 658853, "key_press": 32, "type": "INSTRUCTIONS", "trial_index": 156}, "uniqueid": "MTK1865:3JZQSN0I3RHSOCBNQI7SKUUPJAYGFB", "dateTime": 1516482818747}, {"current_trial": 157, "trialdata": {"rt": [1800, 3178, 4799, 7336, 9314, 11536, 13065, 19196, 21812], "trial_type": "math-distractor", "key_times": [1495, 1599, 1800, 2904, 3012, 3178, 4457, 4607, 4799, 7072, 7228, 7336, 8937, 9202, 9314, 10822, 11350, 11536, 12582, 12674, 13065, 18481, 18924, 19013, 19084, 19196, 21580, 21660, 21812, 23245, 23712, 23957], "responses": ["14", "19", "11", "21", "15", "15", "12", "21", "13"], "num2": [8, 7, 1, 9, 5, 5, 1, 6, 4, 1], "num3": [4, 3, 3, 8, 4, 6, 2, 8, 4, 2], "conditions": [24, 800, "a", 24000], "internal_node_id": "0.0-121.0", "key_presses": [49, 52, 13, 49, 57, 13, 49, 49, 13, 50, 49, 13, 49, 53, 13, 49, 53, 13, 49, 50, 13, 49, 8, 50, 49, 13, 49, 51, 13, 56, 8, 48], "trial": 4, "time_elapsed": 684865, "type": "DISTRACTOR", "trial_index": 157, "num1": [2, 9, 7, 4, 6, 3, 9, 7, 5, 6]}, "uniqueid": "MTK1865:3JZQSN0I3RHSOCBNQI7SKUUPJAYGFB", "dateTime": 1516482844759}, {"current_trial": 158, "trialdata": {"rt": -1, "trial_type": "single-stim", "stimulus": "<p id=\"stim\">10</p>", "internal_node_id": "0.0-122.0-0.0", "time_elapsed": 687870, "key_press": -1, "trial_index": 158}, "uniqueid": "MTK1865:3JZQSN0I3RHSOCBNQI7SKUUPJAYGFB", "dateTime": 1516482847765}, {"current_trial": 159, "trialdata": {"rt": -1, "trial_type": "single-stim", "stimulus": "<p id=\"stim\">9</p>", "internal_node_id": "0.0-122.0-1.0", "time_elapsed": 688875, "key_press": -1, "trial_index": 159}, "uniqueid": "MTK1865:3JZQSN0I3RHSOCBNQI7SKUUPJAYGFB", "dateTime": 1516482848769}, {"current_trial": 160, "trialdata": {"rt": -1, "trial_type": "single-stim", "stimulus": "<p id=\"stim\">8</p>", "internal_node_id": "0.0-122.0-2.0", "time_elapsed": 689879, "key_press": -1, "trial_index": 160}, "uniqueid": "MTK1865:3JZQSN0I3RHSOCBNQI7SKUUPJAYGFB", "dateTime": 1516482849773}, {"current_trial": 161, "trialdata": {"rt": -1, "trial_type": "single-stim", "stimulus": "<p id=\"stim\">7</p>", "internal_node_id": "0.0-122.0-3.0", "time_elapsed": 690883, "key_press": -1, "trial_index": 161}, "uniqueid": "MTK1865:3JZQSN0I3RHSOCBNQI7SKUUPJAYGFB", "dateTime": 1516482850777}, {"current_trial": 162, "trialdata": {"rt": -1, "trial_type": "single-stim", "stimulus": "<p id=\"stim\">6</p>", "internal_node_id": "0.0-122.0-4.0", "time_elapsed": 691887, "key_press": -1, "trial_index": 162}, "uniqueid": "MTK1865:3JZQSN0I3RHSOCBNQI7SKUUPJAYGFB", "dateTime": 1516482851781}, {"current_trial": 163, "trialdata": {"rt": -1, "trial_type": "single-stim", "stimulus": "<p id=\"stim\">5</p>", "internal_node_id": "0.0-122.0-5.0", "time_elapsed": 692891, "key_press": -1, "trial_index": 163}, "uniqueid": "MTK1865:3JZQSN0I3RHSOCBNQI7SKUUPJAYGFB", "dateTime": 1516482852785}, {"current_trial": 164, "trialdata": {"rt": -1, "trial_type": "single-stim", "stimulus": "<p id=\"stim\">4</p>", "internal_node_id": "0.0-122.0-6.0", "time_elapsed": 693895, "key_press": -1, "trial_index": 164}, "uniqueid": "MTK1865:3JZQSN0I3RHSOCBNQI7SKUUPJAYGFB", "dateTime": 1516482853789}, {"current_trial": 165, "trialdata": {"rt": -1, "trial_type": "single-stim", "stimulus": "<p id=\"stim\">3</p>", "internal_node_id": "0.0-122.0-7.0", "time_elapsed": 694900, "key_press": -1, "trial_index": 165}, "uniqueid": "MTK1865:3JZQSN0I3RHSOCBNQI7SKUUPJAYGFB", "dateTime": 1516482854794}, {"current_trial": 166, "trialdata": {"rt": -1, "trial_type": "single-stim", "stimulus": "<p id=\"stim\">2</p>", "internal_node_id": "0.0-122.0-8.0", "time_elapsed": 695903, "key_press": -1, "trial_index": 166}, "uniqueid": "MTK1865:3JZQSN0I3RHSOCBNQI7SKUUPJAYGFB", "dateTime": 1516482855798}, {"current_trial": 167, "trialdata": {"rt": -1, "trial_type": "single-stim", "stimulus": "<p id=\"stim\">1</p>", "internal_node_id": "0.0-122.0-9.0", "time_elapsed": 696908, "key_press": -1, "trial_index": 167}, "uniqueid": "MTK1865:3JZQSN0I3RHSOCBNQI7SKUUPJAYGFB", "dateTime": 1516482856802}, {"current_trial": 168, "trialdata": {"rt": -1, "trial_type": "single-stim", "stimulus": "<p id=\"stim\">+</p>", "internal_node_id": "0.0-123.0-0.0", "time_elapsed": 698411, "key_press": -1, "type": "FIXATION", "trial_index": 168}, "uniqueid": "MTK1865:3JZQSN0I3RHSOCBNQI7SKUUPJAYGFB", "dateTime": 1516482858305}, {"current_trial": 169, "trialdata": {"rt": -1000, "trial_type": "single-audio", "word": "tombstone", "stimulus": "/static/audio/wordpool/TOMBSTONE.wav", "conditions": [24, 800, "a", 24000], "internal_node_id": "0.0-124.0", "trial": 4, "time_elapsed": 700017, "serialpos": 0, "key_press": -1, "wordID": 1477, "type": "PRES_AUD", "trial_index": 169}, "uniqueid": "MTK1865:3JZQSN0I3RHSOCBNQI7SKUUPJAYGFB", "dateTime": 1516482859911}, {"current_trial": 170, "trialdata": {"rt": -1000, "trial_type": "single-audio", "word": "termite", "stimulus": "/static/audio/wordpool/TERMITE.wav", "conditions": [24, 800, "a", 24000], "internal_node_id": "0.0-125.0", "trial": 4, "time_elapsed": 701917, "serialpos": 1, "key_press": -1, "wordID": 1450, "type": "PRES_AUD", "trial_index": 170}, "uniqueid": "MTK1865:3JZQSN0I3RHSOCBNQI7SKUUPJAYGFB", "dateTime": 1516482861811}, {"current_trial": 171, "trialdata": {"rt": -1000, "trial_type": "single-audio", "word": "breast", "stimulus": "/static/audio/wordpool/BREAST.wav", "conditions": [24, 800, "a", 24000], "internal_node_id": "0.0-126.0", "trial": 4, "time_elapsed": 703534, "serialpos": 2, "key_press": -1, "wordID": 170, "type": "PRES_AUD", "trial_index": 171}, "uniqueid": "MTK1865:3JZQSN0I3RHSOCBNQI7SKUUPJAYGFB", "dateTime": 1516482863428}, {"current_trial": 172, "trialdata": {"rt": -1000, "trial_type": "single-audio", "word": "stomach", "stimulus": "/static/audio/wordpool/STOMACH.wav", "conditions": [24, 800, "a", 24000], "internal_node_id": "0.0-127.0", "trial": 4, "time_elapsed": 705351, "serialpos": 3, "key_press": -1, "wordID": 1383, "type": "PRES_AUD", "trial_index": 172}, "uniqueid": "MTK1865:3JZQSN0I3RHSOCBNQI7SKUUPJAYGFB", "dateTime": 1516482865245}, {"current_trial": 173, "trialdata": {"rt": -1000, "trial_type": "single-audio", "word": "clam", "stimulus": "/static/audio/wordpool/CLAM.wav", "conditions": [24, 800, "a", 24000], "internal_node_id": "0.0-128.0", "trial": 4, "time_elapsed": 707348, "serialpos": 4, "key_press": -1, "wordID": 314, "type": "PRES_AUD", "trial_index": 173}, "uniqueid": "MTK1865:3JZQSN0I3RHSOCBNQI7SKUUPJAYGFB", "dateTime": 1516482867243}, {"current_trial": 174, "trialdata": {"rt": -1000, "trial_type": "single-audio", "word": "ointment", "stimulus": "/static/audio/wordpool/OINTMENT.wav", "conditions": [24, 800, "a", 24000], "internal_node_id": "0.0-129.0", "trial": 4, "time_elapsed": 709179, "serialpos": 5, "key_press": -1, "wordID": 973, "type": "PRES_AUD", "trial_index": 174}, "uniqueid": "MTK1865:3JZQSN0I3RHSOCBNQI7SKUUPJAYGFB", "dateTime": 1516482869073}, {"current_trial": 175, "trialdata": {"rt": -1000, "trial_type": "single-audio", "word": "casket", "stimulus": "/static/audio/wordpool/CASKET.wav", "conditions": [24, 800, "a", 24000], "internal_node_id": "0.0-130.0", "trial": 4, "time_elapsed": 710874, "serialpos": 6, "key_press": -1, "wordID": 254, "type": "PRES_AUD", "trial_index": 175}, "uniqueid": "MTK1865:3JZQSN0I3RHSOCBNQI7SKUUPJAYGFB", "dateTime": 1516482870768}, {"current_trial": 176, "trialdata": {"rt": -1000, "trial_type": "single-audio", "word": "oyster", "stimulus": "/static/audio/wordpool/OYSTER.wav", "conditions": [24, 800, "a", 24000], "internal_node_id": "0.0-131.0", "trial": 4, "time_elapsed": 712482, "serialpos": 7, "key_press": -1, "wordID": 994, "type": "PRES_AUD", "trial_index": 176}, "uniqueid": "MTK1865:3JZQSN0I3RHSOCBNQI7SKUUPJAYGFB", "dateTime": 1516482872376}, {"current_trial": 177, "trialdata": {"rt": -1000, "trial_type": "single-audio", "word": "seafood", "stimulus": "/static/audio/wordpool/SEAFOOD.wav", "conditions": [24, 800, "a", 24000], "internal_node_id": "0.0-132.0", "trial": 4, "time_elapsed": 714212, "serialpos": 8, "key_press": -1, "wordID": 1259, "type": "PRES_AUD", "trial_index": 177}, "uniqueid": "MTK1865:3JZQSN0I3RHSOCBNQI7SKUUPJAYGFB", "dateTime": 1516482874106}, {"current_trial": 178, "trialdata": {"rt": -1000, "trial_type": "single-audio", "word": "hook", "stimulus": "/static/audio/wordpool/HOOK.wav", "conditions": [24, 800, "a", 24000], "internal_node_id": "0.0-133.0", "trial": 4, "time_elapsed": 715901, "serialpos": 9, "key_press": -1, "wordID": 714, "type": "PRES_AUD", "trial_index": 178}, "uniqueid": "MTK1865:3JZQSN0I3RHSOCBNQI7SKUUPJAYGFB", "dateTime": 1516482875795}, {"current_trial": 179, "trialdata": {"rt": -1000, "trial_type": "single-audio", "word": "mustard", "stimulus": "/static/audio/wordpool/MUSTARD.wav", "conditions": [24, 800, "a", 24000], "internal_node_id": "0.0-134.0", "trial": 4, "time_elapsed": 717828, "serialpos": 10, "key_press": -1, "wordID": 934, "type": "PRES_AUD", "trial_index": 179}, "uniqueid": "MTK1865:3JZQSN0I3RHSOCBNQI7SKUUPJAYGFB", "dateTime": 1516482877723}, {"current_trial": 180, "trialdata": {"rt": -1000, "trial_type": "single-audio", "word": "typist", "stimulus": "/static/audio/wordpool/TYPIST.wav", "conditions": [24, 800, "a", 24000], "internal_node_id": "0.0-135.0", "trial": 4, "time_elapsed": 719483, "serialpos": 11, "key_press": -1, "wordID": 1531, "type": "PRES_AUD", "trial_index": 180}, "uniqueid": "MTK1865:3JZQSN0I3RHSOCBNQI7SKUUPJAYGFB", "dateTime": 1516482879377}, {"current_trial": 181, "trialdata": {"rt": -1000, "trial_type": "single-audio", "word": "orchid", "stimulus": "/static/audio/wordpool/ORCHID.wav", "conditions": [24, 800, "a", 24000], "internal_node_id": "0.0-136.0", "trial": 4, "time_elapsed": 721444, "serialpos": 12, "key_press": -1, "wordID": 981, "type": "PRES_AUD", "trial_index": 181}, "uniqueid": "MTK1865:3JZQSN0I3RHSOCBNQI7SKUUPJAYGFB", "dateTime": 1516482881338}, {"current_trial": 182, "trialdata": {"rt": -1000, "trial_type": "single-audio", "word": "japan", "stimulus": "/static/audio/wordpool/JAPAN.wav", "conditions": [24, 800, "a", 24000], "internal_node_id": "0.0-137.0", "trial": 4, "time_elapsed": 723245, "serialpos": 13, "key_press": -1, "wordID": 748, "type": "PRES_AUD", "trial_index": 182}, "uniqueid": "MTK1865:3JZQSN0I3RHSOCBNQI7SKUUPJAYGFB", "dateTime": 1516482883139}, {"current_trial": 183, "trialdata": {"rt": -1000, "trial_type": "single-audio", "word": "france", "stimulus": "/static/audio/wordpool/FRANCE.wav", "conditions": [24, 800, "a", 24000], "internal_node_id": "0.0-138.0", "trial": 4, "time_elapsed": 725091, "serialpos": 14, "key_press": -1, "wordID": 600, "type": "PRES_AUD", "trial_index": 183}, "uniqueid": "MTK1865:3JZQSN0I3RHSOCBNQI7SKUUPJAYGFB", "dateTime": 1516482884985}, {"current_trial": 184, "trialdata": {"rt": -1000, "trial_type": "single-audio", "word": "airplane", "stimulus": "/static/audio/wordpool/AIRPLANE.wav", "conditions": [24, 800, "a", 24000], "internal_node_id": "0.0-139.0", "trial": 4, "time_elapsed": 726774, "serialpos": 15, "key_press": -1, "wordID": 11, "type": "PRES_AUD", "trial_index": 184}, "uniqueid": "MTK1865:3JZQSN0I3RHSOCBNQI7SKUUPJAYGFB", "dateTime": 1516482886668}, {"current_trial": 185, "trialdata": {"rt": -1000, "trial_type": "single-audio", "word": "knife", "stimulus": "/static/audio/wordpool/KNIFE.wav", "conditions": [24, 800, "a", 24000], "internal_node_id": "0.0-140.0", "trial": 4, "time_elapsed": 728725, "serialpos": 16, "key_press": -1, "wordID": 784, "type": "PRES_AUD", "trial_index": 185}, "uniqueid": "MTK1865:3JZQSN0I3RHSOCBNQI7SKUUPJAYGFB", "dateTime": 1516482888619}, {"current_trial": 186, "trialdata": {"rt": -1000, "trial_type": "single-audio", "word": "valve", "stimulus": "/static/audio/wordpool/VALVE.wav", "conditions": [24, 800, "a", 24000], "internal_node_id": "0.0-141.0", "trial": 4, "time_elapsed": 730478, "serialpos": 17, "key_press": -1, "wordID": 1545, "type": "PRES_AUD", "trial_index": 186}, "uniqueid": "MTK1865:3JZQSN0I3RHSOCBNQI7SKUUPJAYGFB", "dateTime": 1516482890372}, {"current_trial": 187, "trialdata": {"rt": -1000, "trial_type": "single-audio", "word": "switch", "stimulus": "/static/audio/wordpool/SWITCH.wav", "conditions": [24, 800, "a", 24000], "internal_node_id": "0.0-142.0", "trial": 4, "time_elapsed": 732324, "serialpos": 18, "key_press": -1, "wordID": 1421, "type": "PRES_AUD", "trial_index": 187}, "uniqueid": "MTK1865:3JZQSN0I3RHSOCBNQI7SKUUPJAYGFB", "dateTime": 1516482892218}, {"current_trial": 188, "trialdata": {"rt": -1000, "trial_type": "single-audio", "word": "lily", "stimulus": "/static/audio/wordpool/LILY.wav", "conditions": [24, 800, "a", 24000], "internal_node_id": "0.0-143.0", "trial": 4, "time_elapsed": 734143, "serialpos": 19, "key_press": -1, "wordID": 820, "type": "PRES_AUD", "trial_index": 188}, "uniqueid": "MTK1865:3JZQSN0I3RHSOCBNQI7SKUUPJAYGFB", "dateTime": 1516482894037}, {"current_trial": 189, "trialdata": {"rt": -1000, "trial_type": "single-audio", "word": "jury", "stimulus": "/static/audio/wordpool/JURY.wav", "conditions": [24, 800, "a", 24000], "internal_node_id": "0.0-144.0", "trial": 4, "time_elapsed": 735856, "serialpos": 20, "key_press": -1, "wordID": 765, "type": "PRES_AUD", "trial_index": 189}, "uniqueid": "MTK1865:3JZQSN0I3RHSOCBNQI7SKUUPJAYGFB", "dateTime": 1516482895750}, {"current_trial": 190, "trialdata": {"rt": -1000, "trial_type": "single-audio", "word": "custard", "stimulus": "/static/audio/wordpool/CUSTARD.wav", "conditions": [24, 800, "a", 24000], "internal_node_id": "0.0-145.0", "trial": 4, "time_elapsed": 737827, "serialpos": 21, "key_press": -1, "wordID": 428, "type": "PRES_AUD", "trial_index": 190}, "uniqueid": "MTK1865:3JZQSN0I3RHSOCBNQI7SKUUPJAYGFB", "dateTime": 1516482897721}, {"current_trial": 191, "trialdata": {"rt": -1000, "trial_type": "single-audio", "word": "icing", "stimulus": "/static/audio/wordpool/ICING.wav", "conditions": [24, 800, "a", 24000], "internal_node_id": "0.0-146.0", "trial": 4, "time_elapsed": 739701, "serialpos": 22, "key_press": -1, "wordID": 731, "type": "PRES_AUD", "trial_index": 191}, "uniqueid": "MTK1865:3JZQSN0I3RHSOCBNQI7SKUUPJAYGFB", "dateTime": 1516482899596}, {"current_trial": 192, "trialdata": {"rt": -1000, "trial_type": "single-audio", "word": "robber", "stimulus": "/static/audio/wordpool/ROBBER.wav", "conditions": [24, 800, "a", 24000], "internal_node_id": "0.0-147.0", "trial": 4, "time_elapsed": 741647, "serialpos": 23, "key_press": -1, "wordID": 1196, "type": "PRES_AUD", "trial_index": 192}, "uniqueid": "MTK1865:3JZQSN0I3RHSOCBNQI7SKUUPJAYGFB", "dateTime": 1516482901541}, {"current_trial": 193, "trialdata": {"rt": -1, "trial_type": "single-stim", "stimulus": "", "internal_node_id": "0.0-148.0-0.0", "time_elapsed": 742860, "key_press": -1, "type": "PRE_RECALL_DELAY", "trial_index": 193}, "uniqueid": "MTK1865:3JZQSN0I3RHSOCBNQI7SKUUPJAYGFB", "dateTime": 1516482902754}, {"current_trial": 194, "trialdata": {"rt": -1000, "trial_type": "single-audio", "stimulus": "/static/audio/400Hz.wav", "internal_node_id": "0.0-149.0", "time_elapsed": 743362, "key_press": -1, "type": "PRE_RECALL_ALERT", "trial_index": 194}, "uniqueid": "MTK1865:3JZQSN0I3RHSOCBNQI7SKUUPJAYGFB", "dateTime": 1516482903256}, {"current_trial": 195, "trialdata": {"rt": [1955, 3125, 4101, 6297, 7552, 8580, 10261, 23351, 32681, 35614, 59281], "recwords": ["robber", "custard", "icing", "clam", "oyster", "seafood", "knife", "mustard", "japan", "france", "france"], "key_times": [818, 1148, 1491, 1589, 1713, 1801, 1955, 2190, 2322, 2468, 2532, 2699, 2807, 3002, 3125, 3439, 3557, 3677, 3765, 3881, 4101, 5473, 5609, 5705, 5849, 6297, 6584, 6850, 6981, 7109, 7283, 7403, 7552, 7771, 7823, 7939, 8083, 8207, 8346, 8446, 8580, 9627, 9776, 9888, 9980, 10084, 10261, 22171, 22470, 22594, 22694, 22821, 22937, 23169, 23351, 31937, 32075, 32208, 32327, 32436, 32681, 34705, 34997, 35124, 35240, 35390, 35466, 35614, 58457, 58692, 58801, 58953, 59069, 59157, 59281], "trial_type": "free-recall", "conditions": [24, 800, "a", 24000], "internal_node_id": "0.0-150.0-0.0", "key_presses": [82, 79, 66, 66, 69, 82, 13, 67, 85, 83, 84, 65, 82, 68, 13, 73, 67, 73, 78, 71, 13, 67, 76, 65, 77, 13, 79, 89, 83, 84, 69, 82, 13, 83, 69, 65, 70, 79, 79, 68, 13, 75, 78, 73, 70, 69, 13, 77, 85, 83, 84, 65, 82, 68, 13, 74, 65, 80, 65, 78, 13, 70, 82, 65, 78, 67, 69, 13, 70, 82, 65, 78, 67, 69, 13], "trial": 4, "time_elapsed": 803368, "type": "FREE_RECALL", "trial_index": 195}, "uniqueid": "MTK1865:3JZQSN0I3RHSOCBNQI7SKUUPJAYGFB", "dateTime": 1516482963266}, {"current_trial": 196, "trialdata": {"rt": 546, "trial_type": "text", "internal_node_id": "0.0-151.0", "time_elapsed": 805920, "key_press": 32, "type": "INSTRUCTIONS", "trial_index": 196}, "uniqueid": "MTK1865:3JZQSN0I3RHSOCBNQI7SKUUPJAYGFB", "dateTime": 1516482965814}, {"current_trial": 197, "trialdata": {"rt": [1708, 3554, 8828, 10704], "trial_type": "math-distractor", "key_times": [1422, 1489, 1708, 2837, 3147, 3207, 3331, 3554, 8460, 8571, 8828, 10496, 10600, 10704], "responses": ["10", "10", "17", "14"], "num2": [5, 6, 5, 7, 4], "num3": [1, 3, 8, 1, 6], "conditions": [12, 800, "a", 12000], "internal_node_id": "0.0-152.0", "key_presses": [49, 48, 13, 48, 8, 49, 48, 13, 49, 55, 13, 49, 52, 13], "trial": 5, "time_elapsed": 819928, "type": "DISTRACTOR", "trial_index": 197, "num1": [4, 1, 8, 6, 3]}, "uniqueid": "MTK1865:3JZQSN0I3RHSOCBNQI7SKUUPJAYGFB", "dateTime": 1516482979822}, {"current_trial": 198, "trialdata": {"rt": -1, "trial_type": "single-stim", "stimulus": "<p id=\"stim\">10</p>", "internal_node_id": "0.0-153.0-0.0", "time_elapsed": 822934, "key_press": -1, "trial_index": 198}, "uniqueid": "MTK1865:3JZQSN0I3RHSOCBNQI7SKUUPJAYGFB", "dateTime": 1516482982828}, {"current_trial": 199, "trialdata": {"rt": -1, "trial_type": "single-stim", "stimulus": "<p id=\"stim\">9</p>", "internal_node_id": "0.0-153.0-1.0", "time_elapsed": 823938, "key_press": -1, "trial_index": 199}, "uniqueid": "MTK1865:3JZQSN0I3RHSOCBNQI7SKUUPJAYGFB", "dateTime": 1516482983833}, {"current_trial": 200, "trialdata": {"rt": -1, "trial_type": "single-stim", "stimulus": "<p id=\"stim\">8</p>", "internal_node_id": "0.0-153.0-2.0", "time_elapsed": 824943, "key_press": -1, "trial_index": 200}, "uniqueid": "MTK1865:3JZQSN0I3RHSOCBNQI7SKUUPJAYGFB", "dateTime": 1516482984837}, {"current_trial": 201, "trialdata": {"rt": -1, "trial_type": "single-stim", "stimulus": "<p id=\"stim\">7</p>", "internal_node_id": "0.0-153.0-3.0", "time_elapsed": 825949, "key_press": -1, "trial_index": 201}, "uniqueid": "MTK1865:3JZQSN0I3RHSOCBNQI7SKUUPJAYGFB", "dateTime": 1516482985843}, {"current_trial": 202, "trialdata": {"rt": -1, "trial_type": "single-stim", "stimulus": "<p id=\"stim\">6</p>", "internal_node_id": "0.0-153.0-4.0", "time_elapsed": 826954, "key_press": -1, "trial_index": 202}, "uniqueid": "MTK1865:3JZQSN0I3RHSOCBNQI7SKUUPJAYGFB", "dateTime": 1516482986848}, {"current_trial": 203, "trialdata": {"rt": -1, "trial_type": "single-stim", "stimulus": "<p id=\"stim\">5</p>", "internal_node_id": "0.0-153.0-5.0", "time_elapsed": 827959, "key_press": -1, "trial_index": 203}, "uniqueid": "MTK1865:3JZQSN0I3RHSOCBNQI7SKUUPJAYGFB", "dateTime": 1516482987853}, {"current_trial": 204, "trialdata": {"rt": -1, "trial_type": "single-stim", "stimulus": "<p id=\"stim\">4</p>", "internal_node_id": "0.0-153.0-6.0", "time_elapsed": 828965, "key_press": -1, "trial_index": 204}, "uniqueid": "MTK1865:3JZQSN0I3RHSOCBNQI7SKUUPJAYGFB", "dateTime": 1516482988859}, {"current_trial": 205, "trialdata": {"rt": -1, "trial_type": "single-stim", "stimulus": "<p id=\"stim\">3</p>", "internal_node_id": "0.0-153.0-7.0", "time_elapsed": 829970, "key_press": -1, "trial_index": 205}, "uniqueid": "MTK1865:3JZQSN0I3RHSOCBNQI7SKUUPJAYGFB", "dateTime": 1516482989864}, {"current_trial": 206, "trialdata": {"rt": -1, "trial_type": "single-stim", "stimulus": "<p id=\"stim\">2</p>", "internal_node_id": "0.0-153.0-8.0", "time_elapsed": 830975, "key_press": -1, "trial_index": 206}, "uniqueid": "MTK1865:3JZQSN0I3RHSOCBNQI7SKUUPJAYGFB", "dateTime": 1516482990869}, {"current_trial": 207, "trialdata": {"rt": -1, "trial_type": "single-stim", "stimulus": "<p id=\"stim\">1</p>", "internal_node_id": "0.0-153.0-9.0", "time_elapsed": 831981, "key_press": -1, "trial_index": 207}, "uniqueid": "MTK1865:3JZQSN0I3RHSOCBNQI7SKUUPJAYGFB", "dateTime": 1516482991876}, {"current_trial": 208, "trialdata": {"rt": -1, "trial_type": "single-stim", "stimulus": "<p id=\"stim\">+</p>", "internal_node_id": "0.0-154.0-0.0", "time_elapsed": 833486, "key_press": -1, "type": "FIXATION", "trial_index": 208}, "uniqueid": "MTK1865:3JZQSN0I3RHSOCBNQI7SKUUPJAYGFB", "dateTime": 1516482993380}, {"current_trial": 209, "trialdata": {"rt": -1000, "trial_type": "single-audio", "word": "cashier", "stimulus": "/static/audio/wordpool/CASHIER.wav", "conditions": [12, 800, "a", 12000], "internal_node_id": "0.0-155.0", "trial": 5, "time_elapsed": 835122, "serialpos": 0, "key_press": -1, "wordID": 253, "type": "PRES_AUD", "trial_index": 209}, "uniqueid": "MTK1865:3JZQSN0I3RHSOCBNQI7SKUUPJAYGFB", "dateTime": 1516482995016}, {"current_trial": 210, "trialdata": {"rt": -1000, "trial_type": "single-audio", "word": "zipper", "stimulus": "/static/audio/wordpool/ZIPPER.wav", "conditions": [12, 800, "a", 12000], "internal_node_id": "0.0-156.0", "trial": 5, "time_elapsed": 836759, "serialpos": 1, "key_press": -1, "wordID": 1635, "type": "PRES_AUD", "trial_index": 210}, "uniqueid": "MTK1865:3JZQSN0I3RHSOCBNQI7SKUUPJAYGFB", "dateTime": 1516482996653}, {"current_trial": 211, "trialdata": {"rt": -1000, "trial_type": "single-audio", "word": "shortcake", "stimulus": "/static/audio/wordpool/SHORTCAKE.wav", "conditions": [12, 800, "a", 12000], "internal_node_id": "0.0-157.0", "trial": 5, "time_elapsed": 838547, "serialpos": 2, "key_press": -1, "wordID": 1291, "type": "PRES_AUD", "trial_index": 211}, "uniqueid": "MTK1865:3JZQSN0I3RHSOCBNQI7SKUUPJAYGFB", "dateTime": 1516482998441}, {"current_trial": 212, "trialdata": {"rt": -1000, "trial_type": "single-audio", "word": "scallop", "stimulus": "/static/audio/wordpool/SCALLOP.wav", "conditions": [12, 800, "a", 12000], "internal_node_id": "0.0-158.0", "trial": 5, "time_elapsed": 840445, "serialpos": 3, "key_press": -1, "wordID": 1241, "type": "PRES_AUD", "trial_index": 212}, "uniqueid": "MTK1865:3JZQSN0I3RHSOCBNQI7SKUUPJAYGFB", "dateTime": 1516483000339}, {"current_trial": 213, "trialdata": {"rt": -1000, "trial_type": "single-audio", "word": "waiter", "stimulus": "/static/audio/wordpool/WAITER.wav", "conditions": [12, 800, "a", 12000], "internal_node_id": "0.0-159.0", "trial": 5, "time_elapsed": 842268, "serialpos": 4, "key_press": -1, "wordID": 1579, "type": "PRES_AUD", "trial_index": 213}, "uniqueid": "MTK1865:3JZQSN0I3RHSOCBNQI7SKUUPJAYGFB", "dateTime": 1516483002162}, {"current_trial": 214, "trialdata": {"rt": -1000, "trial_type": "single-audio", "word": "dandruff", "stimulus": "/static/audio/wordpool/DANDRUFF.wav", "conditions": [12, 800, "a", 12000], "internal_node_id": "0.0-160.0", "trial": 5, "time_elapsed": 843974, "serialpos": 5, "key_press": -1, "wordID": 438, "type": "PRES_AUD", "trial_index": 214}, "uniqueid": "MTK1865:3JZQSN0I3RHSOCBNQI7SKUUPJAYGFB", "dateTime": 1516483003869}, {"current_trial": 215, "trialdata": {"rt": -1000, "trial_type": "single-audio", "word": "hostess", "stimulus": "/static/audio/wordpool/HOSTESS.wav", "conditions": [12, 800, "a", 12000], "internal_node_id": "0.0-161.0", "trial": 5, "time_elapsed": 845919, "serialpos": 6, "key_press": -1, "wordID": 722, "type": "PRES_AUD", "trial_index": 215}, "uniqueid": "MTK1865:3JZQSN0I3RHSOCBNQI7SKUUPJAYGFB", "dateTime": 1516483005813}, {"current_trial": 216, "trialdata": {"rt": -1000, "trial_type": "single-audio", "word": "waitress", "stimulus": "/static/audio/wordpool/WAITRESS.wav", "conditions": [12, 800, "a", 12000], "internal_node_id": "0.0-162.0", "trial": 5, "time_elapsed": 847738, "serialpos": 7, "key_press": -1, "wordID": 1580, "type": "PRES_AUD", "trial_index": 216}, "uniqueid": "MTK1865:3JZQSN0I3RHSOCBNQI7SKUUPJAYGFB", "dateTime": 1516483007633}, {"current_trial": 217, "trialdata": {"rt": -1000, "trial_type": "single-audio", "word": "cupboard", "stimulus": "/static/audio/wordpool/CUPBOARD.wav", "conditions": [12, 800, "a", 12000], "internal_node_id": "0.0-163.0", "trial": 5, "time_elapsed": 849518, "serialpos": 8, "key_press": -1, "wordID": 424, "type": "PRES_AUD", "trial_index": 217}, "uniqueid": "MTK1865:3JZQSN0I3RHSOCBNQI7SKUUPJAYGFB", "dateTime": 1516483009413}, {"current_trial": 218, "trialdata": {"rt": -1000, "trial_type": "single-audio", "word": "chemist", "stimulus": "/static/audio/wordpool/CHEMIST.wav", "conditions": [12, 800, "a", 12000], "internal_node_id": "0.0-164.0", "trial": 5, "time_elapsed": 851373, "serialpos": 9, "key_press": -1, "wordID": 291, "type": "PRES_AUD", "trial_index": 218}, "uniqueid": "MTK1865:3JZQSN0I3RHSOCBNQI7SKUUPJAYGFB", "dateTime": 1516483011267}, {"current_trial": 219, "trialdata": {"rt": -1000, "trial_type": "single-audio", "word": "lagoon", "stimulus": "/static/audio/wordpool/LAGOON.wav", "conditions": [12, 800, "a", 12000], "internal_node_id": "0.0-165.0", "trial": 5, "time_elapsed": 853199, "serialpos": 10, "key_press": -1, "wordID": 794, "type": "PRES_AUD", "trial_index": 219}, "uniqueid": "MTK1865:3JZQSN0I3RHSOCBNQI7SKUUPJAYGFB", "dateTime": 1516483013093}, {"current_trial": 220, "trialdata": {"rt": -1000, "trial_type": "single-audio", "word": "fleet", "stimulus": "/static/audio/wordpool/FLEET.wav", "conditions": [12, 800, "a", 12000], "internal_node_id": "0.0-166.0", "trial": 5, "time_elapsed": 855080, "serialpos": 11, "key_press": -1, "wordID": 577, "type": "PRES_AUD", "trial_index": 220}, "uniqueid": "MTK1865:3JZQSN0I3RHSOCBNQI7SKUUPJAYGFB", "dateTime": 1516483014974}, {"current_trial": 221, "trialdata": {"rt": -1, "trial_type": "single-stim", "stimulus": "", "internal_node_id": "0.0-167.0-0.0", "time_elapsed": 856437, "key_press": -1, "type": "PRE_RECALL_DELAY", "trial_index": 221}, "uniqueid": "MTK1865:3JZQSN0I3RHSOCBNQI7SKUUPJAYGFB", "dateTime": 1516483016331}, {"current_trial": 222, "trialdata": {"rt": -1000, "trial_type": "single-audio", "stimulus": "/static/audio/400Hz.wav", "internal_node_id": "0.0-168.0", "time_elapsed": 856938, "key_press": -1, "type": "PRE_RECALL_ALERT", "trial_index": 222}, "uniqueid": "MTK1865:3JZQSN0I3RHSOCBNQI7SKUUPJAYGFB", "dateTime": 1516483016832}, {"current_trial": 223, "trialdata": {"rt": [2100, 3224, 4546, 5346, 7594, 13165, 18804, 47959], "recwords": ["fleet", "lagoon", "waitress", "host", "cupboard", "fleet", "lagoon", "seafood"], "key_times": [510, 940, 1040, 1347, 1754, 1818, 1894, 2100, 2414, 2494, 2586, 2730, 2868, 3000, 3224, 3570, 3646, 3726, 3838, 4010, 4094, 4290, 4432, 4546, 4788, 4950, 5002, 5094, 5346, 6701, 6781, 6920, 7127, 7219, 7255, 7331, 7526, 7594, 12498, 12661, 12681, 12838, 13031, 13165, 17893, 17961, 18109, 18185, 18313, 18568, 18804, 46620, 46747, 46917, 47453, 47585, 47747, 47835, 47959], "trial_type": "free-recall", "conditions": [12, 800, "a", 12000], "internal_node_id": "0.0-169.0-0.0", "key_presses": [70, 76, 69, 84, 8, 69, 84, 13, 76, 65, 71, 79, 79, 78, 13, 87, 65, 73, 84, 82, 69, 83, 83, 13, 72, 79, 83, 84, 13, 67, 85, 80, 66, 79, 65, 82, 68, 13, 70, 76, 69, 69, 84, 13, 76, 65, 71, 79, 79, 78, 13, 83, 69, 65, 70, 79, 79, 68, 13], "trial": 5, "time_elapsed": 916947, "type": "FREE_RECALL", "trial_index": 223}, "uniqueid": "MTK1865:3JZQSN0I3RHSOCBNQI7SKUUPJAYGFB", "dateTime": 1516483076845}, {"current_trial": 224, "trialdata": {"rt": 672, "trial_type": "text", "internal_node_id": "0.0-170.0", "time_elapsed": 919628, "key_press": 32, "type": "INSTRUCTIONS", "trial_index": 224}, "uniqueid": "MTK1865:3JZQSN0I3RHSOCBNQI7SKUUPJAYGFB", "dateTime": 1516483079522}, {"current_trial": 225, "trialdata": {"rt": [2033, 4504, 6403, 8432], "trial_type": "math-distractor", "key_times": [1622, 1798, 2033, 3778, 4231, 4504, 5635, 5943, 6130, 6403, 8226, 8335, 8432, 11928], "responses": ["16", "15", "9", "24"], "num2": [4, 2, 3, 8, 8], "num3": [6, 9, 5, 8, 9], "conditions": [24, 1600, "a", 12000], "internal_node_id": "0.0-171.0", "key_presses": [49, 54, 13, 49, 53, 13, 56, 8, 57, 13, 50, 52, 13, 49], "trial": 6, "time_elapsed": 933634, "type": "DISTRACTOR", "trial_index": 225, "num1": [6, 3, 1, 8, 6]}, "uniqueid": "MTK1865:3JZQSN0I3RHSOCBNQI7SKUUPJAYGFB", "dateTime": 1516483093528}, {"current_trial": 226, "trialdata": {"rt": -1, "trial_type": "single-stim", "stimulus": "<p id=\"stim\">10</p>", "internal_node_id": "0.0-172.0-0.0", "time_elapsed": 936640, "key_press": -1, "trial_index": 226}, "uniqueid": "MTK1865:3JZQSN0I3RHSOCBNQI7SKUUPJAYGFB", "dateTime": 1516483096534}, {"current_trial": 227, "trialdata": {"rt": -1, "trial_type": "single-stim", "stimulus": "<p id=\"stim\">9</p>", "internal_node_id": "0.0-172.0-1.0", "time_elapsed": 937643, "key_press": -1, "trial_index": 227}, "uniqueid": "MTK1865:3JZQSN0I3RHSOCBNQI7SKUUPJAYGFB", "dateTime": 1516483097537}, {"current_trial": 228, "trialdata": {"rt": -1, "trial_type": "single-stim", "stimulus": "<p id=\"stim\">8</p>", "internal_node_id": "0.0-172.0-2.0", "time_elapsed": 938648, "key_press": -1, "trial_index": 228}, "uniqueid": "MTK1865:3JZQSN0I3RHSOCBNQI7SKUUPJAYGFB", "dateTime": 1516483098543}, {"current_trial": 229, "trialdata": {"rt": -1, "trial_type": "single-stim", "stimulus": "<p id=\"stim\">7</p>", "internal_node_id": "0.0-172.0-3.0", "time_elapsed": 939653, "key_press": -1, "trial_index": 229}, "uniqueid": "MTK1865:3JZQSN0I3RHSOCBNQI7SKUUPJAYGFB", "dateTime": 1516483099547}, {"current_trial": 230, "trialdata": {"rt": -1, "trial_type": "single-stim", "stimulus": "<p id=\"stim\">6</p>", "internal_node_id": "0.0-172.0-4.0", "time_elapsed": 940657, "key_press": -1, "trial_index": 230}, "uniqueid": "MTK1865:3JZQSN0I3RHSOCBNQI7SKUUPJAYGFB", "dateTime": 1516483100551}, {"current_trial": 231, "trialdata": {"rt": -1, "trial_type": "single-stim", "stimulus": "<p id=\"stim\">5</p>", "internal_node_id": "0.0-172.0-5.0", "time_elapsed": 941661, "key_press": -1, "trial_index": 231}, "uniqueid": "MTK1865:3JZQSN0I3RHSOCBNQI7SKUUPJAYGFB", "dateTime": 1516483101555}, {"current_trial": 232, "trialdata": {"rt": -1, "trial_type": "single-stim", "stimulus": "<p id=\"stim\">4</p>", "internal_node_id": "0.0-172.0-6.0", "time_elapsed": 942665, "key_press": -1, "trial_index": 232}, "uniqueid": "MTK1865:3JZQSN0I3RHSOCBNQI7SKUUPJAYGFB", "dateTime": 1516483102559}, {"current_trial": 233, "trialdata": {"rt": -1, "trial_type": "single-stim", "stimulus": "<p id=\"stim\">3</p>", "internal_node_id": "0.0-172.0-7.0", "time_elapsed": 943669, "key_press": -1, "trial_index": 233}, "uniqueid": "MTK1865:3JZQSN0I3RHSOCBNQI7SKUUPJAYGFB", "dateTime": 1516483103564}, {"current_trial": 234, "trialdata": {"rt": -1, "trial_type": "single-stim", "stimulus": "<p id=\"stim\">2</p>", "internal_node_id": "0.0-172.0-8.0", "time_elapsed": 944673, "key_press": -1, "trial_index": 234}, "uniqueid": "MTK1865:3JZQSN0I3RHSOCBNQI7SKUUPJAYGFB", "dateTime": 1516483104567}, {"current_trial": 235, "trialdata": {"rt": -1, "trial_type": "single-stim", "stimulus": "<p id=\"stim\">1</p>", "internal_node_id": "0.0-172.0-9.0", "time_elapsed": 945677, "key_press": -1, "trial_index": 235}, "uniqueid": "MTK1865:3JZQSN0I3RHSOCBNQI7SKUUPJAYGFB", "dateTime": 1516483105571}, {"current_trial": 236, "trialdata": {"rt": -1, "trial_type": "single-stim", "stimulus": "<p id=\"stim\">+</p>", "internal_node_id": "0.0-173.0-0.0", "time_elapsed": 947180, "key_press": -1, "type": "FIXATION", "trial_index": 236}, "uniqueid": "MTK1865:3JZQSN0I3RHSOCBNQI7SKUUPJAYGFB", "dateTime": 1516483107075}, {"current_trial": 237, "trialdata": {"rt": -1000, "trial_type": "single-audio", "word": "student", "stimulus": "/static/audio/wordpool/STUDENT.wav", "conditions": [24, 1600, "a", 12000], "internal_node_id": "0.0-174.0", "trial": 6, "time_elapsed": 949596, "serialpos": 0, "key_press": -1, "wordID": 1394, "type": "PRES_AUD", "trial_index": 237}, "uniqueid": "MTK1865:3JZQSN0I3RHSOCBNQI7SKUUPJAYGFB", "dateTime": 1516483109490}, {"current_trial": 238, "trialdata": {"rt": -1000, "trial_type": "single-audio", "word": "teacher", "stimulus": "/static/audio/wordpool/TEACHER.wav", "conditions": [24, 1600, "a", 12000], "internal_node_id": "0.0-175.0", "trial": 6, "time_elapsed": 952280, "serialpos": 1, "key_press": -1, "wordID": 1439, "type": "PRES_AUD", "trial_index": 238}, "uniqueid": "MTK1865:3JZQSN0I3RHSOCBNQI7SKUUPJAYGFB", "dateTime": 1516483112174}, {"current_trial": 239, "trialdata": {"rt": -1000, "trial_type": "single-audio", "word": "couch", "stimulus": "/static/audio/wordpool/COUCH.wav", "conditions": [24, 1600, "a", 12000], "internal_node_id": "0.0-176.0", "trial": 6, "time_elapsed": 954846, "serialpos": 2, "key_press": -1, "wordID": 385, "type": "PRES_AUD", "trial_index": 239}, "uniqueid": "MTK1865:3JZQSN0I3RHSOCBNQI7SKUUPJAYGFB", "dateTime": 1516483114740}, {"current_trial": 240, "trialdata": {"rt": -1000, "trial_type": "single-audio", "word": "plaza", "stimulus": "/static/audio/wordpool/PLAZA.wav", "conditions": [24, 1600, "a", 12000], "internal_node_id": "0.0-177.0", "trial": 6, "time_elapsed": 957446, "serialpos": 3, "key_press": -1, "wordID": 1087, "type": "PRES_AUD", "trial_index": 240}, "uniqueid": "MTK1865:3JZQSN0I3RHSOCBNQI7SKUUPJAYGFB", "dateTime": 1516483117340}, {"current_trial": 241, "trialdata": {"rt": -1000, "trial_type": "single-audio", "word": "cloud", "stimulus": "/static/audio/wordpool/CLOUD.wav", "conditions": [24, 1600, "a", 12000], "internal_node_id": "0.0-178.0", "trial": 6, "time_elapsed": 959861, "serialpos": 4, "key_press": -1, "wordID": 327, "type": "PRES_AUD", "trial_index": 241}, "uniqueid": "MTK1865:3JZQSN0I3RHSOCBNQI7SKUUPJAYGFB", "dateTime": 1516483119755}, {"current_trial": 242, "trialdata": {"rt": -1000, "trial_type": "single-audio", "word": "drink", "stimulus": "/static/audio/wordpool/DRINK.wav", "conditions": [24, 1600, "a", 12000], "internal_node_id": "0.0-179.0", "trial": 6, "time_elapsed": 962352, "serialpos": 5, "key_press": -1, "wordID": 497, "type": "PRES_AUD", "trial_index": 242}, "uniqueid": "MTK1865:3JZQSN0I3RHSOCBNQI7SKUUPJAYGFB", "dateTime": 1516483122246}, {"current_trial": 243, "trialdata": {"rt": -1000, "trial_type": "single-audio", "word": "tourist", "stimulus": "/static/audio/wordpool/TOURIST.wav", "conditions": [24, 1600, "a", 12000], "internal_node_id": "0.0-180.0", "trial": 6, "time_elapsed": 965068, "serialpos": 6, "key_press": -1, "wordID": 1487, "type": "PRES_AUD", "trial_index": 243}, "uniqueid": "MTK1865:3JZQSN0I3RHSOCBNQI7SKUUPJAYGFB", "dateTime": 1516483124962}, {"current_trial": 244, "trialdata": {"rt": -1000, "trial_type": "single-audio", "word": "toaster", "stimulus": "/static/audio/wordpool/TOASTER.wav", "conditions": [24, 1600, "a", 12000], "internal_node_id": "0.0-181.0", "trial": 6, "time_elapsed": 967785, "serialpos": 7, "key_press": -1, "wordID": 1471, "type": "PRES_AUD", "trial_index": 244}, "uniqueid": "MTK1865:3JZQSN0I3RHSOCBNQI7SKUUPJAYGFB", "dateTime": 1516483127679}, {"current_trial": 245, "trialdata": {"rt": -1000, "trial_type": "single-audio", "word": "valley", "stimulus": "/static/audio/wordpool/VALLEY.wav", "conditions": [24, 1600, "a", 12000], "internal_node_id": "0.0-182.0", "trial": 6, "time_elapsed": 970426, "serialpos": 8, "key_press": -1, "wordID": 1544, "type": "PRES_AUD", "trial_index": 245}, "uniqueid": "MTK1865:3JZQSN0I3RHSOCBNQI7SKUUPJAYGFB", "dateTime": 1516483130321}, {"current_trial": 246, "trialdata": {"rt": -1000, "trial_type": "single-audio", "word": "flower", "stimulus": "/static/audio/wordpool/FLOWER.wav", "conditions": [24, 1600, "a", 12000], "internal_node_id": "0.0-183.0", "trial": 6, "time_elapsed": 972859, "serialpos": 9, "key_press": -1, "wordID": 583, "type": "PRES_AUD", "trial_index": 246}, "uniqueid": "MTK1865:3JZQSN0I3RHSOCBNQI7SKUUPJAYGFB", "dateTime": 1516483132753}, {"current_trial": 247, "trialdata": {"rt": -1000, "trial_type": "single-audio", "word": "milk", "stimulus": "/static/audio/wordpool/MILK.wav", "conditions": [24, 1600, "a", 12000], "internal_node_id": "0.0-184.0", "trial": 6, "time_elapsed": 975407, "serialpos": 10, "key_press": -1, "wordID": 894, "type": "PRES_AUD", "trial_index": 247}, "uniqueid": "MTK1865:3JZQSN0I3RHSOCBNQI7SKUUPJAYGFB", "dateTime": 1516483135301}, {"current_trial": 248, "trialdata": {"rt": -1000, "trial_type": "single-audio", "word": "stove", "stimulus": "/static/audio/wordpool/STOVE.wav", "conditions": [24, 1600, "a", 12000], "internal_node_id": "0.0-185.0", "trial": 6, "time_elapsed": 978176, "serialpos": 11, "key_press": -1, "wordID": 1387, "type": "PRES_AUD", "trial_index": 248}, "uniqueid": "MTK1865:3JZQSN0I3RHSOCBNQI7SKUUPJAYGFB",