{"assignmentId": "3UJ1CZ6IZIW3CKRPF6O0NWMFHNH5SV", "workerId": "MTK1594", "questiondata": {"avail_screen_height": 860, "color_depth": 24, "screen_width": 1600, "pixel_depth": 24, "avail_screen_width": 1600, "screen_height": 900}, "bonus": 0, "hitId": "3XUY87HIVPLWZC1WX64Y352BTMJMMD", "counterbalance": 2056, "useragent": "Mozilla/5.0 (Windows NT 6.3; Win64; x64) AppleWebKit/537.36 (KHTML, like Gecko) Chrome/63.0.3239.132 Safari/537.36", "eventdata": [{"eventtype": "initialized", "interval": 0, "value": null, "timestamp": 1516043439160}, {"eventtype": "window_resize", "interval": 1, "value": [1596, 845], "timestamp": 1516043439161}, {"eventtype": "focus", "interval": 9696, "value": "off", "timestamp": 1516043448857}, {"eventtype": "focus", "interval": 90060, "value": "on", "timestamp": 1516043538917}], "data": [{"current_trial": 0, "trialdata": {"rt": 37319, "trial_type": "text", "internal_node_id": "0.0-0.0", "time_elapsed": 37324, "key_press": 32, "type": "INSTRUCTIONS", "trial_index": 0}, "uniqueid": "MTK1594:3UJ1CZ6IZIW3CKRPF6O0NWMFHNH5SV", "dateTime": 1516043541744}, {"current_trial": 1, "trialdata": {"rt": 49281, "trial_type": "text", "internal_node_id": "0.0-1.0", "time_elapsed": 86613, "key_press": 32, "type": "INSTRUCTIONS", "trial_index": 1}, "uniqueid": "MTK1594:3UJ1CZ6IZIW3CKRPF6O0NWMFHNH5SV", "dateTime": 1516043591031}, {"current_trial": 2, "trialdata": {"rt": [9088], "trial_type": "audio-test", "responses": ["ocean"], "internal_node_id": "0.0-2.0", "time_elapsed": 95765, "type": "AUDIO_TEST", "trial_index": 2}, "uniqueid": "MTK1594:3UJ1CZ6IZIW3CKRPF6O0NWMFHNH5SV", "dateTime": 1516043600182}, {"current_trial": 3, "trialdata": {"rt": [10891], "trial_type": "audio-test", "responses": ["crystal"], "internal_node_id": "0.0-3.0", "time_elapsed": 106677, "type": "AUDIO_TEST", "trial_index": 3}, "uniqueid": "MTK1594:3UJ1CZ6IZIW3CKRPF6O0NWMFHNH5SV", "dateTime": 1516043611095}, {"current_trial": 4, "trialdata": {"rt": [10882], "trial_type": "audio-test", "responses": ["spice"], "internal_node_id": "0.0-4.0", "time_elapsed": 117574, "type": "AUDIO_TEST", "trial_index": 4}, "uniqueid": "MTK1594:3UJ1CZ6IZIW3CKRPF6O0NWMFHNH5SV", "dateTime": 1516043621992}, {"current_trial": 5, "trialdata": {"rt": 26617, "trial_type": "survey-text", "responses": "{\"Q0\":\"Midnight\",\"Q1\":\"8:45 am\",\"Q2\":\"5\"}", "internal_node_id": "0.0-5.0", "time_elapsed": 144948, "type": "SLEEP_SURVEY", "trial_index": 5}, "uniqueid": "MTK1594:3UJ1CZ6IZIW3CKRPF6O0NWMFHNH5SV", "dateTime": 1516043649365}, {"current_trial": 6, "trialdata": {"rt": 49663, "trial_type": "text", "internal_node_id": "0.0-6.0", "time_elapsed": 195619, "key_press": 32, "type": "INSTRUCTIONS", "trial_index": 6}, "uniqueid": "MTK1594:3UJ1CZ6IZIW3CKRPF6O0NWMFHNH5SV", "dateTime": 1516043700036}, {"current_trial": 7, "trialdata": {"rt": 34602, "trial_type": "text", "internal_node_id": "0.0-7.0", "time_elapsed": 230725, "key_press": 32, "type": "INSTRUCTIONS", "trial_index": 7}, "uniqueid": "MTK1594:3UJ1CZ6IZIW3CKRPF6O0NWMFHNH5SV", "dateTime": 1516043735142}, {"current_trial": 8, "trialdata": {"rt": 12129, "trial_type": "text", "internal_node_id": "0.0-8.0", "time_elapsed": 243357, "key_press": 32, "type": "INSTRUCTIONS", "trial_index": 8}, "uniqueid": "MTK1594:3UJ1CZ6IZIW3CKRPF6O0NWMFHNH5SV", "dateTime": 1516043747774}, {"current_trial": 9, "trialdata": {"rt": [6531, 11651, 14781], "trial_type": "math-distractor", "key_times": [4020, 4204, 6531, 10072, 10268, 11651, 14284, 14781, 16909, 17732], "responses": ["13", "20", "9"], "num2": [2, 8, 1, 8], "num3": [8, 5, 3, 5], "conditions": [18, 1200, "a", 18000], "internal_node_id": "0.0-9.0", "key_presses": [97, 99, 13, 98, 96, 13, 105, 13, 101, 8], "trial": 0, "time_elapsed": 262394, "type": "DISTRACTOR", "trial_index": 9, "num1": [3, 7, 5, 7]}, "uniqueid": "MTK1594:3UJ1CZ6IZIW3CKRPF6O0NWMFHNH5SV", "dateTime": 1516043766812}, {"current_trial": 10, "trialdata": {"rt": -1, "trial_type": "single-stim", "stimulus": "<p id=\"stim\">10</p>", "internal_node_id": "0.0-10.0-0.0", "time_elapsed": 265398, "key_press": -1, "trial_index": 10}, "uniqueid": "MTK1594:3UJ1CZ6IZIW3CKRPF6O0NWMFHNH5SV", "dateTime": 1516043769815}, {"current_trial": 11, "trialdata": {"rt": -1, "trial_type": "single-stim", "stimulus": "<p id=\"stim\">9</p>", "internal_node_id": "0.0-10.0-1.0", "time_elapsed": 266401, "key_press": -1, "trial_index": 11}, "uniqueid": "MTK1594:3UJ1CZ6IZIW3CKRPF6O0NWMFHNH5SV", "dateTime": 1516043770819}, {"current_trial": 12, "trialdata": {"rt": -1, "trial_type": "single-stim", "stimulus": "<p id=\"stim\">8</p>", "internal_node_id": "0.0-10.0-2.0", "time_elapsed": 267403, "key_press": -1, "trial_index": 12}, "uniqueid": "MTK1594:3UJ1CZ6IZIW3CKRPF6O0NWMFHNH5SV", "dateTime": 1516043771821}, {"current_trial": 13, "trialdata": {"rt": -1, "trial_type": "single-stim", "stimulus": "<p id=\"stim\">7</p>", "internal_node_id": "0.0-10.0-3.0", "time_elapsed": 268405, "key_press": -1, "trial_index": 13}, "uniqueid": "MTK1594:3UJ1CZ6IZIW3CKRPF6O0NWMFHNH5SV", "dateTime": 1516043772823}, {"current_trial": 14, "trialdata": {"rt": -1, "trial_type": "single-stim", "stimulus": "<p id=\"stim\">6</p>", "internal_node_id": "0.0-10.0-4.0", "time_elapsed": 269440, "key_press": -1, "trial_index": 14}, "uniqueid": "MTK1594:3UJ1CZ6IZIW3CKRPF6O0NWMFHNH5SV", "dateTime": 1516043773857}, {"current_trial": 15, "trialdata": {"rt": -1, "trial_type": "single-stim", "stimulus": "<p id=\"stim\">5</p>", "internal_node_id": "0.0-10.0-5.0", "time_elapsed": 270465, "key_press": -1, "trial_index": 15}, "uniqueid": "MTK1594:3UJ1CZ6IZIW3CKRPF6O0NWMFHNH5SV", "dateTime": 1516043774882}, {"current_trial": 16, "trialdata": {"rt": -1, "trial_type": "single-stim", "stimulus": "<p id=\"stim\">4</p>", "internal_node_id": "0.0-10.0-6.0", "time_elapsed": 271479, "key_press": -1, "trial_index": 16}, "uniqueid": "MTK1594:3UJ1CZ6IZIW3CKRPF6O0NWMFHNH5SV", "dateTime": 1516043775897}, {"current_trial": 17, "trialdata": {"rt": -1, "trial_type": "single-stim", "stimulus": "<p id=\"stim\">3</p>", "internal_node_id": "0.0-10.0-7.0", "time_elapsed": 272490, "key_press": -1, "trial_index": 17}, "uniqueid": "MTK1594:3UJ1CZ6IZIW3CKRPF6O0NWMFHNH5SV", "dateTime": 1516043776907}, {"current_trial": 18, "trialdata": {"rt": -1, "trial_type": "single-stim", "stimulus": "<p id=\"stim\">2</p>", "internal_node_id": "0.0-10.0-8.0", "time_elapsed": 273496, "key_press": -1, "trial_index": 18}, "uniqueid": "MTK1594:3UJ1CZ6IZIW3CKRPF6O0NWMFHNH5SV", "dateTime": 1516043777913}, {"current_trial": 19, "trialdata": {"rt": -1, "trial_type": "single-stim", "stimulus": "<p id=\"stim\">1</p>", "internal_node_id": "0.0-10.0-9.0", "time_elapsed": 274498, "key_press": -1, "trial_index": 19}, "uniqueid": "MTK1594:3UJ1CZ6IZIW3CKRPF6O0NWMFHNH5SV", "dateTime": 1516043778915}, {"current_trial": 20, "trialdata": {"rt": -1, "trial_type": "single-stim", "stimulus": "<p id=\"stim\">+</p>", "internal_node_id": "0.0-11.0-0.0", "time_elapsed": 276000, "key_press": -1, "type": "FIXATION", "trial_index": 20}, "uniqueid": "MTK1594:3UJ1CZ6IZIW3CKRPF6O0NWMFHNH5SV", "dateTime": 1516043780417}, {"current_trial": 21, "trialdata": {"rt": -1000, "trial_type": "single-audio", "word": "rooster", "stimulus": "/static/audio/wordpool/ROOSTER.wav", "conditions": [18, 1200, "a", 18000], "internal_node_id": "0.0-12.0", "trial": 0, "time_elapsed": 278202, "serialpos": 0, "key_press": -1, "wordID": 1208, "type": "PRES_AUD", "trial_index": 21}, "uniqueid": "MTK1594:3UJ1CZ6IZIW3CKRPF6O0NWMFHNH5SV", "dateTime": 1516043782619}, {"current_trial": 22, "trialdata": {"rt": -1000, "trial_type": "single-audio", "word": "partner", "stimulus": "/static/audio/wordpool/PARTNER.wav", "conditions": [18, 1200, "a", 18000], "internal_node_id": "0.0-13.0", "trial": 0, "time_elapsed": 280375, "serialpos": 1, "key_press": -1, "wordID": 1016, "type": "PRES_AUD", "trial_index": 22}, "uniqueid": "MTK1594:3UJ1CZ6IZIW3CKRPF6O0NWMFHNH5SV", "dateTime": 1516043784792}, {"current_trial": 23, "trialdata": {"rt": -1000, "trial_type": "single-audio", "word": "proton", "stimulus": "/static/audio/wordpool/PROTON.wav", "conditions": [18, 1200, "a", 18000], "internal_node_id": "0.0-14.0", "trial": 0, "time_elapsed": 282705, "serialpos": 2, "key_press": -1, "wordID": 1131, "type": "PRES_AUD", "trial_index": 23}, "uniqueid": "MTK1594:3UJ1CZ6IZIW3CKRPF6O0NWMFHNH5SV", "dateTime": 1516043787122}, {"current_trial": 24, "trialdata": {"rt": -1000, "trial_type": "single-audio", "word": "costume", "stimulus": "/static/audio/wordpool/COSTUME.wav", "conditions": [18, 1200, "a", 18000], "internal_node_id": "0.0-15.0", "trial": 0, "time_elapsed": 284757, "serialpos": 3, "key_press": -1, "wordID": 382, "type": "PRES_AUD", "trial_index": 24}, "uniqueid": "MTK1594:3UJ1CZ6IZIW3CKRPF6O0NWMFHNH5SV", "dateTime": 1516043789174}, {"current_trial": 25, "trialdata": {"rt": -1000, "trial_type": "single-audio", "word": "diver", "stimulus": "/static/audio/wordpool/DIVER.wav", "conditions": [18, 1200, "a", 18000], "internal_node_id": "0.0-16.0", "trial": 0, "time_elapsed": 286796, "serialpos": 4, "key_press": -1, "wordID": 475, "type": "PRES_AUD", "trial_index": 25}, "uniqueid": "MTK1594:3UJ1CZ6IZIW3CKRPF6O0NWMFHNH5SV", "dateTime": 1516043791213}, {"current_trial": 26, "trialdata": {"rt": -1000, "trial_type": "single-audio", "word": "river", "stimulus": "/static/audio/wordpool/RIVER.wav", "conditions": [18, 1200, "a", 18000], "internal_node_id": "0.0-17.0", "trial": 0, "time_elapsed": 288988, "serialpos": 5, "key_press": -1, "wordID": 1193, "type": "PRES_AUD", "trial_index": 26}, "uniqueid": "MTK1594:3UJ1CZ6IZIW3CKRPF6O0NWMFHNH5SV", "dateTime": 1516043793405}, {"current_trial": 27, "trialdata": {"rt": -1000, "trial_type": "single-audio", "word": "cyclone", "stimulus": "/static/audio/wordpool/CYCLONE.wav", "conditions": [18, 1200, "a", 18000], "internal_node_id": "0.0-18.0", "trial": 0, "time_elapsed": 290993, "serialpos": 6, "key_press": -1, "wordID": 430, "type": "PRES_AUD", "trial_index": 27}, "uniqueid": "MTK1594:3UJ1CZ6IZIW3CKRPF6O0NWMFHNH5SV", "dateTime": 1516043795410}, {"current_trial": 28, "trialdata": {"rt": -1000, "trial_type": "single-audio", "word": "stove", "stimulus": "/static/audio/wordpool/STOVE.wav", "conditions": [18, 1200, "a", 18000], "internal_node_id": "0.0-19.0", "trial": 0, "time_elapsed": 293329, "serialpos": 7, "key_press": -1, "wordID": 1387, "type": "PRES_AUD", "trial_index": 28}, "uniqueid": "MTK1594:3UJ1CZ6IZIW3CKRPF6O0NWMFHNH5SV", "dateTime": 1516043797746}, {"current_trial": 29, "trialdata": {"rt": -1000, "trial_type": "single-audio", "word": "lagoon", "stimulus": "/static/audio/wordpool/LAGOON.wav", "conditions": [18, 1200, "a", 18000], "internal_node_id": "0.0-20.0", "trial": 0, "time_elapsed": 295550, "serialpos": 8, "key_press": -1, "wordID": 794, "type": "PRES_AUD", "trial_index": 29}, "uniqueid": "MTK1594:3UJ1CZ6IZIW3CKRPF6O0NWMFHNH5SV", "dateTime": 1516043799967}, {"current_trial": 30, "trialdata": {"rt": -1000, "trial_type": "single-audio", "word": "turkey", "stimulus": "/static/audio/wordpool/TURKEY.wav", "conditions": [18, 1200, "a", 18000], "internal_node_id": "0.0-21.0", "trial": 0, "time_elapsed": 297702, "serialpos": 9, "key_press": -1, "wordID": 1519, "type": "PRES_AUD", "trial_index": 30}, "uniqueid": "MTK1594:3UJ1CZ6IZIW3CKRPF6O0NWMFHNH5SV", "dateTime": 1516043802119}, {"current_trial": 31, "trialdata": {"rt": -1000, "trial_type": "single-audio", "word": "quarter", "stimulus": "/static/audio/wordpool/QUARTER.wav", "conditions": [18, 1200, "a", 18000], "internal_node_id": "0.0-22.0", "trial": 0, "time_elapsed": 299911, "serialpos": 10, "key_press": -1, "wordID": 1147, "type": "PRES_AUD", "trial_index": 31}, "uniqueid": "MTK1594:3UJ1CZ6IZIW3CKRPF6O0NWMFHNH5SV", "dateTime": 1516043804328}, {"current_trial": 32, "trialdata": {"rt": -1000, "trial_type": "single-audio", "word": "apron", "stimulus": "/static/audio/wordpool/APRON.wav", "conditions": [18, 1200, "a", 18000], "internal_node_id": "0.0-23.0", "trial": 0, "time_elapsed": 302142, "serialpos": 11, "key_press": -1, "wordID": 34, "type": "PRES_AUD", "trial_index": 32}, "uniqueid": "MTK1594:3UJ1CZ6IZIW3CKRPF6O0NWMFHNH5SV", "dateTime": 1516043806559}, {"current_trial": 33, "trialdata": {"rt": -1000, "trial_type": "single-audio", "word": "seagull", "stimulus": "/static/audio/wordpool/SEAGULL.wav", "conditions": [18, 1200, "a", 18000], "internal_node_id": "0.0-24.0", "trial": 0, "time_elapsed": 304228, "serialpos": 12, "key_press": -1, "wordID": 1260, "type": "PRES_AUD", "trial_index": 33}, "uniqueid": "MTK1594:3UJ1CZ6IZIW3CKRPF6O0NWMFHNH5SV", "dateTime": 1516043808645}, {"current_trial": 34, "trialdata": {"rt": -1000, "trial_type": "single-audio", "word": "trout", "stimulus": "/static/audio/wordpool/TROUT.wav", "conditions": [18, 1200, "a", 18000], "internal_node_id": "0.0-25.0", "trial": 0, "time_elapsed": 306252, "serialpos": 13, "key_press": -1, "wordID": 1510, "type": "PRES_AUD", "trial_index": 34}, "uniqueid": "MTK1594:3UJ1CZ6IZIW3CKRPF6O0NWMFHNH5SV", "dateTime": 1516043810669}, {"current_trial": 35, "trialdata": {"rt": -1000, "trial_type": "single-audio", "word": "fruit", "stimulus": "/static/audio/wordpool/FRUIT.wav", "conditions": [18, 1200, "a", 18000], "internal_node_id": "0.0-26.0", "trial": 0, "time_elapsed": 308539, "serialpos": 14, "key_press": -1, "wordID": 609, "type": "PRES_AUD", "trial_index": 35}, "uniqueid": "MTK1594:3UJ1CZ6IZIW3CKRPF6O0NWMFHNH5SV", "dateTime": 1516043812956}, {"current_trial": 36, "trialdata": {"rt": -1000, "trial_type": "single-audio", "word": "crib", "stimulus": "/static/audio/wordpool/CRIB.wav", "conditions": [18, 1200, "a", 18000], "internal_node_id": "0.0-27.0", "trial": 0, "time_elapsed": 310578, "serialpos": 15, "key_press": -1, "wordID": 406, "type": "PRES_AUD", "trial_index": 36}, "uniqueid": "MTK1594:3UJ1CZ6IZIW3CKRPF6O0NWMFHNH5SV", "dateTime": 1516043814995}, {"current_trial": 37, "trialdata": {"rt": -1000, "trial_type": "single-audio", "word": "gift", "stimulus": "/static/audio/wordpool/GIFT.wav", "conditions": [18, 1200, "a", 18000], "internal_node_id": "0.0-28.0", "trial": 0, "time_elapsed": 312852, "serialpos": 16, "key_press": -1, "wordID": 634, "type": "PRES_AUD", "trial_index": 37}, "uniqueid": "MTK1594:3UJ1CZ6IZIW3CKRPF6O0NWMFHNH5SV", "dateTime": 1516043817269}, {"current_trial": 38, "trialdata": {"rt": -1000, "trial_type": "single-audio", "word": "fleet", "stimulus": "/static/audio/wordpool/FLEET.wav", "conditions": [18, 1200, "a", 18000], "internal_node_id": "0.0-29.0", "trial": 0, "time_elapsed": 315218, "serialpos": 17, "key_press": -1, "wordID": 577, "type": "PRES_AUD", "trial_index": 38}, "uniqueid": "MTK1594:3UJ1CZ6IZIW3CKRPF6O0NWMFHNH5SV", "dateTime": 1516043819635}, {"current_trial": 39, "trialdata": {"rt": -1, "trial_type": "single-stim", "stimulus": "", "internal_node_id": "0.0-30.0-0.0", "time_elapsed": 316568, "key_press": -1, "type": "PRE_RECALL_DELAY", "trial_index": 39}, "uniqueid": "MTK1594:3UJ1CZ6IZIW3CKRPF6O0NWMFHNH5SV", "dateTime": 1516043820985}, {"current_trial": 40, "trialdata": {"rt": -1000, "trial_type": "single-audio", "stimulus": "/static/audio/400Hz.wav", "internal_node_id": "0.0-31.0", "time_elapsed": 317071, "key_press": -1, "type": "PRE_RECALL_ALERT", "trial_index": 40}, "uniqueid": "MTK1594:3UJ1CZ6IZIW3CKRPF6O0NWMFHNH5SV", "dateTime": 1516043821488}, {"current_trial": 41, "trialdata": {"rt": [4561, 7577, 10138, 15796, 20313, 24267, 32482, 34257, 59817], "recwords": ["fleet", "seagull", "trout", "cyclone", "rooster", "turkey", "diver", "river", "proton"], "key_times": [2694, 2829, 3092, 3233, 3433, 4561, 5553, 5889, 6089, 6289, 6425, 6705, 6873, 7577, 8578, 8737, 8857, 8969, 9224, 10138, 11457, 11578, 14067, 14203, 14401, 14553, 14665, 15796, 17682, 17801, 18146, 18430, 18609, 18769, 18897, 20313, 22465, 22588, 22708, 22817, 22929, 23738, 24267, 31849, 32014, 32082, 32249, 32345, 32482, 33186, 33283, 33425, 33578, 33666, 34257, 55995, 56114, 56401, 56529, 57265, 57521, 58217, 58394, 58497, 58769, 59817], "trial_type": "free-recall", "conditions": [18, 1200, "a", 18000], "internal_node_id": "0.0-32.0-0.0", "key_presses": [70, 76, 69, 69, 84, 13, 83, 69, 65, 71, 85, 76, 76, 13, 84, 82, 79, 85, 84, 13, 67, 89, 67, 76, 79, 78, 69, 13, 82, 79, 79, 83, 84, 69, 82, 13, 84, 85, 82, 75, 69, 89, 13, 68, 73, 86, 69, 82, 32, 82, 73, 86, 69, 82, 13, 80, 82, 84, 79, 8, 8, 79, 84, 79, 78, 13], "trial": 0, "time_elapsed": 377077, "type": "FREE_RECALL", "trial_index": 41}, "uniqueid": "MTK1594:3UJ1CZ6IZIW3CKRPF6O0NWMFHNH5SV", "dateTime": 1516043881515}, {"current_trial": 42, "trialdata": {"rt": 2019, "trial_type": "text", "internal_node_id": "0.0-33.0", "time_elapsed": 381119, "key_press": 32, "type": "INSTRUCTIONS", "trial_index": 42}, "uniqueid": "MTK1594:3UJ1CZ6IZIW3CKRPF6O0NWMFHNH5SV", "dateTime": 1516043885536}, {"current_trial": 43, "trialdata": {"rt": [6379, 8480, 11447, 13239, 15079], "trial_type": "math-distractor", "key_times": [4791, 4926, 6379, 8103, 8255, 8480, 11079, 11231, 11447, 12791, 12959, 13239, 14710, 14856, 15079], "responses": ["15", "15", "14", "19", "13"], "num2": [4, 6, 2, 7, 8, 9], "num3": [7, 2, 9, 9, 3, 1], "conditions": [18, 1200, "a", 18000], "internal_node_id": "0.0-34.0", "key_presses": [97, 101, 13, 97, 101, 13, 97, 100, 13, 97, 105, 13, 97, 99, 13], "trial": 1, "time_elapsed": 401129, "type": "DISTRACTOR", "trial_index": 43, "num1": [4, 7, 3, 3, 1, 9]}, "uniqueid": "MTK1594:3UJ1CZ6IZIW3CKRPF6O0NWMFHNH5SV", "dateTime": 1516043905547}, {"current_trial": 44, "trialdata": {"rt": -1, "trial_type": "single-stim", "stimulus": "<p id=\"stim\">10</p>", "internal_node_id": "0.0-35.0-0.0", "time_elapsed": 404132, "key_press": -1, "trial_index": 44}, "uniqueid": "MTK1594:3UJ1CZ6IZIW3CKRPF6O0NWMFHNH5SV", "dateTime": 1516043908549}, {"current_trial": 45, "trialdata": {"rt": -1, "trial_type": "single-stim", "stimulus": "<p id=\"stim\">9</p>", "internal_node_id": "0.0-35.0-1.0", "time_elapsed": 405134, "key_press": -1, "trial_index": 45}, "uniqueid": "MTK1594:3UJ1CZ6IZIW3CKRPF6O0NWMFHNH5SV", "dateTime": 1516043909551}, {"current_trial": 46, "trialdata": {"rt": -1, "trial_type": "single-stim", "stimulus": "<p id=\"stim\">8</p>", "internal_node_id": "0.0-35.0-2.0", "time_elapsed": 406136, "key_press": -1, "trial_index": 46}, "uniqueid": "MTK1594:3UJ1CZ6IZIW3CKRPF6O0NWMFHNH5SV", "dateTime": 1516043910553}, {"current_trial": 47, "trialdata": {"rt": -1, "trial_type": "single-stim", "stimulus": "<p id=\"stim\">7</p>", "internal_node_id": "0.0-35.0-3.0", "time_elapsed": 407139, "key_press": -1, "trial_index": 47}, "uniqueid": "MTK1594:3UJ1CZ6IZIW3CKRPF6O0NWMFHNH5SV", "dateTime": 1516043911556}, {"current_trial": 48, "trialdata": {"rt": -1, "trial_type": "single-stim", "stimulus": "<p id=\"stim\">6</p>", "internal_node_id": "0.0-35.0-4.0", "time_elapsed": 408142, "key_press": -1, "trial_index": 48}, "uniqueid": "MTK1594:3UJ1CZ6IZIW3CKRPF6O0NWMFHNH5SV", "dateTime": 1516043912560}, {"current_trial": 49, "trialdata": {"rt": -1, "trial_type": "single-stim", "stimulus": "<p id=\"stim\">5</p>", "internal_node_id": "0.0-35.0-5.0", "time_elapsed": 409166, "key_press": -1, "trial_index": 49}, "uniqueid": "MTK1594:3UJ1CZ6IZIW3CKRPF6O0NWMFHNH5SV", "dateTime": 1516043913583}, {"current_trial": 50, "trialdata": {"rt": -1, "trial_type": "single-stim", "stimulus": "<p id=\"stim\">4</p>", "internal_node_id": "0.0-35.0-6.0", "time_elapsed": 410186, "key_press": -1, "trial_index": 50}, "uniqueid": "MTK1594:3UJ1CZ6IZIW3CKRPF6O0NWMFHNH5SV", "dateTime": 1516043914603}, {"current_trial": 51, "trialdata": {"rt": -1, "trial_type": "single-stim", "stimulus": "<p id=\"stim\">3</p>", "internal_node_id": "0.0-35.0-7.0", "time_elapsed": 411188, "key_press": -1, "trial_index": 51}, "uniqueid": "MTK1594:3UJ1CZ6IZIW3CKRPF6O0NWMFHNH5SV", "dateTime": 1516043915606}, {"current_trial": 52, "trialdata": {"rt": -1, "trial_type": "single-stim", "stimulus": "<p id=\"stim\">2</p>", "internal_node_id": "0.0-35.0-8.0", "time_elapsed": 412190, "key_press": -1, "trial_index": 52}, "uniqueid": "MTK1594:3UJ1CZ6IZIW3CKRPF6O0NWMFHNH5SV", "dateTime": 1516043916607}, {"current_trial": 53, "trialdata": {"rt": -1, "trial_type": "single-stim", "stimulus": "<p id=\"stim\">1</p>", "internal_node_id": "0.0-35.0-9.0", "time_elapsed": 413194, "key_press": -1, "trial_index": 53}, "uniqueid": "MTK1594:3UJ1CZ6IZIW3CKRPF6O0NWMFHNH5SV", "dateTime": 1516043917611}, {"current_trial": 54, "trialdata": {"rt": -1, "trial_type": "single-stim", "stimulus": "<p id=\"stim\">+</p>", "internal_node_id": "0.0-36.0-0.0", "time_elapsed": 414698, "key_press": -1, "type": "FIXATION", "trial_index": 54}, "uniqueid": "MTK1594:3UJ1CZ6IZIW3CKRPF6O0NWMFHNH5SV", "dateTime": 1516043919115}, {"current_trial": 55, "trialdata": {"rt": -1000, "trial_type": "single-audio", "word": "outdoors", "stimulus": "/static/audio/wordpool/OUTDOORS.wav", "conditions": [18, 1200, "a", 18000], "internal_node_id": "0.0-37.0", "trial": 1, "time_elapsed": 416823, "serialpos": 0, "key_press": -1, "wordID": 986, "type": "PRES_AUD", "trial_index": 55}, "uniqueid": "MTK1594:3UJ1CZ6IZIW3CKRPF6O0NWMFHNH5SV", "dateTime": 1516043921240}, {"current_trial": 56, "trialdata": {"rt": -1000, "trial_type": "single-audio", "word": "marrow", "stimulus": "/static/audio/wordpool/MARROW.wav", "conditions": [18, 1200, "a", 18000], "internal_node_id": "0.0-38.0", "trial": 1, "time_elapsed": 419191, "serialpos": 1, "key_press": -1, "wordID": 871, "type": "PRES_AUD", "trial_index": 56}, "uniqueid": "MTK1594:3UJ1CZ6IZIW3CKRPF6O0NWMFHNH5SV", "dateTime": 1516043923608}, {"current_trial": 57, "trialdata": {"rt": -1000, "trial_type": "single-audio", "word": "hand", "stimulus": "/static/audio/wordpool/HAND.wav", "conditions": [18, 1200, "a", 18000], "internal_node_id": "0.0-39.0", "trial": 1, "time_elapsed": 421453, "serialpos": 2, "key_press": -1, "wordID": 682, "type": "PRES_AUD", "trial_index": 57}, "uniqueid": "MTK1594:3UJ1CZ6IZIW3CKRPF6O0NWMFHNH5SV", "dateTime": 1516043925871}, {"current_trial": 58, "trialdata": {"rt": -1000, "trial_type": "single-audio", "word": "clamp", "stimulus": "/static/audio/wordpool/CLAMP.wav", "conditions": [18, 1200, "a", 18000], "internal_node_id": "0.0-40.0", "trial": 1, "time_elapsed": 423674, "serialpos": 3, "key_press": -1, "wordID": 315, "type": "PRES_AUD", "trial_index": 58}, "uniqueid": "MTK1594:3UJ1CZ6IZIW3CKRPF6O0NWMFHNH5SV", "dateTime": 1516043928091}, {"current_trial": 59, "trialdata": {"rt": -1000, "trial_type": "single-audio", "word": "chipmunk", "stimulus": "/static/audio/wordpool/CHIPMUNK.wav", "conditions": [18, 1200, "a", 18000], "internal_node_id": "0.0-41.0", "trial": 1, "time_elapsed": 425945, "serialpos": 4, "key_press": -1, "wordID": 303, "type": "PRES_AUD", "trial_index": 59}, "uniqueid": "MTK1594:3UJ1CZ6IZIW3CKRPF6O0NWMFHNH5SV", "dateTime": 1516043930362}, {"current_trial": 60, "trialdata": {"rt": -1000, "trial_type": "single-audio", "word": "mustard", "stimulus": "/static/audio/wordpool/MUSTARD.wav", "conditions": [18, 1200, "a", 18000], "internal_node_id": "0.0-42.0", "trial": 1, "time_elapsed": 428222, "serialpos": 5, "key_press": -1, "wordID": 934, "type": "PRES_AUD", "trial_index": 60}, "uniqueid": "MTK1594:3UJ1CZ6IZIW3CKRPF6O0NWMFHNH5SV", "dateTime": 1516043932640}, {"current_trial": 61, "trialdata": {"rt": -1000, "trial_type": "single-audio", "word": "switch", "stimulus": "/static/audio/wordpool/SWITCH.wav", "conditions": [18, 1200, "a", 18000], "internal_node_id": "0.0-43.0", "trial": 1, "time_elapsed": 430487, "serialpos": 6, "key_press": -1, "wordID": 1421, "type": "PRES_AUD", "trial_index": 61}, "uniqueid": "MTK1594:3UJ1CZ6IZIW3CKRPF6O0NWMFHNH5SV", "dateTime": 1516043934905}, {"current_trial": 62, "trialdata": {"rt": -1000, "trial_type": "single-audio", "word": "critic", "stimulus": "/static/audio/wordpool/CRITIC.wav", "conditions": [18, 1200, "a", 18000], "internal_node_id": "0.0-44.0", "trial": 1, "time_elapsed": 432596, "serialpos": 7, "key_press": -1, "wordID": 409, "type": "PRES_AUD", "trial_index": 62}, "uniqueid": "MTK1594:3UJ1CZ6IZIW3CKRPF6O0NWMFHNH5SV", "dateTime": 1516043937014}, {"current_trial": 63, "trialdata": {"rt": -1000, "trial_type": "single-audio", "word": "uncle", "stimulus": "/static/audio/wordpool/UNCLE.wav", "conditions": [18, 1200, "a", 18000], "internal_node_id": "0.0-45.0", "trial": 1, "time_elapsed": 434843, "serialpos": 8, "key_press": -1, "wordID": 1535, "type": "PRES_AUD", "trial_index": 63}, "uniqueid": "MTK1594:3UJ1CZ6IZIW3CKRPF6O0NWMFHNH5SV", "dateTime": 1516043939260}, {"current_trial": 64, "trialdata": {"rt": -1000, "trial_type": "single-audio", "word": "picture", "stimulus": "/static/audio/wordpool/PICTURE.wav", "conditions": [18, 1200, "a", 18000], "internal_node_id": "0.0-46.0", "trial": 1, "time_elapsed": 436999, "serialpos": 9, "key_press": -1, "wordID": 1060, "type": "PRES_AUD", "trial_index": 64}, "uniqueid": "MTK1594:3UJ1CZ6IZIW3CKRPF6O0NWMFHNH5SV", "dateTime": 1516043941416}, {"current_trial": 65, "trialdata": {"rt": -1000, "trial_type": "single-audio", "word": "rod", "stimulus": "/static/audio/wordpool/ROD.wav", "conditions": [18, 1200, "a", 18000], "internal_node_id": "0.0-47.0", "trial": 1, "time_elapsed": 439333, "serialpos": 10, "key_press": -1, "wordID": 1202, "type": "PRES_AUD", "trial_index": 65}, "uniqueid": "MTK1594:3UJ1CZ6IZIW3CKRPF6O0NWMFHNH5SV", "dateTime": 1516043943750}, {"current_trial": 66, "trialdata": {"rt": -1000, "trial_type": "single-audio", "word": "plaster", "stimulus": "/static/audio/wordpool/PLASTER.wav", "conditions": [18, 1200, "a", 18000], "internal_node_id": "0.0-48.0", "trial": 1, "time_elapsed": 441673, "serialpos": 11, "key_press": -1, "wordID": 1084, "type": "PRES_AUD", "trial_index": 66}, "uniqueid": "MTK1594:3UJ1CZ6IZIW3CKRPF6O0NWMFHNH5SV", "dateTime": 1516043946090}, {"current_trial": 67, "trialdata": {"rt": -1000, "trial_type": "single-audio", "word": "cocktail", "stimulus": "/static/audio/wordpool/COCKTAIL.wav", "conditions": [18, 1200, "a", 18000], "internal_node_id": "0.0-49.0", "trial": 1, "time_elapsed": 443802, "serialpos": 12, "key_press": -1, "wordID": 337, "type": "PRES_AUD", "trial_index": 67}, "uniqueid": "MTK1594:3UJ1CZ6IZIW3CKRPF6O0NWMFHNH5SV", "dateTime": 1516043948219}, {"current_trial": 68, "trialdata": {"rt": -1000, "trial_type": "single-audio", "word": "maple", "stimulus": "/static/audio/wordpool/MAPLE.wav", "conditions": [18, 1200, "a", 18000], "internal_node_id": "0.0-50.0", "trial": 1, "time_elapsed": 446177, "serialpos": 13, "key_press": -1, "wordID": 865, "type": "PRES_AUD", "trial_index": 68}, "uniqueid": "MTK1594:3UJ1CZ6IZIW3CKRPF6O0NWMFHNH5SV", "dateTime": 1516043950602}, {"current_trial": 69, "trialdata": {"rt": -1000, "trial_type": "single-audio", "word": "picnic", "stimulus": "/static/audio/wordpool/PICNIC.wav", "conditions": [18, 1200, "a", 18000], "internal_node_id": "0.0-51.0", "trial": 1, "time_elapsed": 448436, "serialpos": 14, "key_press": -1, "wordID": 1059, "type": "PRES_AUD", "trial_index": 69}, "uniqueid": "MTK1594:3UJ1CZ6IZIW3CKRPF6O0NWMFHNH5SV", "dateTime": 1516043952853}, {"current_trial": 70, "trialdata": {"rt": -1000, "trial_type": "single-audio", "word": "lion", "stimulus": "/static/audio/wordpool/LION.wav", "conditions": [18, 1200, "a", 18000], "internal_node_id": "0.0-52.0", "trial": 1, "time_elapsed": 450771, "serialpos": 15, "key_press": -1, "wordID": 826, "type": "PRES_AUD", "trial_index": 70}, "uniqueid": "MTK1594:3UJ1CZ6IZIW3CKRPF6O0NWMFHNH5SV", "dateTime": 1516043955188}, {"current_trial": 71, "trialdata": {"rt": -1000, "trial_type": "single-audio", "word": "sunset", "stimulus": "/static/audio/wordpool/SUNSET.wav", "conditions": [18, 1200, "a", 18000], "internal_node_id": "0.0-53.0", "trial": 1, "time_elapsed": 452932, "serialpos": 16, "key_press": -1, "wordID": 1407, "type": "PRES_AUD", "trial_index": 71}, "uniqueid": "MTK1594:3UJ1CZ6IZIW3CKRPF6O0NWMFHNH5SV", "dateTime": 1516043957349}, {"current_trial": 72, "trialdata": {"rt": -1000, "trial_type": "single-audio", "word": "badge", "stimulus": "/static/audio/wordpool/BADGE.wav", "conditions": [18, 1200, "a", 18000], "internal_node_id": "0.0-54.0", "trial": 1, "time_elapsed": 455293, "serialpos": 17, "key_press": -1, "wordID": 67, "type": "PRES_AUD", "trial_index": 72}, "uniqueid": "MTK1594:3UJ1CZ6IZIW3CKRPF6O0NWMFHNH5SV", "dateTime": 1516043959711}, {"current_trial": 73, "trialdata": {"rt": -1, "trial_type": "single-stim", "stimulus": "", "internal_node_id": "0.0-55.0-0.0", "time_elapsed": 456614, "key_press": -1, "type": "PRE_RECALL_DELAY", "trial_index": 73}, "uniqueid": "MTK1594:3UJ1CZ6IZIW3CKRPF6O0NWMFHNH5SV", "dateTime": 1516043961031}, {"current_trial": 74, "trialdata": {"rt": -1000, "trial_type": "single-audio", "stimulus": "/static/audio/400Hz.wav", "internal_node_id": "0.0-56.0", "time_elapsed": 457118, "key_press": -1, "type": "PRE_RECALL_ALERT", "trial_index": 74}, "uniqueid": "MTK1594:3UJ1CZ6IZIW3CKRPF6O0NWMFHNH5SV", "dateTime": 1516043961535}, {"current_trial": 75, "trialdata": {"rt": [3411, 5395, 10779, 16691, 19188, 22725, 27939, 31524, 41196, 57227], "recwords": ["badge", "sunset", "picnic", "cocktail", "marrow", "outdoors", "uncle", "lion", "rod", "maple"], "key_times": [1267, 1363, 1578, 1890, 2099, 3411, 4142, 4259, 4475, 4587, 4708, 4860, 5395, 7619, 7819, 7987, 8564, 8732, 8955, 10779, 11699, 11797, 11947, 12211, 13083, 13515, 13826, 13987, 14096, 14346, 16691, 18252, 18451, 18659, 18827, 18941, 19085, 19188, 19764, 19859, 19980, 20459, 20636, 21051, 21291, 21531, 22725, 26701, 26915, 27003, 27203, 27387, 27939, 30532, 30725, 30852, 31045, 31524, 40317, 40420, 40612, 41196, 56344, 56476, 56573, 56788, 56910, 57227], "trial_type": "free-recall", "conditions": [18, 1200, "a", 18000], "internal_node_id": "0.0-57.0-0.0", "key_presses": [66, 65, 68, 71, 69, 13, 83, 85, 78, 83, 69, 84, 13, 80, 73, 67, 78, 73, 67, 13, 67, 79, 67, 79, 8, 75, 84, 65, 73, 76, 32, 77, 65, 82, 82, 79, 87, 32, 79, 85, 84, 68, 79, 79, 82, 83, 13, 85, 78, 67, 76, 69, 13, 76, 73, 79, 78, 13, 82, 79, 68, 13, 77, 65, 80, 76, 69, 13], "trial": 1, "time_elapsed": 517125, "type": "FREE_RECALL", "trial_index": 75}, "uniqueid": "MTK1594:3UJ1CZ6IZIW3CKRPF6O0NWMFHNH5SV", "dateTime": 1516044021548}, {"current_trial": 76, "trialdata": {"rt": 2562, "trial_type": "text", "internal_node_id": "0.0-58.0", "time_elapsed": 521696, "key_press": 32, "type": "INSTRUCTIONS", "trial_index": 76}, "uniqueid": "MTK1594:3UJ1CZ6IZIW3CKRPF6O0NWMFHNH5SV", "dateTime": 1516044026113}, {"current_trial": 77, "trialdata": {"rt": [2827, 5590, 8044, 10366], "trial_type": "math-distractor", "key_times": [2068, 2284, 2827, 5076, 5590, 7652, 7828, 8044, 9980, 10140, 10366], "responses": ["17", "7", "15", "18"], "num2": [9, 1, 7, 4, 9], "num3": [7, 4, 4, 6, 1], "conditions": [12, 1600, "a", 12000], "internal_node_id": "0.0-59.0", "key_presses": [97, 103, 13, 103, 13, 97, 101, 13, 97, 104, 13], "trial": 2, "time_elapsed": 534702, "type": "DISTRACTOR", "trial_index": 77, "num1": [1, 2, 4, 8, 2]}, "uniqueid": "MTK1594:3UJ1CZ6IZIW3CKRPF6O0NWMFHNH5SV", "dateTime": 1516044039119}, {"current_trial": 78, "trialdata": {"rt": -1, "trial_type": "single-stim", "stimulus": "<p id=\"stim\">10</p>", "internal_node_id": "0.0-60.0-0.0", "time_elapsed": 537704, "key_press": -1, "trial_index": 78}, "uniqueid": "MTK1594:3UJ1CZ6IZIW3CKRPF6O0NWMFHNH5SV", "dateTime": 1516044042121}, {"current_trial": 79, "trialdata": {"rt": -1, "trial_type": "single-stim", "stimulus": "<p id=\"stim\">9</p>", "internal_node_id": "0.0-60.0-1.0", "time_elapsed": 538706, "key_press": -1, "trial_index": 79}, "uniqueid": "MTK1594:3UJ1CZ6IZIW3CKRPF6O0NWMFHNH5SV", "dateTime": 1516044043123}, {"current_trial": 80, "trialdata": {"rt": -1, "trial_type": "single-stim", "stimulus": "<p id=\"stim\">8</p>", "internal_node_id": "0.0-60.0-2.0", "time_elapsed": 539709, "key_press": -1, "trial_index": 80}, "uniqueid": "MTK1594:3UJ1CZ6IZIW3CKRPF6O0NWMFHNH5SV", "dateTime": 1516044044126}, {"current_trial": 81, "trialdata": {"rt": -1, "trial_type": "single-stim", "stimulus": "<p id=\"stim\">7</p>", "internal_node_id": "0.0-60.0-3.0", "time_elapsed": 540727, "key_press": -1, "trial_index": 81}, "uniqueid": "MTK1594:3UJ1CZ6IZIW3CKRPF6O0NWMFHNH5SV", "dateTime": 1516044045144}, {"current_trial": 82, "trialdata": {"rt": -1, "trial_type": "single-stim", "stimulus": "<p id=\"stim\">6</p>", "internal_node_id": "0.0-60.0-4.0", "time_elapsed": 541729, "key_press": -1, "trial_index": 82}, "uniqueid": "MTK1594:3UJ1CZ6IZIW3CKRPF6O0NWMFHNH5SV", "dateTime": 1516044046146}, {"current_trial": 83, "trialdata": {"rt": -1, "trial_type": "single-stim", "stimulus": "<p id=\"stim\">5</p>", "internal_node_id": "0.0-60.0-5.0", "time_elapsed": 542732, "key_press": -1, "trial_index": 83}, "uniqueid": "MTK1594:3UJ1CZ6IZIW3CKRPF6O0NWMFHNH5SV", "dateTime": 1516044047149}, {"current_trial": 84, "trialdata": {"rt": -1, "trial_type": "single-stim", "stimulus": "<p id=\"stim\">4</p>", "internal_node_id": "0.0-60.0-6.0", "time_elapsed": 543736, "key_press": -1, "trial_index": 84}, "uniqueid": "MTK1594:3UJ1CZ6IZIW3CKRPF6O0NWMFHNH5SV", "dateTime": 1516044048153}, {"current_trial": 85, "trialdata": {"rt": -1, "trial_type": "single-stim", "stimulus": "<p id=\"stim\">3</p>", "internal_node_id": "0.0-60.0-7.0", "time_elapsed": 544738, "key_press": -1, "trial_index": 85}, "uniqueid": "MTK1594:3UJ1CZ6IZIW3CKRPF6O0NWMFHNH5SV", "dateTime": 1516044049155}, {"current_trial": 86, "trialdata": {"rt": -1, "trial_type": "single-stim", "stimulus": "<p id=\"stim\">2</p>", "internal_node_id": "0.0-60.0-8.0", "time_elapsed": 545743, "key_press": -1, "trial_index": 86}, "uniqueid": "MTK1594:3UJ1CZ6IZIW3CKRPF6O0NWMFHNH5SV", "dateTime": 1516044050160}, {"current_trial": 87, "trialdata": {"rt": -1, "trial_type": "single-stim", "stimulus": "<p id=\"stim\">1</p>", "internal_node_id": "0.0-60.0-9.0", "time_elapsed": 546748, "key_press": -1, "trial_index": 87}, "uniqueid": "MTK1594:3UJ1CZ6IZIW3CKRPF6O0NWMFHNH5SV", "dateTime": 1516044051166}, {"current_trial": 88, "trialdata": {"rt": -1, "trial_type": "single-stim", "stimulus": "<p id=\"stim\">+</p>", "internal_node_id": "0.0-61.0-0.0", "time_elapsed": 548260, "key_press": -1, "type": "FIXATION", "trial_index": 88}, "uniqueid": "MTK1594:3UJ1CZ6IZIW3CKRPF6O0NWMFHNH5SV", "dateTime": 1516044052677}, {"current_trial": 89, "trialdata": {"rt": -1000, "trial_type": "single-audio", "word": "venus", "stimulus": "/static/audio/wordpool/VENUS.wav", "conditions": [12, 1600, "a", 12000], "internal_node_id": "0.0-62.0", "trial": 2, "time_elapsed": 550794, "serialpos": 0, "key_press": -1, "wordID": 1556, "type": "PRES_AUD", "trial_index": 89}, "uniqueid": "MTK1594:3UJ1CZ6IZIW3CKRPF6O0NWMFHNH5SV", "dateTime": 1516044055211}, {"current_trial": 90, "trialdata": {"rt": -1000, "trial_type": "single-audio", "word": "liver", "stimulus": "/static/audio/wordpool/LIVER.wav", "conditions": [12, 1600, "a", 12000], "internal_node_id": "0.0-63.0", "trial": 2, "time_elapsed": 553428, "serialpos": 1, "key_press": -1, "wordID": 832, "type": "PRES_AUD", "trial_index": 90}, "uniqueid": "MTK1594:3UJ1CZ6IZIW3CKRPF6O0NWMFHNH5SV", "dateTime": 1516044057845}, {"current_trial": 91, "trialdata": {"rt": -1000, "trial_type": "single-audio", "word": "ointment", "stimulus": "/static/audio/wordpool/OINTMENT.wav", "conditions": [12, 1600, "a", 12000], "internal_node_id": "0.0-64.0", "trial": 2, "time_elapsed": 556156, "serialpos": 2, "key_press": -1, "wordID": 973, "type": "PRES_AUD", "trial_index": 91}, "uniqueid": "MTK1594:3UJ1CZ6IZIW3CKRPF6O0NWMFHNH5SV", "dateTime": 1516044060573}, {"current_trial": 92, "trialdata": {"rt": -1000, "trial_type": "single-audio", "word": "mildew", "stimulus": "/static/audio/wordpool/MILDEW.wav", "conditions": [12, 1600, "a", 12000], "internal_node_id": "0.0-65.0", "trial": 2, "time_elapsed": 558896, "serialpos": 3, "key_press": -1, "wordID": 892, "type": "PRES_AUD", "trial_index": 92}, "uniqueid": "MTK1594:3UJ1CZ6IZIW3CKRPF6O0NWMFHNH5SV", "dateTime": 1516044063313}, {"current_trial": 93, "trialdata": {"rt": -1000, "trial_type": "single-audio", "word": "dancer", "stimulus": "/static/audio/wordpool/DANCER.wav", "conditions": [12, 1600, "a", 12000], "internal_node_id": "0.0-66.0", "trial": 2, "time_elapsed": 561504, "serialpos": 4, "key_press": -1, "wordID": 436, "type": "PRES_AUD", "trial_index": 93}, "uniqueid": "MTK1594:3UJ1CZ6IZIW3CKRPF6O0NWMFHNH5SV", "dateTime": 1516044065921}, {"current_trial": 94, "trialdata": {"rt": -1000, "trial_type": "single-audio", "word": "gymnast", "stimulus": "/static/audio/wordpool/GYMNAST.wav", "conditions": [12, 1600, "a", 12000], "internal_node_id": "0.0-67.0", "trial": 2, "time_elapsed": 564104, "serialpos": 5, "key_press": -1, "wordID": 674, "type": "PRES_AUD", "trial_index": 94}, "uniqueid": "MTK1594:3UJ1CZ6IZIW3CKRPF6O0NWMFHNH5SV", "dateTime": 1516044068521}, {"current_trial": 95, "trialdata": {"rt": -1000, "trial_type": "single-audio", "word": "sketch", "stimulus": "/static/audio/wordpool/SKETCH.wav", "conditions": [12, 1600, "a", 12000], "internal_node_id": "0.0-68.0", "trial": 2, "time_elapsed": 566888, "serialpos": 6, "key_press": -1, "wordID": 1314, "type": "PRES_AUD", "trial_index": 95}, "uniqueid": "MTK1594:3UJ1CZ6IZIW3CKRPF6O0NWMFHNH5SV", "dateTime": 1516044071306}, {"current_trial": 96, "trialdata": {"rt": -1000, "trial_type": "single-audio", "word": "fungus", "stimulus": "/static/audio/wordpool/FUNGUS.wav", "conditions": [12, 1600, "a", 12000], "internal_node_id": "0.0-69.0", "trial": 2, "time_elapsed": 569370, "serialpos": 7, "key_press": -1, "wordID": 613, "type": "PRES_AUD", "trial_index": 96}, "uniqueid": "MTK1594:3UJ1CZ6IZIW3CKRPF6O0NWMFHNH5SV", "dateTime": 1516044073787}, {"current_trial": 97, "trialdata": {"rt": -1000, "trial_type": "single-audio", "word": "tombstone", "stimulus": "/static/audio/wordpool/TOMBSTONE.wav", "conditions": [12, 1600, "a", 12000], "internal_node_id": "0.0-70.0", "trial": 2, "time_elapsed": 571868, "serialpos": 8, "key_press": -1, "wordID": 1477, "type": "PRES_AUD", "trial_index": 97}, "uniqueid": "MTK1594:3UJ1CZ6IZIW3CKRPF6O0NWMFHNH5SV", "dateTime": 1516044076285}, {"current_trial": 98, "trialdata": {"rt": -1000, "trial_type": "single-audio", "word": "breast", "stimulus": "/static/audio/wordpool/BREAST.wav", "conditions": [12, 1600, "a", 12000], "internal_node_id": "0.0-71.0", "trial": 2, "time_elapsed": 574375, "serialpos": 9, "key_press": -1, "wordID": 170, "type": "PRES_AUD", "trial_index": 98}, "uniqueid": "MTK1594:3UJ1CZ6IZIW3CKRPF6O0NWMFHNH5SV", "dateTime": 1516044078792}, {"current_trial": 99, "trialdata": {"rt": -1000, "trial_type": "single-audio", "word": "pigment", "stimulus": "/static/audio/wordpool/PIGMENT.wav", "conditions": [12, 1600, "a", 12000], "internal_node_id": "0.0-72.0", "trial": 2, "time_elapsed": 576818, "serialpos": 10, "key_press": -1, "wordID": 1065, "type": "PRES_AUD", "trial_index": 99}, "uniqueid": "MTK1594:3UJ1CZ6IZIW3CKRPF6O0NWMFHNH5SV", "dateTime": 1516044081235}, {"current_trial": 100, "trialdata": {"rt": -1000, "trial_type": "single-audio", "word": "hostess", "stimulus": "/static/audio/wordpool/HOSTESS.wav", "conditions": [12, 1600, "a", 12000], "internal_node_id": "0.0-73.0", "trial": 2, "time_elapsed": 579294, "serialpos": 11, "key_press": -1, "wordID": 722, "type": "PRES_AUD", "trial_index": 100}, "uniqueid": "MTK1594:3UJ1CZ6IZIW3CKRPF6O0NWMFHNH5SV", "dateTime": 1516044083711}, {"current_trial": 101, "trialdata": {"rt": -1, "trial_type": "single-stim", "stimulus": "", "internal_node_id": "0.0-74.0-0.0", "time_elapsed": 580694, "key_press": -1, "type": "PRE_RECALL_DELAY", "trial_index": 101}, "uniqueid": "MTK1594:3UJ1CZ6IZIW3CKRPF6O0NWMFHNH5SV", "dateTime": 1516044085111}, {"current_trial": 102, "trialdata": {"rt": -1000, "trial_type": "single-audio", "stimulus": "/static/audio/400Hz.wav", "internal_node_id": "0.0-75.0", "time_elapsed": 581196, "key_press": -1, "type": "PRE_RECALL_ALERT", "trial_index": 102}, "uniqueid": "MTK1594:3UJ1CZ6IZIW3CKRPF6O0NWMFHNH5SV", "dateTime": 1516044085614}, {"current_trial": 103, "trialdata": {"rt": [3796, 6298, 11009, 14281, 17498, 21810, 25114, 32842], "recwords": ["hostess", "pigment", "tombstone", "venus", "breast", "mildew", "fungus", "liver"], "key_times": [1818, 1970, 2066, 2202, 2323, 2522, 2690, 3796, 4522, 4715, 5026, 5222, 5306, 5419, 5556, 6298, 8594, 8698, 8930, 9637, 9746, 9866, 9937, 10166, 10242, 11009, 12939, 13257, 13337, 13569, 13675, 14281, 15339, 15487, 15570, 15730, 16242, 16802, 16898, 17027, 17498, 19795, 19972, 20146, 20618, 20850, 21010, 21810, 22943, 23071, 23290, 23986, 24130, 24274, 25114, 31938, 32131, 32190, 32346, 32459, 32842], "trial_type": "free-recall", "conditions": [12, 1600, "a", 12000], "internal_node_id": "0.0-76.0-0.0", "key_presses": [72, 79, 83, 84, 69, 83, 83, 13, 80, 73, 71, 77, 69, 78, 84, 13, 84, 79, 77, 66, 83, 84, 79, 78, 69, 13, 86, 69, 78, 85, 83, 13, 66, 82, 69, 65, 65, 8, 83, 84, 13, 77, 73, 76, 68, 69, 87, 13, 70, 85, 78, 71, 85, 83, 13, 76, 73, 86, 69, 82, 13], "trial": 2, "time_elapsed": 641208, "type": "FREE_RECALL", "trial_index": 103}, "uniqueid": "MTK1594:3UJ1CZ6IZIW3CKRPF6O0NWMFHNH5SV", "dateTime": 1516044145630}, {"current_trial": 104, "trialdata": {"rt": 2018, "trial_type": "text", "internal_node_id": "0.0-77.0", "time_elapsed": 645234, "key_press": 32, "type": "INSTRUCTIONS", "trial_index": 104}, "uniqueid": "MTK1594:3UJ1CZ6IZIW3CKRPF6O0NWMFHNH5SV", "dateTime": 1516044149651}, {"current_trial": 105, "trialdata": {"rt": [6094, 7736, 9694, 14942, 16831, 19054, 23126], "trial_type": "math-distractor", "key_times": [5054, 5231, 6094, 7166, 7319, 7736, 9214, 9374, 9694, 12254, 13862, 14942, 16430, 16589, 16831, 18414, 18566, 19054, 22528, 22712, 23126], "responses": ["19", "12", "12", "16", "15", "16", "24"], "num2": [5, 7, 1, 6, 4, 8, 9, 2], "num3": [6, 2, 2, 1, 8, 3, 6, 5], "conditions": [24, 1600, "a", 24000], "internal_node_id": "0.0-78.0", "key_presses": [97, 105, 13, 97, 98, 13, 97, 98, 13, 97, 102, 13, 97, 101, 13, 97, 102, 13, 98, 100, 13], "trial": 3, "time_elapsed": 671245, "type": "DISTRACTOR", "trial_index": 105, "num1": [8, 3, 8, 9, 3, 5, 9, 8]}, "uniqueid": "MTK1594:3UJ1CZ6IZIW3CKRPF6O0NWMFHNH5SV", "dateTime": 1516044175662}, {"current_trial": 106, "trialdata": {"rt": -1, "trial_type": "single-stim", "stimulus": "<p id=\"stim\">10</p>", "internal_node_id": "0.0-79.0-0.0", "time_elapsed": 674257, "key_press": -1, "trial_index": 106}, "uniqueid": "MTK1594:3UJ1CZ6IZIW3CKRPF6O0NWMFHNH5SV", "dateTime": 1516044178675}, {"current_trial": 107, "trialdata": {"rt": -1, "trial_type": "single-stim", "stimulus": "<p id=\"stim\">9</p>", "internal_node_id": "0.0-79.0-1.0", "time_elapsed": 675272, "key_press": -1, "trial_index": 107}, "uniqueid": "MTK1594:3UJ1CZ6IZIW3CKRPF6O0NWMFHNH5SV", "dateTime": 1516044179689}, {"current_trial": 108, "trialdata": {"rt": -1, "trial_type": "single-stim", "stimulus": "<p id=\"stim\">8</p>", "internal_node_id": "0.0-79.0-2.0", "time_elapsed": 676274, "key_press": -1, "trial_index": 108}, "uniqueid": "MTK1594:3UJ1CZ6IZIW3CKRPF6O0NWMFHNH5SV", "dateTime": 1516044180691}, {"current_trial": 109, "trialdata": {"rt": -1, "trial_type": "single-stim", "stimulus": "<p id=\"stim\">7</p>", "internal_node_id": "0.0-79.0-3.0", "time_elapsed": 677276, "key_press": -1, "trial_index": 109}, "uniqueid": "MTK1594:3UJ1CZ6IZIW3CKRPF6O0NWMFHNH5SV", "dateTime": 1516044181693}, {"current_trial": 110, "trialdata": {"rt": -1, "trial_type": "single-stim", "stimulus": "<p id=\"stim\">6</p>", "internal_node_id": "0.0-79.0-4.0", "time_elapsed": 678280, "key_press": -1, "trial_index": 110}, "uniqueid": "MTK1594:3UJ1CZ6IZIW3CKRPF6O0NWMFHNH5SV", "dateTime": 1516044182698}, {"current_trial": 111, "trialdata": {"rt": -1, "trial_type": "single-stim", "stimulus": "<p id=\"stim\">5</p>", "internal_node_id": "0.0-79.0-5.0", "time_elapsed": 679283, "key_press": -1, "trial_index": 111}, "uniqueid": "MTK1594:3UJ1CZ6IZIW3CKRPF6O0NWMFHNH5SV", "dateTime": 1516044183700}, {"current_trial": 112, "trialdata": {"rt": -1, "trial_type": "single-stim", "stimulus": "<p id=\"stim\">4</p>", "internal_node_id": "0.0-79.0-6.0", "time_elapsed": 680284, "key_press": -1, "trial_index": 112}, "uniqueid": "MTK1594:3UJ1CZ6IZIW3CKRPF6O0NWMFHNH5SV", "dateTime": 1516044184701}, {"current_trial": 113, "trialdata": {"rt": -1, "trial_type": "single-stim", "stimulus": "<p id=\"stim\">3</p>", "internal_node_id": "0.0-79.0-7.0", "time_elapsed": 681292, "key_press": -1, "trial_index": 113}, "uniqueid": "MTK1594:3UJ1CZ6IZIW3CKRPF6O0NWMFHNH5SV", "dateTime": 1516044185709}, {"current_trial": 114, "trialdata": {"rt": -1, "trial_type": "single-stim", "stimulus": "<p id=\"stim\">2</p>", "internal_node_id": "0.0-79.0-8.0", "time_elapsed": 682295, "key_press": -1, "trial_index": 114}, "uniqueid": "MTK1594:3UJ1CZ6IZIW3CKRPF6O0NWMFHNH5SV", "dateTime": 1516044186712}, {"current_trial": 115, "trialdata": {"rt": -1, "trial_type": "single-stim", "stimulus": "<p id=\"stim\">1</p>", "internal_node_id": "0.0-79.0-9.0", "time_elapsed": 683305, "key_press": -1, "trial_index": 115}, "uniqueid": "MTK1594:3UJ1CZ6IZIW3CKRPF6O0NWMFHNH5SV", "dateTime": 1516044187723}, {"current_trial": 116, "trialdata": {"rt": -1, "trial_type": "single-stim", "stimulus": "<p id=\"stim\">+</p>", "internal_node_id": "0.0-80.0-0.0", "time_elapsed": 684807, "key_press": -1, "type": "FIXATION", "trial_index": 116}, "uniqueid": "MTK1594:3UJ1CZ6IZIW3CKRPF6O0NWMFHNH5SV", "dateTime": 1516044189224}, {"current_trial": 117, "trialdata": {"rt": -1000, "trial_type": "single-audio", "word": "banjo", "stimulus": "/static/audio/wordpool/BANJO.wav", "conditions": [24, 1600, "a", 24000], "internal_node_id": "0.0-81.0", "trial": 3, "time_elapsed": 687320, "serialpos": 0, "key_press": -1, "wordID": 81, "type": "PRES_AUD", "trial_index": 117}, "uniqueid": "MTK1594:3UJ1CZ6IZIW3CKRPF6O0NWMFHNH5SV", "dateTime": 1516044191737}, {"current_trial": 118, "trialdata": {"rt": -1000, "trial_type": "single-audio", "word": "wardrobe", "stimulus": "/static/audio/wordpool/WARDROBE.wav", "conditions": [24, 1600, "a", 24000], "internal_node_id": "0.0-82.0", "trial": 3, "time_elapsed": 690004, "serialpos": 1, "key_press": -1, "wordID": 1586, "type": "PRES_AUD", "trial_index": 118}, "uniqueid": "MTK1594:3UJ1CZ6IZIW3CKRPF6O0NWMFHNH5SV", "dateTime": 1516044194421}, {"current_trial": 119, "trialdata": {"rt": -1000, "trial_type": "single-audio", "word": "mattress", "stimulus": "/static/audio/wordpool/MATTRESS.wav", "conditions": [24, 1600, "a", 24000], "internal_node_id": "0.0-83.0", "trial": 3, "time_elapsed": 692725, "serialpos": 2, "key_press": -1, "wordID": 878, "type": "PRES_AUD", "trial_index": 119}, "uniqueid": "MTK1594:3UJ1CZ6IZIW3CKRPF6O0NWMFHNH5SV", "dateTime": 1516044197142}, {"current_trial": 120, "trialdata": {"rt": -1000, "trial_type": "single-audio", "word": "parrot", "stimulus": "/static/audio/wordpool/PARROT.wav", "conditions": [24, 1600, "a", 24000], "internal_node_id": "0.0-84.0", "trial": 3, "time_elapsed": 695440, "serialpos": 3, "key_press": -1, "wordID": 1014, "type": "PRES_AUD", "trial_index": 120}, "uniqueid": "MTK1594:3UJ1CZ6IZIW3CKRPF6O0NWMFHNH5SV", "dateTime": 1516044199857}, {"current_trial": 121, "trialdata": {"rt": -1000, "trial_type": "single-audio", "word": "scalpel", "stimulus": "/static/audio/wordpool/SCALPEL.wav", "conditions": [24, 1600, "a", 24000], "internal_node_id": "0.0-85.0", "trial": 3, "time_elapsed": 698114, "serialpos": 4, "key_press": -1, "wordID": 1242, "type": "PRES_AUD", "trial_index": 121}, "uniqueid": "MTK1594:3UJ1CZ6IZIW3CKRPF6O0NWMFHNH5SV", "dateTime": 1516044202531}, {"current_trial": 122, "trialdata": {"rt": -1000, "trial_type": "single-audio", "word": "fiddle", "stimulus": "/static/audio/wordpool/FIDDLE.wav", "conditions": [24, 1600, "a", 24000], "internal_node_id": "0.0-86.0", "trial": 3, "time_elapsed": 700760, "serialpos": 5, "key_press": -1, "wordID": 560, "type": "PRES_AUD", "trial_index": 122}, "uniqueid": "MTK1594:3UJ1CZ6IZIW3CKRPF6O0NWMFHNH5SV", "dateTime": 1516044205177}, {"current_trial": 123, "trialdata": {"rt": -1000, "trial_type": "single-audio", "word": "binder", "stimulus": "/static/audio/wordpool/BINDER.wav", "conditions": [24, 1600, "a", 24000], "internal_node_id": "0.0-87.0", "trial": 3, "time_elapsed": 703521, "serialpos": 6, "key_press": -1, "wordID": 126, "type": "PRES_AUD", "trial_index": 123}, "uniqueid": "MTK1594:3UJ1CZ6IZIW3CKRPF6O0NWMFHNH5SV", "dateTime": 1516044207938}, {"current_trial": 124, "trialdata": {"rt": -1000, "trial_type": "single-audio", "word": "mammal", "stimulus": "/static/audio/wordpool/MAMMAL.wav", "conditions": [24, 1600, "a", 24000], "internal_node_id": "0.0-88.0", "trial": 3, "time_elapsed": 706097, "serialpos": 7, "key_press": -1, "wordID": 860, "type": "PRES_AUD", "trial_index": 124}, "uniqueid": "MTK1594:3UJ1CZ6IZIW3CKRPF6O0NWMFHNH5SV", "dateTime": 1516044210514}, {"current_trial": 125, "trialdata": {"rt": -1000, "trial_type": "single-audio", "word": "dustpan", "stimulus": "/static/audio/wordpool/DUSTPAN.wav", "conditions": [24, 1600, "a", 24000], "internal_node_id": "0.0-89.0", "trial": 3, "time_elapsed": 708667, "serialpos": 8, "key_press": -1, "wordID": 508, "type": "PRES_AUD", "trial_index": 125}, "uniqueid": "MTK1594:3UJ1CZ6IZIW3CKRPF6O0NWMFHNH5SV", "dateTime": 1516044213084}, {"current_trial": 126, "trialdata": {"rt": -1000, "trial_type": "single-audio", "word": "sausage", "stimulus": "/static/audio/wordpool/SAUSAGE.wav", "conditions": [24, 1600, "a", 24000], "internal_node_id": "0.0-90.0", "trial": 3, "time_elapsed": 711303, "serialpos": 9, "key_press": -1, "wordID": 1237, "type": "PRES_AUD", "trial_index": 126}, "uniqueid": "MTK1594:3UJ1CZ6IZIW3CKRPF6O0NWMFHNH5SV", "dateTime": 1516044215720}, {"current_trial": 127, "trialdata": {"rt": -1000, "trial_type": "single-audio", "word": "bacon", "stimulus": "/static/audio/wordpool/BACON.wav", "conditions": [24, 1600, "a", 24000], "internal_node_id": "0.0-91.0", "trial": 3, "time_elapsed": 714129, "serialpos": 10, "key_press": -1, "wordID": 66, "type": "PRES_AUD", "trial_index": 127}, "uniqueid": "MTK1594:3UJ1CZ6IZIW3CKRPF6O0NWMFHNH5SV", "dateTime": 1516044218546}, {"current_trial": 128, "trialdata": {"rt": -1000, "trial_type": "single-audio", "word": "treat", "stimulus": "/static/audio/wordpool/TREAT.wav", "conditions": [24, 1600, "a", 24000], "internal_node_id": "0.0-92.0", "trial": 3, "time_elapsed": 716542, "serialpos": 11, "key_press": -1, "wordID": 1500, "type": "PRES_AUD", "trial_index": 128}, "uniqueid": "MTK1594:3UJ1CZ6IZIW3CKRPF6O0NWMFHNH5SV", "dateTime": 1516044220959}, {"current_trial": 129, "trialdata": {"rt": -1000, "trial_type": "single-audio", "word": "blackboard", "stimulus": "/static/audio/wordpool/BLACKBOARD.wav", "conditions": [24, 1600, "a", 24000], "internal_node_id": "0.0-93.0", "trial": 3, "time_elapsed": 718975, "serialpos": 12, "key_press": -1, "wordID": 132, "type": "PRES_AUD", "trial_index": 129}, "uniqueid": "MTK1594:3UJ1CZ6IZIW3CKRPF6O0NWMFHNH5SV", "dateTime": 1516044223393}, {"current_trial": 130, "trialdata": {"rt": -1000, "trial_type": "single-audio", "word": "skirt", "stimulus": "/static/audio/wordpool/SKIRT.wav", "conditions": [24, 1600, "a", 24000], "internal_node_id": "0.0-94.0", "trial": 3, "time_elapsed": 721628, "serialpos": 13, "key_press": -1, "wordID": 1318, "type": "PRES_AUD", "trial_index": 130}, "uniqueid": "MTK1594:3UJ1CZ6IZIW3CKRPF6O0NWMFHNH5SV", "dateTime": 1516044226045}, {"current_trial": 131, "trialdata": {"rt": -1000, "trial_type": "single-audio", "word": "market", "stimulus": "/static/audio/wordpool/MARKET.wav", "conditions": [24, 1600, "a", 24000], "internal_node_id": "0.0-95.0", "trial": 3, "time_elapsed": 724245, "serialpos": 14, "key_press": -1, "wordID": 870, "type": "PRES_AUD", "trial_index": 131}, "uniqueid": "MTK1594:3UJ1CZ6IZIW3CKRPF6O0NWMFHNH5SV", "dateTime": 1516044228662}, {"current_trial": 132, "trialdata": {"rt": -1000, "trial_type": "single-audio", "word": "country", "stimulus": "/static/audio/wordpool/COUNTRY.wav", "conditions": [24, 1600, "a", 24000], "internal_node_id": "0.0-96.0", "trial": 3, "time_elapsed": 726985, "serialpos": 15, "key_press": -1, "wordID": 387, "type": "PRES_AUD", "trial_index": 132}, "uniqueid": "MTK1594:3UJ1CZ6IZIW3CKRPF6O0NWMFHNH5SV", "dateTime": 1516044231402}, {"current_trial": 133, "trialdata": {"rt": -1000, "trial_type": "single-audio", "word": "clothes", "stimulus": "/static/audio/wordpool/CLOTHES.wav", "conditions": [24, 1600, "a", 24000], "internal_node_id": "0.0-97.0", "trial": 3, "time_elapsed": 729569, "serialpos": 16, "key_press": -1, "wordID": 326, "type": "PRES_AUD", "trial_index": 133}, "uniqueid": "MTK1594:3UJ1CZ6IZIW3CKRPF6O0NWMFHNH5SV", "dateTime": 1516044233986}, {"current_trial": 134, "trialdata": {"rt": -1000, "trial_type": "single-audio", "word": "guitar", "stimulus": "/static/audio/wordpool/GUITAR.wav", "conditions": [24, 1600, "a", 24000], "internal_node_id": "0.0-98.0", "trial": 3, "time_elapsed": 732059, "serialpos": 17, "key_press": -1, "wordID": 669, "type": "PRES_AUD", "trial_index": 134}, "uniqueid": "MTK1594:3UJ1CZ6IZIW3CKRPF6O0NWMFHNH5SV", "dateTime": 1516044236477}, {"current_trial": 135, "trialdata": {"rt": -1000, "trial_type": "single-audio", "word": "shoulder", "stimulus": "/static/audio/wordpool/SHOULDER.wav", "conditions": [24, 1600, "a", 24000], "internal_node_id": "0.0-99.0", "trial": 3, "time_elapsed": 734831, "serialpos": 18, "key_press": -1, "wordID": 1293, "type": "PRES_AUD", "trial_index": 135}, "uniqueid": "MTK1594:3UJ1CZ6IZIW3CKRPF6O0NWMFHNH5SV", "dateTime": 1516044239248}, {"current_trial": 136, "trialdata": {"rt": -1000, "trial_type": "single-audio", "word": "mummy", "stimulus": "/static/audio/wordpool/MUMMY.wav", "conditions": [24, 1600, "a", 24000], "internal_node_id": "0.0-100.0", "trial": 3, "time_elapsed": 737231, "serialpos": 19, "key_press": -1, "wordID": 931, "type": "PRES_AUD", "trial_index": 136}, "uniqueid": "MTK1594:3UJ1CZ6IZIW3CKRPF6O0NWMFHNH5SV", "dateTime": 1516044241648}, {"current_trial": 137, "trialdata": {"rt": -1000, "trial_type": "single-audio", "word": "lace", "stimulus": "/static/audio/wordpool/LACE.wav", "conditions": [24, 1600, "a", 24000], "internal_node_id": "0.0-101.0", "trial": 3, "time_elapsed": 740023, "serialpos": 20, "key_press": -1, "wordID": 791, "type": "PRES_AUD", "trial_index": 137}, "uniqueid": "MTK1594:3UJ1CZ6IZIW3CKRPF6O0NWMFHNH5SV", "dateTime": 1516044244440}, {"current_trial": 138, "trialdata": {"rt": -1000, "trial_type": "single-audio", "word": "cattle", "stimulus": "/static/audio/wordpool/CATTLE.wav", "conditions": [24, 1600, "a", 24000], "internal_node_id": "0.0-102.0", "trial": 3, "time_elapsed": 742567, "serialpos": 21, "key_press": -1, "wordID": 260, "type": "PRES_AUD", "trial_index": 138}, "uniqueid": "MTK1594:3UJ1CZ6IZIW3CKRPF6O0NWMFHNH5SV", "dateTime": 1516044246984}, {"current_trial": 139, "trialdata": {"rt": -1000, "trial_type": "single-audio", "word": "beef", "stimulus": "/static/audio/wordpool/BEEF.wav", "conditions": [24, 1600, "a", 24000], "internal_node_id": "0.0-103.0", "trial": 3, "time_elapsed": 745050, "serialpos": 22, "key_press": -1, "wordID": 112, "type": "PRES_AUD", "trial_index": 139}, "uniqueid": "MTK1594:3UJ1CZ6IZIW3CKRPF6O0NWMFHNH5SV", "dateTime": 1516044249467}, {"current_trial": 140, "trialdata": {"rt": -1000, "trial_type": "single-audio", "word": "flute", "stimulus": "/static/audio/wordpool/FLUTE.wav", "conditions": [24, 1600, "a", 24000], "internal_node_id": "0.0-104.0", "trial": 3, "time_elapsed": 747497, "serialpos": 23, "key_press": -1, "wordID": 584, "type": "PRES_AUD", "trial_index": 140}, "uniqueid": "MTK1594:3UJ1CZ6IZIW3CKRPF6O0NWMFHNH5SV", "dateTime": 1516044251914}, {"current_trial": 141, "trialdata": {"rt": -1, "trial_type": "single-stim", "stimulus": "", "internal_node_id": "0.0-105.0-0.0", "time_elapsed": 748755, "key_press": -1, "type": "PRE_RECALL_DELAY", "trial_index": 141}, "uniqueid": "MTK1594:3UJ1CZ6IZIW3CKRPF6O0NWMFHNH5SV", "dateTime": 1516044253172}, {"current_trial": 142, "trialdata": {"rt": -1000, "trial_type": "single-audio", "stimulus": "/static/audio/400Hz.wav", "internal_node_id": "0.0-106.0", "time_elapsed": 749258, "key_press": -1, "type": "PRE_RECALL_ALERT", "trial_index": 142}, "uniqueid": "MTK1594:3UJ1CZ6IZIW3CKRPF6O0NWMFHNH5SV", "dateTime": 1516044253675}, {"current_trial": 143, "trialdata": {"rt": [3388, 6555, 9020, 10740, 12940, 22684, 26652, 28292, 33876, 39197, 47118, 54094, 59261], "recwords": ["flute", "beef", "beef", "beef", "cattle", "sausage", "bacon", "mammal", "banjo", "treat", "guitar", "sketch", "mummy"], "key_times": [1532, 1643, 1931, 2067, 2197, 3388, 5675, 5867, 6123, 6404, 6555, 7859, 8004, 8259, 8507, 9020, 10012, 10180, 10324, 10492, 10740, 11606, 11799, 12023, 12148, 12276, 12460, 12940, 18659, 18867, 19412, 20075, 20236, 20531, 20643, 20899, 21571, 21715, 21867, 22684, 23348, 23477, 23695, 23740, 24008, 26652, 26972, 27121, 27311, 27468, 27580, 27684, 28292, 32538, 32692, 32764, 32996, 33197, 33876, 36989, 37182, 37245, 37389, 37484, 39197, 43111, 43252, 43412, 43532, 43720, 44244, 47118, 52830, 52961, 53086, 53214, 53478, 53566, 54094, 58221, 58445, 58661, 58789, 59008, 59261], "trial_type": "free-recall", "conditions": [24, 1600, "a", 24000], "internal_node_id": "0.0-107.0-0.0", "key_presses": [70, 76, 85, 84, 69, 13, 66, 69, 69, 70, 32, 66, 69, 69, 70, 32, 66, 69, 69, 70, 13, 67, 65, 84, 84, 76, 69, 13, 83, 85, 65, 8, 8, 65, 85, 83, 65, 71, 69, 13, 66, 65, 67, 79, 78, 13, 77, 65, 77, 77, 65, 76, 13, 66, 65, 78, 74, 79, 13, 84, 82, 69, 65, 84, 13, 71, 85, 73, 84, 65, 82, 13, 83, 75, 69, 84, 67, 72, 13, 77, 85, 77, 77, 89, 13], "trial": 3, "time_elapsed": 809286, "type": "FREE_RECALL", "trial_index": 143}, "uniqueid": "MTK1594:3UJ1CZ6IZIW3CKRPF6O0NWMFHNH5SV", "dateTime": 1516044313719}, {"current_trial": 144, "trialdata": {"rt": 1693, "trial_type": "text", "internal_node_id": "0.0-108.0", "time_elapsed": 812999, "key_press": 32, "type": "INSTRUCTIONS", "trial_index": 144}, "uniqueid": "MTK1594:3UJ1CZ6IZIW3CKRPF6O0NWMFHNH5SV", "dateTime": 1516044317416}, {"current_trial": 145, "trialdata": {"rt": [3885, 5262, 8693, 10621], "trial_type": "math-distractor", "key_times": [3222, 3374, 3885, 4909, 5065, 5262, 8286, 8477, 8693, 10197, 10405, 10621], "responses": ["15", "15", "24", "17"], "num2": [9, 5, 6, 4, 3], "num3": [4, 5, 8, 7, 9], "conditions": [24, 1600, "a", 12000], "internal_node_id": "0.0-109.0", "key_presses": [97, 101, 13, 97, 101, 13, 98, 100, 13, 97, 103, 13], "trial": 4, "time_elapsed": 827009, "type": "DISTRACTOR", "trial_index": 145, "num1": [2, 5, 8, 6, 1]}, "uniqueid": "MTK1594:3UJ1CZ6IZIW3CKRPF6O0NWMFHNH5SV", "dateTime": 1516044331426}, {"current_trial": 146, "trialdata": {"rt": -1, "trial_type": "single-stim", "stimulus": "<p id=\"stim\">10</p>", "internal_node_id": "0.0-110.0-0.0", "time_elapsed": 830012, "key_press": -1, "trial_index": 146}, "uniqueid": "MTK1594:3UJ1CZ6IZIW3CKRPF6O0NWMFHNH5SV", "dateTime": 1516044334430}, {"current_trial": 147, "trialdata": {"rt": -1, "trial_type": "single-stim", "stimulus": "<p id=\"stim\">9</p>", "internal_node_id": "0.0-110.0-1.0", "time_elapsed": 831014, "key_press": -1, "trial_index": 147}, "uniqueid": "MTK1594:3UJ1CZ6IZIW3CKRPF6O0NWMFHNH5SV", "dateTime": 1516044335432}, {"current_trial": 148, "trialdata": {"rt": -1, "trial_type": "single-stim", "stimulus": "<p id=\"stim\">8</p>", "internal_node_id": "0.0-110.0-2.0", "time_elapsed": 832016, "key_press": -1, "trial_index": 148}, "uniqueid": "MTK1594:3UJ1CZ6IZIW3CKRPF6O0NWMFHNH5SV", "dateTime": 1516044336433}, {"current_trial": 149, "trialdata": {"rt": -1, "trial_type": "single-stim", "stimulus": "<p id=\"stim\">7</p>", "internal_node_id": "0.0-110.0-3.0", "time_elapsed": 833018, "key_press": -1, "trial_index": 149}, "uniqueid": "MTK1594:3UJ1CZ6IZIW3CKRPF6O0NWMFHNH5SV", "dateTime": 1516044337435}, {"current_trial": 150, "trialdata": {"rt": -1, "trial_type": "single-stim", "stimulus": "<p id=\"stim\">6</p>", "internal_node_id": "0.0-110.0-4.0", "time_elapsed": 834020, "key_press": -1, "trial_index": 150}, "uniqueid": "MTK1594:3UJ1CZ6IZIW3CKRPF6O0NWMFHNH5SV", "dateTime": 1516044338437}, {"current_trial": 151, "trialdata": {"rt": -1, "trial_type": "single-stim", "stimulus": "<p id=\"stim\">5</p>", "internal_node_id": "0.0-110.0-5.0", "time_elapsed": 835023, "key_press": -1, "trial_index": 151}, "uniqueid": "MTK1594:3UJ1CZ6IZIW3CKRPF6O0NWMFHNH5SV", "dateTime": 1516044339440}, {"current_trial": 152, "trialdata": {"rt": -1, "trial_type": "single-stim", "stimulus": "<p id=\"stim\">4</p>", "internal_node_id": "0.0-110.0-6.0", "time_elapsed": 836025, "key_press": -1, "trial_index": 152}, "uniqueid": "MTK1594:3UJ1CZ6IZIW3CKRPF6O0NWMFHNH5SV", "dateTime": 1516044340442}, {"current_trial": 153, "trialdata": {"rt": -1, "trial_type": "single-stim", "stimulus": "<p id=\"stim\">3</p>", "internal_node_id": "0.0-110.0-7.0", "time_elapsed": 837030, "key_press": -1, "trial_index": 153}, "uniqueid": "MTK1594:3UJ1CZ6IZIW3CKRPF6O0NWMFHNH5SV", "dateTime": 1516044341448}, {"current_trial": 154, "trialdata": {"rt": -1, "trial_type": "single-stim", "stimulus": "<p id=\"stim\">2</p>", "internal_node_id": "0.0-110.0-8.0", "time_elapsed": 838032, "key_press": -1, "trial_index": 154}, "uniqueid": "MTK1594:3UJ1CZ6IZIW3CKRPF6O0NWMFHNH5SV", "dateTime": 1516044342450}, {"current_trial": 155, "trialdata": {"rt": -1, "trial_type": "single-stim", "stimulus": "<p id=\"stim\">1</p>", "internal_node_id": "0.0-110.0-9.0", "time_elapsed": 839035, "key_press": -1, "trial_index": 155}, "uniqueid": "MTK1594:3UJ1CZ6IZIW3CKRPF6O0NWMFHNH5SV", "dateTime": 1516044343452}, {"current_trial": 156, "trialdata": {"rt": -1, "trial_type": "single-stim", "stimulus": "<p id=\"stim\">+</p>", "internal_node_id": "0.0-111.0-0.0", "time_elapsed": 840537, "key_press": -1, "type": "FIXATION", "trial_index": 156}, "uniqueid": "MTK1594:3UJ1CZ6IZIW3CKRPF6O0NWMFHNH5SV", "dateTime": 1516044344954}, {"current_trial": 157, "trialdata": {"rt": -1000, "trial_type": "single-audio", "word": "puddle", "stimulus": "/static/audio/wordpool/PUDDLE.wav", "conditions": [24, 1600, "a", 12000], "internal_node_id": "0.0-112.0", "trial": 4, "time_elapsed": 842943, "serialpos": 0, "key_press": -1, "wordID": 1139, "type": "PRES_AUD", "trial_index": 157}, "uniqueid": "MTK1594:3UJ1CZ6IZIW3CKRPF6O0NWMFHNH5SV", "dateTime": 1516044347360}, {"current_trial": 158, "trialdata": {"rt": -1000, "trial_type": "single-audio", "word": "possum", "stimulus": "/static/audio/wordpool/POSSUM.wav", "conditions": [24, 1600, "a", 12000], "internal_node_id": "0.0-113.0", "trial": 4, "time_elapsed": 845538, "serialpos": 1, "key_press": -1, "wordID": 1111, "type": "PRES_AUD", "trial_index": 158}, "uniqueid": "MTK1594:3UJ1CZ6IZIW3CKRPF6O0NWMFHNH5SV", "dateTime": 1516044349955}, {"current_trial": 159, "trialdata": {"rt": -1000, "trial_type": "single-audio", "word": "snake", "stimulus": "/static/audio/wordpool/SNAKE.wav", "conditions": [24, 1600, "a", 12000], "internal_node_id": "0.0-114.0", "trial": 4, "time_elapsed": 847954, "serialpos": 2, "key_press": -1, "wordID": 1332, "type": "PRES_AUD", "trial_index": 159}, "uniqueid": "MTK1594:3UJ1CZ6IZIW3CKRPF6O0NWMFHNH5SV", "dateTime": 1516044352372}, {"current_trial": 160, "trialdata": {"rt": -1000, "trial_type": "single-audio", "word": "thief", "stimulus": "/static/audio/wordpool/THIEF.wav", "conditions": [24, 1600, "a", 12000], "internal_node_id": "0.0-115.0", "trial": 4, "time_elapsed": 850535, "serialpos": 3, "key_press": -1, "wordID": 1455, "type": "PRES_AUD", "trial_index": 160}, "uniqueid": "MTK1594:3UJ1CZ6IZIW3CKRPF6O0NWMFHNH5SV", "dateTime": 1516044354955}, {"current_trial": 161, "trialdata": {"rt": -1000, "trial_type": "single-audio", "word": "jello", "stimulus": "/static/audio/wordpool/JELLO.wav", "conditions": [24, 1600, "a", 12000], "internal_node_id": "0.0-116.0", "trial": 4, "time_elapsed": 852993, "serialpos": 4, "key_press": -1, "wordID": 753, "type": "PRES_AUD", "trial_index": 161}, "uniqueid": "MTK1594:3UJ1CZ6IZIW3CKRPF6O0NWMFHNH5SV", "dateTime": 1516044357410}, {"current_trial": 162, "trialdata": {"rt": -1000, "trial_type": "single-audio", "word": "record", "stimulus": "/static/audio/wordpool/RECORD.wav", "conditions": [24, 1600, "a", 12000], "internal_node_id": "0.0-117.0", "trial": 4, "time_elapsed": 855682, "serialpos": 5, "key_press": -1, "wordID": 1175, "type": "PRES_AUD", "trial_index": 162}, "uniqueid": "MTK1594:3UJ1CZ6IZIW3CKRPF6O0NWMFHNH5SV", "dateTime": 1516044360099}, {"current_trial": 163, "trialdata": {"rt": -1000, "trial_type": "single-audio", "word": "chemist", "stimulus": "/static/audio/wordpool/CHEMIST.wav", "conditions": [24, 1600, "a", 12000], "internal_node_id": "0.0-118.0", "trial": 4, "time_elapsed": 858103, "serialpos": 6, "key_press": -1, "wordID": 291, "type": "PRES_AUD", "trial_index": 163}, "uniqueid": "MTK1594:3UJ1CZ6IZIW3CKRPF6O0NWMFHNH5SV", "dateTime": 1516044362520}, {"current_trial": 164, "trialdata": {"rt": -1000, "trial_type": "single-audio", "word": "barrel", "stimulus": "/static/audio/wordpool/BARREL.wav", "conditions": [24, 1600, "a", 12000], "internal_node_id": "0.0-119.0", "trial": 4, "time_elapsed": 860695, "serialpos": 7, "key_press": -1, "wordID": 90, "type": "PRES_AUD", "trial_index": 164}, "uniqueid": "MTK1594:3UJ1CZ6IZIW3CKRPF6O0NWMFHNH5SV", "dateTime": 1516044365112}, {"current_trial": 165, "trialdata": {"rt": -1000, "trial_type": "single-audio", "word": "gallon", "stimulus": "/static/audio/wordpool/GALLON.wav", "conditions": [24, 1600, "a", 12000], "internal_node_id": "0.0-120.0", "trial": 4, "time_elapsed": 863315, "serialpos": 8, "key_press": -1, "wordID": 617, "type": "PRES_AUD", "trial_index": 165}, "uniqueid": "MTK1594:3UJ1CZ6IZIW3CKRPF6O0NWMFHNH5SV", "dateTime": 1516044367732}, {"current_trial": 166, "trialdata": {"rt": -1000, "trial_type": "single-audio", "word": "swimmer", "stimulus": "/static/audio/wordpool/SWIMMER.wav", "conditions": [24, 1600, "a", 12000], "internal_node_id": "0.0-121.0", "trial": 4, "time_elapsed": 865910, "serialpos": 9, "key_press": -1, "wordID": 1419, "type": "PRES_AUD", "trial_index": 166}, "uniqueid": "MTK1594:3UJ1CZ6IZIW3CKRPF6O0NWMFHNH5SV", "dateTime": 1516044370327}, {"current_trial": 167, "trialdata": {"rt": -1000, "trial_type": "single-audio", "word": "jelly", "stimulus": "/static/audio/wordpool/JELLY.wav", "conditions": [24, 1600, "a", 12000], "internal_node_id": "0.0-122.0", "trial": 4, "time_elapsed": 868620, "serialpos": 10, "key_press": -1, "wordID": 754, "type": "PRES_AUD", "trial_index": 167}, "uniqueid": "MTK1594:3UJ1CZ6IZIW3CKRPF6O0NWMFHNH5SV", "dateTime": 1516044373037}, {"current_trial": 168, "trialdata": {"rt": -1000, "trial_type": "single-audio", "word": "nightgown", "stimulus": "/static/audio/wordpool/NIGHTGOWN.wav", "conditions": [24, 1600, "a", 12000], "internal_node_id": "0.0-123.0", "trial": 4, "time_elapsed": 871113, "serialpos": 11, "key_press": -1, "wordID": 952, "type": "PRES_AUD", "trial_index": 168}, "uniqueid": "MTK1594:3UJ1CZ6IZIW3CKRPF6O0NWMFHNH5SV", "dateTime": 1516044375530}, {"current_trial": 169, "trialdata": {"rt": -1000, "trial_type": "single-audio", "word": "beaver", "stimulus": "/static/audio/wordpool/BEAVER.wav", "conditions": [24, 1600, "a", 12000], "internal_node_id": "0.0-124.0", "trial": 4, "time_elapsed": 873838, "serialpos": 12, "key_press": -1, "wordID": 108, "type": "PRES_AUD", "trial_index": 169}, "uniqueid": "MTK1594:3UJ1CZ6IZIW3CKRPF6O0NWMFHNH5SV", "dateTime": 1516044378255}, {"current_trial": 170, "trialdata": {"rt": -1000, "trial_type": "single-audio", "word": "citrus", "stimulus": "/static/audio/wordpool/CITRUS.wav", "conditions": [24, 1600, "a", 12000], "internal_node_id": "0.0-125.0", "trial": 4, "time_elapsed": 876606, "serialpos": 13, "key_press": -1, "wordID": 312, "type": "PRES_AUD", "trial_index": 170}, "uniqueid": "MTK1594:3UJ1CZ6IZIW3CKRPF6O0NWMFHNH5SV", "dateTime": 1516044381023}, {"current_trial": 171, "trialdata": {"rt": -1000, "trial_type": "single-audio", "word": "match", "stimulus": "/static/audio/wordpool/MATCH.wav", "conditions": [24, 1600, "a", 12000], "internal_node_id": "0.0-126.0", "trial": 4, "time_elapsed": 879187, "serialpos": 14, "key_press": -1, "wordID": 877, "type": "PRES_AUD", "trial_index": 171}, "uniqueid": "MTK1594:3UJ1CZ6IZIW3CKRPF6O0NWMFHNH5SV", "dateTime": 1516044383604}, {"current_trial": 172, "trialdata": {"rt": -1000, "trial_type": "single-audio", "word": "parsley", "stimulus": "/static/audio/wordpool/PARSLEY.wav", "conditions": [24, 1600, "a", 12000], "internal_node_id": "0.0-127.0", "trial": 4, "time_elapsed": 881910, "serialpos": 15, "key_press": -1, "wordID": 1015, "type": "PRES_AUD", "trial_index": 172}, "uniqueid": "MTK1594:3UJ1CZ6IZIW3CKRPF6O0NWMFHNH5SV", "dateTime": 1516044386327}, {"current_trial": 173, "trialdata": {"rt": -1000, "trial_type": "single-audio", "word": "antler", "stimulus": "/static/audio/wordpool/ANTLER.wav", "conditions": [24, 1600, "a", 12000], "internal_node_id": "0.0-128.0", "trial": 4, "time_elapsed": 884356, "serialpos": 16, "key_press": -1, "wordID": 28, "type": "PRES_AUD", "trial_index": 173}, "uniqueid": "MTK1594:3UJ1CZ6IZIW3CKRPF6O0NWMFHNH5SV", "dateTime": 1516044388773}, {"current_trial": 174, "trialdata": {"rt": -1000, "trial_type": "single-audio", "word": "tablet", "stimulus": "/static/audio/wordpool/TABLET.wav", "conditions": [24, 1600, "a", 12000], "internal_node_id": "0.0-129.0", "trial": 4, "time_elapsed": 886772, "serialpos": 17, "key_press": -1, "wordID": 1426, "type": "PRES_AUD", "trial_index": 174}, "uniqueid": "MTK1594:3UJ1CZ6IZIW3CKRPF6O0NWMFHNH5SV", "dateTime": 1516044391189}, {"current_trial": 175, "trialdata": {"rt": -1000, "trial_type": "single-audio", "word": "tractor", "stimulus": "/static/audio/wordpool/TRACTOR.wav", "conditions": [24, 1600, "a", 12000], "internal_node_id": "0.0-130.0", "trial": 4, "time_elapsed": 889571, "serialpos": 18, "key_press": -1, "wordID": 1492, "type": "PRES_AUD", "trial_index": 175}, "uniqueid": "MTK1594:3UJ1CZ6IZIW3CKRPF6O0NWMFHNH5SV", "dateTime": 1516044393989}, {"current_trial": 176, "trialdata": {"rt": -1000, "trial_type": "single-audio", "word": "scissors", "stimulus": "/static/audio/wordpool/SCISSORS.wav", "conditions": [24, 1600, "a", 12000], "internal_node_id": "0.0-131.0", "trial": 4, "time_elapsed": 892005, "serialpos": 19, "key_press": -1, "wordID": 1249, "type": "PRES_AUD", "trial_index": 176}, "uniqueid": "MTK1594:3UJ1CZ6IZIW3CKRPF6O0NWMFHNH5SV", "dateTime": 1516044396422}, {"current_trial": 177, "trialdata": {"rt": -1000, "trial_type": "single-audio", "word": "razor", "stimulus": "/static/audio/wordpool/RAZOR.wav", "conditions": [24, 1600, "a", 12000], "internal_node_id": "0.0-132.0", "trial": 4, "time_elapsed": 894512, "serialpos": 20, "key_press": -1, "wordID": 1170, "type": "PRES_AUD", "trial_index": 177}, "uniqueid": "MTK1594:3UJ1CZ6IZIW3CKRPF6O0NWMFHNH5SV", "dateTime": 1516044398929}, {"current_trial": 178, "trialdata": {"rt": -1000, "trial_type": "single-audio", "word": "gazelle", "stimulus": "/static/audio/wordpool/GAZELLE.wav", "conditions": [24, 1600, "a", 12000], "internal_node_id": "0.0-133.0", "trial": 4, "time_elapsed": 897298, "serialpos": 21, "key_press": -1, "wordID": 627, "type": "PRES_AUD", "trial_index": 178}, "uniqueid": "MTK1594:3UJ1CZ6IZIW3CKRPF6O0NWMFHNH5SV", "dateTime": 1516044401716}, {"current_trial": 179, "trialdata": {"rt": -1000, "trial_type": "single-audio", "word": "whistle", "stimulus": "/static/audio/wordpool/WHISTLE.wav", "conditions": [24, 1600, "a", 12000], "internal_node_id": "0.0-134.0", "trial": 4, "time_elapsed": 900096, "serialpos": 22, "key_press": -1, "wordID": 1605, "type": "PRES_AUD", "trial_index": 179}, "uniqueid": "MTK1594:3UJ1CZ6IZIW3CKRPF6O0NWMFHNH5SV", "dateTime": 1516044404514}, {"current_trial": 180, "trialdata": {"rt": -1000, "trial_type": "single-audio", "word": "rabbit", "stimulus": "/static/audio/wordpool/RABBIT.wav", "conditions": [24, 1600, "a", 12000], "internal_node_id": "0.0-135.0", "trial": 4, "time_elapsed": 902596, "serialpos": 23, "key_press": -1, "wordID": 1151, "type": "PRES_AUD", "trial_index": 180}, "uniqueid": "MTK1594:3UJ1CZ6IZIW3CKRPF6O0NWMFHNH5SV", "dateTime": 1516044407014}, {"current_trial": 181, "trialdata": {"rt": -1, "trial_type": "single-stim", "stimulus": "", "internal_node_id": "0.0-136.0-0.0", "time_elapsed": 903922, "key_press": -1, "type": "PRE_RECALL_DELAY", "trial_index": 181}, "uniqueid": "MTK1594:3UJ1CZ6IZIW3CKRPF6O0NWMFHNH5SV", "dateTime": 1516044408339}, {"current_trial": 182, "trialdata": {"rt": -1000, "trial_type": "single-audio", "stimulus": "/static/audio/400Hz.wav", "internal_node_id": "0.0-137.0", "time_elapsed": 904424, "key_press": -1, "type": "PRE_RECALL_ALERT", "trial_index": 182}, "uniqueid": "MTK1594:3UJ1CZ6IZIW3CKRPF6O0NWMFHNH5SV", "dateTime": 1516044408841}, {"current_trial": 183, "trialdata": {"rt": [3880, 7328, 11025, 12246, 13960, 18792, 24201, 26904, 32072, 37097, 39153], "recwords": ["rabbit", "gazelle", "beaver", "snake", "possum", "antler", "razor", "scissors", "gallon", "jelly", "jello"], "key_times": [1466, 1673, 1825, 1977, 2169, 2390, 3880, 4554, 4704, 5296, 5555, 6048, 6216, 6368, 7328, 7824, 7960, 8016, 8400, 8584, 8672, 11025, 11449, 11586, 11720, 11816, 11976, 12246, 12712, 12896, 13042, 13200, 13272, 13529, 13960, 17617, 17712, 17896, 18001, 18152, 18256, 18792, 23314, 23442, 23729, 23848, 24104, 24201, 24913, 25144, 25245, 25480, 25641, 25728, 25904, 26192, 26904, 30872, 31016, 31120, 31280, 31480, 31642, 32072, 34673, 34808, 34976, 35156, 35888, 36049, 36328, 36496, 36825, 37097, 37859, 37945, 38081, 38234, 38425, 39153], "trial_type": "free-recall", "conditions": [24, 1600, "a", 12000], "internal_node_id": "0.0-138.0-0.0", "key_presses": [82, 65, 66, 66, 73, 84, 13, 71, 65, 90, 69, 76, 76, 69, 13, 66, 69, 65, 86, 69, 82, 13, 83, 78, 65, 75, 69, 13, 80, 79, 83, 83, 85, 77, 13, 65, 78, 84, 76, 69, 82, 13, 82, 65, 90, 79, 82, 32, 83, 67, 73, 83, 83, 79, 82, 83, 13, 71, 65, 76, 76, 79, 78, 13, 74, 69, 79, 79, 8, 8, 76, 76, 89, 32, 74, 69, 76, 76, 79, 13], "trial": 4, "time_elapsed": 964430, "type": "FREE_RECALL", "trial_index": 183}, "uniqueid": "MTK1594:3UJ1CZ6IZIW3CKRPF6O0NWMFHNH5SV", "dateTime": 1516044468858}, {"current_trial": 184, "trialdata": {"rt": 1702, "trial_type": "text", "internal_node_id": "0.0-139.0", "time_elapsed": 968167, "key_press": 32, "type": "INSTRUCTIONS", "trial_index": 184}, "uniqueid": "MTK1594:3UJ1CZ6IZIW3CKRPF6O0NWMFHNH5SV", "dateTime": 1516044472584}, {"current_trial": 185, "trialdata": {"rt": [2605, 5160, 8445, 11886, 14534, 16054, 20334], "trial_type": "math-distractor", "key_times": [2021, 2605, 4710, 4893, 5160, 8073, 8229, 8445, 11525, 11678, 11886, 14191, 14326, 14534, 15726, 15879, 16054, 19959, 20118, 20334, 23710, 23910], "responses": ["9", "27", "15", "11", "22", "11", "14"], "num2": [2, 9, 7, 7, 9, 1, 1, 3], "num3": [4, 9, 6, 2, 9, 5, 4, 6], "conditions": [12, 1600, "a", 24000], "internal_node_id": "0.0-140.0", "key_presses": [105, 13, 98, 103, 13, 97, 101, 13, 97, 97, 13, 98, 98, 13, 97, 97, 13, 97, 100, 13, 97, 103], "trial": 5, "time_elapsed": 994188, "type": "DISTRACTOR", "trial_index": 185, "num1": [3, 9, 2, 2, 4, 5, 9, 8]}, "uniqueid": "MTK1594:3UJ1CZ6IZIW3CKRPF6O0NWMFHNH5SV", "dateTime": 1516044498605}, {"current_trial": 186, "trialdata": {"rt": -1, "trial_type": "single-stim", "stimulus": "<p id=\"stim\">10</p>", "internal_node_id": "0.0-141.0-0.0", "time_elapsed": 997196, "key_press": -1, "trial_index": 186}, "uniqueid": "MTK1594:3UJ1CZ6IZIW3CKRPF6O0NWMFHNH5SV", "dateTime": 1516044501614}, {"current_trial": 187, "trialdata": {"rt": -1, "trial_type": "single-stim", "stimulus": "<p id=\"stim\">9</p>", "internal_node_id": "0.0-141.0-1.0", "time_elapsed": 998198, "key_press": -1, "trial_index": 187}, "uniqueid": "MTK1594:3UJ1CZ6IZIW3CKRPF6O0NWMFHNH5SV", "dateTime": 1516044502615}, {"current_trial": 188, "trialdata": {"rt": -1, "trial_type": "single-stim", "stimulus": "<p id=\"stim\">8</p>", "internal_node_id": "0.0-141.0-2.0", "time_elapsed": 999200, "key_press": -1, "trial_index": 188}, "uniqueid": "MTK1594:3UJ1CZ6IZIW3CKRPF6O0NWMFHNH5SV", "dateTime": 1516044503617}, {"current_trial": 189, "trialdata": {"rt": -1, "trial_type": "single-stim", "stimulus": "<p id=\"stim\">7</p>", "internal_node_id": "0.0-141.0-3.0", "time_elapsed": 1000202, "key_press": -1, "trial_index": 189}, "uniqueid": "MTK1594:3UJ1CZ6IZIW3CKRPF6O0NWMFHNH5SV", "dateTime": 1516044504620}, {"current_trial": 190, "trialdata": {"rt": -1, "trial_type": "single-stim", "stimulus": "<p id=\"stim\">6</p>", "internal_node_id": "0.0-141.0-4.0", "time_elapsed": 1001212, "key_press": -1, "trial_index": 190}, "uniqueid": "MTK1594:3UJ1CZ6IZIW3CKRPF6O0NWMFHNH5SV", "dateTime": 1516044505630}, {"current_trial": 191, "trialdata": {"rt": -1, "trial_type": "single-stim", "stimulus": "<p id=\"stim\">5</p>", "internal_node_id": "0.0-141.0-5.0", "time_elapsed": 1002215, "key_press": -1, "trial_index": 191}, "uniqueid": "MTK1594:3UJ1CZ6IZIW3CKRPF6O0NWMFHNH5SV", "dateTime": 1516044506632}, {"current_trial": 192, "trialdata": {"rt": -1, "trial_type": "single-stim", "stimulus": "<p id=\"stim\">4</p>", "internal_node_id": "0.0-141.0-6.0", "time_elapsed": 1003219, "key_press": -1, "trial_index": 192}, "uniqueid": "MTK1594:3UJ1CZ6IZIW3CKRPF6O0NWMFHNH5SV", "dateTime": 1516044507637}, {"current_trial": 193, "trialdata": {"rt": -1, "trial_type": "single-stim", "stimulus": "<p id=\"stim\">3</p>", "internal_node_id": "0.0-141.0-7.0", "time_elapsed": 1004221, "key_press": -1, "trial_index": 193}, "uniqueid": "MTK1594:3UJ1CZ6IZIW3CKRPF6O0NWMFHNH5SV", "dateTime": 1516044508639}, {"current_trial": 194, "trialdata": {"rt": -1, "trial_type": "single-stim", "stimulus": "<p id=\"stim\">2</p>", "internal_node_id": "0.0-141.0-8.0", "time_elapsed": 1005226, "key_press": -1, "trial_index": 194}, "uniqueid": "MTK1594:3UJ1CZ6IZIW3CKRPF6O0NWMFHNH5SV", "dateTime": 1516044509644}, {"current_trial": 195, "trialdata": {"rt": -1, "trial_type": "single-stim", "stimulus": "<p id=\"stim\">1</p>", "internal_node_id": "0.0-141.0-9.0", "time_elapsed": 1006242, "key_press": -1, "trial_index": 195}, "uniqueid": "MTK1594:3UJ1CZ6IZIW3CKRPF6O0NWMFHNH5SV", "dateTime": 1516044510659}, {"current_trial": 196, "trialdata": {"rt": -1, "trial_type": "single-stim", "stimulus": "<p id=\"stim\">+</p>", "internal_node_id": "0.0-142.0-0.0", "time_elapsed": 1007743, "key_press": -1, "type": "FIXATION", "trial_index": 196}, "uniqueid": "MTK1594:3UJ1CZ6IZIW3CKRPF6O0NWMFHNH5SV", "dateTime": 1516044512160}, {"current_trial": 197, "trialdata": {"rt": -1000, "trial_type": "single-audio", "word": "portrait", "stimulus": "/static/audio/wordpool/PORTRAIT.wav", "conditions": [12, 1600, "a", 24000], "internal_node_id": "0.0-143.0", "trial": 5, "time_elapsed": 1010272, "serialpos": 0, "key_press": -1, "wordID": 1110, "type": "PRES_AUD", "trial_index": 197}, "uniqueid": "MTK1594:3UJ1CZ6IZIW3CKRPF6O0NWMFHNH5SV", "dateTime": 1516044514691}, {"current_trial": 198, "trialdata": {"rt": -1000, "trial_type": "single-audio", "word": "actor", "stimulus": "/static/audio/wordpool/ACTOR.wav", "conditions": [12, 1600, "a", 24000], "internal_node_id": "0.0-144.0", "trial": 5, "time_elapsed": 1012924, "serialpos": 1, "key_press": -1, "wordID": 4, "type": "PRES_AUD", "trial_index": 198}, "uniqueid": "MTK1594:3UJ1CZ6IZIW3CKRPF6O0NWMFHNH5SV", "dateTime": 1516044517341}, {"current_trial": 199, "trialdata": {"rt": -1000, "trial_type": "single-audio", "word": "film", "stimulus": "/static/audio/wordpool/FILM.wav", "conditions": [12, 1600, "a", 24000], "internal_node_id": "0.0-145.0", "trial": 5, "time_elapsed": 1015509, "serialpos": 2, "key_press": -1, "wordID": 564, "type": "PRES_AUD", "trial_index": 199}, "uniqueid": "MTK1594:3UJ1CZ6IZIW3CKRPF6O0NWMFHNH5SV", "dateTime": 1516044519926}, {"current_trial": 200, "trialdata": {"rt": -1000, "trial_type": "single-audio", "word": "beaker", "stimulus": "/static/audio/wordpool/BEAKER.wav", "conditions": [12, 1600, "a", 24000], "internal_node_id": "0.0-146.0", "trial": 5, "time_elapsed": 1018179, "serialpos": 3, "key_press": -1, "wordID": 103, "type": "PRES_AUD", "trial_index": 200}, "uniqueid": "MTK1594:3UJ1CZ6IZIW3CKRPF6O0NWMFHNH5SV", "dateTime": 1516044522597}, {"current_trial": 201, "trialdata": {"rt": -1000, "trial_type": "single-audio", "word": "yacht", "stimulus": "/static/audio/wordpool/YACHT.wav", "conditions": [12, 1600, "a", 24000], "internal_node_id": "0.0-147.0", "trial": 5, "time_elapsed": 1020722, "serialpos": 4, "key_press": -1, "wordID": 1628, "type": "PRES_AUD", "trial_index": 201}, "uniqueid": "MTK1594:3UJ1CZ6IZIW3CKRPF6O0NWMFHNH5SV", "dateTime": 1516044525140}, {"current_trial": 202, "trialdata": {"rt": -1000, "trial_type": "single-audio", "word": "ankle", "stimulus": "/static/audio/wordpool/ANKLE.wav", "conditions": [12, 1600, "a", 24000], "internal_node_id": "0.0-148.0", "trial": 5, "time_elapsed": 1023376, "serialpos": 5, "key_press": -1, "wordID": 23, "type": "PRES_AUD", "trial_index": 202}, "uniqueid": "MTK1594:3UJ1CZ6IZIW3CKRPF6O0NWMFHNH5SV", "dateTime": 1516044527793}, {"current_trial": 203, "trialdata": {"rt": -1000, "trial_type": "single-audio", "word": "icing", "stimulus": "/static/audio/wordpool/ICING.wav", "conditions": [12, 1600, "a", 24000], "internal_node_id": "0.0-149.0", "trial": 5, "time_elapsed": 1025815, "serialpos": 6, "key_press": -1, "wordID": 731, "type": "PRES_AUD", "trial_index": 203}, "uniqueid": "MTK1594:3UJ1CZ6IZIW3CKRPF6O0NWMFHNH5SV", "dateTime": 1516044530232}, {"current_trial": 204, "trialdata": {"rt": -1000, "trial_type": "single-audio", "word": "robin", "stimulus": "/static/audio/wordpool/ROBIN.wav", "conditions": [12, 1600, "a", 24000], "internal_node_id": "0.0-150.0", "trial": 5, "time_elapsed": 1028505, "serialpos": 7, "key_press": -1, "wordID": 1198, "type": "PRES_AUD", "trial_index": 204}, "uniqueid": "MTK1594:3UJ1CZ6IZIW3CKRPF6O0NWMFHNH5SV", "dateTime": 1516044532922}, {"current_trial": 205, "trialdata": {"rt": -1000, "trial_type": "single-audio", "word": "cigar", "stimulus": "/static/audio/wordpool/CIGAR.wav", "conditions": [12, 1600, "a", 24000], "internal_node_id": "0.0-151.0", "trial": 5, "time_elapsed": 1031262, "serialpos": 8, "key_press": -1, "wordID": 307, "type": "PRES_AUD", "trial_index": 205}, "uniqueid": "MTK1594:3UJ1CZ6IZIW3CKRPF6O0NWMFHNH5SV", "dateTime": 1516044535679}, {"current_trial": 206, "trialdata": {"rt": -1000, "trial_type": "single-audio", "word": "label", "stimulus": "/static/audio/wordpool/LABEL.wav", "conditions": [12, 1600, "a", 24000], "internal_node_id": "0.0-152.0", "trial": 5, "time_elapsed": 1033851, "serialpos": 9, "key_press": -1, "wordID": 789, "type": "PRES_AUD", "trial_index": 206}, "uniqueid": "MTK1594:3UJ1CZ6IZIW3CKRPF6O0NWMFHNH5SV", "dateTime": 1516044538268}, {"current_trial": 207, "trialdata": {"rt": -1000, "trial_type": "single-audio", "word": "mailman", "stimulus": "/static/audio/wordpool/MAILMAN.wav", "conditions": [12, 1600, "a", 24000], "internal_node_id": "0.0-153.0", "trial": 5, "time_elapsed": 1036434, "serialpos": 10, "key_press": -1, "wordID": 857, "type": "PRES_AUD", "trial_index": 207}, "uniqueid": "MTK1594:3UJ1CZ6IZIW3CKRPF6O0NWMFHNH5SV", "dateTime": 1516044540851}, {"current_trial": 208, "trialdata": {"rt": -1000, "trial_type": "single-audio", "word": "wasp", "stimulus": "/static/audio/wordpool/WASP.wav", "conditions": [12, 1600, "a", 24000], "internal_node_id": "0.0-154.0", "trial": 5, "time_elapsed": 1038917, "serialpos": 11, "key_press": -1, "wordID": 1592, "type": "PRES_AUD", "trial_index": 208}, "uniqueid": "MTK1594:3UJ1CZ6IZIW3CKRPF6O0NWMFHNH5SV", "dateTime": 1516044543334}, {"current_trial": 209, "trialdata": {"rt": -1, "trial_type": "single-stim", "stimulus": "", "internal_node_id": "0.0-155.0-0.0", "time_elapsed": 1040230, "key_press": -1, "type": "PRE_RECALL_DELAY", "trial_index": 209}, "uniqueid": "MTK1594:3UJ1CZ6IZIW3CKRPF6O0NWMFHNH5SV", "dateTime": 1516044544647}, {"current_trial": 210, "trialdata": {"rt": -1000, "trial_type": "single-audio", "stimulus": "/static/audio/400Hz.wav", "internal_node_id": "0.0-156.0", "time_elapsed": 1040733, "key_press": -1, "type": "PRE_RECALL_ALERT", "trial_index": 210}, "uniqueid": "MTK1594:3UJ1CZ6IZIW3CKRPF6O0NWMFHNH5SV", "dateTime": 1516044545150}, {"current_trial": 211, "trialdata": {"rt": [3685, 5525, 8500, 13323, 16093, 18755, 29077, 33414], "recwords": ["wasp", "mailman", "label", "film", "actor", "portrait", "yacht", "portrait"], "key_times": [1736, 1949, 2165, 2320, 3685, 4061, 4205, 4303, 4461, 4623, 4719, 4813, 5525, 6662, 6884, 6981, 7165, 7261, 8500, 12683, 12797, 12990, 13134, 13323, 13501, 13821, 13973, 14117, 14722, 14919, 15373, 15477, 15677, 16093, 16534, 16741, 16902, 17093, 17261, 17405, 17565, 17741, 18755, 20893, 21022, 21245, 21358, 23207, 23414, 23606, 23782, 27541, 27718, 28005, 28126, 28398, 29077, 31750, 31909, 32061, 32213, 32454, 32621, 32726, 32861, 33414], "trial_type": "free-recall", "conditions": [12, 1600, "a", 24000], "internal_node_id": "0.0-157.0-0.0", "key_presses": [87, 65, 83, 80, 13, 77, 65, 73, 76, 77, 65, 78, 13, 76, 65, 66, 69, 76, 13, 70, 73, 76, 77, 32, 65, 67, 79, 84, 8, 8, 84, 79, 82, 13, 80, 79, 82, 84, 82, 65, 73, 84, 13, 87, 65, 83, 80, 8, 8, 8, 8, 89, 65, 67, 72, 84, 13, 80, 79, 82, 84, 82, 65, 73, 84, 13], "trial": 5, "time_elapsed": 1100744, "type": "FREE_RECALL", "trial_index": 211}, "uniqueid": "MTK1594:3UJ1CZ6IZIW3CKRPF6O0NWMFHNH5SV", "dateTime": 1516044605192}, {"current_trial": 212, "trialdata": {"rt": 3713, "trial_type": "text", "internal_node_id": "0.0-158.0", "time_elapsed": 1106541, "key_press": 32, "type": "INSTRUCTIONS", "trial_index": 212}, "uniqueid": "MTK1594:3UJ1CZ6IZIW3CKRPF6O0NWMFHNH5SV", "dateTime": 1516044610958}, {"current_trial": 213, "trialdata": {"rt": [2285, 6371, 8365, 10542], "trial_type": "math-distractor", "key_times": [1509, 1685, 2285, 5957, 6142, 6371, 8093, 8365, 10286, 10542], "responses": ["19", "23", "9", "6"], "num2": [9, 8, 1, 1, 3], "num3": [6, 6, 6, 1, 7], "conditions": [12, 1600, "a", 12000], "internal_node_id": "0.0-159.0", "key_presses": [97, 105, 13, 98, 99, 13, 105, 13, 102, 13], "trial": 6, "time_elapsed": 1120554, "type": "DISTRACTOR", "trial_index": 213, "num1": [4, 9, 2, 4, 5]}, "uniqueid": "MTK1594:3UJ1CZ6IZIW3CKRPF6O0NWMFHNH5SV", "dateTime": 1516044624971}, {"current_trial": 214, "trialdata": {"rt": -1, "trial_type": "single-stim", "stimulus": "<p id=\"stim\">10</p>", "internal_node_id": "0.0-160.0-0.0", "time_elapsed": 1123557, "key_press": -1, "trial_index": 214}, "uniqueid": "MTK1594:3UJ1CZ6IZIW3CKRPF6O0NWMFHNH5SV", "dateTime": 1516044627974}, {"current_trial": 215, "trialdata": {"rt": -1, "trial_type": "single-stim", "stimulus": "<p id=\"stim\">9</p>", "internal_node_id": "0.0-160.0-1.0", "time_elapsed": 1124559, "key_press": -1, "trial_index": 215}, "uniqueid": "MTK1594:3UJ1CZ6IZIW3CKRPF6O0NWMFHNH5SV", "dateTime": 1516044628976}, {"current_trial": 216, "trialdata": {"rt": -1, "trial_type": "single-stim", "stimulus": "<p id=\"stim\">8</p>", "internal_node_id": "0.0-160.0-2.0", "time_elapsed": 1125567, "key_press": -1, "trial_index": 216}, "uniqueid": "MTK1594:3UJ1CZ6IZIW3CKRPF6O0NWMFHNH5SV", "dateTime": 1516044629984}, {"current_trial": 217, "trialdata": {"rt": -1, "trial_type": "single-stim", "stimulus": "<p id=\"stim\">7</p>", "internal_node_id": "0.0-160.0-3.0", "time_elapsed": 1126569, "key_press": -1, "trial_index": 217}, "uniqueid": "MTK1594:3UJ1CZ6IZIW3CKRPF6O0NWMFHNH5SV", "dateTime": 1516044630986}, {"current_trial": 218, "trialdata": {"rt": -1, "trial_type": "single-stim", "stimulus": "<p id=\"stim\">6</p>", "internal_node_id": "0.0-160.0-4.0", "time_elapsed": 1127583, "key_press": -1, "trial_index": 218}, "uniqueid": "MTK1594:3UJ1CZ6IZIW3CKRPF6O0NWMFHNH5SV", "dateTime": 1516044632000}, {"current_trial": 219, "trialdata": {"rt": -1, "trial_type": "single-stim", "stimulus": "<p id=\"stim\">5</p>", "internal_node_id": "0.0-160.0-5.0", "time_elapsed": 1128589, "key_press": -1, "trial_index": 219}, "uniqueid": "MTK1594:3UJ1CZ6IZIW3CKRPF6O0NWMFHNH5SV", "dateTime": 1516044633008}, {"current_trial": 220, "trialdata": {"rt": -1, "trial_type": "single-stim", "stimulus": "<p id=\"stim\">4</p>", "internal_node_id": "0.0-160.0-6.0", "time_elapsed": 1129595, "key_press": -1, "trial_index": 220}, "uniqueid": "MTK1594:3UJ1CZ6IZIW3CKRPF6O0NWMFHNH5SV", "dateTime": 1516044634012}, {"current_trial": 221, "trialdata": {"rt": -1, "trial_type": "single-stim", "stimulus": "<p id=\"stim\">3</p>", "internal_node_id": "0.0-160.0-7.0", "time_elapsed": 1130598, "key_press": -1, "trial_index": 221}, "uniqueid": "MTK1594:3UJ1CZ6IZIW3CKRPF6O0NWMFHNH5SV", "dateTime": 1516044635015}, {"current_trial": 222, "trialdata": {"rt": -1, "trial_type": "single-stim", "stimulus": "<p id=\"stim\">2</p>", "internal_node_id": "0.0-160.0-8.0", "time_elapsed": 1131601, "key_press": -1, "trial_index": 222}, "uniqueid": "MTK1594:3UJ1CZ6IZIW3CKRPF6O0NWMFHNH5SV", "dateTime": 1516044636018}, {"current_trial": 223, "trialdata": {"rt": -1, "trial_type": "single-stim", "stimulus": "<p id=\"stim\">1</p>", "internal_node_id": "0.0-160.0-9.0", "time_elapsed": 1132607, "key_press": -1, "trial_index": 223}, "uniqueid": "MTK1594:3UJ1CZ6IZIW3CKRPF6O0NWMFHNH5SV", "dateTime": 1516044637024}, {"current_trial": 224, "trialdata": {"rt": -1, "trial_type": "single-stim", "stimulus": "<p id=\"stim\">+</p>", "internal_node_id": "0.0-161.0-0.0", "time_elapsed": 1134110, "key_press": -1, "type": "FIXATION", "trial_index": 224}, "uniqueid": "MTK1594:3UJ1CZ6IZIW3CKRPF6O0NWMFHNH5SV", "dateTime": 1516044638527}, {"current_trial": 225, "trialdata": {"rt": -1000, "trial_type": "single-audio", "word": "shelter", "stimulus": "/static/audio/wordpool/SHELTER.wav", "conditions": [12, 1600, "a", 12000], "internal_node_id": "0.0-162.0", "trial": 6, "time_elapsed": 1136596, "serialpos": 0, "key_press": -1, "wordID": 1281, "type": "PRES_AUD", "trial_index": 225}, "uniqueid": "MTK1594:3UJ1CZ6IZIW3CKRPF6O0NWMFHNH5SV", "dateTime": 1516044641014}, {"current_trial": 226, "trialdata": {"rt": -1000, "trial_type": "single-audio", "word": "donor", "stimulus": "/static/audio/wordpool/DONOR.wav", "conditions": [12, 1600, "a", 12000], "internal_node_id": "0.0-163.0", "trial": 6, "time_elapsed": 1139277, "serialpos": 1, "key_press": -1, "wordID": 484, "type": "PRES_AUD", "trial_index": 226}, "uniqueid": "MTK1594:3UJ1CZ6IZIW3CKRPF6O0NWMFHNH5SV", "dateTime": 1516044643694}, {"current_trial": 227, "trialdata": {"rt": -1000, "trial_type": "single-audio", "word": "smog", "stimulus": "/static/audio/wordpool/SMOG.wav", "conditions": [12, 1600, "a", 12000], "internal_node_id": "0.0-164.0", "trial": 6, "time_elapsed": 1142059, "serialpos": 2, "key_press": -1, "wordID": 1329, "type": "PRES_AUD", "trial_index": 227}, "uniqueid": "MTK1594:3UJ1CZ6IZIW3CKRPF6O0NWMFHNH5SV", "dateTime": 1516044646477}, {"current_trial": 228, "trialdata": {"rt": -1000, "trial_type": "single-audio", "word": "freckle", "stimulus": "/static/audio/wordpool/FRECKLE.wav", "conditions": [12, 1600, "a", 12000], "internal_node_id": "0.0-165.0", "trial": 6, "time_elapsed": 1144842, "serialpos": 3, "key_press": -1, "wordID": 601, "type": "PRES_AUD", "trial_index": 228}, "uniqueid": "MTK1594:3UJ1CZ6IZIW3CKRPF6O0NWMFHNH5SV", "dateTime": 1516044649260}, {"current_trial": 229, "trialdata": {"rt": -1000, "trial_type": "single-audio", "word": "doughnut", "stimulus": "/static/audio/wordpool/DOUGHNUT.wav", "conditions": [12, 1600, "a", 12000], "internal_node_id": "0.0-166.0", "trial": 6, "time_elapsed": 1147422, "serialpos": 4, "key_press": -1, "wordID": 489, "type": "PRES_AUD", "trial_index": 229}, "uniqueid": "MTK1594:3UJ1CZ6IZIW3CKRPF6O0NWMFHNH5SV", "dateTime": 1516044651839}, {"current_trial": 230, "trialdata": {"rt": -1000, "trial_type": "single-audio", "word": "termite", "stimulus": "/static/audio/wordpool/TERMITE.wav", "conditions": [12, 1600, "a", 12000], "internal_node_id": "0.0-167.0", "trial": 6, "time_elapsed": 1149914, "serialpos": 5, "key_press": -1, "wordID": 1450, "type": "PRES_AUD", "trial_index": 230}, "uniqueid": "MTK1594:3UJ1CZ6IZIW3CKRPF6O0NWMFHNH5SV", "dateTime": 1516044654331}, {"current_trial": 231, "trialdata": {"rt": -1000, "trial_type": "single-audio", "word": "human", "stimulus": "/static/audio/wordpool/HUMAN.wav", "conditions": [12, 1600, "a", 12000], "internal_node_id": "0.0-168.0", "trial": 6, "time_elapsed": 1152395, "serialpos": 6, "key_press": -1, "wordID": 725, "type": "PRES_AUD", "trial_index": 231}, "uniqueid": "MTK1594:3UJ1CZ6IZIW3CKRPF6O0NWMFHNH5SV", "dateTime": 1516044656812}, {"current_trial": 232, "trialdata": {"rt": -1000, "trial_type": "single-audio", "word": "kitchen", "stimulus": "/static/audio/wordpool/KITCHEN.wav", "conditions": [12, 1600, "a", 12000], "internal_node_id": "0.0-169.0", "trial": 6, "time_elapsed": 1155181, "serialpos": 7, "key_press": -1, "wordID": 777, "type": "PRES_AUD", "trial_index": 232}, "uniqueid": "MTK1594:3UJ1CZ6IZIW3CKRPF6O0NWMFHNH5SV", "dateTime": 1516044659598}, {"current_trial": 233, "trialdata": {"rt": -1000, "trial_type": "single-audio", "word": "cupboard", "stimulus": "/static/audio/wordpool/CUPBOARD.wav", "conditions": [12, 1600, "a", 12000], "internal_node_id": "0.0-170.0", "trial": 6, "time_elapsed": 1157947, "serialpos": 8, "key_press": -1, "wordID": 424, "type": "PRES_AUD", "trial_index": 233}, "uniqueid": "MTK1594:3UJ1CZ6IZIW3CKRPF6O0NWMFHNH5SV", "dateTime": 1516044662364}, {"current_trial": 234, "trialdata": {"rt": -1000, "trial_type": "single-audio", "word": "island", "stimulus": "/static/audio/wordpool/ISLAND.wav", "conditions": [12, 1600, "a", 12000], "internal_node_id": "0.0-171.0", "trial": 6, "time_elapsed": 1160656, "serialpos": 9, "key_press": -1, "wordID": 744, "type": "PRES_AUD", "trial_index": 234}, "uniqueid": "MTK1594:3UJ1CZ6IZIW3CKRPF6O0NWMFHNH5SV", "dateTime": 1516044665074}, {"current_trial": 235, "trialdata": {"rt": -1000, "trial_type": "single-audio", "word": "pecan", "stimulus": "/static/audio/wordpool/PECAN.wav", "conditions": [12, 1600, "a", 12000], "internal_node_id": "0.0-172.0", "trial": 6, "time_elapsed": 1163299, "serialpos": 10, "key_press": -1, "wordID": 1035, "type": "PRES_AUD", "trial_index": 235}, "uniqueid": "MTK1594:3UJ1CZ6IZIW3CKRPF6O0NWMFHNH5SV", "dateTime": 1516044667716}, {"current_trial": 236, "trialdata": {"rt": -1000, "trial_type": "single-audio", "word": "ozone", "stimulus": "/static/audio/wordpool/OZONE.wav", "conditions": [12, 1600, "a", 12000], "internal_node_id": "0.0-173.0", "trial": 6, "time_elapsed": 1165997, "serialpos": 11, "key_press": -1, "wordID": 995, "type": "PRES_AUD", "trial_index": 236}, "uniqueid": "MTK1594:3UJ1CZ6IZIW3CKRPF6O0NWMFHNH5SV", "dateTime": 1516044670415}, {"current_trial": 237, "trialdata": {"rt": -1, "trial_type": "single-stim", "stimulus": "", "internal_node_id": "0.0-174.0-0.0", "time_elapsed": 1167318, "key_press": -1, "type": "PRE_RECALL_DELAY", "trial_index": 237}, "uniqueid": "MTK1594:3UJ1CZ6IZIW3CKRPF6O0NWMFHNH5SV", "dateTime": 1516044671736}, {"current_trial": 238, "trialdata": {"rt": -1000, "trial_type": "single-audio", "stimulus": "/static/audio/400Hz.wav", "internal_node_id": "0.0-175.0", "time_elapsed": 1167821, "key_press": -1, "type": "PRE_RECALL_ALERT", "trial_index": 238}, "uniqueid": "MTK1594:3UJ1CZ6IZIW3CKRPF6O0NWMFHNH5SV", "dateTime": 1516044672238}, {"current_trial": 239, "trialdata": {"rt": [2280, 4136, 7760, 9824, 12584, 18016, 21140, 24381], "recwords": ["ozone", "pecan", "island", "kitchen", "cupboard", "doughnut", "human", "donor"], "key_times": [993, 1243, 1328, 1584, 1712, 2280, 2819, 2920, 3150, 3312, 3408, 4136, 4684, 4753, 4905, 5049, 5129, 5433, 7760, 8184, 8348, 8504, 8760, 8833, 9104, 9176, 9824, 10224, 10346, 10544, 10784, 10921, 11025, 11120, 11371, 12584, 16376, 16432, 16552, 16728, 16816, 17000, 17200, 17320, 18016, 20169, 20329, 20538, 20657, 20704, 21140, 23360, 23441, 23608, 23737, 23865, 24381], "trial_type": "free-recall", "conditions": [12, 1600, "a", 12000], "internal_node_id": "0.0-176.0-0.0", "key_presses": [79, 90, 79, 78, 69, 13, 80, 69, 67, 65, 78, 13, 73, 83, 76, 65, 78, 68, 13, 75, 73, 84, 67, 72, 69, 78, 13, 67, 85, 80, 66, 79, 65, 82, 68, 13, 68, 79, 85, 71, 72, 78, 85, 84, 13, 72, 85, 77, 65, 78, 13, 68, 79, 78, 79, 82, 13], "trial": 6, "time_elapsed": 1227827, "type": "FREE_RECALL", "trial_index": 239}, "uniqueid": "MTK1594:3UJ1CZ6IZIW3CKRPF6O0NWMFHNH5SV", "dateTime": 1516044732254}, {"current_trial": 240, "trialdata": {"rt": 1557, "trial_type": "text", "internal_node_id": "0.0-177.0", "time_elapsed": 1231395, "key_press": 32, "type": "INSTRUCTIONS", "trial_index": 240}, "uniqueid": "MTK1594:3UJ1CZ6IZIW3CKRPF6O0NWMFHNH5SV", "dateTime": 1516044735813}, {"current_trial": 241, "trialdata": {"rt": [3370, 10347, 13402, 15522, 16826, 18810, 20211], "trial_type": "math-distractor", "key_times": [2965, 3122, 3370, 9995, 10164, 10347, 12818, 13002, 13402, 15266, 15522, 16482, 16642, 16826, 18450, 18618, 18810, 19826, 19994, 20211], "responses": ["14", "21", "10", "6", "11", "15", "18"], "num2": [2, 8, 5, 2, 5, 5, 6, 2], "num3": [3, 9, 2, 1, 1, 2, 8, 7], "conditions": [24, 1600, "a", 24000], "internal_node_id": "0.0-178.0", "key_presses": [97, 100, 13, 98, 97, 13, 97, 96, 13, 102, 13, 97, 97, 13, 97, 101, 13, 97, 104, 13], "trial": 7, "time_elapsed": 1257401, "type": "DISTRACTOR", "trial_index": 241, "num1": [9, 3, 3, 3, 5, 8, 4, 6]}, "uniqueid": "MTK1594:3UJ1CZ6IZIW3CKRPF6O0NWMFHNH5SV", "dateTime": 1516044761818}, {"current_trial": 242, "trialdata": {"rt": -1, "trial_type": "single-stim", "stimulus": "<p id=\"stim\">10</p>", "internal_node_id": "0.0-179.0-0.0", "time_elapsed": 1260404, "key_press": -1, "trial_index": 242}, "uniqueid": "MTK1594:3UJ1CZ6IZIW3CKRPF6O0NWMFHNH5SV", "dateTime": 1516044764824}, {"current_trial": 243, "trialdata": {"rt": -1, "trial_type": "single-stim", "stimulus": "<p id=\"stim\">9</p>", "internal_node_id": "0.0-179.0-1.0", "time_elapsed": 1261410, "key_press": -1, "trial_index": 243}, "uniqueid": "MTK1594:3UJ1CZ6IZIW3CKRPF6O0NWMFHNH5SV", "dateTime": 1516044765827}, {"current_trial": 244, "trialdata": {"rt": -1, "trial_type": "single-stim", "stimulus": "<p id=\"stim\">8</p>", "internal_node_id": "0.0-179.0-2.0", "time_elapsed": 1262413, "key_press": -1, "trial_index": 244}, "uniqueid": "MTK1594:3UJ1CZ6IZIW3CKRPF6O0NWMFHNH5SV", "dateTime": 1516044766832}, {"current_trial": 245, "trialdata": {"rt": -1, "trial_type": "single-stim", "stimulus": "<p id=\"stim\">7</p>", "internal_node_id": "0.0-179.0-3.0", "time_elapsed": 1263416, "key_press": -1, "trial_index": 245}, "uniqueid": "MTK1594:3UJ1CZ6IZIW3CKRPF6O0NWMFHNH5SV", "dateTime": 1516044767833}, {"current_trial": 246, "trialdata": {"rt": -1, "trial_type": "single-stim", "stimulus": "<p id=\"stim\">6</p>", "internal_node_id": "0.0-179.0-4.0", "time_elapsed": 1264418, "key_press": -1, "trial_index": 246}, "uniqueid": "MTK1594:3UJ1CZ6IZIW3CKRPF6O0NWMFHNH5SV", "dateTime": 1516044768835}, {"current_trial": 247, "trialdata": {"rt": -1, "trial_type": "single-stim", "stimulus": "<p id=\"stim\">5</p>", "internal_node_id": "0.0-179.0-5.0", "time_elapsed": 1265424, "key_press": -1, "trial_index": 247}, "uniqueid": "MTK1594:3UJ1CZ6IZIW3CKRPF6O0NWMFHNH5SV", "dateTime": 1516044769841}, {"current_trial": 248, "trialdata": {"rt": -1, "trial_type": "single-stim", "stimulus": "<p id=\"stim\">4</p>", "internal_node_id": "0.0-179.0-6.0", "time_elapsed": 1266431, "key_press": -1, "trial_index": 248}, "uniqueid": "MTK1594:3UJ1CZ6IZIW3CKRPF6O0NWMFHNH5SV", "dateTime": 1516044770848}, {"current_trial": 249, "trialdata": {"rt": -1, "trial_type": "single-stim", "stimulus": "<p id=\"stim\">3</p>", "internal_node_id": "0.0-179.0-7.0", "time_elapsed": 1267433, "key_press": -1, "trial_index": 249}, "uniqueid": "MTK1594:3UJ1CZ6IZIW3CKRPF6O0NWMFHNH5SV", "dateTime": 1516044771850}, {"current_trial": 250, "trialdata": {"rt": -1, "trial_type": "single-stim", "stimulus": "<p id=\"stim\">2</p>", "internal_node_id": "0.0-179.0-8.0", "time_elapsed": 1268435, "key_press": -1, "trial_index": 250}, "uniqueid": "MTK1594:3UJ1CZ6IZIW3CKRPF6O0NWMFHNH5SV", "dateTime": 1516044772853}, {"current_trial": 251, "trialdata": {"rt": -1, "trial_type": "single-stim", "stimulus": "<p id=\"st