{"condition": 0, "counterbalance": 1342, "assignmentId": "3ERMJ6L4DZZF1TS3J27B9715DGGM7M", "workerId": "MTK1160", "hitId": "3OREP8RUT2I0OB1DVEGUCK7KL77GBQ", "currenttrial": 626, "bonus": 0, "data": [{"uniqueid": "MTK1160:3ERMJ6L4DZZF1TS3J27B9715DGGM7M", "current_trial": 0, "dateTime": 1513218843898, "trialdata": {"rt": 1933, "key_press": 32, "type": "INSTRUCTIONS", "trial_type": "text", "trial_index": 0, "time_elapsed": 1937, "internal_node_id": "0.0-0.0"}}, {"uniqueid": "MTK1160:3ERMJ6L4DZZF1TS3J27B9715DGGM7M", "current_trial": 1, "dateTime": 1513218845141, "trialdata": {"rt": 1240, "key_press": 32, "type": "INSTRUCTIONS", "trial_type": "text", "trial_index": 1, "time_elapsed": 3179, "internal_node_id": "0.0-1.0"}}, {"uniqueid": "MTK1160:3ERMJ6L4DZZF1TS3J27B9715DGGM7M", "current_trial": 2, "dateTime": 1513218854582, "trialdata": {"rt": [9433], "responses": ["ocean"], "type": "AUDIO_TEST", "trial_type": "audio-test", "trial_index": 2, "time_elapsed": 12621, "internal_node_id": "0.0-2.0"}}, {"uniqueid": "MTK1160:3ERMJ6L4DZZF1TS3J27B9715DGGM7M", "current_trial": 3, "dateTime": 1513218866319, "trialdata": {"rt": [11729], "responses": ["crystal"], "type": "AUDIO_TEST", "trial_type": "audio-test", "trial_index": 3, "time_elapsed": 24358, "internal_node_id": "0.0-3.0"}}, {"uniqueid": "MTK1160:3ERMJ6L4DZZF1TS3J27B9715DGGM7M", "current_trial": 4, "dateTime": 1513218878342, "trialdata": {"rt": [12017], "responses": ["spice"], "type": "AUDIO_TEST", "trial_type": "audio-test", "trial_index": 4, "time_elapsed": 36381, "internal_node_id": "0.0-4.0"}}, {"uniqueid": "MTK1160:3ERMJ6L4DZZF1TS3J27B9715DGGM7M", "current_trial": 5, "dateTime": 1513218916058, "trialdata": {"rt": 36940, "responses": "{\"Q0\":\"1 AM\",\"Q1\":\"8 AM\",\"Q2\":\"4\"}", "type": "SLEEP_SURVEY", "trial_type": "survey-text", "trial_index": 5, "time_elapsed": 74096, "internal_node_id": "0.0-5.0"}}, {"uniqueid": "MTK1160:3ERMJ6L4DZZF1TS3J27B9715DGGM7M", "current_trial": 6, "dateTime": 1513218970368, "trialdata": {"rt": 53309, "key_press": 32, "type": "INSTRUCTIONS", "trial_type": "text", "trial_index": 6, "time_elapsed": 128407, "internal_node_id": "0.0-6.0"}}, {"uniqueid": "MTK1160:3ERMJ6L4DZZF1TS3J27B9715DGGM7M", "current_trial": 7, "dateTime": 1513218985841, "trialdata": {"rt": 14972, "key_press": 32, "type": "INSTRUCTIONS", "trial_type": "text", "trial_index": 7, "time_elapsed": 143880, "internal_node_id": "0.0-7.0"}}, {"uniqueid": "MTK1160:3ERMJ6L4DZZF1TS3J27B9715DGGM7M", "current_trial": 8, "dateTime": 1513219000746, "trialdata": {"rt": 14404, "key_press": 32, "type": "INSTRUCTIONS", "trial_type": "text", "trial_index": 8, "time_elapsed": 158785, "internal_node_id": "0.0-8.0"}}, {"uniqueid": "MTK1160:3ERMJ6L4DZZF1TS3J27B9715DGGM7M", "current_trial": 9, "dateTime": 1513219019754, "trialdata": {"rt": [5145, 9112, 11578, 13969, 17609], "responses": ["14", "13", "13", "13", "21"], "num1": [2, 8, 8, 4, 9, 1], "num2": [5, 1, 4, 8, 5, 8], "num3": [7, 4, 1, 1, 7, 9], "type": "DISTRACTOR", "conditions": [18, 1200, "v", 18000], "trial": 0, "trial_type": "math-distractor", "trial_index": 9, "time_elapsed": 177792, "internal_node_id": "0.0-9.0"}}, {"uniqueid": "MTK1160:3ERMJ6L4DZZF1TS3J27B9715DGGM7M", "current_trial": 10, "dateTime": 1513219022755, "trialdata": {"rt": -1, "stimulus": "<p id=\"stim\">10</p>", "key_press": -1, "trial_type": "single-stim", "trial_index": 10, "time_elapsed": 180794, "internal_node_id": "0.0-10.0-0.0"}}, {"uniqueid": "MTK1160:3ERMJ6L4DZZF1TS3J27B9715DGGM7M", "current_trial": 11, "dateTime": 1513219023756, "trialdata": {"rt": -1, "stimulus": "<p id=\"stim\">9</p>", "key_press": -1, "trial_type": "single-stim", "trial_index": 11, "time_elapsed": 181795, "internal_node_id": "0.0-10.0-1.0"}}, {"uniqueid": "MTK1160:3ERMJ6L4DZZF1TS3J27B9715DGGM7M", "current_trial": 12, "dateTime": 1513219024757, "trialdata": {"rt": -1, "stimulus": "<p id=\"stim\">8</p>", "key_press": -1, "trial_type": "single-stim", "trial_index": 12, "time_elapsed": 182795, "internal_node_id": "0.0-10.0-2.0"}}, {"uniqueid": "MTK1160:3ERMJ6L4DZZF1TS3J27B9715DGGM7M", "current_trial": 13, "dateTime": 1513219025758, "trialdata": {"rt": -1, "stimulus": "<p id=\"stim\">7</p>", "key_press": -1, "trial_type": "single-stim", "trial_index": 13, "time_elapsed": 183796, "internal_node_id": "0.0-10.0-3.0"}}, {"uniqueid": "MTK1160:3ERMJ6L4DZZF1TS3J27B9715DGGM7M", "current_trial": 14, "dateTime": 1513219026759, "trialdata": {"rt": -1, "stimulus": "<p id=\"stim\">6</p>", "key_press": -1, "trial_type": "single-stim", "trial_index": 14, "time_elapsed": 184797, "internal_node_id": "0.0-10.0-4.0"}}, {"uniqueid": "MTK1160:3ERMJ6L4DZZF1TS3J27B9715DGGM7M", "current_trial": 15, "dateTime": 1513219027760, "trialdata": {"rt": -1, "stimulus": "<p id=\"stim\">5</p>", "key_press": -1, "trial_type": "single-stim", "trial_index": 15, "time_elapsed": 185798, "internal_node_id": "0.0-10.0-5.0"}}, {"uniqueid": "MTK1160:3ERMJ6L4DZZF1TS3J27B9715DGGM7M", "current_trial": 16, "dateTime": 1513219028761, "trialdata": {"rt": -1, "stimulus": "<p id=\"stim\">4</p>", "key_press": -1, "trial_type": "single-stim", "trial_index": 16, "time_elapsed": 186800, "internal_node_id": "0.0-10.0-6.0"}}, {"uniqueid": "MTK1160:3ERMJ6L4DZZF1TS3J27B9715DGGM7M", "current_trial": 17, "dateTime": 1513219029762, "trialdata": {"rt": -1, "stimulus": "<p id=\"stim\">3</p>", "key_press": -1, "trial_type": "single-stim", "trial_index": 17, "time_elapsed": 187801, "internal_node_id": "0.0-10.0-7.0"}}, {"uniqueid": "MTK1160:3ERMJ6L4DZZF1TS3J27B9715DGGM7M", "current_trial": 18, "dateTime": 1513219030762, "trialdata": {"rt": -1, "stimulus": "<p id=\"stim\">2</p>", "key_press": -1, "trial_type": "single-stim", "trial_index": 18, "time_elapsed": 188801, "internal_node_id": "0.0-10.0-8.0"}}, {"uniqueid": "MTK1160:3ERMJ6L4DZZF1TS3J27B9715DGGM7M", "current_trial": 19, "dateTime": 1513219031763, "trialdata": {"rt": -1, "stimulus": "<p id=\"stim\">1</p>", "key_press": -1, "trial_type": "single-stim", "trial_index": 19, "time_elapsed": 189802, "internal_node_id": "0.0-10.0-9.0"}}, {"uniqueid": "MTK1160:3ERMJ6L4DZZF1TS3J27B9715DGGM7M", "current_trial": 20, "dateTime": 1513219033264, "trialdata": {"rt": -1, "stimulus": "<p id=\"stim\">+</p>", "key_press": -1, "type": "FIXATION", "trial_type": "single-stim", "trial_index": 20, "time_elapsed": 191303, "internal_node_id": "0.0-11.0-0.0"}}, {"uniqueid": "MTK1160:3ERMJ6L4DZZF1TS3J27B9715DGGM7M", "current_trial": 21, "dateTime": 1513219034465, "trialdata": {"rt": -1, "stimulus": "<p id=\"stim\">RIVER</p>", "key_press": -1, "type": "PRES_VIS", "word": "river", "wordID": 1193, "conditions": [18, 1200, "v", 18000], "trial": 0, "serialpos": 0, "trial_type": "single-stim", "trial_index": 21, "time_elapsed": 192504, "internal_node_id": "0.0-12.0"}}, {"uniqueid": "MTK1160:3ERMJ6L4DZZF1TS3J27B9715DGGM7M", "current_trial": 22, "dateTime": 1513219036866, "trialdata": {"rt": -1, "stimulus": "<p id=\"stim\">PECAN</p>", "key_press": -1, "type": "PRES_VIS", "word": "pecan", "wordID": 1035, "conditions": [18, 1200, "v", 18000], "trial": 0, "serialpos": 1, "trial_type": "single-stim", "trial_index": 22, "time_elapsed": 194904, "internal_node_id": "0.0-13.0"}}, {"uniqueid": "MTK1160:3ERMJ6L4DZZF1TS3J27B9715DGGM7M", "current_trial": 23, "dateTime": 1513219039109, "trialdata": {"rt": -1, "stimulus": "<p id=\"stim\">COCOON</p>", "key_press": -1, "type": "PRES_VIS", "word": "cocoon", "wordID": 338, "conditions": [18, 1200, "v", 18000], "trial": 0, "serialpos": 2, "trial_type": "single-stim", "trial_index": 23, "time_elapsed": 197147, "internal_node_id": "0.0-14.0"}}, {"uniqueid": "MTK1160:3ERMJ6L4DZZF1TS3J27B9715DGGM7M", "current_trial": 24, "dateTime": 1513219041436, "trialdata": {"rt": -1, "stimulus": "<p id=\"stim\">OUTDOORS</p>", "key_press": -1, "type": "PRES_VIS", "word": "outdoors", "wordID": 986, "conditions": [18, 1200, "v", 18000], "trial": 0, "serialpos": 3, "trial_type": "single-stim", "trial_index": 24, "time_elapsed": 199475, "internal_node_id": "0.0-15.0"}}, {"uniqueid": "MTK1160:3ERMJ6L4DZZF1TS3J27B9715DGGM7M", "current_trial": 25, "dateTime": 1513219043719, "trialdata": {"rt": -1, "stimulus": "<p id=\"stim\">TART</p>", "key_press": -1, "type": "PRES_VIS", "word": "tart", "wordID": 1435, "conditions": [18, 1200, "v", 18000], "trial": 0, "serialpos": 4, "trial_type": "single-stim", "trial_index": 25, "time_elapsed": 201757, "internal_node_id": "0.0-16.0"}}, {"uniqueid": "MTK1160:3ERMJ6L4DZZF1TS3J27B9715DGGM7M", "current_trial": 26, "dateTime": 1513219045768, "trialdata": {"rt": -1, "stimulus": "<p id=\"stim\">ROD</p>", "key_press": -1, "type": "PRES_VIS", "word": "rod", "wordID": 1202, "conditions": [18, 1200, "v", 18000], "trial": 0, "serialpos": 5, "trial_type": "single-stim", "trial_index": 26, "time_elapsed": 203807, "internal_node_id": "0.0-17.0"}}, {"uniqueid": "MTK1160:3ERMJ6L4DZZF1TS3J27B9715DGGM7M", "current_trial": 27, "dateTime": 1513219047844, "trialdata": {"rt": -1, "stimulus": "<p id=\"stim\">BLADE</p>", "key_press": -1, "type": "PRES_VIS", "word": "blade", "wordID": 133, "conditions": [18, 1200, "v", 18000], "trial": 0, "serialpos": 6, "trial_type": "single-stim", "trial_index": 27, "time_elapsed": 205883, "internal_node_id": "0.0-18.0"}}, {"uniqueid": "MTK1160:3ERMJ6L4DZZF1TS3J27B9715DGGM7M", "current_trial": 28, "dateTime": 1513219050148, "trialdata": {"rt": -1, "stimulus": "<p id=\"stim\">PLAZA</p>", "key_press": -1, "type": "PRES_VIS", "word": "plaza", "wordID": 1087, "conditions": [18, 1200, "v", 18000], "trial": 0, "serialpos": 7, "trial_type": "single-stim", "trial_index": 28, "time_elapsed": 208187, "internal_node_id": "0.0-19.0"}}, {"uniqueid": "MTK1160:3ERMJ6L4DZZF1TS3J27B9715DGGM7M", "current_trial": 29, "dateTime": 1513219052197, "trialdata": {"rt": -1, "stimulus": "<p id=\"stim\">STALLION</p>", "key_press": -1, "type": "PRES_VIS", "word": "stallion", "wordID": 1368, "conditions": [18, 1200, "v", 18000], "trial": 0, "serialpos": 8, "trial_type": "single-stim", "trial_index": 29, "time_elapsed": 210236, "internal_node_id": "0.0-20.0"}}, {"uniqueid": "MTK1160:3ERMJ6L4DZZF1TS3J27B9715DGGM7M", "current_trial": 30, "dateTime": 1513219054417, "trialdata": {"rt": -1, "stimulus": "<p id=\"stim\">HIGHWAY</p>", "key_press": -1, "type": "PRES_VIS", "word": "highway", "wordID": 706, "conditions": [18, 1200, "v", 18000], "trial": 0, "serialpos": 9, "trial_type": "single-stim", "trial_index": 30, "time_elapsed": 212456, "internal_node_id": "0.0-21.0"}}, {"uniqueid": "MTK1160:3ERMJ6L4DZZF1TS3J27B9715DGGM7M", "current_trial": 31, "dateTime": 1513219056501, "trialdata": {"rt": -1, "stimulus": "<p id=\"stim\">PARENT</p>", "key_press": -1, "type": "PRES_VIS", "word": "parent", "wordID": 1012, "conditions": [18, 1200, "v", 18000], "trial": 0, "serialpos": 10, "trial_type": "single-stim", "trial_index": 31, "time_elapsed": 214540, "internal_node_id": "0.0-22.0"}}, {"uniqueid": "MTK1160:3ERMJ6L4DZZF1TS3J27B9715DGGM7M", "current_trial": 32, "dateTime": 1513219058529, "trialdata": {"rt": -1, "stimulus": "<p id=\"stim\">GRILL</p>", "key_press": -1, "type": "PRES_VIS", "word": "grill", "wordID": 660, "conditions": [18, 1200, "v", 18000], "trial": 0, "serialpos": 11, "trial_type": "single-stim", "trial_index": 32, "time_elapsed": 216568, "internal_node_id": "0.0-23.0"}}, {"uniqueid": "MTK1160:3ERMJ6L4DZZF1TS3J27B9715DGGM7M", "current_trial": 33, "dateTime": 1513219060809, "trialdata": {"rt": -1, "stimulus": "<p id=\"stim\">DRESS</p>", "key_press": -1, "type": "PRES_VIS", "word": "dress", "wordID": 494, "conditions": [18, 1200, "v", 18000], "trial": 0, "serialpos": 12, "trial_type": "single-stim", "trial_index": 33, "time_elapsed": 218848, "internal_node_id": "0.0-24.0"}}, {"uniqueid": "MTK1160:3ERMJ6L4DZZF1TS3J27B9715DGGM7M", "current_trial": 34, "dateTime": 1513219063065, "trialdata": {"rt": -1, "stimulus": "<p id=\"stim\">COUSIN</p>", "key_press": -1, "type": "PRES_VIS", "word": "cousin", "wordID": 391, "conditions": [18, 1200, "v", 18000], "trial": 0, "serialpos": 13, "trial_type": "single-stim", "trial_index": 34, "time_elapsed": 221104, "internal_node_id": "0.0-25.0"}}, {"uniqueid": "MTK1160:3ERMJ6L4DZZF1TS3J27B9715DGGM7M", "current_trial": 35, "dateTime": 1513219065443, "trialdata": {"rt": -1, "stimulus": "<p id=\"stim\">SHERIFF</p>", "key_press": -1, "type": "PRES_VIS", "word": "sheriff", "wordID": 1283, "conditions": [18, 1200, "v", 18000], "trial": 0, "serialpos": 14, "trial_type": "single-stim", "trial_index": 35, "time_elapsed": 223481, "internal_node_id": "0.0-26.0"}}, {"uniqueid": "MTK1160:3ERMJ6L4DZZF1TS3J27B9715DGGM7M", "current_trial": 36, "dateTime": 1513219067767, "trialdata": {"rt": -1, "stimulus": "<p id=\"stim\">SEAGULL</p>", "key_press": -1, "type": "PRES_VIS", "word": "seagull", "wordID": 1260, "conditions": [18, 1200, "v", 18000], "trial": 0, "serialpos": 15, "trial_type": "single-stim", "trial_index": 36, "time_elapsed": 225806, "internal_node_id": "0.0-27.0"}}, {"uniqueid": "MTK1160:3ERMJ6L4DZZF1TS3J27B9715DGGM7M", "current_trial": 37, "dateTime": 1513219070039, "trialdata": {"rt": -1, "stimulus": "<p id=\"stim\">BACON</p>", "key_press": -1, "type": "PRES_VIS", "word": "bacon", "wordID": 66, "conditions": [18, 1200, "v", 18000], "trial": 0, "serialpos": 16, "trial_type": "single-stim", "trial_index": 37, "time_elapsed": 228078, "internal_node_id": "0.0-28.0"}}, {"uniqueid": "MTK1160:3ERMJ6L4DZZF1TS3J27B9715DGGM7M", "current_trial": 38, "dateTime": 1513219072295, "trialdata": {"rt": -1, "stimulus": "<p id=\"stim\">CAMEL</p>", "key_press": -1, "type": "PRES_VIS", "word": "camel", "wordID": 222, "conditions": [18, 1200, "v", 18000], "trial": 0, "serialpos": 17, "trial_type": "single-stim", "trial_index": 38, "time_elapsed": 230333, "internal_node_id": "0.0-29.0"}}, {"uniqueid": "MTK1160:3ERMJ6L4DZZF1TS3J27B9715DGGM7M", "current_trial": 39, "dateTime": 1513219074598, "trialdata": {"rt": -1, "stimulus": "", "key_press": -1, "type": "PRE_RECALL_DELAY", "trial_type": "single-stim", "trial_index": 39, "time_elapsed": 232636, "internal_node_id": "0.0-30.0-0.0"}}, {"uniqueid": "MTK1160:3ERMJ6L4DZZF1TS3J27B9715DGGM7M", "current_trial": 40, "dateTime": 1513219075100, "trialdata": {"rt": -1000, "stimulus": "/static/audio/400Hz.wav", "key_press": -1, "type": "PRE_RECALL_ALERT", "trial_type": "single-audio", "trial_index": 40, "time_elapsed": 233138, "internal_node_id": "0.0-31.0"}}, {"uniqueid": "MTK1160:3ERMJ6L4DZZF1TS3J27B9715DGGM7M", "current_trial": 41, "dateTime": 1513219135105, "trialdata": {"rt": [8071, 11167, 15399, 23440, 23615, 32041, 33999, 43256], "recwords": ["river", "pecan", "coocon", "sta", "", "stallion", "rod", "sheriff"], "type": "FREE_RECALL", "conditions": [18, 1200, "v", 18000], "trial": 0, "trial_type": "free-recall", "trial_index": 41, "time_elapsed": 293141, "internal_node_id": "0.0-32.0-0.0"}}, {"uniqueid": "MTK1160:3ERMJ6L4DZZF1TS3J27B9715DGGM7M", "current_trial": 42, "dateTime": 1513219139006, "trialdata": {"rt": 1900, "key_press": 32, "type": "INSTRUCTIONS", "trial_type": "text", "trial_index": 42, "time_elapsed": 297045, "internal_node_id": "0.0-33.0"}}, {"uniqueid": "MTK1160:3ERMJ6L4DZZF1TS3J27B9715DGGM7M", "current_trial": 43, "dateTime": 1513219159039, "trialdata": {"rt": [4430, 7662, 10247, 13119, 15167, 17559], "responses": ["19", "14", "14", "22", "14", "24"], "num1": [9, 4, 8, 9, 4, 9, 1], "num2": [9, 4, 2, 4, 5, 8, 6], "num3": [1, 6, 4, 9, 5, 7, 5], "type": "DISTRACTOR", "conditions": [18, 1200, "a", 18000], "trial": 1, "trial_type": "math-distractor", "trial_index": 43, "time_elapsed": 317078, "internal_node_id": "0.0-34.0"}}, {"uniqueid": "MTK1160:3ERMJ6L4DZZF1TS3J27B9715DGGM7M", "current_trial": 44, "dateTime": 1513219162039, "trialdata": {"rt": -1, "stimulus": "<p id=\"stim\">10</p>", "key_press": -1, "trial_type": "single-stim", "trial_index": 44, "time_elapsed": 320078, "internal_node_id": "0.0-35.0-0.0"}}, {"uniqueid": "MTK1160:3ERMJ6L4DZZF1TS3J27B9715DGGM7M", "current_trial": 45, "dateTime": 1513219163041, "trialdata": {"rt": -1, "stimulus": "<p id=\"stim\">9</p>", "key_press": -1, "trial_type": "single-stim", "trial_index": 45, "time_elapsed": 321079, "internal_node_id": "0.0-35.0-1.0"}}, {"uniqueid": "MTK1160:3ERMJ6L4DZZF1TS3J27B9715DGGM7M", "current_trial": 46, "dateTime": 1513219164042, "trialdata": {"rt": -1, "stimulus": "<p id=\"stim\">8</p>", "key_press": -1, "trial_type": "single-stim", "trial_index": 46, "time_elapsed": 322080, "internal_node_id": "0.0-35.0-2.0"}}, {"uniqueid": "MTK1160:3ERMJ6L4DZZF1TS3J27B9715DGGM7M", "current_trial": 47, "dateTime": 1513219165042, "trialdata": {"rt": -1, "stimulus": "<p id=\"stim\">7</p>", "key_press": -1, "trial_type": "single-stim", "trial_index": 47, "time_elapsed": 323081, "internal_node_id": "0.0-35.0-3.0"}}, {"uniqueid": "MTK1160:3ERMJ6L4DZZF1TS3J27B9715DGGM7M", "current_trial": 48, "dateTime": 1513219166043, "trialdata": {"rt": -1, "stimulus": "<p id=\"stim\">6</p>", "key_press": -1, "trial_type": "single-stim", "trial_index": 48, "time_elapsed": 324082, "internal_node_id": "0.0-35.0-4.0"}}, {"uniqueid": "MTK1160:3ERMJ6L4DZZF1TS3J27B9715DGGM7M", "current_trial": 49, "dateTime": 1513219167044, "trialdata": {"rt": -1, "stimulus": "<p id=\"stim\">5</p>", "key_press": -1, "trial_type": "single-stim", "trial_index": 49, "time_elapsed": 325083, "internal_node_id": "0.0-35.0-5.0"}}, {"uniqueid": "MTK1160:3ERMJ6L4DZZF1TS3J27B9715DGGM7M", "current_trial": 50, "dateTime": 1513219168045, "trialdata": {"rt": -1, "stimulus": "<p id=\"stim\">4</p>", "key_press": -1, "trial_type": "single-stim", "trial_index": 50, "time_elapsed": 326084, "internal_node_id": "0.0-35.0-6.0"}}, {"uniqueid": "MTK1160:3ERMJ6L4DZZF1TS3J27B9715DGGM7M", "current_trial": 51, "dateTime": 1513219169056, "trialdata": {"rt": -1, "stimulus": "<p id=\"stim\">3</p>", "key_press": -1, "trial_type": "single-stim", "trial_index": 51, "time_elapsed": 327095, "internal_node_id": "0.0-35.0-7.0"}}, {"uniqueid": "MTK1160:3ERMJ6L4DZZF1TS3J27B9715DGGM7M", "current_trial": 52, "dateTime": 1513219170057, "trialdata": {"rt": -1, "stimulus": "<p id=\"stim\">2</p>", "key_press": -1, "trial_type": "single-stim", "trial_index": 52, "time_elapsed": 328095, "internal_node_id": "0.0-35.0-8.0"}}, {"uniqueid": "MTK1160:3ERMJ6L4DZZF1TS3J27B9715DGGM7M", "current_trial": 53, "dateTime": 1513219171057, "trialdata": {"rt": -1, "stimulus": "<p id=\"stim\">1</p>", "key_press": -1, "trial_type": "single-stim", "trial_index": 53, "time_elapsed": 329096, "internal_node_id": "0.0-35.0-9.0"}}, {"uniqueid": "MTK1160:3ERMJ6L4DZZF1TS3J27B9715DGGM7M", "current_trial": 54, "dateTime": 1513219172558, "trialdata": {"rt": -1, "stimulus": "<p id=\"stim\">+</p>", "key_press": -1, "type": "FIXATION", "trial_type": "single-stim", "trial_index": 54, "time_elapsed": 330597, "internal_node_id": "0.0-36.0-0.0"}}, {"uniqueid": "MTK1160:3ERMJ6L4DZZF1TS3J27B9715DGGM7M", "current_trial": 55, "dateTime": 1513219174624, "trialdata": {"rt": -1000, "stimulus": "/static/audio/wordpool/WRENCH.wav", "key_press": -1, "type": "PRES_AUD", "word": "wrench", "wordID": 1624, "conditions": [18, 1200, "a", 18000], "trial": 1, "serialpos": 0, "trial_type": "single-audio", "trial_index": 55, "time_elapsed": 332662, "internal_node_id": "0.0-37.0"}}, {"uniqueid": "MTK1160:3ERMJ6L4DZZF1TS3J27B9715DGGM7M", "current_trial": 56, "dateTime": 1513219176733, "trialdata": {"rt": -1000, "stimulus": "/static/audio/wordpool/LAKE.wav", "key_press": -1, "type": "PRES_AUD", "word": "lake", "wordID": 795, "conditions": [18, 1200, "a", 18000], "trial": 1, "serialpos": 1, "trial_type": "single-audio", "trial_index": 56, "time_elapsed": 334771, "internal_node_id": "0.0-38.0"}}, {"uniqueid": "MTK1160:3ERMJ6L4DZZF1TS3J27B9715DGGM7M", "current_trial": 57, "dateTime": 1513219178924, "trialdata": {"rt": -1000, "stimulus": "/static/audio/wordpool/TURTLE.wav", "key_press": -1, "type": "PRES_AUD", "word": "turtle", "wordID": 1521, "conditions": [18, 1200, "a", 18000], "trial": 1, "serialpos": 2, "trial_type": "single-audio", "trial_index": 57, "time_elapsed": 336963, "internal_node_id": "0.0-39.0"}}, {"uniqueid": "MTK1160:3ERMJ6L4DZZF1TS3J27B9715DGGM7M", "current_trial": 58, "dateTime": 1513219181140, "trialdata": {"rt": -1000, "stimulus": "/static/audio/wordpool/THIEF.wav", "key_press": -1, "type": "PRES_AUD", "word": "thief", "wordID": 1455, "conditions": [18, 1200, "a", 18000], "trial": 1, "serialpos": 3, "trial_type": "single-audio", "trial_index": 58, "time_elapsed": 339179, "internal_node_id": "0.0-40.0"}}, {"uniqueid": "MTK1160:3ERMJ6L4DZZF1TS3J27B9715DGGM7M", "current_trial": 59, "dateTime": 1513219183169, "trialdata": {"rt": -1000, "stimulus": "/static/audio/wordpool/HEADBAND.wav", "key_press": -1, "type": "PRES_AUD", "word": "headband", "wordID": 695, "conditions": [18, 1200, "a", 18000], "trial": 1, "serialpos": 4, "trial_type": "single-audio", "trial_index": 59, "time_elapsed": 341208, "internal_node_id": "0.0-41.0"}}, {"uniqueid": "MTK1160:3ERMJ6L4DZZF1TS3J27B9715DGGM7M", "current_trial": 60, "dateTime": 1513219185345, "trialdata": {"rt": -1000, "stimulus": "/static/audio/wordpool/STOVE.wav", "key_press": -1, "type": "PRES_AUD", "word": "stove", "wordID": 1387, "conditions": [18, 1200, "a", 18000], "trial": 1, "serialpos": 5, "trial_type": "single-audio", "trial_index": 60, "time_elapsed": 343384, "internal_node_id": "0.0-42.0"}}, {"uniqueid": "MTK1160:3ERMJ6L4DZZF1TS3J27B9715DGGM7M", "current_trial": 61, "dateTime": 1513219187659, "trialdata": {"rt": -1000, "stimulus": "/static/audio/wordpool/SLUG.wav", "key_press": -1, "type": "PRES_AUD", "word": "slug", "wordID": 1328, "conditions": [18, 1200, "a", 18000], "trial": 1, "serialpos": 6, "trial_type": "single-audio", "trial_index": 61, "time_elapsed": 345698, "internal_node_id": "0.0-43.0"}}, {"uniqueid": "MTK1160:3ERMJ6L4DZZF1TS3J27B9715DGGM7M", "current_trial": 62, "dateTime": 1513219190035, "trialdata": {"rt": -1000, "stimulus": "/static/audio/wordpool/PADDING.wav", "key_press": -1, "type": "PRES_AUD", "word": "padding", "wordID": 998, "conditions": [18, 1200, "a", 18000], "trial": 1, "serialpos": 7, "trial_type": "single-audio", "trial_index": 62, "time_elapsed": 348074, "internal_node_id": "0.0-44.0"}}, {"uniqueid": "MTK1160:3ERMJ6L4DZZF1TS3J27B9715DGGM7M", "current_trial": 63, "dateTime": 1513219192411, "trialdata": {"rt": -1000, "stimulus": "/static/audio/wordpool/PARSLEY.wav", "key_press": -1, "type": "PRES_AUD", "word": "parsley", "wordID": 1015, "conditions": [18, 1200, "a", 18000], "trial": 1, "serialpos": 8, "trial_type": "single-audio", "trial_index": 63, "time_elapsed": 350450, "internal_node_id": "0.0-45.0"}}, {"uniqueid": "MTK1160:3ERMJ6L4DZZF1TS3J27B9715DGGM7M", "current_trial": 64, "dateTime": 1513219194491, "trialdata": {"rt": -1000, "stimulus": "/static/audio/wordpool/FOX.wav", "key_press": -1, "type": "PRES_AUD", "word": "fox", "wordID": 597, "conditions": [18, 1200, "a", 18000], "trial": 1, "serialpos": 9, "trial_type": "single-audio", "trial_index": 64, "time_elapsed": 352529, "internal_node_id": "0.0-46.0"}}, {"uniqueid": "MTK1160:3ERMJ6L4DZZF1TS3J27B9715DGGM7M", "current_trial": 65, "dateTime": 1513219196829, "trialdata": {"rt": -1000, "stimulus": "/static/audio/wordpool/LADY.wav", "key_press": -1, "type": "PRES_AUD", "word": "lady", "wordID": 793, "conditions": [18, 1200, "a", 18000], "trial": 1, "serialpos": 10, "trial_type": "single-audio", "trial_index": 65, "time_elapsed": 354868, "internal_node_id": "0.0-47.0"}}, {"uniqueid": "MTK1160:3ERMJ6L4DZZF1TS3J27B9715DGGM7M", "current_trial": 66, "dateTime": 1513219198987, "trialdata": {"rt": -1000, "stimulus": "/static/audio/wordpool/GAZELLE.wav", "key_press": -1, "type": "PRES_AUD", "word": "gazelle", "wordID": 627, "conditions": [18, 1200, "a", 18000], "trial": 1, "serialpos": 11, "trial_type": "single-audio", "trial_index": 66, "time_elapsed": 357026, "internal_node_id": "0.0-48.0"}}, {"uniqueid": "MTK1160:3ERMJ6L4DZZF1TS3J27B9715DGGM7M", "current_trial": 67, "dateTime": 1513219201166, "trialdata": {"rt": -1000, "stimulus": "/static/audio/wordpool/SCOTCH.wav", "key_press": -1, "type": "PRES_AUD", "word": "scotch", "wordID": 1250, "conditions": [18, 1200, "a", 18000], "trial": 1, "serialpos": 12, "trial_type": "single-audio", "trial_index": 67, "time_elapsed": 359205, "internal_node_id": "0.0-49.0"}}, {"uniqueid": "MTK1160:3ERMJ6L4DZZF1TS3J27B9715DGGM7M", "current_trial": 68, "dateTime": 1513219203396, "trialdata": {"rt": -1000, "stimulus": "/static/audio/wordpool/WASHER.wav", "key_press": -1, "type": "PRES_AUD", "word": "washer", "wordID": 1591, "conditions": [18, 1200, "a", 18000], "trial": 1, "serialpos": 13, "trial_type": "single-audio", "trial_index": 68, "time_elapsed": 361435, "internal_node_id": "0.0-50.0"}}, {"uniqueid": "MTK1160:3ERMJ6L4DZZF1TS3J27B9715DGGM7M", "current_trial": 69, "dateTime": 1513219205595, "trialdata": {"rt": -1000, "stimulus": "/static/audio/wordpool/MAPLE.wav", "key_press": -1, "type": "PRES_AUD", "word": "maple", "wordID": 865, "conditions": [18, 1200, "a", 18000], "trial": 1, "serialpos": 14, "trial_type": "single-audio", "trial_index": 69, "time_elapsed": 363634, "internal_node_id": "0.0-51.0"}}, {"uniqueid": "MTK1160:3ERMJ6L4DZZF1TS3J27B9715DGGM7M", "current_trial": 70, "dateTime": 1513219207800, "trialdata": {"rt": -1000, "stimulus": "/static/audio/wordpool/RIFLE.wav", "key_press": -1, "type": "PRES_AUD", "word": "rifle", "wordID": 1191, "conditions": [18, 1200, "a", 18000], "trial": 1, "serialpos": 15, "trial_type": "single-audio", "trial_index": 70, "time_elapsed": 365839, "internal_node_id": "0.0-52.0"}}, {"uniqueid": "MTK1160:3ERMJ6L4DZZF1TS3J27B9715DGGM7M", "current_trial": 71, "dateTime": 1513219209876, "trialdata": {"rt": -1000, "stimulus": "/static/audio/wordpool/FLIPPER.wav", "key_press": -1, "type": "PRES_AUD", "word": "flipper", "wordID": 579, "conditions": [18, 1200, "a", 18000], "trial": 1, "serialpos": 16, "trial_type": "single-audio", "trial_index": 71, "time_elapsed": 367915, "internal_node_id": "0.0-53.0"}}, {"uniqueid": "MTK1160:3ERMJ6L4DZZF1TS3J27B9715DGGM7M", "current_trial": 72, "dateTime": 1513219211885, "trialdata": {"rt": -1000, "stimulus": "/static/audio/wordpool/SALAD.wav", "key_press": -1, "type": "PRES_AUD", "word": "salad", "wordID": 1223, "conditions": [18, 1200, "a", 18000], "trial": 1, "serialpos": 17, "trial_type": "single-audio", "trial_index": 72, "time_elapsed": 369924, "internal_node_id": "0.0-54.0"}}, {"uniqueid": "MTK1160:3ERMJ6L4DZZF1TS3J27B9715DGGM7M", "current_trial": 73, "dateTime": 1513219213121, "trialdata": {"rt": -1, "stimulus": "", "key_press": -1, "type": "PRE_RECALL_DELAY", "trial_type": "single-stim", "trial_index": 73, "time_elapsed": 371159, "internal_node_id": "0.0-55.0-0.0"}}, {"uniqueid": "MTK1160:3ERMJ6L4DZZF1TS3J27B9715DGGM7M", "current_trial": 74, "dateTime": 1513219213621, "trialdata": {"rt": -1000, "stimulus": "/static/audio/400Hz.wav", "key_press": -1, "type": "PRE_RECALL_ALERT", "trial_type": "single-audio", "trial_index": 74, "time_elapsed": 371660, "internal_node_id": "0.0-56.0"}}, {"uniqueid": "MTK1160:3ERMJ6L4DZZF1TS3J27B9715DGGM7M", "current_trial": 75, "dateTime": 1513219273627, "trialdata": {"rt": [3809, 8491, 13986, 33234, 38890, 43723, 47707, 49627], "recwords": ["salad", "flipper", "rifle", "parsle", "stove", "wrench", "lady", "fox"], "type": "FREE_RECALL", "conditions": [18, 1200, "a", 18000], "trial": 1, "trial_type": "free-recall", "trial_index": 75, "time_elapsed": 431664, "internal_node_id": "0.0-57.0-0.0"}}, {"uniqueid": "MTK1160:3ERMJ6L4DZZF1TS3J27B9715DGGM7M", "current_trial": 76, "dateTime": 1513219277553, "trialdata": {"rt": 1919, "key_press": 32, "type": "INSTRUCTIONS", "trial_type": "text", "trial_index": 76, "time_elapsed": 435587, "internal_node_id": "0.0-58.0"}}, {"uniqueid": "MTK1160:3ERMJ6L4DZZF1TS3J27B9715DGGM7M", "current_trial": 77, "dateTime": 1513219290556, "trialdata": {"rt": [2976, 4968, 6968, 9552, 11641], "responses": ["19", "9", "15", "12", "25"], "num1": [6, 4, 1, 6, 9, 7], "num2": [9, 4, 7, 4, 9, 8], "num3": [4, 1, 7, 2, 7, 1], "type": "DISTRACTOR", "conditions": [12, 1600, "v", 12000], "trial": 2, "trial_type": "math-distractor", "trial_index": 77, "time_elapsed": 448595, "internal_node_id": "0.0-59.0"}}, {"uniqueid": "MTK1160:3ERMJ6L4DZZF1TS3J27B9715DGGM7M", "current_trial": 78, "dateTime": 1513219293557, "trialdata": {"rt": -1, "stimulus": "<p id=\"stim\">10</p>", "key_press": -1, "trial_type": "single-stim", "trial_index": 78, "time_elapsed": 451595, "internal_node_id": "0.0-60.0-0.0"}}, {"uniqueid": "MTK1160:3ERMJ6L4DZZF1TS3J27B9715DGGM7M", "current_trial": 79, "dateTime": 1513219294558, "trialdata": {"rt": -1, "stimulus": "<p id=\"stim\">9</p>", "key_press": -1, "trial_type": "single-stim", "trial_index": 79, "time_elapsed": 452596, "internal_node_id": "0.0-60.0-1.0"}}, {"uniqueid": "MTK1160:3ERMJ6L4DZZF1TS3J27B9715DGGM7M", "current_trial": 80, "dateTime": 1513219295559, "trialdata": {"rt": -1, "stimulus": "<p id=\"stim\">8</p>", "key_press": -1, "trial_type": "single-stim", "trial_index": 80, "time_elapsed": 453597, "internal_node_id": "0.0-60.0-2.0"}}, {"uniqueid": "MTK1160:3ERMJ6L4DZZF1TS3J27B9715DGGM7M", "current_trial": 81, "dateTime": 1513219296559, "trialdata": {"rt": -1, "stimulus": "<p id=\"stim\">7</p>", "key_press": -1, "trial_type": "single-stim", "trial_index": 81, "time_elapsed": 454598, "internal_node_id": "0.0-60.0-3.0"}}, {"uniqueid": "MTK1160:3ERMJ6L4DZZF1TS3J27B9715DGGM7M", "current_trial": 82, "dateTime": 1513219297561, "trialdata": {"rt": -1, "stimulus": "<p id=\"stim\">6</p>", "key_press": -1, "trial_type": "single-stim", "trial_index": 82, "time_elapsed": 455599, "internal_node_id": "0.0-60.0-4.0"}}, {"uniqueid": "MTK1160:3ERMJ6L4DZZF1TS3J27B9715DGGM7M", "current_trial": 83, "dateTime": 1513219298562, "trialdata": {"rt": -1, "stimulus": "<p id=\"stim\">5</p>", "key_press": -1, "trial_type": "single-stim", "trial_index": 83, "time_elapsed": 456600, "internal_node_id": "0.0-60.0-5.0"}}, {"uniqueid": "MTK1160:3ERMJ6L4DZZF1TS3J27B9715DGGM7M", "current_trial": 84, "dateTime": 1513219299563, "trialdata": {"rt": -1, "stimulus": "<p id=\"stim\">4</p>", "key_press": -1, "trial_type": "single-stim", "trial_index": 84, "time_elapsed": 457601, "internal_node_id": "0.0-60.0-6.0"}}, {"uniqueid": "MTK1160:3ERMJ6L4DZZF1TS3J27B9715DGGM7M", "current_trial": 85, "dateTime": 1513219300563, "trialdata": {"rt": -1, "stimulus": "<p id=\"stim\">3</p>", "key_press": -1, "trial_type": "single-stim", "trial_index": 85, "time_elapsed": 458602, "internal_node_id": "0.0-60.0-7.0"}}, {"uniqueid": "MTK1160:3ERMJ6L4DZZF1TS3J27B9715DGGM7M", "current_trial": 86, "dateTime": 1513219301565, "trialdata": {"rt": -1, "stimulus": "<p id=\"stim\">2</p>", "key_press": -1, "trial_type": "single-stim", "trial_index": 86, "time_elapsed": 459603, "internal_node_id": "0.0-60.0-8.0"}}, {"uniqueid": "MTK1160:3ERMJ6L4DZZF1TS3J27B9715DGGM7M", "current_trial": 87, "dateTime": 1513219302566, "trialdata": {"rt": -1, "stimulus": "<p id=\"stim\">1</p>", "key_press": -1, "trial_type": "single-stim", "trial_index": 87, "time_elapsed": 460604, "internal_node_id": "0.0-60.0-9.0"}}, {"uniqueid": "MTK1160:3ERMJ6L4DZZF1TS3J27B9715DGGM7M", "current_trial": 88, "dateTime": 1513219304067, "trialdata": {"rt": -1, "stimulus": "<p id=\"stim\">+</p>", "key_press": -1, "type": "FIXATION", "trial_type": "single-stim", "trial_index": 88, "time_elapsed": 462105, "internal_node_id": "0.0-61.0-0.0"}}, {"uniqueid": "MTK1160:3ERMJ6L4DZZF1TS3J27B9715DGGM7M", "current_trial": 89, "dateTime": 1513219305668, "trialdata": {"rt": -1, "stimulus": "<p id=\"stim\">IGLOO</p>", "key_press": -1, "type": "PRES_VIS", "word": "igloo", "wordID": 733, "conditions": [12, 1600, "v", 12000], "trial": 2, "serialpos": 0, "trial_type": "single-stim", "trial_index": 89, "time_elapsed": 463706, "internal_node_id": "0.0-62.0"}}, {"uniqueid": "MTK1160:3ERMJ6L4DZZF1TS3J27B9715DGGM7M", "current_trial": 90, "dateTime": 1513219308293, "trialdata": {"rt": -1, "stimulus": "<p id=\"stim\">SWAMP</p>", "key_press": -1, "type": "PRES_VIS", "word": "swamp", "wordID": 1415, "conditions": [12, 1600, "v", 12000], "trial": 2, "serialpos": 1, "trial_type": "single-stim", "trial_index": 90, "time_elapsed": 466331, "internal_node_id": "0.0-63.0"}}, {"uniqueid": "MTK1160:3ERMJ6L4DZZF1TS3J27B9715DGGM7M", "current_trial": 91, "dateTime": 1513219311070, "trialdata": {"rt": -1, "stimulus": "<p id=\"stim\">SCALLOP</p>", "key_press": -1, "type": "PRES_VIS", "word": "scallop", "wordID": 1241, "conditions": [12, 1600, "v", 12000], "trial": 2, "serialpos": 2, "trial_type": "single-stim", "trial_index": 91, "time_elapsed": 469109, "internal_node_id": "0.0-64.0"}}, {"uniqueid": "MTK1160:3ERMJ6L4DZZF1TS3J27B9715DGGM7M", "current_trial": 92, "dateTime": 1513219313726, "trialdata": {"rt": -1, "stimulus": "<p id=\"stim\">CLAM</p>", "key_press": -1, "type": "PRES_VIS", "word": "clam", "wordID": 314, "conditions": [12, 1600, "v", 12000], "trial": 2, "serialpos": 3, "trial_type": "single-stim", "trial_index": 92, "time_elapsed": 471765, "internal_node_id": "0.0-65.0"}}, {"uniqueid": "MTK1160:3ERMJ6L4DZZF1TS3J27B9715DGGM7M", "current_trial": 93, "dateTime": 1513219316407, "trialdata": {"rt": -1, "stimulus": "<p id=\"stim\">SALMON</p>", "key_press": -1, "type": "PRES_VIS", "word": "salmon", "wordID": 1226, "conditions": [12, 1600, "v", 12000], "trial": 2, "serialpos": 4, "trial_type": "single-stim", "trial_index": 93, "time_elapsed": 474446, "internal_node_id": "0.0-66.0"}}, {"uniqueid": "MTK1160:3ERMJ6L4DZZF1TS3J27B9715DGGM7M", "current_trial": 94, "dateTime": 1513219319122, "trialdata": {"rt": -1, "stimulus": "<p id=\"stim\">BRACES</p>", "key_press": -1, "type": "PRES_VIS", "word": "braces", "wordID": 163, "conditions": [12, 1600, "v", 12000], "trial": 2, "serialpos": 5, "trial_type": "single-stim", "trial_index": 94, "time_elapsed": 477160, "internal_node_id": "0.0-67.0"}}, {"uniqueid": "MTK1160:3ERMJ6L4DZZF1TS3J27B9715DGGM7M", "current_trial": 95, "dateTime": 1513219321706, "trialdata": {"rt": -1, "stimulus": "<p id=\"stim\">GARBAGE</p>", "key_press": -1, "type": "PRES_VIS", "word": "garbage", "wordID": 621, "conditions": [12, 1600, "v", 12000], "trial": 2, "serialpos": 6, "trial_type": "single-stim", "trial_index": 95, "time_elapsed": 479745, "internal_node_id": "0.0-68.0"}}, {"uniqueid": "MTK1160:3ERMJ6L4DZZF1TS3J27B9715DGGM7M", "current_trial": 96, "dateTime": 1513219324183, "trialdata": {"rt": -1, "stimulus": "<p id=\"stim\">HARP</p>", "key_press": -1, "type": "PRES_VIS", "word": "harp", "wordID": 688, "conditions": [12, 1600, "v", 12000], "trial": 2, "serialpos": 7, "trial_type": "single-stim", "trial_index": 96, "time_elapsed": 482221, "internal_node_id": "0.0-69.0"}}, {"uniqueid": "MTK1160:3ERMJ6L4DZZF1TS3J27B9715DGGM7M", "current_trial": 97, "dateTime": 1513219326925, "trialdata": {"rt": -1, "stimulus": "<p id=\"stim\">PIANO</p>", "key_press": -1, "type": "PRES_VIS", "word": "piano", "wordID": 1056, "conditions": [12, 1600, "v", 12000], "trial": 2, "serialpos": 8, "trial_type": "single-stim", "trial_index": 97, "time_elapsed": 484964, "internal_node_id": "0.0-70.0"}}, {"uniqueid": "MTK1160:3ERMJ6L4DZZF1TS3J27B9715DGGM7M", "current_trial": 98, "dateTime": 1513219329425, "trialdata": {"rt": -1, "stimulus": "<p id=\"stim\">FRAGRANCE</p>", "key_press": -1, "type": "PRES_VIS", "word": "fragrance", "wordID": 598, "conditions": [12, 1600, "v", 12000], "trial": 2, "serialpos": 9, "trial_type": "single-stim", "trial_index": 98, "time_elapsed": 487463, "internal_node_id": "0.0-71.0"}}, {"uniqueid": "MTK1160:3ERMJ6L4DZZF1TS3J27B9715DGGM7M", "current_trial": 99, "dateTime": 1513219331871, "trialdata": {"rt": -1, "stimulus": "<p id=\"stim\">CHAPEL</p>", "key_press": -1, "type": "PRES_VIS", "word": "chapel", "wordID": 279, "conditions": [12, 1600, "v", 12000], "trial": 2, "serialpos": 10, "trial_type": "single-stim", "trial_index": 99, "time_elapsed": 489909, "internal_node_id": "0.0-72.0"}}, {"uniqueid": "MTK1160:3ERMJ6L4DZZF1TS3J27B9715DGGM7M", "current_trial": 100, "dateTime": 1513219334501, "trialdata": {"rt": -1, "stimulus": "<p id=\"stim\">SEAFOOD</p>", "key_press": -1, "type": "PRES_VIS", "word": "seafood", "wordID": 1259, "conditions": [12, 1600, "v", 12000], "trial": 2, "serialpos": 11, "trial_type": "single-stim", "trial_index": 100, "time_elapsed": 492539, "internal_node_id": "0.0-73.0"}}, {"uniqueid": "MTK1160:3ERMJ6L4DZZF1TS3J27B9715DGGM7M", "current_trial": 101, "dateTime": 1513219336643, "trialdata": {"rt": -1, "stimulus": "", "key_press": -1, "type": "PRE_RECALL_DELAY", "trial_type": "single-stim", "trial_index": 101, "time_elapsed": 494681, "internal_node_id": "0.0-74.0-0.0"}}, {"uniqueid": "MTK1160:3ERMJ6L4DZZF1TS3J27B9715DGGM7M", "current_trial": 102, "dateTime": 1513219337143, "trialdata": {"rt": -1000, "stimulus": "/static/audio/400Hz.wav", "key_press": -1, "type": "PRE_RECALL_ALERT", "trial_type": "single-audio", "trial_index": 102, "time_elapsed": 495182, "internal_node_id": "0.0-75.0"}}, {"uniqueid": "MTK1160:3ERMJ6L4DZZF1TS3J27B9715DGGM7M", "current_trial": 103, "dateTime": 1513219397149, "trialdata": {"rt": [6060, 17940, 20227, 26221, 29356, 36044, 39692, 42709], "recwords": ["seafood", "salmon", "clam", "igloo", "swamp", "garbage", "harp", "piano"], "type": "FREE_RECALL", "conditions": [12, 1600, "v", 12000], "trial": 2, "trial_type": "free-recall", "trial_index": 103, "time_elapsed": 555185, "internal_node_id": "0.0-76.0-0.0"}}, {"uniqueid": "MTK1160:3ERMJ6L4DZZF1TS3J27B9715DGGM7M", "current_trial": 104, "dateTime": 1513219400666, "trialdata": {"rt": 1500, "key_press": 32, "type": "INSTRUCTIONS", "trial_type": "text", "trial_index": 104, "time_elapsed": 558705, "internal_node_id": "0.0-77.0"}}, {"uniqueid": "MTK1160:3ERMJ6L4DZZF1TS3J27B9715DGGM7M", "current_trial": 105, "dateTime": 1513219426668, "trialdata": {"rt": [2187, 4779, 7011, 9155, 11092, 15459, 18188, 20572, 23676], "responses": ["19", "18", "17", "19", "14", "12", "14", "16", "19"], "num1": [9, 9, 3, 7, 3, 6, 6, 9, 4, 8], "num2": [5, 8, 6, 5, 3, 2, 6, 2, 9, 1], "num3": [5, 1, 8, 7, 8, 5, 2, 5, 6, 2], "type": "DISTRACTOR", "conditions": [24, 1600, "a", 24000], "trial": 3, "trial_type": "math-distractor", "trial_index": 105, "time_elapsed": 584707, "internal_node_id": "0.0-78.0"}}, {"uniqueid": "MTK1160:3ERMJ6L4DZZF1TS3J27B9715DGGM7M", "current_trial": 106, "dateTime": 1513219429668, "trialdata": {"rt": -1, "stimulus": "<p id=\"stim\">10</p>", "key_press": -1, "trial_type": "single-stim", "trial_index": 106, "time_elapsed": 587707, "internal_node_id": "0.0-79.0-0.0"}}, {"uniqueid": "MTK1160:3ERMJ6L4DZZF1TS3J27B9715DGGM7M", "current_trial": 107, "dateTime": 1513219430669, "trialdata": {"rt": -1, "stimulus": "<p id=\"stim\">9</p>", "key_press": -1, "trial_type": "single-stim", "trial_index": 107, "time_elapsed": 588708, "internal_node_id": "0.0-79.0-1.0"}}, {"uniqueid": "MTK1160:3ERMJ6L4DZZF1TS3J27B9715DGGM7M", "current_trial": 108, "dateTime": 1513219431671, "trialdata": {"rt": -1, "stimulus": "<p id=\"stim\">8</p>", "key_press": -1, "trial_type": "single-stim", "trial_index": 108, "time_elapsed": 589709, "internal_node_id": "0.0-79.0-2.0"}}, {"uniqueid": "MTK1160:3ERMJ6L4DZZF1TS3J27B9715DGGM7M", "current_trial": 109, "dateTime": 1513219432671, "trialdata": {"rt": -1, "stimulus": "<p id=\"stim\">7</p>", "key_press": -1, "trial_type": "single-stim", "trial_index": 109, "time_elapsed": 590710, "internal_node_id": "0.0-79.0-3.0"}}, {"uniqueid": "MTK1160:3ERMJ6L4DZZF1TS3J27B9715DGGM7M", "current_trial": 110, "dateTime": 1513219433673, "trialdata": {"rt": -1, "stimulus": "<p id=\"stim\">6</p>", "key_press": -1, "trial_type": "single-stim", "trial_index": 110, "time_elapsed": 591711, "internal_node_id": "0.0-79.0-4.0"}}, {"uniqueid": "MTK1160:3ERMJ6L4DZZF1TS3J27B9715DGGM7M", "current_trial": 111, "dateTime": 1513219434674, "trialdata": {"rt": -1, "stimulus": "<p id=\"stim\">5</p>", "key_press": -1, "trial_type": "single-stim", "trial_index": 111, "time_elapsed": 592712, "internal_node_id": "0.0-79.0-5.0"}}, {"uniqueid": "MTK1160:3ERMJ6L4DZZF1TS3J27B9715DGGM7M", "current_trial": 112, "dateTime": 1513219435674, "trialdata": {"rt": -1, "stimulus": "<p id=\"stim\">4</p>", "key_press": -1, "trial_type": "single-stim", "trial_index": 112, "time_elapsed": 593713, "internal_node_id": "0.0-79.0-6.0"}}, {"uniqueid": "MTK1160:3ERMJ6L4DZZF1TS3J27B9715DGGM7M", "current_trial": 113, "dateTime": 1513219436675, "trialdata": {"rt": -1, "stimulus": "<p id=\"stim\">3</p>", "key_press": -1, "trial_type": "single-stim", "trial_index": 113, "time_elapsed": 594714, "internal_node_id": "0.0-79.0-7.0"}}, {"uniqueid": "MTK1160:3ERMJ6L4DZZF1TS3J27B9715DGGM7M", "current_trial": 114, "dateTime": 1513219437676, "trialdata": {"rt": -1, "stimulus": "<p id=\"stim\">2</p>", "key_press": -1, "trial_type": "single-stim", "trial_index": 114, "time_elapsed": 595715, "internal_node_id": "0.0-79.0-8.0"}}, {"uniqueid": "MTK1160:3ERMJ6L4DZZF1TS3J27B9715DGGM7M", "current_trial": 115, "dateTime": 1513219438677, "trialdata": {"rt": -1, "stimulus": "<p id=\"stim\">1</p>", "key_press": -1, "trial_type": "single-stim", "trial_index": 115, "time_elapsed": 596716, "internal_node_id": "0.0-79.0-9.0"}}, {"uniqueid": "MTK1160:3ERMJ6L4DZZF1TS3J27B9715DGGM7M", "current_trial": 116, "dateTime": 1513219440178, "trialdata": {"rt": -1, "stimulus": "<p id=\"stim\">+</p>", "key_press": -1, "type": "FIXATION", "trial_type": "single-stim", "trial_index": 116, "time_elapsed": 598217, "internal_node_id": "0.0-80.0-0.0"}}, {"uniqueid": "MTK1160:3ERMJ6L4DZZF1TS3J27B9715DGGM7M", "current_trial": 117, "dateTime": 1513219442858, "trialdata": {"rt": -1000, "stimulus": "/static/audio/wordpool/SNAKE.wav", "key_press": -1, "type": "PRES_AUD", "word": "snake", "wordID": 1332, "conditions": [24, 1600, "a", 24000], "trial": 3, "serialpos": 0, "trial_type": "single-audio", "trial_index": 117, "time_elapsed": 600897, "internal_node_id": "0.0-81.0"}}, {"uniqueid": "MTK1160:3ERMJ6L4DZZF1TS3J27B9715DGGM7M", "current_trial": 118, "dateTime": 1513219445357, "trialdata": {"rt": -1000, "stimulus": "/static/audio/wordpool/HONEY.wav", "key_press": -1, "type": "PRES_AUD", "word": "honey", "wordID": 712, "conditions": [24, 1600, "a", 24000], "trial": 3, "serialpos": 1, "trial_type": "single-audio", "trial_index": 118, "time_elapsed": 603396, "internal_node_id": "0.0-82.0"}}, {"uniqueid": "MTK1160:3ERMJ6L4DZZF1TS3J27B9715DGGM7M", "current_trial": 119, "dateTime": 1513219447953, "trialdata": {"rt": -1000, "stimulus": "/static/audio/wordpool/FRANCE.wav", "key_press": -1, "type": "PRES_AUD", "word": "france", "wordID": 600, "conditions": [24, 1600, "a", 24000], "trial": 3, "serialpos": 2, "trial_type": "single-audio", "trial_index": 119, "time_elapsed": 605992, "internal_node_id": "0.0-83.0"}}, {"uniqueid": "MTK1160:3ERMJ6L4DZZF1TS3J27B9715DGGM7M", "current_trial": 120, "dateTime": 1513219450591, "trialdata": {"rt": -1000, "stimulus": "/static/audio/wordpool/LIVER.wav", "key_press": -1, "type": "PRES_AUD", "word": "liver", "wordID": 832, "conditions": [24, 1600, "a", 24000], "trial": 3, "serialpos": 3, "trial_type": "single-audio", "trial_index": 120, "time_elapsed": 608630, "internal_node_id": "0.0-84.0"}}, {"uniqueid": "MTK1160:3ERMJ6L4DZZF1TS3J27B9715DGGM7M", "current_trial": 121, "dateTime": 1513219453182, "trialdata": {"rt": -1000, "stimulus": "/static/audio/wordpool/MARROW.wav", "key_press": -1, "type": "PRES_AUD", "word": "marrow", "wordID": 871, "conditions": [24, 1600, "a", 24000], "trial": 3, "serialpos": 4, "trial_type": "single-audio", "trial_index": 121, "time_elapsed": 611221, "internal_node_id": "0.0-85.0"}}, {"uniqueid": "MTK1160:3ERMJ6L4DZZF1TS3J27B9715DGGM7M", "current_trial": 122, "dateTime": 1513219455930, "trialdata": {"rt": -1000, "stimulus": "/static/audio/wordpool/MILK.wav", "key_press": -1, "type": "PRES_AUD", "word": "milk", "wordID": 894, "conditions": [24, 1600, "a", 24000], "trial": 3, "serialpos": 5, "trial_type": "single-audio", "trial_index": 122, "time_elapsed": 613969, "internal_node_id": "0.0-86.0"}}, {"uniqueid": "MTK1160:3ERMJ6L4DZZF1TS3J27B9715DGGM7M", "current_trial": 123, "dateTime": 1513219458553, "trialdata": {"rt": -1000, "stimulus": "/static/audio/wordpool/PUDDLE.wav", "key_press": -1, "type": "PRES_AUD", "word": "puddle", "wordID": 1139, "conditions": [24, 1600, "a", 24000], "trial": 3, "serialpos": 6, "trial_type": "single-audio", "trial_index": 123, "time_elapsed": 616592, "internal_node_id": "0.0-87.0"}}, {"uniqueid": "MTK1160:3ERMJ6L4DZZF1TS3J27B9715DGGM7M", "current_trial": 124, "dateTime": 1513219461296, "trialdata": {"rt": -1000, "stimulus": "/static/audio/wordpool/RAFT.wav", "key_press": -1, "type": "PRES_AUD", "word": "raft", "wordID": 1158, "conditions": [24, 1600, "a", 24000], "trial": 3, "serialpos": 7, "trial_type": "single-audio", "trial_index": 124, "time_elapsed": 619335, "internal_node_id": "0.0-88.0"}}, {"uniqueid": "MTK1160:3ERMJ6L4DZZF1TS3J27B9715DGGM7M", "current_trial": 125, "dateTime": 1513219463887, "trialdata": {"rt": -1000, "stimulus": "/static/audio/wordpool/PACKAGE.wav", "key_press": -1, "type": "PRES_AUD", "word": "package", "wordID": 996, "conditions": [24, 1600, "a", 24000], "trial": 3, "serialpos": 8, "trial_type": "single-audio", "trial_index": 125, "time_elapsed": 621925, "internal_node_id": "0.0-89.0"}}, {"uniqueid": "MTK1160:3ERMJ6L4DZZF1TS3J27B9715DGGM7M", "current_trial": 126, "dateTime": 1513219466462, "trialdata": {"rt": -1000, "stimulus": "/static/audio/wordpool/SAUSAGE.wav", "key_press": -1, "type": "PRES_AUD", "word": "sausage", "wordID": 1237, "conditions": [24, 1600, "a", 24000], "trial": 3, "serialpos": 9, "trial_type": "single-audio", "trial_index": 126, "time_elapsed": 624501, "internal_node_id": "0.0-90.0"}}, {"uniqueid": "MTK1160:3ERMJ6L4DZZF1TS3J27B9715DGGM7M", "current_trial": 127, "dateTime": 1513219468896, "trialdata": {"rt": -1000, "stimulus": "/static/audio/wordpool/BADGE.wav", "key_press": -1, "type": "PRES_AUD", "word": "badge", "wordID": 67, "conditions": [24, 1600, "a", 24000], "trial": 3, "serialpos": 10, "trial_type": "single-audio", "trial_index": 127, "time_elapsed": 626935, "internal_node_id": "0.0-91.0"}}, {"uniqueid": "MTK1160:3ERMJ6L4DZZF1TS3J27B9715DGGM7M", "current_trial": 128, "dateTime": 1513219471628, "trialdata": {"rt": -1000, "stimulus": "/static/audio/wordpool/TERMITE.wav", "key_press": -1, "type": "PRES_AUD", "word": "termite", "wordID": 1450, "conditions": [24, 1600, "a", 24000], "trial": 3, "serialpos": 11, "trial_type": "single-audio", "trial_index": 128, "time_elapsed": 629667, "internal_node_id": "0.0-92.0"}}, {"uniqueid": "MTK1160:3ERMJ6L4DZZF1TS3J27B9715DGGM7M", "current_trial": 129, "dateTime": 1513219474341, "trialdata": {"rt": -1000, "stimulus": "/static/audio/wordpool/SODA.wav", "key_press": -1, "type": "PRES_AUD", "word": "soda", "wordID": 1340, "conditions": [24, 1600, "a", 24000], "trial": 3, "serialpos": 12, "trial_type": "single-audio", "trial_index": 129, "time_elapsed": 632380, "internal_node_id": "0.0-93.0"}}, {"uniqueid": "MTK1160:3ERMJ6L4DZZF1TS3J27B9715DGGM7M", "current_trial": 130, "dateTime": 1513219477023, "trialdata": {"rt": -1000, "stimulus": "/static/audio/wordpool/ACTOR.wav", "key_press": -1, "type": "PRES_AUD", "word": "actor", "wordID": 4, "conditions": [24, 1600, "a", 24000], "trial": 3, "serialpos": 13, "trial_type": "single-audio", "trial_index": 130, "time_elapsed": 635062, "internal_node_id": "0.0-94.0"}}, {"uniqueid": "MTK1160:3ERMJ6L4DZZF1TS3J27B9715DGGM7M", "current_trial": 131, "dateTime": 1513219479711, "trialdata": {"rt": -1000, "stimulus": "/static/audio/wordpool/CATTLE.wav", "key_press": -1, "type": "PRES_AUD", "word": "cattle", "wordID": 260, "conditions": [24, 1600, "a", 24000], "trial": 3, "serialpos": 14, "trial_type": "single-audio", "trial_index": 131, "time_elapsed": 637750, "internal_node_id": "0.0-95.0"}}, {"uniqueid": "MTK1160:3ERMJ6L4DZZF1TS3J27B9715DGGM7M", "current_trial": 132, "dateTime": 1513219482412, "trialdata": {"rt": -1000, "stimulus": "/static/audio/wordpool/BISON.wav", "key_press": -1, "type": "PRES_AUD", "word": "bison", "wordID": 130, "conditions": [24, 1600, "a", 24000], "trial": 3, "serialpos": 15, "trial_type": "single-audio", "trial_index": 132, "time_elapsed": 640451, "internal_node_id": "0.0-96.0"}}, {"uniqueid": "MTK1160:3ERMJ6L4DZZF1TS3J27B9715DGGM7M", "current_trial": 133, "dateTime": 1513219484934, "trialdata": {"rt": -1000, "stimulus": "/static/audio/wordpool/BEAVER.wav", "key_press": -1, "type": "PRES_AUD", "word": "beaver", "wordID": 108, "conditions": [24, 1600, "a", 24000], "trial": 3, "serialpos": 16, "trial_type": "single-audio", "trial_index": 133, "time_elapsed": 642973, "internal_node_id": "0.0-97.0"}}, {"uniqueid": "MTK1160:3ERMJ6L4DZZF1TS3J27B9715DGGM7M", "current_trial": 134, "dateTime": 1513219487614, "trialdata": {"rt": -1000, "stimulus": "/static/audio/wordpool/FREEZER.wav", "key_press": -1, "type": "PRES_AUD", "word": "freezer", "wordID": 603, "conditions": [24, 1600, "a", 24000], "trial": 3, "serialpos": 17, "trial_type": "single-audio", "trial_index": 134, "time_elapsed": 645653, "internal_node_id": "0.0-98.0"}}, {"uniqueid": "MTK1160:3ERMJ6L4DZZF1TS3J27B9715DGGM7M", "current_trial": 135, "dateTime": 1513219490130, "trialdata": {"rt": -1000, "stimulus": "/static/audio/wordpool/HUSBAND.wav", "key_press": -1, "type": "PRES_AUD", "word": "husband", "wordID": 727, "conditions": [24, 1600, "a", 24000], "trial": 3, "serialpos": 18, "trial_type": "single-audio", "trial_index": 135, "time_elapsed": 648169, "internal_node_id": "0.0-99.0"}}, {"uniqueid": "MTK1160:3ERMJ6L4DZZF1TS3J27B9715DGGM7M", "current_trial": 136, "dateTime": 1513219492878, "trialdata": {"rt": -1000, "stimulus": "/static/audio/wordpool/FLEET.wav", "key_press": -1, "type": "PRES_AUD", "word": "fleet", "wordID": 577, "conditions": [24, 1600, "a", 24000], "trial": 3, "serialpos": 19, "trial_type": "single-audio", "trial_index": 136, "time_elapsed": 650917, "internal_node_id": "0.0-100.0"}}, {"uniqueid": "MTK1160:3ERMJ6L4DZZF1TS3J27B9715DGGM7M", "current_trial": 137, "dateTime": 1513219495606, "trialdata": {"rt": -1000, "stimulus": "/static/audio/wordpool/SIBLING.wav", "key_press": -1, "type": "PRES_AUD", "word": "sibling", "wordID": 1300, "conditions": [24, 1600, "a", 24000], "trial": 3, "serialpos": 20, "trial_type": "single-audio", "trial_index": 137, "time_elapsed": 653645, "internal_node_id": "0.0-101.0"}}, {"uniqueid": "MTK1160:3ERMJ6L4DZZF1TS3J27B9715DGGM7M", "current_trial": 138, "dateTime": 1513219498022, "trialdata": {"rt": -1000, "stimulus": "/static/audio/wordpool/LOVER.wav", "key_press": -1, "type": "PRES_AUD", "word": "lover", "wordID": 845, "conditions": [24, 1600, "a", 24000], "trial": 3, "serialpos": 21, "trial_type": "single-audio", "trial_index": 138, "time_elapsed": 656061, "internal_node_id": "0.0-102.0"}}, {"uniqueid": "MTK1160:3ERMJ6L4DZZF1TS3J27B9715DGGM7M", "current_trial": 139, "dateTime": 1513219500749, "trialdata": {"rt": -1000, "stimulus": "/static/audio/wordpool/COFFEE.wav", "key_press": -1, "type": "PRES_AUD", "word": "coffee", "wordID": 340, "conditions": [24, 1600, "a", 24000], "trial": 3, "serialpos": 22, "trial_type": "single-audio", "trial_index": 139, "time_elapsed": 658788, "internal_node_id": "0.0-103.0"}}, {"uniqueid": "MTK1160:3ERMJ6L4DZZF1TS3J27B9715DGGM7M", "current_trial": 140, "dateTime": 1513219503333, "trialdata": {"rt": -1000, "stimulus": "/static/audio/wordpool/DUST.wav", "key_press": -1, "type": "PRES_AUD", "word": "dust", "wordID": 507, "conditions": [24, 1600, "a", 24000], "trial": 3, "serialpos": 23, "trial_type": "single-audio", "trial_index": 140, "time_elapsed": 661372, "internal_node_id": "0.0-104.0"}}, {"uniqueid": "MTK1160:3ERMJ6L4DZZF1TS3J27B9715DGGM7M", "current_trial": 141, "dateTime": 1513219504682, "trialdata": {"rt": -1, "stimulus": "", "key_press": -1, "type": "PRE_RECALL_DELAY", "trial_type": "single-stim", "trial_index": 141, "time_elapsed": 662721, "internal_node_id": "0.0-105.0-0.0"}}, {"uniqueid": "MTK1160:3ERMJ6L4DZZF1TS3J27B9715DGGM7M", "current_trial": 142, "dateTime": 1513219505183, "trialdata": {"rt": -1000, "stimulus": "/static/audio/400Hz.wav", "key_press": -1, "type": "PRE_RECALL_ALERT", "trial_type": "single-audio", "trial_index": 142, "time_elapsed": 663222, "internal_node_id": "0.0-106.0"}}, {"uniqueid": "MTK1160:3ERMJ6L4DZZF1TS3J27B9715DGGM7M", "current_trial": 143, "dateTime": 1513219565189, "trialdata": {"rt": [6369, 12121, 14554, 19642, 22922, 27282, 31043, 39555, 43852, 46930, 50643, 54468, 58515], "recwords": ["dust", "coffee", "lover", "sibling", "fleet", "husband", "freezer", "beaver", "bison", "cattle", "actor", "soda", "termite"], "type": "FREE_RECALL", "conditions": [24, 1600, "a", 24000], "trial": 3, "trial_type": "free-recall", "trial_index": 143, "time_elapsed": 723224, "internal_node_id": "0.0-107.0-0.0"}}, {"uniqueid": "MTK1160:3ERMJ6L4DZZF1TS3J27B9715DGGM7M", "current_trial": 144, "dateTime": 1513219575622, "trialdata": {"rt": 8432, "key_press": 32, "type": "INSTRUCTIONS", "trial_type": "text", "trial_index": 144, "time_elapsed": 733660, "internal_node_id": "0.0-108.0"}}, {"uniqueid": "MTK1160:3ERMJ6L4DZZF1TS3J27B9715DGGM7M", "current_trial": 145, "dateTime": 1513219601624, "trialdata": {"rt": [2805, 4893, 7045, 9558, 12094, 14214, 16582, 19310, 22758], "responses": ["6", "11", "8", "18", "15", "16", "16", "24", "20"], "num1": [1, 6, 2, 7, 4, 8, 8, 7, 6, 7], "num2": [1, 2, 3, 2, 8, 5, 2, 8, 4, 7], "num3": [4, 3, 3, 9, 3, 3, 6, 9, 8, 5], "type": "DISTRACTOR", "conditions": [12, 800, "a", 24000], "trial": 4, "trial_type": "math-distractor", "trial_index": 145, "time_elapsed": 759663, "internal_node_id": "0.0-109.0"}}, {"uniqueid": "MTK1160:3ERMJ6L4DZZF1TS3J27B9715DGGM7M", "current_trial": 146, "dateTime": 1513219604625, "trialdata": {"rt": -1, "stimulus": "<p id=\"stim\">10</p>", "key_press": -1, "trial_type": "single-stim", "trial_index": 146, "time_elapsed": 762663, "internal_node_id": "0.0-110.0-0.0"}}, {"uniqueid": "MTK1160:3ERMJ6L4DZZF1TS3J27B9715DGGM7M", "current_trial": 147, "dateTime": 1513219605625, "trialdata": {"rt": -1, "stimulus": "<p id=\"stim\">9</p>", "key_press": -1, "trial_type": "single-stim", "trial_index": 147, "time_elapsed": 763664, "internal_node_id": "0.0-110.0-1.0"}}, {"uniqueid": "MTK1160:3ERMJ6L4DZZF1TS3J27B9715DGGM7M", "current_trial": 148, "dateTime": 1513219606627, "trialdata": {"rt": -1, "stimulus": "<p id=\"stim\">8</p>", "key_press": -1, "trial_type": "single-stim", "trial_index": 148, "time_elapsed": 764665, "internal_node_id": "0.0-110.0-2.0"}}, {"uniqueid": "MTK1160:3ERMJ6L4DZZF1TS3J27B9715DGGM7M", "current_trial": 149, "dateTime": 1513219607627, "trialdata": {"rt": -1, "stimulus": "<p id=\"stim\">7</p>", "key_press": -1, "trial_type": "single-stim", "trial_index": 149, "time_elapsed": 765666, "internal_node_id": "0.0-110.0-3.0"}}, {"uniqueid": "MTK1160:3ERMJ6L4DZZF1TS3J27B9715DGGM7M", "current_trial": 150, "dateTime": 1513219608629, "trialdata": {"rt": -1, "stimulus": "<p id=\"stim\">6</p>", "key_press": -1, "trial_type": "single-stim", "trial_index": 150, "time_elapsed": 766667, "internal_node_id": "0.0-110.0-4.0"}}, {"uniqueid": "MTK1160:3ERMJ6L4DZZF1TS3J27B9715DGGM7M", "current_trial": 151, "dateTime": 1513219609630, "trialdata": {"rt": -1, "stimulus": "<p id=\"stim\">5</p>", "key_press": -1, "trial_type": "single-stim", "trial_index": 151, "time_elapsed": 767668, "internal_node_id": "0.0-110.0-5.0"}}, {"uniqueid": "MTK1160:3ERMJ6L4DZZF1TS3J27B9715DGGM7M", "current_trial": 152, "dateTime": 1513219610630, "trialdata": {"rt": -1, "stimulus": "<p id=\"stim\">4</p>", "key_press": -1, "trial_type": "single-stim", "trial_index": 152, "time_elapsed": 768669, "internal_node_id": "0.0-110.0-6.0"}}, {"uniqueid": "MTK1160:3ERMJ6L4DZZF1TS3J27B9715DGGM7M", "current_trial": 153, "dateTime": 1513219611631, "trialdata": {"rt": -1, "stimulus": "<p id=\"stim\">3</p>", "key_press": -1, "trial_type": "single-stim", "trial_index": 153, "time_elapsed": 769670, "internal_node_id": "0.0-110.0-7.0"}}, {"uniqueid": "MTK1160:3ERMJ6L4DZZF1TS3J27B9715DGGM7M", "current_trial": 154, "dateTime": 1513219612632, "trialdata": {"rt": -1, "stimulus": "<p id=\"stim\">2</p>", "key_press": -1, "trial_type": "single-stim", "trial_index": 154, "time_elapsed": 770671, "internal_node_id": "0.0-110.0-8.0"}}, {"uniqueid": "MTK1160:3ERMJ6L4DZZF1TS3J27B9715DGGM7M", "current_trial": 155, "dateTime": 1513219613633, "trialdata": {"rt": -1, "stimulus": "<p id=\"stim\">1</p>", "key_press": -1, "trial_type": "single-stim", "trial_index": 155, "time_elapsed": 771672, "internal_node_id": "0.0-110.0-9.0"}}, {"uniqueid": "MTK1160:3ERMJ6L4DZZF1TS3J27B9715DGGM7M", "current_trial": 156, "dateTime": 1513219615135, "trialdata": {"rt": -1, "stimulus": "<p id=\"stim\">+</p>", "key_press": -1, "type": "FIXATION", "trial_type": "single-stim", "trial_index": 156, "time_elapsed": 773173, "internal_node_id": "0.0-111.0-0.0"}}, {"uniqueid": "MTK1160:3ERMJ6L4DZZF1TS3J27B9715DGGM7M", "current_trial": 157, "dateTime": 1513219617055, "trialdata": {"rt": -1000, "stimulus": "/static/audio/wordpool/QUEEN.wav", "key_press": -1, "type": "PRES_AUD", "word": "queen", "wordID": 1148, "conditions": [12, 800, "a", 24000], "trial": 4, "serialpos": 0, "trial_type": "single-audio", "trial_index": 157, "time_elapsed": 775094, "internal_node_id": "0.0-112.0"}}, {"uniqueid": "MTK1160:3ERMJ6L4DZZF1TS3J27B9715DGGM7M", "current_trial": 158, "dateTime": 1513219618838, "trialdata": {"rt": -1000, "stimulus": "/static/audio/wordpool/SHIRT.wav", "key_press": -1, "type": "PRES_AUD", "word": "shirt", "wordID": 1286, "conditions": [12, 800, "a", 24000], "trial": 4, "serialpos": 1, "trial_type": "single-audio", "trial_index": 158, "time_elapsed": 776877, "internal_node_id": "0.0-113.0"}}, {"uniqueid": "MTK1160:3ERMJ6L4DZZF1TS3J27B9715DGGM7M", "current_trial": 159, "dateTime": 1513219620704, "trialdata": {"rt": -1000, "stimulus": "/static/audio/wordpool/BLOUSE.wav", "key_press": -1, "type": "PRES_AUD", "word": "blouse", "wordID": 138, "conditions": [12, 800, "a", 24000], "trial": 4, "serialpos": 2, "trial_type": "single-audio", "trial_index": 159, "time_elapsed": 778743, "internal_node_id": "0.0-114.0"}}, {"uniqueid": "MTK1160:3ERMJ6L4DZZF1TS3J27B9715DGGM7M", "current_trial": 160, "dateTime": 1513219622691, "trialdata": {"rt": -1000, "stimulus": "/static/audio/wordpool/TOMBSTONE.wav", "key_press": -1, "type": "PRES_AUD", "word": "tombstone", "wordID": 1477, "conditions": [12, 800, "a", 24000], "trial": 4, "serialpos": 3, "trial_type": "single-audio", "trial_index": 160, "time_elapsed": 780730, "internal_node_id": "0.0-115.0"}}, {"uniqueid": "MTK1160:3ERMJ6L4DZZF1TS3J27B9715DGGM7M", "current_trial": 161, "dateTime": 1513219624355, "trialdata": {"rt": -1000, "stimulus": "/static/audio/wordpool/PRINCESS.wav", "key_press": -1, "type": "PRES_AUD", "word": "princess", "wordID": 1124, "conditions": [12, 800, "a", 24000], "trial": 4, "serialpos": 4, "trial_type": "single-audio", "trial_index": 161, "time_elapsed": 782394, "internal_node_id": "0.0-116.0"}}, {"uniqueid": "MTK1160:3ERMJ6L4DZZF1TS3J27B9715DGGM7M", "current_trial": 162, "dateTime": 1513219626182, "trialdata": {"rt": -1000, "stimulus": "/static/audio/wordpool/BULLET.wav", "key_press": -1, "type": "PRES_AUD", "word": "bullet", "wordID": 193, "conditions": [12, 800, "a", 24000], "trial": 4, "serialpos": 5, "trial_type": "single-audio", "trial_index": 162, "time_elapsed": 784221, "internal_node_id": "0.0-117.0"}}, {"uniqueid": "MTK1160:3ERMJ6L4DZZF1TS3J27B9715DGGM7M", "current_trial": 163, "dateTime": 1513219627995, "trialdata": {"rt": -1000, "stimulus": "/static/audio/wordpool/STAMP.wav", "key_press": -1, "type": "PRES_AUD", "word": "stamp", "wordID": 1369, "conditions": [12, 800, "a", 24000], "trial": 4, "serialpos": 6, "trial_type": "single-audio", "trial_index": 163, "time_elapsed": 786034, "internal_node_id": "0.0-118.0"}}, {"uniqueid": "MTK1160:3ERMJ6L4DZZF1TS3J27B9715DGGM7M", "current_trial": 164, "dateTime": 1513219629971, "trialdata": {"rt": -1000, "stimulus": "/static/audio/wordpool/POET.wav", "key_press": -1, "type": "PRES_AUD", "word": "poet", "wordID": 1094, "conditions": [12, 800, "a", 24000], "trial": 4, "serialpos": 7, "trial_type": "single-audio", "trial_index": 164, "time_elapsed": 788010, "internal_node_id": "0.0-119.0"}}, {"uniqueid": "MTK1160:3ERMJ6L4DZZF1TS3J27B9715DGGM7M", "current_trial": 165, "dateTime": 1513219631800, "trialdata": {"rt": -1000, "stimulus": "/static/audio/wordpool/BOX.wav", "key_press": -1, "type": "PRES_AUD", "word": "box", "wordID": 158, "conditions": [12, 800, "a", 24000], "trial": 4, "serialpos": 8, "trial_type": "single-audio", "trial_index": 165, "time_elapsed": 789839, "internal_node_id": "0.0-120.0"}}, {"uniqueid": "MTK1160:3ERMJ6L4DZZF1TS3J27B9715DGGM7M", "current_trial": 166, "dateTime": 1513219633799, "trialdata": {"rt": -1000, "stimulus": "/static/audio/wordpool/LABEL.wav", "key_press": -1, "type": "PRES_AUD", "word": "label", "wordID": 789, "conditions": [12, 800, "a", 24000], "trial": 4, "serialpos": 9, "trial_type": "single-audio", "trial_index": 166, "time_elapsed": 791838, "internal_node_id": "0.0-121.0"}}, {"uniqueid": "MTK1160:3ERMJ6L4DZZF1TS3J27B9715DGGM7M", "current_trial": 167, "dateTime": 1513219635496, "trialdata": {"rt": -1000, "stimulus": "/static/audio/wordpool/RECORD.wav", "key_press": -1, "type": "PRES_AUD", "word": "record", "wordID": 1175, "conditions": [12, 800, "a", 24000], "trial": 4, "serialpos": 10, "trial_type": "single-audio", "trial_index": 167, "time_elapsed": 793535, "internal_node_id": "0.0-122.0"}}, {"uniqueid": "MTK1160:3ERMJ6L4DZZF1TS3J27B9715DGGM7M", "current_trial": 168, "dateTime": 1513219637438, "trialdata": {"rt": -1000, "stimulus": "/static/audio/wordpool/AIRPORT.wav", "key_press": -1, "type": "PRES_AUD", "word": "airport", "wordID": 12, "conditions": [12, 800, "a", 24000], "trial": 4, "serialpos": 11, "trial_type": "single-audio", "trial_index": 168, "time_elapsed": 795477, "internal_node_id": "0.0-123.0"}}, {"uniqueid": "MTK1160:3ERMJ6L4DZZF1TS3J27B9715DGGM7M", "current_trial": 169, "dateTime": 1513219638640, "trialdata": {"rt": -1, "stimulus": "", "key_press": -1, "type": "PRE_RECALL_DELAY", "trial_type": "single-stim", "trial_index": 169, "time_elapsed": 796678, "internal_node_id": "0.0-124.0-0.0"}}, {"uniqueid": "MTK1160:3ERMJ6L4DZZF1TS3J27B9715DGGM7M", "current_trial": 170, "dateTime": 1513219639140, "trialdata": {"rt": -1000, "stimulus": "/static/audio/400Hz.wav", "key_press": -1, "type": "PRE_RECALL_ALERT", "trial_type": "single-audio", "trial_index": 170, "time_elapsed": 797179, "internal_node_id": "0.0-125.0"}}, {"uniqueid": "MTK1160:3ERMJ6L4DZZF1TS3J27B9715DGGM7M", "current_trial": 171, "dateTime": 1513219699147, "trialdata": {"rt": [7612, 13753, 16217, 18842, 24114, 31610, 35554, 38234, 41290, 45138, 48114, 50946, 56236], "recwords": ["record", "airport", "label", "box", "stamp", "bullet", "princess", "blouse", "shirt", "queen", "coffee", "lolver", "sibling"], "type": "FREE_RECALL", "conditions": [12, 800, "a", 24000], "trial": 4, "trial_type": "free-recall", "trial_index": 171, "time_elapsed": 857182, "internal_node_id": "0.0-126.0-0.0"}}, {"uniqueid": "MTK1160:3ERMJ6L4DZZF1TS3J27B9715DGGM7M", "current_trial": 172, "dateTime": 1513219701297, "trialdata": {"rt": 150, "key_press": 66, "type": "INSTRUCTIONS", "trial_type": "text", "trial_index": 172, "time_elapsed": 859336, "internal_node_id": "0.0-127.0"}}, {"uniqueid": "MTK1160:3ERMJ6L4DZZF1TS3J27B9715DGGM7M", "current_trial": 173, "dateTime": 1513219727299, "trialdata": {"rt": [4071, 6711, 9335, 11767, 13768, 17799, 20743, 23380], "responses": ["22", "12", "13", "20", "10", "16", "16", "16"], "num1": [9, 2, 1, 7, 1, 7, 6, 7, 2], "num2": [4, 3, 9, 5, 1, 3, 6, 1, 6], "num3": [9, 6, 3, 8, 8, 6, 9, 8, 9], "type": "DISTRACTOR", "conditions": [12, 1600, "v", 24000], "trial": 5, "trial_type": "math-distractor", "trial_index": 173, "time_elapsed": 885337, "internal_node_id": "0.0-128.0"}}, {"uniqueid": "MTK1160:3ERMJ6L4DZZF1TS3J27B9715DGGM7M", "current_trial": 174, "dateTime": 1513219730300, "trialdata": {"rt": -1, "stimulus": "<p id=\"stim\">10</p>", "key_press": -1, "trial_type": "single-stim", "trial_index": 174, "time_elapsed": 888338, "internal_node_id": "0.0-129.0-0.0"}}, {"uniqueid": "MTK1160:3ERMJ6L4DZZF1TS3J27B9715DGGM7M", "current_trial": 175, "dateTime": 1513219731300, "trialdata": {"rt": -1, "stimulus": "<p id=\"stim\">9</p>", "key_press": -1, "trial_type": "single-stim", "trial_index": 175, "time_elapsed": 889339, "internal_node_id": "0.0-129.0-1.0"}}, {"uniqueid": "MTK1160:3ERMJ6L4DZZF1TS3J27B9715DGGM7M", "current_trial": 176, "dateTime": 1513219732302, "trialdata": {"rt": -1, "stimulus": "<p id=\"stim\">8</p>", "key_press": -1, "trial_type": "single-stim", "trial_index": 176, "time_elapsed": 890340, "internal_node_id": "0.0-129.0-2.0"}}, {"uniqueid": "MTK1160:3ERMJ6L4DZZF1TS3J27B9715DGGM7M", "current_trial": 177, "dateTime": 1513219733303, "trialdata": {"rt": -1, "stimulus": "<p id=\"stim\">7</p>", "key_press": -1, "trial_type": "single-stim", "trial_index": 177, "time_elapsed": 891341, "internal_node_id": "0.0-129.0-3.0"}}, {"uniqueid": "MTK1160:3ERMJ6L4DZZF1TS3J27B9715DGGM7M", "current_trial": 178, "dateTime": 1513219734304, "trialdata": {"rt": -1, "stimulus": "<p id=\"stim\">6</p>", "key_press": -1, "trial_type": "single-stim", "trial_index": 178, "time_elapsed": 892342, "internal_node_id": "0.0-129.0-4.0"}}, {"uniqueid": "MTK1160:3ERMJ6L4DZZF1TS3J27B9715DGGM7M", "current_trial": 179, "dateTime": 1513219735304, "trialdata": {"rt": -1, "stimulus": "<p id=\"stim\">5</p>", "key_press": -1, "trial_type": "single-stim", "trial_index": 179, "time_elapsed": 893343, "internal_node_id": "0.0-129.0-5.0"}}, {"uniqueid": "MTK1160:3ERMJ6L4DZZF1TS3J27B9715DGGM7M", "current_trial": 180, "dateTime": 1513219736306, "trialdata": {"rt": -1, "stimulus": "<p id=\"stim\">4</p>", "key_press": -1, "trial_type": "single-stim", "trial_index": 180, "time_elapsed": 894344, "internal_node_id": "0.0-129.0-6.0"}}, {"uniqueid": "MTK1160:3ERMJ6L4DZZF1TS3J27B9715DGGM7M", "current_trial": 181, "dateTime": 1513219737307, "trialdata": {"rt": -1, "stimulus": "<p id=\"stim\">3</p>", "key_press": -1, "trial_type": "single-stim", "trial_index": 181, "time_elapsed": 895345, "internal_node_id": "0.0-129.0-7.0"}}, {"uniqueid": "MTK1160:3ERMJ6L4DZZF1TS3J27B9715DGGM7M", "current_trial": 182, "dateTime": 1513219738308, "trialdata": {"rt": -1, "stimulus": "<p id=\"stim\">2</p>", "key_press": -1, "trial_type": "single-stim", "trial_index": 182, "time_elapsed": 896346, "internal_node_id": "0.0-129.0-8.0"}}, {"uniqueid": "MTK1160:3ERMJ6L4DZZF1TS3J27B9715DGGM7M", "current_trial": 183, "dateTime": 1513219739308, "trialdata": {"rt": -1, "stimulus": "<p id=\"stim\">1</p>", "key_press": -1, "trial_type": "single-stim", "trial_index": 183, "time_elapsed": 897347, "internal_node_id": "0.0-129.0-9.0"}}, {"uniqueid": "MTK1160:3ERMJ6L4DZZF1TS3J27B9715DGGM7M", "current_trial": 184, "dateTime": 1513219740810, "trialdata": {"rt": -1, "stimulus": "<p id=\"stim\">+</p>", "key_press": -1, "type": "FIXATION", "trial_type": "single-stim", "trial_index": 184, "time_elapsed": 898848, "internal_node_id": "0.0-130.0-0.0"}}, {"uniqueid": "MTK1160:3ERMJ6L4DZZF1TS3J27B9715DGGM7M", "current_trial": 185, "dateTime": 1513219742411, "trialdata": {"rt": -1, "stimulus": "<p id=\"stim\">CRAB</p>", "key_press": -1, "type": "PRES_VIS", "word": "crab", "wordID": 396, "conditions": [12, 1600, "v", 24000], "trial": 5, "serialpos": 0, "trial_type": "single-stim", "trial_index": 185, "time_elapsed": 900449, "internal_node_id": "0.0-131.0"}}, {"uniqueid": "MTK1160:3ERMJ6L4DZZF1TS3J27B9715DGGM7M", "current_trial": 186, "dateTime": 1513219745136, "trialdata": {"rt": -1, "stimulus": "<p id=\"stim\">PICNIC</p>", "key_press": -1, "type": "PRES_VIS", "word": "picnic", "wordID": 1059, "conditions": [12, 1600, "v", 24000], "trial": 5, "serialpos": 1, "trial_type": "single-stim", "trial_index": 186, "time_elapsed": 903174, "internal_node_id": "0.0-132.0"}}, {"uniqueid": "MTK1160:3ERMJ6L4DZZF1TS3J27B9715DGGM7M", "current_trial": 187, "dateTime": 1513219747658, "trialdata": {"rt": -1, "stimulus": "<p id=\"stim\">PERFUME</p>", "key_press": -1, "type": "PRES_VIS", "word": "perfume", "wordID": 1048, "conditions": [12, 1600, "v", 24000], "trial": 5, "serialpos": 2, "trial_type": "single-stim", "trial_index": 187, "time_elapsed": 905697, "internal_node_id": "0.0-133.0"}}, {"uniqueid": "MTK1160:3ERMJ6L4DZZF1TS3J27B9715DGGM7M", "current_trial": 188, "dateTime": 1513219750172, "trialdata": {"rt": -1, "stimulus": "<p id=\"stim\">KLEENEX</p>", "key_press": -1, "type": "PRES_VIS", "word": "kleenex", "wordID": 781, "conditions": [12, 1600, "v", 24000], "trial": 5, "serialpos": 3, "trial_type": "single-stim", "trial_index": 188, "time_elapsed": 908210, "internal_node_id": "0.0-134.0"}}, {"uniqueid": "MTK1160:3ERMJ6L4DZZF1TS3J27B9715DGGM7M", "current_trial": 189, "dateTime": 1513219752576, "trialdata": {"rt": -1, "stimulus": "<p id=\"stim\">DOUGHNUT</p>", "key_press": -1, "type": "PRES_VIS", "word": "doughnut", "wordID": 489, "conditions": [12, 1600, "v", 24000], "trial": 5, "serialpos": 4, "trial_type": "single-stim", "trial_index": 189, "time_elapsed": 910614, "internal_node_id": "0.0-135.0"}}, {"uniqueid": "MTK1160:3ERMJ6L4DZZF1TS3J27B9715DGGM7M", "current_trial": 190, "dateTime": 1513219755011, "trialdata": {"rt": -1, "stimulus": "<p id=\"stim\">WORKER</p>", "key_press": -1, "type": "PRES_VIS", "word": "worker", "wordID": 1620, "conditions": [12, 1600, "v", 24000], "trial": 5, "serialpos": 5, "trial_type": "single-stim", "trial_index": 190, "time_elapsed": 913049, "internal_node_id": "0.0-136.0"}}, {"uniqueid": "MTK1160:3ERMJ6L4DZZF1TS3J27B9715DGGM7M", "current_trial": 191, "dateTime": 1513219757747, "trialdata": {"rt": -1, "stimulus": "<p id=\"stim\">NAPKIN</p>", "key_press": -1, "type": "PRES_VIS", "word": "napkin", "wordID": 936, "conditions": [12, 1600, "v", 24000], "trial": 5, "serialpos": 6, "trial_type": "single-stim", "trial_index": 191, "time_elapsed": 915786, "internal_node_id": "0.0-137.0"}}, {"uniqueid": "MTK1160:3ERMJ6L4DZZF1TS3J27B9715DGGM7M", "current_trial": 192, "dateTime": 1513219760292, "trialdata": {"rt": -1, "stimulus": "<p id=\"stim\">CREATURE</p>", "key_press": -1, "type": "PRES_VIS", "word": "creature", "wordID": 402, "conditions": [12, 1600, "v", 24000], "trial": 5, "serialpos": 7, "trial_type": "single-stim", "trial_index": 192, "time_elapsed": 918330, "internal_node_id": "0.0-138.0"}}, {"uniqueid": "MTK1160:3ERMJ6L4DZZF1TS3J27B9715DGGM7M", "current_trial": 193, "dateTime": 1513219762895, "trialdata": {"rt": -1, "stimulus": "<p id=\"stim\">BEAST</p>", "key_press": -1, "type": "PRES_VIS", "word": "beast", "wordID": 107, "conditions": [12, 1600, "v", 24000], "trial": 5, "serialpos": 8, "trial_type": "single-stim", "trial_index": 193, "time_elapsed": 920933, "internal_node_id": "0.0-139.0"}}, {"uniqueid": "MTK1160:3ERMJ6L4DZZF1TS3J27B9715DGGM7M", "current_trial": 194, "dateTime": 1513219765655, "trialdata": {"rt": -1, "stimulus": "<p id=\"stim\">COD</p>", "key_press": -1, "type": "PRES_VIS", "word": "cod", "wordID": 339, "conditions": [12, 1600, "v", 24000], "trial": 5, "serialpos": 9, "trial_type": "single-stim", "trial_index": 194, "time_elapsed": 923693, "internal_node_id": "0.0-140.0"}}, {"uniqueid": "MTK1160:3ERMJ6L4DZZF1TS3J27B9715DGGM7M", "current_trial": 195, "dateTime": 1513219768451, "trialdata": {"rt": -1, "stimulus": "<p id=\"stim\">POSSUM</p>", "key_press": -1, "type": "PRES_VIS", "word": "possum", "wordID": 1111, "conditions": [12, 1600, "v", 24000], "trial": 5, "serialpos": 10, "trial_type": "single-stim", "trial_index": 195, "time_elapsed": 926489, "internal_node_id": "0.0-141.0"}}, {"uniqueid": "MTK1160:3ERMJ6L4DZZF1TS3J27B9715DGGM7M", "current_trial": 196, "dateTime": 1513219770884, "trialdata": {"rt": -1, "stimulus": "<p id=\"stim\">MUSTARD</p>", "key_press": -1, "type": "PRES_VIS", "word": "mustard", "wordID": 934, "conditions": [12, 1600, "v", 24000], "trial": 5, "serialpos": 11, "trial_type": "single-stim", "trial_index": 196, "time_elapsed": 928923, "internal_node_id": "0.0-142.0"}}, {"uniqueid": "MTK1160:3ERMJ6L4DZZF1TS3J27B9715DGGM7M", "current_trial": 197, "dateTime": 1513219773067, "trialdata": {"rt": -1, "stimulus": "", "key_press": -1, "type": "PRE_RECALL_DELAY", "trial_type": "single-stim", "trial_index": 197, "time_elapsed": 931105, "internal_node_id": "0.0-143.0-0.0"}}, {"uniqueid": "MTK1160:3ERMJ6L4DZZF1TS3J27B9715DGGM7M", "current_trial": 198, "dateTime": 1513219773567, "trialdata": {"rt": -1000, "stimulus": "/static/audio/400Hz.wav", "key_press": -1, "type": "PRE_RECALL_ALERT", "trial_type": "single-audio", "trial_index": 198, "time_elapsed": 931606, "internal_node_id": "0.0-144.0"}}, {"uniqueid": "MTK1160:3ERMJ6L4DZZF1TS3J27B9715DGGM7M", "current_trial": 199, "dateTime": 1513219833574, "trialdata": {"rt": [4730, 10163, 13699, 17779, 20467, 25804, 28936, 35404, 38683, 40843, 43788, 46476, 48492, 52604], "recwords": ["mustard", "possum", "cod", "creature", "napkin", "worker", "perfume", "picnic", "cod", "record", "airport", "build", "box", "doughnut"], "type": "FREE_RECALL", "conditions": [12, 1600, "v", 24000], "trial": 5, "trial_type": "free-recall", "trial_index": 199, "time_elapsed": 991609, "internal_node_id": "0.0-145.0-0.0"}}, {"uniqueid": "MTK1160:3ERMJ6L4DZZF1TS3J27B9715DGGM7M", "current_trial": 200, "dateTime": 1513219851183, "trialdata": {"rt": 15608, "key_press": 32, "type": "INSTRUCTIONS", "trial_type": "text", "trial_index": 200, "time_elapsed": 1009222, "internal_node_id": "0.0-146.0"}}, {"uniqueid": "MTK1160:3ERMJ6L4DZZF1TS3J27B9715DGGM7M", "current_trial": 201, "dateTime": 1513219865185, "trialdata": {"rt": [3870, 6630, 8750, 11326], "responses": ["16", "14", "13", "21"], "num1": [5, 5, 6, 7, 1], "num2": [8, 6, 4, 8, 7], "num3": [3, 3, 3, 6, 6], "type": "DISTRACTOR", "conditions": [12, 800, "v", 12000], "trial": 6, "trial_type": "math-distractor", "trial_index": 201, "time_elapsed": 1023224, "internal_node_id": "0.0-147.0"}}, {"uniqueid": "MTK1160:3ERMJ6L4DZZF1TS3J27B9715DGGM7M", "current_trial": 202, "dateTime": 1513219868186, "trialdata": {"rt": -1, "stimulus": "<p id=\"stim\">10</p>", "key_press": -1, "trial_type": "single-stim", "trial_index": 202, "time_elapsed": 1026224, "internal_node_id": "0.0-148.0-0.0"}}, {"uniqueid": "MTK1160:3ERMJ6L4DZZF1TS3J27B9715DGGM7M", "current_trial": 203, "dateTime": 1513219869187, "trialdata": {"rt": -1, "stimulus": "<p id=\"stim\">9</p>", "key_press": -1, "trial_type": "single-stim", "trial_index": 203, "time_elapsed": 1027225, "internal_node_id": "0.0-148.0-1.0"}}, {"uniqueid": "MTK1160:3ERMJ6L4DZZF1TS3J27B9715DGGM7M", "current_trial": 204, "dateTime": 1513219870188, "trialdata": {"rt": -1, "stimulus": "<p id=\"stim\">8</p>", "key_press": -1, "trial_type": "single-stim", "trial_index": 204, "time_elapsed": 1028226, "internal_node_id": "0.0-148.0-2.0"}}, {"uniqueid": "MTK1160:3ERMJ6L4DZZF1TS3J27B9715DGGM7M", "current_trial": 205, "dateTime": 1513219871189, "trialdata": {"rt": -1, "stimulus": "<p id=\"stim\">7</p>", "key_press": -1, "trial_type": "single-stim", "trial_index": 205, "time_elapsed": 1029227, "internal_node_id": "0.0-148.0-3.0"}}, {"uniqueid": "MTK1160:3ERMJ6L4DZZF1TS3J27B9715DGGM7M", "current_trial": 206, "dateTime": 1513219872190, "trialdata": {"rt": -1, "stimulus": "<p id=\"stim\">6</p>", "key_press": -1, "trial_type": "single-stim", "trial_index": 206, "time_elapsed": 1030228, "internal_node_id": "0.0-148.0-4.0"}}, {"uniqueid": "MTK1160:3ERMJ6L4DZZF1TS3J27B9715DGGM7M", "current_trial": 207, "dateTime": 1513219873191, "trialdata": {"rt": -1, "stimulus": "<p id=\"stim\">5</p>", "key_press": -1, "trial_type": "single-stim", "trial_index": 207, "time_elapsed": 1031229, "internal_node_id": "0.0-148.0-5.0"}}, {"uniqueid": "MTK1160:3ERMJ6L4DZZF1TS3J27B9715DGGM7M", "current_trial": 208, "dateTime": 1513219874192, "trialdata": {"rt": -1, "stimulus": "<p id=\"stim\">4</p>", "key_press": -1, "trial_type": "single-stim", "trial_index": 208, "time_elapsed": 1032230, "internal_node_id": "0.0-148.0-6.0"}}, {"uniqueid": "MTK1160:3ERMJ6L4DZZF1TS3J27B9715DGGM7M", "current_trial": 209, "dateTime": 1513219875193, "trialdata": {"rt": -1, "stimulus": "<p id=\"stim\">3</p>", "key_press": -1, "trial_type": "single-stim", "trial_index": 209, "time_elapsed": 1033231, "internal_node_id": "0.0-148.0-7.0"}}, {"uniqueid": "MTK1160:3ERMJ6L4DZZF1TS3J27B9715DGGM7M", "current_trial": 210, "dateTime": 1513219876194, "trialdata": {"rt": -1, "stimulus": "<p id=\"stim\">2</p>", "key_press": -1, "trial_type": "single-stim", "trial_index": 210, "time_elapsed": 1034232, "internal_node_id": "0.0-148.0-8.0"}}, {"uniqueid": "MTK1160:3ERMJ6L4DZZF1TS3J27B9715DGGM7M", "current_trial": 211, "dateTime": 1513219877195, "trialdata": {"rt": -1, "stimulus": "<p id=\"stim\">1</p>", "key_press": -1, "trial_type": "single-stim", "trial_index": 211, "time_elapsed": 1035233, "internal_node_id": "0.0-148.0-9.0"}}, {"uniqueid": "MTK1160:3ERMJ6L4DZZF1TS3J27B9715DGGM7M", "current_trial": 212, "dateTime": 1513219878696, "trialdata": {"rt": -1, "stimulus": "<p id=\"stim\">+</p>", "key_press": -1, "type": "FIXATION", "trial_type": "single-stim", "trial_index": 212, "time_elapsed": 1036734, "internal_node_id": "0.0-149.0-0.0"}}, {"uniqueid": "MTK1160:3ERMJ6L4DZZF1TS3J27B9715DGGM7M", "current_trial": 213, "dateTime": 1513219879497, "trialdata": {"rt": -1, "stimulus": "<p id=\"stim\">SHARK</p>", "key_press": -1, "type": "PRES_VIS", "word": "shark", "wordID": 1274, "conditions": [12, 800, "v", 12000], "trial": 6, "serialpos": 0, "trial_type": "single-stim", "trial_index": 213, "time_elapsed": 1037535, "internal_node_id": "0.0-150.0"}}, {"uniqueid": "MTK1160:3ERMJ6L4DZZF1TS3J27B9715DGGM7M", "current_trial": 214, "dateTime": 1513219881170, "trialdata": {"rt": -1, "stimulus": "<p id=\"stim\">XEROX</p>", "key_press": -1, "type": "PRES_VIS", "word": "xerox", "wordID": 1627, "conditions": [12, 800, "v", 12000], "trial": 6, "serialpos": 1, "trial_type": "single-stim", "trial_index": 214, "time_elapsed": 1039208, "internal_node_id": "0.0-151.0"}}, {"uniqueid": "MTK1160:3ERMJ6L4DZZF1TS3J27B9715DGGM7M", "current_trial": 215, "dateTime": 1513219883107, "trialdata": {"rt": -1, "stimulus": "<p id=\"stim\">AGENT</p>", "key_press": -1, "type": "PRES_VIS", "word": "agent", "wordID": 9, "conditions": [12, 800, "v", 12000], "trial": 6, "serialpos": 2, "trial_type": "single-stim", "trial_index": 215, "time_elapsed": 1041146, "internal_node_id": "0.0-152.0"}}, {"uniqueid": "MTK1160:3ERMJ6L4DZZF1TS3J27B9715DGGM7M", "current_trial": 216, "dateTime": 1513219885028, "trialdata": {"rt": -1, "stimulus": "<p id=\"stim\">CUSTARD</p>", "key_press": -1, "type": "PRES_VIS", "word": "custard", "wordID": 428, "conditions": [12, 800, "v", 12000], "trial": 6, "serialpos": 3, "trial_type": "single-stim", "trial_index": 216, "time_elapsed": 1043066, "internal_node_id": "0.0-153.0"}}, {"uniqueid": "MTK1160:3ERMJ6L4DZZF1TS3J27B9715DGGM7M", "current_trial": 217, "dateTime": 1513219886957, "trialdata": {"rt": -1, "stimulus": "<p id=\"stim\">SPIDER</p>", "key_press": -1, "type": "PRES_VIS", "word": "spider", "wordID": 1350, "conditions": [12, 800, "v", 12000], "trial": 6, "serialpos": 4, "trial_type": "single-stim", "trial_index": 217, "time_elapsed": 1044996, "internal_node_id": "0.0-154.0"}}, {"uniqueid": "MTK1160:3ERMJ6L4DZZF1TS3J27B9715DGGM7M", "current_trial": 218, "dateTime": 1513219888872, "trialdata": {"rt": -1, "stimulus": "<p id=\"stim\">KIDNEY</p>", "key_press": -1, "type": "PRES_VIS", "word": "kidney", "wordID": 775, "conditions": [12, 800, "v", 12000], "trial": 6, "serialpos": 5, "trial_type": "single-stim", "trial_index": 218, "time_elapsed": 1046910, "internal_node_id": "0.0-155.0"}}, {"uniqueid": "MTK1160:3ERMJ6L4DZZF1TS3J27B9715DGGM7M", "current_trial": 219, "dateTime": 1513219890609, "trialdata": {"rt": -1, "stimulus": "<p id=\"stim\">TREAT</p>", "key_press": -1, "type": "PRES_VIS", "word": "treat", "wordID": 1500, "conditions": [12, 800, "v", 12000], "trial": 6, "serialpos": 6, "trial_type": "single-stim", "trial_index": 219, "time_elapsed": 1048647, "internal_node_id": "0.0-156.0"}}, {"uniqueid": "MTK1160:3ERMJ6L4DZZF1TS3J27B9715DGGM7M", "current_trial": 220, "dateTime": 1513219892258, "trialdata": {"rt": -1, "stimulus": "<p id=\"stim\">ROOSTER</p>", "key_press": -1, "type": "PRES_VIS", "word": "rooster", "wordID": 1208, "conditions": [12, 800, "v", 12000], "trial": 6, "serialpos": 7, "trial_type": "single-stim", "trial_index": 220, "time_elapsed": 1050296, "internal_node_id": "0.0-157.0"}}, {"uniqueid": "MTK1160:3ERMJ6L4DZZF1TS3J27B9715DGGM7M", "current_trial": 221, "dateTime": 1513219894134, "trialdata": {"rt": -1, "stimulus": "<p id=\"stim\">ONION</p>", "key_press": -1, "type": "PRES_VIS", "word": "onion", "wordID": 976, "conditions": [12, 800, "v", 12000], "trial": 6, "serialpos": 8, "trial_type": "single-stim", "trial_index": 221, "time_elapsed": 1052172, "internal_node_id": "0.0-158.0"}}, {"uniqueid": "MTK1160:3ERMJ6L4DZZF1TS3J27B9715DGGM7M", "current_trial": 222, "dateTime": 1513219895803, "trialdata": {"rt": -1, "stimulus": "<p id=\"stim\">PEPPER</p>", "key_press": -1, "type": "PRES_VIS", "word": "pepper", "wordID": 1046, "conditions": [12, 800, "v", 12000], "trial": 6, "serialpos": 9, "trial_type": "single-stim", "trial_index": 222, "time_elapsed": 1053841, "internal_node_id": "0.0-159.0"}}, {"uniqueid": "MTK1160:3ERMJ6L4DZZF1TS3J27B9715DGGM7M", "current_trial": 223, "dateTime": 1513219897665, "trialdata": {"rt": -1, "stimulus": "<p id=\"stim\">CLOCK</p>", "key_press": -1, "type": "PRES_VIS", "word": "clock", "wordID": 324, "conditions": [12, 800, "v", 12000], "trial": 6, "serialpos": 10, "trial_type": "single-stim", "trial_index": 223, "time_elapsed": 1055703, "internal_node_id": "0.0-160.0"}}, {"uniqueid": "MTK1160:3ERMJ6L4DZZF1TS3J27B9715DGGM7M", "current_trial": 224, "dateTime": 1513219899532, "trialdata": {"rt": -1, "stimulus": "<p id=\"stim\">RABBIT</p>", "key_press": -1, "type": "PRES_VIS", "word": "rabbit", "wordID": 1151, "conditions": [12, 800, "v", 12000], "trial": 6, "serialpos": 11, "trial_type": "single-stim", "trial_index": 224, "time_elapsed": 1057570, "internal_node_id": "0.0-161.0"}}, {"uniqueid": "MTK1160:3ERMJ6L4DZZF1TS3J27B9715DGGM7M", "current_trial": 225, "dateTime": 1513219901834, "trialdata": {"rt": -1, "stimulus": "", "key_press": -1, "type": "PRE_RECALL_DELAY", "trial_type": "single-stim", "trial_index": 225, "time_elapsed": 1059872, "internal_node_id": "0.0-162.0-0.0"}}, {"uniqueid": "MTK1160:3ERMJ6L4DZZF1TS3J27B9715DGGM7M", "current_trial": 226, "dateTime": 1513219902335, "trialdata": {"rt": -1000, "stimulus": "/static/audio/400Hz.wav", "key_press": -1, "type": "PRE_RECALL_ALERT", "trial_type": "single-audio", "trial_index": 226, "time_elapsed": 1060373, "internal_node_id": "0.0-163.0"}}, {"uniqueid": "MTK1160:3ERMJ6L4DZZF1TS3J27B9715DGGM7M", "current_trial": 227, "dateTime": 1513219962341, "trialdata": {"rt": [6656, 11584, 15368, 18361, 21377, 24129, 28177, 30984, 35641], "recwords": ["rabbit", "clover", "pepper", "onion", "treat", "spider", "custard", "agent", "shark"], "type": "FREE_RECALL", "conditions": [12, 800, "v", 12000], "trial": 6, "trial_type": "free-recall", "trial_index": 227, "time_elapsed": 1120376, "internal_node_id": "0.0-164.0-0.0"}}, {"uniqueid": "MTK1160:3ERMJ6L4DZZF1TS3J27B9715DGGM7M", "current_trial": 228, "dateTime": 1513219966115, "trialdata": {"rt": 1773, "key_press": 32, "type": "INSTRUCTIONS", "trial_type": "text", "trial_index": 228, "time_elapsed": 1124154, "internal_node_id": "0.0-165.0"}}, {"uniqueid": "MTK1160:3ERMJ6L4DZZF1TS3J27B9715DGGM7M", "current_trial": 229, "dateTime": 1513219992162, "trialdata": {"rt": [2922, 4890, 7163, 11826, 14026, 16554, 19003, 21651, 23507], "responses": ["19", "\\6", "17", "14", "19", "15", "20", "12", "17"], "num1": [6, 4, 6, 1, 8, 4, 7, 9, 8, 5], "num2": [5, 1, 4, 6, 6, 9, 9, 2, 8, 9], "num3": [8, 1, 7, 7, 5, 2, 4, 1, 1, 1], "type": "DISTRACTOR", "conditions": [24, 800, "a", 24000], "trial": 7, "trial_type": "math-distractor", "trial_index": 229, "time_elapsed": 1150201, "internal_node_id": "0.0-166.0"}}, {"uniqueid": "MTK1160:3ERMJ6L4DZZF1TS3J27B9715DGGM7M", "current_trial": 230, "dateTime": 1513219995163, "trialdata": {"rt": -1, "stimulus": "<p id=\"stim\">10</p>", "key_press": -1, "trial_type": "single-stim", "trial_index": 230, "time_elapsed": 1153201, "internal_node_id": "0.0-167.0-0.0"}}, {"uniqueid": "MTK1160:3ERMJ6L4DZZF1TS3J27B9715DGGM7M", "current_trial": 231, "dateTime": 1513219996164, "trialdata": {"rt": -1, "stimulus": "<p id=\"stim\">9</p>", "key_press": -1, "trial_type": "single-stim", "trial_index": 231, "time_elapsed": 1154202, "internal_node_id": "0.0-167.0-1.0"}}, {"uniqueid": "MTK1160:3ERMJ6L4DZZF1TS3J27B9715DGGM7M", "current_trial": 232, "dateTime": 1513219997165, "trialdata": {"rt": -1, "stimulus": "<p id=\"stim\">8</p>", "key_press": -1, "trial_type": "single-stim", "trial_index": 232, "time_elapsed": 1155203, "internal_node_id": "0.0-167.0-2.0"}}, {"uniqueid": "MTK1160:3ERMJ6L4DZZF1TS3J27B9715DGGM7M", "current_trial": 233, "dateTime": 1513219998166, "trialdata": {"rt": -1, "stimulus": "<p id=\"stim\">7</p>", "key_press": -1, "trial_type": "single-stim", "trial_index": 233, "time_elapsed": 1156204, "internal_node_id": "0.0-167.0-3.0"}}, {"uniqueid": "MTK1160:3ERMJ6L4DZZF1TS3J27B9715DGGM7M", "current_trial": 234, "dateTime": 1513219999167, "trialdata": {"rt": -1, "stimulus": "<p id=\"stim\">6</p>", "key_press": -1, "trial_type": "single-stim", "trial_index": 234, "time_elapsed": 1157205, "internal_node_id": "0.0-167.0-4.0"}}, {"uniqueid": "MTK1160:3ERMJ6L4DZZF1TS3J27B9715DGGM7M", "current_trial": 235, "dateTime": 1513220000193, "trialdata": {"rt": -1, "stimulus": "<p id=\"stim\">5</p>", "key_press": -1, "trial_type": "single-stim", "trial_index": 235, "time_elapsed": 1158232, "internal_node_id": "0.0-167.0-5.0"}}, {"uniqueid": "MTK1160:3ERMJ6L4DZZF1TS3J27B9715DGGM7M", "current_trial": 236, "dateTime": 1513220001195, "trialdata": {"rt": -1, "stimulus": "<p id=\"stim\">4</p>", "key_press": -1, "trial_type": "single-stim", "trial_index": 236, "time_elapsed": 1159234, "internal_node_id": "0.0-167.0-6.0"}}, {"uniqueid": "MTK1160:3ERMJ6L4DZZF1TS3J27B9715DGGM7M", "current_trial": 237, "dateTime": 1513220002197, "trialdata": {"rt": -1, "stimulus": "<p id=\"stim\">3</p>", "key_press": -1, "trial_type": "single-stim", "trial_index": 237, "time_elapsed": 1160236, "internal_node_id": "0.0-167.0-7.0"}}, {"uniqueid": "MTK1160:3ERMJ6L4DZZF1TS3J27B9715DGGM7M", "current_trial": 238, "dateTime": 1513220003200, "trialdata": {"rt": -1, "stimulus": "<p id=\"stim\">2</p>", "key_press": -1, "trial_type": "single-stim", "trial_index": 238, "time_elapsed": 1161238, "internal_node_id": "0.0-167.0-8.0"}}, {"uniqueid": "MTK1160:3ERMJ6L4DZZF1TS3J27B9715DGGM7M", "current_trial": 239, "dateTime": 1513220004201, "trialdata": {"rt": -1, "stimulus": "<p id=\"stim\">1</p>", "key_press": -1, "trial_type": "single-stim", "trial_index": 239, "time_elapsed": 1162239, "internal_node_id": "0.0-167.0-9.0"}}, {"uniqueid": "MTK1160:3ERMJ6L4DZZF1TS3J27B9715DGGM7M", "current_trial": 240, "dateTime": 1513220005702, "trialdata": {"rt": -1, "stimulus": "<p id=\"stim\">+</p>", "key_press": -1, "type": "FIXATION", "trial_type": "single-stim", "trial_index": 240, "time_elapsed": 1163740, "internal_node_id": "0.0-168.0-0.0"}}, {"uniqueid": "MTK1160:3ERMJ6L4DZZF1TS3J27B9715DGGM7M", "current_trial": 241, "dateTime": 1513220007390, "trialdata": {"rt": -1000, "stimulus": "/static/audio/wordpool/YACHT.wav", "key_press": -1, "type": "PRES_AUD", "word": "yacht", "wordID": 1628, "conditions": [24, 800, "a", 24000], "trial": 7, "serialpos": 0, "trial_type": "single-audio", "trial_index": 241, "time_elapsed": 1165429, "internal_node_id": "0.0-169.0"}}, {"uniqueid": "MTK1160:3ERMJ6L4DZZF1TS3J27B9715DGGM7M", "current_trial": 242, "dateTime": 1513220009271, "trialdata": {"rt": -1000, "stimulus": "/static/audio/wordpool/OMELET.wav", "key_press": -1, "type": "PRES_AUD", "word": "omelet", "wordID": 975, "conditions": [24, 800, "a", 24000], "trial": 7, "serialpos": 1, "trial_type": "single-audio", "trial_index": 242, "time_elapsed": 1167310, "internal_node_id": "0.0-170.0"}}, {"uniqueid": "MTK1160:3ERMJ6L4DZZF1TS3J27B9715DGGM7M", "current_trial": 243, "dateTime": 1513220011079, "trialdata": {"rt": -1000, "stimulus": "/static/audio/wordpool/DANCER.wav", "key_press": -1, "type": "PRES_AUD", "word": "dancer", "wordID": 436, "conditions": [24, 800, "a", 24000], "trial": 7, "serialpos": 2, "trial_type": "single-audio", "trial_index": 243, "time_elapsed": 1169118, "internal_node_id": "0.0-171.0"}}, {"uniqueid": "MTK1160:3ERMJ6L4DZZF1TS3J27B9715DGGM7M", "current_trial": 244, "dateTime": 1513220012749, "trialdata": {"rt": -1000, "stimulus": "/static/audio/wordpool/PLATE.wav", "key_press": -1, "type": "PRES_AUD", "word": "plate", "wordID": 1085, "conditions": [24, 800, "a", 24000], "trial": 7, "serialpos": 3, "trial_type": "single-audio", "trial_index": 244, "time_elapsed": 1170788, "internal_node_id": "0.0-172.0"}}, {"uniqueid": "MTK1160:3ERMJ6L4DZZF1TS3J27B9715DGGM7M", "current_trial": 245, "dateTime": 1513220014423, "trialdata": {"rt": -1000, "stimulus": "/static/audio/wordpool/SPOUSE.wav", "key_press": -1, "type": "PRES_AUD", "word": "spouse", "wordID": 1357, "conditions": [24, 800, "a", 24000], "trial": 7, "serialpos": 4, "trial_type": "single-audio", "trial_index": 245, "time_elapsed": 1172462, "internal_node_id": "0.0-173.0"}}, {"uniqueid": "MTK1160:3ERMJ6L4DZZF1TS3J27B9715DGGM7M", "current_trial": 246, "dateTime": 1513220016350, "trialdata": {"rt": -1000, "stimulus": "/static/audio/wordpool/PLIERS.wav", "key_press": -1, "type": "PRES_AUD", "word": "pliers", "wordID": 1088, "conditions": [24, 800, "a", 24000], "trial": 7, "serialpos": 5, "trial_type": "single-audio", "trial_index": 246, "time_elapsed": 1174389, "internal_node_id": "0.0-174.0"}}, {"uniqueid": "MTK1160:3ERMJ6L4DZZF1TS3J27B9715DGGM7M", "current_trial": 247, "dateTime": 1513220018005, "trialdata": {"rt": -1000, "stimulus": "/static/audio/wordpool/LIPSTICK.wav", "key_press": -1, "type": "PRES_AUD", "word": "lipstick", "wordID": 828, "conditions": [24, 800, "a", 24000], "trial": 7, "serialpos": 6, "trial_type": "single-audio", "trial_index": 247, "time_elapsed": 1176044, "internal_node_id": "0.0-175.0"}}, {"uniqueid": "MTK1160:3ERMJ6L4DZZF1TS3J27B9715DGGM7M", "current_trial": 248, "dateTime": 1513220019650, "trialdata": {"rt": -1000, "stimulus": "/static/audio/wordpool/SNAIL.wav", "key_press": -1, "type": "PRES_AUD", "word": "snail", "wordID": 1331, "conditions": [24, 800, "a", 24000], "trial": 7, "serialpos": 7, "trial_type": "single-audio", "trial_index": 248, "time_elapsed": 1177689, "internal_node_id": "0.0-176.0"}}, {"uniqueid": "MTK1160:3ERMJ6L4DZZF1TS3J27B9715DGGM7M", "current_trial": 249, "dateTime": 1513220021465, "trialdata": {"rt": -1000, "stimulus": "/static/audio/wordpool/LIZARD.wav", "key_press": -1, "type": "PRES_AUD", "word": "lizard", "wordID": 833, "conditions": [24, 800, "a", 24000], "trial": 7, "serialpos": 8, "trial_type": "single-audio", "trial_index": 249, "time_elapsed": 1179503, "internal_node_id": "0.0-177.0"}}, {"uniqueid": "MTK1160:3ERMJ6L4DZZF1TS3J27B9715DGGM7M", "current_trial": 250, "dateTime": 1513220023251, "trialdata": {"rt": -1000, "stimulus": "/static/audio/wordpool/WIFE.wav", "key_press": -1, "type": "PRES_AUD", "word": "wife", "wordID": 1608, "conditions": [24, 800, "a", 24000], "trial": 7, "serialpos": 9, "trial_type": "single-audio", "trial_index": 250, "time_elapsed": 1181290, "internal_node_id": "0.0-178.0"}}, {"uniqueid": "MTK1160:3ERMJ6L4DZZF1TS3J27B9715DGGM7M", "current_trial": 251, "dateTime": 1513220025170, "trialdata": {"rt": -1000, "stimulus": "/static/audio/wordpool/VIRUS.wav", "key_press": -1, "type": "PRES_AUD", "word": "virus", "wordID": 1571, "conditions": [24, 800, "a", 24000], "trial": 7, "serialpos": 10, "trial_type": "single-audio", "trial_index": 251, "time_elapsed": 1183209, "internal_node_id": "0.0-179.0"}}, {"uniqueid": "MTK1160:3ERMJ6L4DZZF1TS3J27B9715DGGM7M", "current_trial": 252, "dateTime": 1513220027091, "trialdata": {"rt": -1000, "stimulus": "/static/audio/wordpool/MOTEL.wav", "key_press": -1, "type": "PRES_AUD", "word": "motel", "wordID": 918, "conditions": [24, 800, "a", 24000], "trial": 7, "serialpos": 11, "trial_type": "single-audio", "trial_index": 252, "time_elapsed": 1185130, "internal_node_id": "0.0-180.0"}}, {"uniqueid": "MTK1160:3ERMJ6L4DZZF1TS3J27B9715DGGM7M", "current_trial": 253, "dateTime": 1513220028739, "trialdata": {"rt": -1000, "stimulus": "/static/audio/wordpool/LEG.wav", "key_press": -1, "type": "PRES_AUD", "word": "leg", "wordID": 808, "conditions": [24, 800, "a", 24000], "trial": 7, "serialpos": 12, "trial_type": "single-audio", "trial_index": 253, "time_elapsed": 1186777, "internal_node_id": "0.0-181.0"}}, {"uniqueid": "MTK1160:3ERMJ6L4DZZF1TS3J27B9715DGGM7M", "current_trial": 254, "dateTime": 1513220030552, "trialdata": {"rt": -1000, "stimulus": "/static/audio/wordpool/SHOVEL.wav", "key_press": -1, "type": "PRES_AUD", "word": "shovel", "wordID": 1294, "conditions": [24, 800, "a", 24000], "trial": 7, "serialpos": 13, "trial_type": "single-audio", "trial_index": 254, "time_elapsed": 1188591, "internal_node_id": "0.0-182.0"}}, {"uniqueid": "MTK1160:3ERMJ6L4DZZF1TS3J27B9715DGGM7M", "current_trial": 255, "dateTime": 1513220032420, "trialdata": {"rt": -1000, "stimulus": "/static/audio/wordpool/SKIRT.wav", "key_press": -1, "type": "PRES_AUD", "word": "skirt", "wordID": 1318, "conditions": [24, 800, "a", 24000], "trial": 7, "serialpos": 14, "trial_type": "single-audio", "trial_index": 255, "time_elapsed": 1190459, "internal_node_id": "0.0-183.0"}}, {"uniqueid": "MTK1160:3ERMJ6L4DZZF1TS3J27B9715DGGM7M", "current_trial": 256, "dateTime": 1513220034364, "trialdata": {"rt": -1000, "stimulus": "/static/audio/wordpool/CASKET.wav", "key_press": -1, "type": "PRES_AUD", "word": "casket", "wordID": 254, "conditions": [24, 800, "a", 24000], "trial": 7, "serialpos": 15, "trial_type": "single-audio", "trial_index": 256, "time_elapsed": 1192402, "internal_node_id": "0.0-184.0"}}, {"uniqueid": "MTK1160:3ERMJ6L4DZZF1TS3J27B9715DGGM7M", "current_trial": 257, "dateTime": 1513220036138, "trialdata": {"rt": -1000, "stimulus": "/static/audio/wordpool/ANKLE.wav", "key_press": -1, "type": "PRES_AUD", "word": "ankle", "wordID": 23, "conditions": [24, 800, "a", 24000], "trial": 7, "serialpos": 16, "trial_type": "single-audio", "trial_index": 257, "time_elapsed": 1194177, "internal_node_id": "0.0-185.0"}}, {"uniqueid": "MTK1160:3ERMJ6L4DZZF1TS3J27B9715DGGM7M", "current_trial": 258, "dateTime": 1513220037865, "trialdata": {"rt": -1000, "stimulus": "/static/audio/wordpool/NECKLACE.wav", "key_press": -1, "type": "PRES_AUD", "word": "necklace", "wordID": 939, "conditions": [24, 800, "a", 24000], "trial": 7, "serialpos": 17, "trial_type": "single-audio", "trial_index": 258, "time_elapsed": 1195904, "internal_node_id": "0.0-186.0"}}, {"uniqueid": "MTK1160:3ERMJ6L4DZZF1TS3J27B9715DGGM7M", "current_trial": 259, "dateTime": 1513220039604, "trialdata": {"rt": -1000, "stimulus": "/static/audio/wordpool/ORCHID.wav", "key_press": -1, "type": "PRES_AUD", "word": "orchid", "wordID": 981, "conditions": [24, 800, "a", 24000], "trial": 7, "serialpos": 18, "trial_type": "single-audio", "trial_index": 259, "time_elapsed": 1197643, "internal_node_id": "0.0-187.0"}}, {"uniqueid": "MTK1160:3ERMJ6L4DZZF1TS3J27B9715DGGM7M", "current_trial": 260, "dateTime": 1513220041600, "trialdata": {"rt": -1000, "stimulus": "/static/audio/wordpool/CAPTIVE.wav", "key_press": -1, "type": "PRES_AUD", "word": "captive", "wordID": 239, "conditions": [24, 800, "a", 24000], "trial": 7, "serialpos": 19, "trial_type": "single-audio", "trial_index": 260, "time_elapsed": 1199639, "internal_node_id": "0.0-188.0"}}, {"uniqueid": "MTK1160:3ERMJ6L4DZZF1TS3J27B9715DGGM7M", "current_trial": 261, "dateTime": 1513220043366, "trialdata": {"rt": -1000, "stimulus": "/static/audio/wordpool/SANDWICH.wav", "key_press": -1, "type": "PRES_AUD", "word": "sandwich", "wordID": 1231, "conditions": [24, 800, "a", 24000], "trial": 7, "serialpos": 20, "trial_type": "single-audio", "trial_index": 261, "time_elapsed": 1201405, "internal_node_id": "0.0-189.0"}}, {"uniqueid": "MTK1160:3ERMJ6L4DZZF1TS3J27B9715DGGM7M", "current_trial": 262, "dateTime": 1513220045019, "trialdata": {"rt": -1000, "stimulus": "/static/audio/wordpool/PASTRY.wav", "key_press": -1, "type": "PRES_AUD", "word": "pastry", "wordID": 1021, "conditions": [24, 800, "a", 24000], "trial": 7, "serialpos": 21, "trial_type": "single-audio", "trial_index": 262, "time_elapsed": 1203058, "internal_node_id": "0.0-190.0"}}, {"uniqueid": "MTK1160:3ERMJ6L4DZZF1TS3J27B9715DGGM7M", "current_trial": 263, "dateTime": 1513220046631, "trialdata": {"rt": -1000, "stimulus": "/static/audio/wordpool/WARDROBE.wav", "key_press": -1, "type": "PRES_AUD", "word": "wardrobe", "wordID": 1586, "conditions": [24, 800, "a", 24000], "trial": 7, "serialpos": 22, "trial_type": "single-audio", "trial_index": 263, "time_elapsed": 1204670, "internal_node_id": "0.0-191.0"}}, {"uniqueid": "MTK1160:3ERMJ6L4DZZF1TS3J27B9715DGGM7M", "current_trial": 264, "dateTime": 1513220048313, "trialdata": {"rt": -1000, "stimulus": "/static/audio/wordpool/JUNGLE.wav", "key_press": -1, "type": "PRES_AUD", "word": "jungle", "wordID": 763, "conditions": [24, 800, "a", 24000], "trial": 7, "serialpos": 23, "trial_type": "single-audio", "trial_index": 264, "time_elapsed": 1206352, "internal_node_id": "0.0-192.0"}}, {"uniqueid": "MTK1160:3ERMJ6L4DZZF1TS3J27B9715DGGM7M", "current_trial": 265, "dateTime": 1513220049688, "trialdata": {"rt": -1, "stimulus": "", "key_press": -1, "type": "PRE_RECALL_DELAY", "trial_type": "single-stim", "trial_index": 265, "time_elapsed": 1207726, "internal_node_id": "0.0-193.0-0.0"}}, {"uniqueid": "MTK1160:3ERMJ6L4DZZF1TS3J27B9715DGGM7M", "current_trial": 266, "dateTime": 1513220050189, "trialdata": {"rt": -1000, "stimulus": "/static/audio/400Hz.wav", "key_press": -1, "type": "PRE_RECALL_ALERT", "trial_type": "single-audio", "trial_index": 266, "time_elapsed": 1208227, "internal_node_id": "0.0-194.0"}}, {"uniqueid": "MTK1160:3ERMJ6L4DZZF1TS3J27B9715DGGM7M", "current_trial": 267, "dateTime": 1513220110196, "trialdata": {"rt": [5919, 11463, 14416, 22296, 24407, 25207, 26832, 29000, 32448, 34872, 37912, 43801, 48465, 51817, 54992, 59056], "recwords": ["jungle", "sandwich", "captive", "necklace", "shove", "", "leg", "motel", "virus", "wife", "lizrd", "lipstick", "spouse", "plate", "dancer", "yault"], "type": "FREE_RECALL", "conditions": [24, 800, "a", 24000], "trial": 7, "trial_type": "free-recall", "trial_index": 267, "time_elapsed": 1268230, "internal_node_id": "0.0-195.0-0.0"}}, {"uniqueid": "MTK1160:3ERMJ6L4DZZF1TS3J27B9715DGGM7M", "current_trial": 268, "dateTime": 1513220124480, "trialdata": {"rt": 12282, "key_press": 32, "type": "INSTRUCTIONS", "trial_type": "text", "trial_index": 268, "time_elapsed": 1282519, "internal_node_id": "0.0-196.0"}}, {"uniqueid": "MTK1160:3ERMJ6L4DZZF1TS3J27B9715DGGM7M", "current_trial": 269, "dateTime": 1513220150483, "trialdata": {"rt": [2413, 5390, 8134, 11222, 14495, 16558, 19158, 21359], "responses": ["14", "13", "20", "22", "11", "16", "24", "17"], "num1": [3, 4, 6, 9, 7, 3, 8, 8, 9], "num2": [6, 4, 9, 7, 3, 7, 7, 5, 5], "num3": [5, 5, 5, 6, 1, 6, 9, 4, 6], "type": "DISTRACTOR", "conditions": [12, 800, "v", 24000], "trial": 8, "trial_type": "math-distractor", "trial_index": 269, "time_elapsed": 1308522, "internal_node_id": "0.0-197.0"}}, {"uniqueid": "MTK1160:3ERMJ6L4DZZF1TS3J27B9715DGGM7M", "current_trial": 270, "dateTime": 1513220153484, "trialdata": {"rt": -1, "stimulus": "<p id=\"stim\">10</p>", "key_press": -1, "trial_type": "single-stim", "trial_index": 270, "time_elapsed": 1311522, "internal_node_id": "0.0-198.0-0.0"}}, {"uniquei