{"condition": 0, "counterbalance": 2595, "assignmentId": "32SCWG5HIIB2IWBBS8UBKXV4NI76PJ", "workerId": "MTK1301", "hitId": "3E9ZFLPWOYZLX5A9QY8FMTBSJPWIX6", "currenttrial": 626, "bonus": 0, "data": [{"uniqueid": "MTK1301:32SCWG5HIIB2IWBBS8UBKXV4NI76PJ", "current_trial": 0, "dateTime": 1513545176255, "trialdata": {"rt": 2497, "key_press": 32, "type": "INSTRUCTIONS", "trial_type": "text", "trial_index": 0, "time_elapsed": 2500, "internal_node_id": "0.0-0.0"}}, {"uniqueid": "MTK1301:32SCWG5HIIB2IWBBS8UBKXV4NI76PJ", "current_trial": 1, "dateTime": 1513545191829, "trialdata": {"rt": 15571, "key_press": 32, "type": "INSTRUCTIONS", "trial_type": "text", "trial_index": 1, "time_elapsed": 18075, "internal_node_id": "0.0-1.0"}}, {"uniqueid": "MTK1301:32SCWG5HIIB2IWBBS8UBKXV4NI76PJ", "current_trial": 2, "dateTime": 1513545214774, "trialdata": {"rt": [22901], "responses": ["ocean"], "type": "AUDIO_TEST", "trial_type": "audio-test", "trial_index": 2, "time_elapsed": 41021, "internal_node_id": "0.0-2.0"}}, {"uniqueid": "MTK1301:32SCWG5HIIB2IWBBS8UBKXV4NI76PJ", "current_trial": 3, "dateTime": 1513545225811, "trialdata": {"rt": [11033], "responses": ["crystal"], "type": "AUDIO_TEST", "trial_type": "audio-test", "trial_index": 3, "time_elapsed": 52058, "internal_node_id": "0.0-3.0"}}, {"uniqueid": "MTK1301:32SCWG5HIIB2IWBBS8UBKXV4NI76PJ", "current_trial": 4, "dateTime": 1513545232059, "trialdata": {"rt": [6245], "responses": ["spice"], "type": "AUDIO_TEST", "trial_type": "audio-test", "trial_index": 4, "time_elapsed": 58306, "internal_node_id": "0.0-4.0"}}, {"uniqueid": "MTK1301:32SCWG5HIIB2IWBBS8UBKXV4NI76PJ", "current_trial": 5, "dateTime": 1513545266191, "trialdata": {"rt": 33379, "responses": "{\"Q0\":\"4:00am\",\"Q1\":\"10:00am\",\"Q2\":\"3\"}", "type": "SLEEP_SURVEY", "trial_type": "survey-text", "trial_index": 5, "time_elapsed": 92438, "internal_node_id": "0.0-5.0"}}, {"uniqueid": "MTK1301:32SCWG5HIIB2IWBBS8UBKXV4NI76PJ", "current_trial": 6, "dateTime": 1513545301887, "trialdata": {"rt": 34693, "key_press": 32, "type": "INSTRUCTIONS", "trial_type": "text", "trial_index": 6, "time_elapsed": 128134, "internal_node_id": "0.0-6.0"}}, {"uniqueid": "MTK1301:32SCWG5HIIB2IWBBS8UBKXV4NI76PJ", "current_trial": 7, "dateTime": 1513545313706, "trialdata": {"rt": 11316, "key_press": 32, "type": "INSTRUCTIONS", "trial_type": "text", "trial_index": 7, "time_elapsed": 139953, "internal_node_id": "0.0-7.0"}}, {"uniqueid": "MTK1301:32SCWG5HIIB2IWBBS8UBKXV4NI76PJ", "current_trial": 8, "dateTime": 1513545325141, "trialdata": {"rt": 10932, "key_press": 32, "type": "INSTRUCTIONS", "trial_type": "text", "trial_index": 8, "time_elapsed": 151387, "internal_node_id": "0.0-8.0"}}, {"uniqueid": "MTK1301:32SCWG5HIIB2IWBBS8UBKXV4NI76PJ", "current_trial": 9, "dateTime": 1513545344153, "trialdata": {"rt": [3393, 8551, 12722, 15723], "responses": ["18", "16", "21", "5"], "num1": [7, 5, 4, 3, 4], "num2": [9, 8, 8, 1, 1], "num3": [2, 3, 9, 1, 9], "type": "DISTRACTOR", "conditions": [18, 1200, "a", 18000], "trial": 0, "trial_type": "math-distractor", "trial_index": 9, "time_elapsed": 170400, "internal_node_id": "0.0-9.0"}}, {"uniqueid": "MTK1301:32SCWG5HIIB2IWBBS8UBKXV4NI76PJ", "current_trial": 10, "dateTime": 1513545347159, "trialdata": {"rt": -1, "stimulus": "<p id=\"stim\">10</p>", "key_press": -1, "trial_type": "single-stim", "trial_index": 10, "time_elapsed": 173406, "internal_node_id": "0.0-10.0-0.0"}}, {"uniqueid": "MTK1301:32SCWG5HIIB2IWBBS8UBKXV4NI76PJ", "current_trial": 11, "dateTime": 1513545348162, "trialdata": {"rt": -1, "stimulus": "<p id=\"stim\">9</p>", "key_press": -1, "trial_type": "single-stim", "trial_index": 11, "time_elapsed": 174409, "internal_node_id": "0.0-10.0-1.0"}}, {"uniqueid": "MTK1301:32SCWG5HIIB2IWBBS8UBKXV4NI76PJ", "current_trial": 12, "dateTime": 1513545349166, "trialdata": {"rt": -1, "stimulus": "<p id=\"stim\">8</p>", "key_press": -1, "trial_type": "single-stim", "trial_index": 12, "time_elapsed": 175412, "internal_node_id": "0.0-10.0-2.0"}}, {"uniqueid": "MTK1301:32SCWG5HIIB2IWBBS8UBKXV4NI76PJ", "current_trial": 13, "dateTime": 1513545350168, "trialdata": {"rt": -1, "stimulus": "<p id=\"stim\">7</p>", "key_press": -1, "trial_type": "single-stim", "trial_index": 13, "time_elapsed": 176415, "internal_node_id": "0.0-10.0-3.0"}}, {"uniqueid": "MTK1301:32SCWG5HIIB2IWBBS8UBKXV4NI76PJ", "current_trial": 14, "dateTime": 1513545351171, "trialdata": {"rt": -1, "stimulus": "<p id=\"stim\">6</p>", "key_press": -1, "trial_type": "single-stim", "trial_index": 14, "time_elapsed": 177418, "internal_node_id": "0.0-10.0-4.0"}}, {"uniqueid": "MTK1301:32SCWG5HIIB2IWBBS8UBKXV4NI76PJ", "current_trial": 15, "dateTime": 1513545352174, "trialdata": {"rt": -1, "stimulus": "<p id=\"stim\">5</p>", "key_press": -1, "trial_type": "single-stim", "trial_index": 15, "time_elapsed": 178421, "internal_node_id": "0.0-10.0-5.0"}}, {"uniqueid": "MTK1301:32SCWG5HIIB2IWBBS8UBKXV4NI76PJ", "current_trial": 16, "dateTime": 1513545353178, "trialdata": {"rt": -1, "stimulus": "<p id=\"stim\">4</p>", "key_press": -1, "trial_type": "single-stim", "trial_index": 16, "time_elapsed": 179425, "internal_node_id": "0.0-10.0-6.0"}}, {"uniqueid": "MTK1301:32SCWG5HIIB2IWBBS8UBKXV4NI76PJ", "current_trial": 17, "dateTime": 1513545354181, "trialdata": {"rt": -1, "stimulus": "<p id=\"stim\">3</p>", "key_press": -1, "trial_type": "single-stim", "trial_index": 17, "time_elapsed": 180427, "internal_node_id": "0.0-10.0-7.0"}}, {"uniqueid": "MTK1301:32SCWG5HIIB2IWBBS8UBKXV4NI76PJ", "current_trial": 18, "dateTime": 1513545355183, "trialdata": {"rt": -1, "stimulus": "<p id=\"stim\">2</p>", "key_press": -1, "trial_type": "single-stim", "trial_index": 18, "time_elapsed": 181429, "internal_node_id": "0.0-10.0-8.0"}}, {"uniqueid": "MTK1301:32SCWG5HIIB2IWBBS8UBKXV4NI76PJ", "current_trial": 19, "dateTime": 1513545356185, "trialdata": {"rt": -1, "stimulus": "<p id=\"stim\">1</p>", "key_press": -1, "trial_type": "single-stim", "trial_index": 19, "time_elapsed": 182432, "internal_node_id": "0.0-10.0-9.0"}}, {"uniqueid": "MTK1301:32SCWG5HIIB2IWBBS8UBKXV4NI76PJ", "current_trial": 20, "dateTime": 1513545357688, "trialdata": {"rt": -1, "stimulus": "<p id=\"stim\">+</p>", "key_press": -1, "type": "FIXATION", "trial_type": "single-stim", "trial_index": 20, "time_elapsed": 183935, "internal_node_id": "0.0-11.0-0.0"}}, {"uniqueid": "MTK1301:32SCWG5HIIB2IWBBS8UBKXV4NI76PJ", "current_trial": 21, "dateTime": 1513545360043, "trialdata": {"rt": -1000, "stimulus": "/static/audio/wordpool/SKILLET.wav", "key_press": -1, "type": "PRES_AUD", "word": "skillet", "wordID": 1316, "conditions": [18, 1200, "a", 18000], "trial": 0, "serialpos": 0, "trial_type": "single-audio", "trial_index": 21, "time_elapsed": 186290, "internal_node_id": "0.0-12.0"}}, {"uniqueid": "MTK1301:32SCWG5HIIB2IWBBS8UBKXV4NI76PJ", "current_trial": 22, "dateTime": 1513545362244, "trialdata": {"rt": -1000, "stimulus": "/static/audio/wordpool/GLASS.wav", "key_press": -1, "type": "PRES_AUD", "word": "glass", "wordID": 638, "conditions": [18, 1200, "a", 18000], "trial": 0, "serialpos": 1, "trial_type": "single-audio", "trial_index": 22, "time_elapsed": 188491, "internal_node_id": "0.0-13.0"}}, {"uniqueid": "MTK1301:32SCWG5HIIB2IWBBS8UBKXV4NI76PJ", "current_trial": 23, "dateTime": 1513545364458, "trialdata": {"rt": -1000, "stimulus": "/static/audio/wordpool/TABLET.wav", "key_press": -1, "type": "PRES_AUD", "word": "tablet", "wordID": 1426, "conditions": [18, 1200, "a", 18000], "trial": 0, "serialpos": 2, "trial_type": "single-audio", "trial_index": 23, "time_elapsed": 190705, "internal_node_id": "0.0-14.0"}}, {"uniqueid": "MTK1301:32SCWG5HIIB2IWBBS8UBKXV4NI76PJ", "current_trial": 24, "dateTime": 1513545366526, "trialdata": {"rt": -1000, "stimulus": "/static/audio/wordpool/MONSTER.wav", "key_press": -1, "type": "PRES_AUD", "word": "monster", "wordID": 911, "conditions": [18, 1200, "a", 18000], "trial": 0, "serialpos": 3, "trial_type": "single-audio", "trial_index": 24, "time_elapsed": 192773, "internal_node_id": "0.0-15.0"}}, {"uniqueid": "MTK1301:32SCWG5HIIB2IWBBS8UBKXV4NI76PJ", "current_trial": 25, "dateTime": 1513545368857, "trialdata": {"rt": -1000, "stimulus": "/static/audio/wordpool/RELISH.wav", "key_press": -1, "type": "PRES_AUD", "word": "relish", "wordID": 1182, "conditions": [18, 1200, "a", 18000], "trial": 0, "serialpos": 4, "trial_type": "single-audio", "trial_index": 25, "time_elapsed": 195104, "internal_node_id": "0.0-16.0"}}, {"uniqueid": "MTK1301:32SCWG5HIIB2IWBBS8UBKXV4NI76PJ", "current_trial": 26, "dateTime": 1513545371041, "trialdata": {"rt": -1000, "stimulus": "/static/audio/wordpool/COFFEE.wav", "key_press": -1, "type": "PRES_AUD", "word": "coffee", "wordID": 340, "conditions": [18, 1200, "a", 18000], "trial": 0, "serialpos": 5, "trial_type": "single-audio", "trial_index": 26, "time_elapsed": 197288, "internal_node_id": "0.0-17.0"}}, {"uniqueid": "MTK1301:32SCWG5HIIB2IWBBS8UBKXV4NI76PJ", "current_trial": 27, "dateTime": 1513545373108, "trialdata": {"rt": -1000, "stimulus": "/static/audio/wordpool/LIPSTICK.wav", "key_press": -1, "type": "PRES_AUD", "word": "lipstick", "wordID": 828, "conditions": [18, 1200, "a", 18000], "trial": 0, "serialpos": 6, "trial_type": "single-audio", "trial_index": 27, "time_elapsed": 199355, "internal_node_id": "0.0-18.0"}}, {"uniqueid": "MTK1301:32SCWG5HIIB2IWBBS8UBKXV4NI76PJ", "current_trial": 28, "dateTime": 1513545375270, "trialdata": {"rt": -1000, "stimulus": "/static/audio/wordpool/FUNGUS.wav", "key_press": -1, "type": "PRES_AUD", "word": "fungus", "wordID": 613, "conditions": [18, 1200, "a", 18000], "trial": 0, "serialpos": 7, "trial_type": "single-audio", "trial_index": 28, "time_elapsed": 201517, "internal_node_id": "0.0-19.0"}}, {"uniqueid": "MTK1301:32SCWG5HIIB2IWBBS8UBKXV4NI76PJ", "current_trial": 29, "dateTime": 1513545377571, "trialdata": {"rt": -1000, "stimulus": "/static/audio/wordpool/DRAGON.wav", "key_press": -1, "type": "PRES_AUD", "word": "dragon", "wordID": 491, "conditions": [18, 1200, "a", 18000], "trial": 0, "serialpos": 8, "trial_type": "single-audio", "trial_index": 29, "time_elapsed": 203817, "internal_node_id": "0.0-20.0"}}, {"uniqueid": "MTK1301:32SCWG5HIIB2IWBBS8UBKXV4NI76PJ", "current_trial": 30, "dateTime": 1513545379666, "trialdata": {"rt": -1000, "stimulus": "/static/audio/wordpool/JELLY.wav", "key_press": -1, "type": "PRES_AUD", "word": "jelly", "wordID": 754, "conditions": [18, 1200, "a", 18000], "trial": 0, "serialpos": 9, "trial_type": "single-audio", "trial_index": 30, "time_elapsed": 205913, "internal_node_id": "0.0-21.0"}}, {"uniqueid": "MTK1301:32SCWG5HIIB2IWBBS8UBKXV4NI76PJ", "current_trial": 31, "dateTime": 1513545381961, "trialdata": {"rt": -1000, "stimulus": "/static/audio/wordpool/TURKEY.wav", "key_press": -1, "type": "PRES_AUD", "word": "turkey", "wordID": 1519, "conditions": [18, 1200, "a", 18000], "trial": 0, "serialpos": 10, "trial_type": "single-audio", "trial_index": 31, "time_elapsed": 208208, "internal_node_id": "0.0-22.0"}}, {"uniqueid": "MTK1301:32SCWG5HIIB2IWBBS8UBKXV4NI76PJ", "current_trial": 32, "dateTime": 1513545384027, "trialdata": {"rt": -1000, "stimulus": "/static/audio/wordpool/MAMMAL.wav", "key_press": -1, "type": "PRES_AUD", "word": "mammal", "wordID": 860, "conditions": [18, 1200, "a", 18000], "trial": 0, "serialpos": 11, "trial_type": "single-audio", "trial_index": 32, "time_elapsed": 210274, "internal_node_id": "0.0-23.0"}}, {"uniqueid": "MTK1301:32SCWG5HIIB2IWBBS8UBKXV4NI76PJ", "current_trial": 33, "dateTime": 1513545386310, "trialdata": {"rt": -1000, "stimulus": "/static/audio/wordpool/ACTOR.wav", "key_press": -1, "type": "PRES_AUD", "word": "actor", "wordID": 4, "conditions": [18, 1200, "a", 18000], "trial": 0, "serialpos": 12, "trial_type": "single-audio", "trial_index": 33, "time_elapsed": 212556, "internal_node_id": "0.0-24.0"}}, {"uniqueid": "MTK1301:32SCWG5HIIB2IWBBS8UBKXV4NI76PJ", "current_trial": 34, "dateTime": 1513545388469, "trialdata": {"rt": -1000, "stimulus": "/static/audio/wordpool/WAITRESS.wav", "key_press": -1, "type": "PRES_AUD", "word": "waitress", "wordID": 1580, "conditions": [18, 1200, "a", 18000], "trial": 0, "serialpos": 13, "trial_type": "single-audio", "trial_index": 34, "time_elapsed": 214716, "internal_node_id": "0.0-25.0"}}, {"uniqueid": "MTK1301:32SCWG5HIIB2IWBBS8UBKXV4NI76PJ", "current_trial": 35, "dateTime": 1513545390762, "trialdata": {"rt": -1000, "stimulus": "/static/audio/wordpool/GARBAGE.wav", "key_press": -1, "type": "PRES_AUD", "word": "garbage", "wordID": 621, "conditions": [18, 1200, "a", 18000], "trial": 0, "serialpos": 14, "trial_type": "single-audio", "trial_index": 35, "time_elapsed": 217009, "internal_node_id": "0.0-26.0"}}, {"uniqueid": "MTK1301:32SCWG5HIIB2IWBBS8UBKXV4NI76PJ", "current_trial": 36, "dateTime": 1513545392771, "trialdata": {"rt": -1000, "stimulus": "/static/audio/wordpool/MASK.wav", "key_press": -1, "type": "PRES_AUD", "word": "mask", "wordID": 875, "conditions": [18, 1200, "a", 18000], "trial": 0, "serialpos": 15, "trial_type": "single-audio", "trial_index": 36, "time_elapsed": 219018, "internal_node_id": "0.0-27.0"}}, {"uniqueid": "MTK1301:32SCWG5HIIB2IWBBS8UBKXV4NI76PJ", "current_trial": 37, "dateTime": 1513545394850, "trialdata": {"rt": -1000, "stimulus": "/static/audio/wordpool/TABLE.wav", "key_press": -1, "type": "PRES_AUD", "word": "table", "wordID": 1425, "conditions": [18, 1200, "a", 18000], "trial": 0, "serialpos": 16, "trial_type": "single-audio", "trial_index": 37, "time_elapsed": 221097, "internal_node_id": "0.0-28.0"}}, {"uniqueid": "MTK1301:32SCWG5HIIB2IWBBS8UBKXV4NI76PJ", "current_trial": 38, "dateTime": 1513545397129, "trialdata": {"rt": -1000, "stimulus": "/static/audio/wordpool/HELMET.wav", "key_press": -1, "type": "PRES_AUD", "word": "helmet", "wordID": 701, "conditions": [18, 1200, "a", 18000], "trial": 0, "serialpos": 17, "trial_type": "single-audio", "trial_index": 38, "time_elapsed": 223376, "internal_node_id": "0.0-29.0"}}, {"uniqueid": "MTK1301:32SCWG5HIIB2IWBBS8UBKXV4NI76PJ", "current_trial": 39, "dateTime": 1513545398509, "trialdata": {"rt": -1, "stimulus": "", "key_press": -1, "type": "PRE_RECALL_DELAY", "trial_type": "single-stim", "trial_index": 39, "time_elapsed": 224756, "internal_node_id": "0.0-30.0-0.0"}}, {"uniqueid": "MTK1301:32SCWG5HIIB2IWBBS8UBKXV4NI76PJ", "current_trial": 40, "dateTime": 1513545399011, "trialdata": {"rt": -1000, "stimulus": "/static/audio/400Hz.wav", "key_press": -1, "type": "PRE_RECALL_ALERT", "trial_type": "single-audio", "trial_index": 40, "time_elapsed": 225258, "internal_node_id": "0.0-31.0"}}, {"uniqueid": "MTK1301:32SCWG5HIIB2IWBBS8UBKXV4NI76PJ", "current_trial": 41, "dateTime": 1513545459023, "trialdata": {"rt": [2524, 4698, 6068, 8147, 9394, 11524, 14027, 17204, 38474, 46134, 52016], "recwords": ["helmet", "mask", "actor", "waitress", "monster", "dragon", "mammal", "table", "glass", "coffee", "fungus"], "type": "FREE_RECALL", "conditions": [18, 1200, "a", 18000], "trial": 0, "trial_type": "free-recall", "trial_index": 41, "time_elapsed": 285265, "internal_node_id": "0.0-32.0-0.0"}}, {"uniqueid": "MTK1301:32SCWG5HIIB2IWBBS8UBKXV4NI76PJ", "current_trial": 42, "dateTime": 1513545463327, "trialdata": {"rt": 2302, "key_press": 32, "type": "INSTRUCTIONS", "trial_type": "text", "trial_index": 42, "time_elapsed": 289574, "internal_node_id": "0.0-33.0"}}, {"uniqueid": "MTK1301:32SCWG5HIIB2IWBBS8UBKXV4NI76PJ", "current_trial": 43, "dateTime": 1513545483338, "trialdata": {"rt": [4610, 7511, 10654, 12924, 15989], "responses": ["14", "15", "14", "20", "14"], "num1": [4, 6, 6, 4, 3, 5], "num2": [7, 3, 5, 8, 6, 8], "num3": [3, 6, 3, 8, 5, 3], "type": "DISTRACTOR", "conditions": [18, 1200, "v", 18000], "trial": 1, "trial_type": "math-distractor", "trial_index": 43, "time_elapsed": 309585, "internal_node_id": "0.0-34.0"}}, {"uniqueid": "MTK1301:32SCWG5HIIB2IWBBS8UBKXV4NI76PJ", "current_trial": 44, "dateTime": 1513545486342, "trialdata": {"rt": -1, "stimulus": "<p id=\"stim\">10</p>", "key_press": -1, "trial_type": "single-stim", "trial_index": 44, "time_elapsed": 312589, "internal_node_id": "0.0-35.0-0.0"}}, {"uniqueid": "MTK1301:32SCWG5HIIB2IWBBS8UBKXV4NI76PJ", "current_trial": 45, "dateTime": 1513545487344, "trialdata": {"rt": -1, "stimulus": "<p id=\"stim\">9</p>", "key_press": -1, "trial_type": "single-stim", "trial_index": 45, "time_elapsed": 313591, "internal_node_id": "0.0-35.0-1.0"}}, {"uniqueid": "MTK1301:32SCWG5HIIB2IWBBS8UBKXV4NI76PJ", "current_trial": 46, "dateTime": 1513545488346, "trialdata": {"rt": -1, "stimulus": "<p id=\"stim\">8</p>", "key_press": -1, "trial_type": "single-stim", "trial_index": 46, "time_elapsed": 314592, "internal_node_id": "0.0-35.0-2.0"}}, {"uniqueid": "MTK1301:32SCWG5HIIB2IWBBS8UBKXV4NI76PJ", "current_trial": 47, "dateTime": 1513545489348, "trialdata": {"rt": -1, "stimulus": "<p id=\"stim\">7</p>", "key_press": -1, "trial_type": "single-stim", "trial_index": 47, "time_elapsed": 315595, "internal_node_id": "0.0-35.0-3.0"}}, {"uniqueid": "MTK1301:32SCWG5HIIB2IWBBS8UBKXV4NI76PJ", "current_trial": 48, "dateTime": 1513545490351, "trialdata": {"rt": -1, "stimulus": "<p id=\"stim\">6</p>", "key_press": -1, "trial_type": "single-stim", "trial_index": 48, "time_elapsed": 316598, "internal_node_id": "0.0-35.0-4.0"}}, {"uniqueid": "MTK1301:32SCWG5HIIB2IWBBS8UBKXV4NI76PJ", "current_trial": 49, "dateTime": 1513545491353, "trialdata": {"rt": -1, "stimulus": "<p id=\"stim\">5</p>", "key_press": -1, "trial_type": "single-stim", "trial_index": 49, "time_elapsed": 317599, "internal_node_id": "0.0-35.0-5.0"}}, {"uniqueid": "MTK1301:32SCWG5HIIB2IWBBS8UBKXV4NI76PJ", "current_trial": 50, "dateTime": 1513545492354, "trialdata": {"rt": -1, "stimulus": "<p id=\"stim\">4</p>", "key_press": -1, "trial_type": "single-stim", "trial_index": 50, "time_elapsed": 318601, "internal_node_id": "0.0-35.0-6.0"}}, {"uniqueid": "MTK1301:32SCWG5HIIB2IWBBS8UBKXV4NI76PJ", "current_trial": 51, "dateTime": 1513545493357, "trialdata": {"rt": -1, "stimulus": "<p id=\"stim\">3</p>", "key_press": -1, "trial_type": "single-stim", "trial_index": 51, "time_elapsed": 319604, "internal_node_id": "0.0-35.0-7.0"}}, {"uniqueid": "MTK1301:32SCWG5HIIB2IWBBS8UBKXV4NI76PJ", "current_trial": 52, "dateTime": 1513545494359, "trialdata": {"rt": -1, "stimulus": "<p id=\"stim\">2</p>", "key_press": -1, "trial_type": "single-stim", "trial_index": 52, "time_elapsed": 320605, "internal_node_id": "0.0-35.0-8.0"}}, {"uniqueid": "MTK1301:32SCWG5HIIB2IWBBS8UBKXV4NI76PJ", "current_trial": 53, "dateTime": 1513545495361, "trialdata": {"rt": -1, "stimulus": "<p id=\"stim\">1</p>", "key_press": -1, "trial_type": "single-stim", "trial_index": 53, "time_elapsed": 321608, "internal_node_id": "0.0-35.0-9.0"}}, {"uniqueid": "MTK1301:32SCWG5HIIB2IWBBS8UBKXV4NI76PJ", "current_trial": 54, "dateTime": 1513545496863, "trialdata": {"rt": -1, "stimulus": "<p id=\"stim\">+</p>", "key_press": -1, "type": "FIXATION", "trial_type": "single-stim", "trial_index": 54, "time_elapsed": 323110, "internal_node_id": "0.0-36.0-0.0"}}, {"uniqueid": "MTK1301:32SCWG5HIIB2IWBBS8UBKXV4NI76PJ", "current_trial": 55, "dateTime": 1513545498066, "trialdata": {"rt": -1, "stimulus": "<p id=\"stim\">PILOT</p>", "key_press": -1, "type": "PRES_VIS", "word": "pilot", "wordID": 1069, "conditions": [18, 1200, "v", 18000], "trial": 1, "serialpos": 0, "trial_type": "single-stim", "trial_index": 55, "time_elapsed": 324312, "internal_node_id": "0.0-37.0"}}, {"uniqueid": "MTK1301:32SCWG5HIIB2IWBBS8UBKXV4NI76PJ", "current_trial": 56, "dateTime": 1513545500091, "trialdata": {"rt": -1, "stimulus": "<p id=\"stim\">CAMEL</p>", "key_press": -1, "type": "PRES_VIS", "word": "camel", "wordID": 222, "conditions": [18, 1200, "v", 18000], "trial": 1, "serialpos": 1, "trial_type": "single-stim", "trial_index": 56, "time_elapsed": 326338, "internal_node_id": "0.0-38.0"}}, {"uniqueid": "MTK1301:32SCWG5HIIB2IWBBS8UBKXV4NI76PJ", "current_trial": 57, "dateTime": 1513545502209, "trialdata": {"rt": -1, "stimulus": "<p id=\"stim\">OFFICE</p>", "key_press": -1, "type": "PRES_VIS", "word": "office", "wordID": 971, "conditions": [18, 1200, "v", 18000], "trial": 1, "serialpos": 2, "trial_type": "single-stim", "trial_index": 57, "time_elapsed": 328456, "internal_node_id": "0.0-39.0"}}, {"uniqueid": "MTK1301:32SCWG5HIIB2IWBBS8UBKXV4NI76PJ", "current_trial": 58, "dateTime": 1513545504402, "trialdata": {"rt": -1, "stimulus": "<p id=\"stim\">VICTIM</p>", "key_press": -1, "type": "PRES_VIS", "word": "victim", "wordID": 1561, "conditions": [18, 1200, "v", 18000], "trial": 1, "serialpos": 3, "trial_type": "single-stim", "trial_index": 58, "time_elapsed": 330649, "internal_node_id": "0.0-40.0"}}, {"uniqueid": "MTK1301:32SCWG5HIIB2IWBBS8UBKXV4NI76PJ", "current_trial": 59, "dateTime": 1513545506768, "trialdata": {"rt": -1, "stimulus": "<p id=\"stim\">CARROT</p>", "key_press": -1, "type": "PRES_VIS", "word": "carrot", "wordID": 248, "conditions": [18, 1200, "v", 18000], "trial": 1, "serialpos": 4, "trial_type": "single-stim", "trial_index": 59, "time_elapsed": 333015, "internal_node_id": "0.0-41.0"}}, {"uniqueid": "MTK1301:32SCWG5HIIB2IWBBS8UBKXV4NI76PJ", "current_trial": 60, "dateTime": 1513545508786, "trialdata": {"rt": -1, "stimulus": "<p id=\"stim\">SANDWICH</p>", "key_press": -1, "type": "PRES_VIS", "word": "sandwich", "wordID": 1231, "conditions": [18, 1200, "v", 18000], "trial": 1, "serialpos": 5, "trial_type": "single-stim", "trial_index": 60, "time_elapsed": 335032, "internal_node_id": "0.0-42.0"}}, {"uniqueid": "MTK1301:32SCWG5HIIB2IWBBS8UBKXV4NI76PJ", "current_trial": 61, "dateTime": 1513545511013, "trialdata": {"rt": -1, "stimulus": "<p id=\"stim\">FIREPLACE</p>", "key_press": -1, "type": "PRES_VIS", "word": "fireplace", "wordID": 569, "conditions": [18, 1200, "v", 18000], "trial": 1, "serialpos": 6, "trial_type": "single-stim", "trial_index": 61, "time_elapsed": 337260, "internal_node_id": "0.0-43.0"}}, {"uniqueid": "MTK1301:32SCWG5HIIB2IWBBS8UBKXV4NI76PJ", "current_trial": 62, "dateTime": 1513545513313, "trialdata": {"rt": -1, "stimulus": "<p id=\"stim\">LAMP</p>", "key_press": -1, "type": "PRES_VIS", "word": "lamp", "wordID": 797, "conditions": [18, 1200, "v", 18000], "trial": 1, "serialpos": 7, "trial_type": "single-stim", "trial_index": 62, "time_elapsed": 339560, "internal_node_id": "0.0-44.0"}}, {"uniqueid": "MTK1301:32SCWG5HIIB2IWBBS8UBKXV4NI76PJ", "current_trial": 63, "dateTime": 1513545515524, "trialdata": {"rt": -1, "stimulus": "<p id=\"stim\">BUREAU</p>", "key_press": -1, "type": "PRES_VIS", "word": "bureau", "wordID": 198, "conditions": [18, 1200, "v", 18000], "trial": 1, "serialpos": 8, "trial_type": "single-stim", "trial_index": 63, "time_elapsed": 341771, "internal_node_id": "0.0-45.0"}}, {"uniqueid": "MTK1301:32SCWG5HIIB2IWBBS8UBKXV4NI76PJ", "current_trial": 64, "dateTime": 1513545517552, "trialdata": {"rt": -1, "stimulus": "<p id=\"stim\">VENUS</p>", "key_press": -1, "type": "PRES_VIS", "word": "venus", "wordID": 1556, "conditions": [18, 1200, "v", 18000], "trial": 1, "serialpos": 9, "trial_type": "single-stim", "trial_index": 64, "time_elapsed": 343798, "internal_node_id": "0.0-46.0"}}, {"uniqueid": "MTK1301:32SCWG5HIIB2IWBBS8UBKXV4NI76PJ", "current_trial": 65, "dateTime": 1513545519566, "trialdata": {"rt": -1, "stimulus": "<p id=\"stim\">FOREHEAD</p>", "key_press": -1, "type": "PRES_VIS", "word": "forehead", "wordID": 591, "conditions": [18, 1200, "v", 18000], "trial": 1, "serialpos": 10, "trial_type": "single-stim", "trial_index": 65, "time_elapsed": 345813, "internal_node_id": "0.0-47.0"}}, {"uniqueid": "MTK1301:32SCWG5HIIB2IWBBS8UBKXV4NI76PJ", "current_trial": 66, "dateTime": 1513545521636, "trialdata": {"rt": -1, "stimulus": "<p id=\"stim\">JUNGLE</p>", "key_press": -1, "type": "PRES_VIS", "word": "jungle", "wordID": 763, "conditions": [18, 1200, "v", 18000], "trial": 1, "serialpos": 11, "trial_type": "single-stim", "trial_index": 66, "time_elapsed": 347882, "internal_node_id": "0.0-48.0"}}, {"uniqueid": "MTK1301:32SCWG5HIIB2IWBBS8UBKXV4NI76PJ", "current_trial": 67, "dateTime": 1513545523965, "trialdata": {"rt": -1, "stimulus": "<p id=\"stim\">HAWK</p>", "key_press": -1, "type": "PRES_VIS", "word": "hawk", "wordID": 691, "conditions": [18, 1200, "v", 18000], "trial": 1, "serialpos": 12, "trial_type": "single-stim", "trial_index": 67, "time_elapsed": 350211, "internal_node_id": "0.0-49.0"}}, {"uniqueid": "MTK1301:32SCWG5HIIB2IWBBS8UBKXV4NI76PJ", "current_trial": 68, "dateTime": 1513545526234, "trialdata": {"rt": -1, "stimulus": "<p id=\"stim\">LILY</p>", "key_press": -1, "type": "PRES_VIS", "word": "lily", "wordID": 820, "conditions": [18, 1200, "v", 18000], "trial": 1, "serialpos": 13, "trial_type": "single-stim", "trial_index": 68, "time_elapsed": 352476, "internal_node_id": "0.0-50.0"}}, {"uniqueid": "MTK1301:32SCWG5HIIB2IWBBS8UBKXV4NI76PJ", "current_trial": 69, "dateTime": 1513545528429, "trialdata": {"rt": -1, "stimulus": "<p id=\"stim\">TUNNEL</p>", "key_press": -1, "type": "PRES_VIS", "word": "tunnel", "wordID": 1518, "conditions": [18, 1200, "v", 18000], "trial": 1, "serialpos": 14, "trial_type": "single-stim", "trial_index": 69, "time_elapsed": 354675, "internal_node_id": "0.0-51.0"}}, {"uniqueid": "MTK1301:32SCWG5HIIB2IWBBS8UBKXV4NI76PJ", "current_trial": 70, "dateTime": 1513545530536, "trialdata": {"rt": -1, "stimulus": "<p id=\"stim\">BANJO</p>", "key_press": -1, "type": "PRES_VIS", "word": "banjo", "wordID": 81, "conditions": [18, 1200, "v", 18000], "trial": 1, "serialpos": 15, "trial_type": "single-stim", "trial_index": 70, "time_elapsed": 356783, "internal_node_id": "0.0-52.0"}}, {"uniqueid": "MTK1301:32SCWG5HIIB2IWBBS8UBKXV4NI76PJ", "current_trial": 71, "dateTime": 1513545532805, "trialdata": {"rt": -1, "stimulus": "<p id=\"stim\">STATUE</p>", "key_press": -1, "type": "PRES_VIS", "word": "statue", "wordID": 1373, "conditions": [18, 1200, "v", 18000], "trial": 1, "serialpos": 16, "trial_type": "single-stim", "trial_index": 71, "time_elapsed": 359052, "internal_node_id": "0.0-53.0"}}, {"uniqueid": "MTK1301:32SCWG5HIIB2IWBBS8UBKXV4NI76PJ", "current_trial": 72, "dateTime": 1513545534925, "trialdata": {"rt": -1, "stimulus": "<p id=\"stim\">SILK</p>", "key_press": -1, "type": "PRES_VIS", "word": "silk", "wordID": 1306, "conditions": [18, 1200, "v", 18000], "trial": 1, "serialpos": 17, "trial_type": "single-stim", "trial_index": 72, "time_elapsed": 361172, "internal_node_id": "0.0-54.0"}}, {"uniqueid": "MTK1301:32SCWG5HIIB2IWBBS8UBKXV4NI76PJ", "current_trial": 73, "dateTime": 1513545537223, "trialdata": {"rt": -1, "stimulus": "", "key_press": -1, "type": "PRE_RECALL_DELAY", "trial_type": "single-stim", "trial_index": 73, "time_elapsed": 363470, "internal_node_id": "0.0-55.0-0.0"}}, {"uniqueid": "MTK1301:32SCWG5HIIB2IWBBS8UBKXV4NI76PJ", "current_trial": 74, "dateTime": 1513545537726, "trialdata": {"rt": -1000, "stimulus": "/static/audio/400Hz.wav", "key_press": -1, "type": "PRE_RECALL_ALERT", "trial_type": "single-audio", "trial_index": 74, "time_elapsed": 363972, "internal_node_id": "0.0-56.0"}}, {"uniqueid": "MTK1301:32SCWG5HIIB2IWBBS8UBKXV4NI76PJ", "current_trial": 75, "dateTime": 1513545597735, "trialdata": {"rt": [5256, 8493, 26103, 29229, 48680, 51924, 56220], "recwords": ["banjo", "lamp", "office", "bureau", "pilot", "carrot", "sandwich"], "type": "FREE_RECALL", "conditions": [18, 1200, "v", 18000], "trial": 1, "trial_type": "free-recall", "trial_index": 75, "time_elapsed": 423977, "internal_node_id": "0.0-57.0-0.0"}}, {"uniqueid": "MTK1301:32SCWG5HIIB2IWBBS8UBKXV4NI76PJ", "current_trial": 76, "dateTime": 1513545605241, "trialdata": {"rt": 5496, "key_press": 32, "type": "INSTRUCTIONS", "trial_type": "text", "trial_index": 76, "time_elapsed": 431481, "internal_node_id": "0.0-58.0"}}, {"uniqueid": "MTK1301:32SCWG5HIIB2IWBBS8UBKXV4NI76PJ", "current_trial": 77, "dateTime": 1513545630249, "trialdata": {"rt": [3844, 5729, 7625, 9846, 12857, 18143, 23893], "responses": ["14", "17", "13", "18", "185", "14", "9"], "num1": [3, 7, 7, 4, 8, 3, 6, 8], "num2": [4, 1, 5, 7, 3, 4, 2, 7], "num3": [7, 9, 1, 7, 7, 7, 1, 2], "type": "DISTRACTOR", "conditions": [24, 1600, "v", 24000], "trial": 2, "trial_type": "math-distractor", "trial_index": 77, "time_elapsed": 456496, "internal_node_id": "0.0-59.0"}}, {"uniqueid": "MTK1301:32SCWG5HIIB2IWBBS8UBKXV4NI76PJ", "current_trial": 78, "dateTime": 1513545633253, "trialdata": {"rt": -1, "stimulus": "<p id=\"stim\">10</p>", "key_press": -1, "trial_type": "single-stim", "trial_index": 78, "time_elapsed": 459499, "internal_node_id": "0.0-60.0-0.0"}}, {"uniqueid": "MTK1301:32SCWG5HIIB2IWBBS8UBKXV4NI76PJ", "current_trial": 79, "dateTime": 1513545634254, "trialdata": {"rt": -1, "stimulus": "<p id=\"stim\">9</p>", "key_press": -1, "trial_type": "single-stim", "trial_index": 79, "time_elapsed": 460501, "internal_node_id": "0.0-60.0-1.0"}}, {"uniqueid": "MTK1301:32SCWG5HIIB2IWBBS8UBKXV4NI76PJ", "current_trial": 80, "dateTime": 1513545635256, "trialdata": {"rt": -1, "stimulus": "<p id=\"stim\">8</p>", "key_press": -1, "trial_type": "single-stim", "trial_index": 80, "time_elapsed": 461503, "internal_node_id": "0.0-60.0-2.0"}}, {"uniqueid": "MTK1301:32SCWG5HIIB2IWBBS8UBKXV4NI76PJ", "current_trial": 81, "dateTime": 1513545636258, "trialdata": {"rt": -1, "stimulus": "<p id=\"stim\">7</p>", "key_press": -1, "trial_type": "single-stim", "trial_index": 81, "time_elapsed": 462505, "internal_node_id": "0.0-60.0-3.0"}}, {"uniqueid": "MTK1301:32SCWG5HIIB2IWBBS8UBKXV4NI76PJ", "current_trial": 82, "dateTime": 1513545637260, "trialdata": {"rt": -1, "stimulus": "<p id=\"stim\">6</p>", "key_press": -1, "trial_type": "single-stim", "trial_index": 82, "time_elapsed": 463506, "internal_node_id": "0.0-60.0-4.0"}}, {"uniqueid": "MTK1301:32SCWG5HIIB2IWBBS8UBKXV4NI76PJ", "current_trial": 83, "dateTime": 1513545638262, "trialdata": {"rt": -1, "stimulus": "<p id=\"stim\">5</p>", "key_press": -1, "trial_type": "single-stim", "trial_index": 83, "time_elapsed": 464509, "internal_node_id": "0.0-60.0-5.0"}}, {"uniqueid": "MTK1301:32SCWG5HIIB2IWBBS8UBKXV4NI76PJ", "current_trial": 84, "dateTime": 1513545639264, "trialdata": {"rt": -1, "stimulus": "<p id=\"stim\">4</p>", "key_press": -1, "trial_type": "single-stim", "trial_index": 84, "time_elapsed": 465511, "internal_node_id": "0.0-60.0-6.0"}}, {"uniqueid": "MTK1301:32SCWG5HIIB2IWBBS8UBKXV4NI76PJ", "current_trial": 85, "dateTime": 1513545640266, "trialdata": {"rt": -1, "stimulus": "<p id=\"stim\">3</p>", "key_press": -1, "trial_type": "single-stim", "trial_index": 85, "time_elapsed": 466513, "internal_node_id": "0.0-60.0-7.0"}}, {"uniqueid": "MTK1301:32SCWG5HIIB2IWBBS8UBKXV4NI76PJ", "current_trial": 86, "dateTime": 1513545641268, "trialdata": {"rt": -1, "stimulus": "<p id=\"stim\">2</p>", "key_press": -1, "trial_type": "single-stim", "trial_index": 86, "time_elapsed": 467515, "internal_node_id": "0.0-60.0-8.0"}}, {"uniqueid": "MTK1301:32SCWG5HIIB2IWBBS8UBKXV4NI76PJ", "current_trial": 87, "dateTime": 1513545642272, "trialdata": {"rt": -1, "stimulus": "<p id=\"stim\">1</p>", "key_press": -1, "trial_type": "single-stim", "trial_index": 87, "time_elapsed": 468517, "internal_node_id": "0.0-60.0-9.0"}}, {"uniqueid": "MTK1301:32SCWG5HIIB2IWBBS8UBKXV4NI76PJ", "current_trial": 88, "dateTime": 1513545643774, "trialdata": {"rt": -1, "stimulus": "<p id=\"stim\">+</p>", "key_press": -1, "type": "FIXATION", "trial_type": "single-stim", "trial_index": 88, "time_elapsed": 470021, "internal_node_id": "0.0-61.0-0.0"}}, {"uniqueid": "MTK1301:32SCWG5HIIB2IWBBS8UBKXV4NI76PJ", "current_trial": 89, "dateTime": 1513545645376, "trialdata": {"rt": -1, "stimulus": "<p id=\"stim\">HORNET</p>", "key_press": -1, "type": "PRES_VIS", "word": "hornet", "wordID": 717, "conditions": [24, 1600, "v", 24000], "trial": 2, "serialpos": 0, "trial_type": "single-stim", "trial_index": 89, "time_elapsed": 471623, "internal_node_id": "0.0-62.0"}}, {"uniqueid": "MTK1301:32SCWG5HIIB2IWBBS8UBKXV4NI76PJ", "current_trial": 90, "dateTime": 1513545647987, "trialdata": {"rt": -1, "stimulus": "<p id=\"stim\">WASP</p>", "key_press": -1, "type": "PRES_VIS", "word": "wasp", "wordID": 1592, "conditions": [24, 1600, "v", 24000], "trial": 2, "serialpos": 1, "trial_type": "single-stim", "trial_index": 90, "time_elapsed": 474234, "internal_node_id": "0.0-63.0"}}, {"uniqueid": "MTK1301:32SCWG5HIIB2IWBBS8UBKXV4NI76PJ", "current_trial": 91, "dateTime": 1513545650433, "trialdata": {"rt": -1, "stimulus": "<p id=\"stim\">MARKER</p>", "key_press": -1, "type": "PRES_VIS", "word": "marker", "wordID": 869, "conditions": [24, 1600, "v", 24000], "trial": 2, "serialpos": 2, "trial_type": "single-stim", "trial_index": 91, "time_elapsed": 476679, "internal_node_id": "0.0-64.0"}}, {"uniqueid": "MTK1301:32SCWG5HIIB2IWBBS8UBKXV4NI76PJ", "current_trial": 92, "dateTime": 1513545653018, "trialdata": {"rt": -1, "stimulus": "<p id=\"stim\">ROBIN</p>", "key_press": -1, "type": "PRES_VIS", "word": "robin", "wordID": 1198, "conditions": [24, 1600, "v", 24000], "trial": 2, "serialpos": 3, "trial_type": "single-stim", "trial_index": 92, "time_elapsed": 479265, "internal_node_id": "0.0-65.0"}}, {"uniqueid": "MTK1301:32SCWG5HIIB2IWBBS8UBKXV4NI76PJ", "current_trial": 93, "dateTime": 1513545655728, "trialdata": {"rt": -1, "stimulus": "<p id=\"stim\">PASTA</p>", "key_press": -1, "type": "PRES_VIS", "word": "pasta", "wordID": 1020, "conditions": [24, 1600, "v", 24000], "trial": 2, "serialpos": 4, "trial_type": "single-stim", "trial_index": 93, "time_elapsed": 481974, "internal_node_id": "0.0-66.0"}}, {"uniqueid": "MTK1301:32SCWG5HIIB2IWBBS8UBKXV4NI76PJ", "current_trial": 94, "dateTime": 1513545658246, "trialdata": {"rt": -1, "stimulus": "<p id=\"stim\">SPOUSE</p>", "key_press": -1, "type": "PRES_VIS", "word": "spouse", "wordID": 1357, "conditions": [24, 1600, "v", 24000], "trial": 2, "serialpos": 5, "trial_type": "single-stim", "trial_index": 94, "time_elapsed": 484493, "internal_node_id": "0.0-67.0"}}, {"uniqueid": "MTK1301:32SCWG5HIIB2IWBBS8UBKXV4NI76PJ", "current_trial": 95, "dateTime": 1513545660809, "trialdata": {"rt": -1, "stimulus": "<p id=\"stim\">PASSAGE</p>", "key_press": -1, "type": "PRES_VIS", "word": "passage", "wordID": 1018, "conditions": [24, 1600, "v", 24000], "trial": 2, "serialpos": 6, "trial_type": "single-stim", "trial_index": 95, "time_elapsed": 487056, "internal_node_id": "0.0-68.0"}}, {"uniqueid": "MTK1301:32SCWG5HIIB2IWBBS8UBKXV4NI76PJ", "current_trial": 96, "dateTime": 1513545663532, "trialdata": {"rt": -1, "stimulus": "<p id=\"stim\">PACKAGE</p>", "key_press": -1, "type": "PRES_VIS", "word": "package", "wordID": 996, "conditions": [24, 1600, "v", 24000], "trial": 2, "serialpos": 7, "trial_type": "single-stim", "trial_index": 96, "time_elapsed": 489779, "internal_node_id": "0.0-69.0"}}, {"uniqueid": "MTK1301:32SCWG5HIIB2IWBBS8UBKXV4NI76PJ", "current_trial": 97, "dateTime": 1513545665952, "trialdata": {"rt": -1, "stimulus": "<p id=\"stim\">VIKING</p>", "key_press": -1, "type": "PRES_VIS", "word": "viking", "wordID": 1564, "conditions": [24, 1600, "v", 24000], "trial": 2, "serialpos": 8, "trial_type": "single-stim", "trial_index": 97, "time_elapsed": 492199, "internal_node_id": "0.0-70.0"}}, {"uniqueid": "MTK1301:32SCWG5HIIB2IWBBS8UBKXV4NI76PJ", "current_trial": 98, "dateTime": 1513545668494, "trialdata": {"rt": -1, "stimulus": "<p id=\"stim\">CITRUS</p>", "key_press": -1, "type": "PRES_VIS", "word": "citrus", "wordID": 312, "conditions": [24, 1600, "v", 24000], "trial": 2, "serialpos": 9, "trial_type": "single-stim", "trial_index": 98, "time_elapsed": 494741, "internal_node_id": "0.0-71.0"}}, {"uniqueid": "MTK1301:32SCWG5HIIB2IWBBS8UBKXV4NI76PJ", "current_trial": 99, "dateTime": 1513545670976, "trialdata": {"rt": -1, "stimulus": "<p id=\"stim\">WIFE</p>", "key_press": -1, "type": "PRES_VIS", "word": "wife", "wordID": 1608, "conditions": [24, 1600, "v", 24000], "trial": 2, "serialpos": 10, "trial_type": "single-stim", "trial_index": 99, "time_elapsed": 497223, "internal_node_id": "0.0-72.0"}}, {"uniqueid": "MTK1301:32SCWG5HIIB2IWBBS8UBKXV4NI76PJ", "current_trial": 100, "dateTime": 1513545673484, "trialdata": {"rt": -1, "stimulus": "<p id=\"stim\">MUMMY</p>", "key_press": -1, "type": "PRES_VIS", "word": "mummy", "wordID": 931, "conditions": [24, 1600, "v", 24000], "trial": 2, "serialpos": 11, "trial_type": "single-stim", "trial_index": 100, "time_elapsed": 499731, "internal_node_id": "0.0-73.0"}}, {"uniqueid": "MTK1301:32SCWG5HIIB2IWBBS8UBKXV4NI76PJ", "current_trial": 101, "dateTime": 1513545676018, "trialdata": {"rt": -1, "stimulus": "<p id=\"stim\">OMELET</p>", "key_press": -1, "type": "PRES_VIS", "word": "omelet", "wordID": 975, "conditions": [24, 1600, "v", 24000], "trial": 2, "serialpos": 12, "trial_type": "single-stim", "trial_index": 101, "time_elapsed": 502264, "internal_node_id": "0.0-74.0"}}, {"uniqueid": "MTK1301:32SCWG5HIIB2IWBBS8UBKXV4NI76PJ", "current_trial": 102, "dateTime": 1513545678461, "trialdata": {"rt": -1, "stimulus": "<p id=\"stim\">SHORTCAKE</p>", "key_press": -1, "type": "PRES_VIS", "word": "shortcake", "wordID": 1291, "conditions": [24, 1600, "v", 24000], "trial": 2, "serialpos": 13, "trial_type": "single-stim", "trial_index": 102, "time_elapsed": 504708, "internal_node_id": "0.0-75.0"}}, {"uniqueid": "MTK1301:32SCWG5HIIB2IWBBS8UBKXV4NI76PJ", "current_trial": 103, "dateTime": 1513545681182, "trialdata": {"rt": -1, "stimulus": "<p id=\"stim\">SUPPER</p>", "key_press": -1, "type": "PRES_VIS", "word": "supper", "wordID": 1410, "conditions": [24, 1600, "v", 24000], "trial": 2, "serialpos": 14, "trial_type": "single-stim", "trial_index": 103, "time_elapsed": 507429, "internal_node_id": "0.0-76.0"}}, {"uniqueid": "MTK1301:32SCWG5HIIB2IWBBS8UBKXV4NI76PJ", "current_trial": 104, "dateTime": 1513545683793, "trialdata": {"rt": -1, "stimulus": "<p id=\"stim\">BANQUET</p>", "key_press": -1, "type": "PRES_VIS", "word": "banquet", "wordID": 85, "conditions": [24, 1600, "v", 24000], "trial": 2, "serialpos": 15, "trial_type": "single-stim", "trial_index": 104, "time_elapsed": 510040, "internal_node_id": "0.0-77.0"}}, {"uniqueid": "MTK1301:32SCWG5HIIB2IWBBS8UBKXV4NI76PJ", "current_trial": 105, "dateTime": 1513545686309, "trialdata": {"rt": -1, "stimulus": "<p id=\"stim\">CANYON</p>", "key_press": -1, "type": "PRES_VIS", "word": "canyon", "wordID": 234, "conditions": [24, 1600, "v", 24000], "trial": 2, "serialpos": 16, "trial_type": "single-stim", "trial_index": 105, "time_elapsed": 512556, "internal_node_id": "0.0-78.0"}}, {"uniqueid": "MTK1301:32SCWG5HIIB2IWBBS8UBKXV4NI76PJ", "current_trial": 106, "dateTime": 1513545688722, "trialdata": {"rt": -1, "stimulus": "<p id=\"stim\">DAUGHTER</p>", "key_press": -1, "type": "PRES_VIS", "word": "daughter", "wordID": 441, "conditions": [24, 1600, "v", 24000], "trial": 2, "serialpos": 17, "trial_type": "single-stim", "trial_index": 106, "time_elapsed": 514969, "internal_node_id": "0.0-79.0"}}, {"uniqueid": "MTK1301:32SCWG5HIIB2IWBBS8UBKXV4NI76PJ", "current_trial": 107, "dateTime": 1513545691523, "trialdata": {"rt": -1, "stimulus": "<p id=\"stim\">FIREMAN</p>", "key_press": -1, "type": "PRES_VIS", "word": "fireman", "wordID": 568, "conditions": [24, 1600, "v", 24000], "trial": 2, "serialpos": 18, "trial_type": "single-stim", "trial_index": 107, "time_elapsed": 517770, "internal_node_id": "0.0-80.0"}}, {"uniqueid": "MTK1301:32SCWG5HIIB2IWBBS8UBKXV4NI76PJ", "current_trial": 108, "dateTime": 1513545693990, "trialdata": {"rt": -1, "stimulus": "<p id=\"stim\">BIKE</p>", "key_press": -1, "type": "PRES_VIS", "word": "bike", "wordID": 124, "conditions": [24, 1600, "v", 24000], "trial": 2, "serialpos": 19, "trial_type": "single-stim", "trial_index": 108, "time_elapsed": 520237, "internal_node_id": "0.0-81.0"}}, {"uniqueid": "MTK1301:32SCWG5HIIB2IWBBS8UBKXV4NI76PJ", "current_trial": 109, "dateTime": 1513545696673, "trialdata": {"rt": -1, "stimulus": "<p id=\"stim\">ICING</p>", "key_press": -1, "type": "PRES_VIS", "word": "icing", "wordID": 731, "conditions": [24, 1600, "v", 24000], "trial": 2, "serialpos": 20, "trial_type": "single-stim", "trial_index": 109, "time_elapsed": 522919, "internal_node_id": "0.0-82.0"}}, {"uniqueid": "MTK1301:32SCWG5HIIB2IWBBS8UBKXV4NI76PJ", "current_trial": 110, "dateTime": 1513545699194, "trialdata": {"rt": -1, "stimulus": "<p id=\"stim\">VALLEY</p>", "key_press": -1, "type": "PRES_VIS", "word": "valley", "wordID": 1544, "conditions": [24, 1600, "v", 24000], "trial": 2, "serialpos": 21, "trial_type": "single-stim", "trial_index": 110, "time_elapsed": 525441, "internal_node_id": "0.0-83.0"}}, {"uniqueid": "MTK1301:32SCWG5HIIB2IWBBS8UBKXV4NI76PJ", "current_trial": 111, "dateTime": 1513545701936, "trialdata": {"rt": -1, "stimulus": "<p id=\"stim\">SCALLOP</p>", "key_press": -1, "type": "PRES_VIS", "word": "scallop", "wordID": 1241, "conditions": [24, 1600, "v", 24000], "trial": 2, "serialpos": 22, "trial_type": "single-stim", "trial_index": 111, "time_elapsed": 528182, "internal_node_id": "0.0-84.0"}}, {"uniqueid": "MTK1301:32SCWG5HIIB2IWBBS8UBKXV4NI76PJ", "current_trial": 112, "dateTime": 1513545704472, "trialdata": {"rt": -1, "stimulus": "<p id=\"stim\">DONKEY</p>", "key_press": -1, "type": "PRES_VIS", "word": "donkey", "wordID": 483, "conditions": [24, 1600, "v", 24000], "trial": 2, "serialpos": 23, "trial_type": "single-stim", "trial_index": 112, "time_elapsed": 530719, "internal_node_id": "0.0-85.0"}}, {"uniqueid": "MTK1301:32SCWG5HIIB2IWBBS8UBKXV4NI76PJ", "current_trial": 113, "dateTime": 1513545706643, "trialdata": {"rt": -1, "stimulus": "", "key_press": -1, "type": "PRE_RECALL_DELAY", "trial_type": "single-stim", "trial_index": 113, "time_elapsed": 532890, "internal_node_id": "0.0-86.0-0.0"}}, {"uniqueid": "MTK1301:32SCWG5HIIB2IWBBS8UBKXV4NI76PJ", "current_trial": 114, "dateTime": 1513545707146, "trialdata": {"rt": -1000, "stimulus": "/static/audio/400Hz.wav", "key_press": -1, "type": "PRE_RECALL_ALERT", "trial_type": "single-audio", "trial_index": 114, "time_elapsed": 533393, "internal_node_id": "0.0-87.0"}}, {"uniqueid": "MTK1301:32SCWG5HIIB2IWBBS8UBKXV4NI76PJ", "current_trial": 115, "dateTime": 1513545767155, "trialdata": {"rt": [1545, 3677, 4836, 6262, 7870, 9529, 10875, 15037, 16687, 23273, 29552, 30675, 32400, 54216, 59638], "recwords": ["donkey", "scallop", "viking", "valley", "canyon", "package", "pasta", "spouse", "wife", "carrots", "wasp", "hornet", "marker", "passage", "citrus"], "type": "FREE_RECALL", "conditions": [24, 1600, "v", 24000], "trial": 2, "trial_type": "free-recall", "trial_index": 115, "time_elapsed": 593397, "internal_node_id": "0.0-88.0-0.0"}}, {"uniqueid": "MTK1301:32SCWG5HIIB2IWBBS8UBKXV4NI76PJ", "current_trial": 116, "dateTime": 1513545771208, "trialdata": {"rt": 2050, "key_press": 32, "type": "INSTRUCTIONS", "trial_type": "text", "trial_index": 116, "time_elapsed": 597455, "internal_node_id": "0.0-89.0"}}, {"uniqueid": "MTK1301:32SCWG5HIIB2IWBBS8UBKXV4NI76PJ", "current_trial": 117, "dateTime": 1513545785214, "trialdata": {"rt": [2778, 4429, 6663, 8591, 10206], "responses": ["14", "10", "14", "12", "11"], "num1": [3, 5, 3, 2, 7, 8], "num2": [9, 1, 3, 2, 3, 7], "num3": [2, 4, 8, 8, 1, 4], "type": "DISTRACTOR", "conditions": [12, 1600, "v", 12000], "trial": 3, "trial_type": "math-distractor", "trial_index": 117, "time_elapsed": 611460, "internal_node_id": "0.0-90.0"}}, {"uniqueid": "MTK1301:32SCWG5HIIB2IWBBS8UBKXV4NI76PJ", "current_trial": 118, "dateTime": 1513545788216, "trialdata": {"rt": -1, "stimulus": "<p id=\"stim\">10</p>", "key_press": -1, "trial_type": "single-stim", "trial_index": 118, "time_elapsed": 614463, "internal_node_id": "0.0-91.0-0.0"}}, {"uniqueid": "MTK1301:32SCWG5HIIB2IWBBS8UBKXV4NI76PJ", "current_trial": 119, "dateTime": 1513545789219, "trialdata": {"rt": -1, "stimulus": "<p id=\"stim\">9</p>", "key_press": -1, "trial_type": "single-stim", "trial_index": 119, "time_elapsed": 615466, "internal_node_id": "0.0-91.0-1.0"}}, {"uniqueid": "MTK1301:32SCWG5HIIB2IWBBS8UBKXV4NI76PJ", "current_trial": 120, "dateTime": 1513545790221, "trialdata": {"rt": -1, "stimulus": "<p id=\"stim\">8</p>", "key_press": -1, "trial_type": "single-stim", "trial_index": 120, "time_elapsed": 616467, "internal_node_id": "0.0-91.0-2.0"}}, {"uniqueid": "MTK1301:32SCWG5HIIB2IWBBS8UBKXV4NI76PJ", "current_trial": 121, "dateTime": 1513545791223, "trialdata": {"rt": -1, "stimulus": "<p id=\"stim\">7</p>", "key_press": -1, "trial_type": "single-stim", "trial_index": 121, "time_elapsed": 617470, "internal_node_id": "0.0-91.0-3.0"}}, {"uniqueid": "MTK1301:32SCWG5HIIB2IWBBS8UBKXV4NI76PJ", "current_trial": 122, "dateTime": 1513545792226, "trialdata": {"rt": -1, "stimulus": "<p id=\"stim\">6</p>", "key_press": -1, "trial_type": "single-stim", "trial_index": 122, "time_elapsed": 618473, "internal_node_id": "0.0-91.0-4.0"}}, {"uniqueid": "MTK1301:32SCWG5HIIB2IWBBS8UBKXV4NI76PJ", "current_trial": 123, "dateTime": 1513545793229, "trialdata": {"rt": -1, "stimulus": "<p id=\"stim\">5</p>", "key_press": -1, "trial_type": "single-stim", "trial_index": 123, "time_elapsed": 619475, "internal_node_id": "0.0-91.0-5.0"}}, {"uniqueid": "MTK1301:32SCWG5HIIB2IWBBS8UBKXV4NI76PJ", "current_trial": 124, "dateTime": 1513545794231, "trialdata": {"rt": -1, "stimulus": "<p id=\"stim\">4</p>", "key_press": -1, "trial_type": "single-stim", "trial_index": 124, "time_elapsed": 620478, "internal_node_id": "0.0-91.0-6.0"}}, {"uniqueid": "MTK1301:32SCWG5HIIB2IWBBS8UBKXV4NI76PJ", "current_trial": 125, "dateTime": 1513545795234, "trialdata": {"rt": -1, "stimulus": "<p id=\"stim\">3</p>", "key_press": -1, "trial_type": "single-stim", "trial_index": 125, "time_elapsed": 621481, "internal_node_id": "0.0-91.0-7.0"}}, {"uniqueid": "MTK1301:32SCWG5HIIB2IWBBS8UBKXV4NI76PJ", "current_trial": 126, "dateTime": 1513545796237, "trialdata": {"rt": -1, "stimulus": "<p id=\"stim\">2</p>", "key_press": -1, "trial_type": "single-stim", "trial_index": 126, "time_elapsed": 622484, "internal_node_id": "0.0-91.0-8.0"}}, {"uniqueid": "MTK1301:32SCWG5HIIB2IWBBS8UBKXV4NI76PJ", "current_trial": 127, "dateTime": 1513545797239, "trialdata": {"rt": -1, "stimulus": "<p id=\"stim\">1</p>", "key_press": -1, "trial_type": "single-stim", "trial_index": 127, "time_elapsed": 623486, "internal_node_id": "0.0-91.0-9.0"}}, {"uniqueid": "MTK1301:32SCWG5HIIB2IWBBS8UBKXV4NI76PJ", "current_trial": 128, "dateTime": 1513545798741, "trialdata": {"rt": -1, "stimulus": "<p id=\"stim\">+</p>", "key_press": -1, "type": "FIXATION", "trial_type": "single-stim", "trial_index": 128, "time_elapsed": 624988, "internal_node_id": "0.0-92.0-0.0"}}, {"uniqueid": "MTK1301:32SCWG5HIIB2IWBBS8UBKXV4NI76PJ", "current_trial": 129, "dateTime": 1513545800345, "trialdata": {"rt": -1, "stimulus": "<p id=\"stim\">BLOUSE</p>", "key_press": -1, "type": "PRES_VIS", "word": "blouse", "wordID": 138, "conditions": [12, 1600, "v", 12000], "trial": 3, "serialpos": 0, "trial_type": "single-stim", "trial_index": 129, "time_elapsed": 626591, "internal_node_id": "0.0-93.0"}}, {"uniqueid": "MTK1301:32SCWG5HIIB2IWBBS8UBKXV4NI76PJ", "current_trial": 130, "dateTime": 1513545802898, "trialdata": {"rt": -1, "stimulus": "<p id=\"stim\">DRESS</p>", "key_press": -1, "type": "PRES_VIS", "word": "dress", "wordID": 494, "conditions": [12, 1600, "v", 12000], "trial": 3, "serialpos": 1, "trial_type": "single-stim", "trial_index": 130, "time_elapsed": 629145, "internal_node_id": "0.0-94.0"}}, {"uniqueid": "MTK1301:32SCWG5HIIB2IWBBS8UBKXV4NI76PJ", "current_trial": 131, "dateTime": 1513545805531, "trialdata": {"rt": -1, "stimulus": "<p id=\"stim\">PATIENT</p>", "key_press": -1, "type": "PRES_VIS", "word": "patient", "wordID": 1023, "conditions": [12, 1600, "v", 12000], "trial": 3, "serialpos": 2, "trial_type": "single-stim", "trial_index": 131, "time_elapsed": 631778, "internal_node_id": "0.0-95.0"}}, {"uniqueid": "MTK1301:32SCWG5HIIB2IWBBS8UBKXV4NI76PJ", "current_trial": 132, "dateTime": 1513545808222, "trialdata": {"rt": -1, "stimulus": "<p id=\"stim\">DAISY</p>", "key_press": -1, "type": "PRES_VIS", "word": "daisy", "wordID": 434, "conditions": [12, 1600, "v", 12000], "trial": 3, "serialpos": 3, "trial_type": "single-stim", "trial_index": 132, "time_elapsed": 634469, "internal_node_id": "0.0-96.0"}}, {"uniqueid": "MTK1301:32SCWG5HIIB2IWBBS8UBKXV4NI76PJ", "current_trial": 133, "dateTime": 1513545810956, "trialdata": {"rt": -1, "stimulus": "<p id=\"stim\">GANGSTER</p>", "key_press": -1, "type": "PRES_VIS", "word": "gangster", "wordID": 619, "conditions": [12, 1600, "v", 12000], "trial": 3, "serialpos": 4, "trial_type": "single-stim", "trial_index": 133, "time_elapsed": 637202, "internal_node_id": "0.0-97.0"}}, {"uniqueid": "MTK1301:32SCWG5HIIB2IWBBS8UBKXV4NI76PJ", "current_trial": 134, "dateTime": 1513545813366, "trialdata": {"rt": -1, "stimulus": "<p id=\"stim\">TUTU</p>", "key_press": -1, "type": "PRES_VIS", "word": "tutu", "wordID": 1523, "conditions": [12, 1600, "v", 12000], "trial": 3, "serialpos": 5, "trial_type": "single-stim", "trial_index": 134, "time_elapsed": 639613, "internal_node_id": "0.0-98.0"}}, {"uniqueid": "MTK1301:32SCWG5HIIB2IWBBS8UBKXV4NI76PJ", "current_trial": 135, "dateTime": 1513545815811, "trialdata": {"rt": -1, "stimulus": "<p id=\"stim\">ANKLE</p>", "key_press": -1, "type": "PRES_VIS", "word": "ankle", "wordID": 23, "conditions": [12, 1600, "v", 12000], "trial": 3, "serialpos": 6, "trial_type": "single-stim", "trial_index": 135, "time_elapsed": 642058, "internal_node_id": "0.0-99.0"}}, {"uniqueid": "MTK1301:32SCWG5HIIB2IWBBS8UBKXV4NI76PJ", "current_trial": 136, "dateTime": 1513545818274, "trialdata": {"rt": -1, "stimulus": "<p id=\"stim\">LAGOON</p>", "key_press": -1, "type": "PRES_VIS", "word": "lagoon", "wordID": 794, "conditions": [12, 1600, "v", 12000], "trial": 3, "serialpos": 7, "trial_type": "single-stim", "trial_index": 136, "time_elapsed": 644521, "internal_node_id": "0.0-100.0"}}, {"uniqueid": "MTK1301:32SCWG5HIIB2IWBBS8UBKXV4NI76PJ", "current_trial": 137, "dateTime": 1513545820850, "trialdata": {"rt": -1, "stimulus": "<p id=\"stim\">SMOG</p>", "key_press": -1, "type": "PRES_VIS", "word": "smog", "wordID": 1329, "conditions": [12, 1600, "v", 12000], "trial": 3, "serialpos": 8, "trial_type": "single-stim", "trial_index": 137, "time_elapsed": 647096, "internal_node_id": "0.0-101.0"}}, {"uniqueid": "MTK1301:32SCWG5HIIB2IWBBS8UBKXV4NI76PJ", "current_trial": 138, "dateTime": 1513545823592, "trialdata": {"rt": -1, "stimulus": "<p id=\"stim\">OZONE</p>", "key_press": -1, "type": "PRES_VIS", "word": "ozone", "wordID": 995, "conditions": [12, 1600, "v", 12000], "trial": 3, "serialpos": 9, "trial_type": "single-stim", "trial_index": 138, "time_elapsed": 649839, "internal_node_id": "0.0-102.0"}}, {"uniqueid": "MTK1301:32SCWG5HIIB2IWBBS8UBKXV4NI76PJ", "current_trial": 139, "dateTime": 1513545826355, "trialdata": {"rt": -1, "stimulus": "<p id=\"stim\">DIME</p>", "key_press": -1, "type": "PRES_VIS", "word": "dime", "wordID": 465, "conditions": [12, 1600, "v", 12000], "trial": 3, "serialpos": 10, "trial_type": "single-stim", "trial_index": 139, "time_elapsed": 652602, "internal_node_id": "0.0-103.0"}}, {"uniqueid": "MTK1301:32SCWG5HIIB2IWBBS8UBKXV4NI76PJ", "current_trial": 140, "dateTime": 1513545829122, "trialdata": {"rt": -1, "stimulus": "<p id=\"stim\">POCKET</p>", "key_press": -1, "type": "PRES_VIS", "word": "pocket", "wordID": 1092, "conditions": [12, 1600, "v", 12000], "trial": 3, "serialpos": 11, "trial_type": "single-stim", "trial_index": 140, "time_elapsed": 655369, "internal_node_id": "0.0-104.0"}}, {"uniqueid": "MTK1301:32SCWG5HIIB2IWBBS8UBKXV4NI76PJ", "current_trial": 141, "dateTime": 1513545831636, "trialdata": {"rt": -1, "stimulus": "", "key_press": -1, "type": "PRE_RECALL_DELAY", "trial_type": "single-stim", "trial_index": 141, "time_elapsed": 657883, "internal_node_id": "0.0-105.0-0.0"}}, {"uniqueid": "MTK1301:32SCWG5HIIB2IWBBS8UBKXV4NI76PJ", "current_trial": 142, "dateTime": 1513545832140, "trialdata": {"rt": -1000, "stimulus": "/static/audio/400Hz.wav", "key_press": -1, "type": "PRE_RECALL_ALERT", "trial_type": "single-audio", "trial_index": 142, "time_elapsed": 658387, "internal_node_id": "0.0-106.0"}}, {"uniqueid": "MTK1301:32SCWG5HIIB2IWBBS8UBKXV4NI76PJ", "current_trial": 143, "dateTime": 1513545892150, "trialdata": {"rt": [2269, 3619, 5417, 6740, 10008, 12249, 15006, 28574, 37455], "recwords": ["dime", "pocket", "gangster", "patient", "blouse", "dress", "tutu", "daisy", "smog"], "type": "FREE_RECALL", "conditions": [12, 1600, "v", 12000], "trial": 3, "trial_type": "free-recall", "trial_index": 143, "time_elapsed": 718392, "internal_node_id": "0.0-107.0-0.0"}}, {"uniqueid": "MTK1301:32SCWG5HIIB2IWBBS8UBKXV4NI76PJ", "current_trial": 144, "dateTime": 1513545895554, "trialdata": {"rt": 1401, "key_press": 32, "type": "INSTRUCTIONS", "trial_type": "text", "trial_index": 144, "time_elapsed": 721801, "internal_node_id": "0.0-108.0"}}, {"uniqueid": "MTK1301:32SCWG5HIIB2IWBBS8UBKXV4NI76PJ", "current_trial": 145, "dateTime": 1513545909560, "trialdata": {"rt": [4453, 6537, 10380], "responses": ["7", "196", "11"], "num1": [2, 9, 5, 7], "num2": [4, 1, 4, 4], "num3": [1, 9, 2, 8], "type": "DISTRACTOR", "conditions": [12, 1600, "a", 12000], "trial": 4, "trial_type": "math-distractor", "trial_index": 145, "time_elapsed": 735807, "internal_node_id": "0.0-109.0"}}, {"uniqueid": "MTK1301:32SCWG5HIIB2IWBBS8UBKXV4NI76PJ", "current_trial": 146, "dateTime": 1513545912563, "trialdata": {"rt": -1, "stimulus": "<p id=\"stim\">10</p>", "key_press": -1, "trial_type": "single-stim", "trial_index": 146, "time_elapsed": 738810, "internal_node_id": "0.0-110.0-0.0"}}, {"uniqueid": "MTK1301:32SCWG5HIIB2IWBBS8UBKXV4NI76PJ", "current_trial": 147, "dateTime": 1513545913567, "trialdata": {"rt": -1, "stimulus": "<p id=\"stim\">9</p>", "key_press": -1, "trial_type": "single-stim", "trial_index": 147, "time_elapsed": 739813, "internal_node_id": "0.0-110.0-1.0"}}, {"uniqueid": "MTK1301:32SCWG5HIIB2IWBBS8UBKXV4NI76PJ", "current_trial": 148, "dateTime": 1513545914568, "trialdata": {"rt": -1, "stimulus": "<p id=\"stim\">8</p>", "key_press": -1, "trial_type": "single-stim", "trial_index": 148, "time_elapsed": 740815, "internal_node_id": "0.0-110.0-2.0"}}, {"uniqueid": "MTK1301:32SCWG5HIIB2IWBBS8UBKXV4NI76PJ", "current_trial": 149, "dateTime": 1513545915572, "trialdata": {"rt": -1, "stimulus": "<p id=\"stim\">7</p>", "key_press": -1, "trial_type": "single-stim", "trial_index": 149, "time_elapsed": 741819, "internal_node_id": "0.0-110.0-3.0"}}, {"uniqueid": "MTK1301:32SCWG5HIIB2IWBBS8UBKXV4NI76PJ", "current_trial": 150, "dateTime": 1513545916575, "trialdata": {"rt": -1, "stimulus": "<p id=\"stim\">6</p>", "key_press": -1, "trial_type": "single-stim", "trial_index": 150, "time_elapsed": 742821, "internal_node_id": "0.0-110.0-4.0"}}, {"uniqueid": "MTK1301:32SCWG5HIIB2IWBBS8UBKXV4NI76PJ", "current_trial": 151, "dateTime": 1513545917578, "trialdata": {"rt": -1, "stimulus": "<p id=\"stim\">5</p>", "key_press": -1, "trial_type": "single-stim", "trial_index": 151, "time_elapsed": 743825, "internal_node_id": "0.0-110.0-5.0"}}, {"uniqueid": "MTK1301:32SCWG5HIIB2IWBBS8UBKXV4NI76PJ", "current_trial": 152, "dateTime": 1513545918580, "trialdata": {"rt": -1, "stimulus": "<p id=\"stim\">4</p>", "key_press": -1, "trial_type": "single-stim", "trial_index": 152, "time_elapsed": 744827, "internal_node_id": "0.0-110.0-6.0"}}, {"uniqueid": "MTK1301:32SCWG5HIIB2IWBBS8UBKXV4NI76PJ", "current_trial": 153, "dateTime": 1513545919582, "trialdata": {"rt": -1, "stimulus": "<p id=\"stim\">3</p>", "key_press": -1, "trial_type": "single-stim", "trial_index": 153, "time_elapsed": 745828, "internal_node_id": "0.0-110.0-7.0"}}, {"uniqueid": "MTK1301:32SCWG5HIIB2IWBBS8UBKXV4NI76PJ", "current_trial": 154, "dateTime": 1513545920583, "trialdata": {"rt": -1, "stimulus": "<p id=\"stim\">2</p>", "key_press": -1, "trial_type": "single-stim", "trial_index": 154, "time_elapsed": 746830, "internal_node_id": "0.0-110.0-8.0"}}, {"uniqueid": "MTK1301:32SCWG5HIIB2IWBBS8UBKXV4NI76PJ", "current_trial": 155, "dateTime": 1513545921586, "trialdata": {"rt": -1, "stimulus": "<p id=\"stim\">1</p>", "key_press": -1, "trial_type": "single-stim", "trial_index": 155, "time_elapsed": 747833, "internal_node_id": "0.0-110.0-9.0"}}, {"uniqueid": "MTK1301:32SCWG5HIIB2IWBBS8UBKXV4NI76PJ", "current_trial": 156, "dateTime": 1513545923089, "trialdata": {"rt": -1, "stimulus": "<p id=\"stim\">+</p>", "key_press": -1, "type": "FIXATION", "trial_type": "single-stim", "trial_index": 156, "time_elapsed": 749336, "internal_node_id": "0.0-111.0-0.0"}}, {"uniqueid": "MTK1301:32SCWG5HIIB2IWBBS8UBKXV4NI76PJ", "current_trial": 157, "dateTime": 1513545925769, "trialdata": {"rt": -1000, "stimulus": "/static/audio/wordpool/TWIG.wav", "key_press": -1, "type": "PRES_AUD", "word": "twig", "wordID": 1526, "conditions": [12, 1600, "a", 12000], "trial": 4, "serialpos": 0, "trial_type": "single-audio", "trial_index": 157, "time_elapsed": 752016, "internal_node_id": "0.0-112.0"}}, {"uniqueid": "MTK1301:32SCWG5HIIB2IWBBS8UBKXV4NI76PJ", "current_trial": 158, "dateTime": 1513545928552, "trialdata": {"rt": -1000, "stimulus": "/static/audio/wordpool/SURVEY.wav", "key_press": -1, "type": "PRES_AUD", "word": "survey", "wordID": 1413, "conditions": [12, 1600, "a", 12000], "trial": 4, "serialpos": 1, "trial_type": "single-audio", "trial_index": 158, "time_elapsed": 754799, "internal_node_id": "0.0-113.0"}}, {"uniqueid": "MTK1301:32SCWG5HIIB2IWBBS8UBKXV4NI76PJ", "current_trial": 159, "dateTime": 1513545930973, "trialdata": {"rt": -1000, "stimulus": "/static/audio/wordpool/TRUCK.wav", "key_press": -1, "type": "PRES_AUD", "word": "truck", "wordID": 1511, "conditions": [12, 1600, "a", 12000], "trial": 4, "serialpos": 2, "trial_type": "single-audio", "trial_index": 159, "time_elapsed": 757220, "internal_node_id": "0.0-114.0"}}, {"uniqueid": "MTK1301:32SCWG5HIIB2IWBBS8UBKXV4NI76PJ", "current_trial": 160, "dateTime": 1513545933378, "trialdata": {"rt": -1000, "stimulus": "/static/audio/wordpool/WRENCH.wav", "key_press": -1, "type": "PRES_AUD", "word": "wrench", "wordID": 1624, "conditions": [12, 1600, "a", 12000], "trial": 4, "serialpos": 3, "trial_type": "single-audio", "trial_index": 160, "time_elapsed": 759624, "internal_node_id": "0.0-115.0"}}, {"uniqueid": "MTK1301:32SCWG5HIIB2IWBBS8UBKXV4NI76PJ", "current_trial": 161, "dateTime": 1513545935849, "trialdata": {"rt": -1000, "stimulus": "/static/audio/wordpool/MISSILE.wav", "key_press": -1, "type": "PRES_AUD", "word": "missile", "wordID": 899, "conditions": [12, 1600, "a", 12000], "trial": 4, "serialpos": 4, "trial_type": "single-audio", "trial_index": 161, "time_elapsed": 762096, "internal_node_id": "0.0-116.0"}}, {"uniqueid": "MTK1301:32SCWG5HIIB2IWBBS8UBKXV4NI76PJ", "current_trial": 162, "dateTime": 1513545938365, "trialdata": {"rt": -1000, "stimulus": "/static/audio/wordpool/ROCKET.wav", "key_press": -1, "type": "PRES_AUD", "word": "rocket", "wordID": 1201, "conditions": [12, 1600, "a", 12000], "trial": 4, "serialpos": 5, "trial_type": "single-audio", "trial_index": 162, "time_elapsed": 764610, "internal_node_id": "0.0-117.0"}}, {"uniqueid": "MTK1301:32SCWG5HIIB2IWBBS8UBKXV4NI76PJ", "current_trial": 163, "dateTime": 1513545941156, "trialdata": {"rt": -1000, "stimulus": "/static/audio/wordpool/TRACTOR.wav", "key_press": -1, "type": "PRES_AUD", "word": "tractor", "wordID": 1492, "conditions": [12, 1600, "a", 12000], "trial": 4, "serialpos": 6, "trial_type": "single-audio", "trial_index": 163, "time_elapsed": 767403, "internal_node_id": "0.0-118.0"}}, {"uniqueid": "MTK1301:32SCWG5HIIB2IWBBS8UBKXV4NI76PJ", "current_trial": 164, "dateTime": 1513545943940, "trialdata": {"rt": -1000, "stimulus": "/static/audio/wordpool/PLAYGROUND.wav", "key_press": -1, "type": "PRES_AUD", "word": "playground", "wordID": 1086, "conditions": [12, 1600, "a", 12000], "trial": 4, "serialpos": 7, "trial_type": "single-audio", "trial_index": 164, "time_elapsed": 770187, "internal_node_id": "0.0-119.0"}}, {"uniqueid": "MTK1301:32SCWG5HIIB2IWBBS8UBKXV4NI76PJ", "current_trial": 165, "dateTime": 1513545946442, "trialdata": {"rt": -1000, "stimulus": "/static/audio/wordpool/PORK.wav", "key_press": -1, "type": "PRES_AUD", "word": "pork", "wordID": 1107, "conditions": [12, 1600, "a", 12000], "trial": 4, "serialpos": 8, "trial_type": "single-audio", "trial_index": 165, "time_elapsed": 772689, "internal_node_id": "0.0-120.0"}}, {"uniqueid": "MTK1301:32SCWG5HIIB2IWBBS8UBKXV4NI76PJ", "current_trial": 166, "dateTime": 1513545949020, "trialdata": {"rt": -1000, "stimulus": "/static/audio/wordpool/ISLAND.wav", "key_press": -1, "type": "PRES_AUD", "word": "island", "wordID": 744, "conditions": [12, 1600, "a", 12000], "trial": 4, "serialpos": 9, "trial_type": "single-audio", "trial_index": 166, "time_elapsed": 775267, "internal_node_id": "0.0-121.0"}}, {"uniqueid": "MTK1301:32SCWG5HIIB2IWBBS8UBKXV4NI76PJ", "current_trial": 167, "dateTime": 1513545951566, "trialdata": {"rt": -1000, "stimulus": "/static/audio/wordpool/PLIERS.wav", "key_press": -1, "type": "PRES_AUD", "word": "pliers", "wordID": 1088, "conditions": [12, 1600, "a", 12000], "trial": 4, "serialpos": 10, "trial_type": "single-audio", "trial_index": 167, "time_elapsed": 777813, "internal_node_id": "0.0-122.0"}}, {"uniqueid": "MTK1301:32SCWG5HIIB2IWBBS8UBKXV4NI76PJ", "current_trial": 168, "dateTime": 1513545954161, "trialdata": {"rt": -1000, "stimulus": "/static/audio/wordpool/PISTON.wav", "key_press": -1, "type": "PRES_AUD", "word": "piston", "wordID": 1075, "conditions": [12, 1600, "a", 12000], "trial": 4, "serialpos": 11, "trial_type": "single-audio", "trial_index": 168, "time_elapsed": 780408, "internal_node_id": "0.0-123.0"}}, {"uniqueid": "MTK1301:32SCWG5HIIB2IWBBS8UBKXV4NI76PJ", "current_trial": 169, "dateTime": 1513545955447, "trialdata": {"rt": -1, "stimulus": "", "key_press": -1, "type": "PRE_RECALL_DELAY", "trial_type": "single-stim", "trial_index": 169, "time_elapsed": 781694, "internal_node_id": "0.0-124.0-0.0"}}, {"uniqueid": "MTK1301:32SCWG5HIIB2IWBBS8UBKXV4NI76PJ", "current_trial": 170, "dateTime": 1513545955950, "trialdata": {"rt": -1000, "stimulus": "/static/audio/400Hz.wav", "key_press": -1, "type": "PRE_RECALL_ALERT", "trial_type": "single-audio", "trial_index": 170, "time_elapsed": 782197, "internal_node_id": "0.0-125.0"}}, {"uniqueid": "MTK1301:32SCWG5HIIB2IWBBS8UBKXV4NI76PJ", "current_trial": 171, "dateTime": 1513546015963, "trialdata": {"rt": [2559, 5199, 7039, 27253], "recwords": ["piston", "pliers", "fork", "script"], "type": "FREE_RECALL", "conditions": [12, 1600, "a", 12000], "trial": 4, "trial_type": "free-recall", "trial_index": 171, "time_elapsed": 842203, "internal_node_id": "0.0-126.0-0.0"}}, {"uniqueid": "MTK1301:32SCWG5HIIB2IWBBS8UBKXV4NI76PJ", "current_trial": 172, "dateTime": 1513546029197, "trialdata": {"rt": 11232, "key_press": 32, "type": "INSTRUCTIONS", "trial_type": "text", "trial_index": 172, "time_elapsed": 855444, "internal_node_id": "0.0-127.0"}}, {"uniqueid": "MTK1301:32SCWG5HIIB2IWBBS8UBKXV4NI76PJ", "current_trial": 173, "dateTime": 1513546043204, "trialdata": {"rt": [1869, 3477, 5615, 7987, 10377], "responses": ["13", "11", "15", "17", "11"], "num1": [4, 6, 6, 9, 5, 4], "num2": [6, 4, 1, 5, 3, 4], "num3": [3, 1, 8, 3, 3, 9], "type": "DISTRACTOR", "conditions": [24, 800, "a", 12000], "trial": 5, "trial_type": "math-distractor", "trial_index": 173, "time_elapsed": 869451, "internal_node_id": "0.0-128.0"}}, {"uniqueid": "MTK1301:32SCWG5HIIB2IWBBS8UBKXV4NI76PJ", "current_trial": 174, "dateTime": 1513546046207, "trialdata": {"rt": -1, "stimulus": "<p id=\"stim\">10</p>", "key_press": -1, "trial_type": "single-stim", "trial_index": 174, "time_elapsed": 872454, "internal_node_id": "0.0-129.0-0.0"}}, {"uniqueid": "MTK1301:32SCWG5HIIB2IWBBS8UBKXV4NI76PJ", "current_trial": 175, "dateTime": 1513546047209, "trialdata": {"rt": -1, "stimulus": "<p id=\"stim\">9</p>", "key_press": -1, "trial_type": "single-stim", "trial_index": 175, "time_elapsed": 873456, "internal_node_id": "0.0-129.0-1.0"}}, {"uniqueid": "MTK1301:32SCWG5HIIB2IWBBS8UBKXV4NI76PJ", "current_trial": 176, "dateTime": 1513546048211, "trialdata": {"rt": -1, "stimulus": "<p id=\"stim\">8</p>", "key_press": -1, "trial_type": "single-stim", "trial_index": 176, "time_elapsed": 874458, "internal_node_id": "0.0-129.0-2.0"}}, {"uniqueid": "MTK1301:32SCWG5HIIB2IWBBS8UBKXV4NI76PJ", "current_trial": 177, "dateTime": 1513546049214, "trialdata": {"rt": -1, "stimulus": "<p id=\"stim\">7</p>", "key_press": -1, "trial_type": "single-stim", "trial_index": 177, "time_elapsed": 875461, "internal_node_id": "0.0-129.0-3.0"}}, {"uniqueid": "MTK1301:32SCWG5HIIB2IWBBS8UBKXV4NI76PJ", "current_trial": 178, "dateTime": 1513546050217, "trialdata": {"rt": -1, "stimulus": "<p id=\"stim\">6</p>", "key_press": -1, "trial_type": "single-stim", "trial_index": 178, "time_elapsed": 876463, "internal_node_id": "0.0-129.0-4.0"}}, {"uniqueid": "MTK1301:32SCWG5HIIB2IWBBS8UBKXV4NI76PJ", "current_trial": 179, "dateTime": 1513546051220, "trialdata": {"rt": -1, "stimulus": "<p id=\"stim\">5</p>", "key_press": -1, "trial_type": "single-stim", "trial_index": 179, "time_elapsed": 877467, "internal_node_id": "0.0-129.0-5.0"}}, {"uniqueid": "MTK1301:32SCWG5HIIB2IWBBS8UBKXV4NI76PJ", "current_trial": 180, "dateTime": 1513546052223, "trialdata": {"rt": -1, "stimulus": "<p id=\"stim\">4</p>", "key_press": -1, "trial_type": "single-stim", "trial_index": 180, "time_elapsed": 878470, "internal_node_id": "0.0-129.0-6.0"}}, {"uniqueid": "MTK1301:32SCWG5HIIB2IWBBS8UBKXV4NI76PJ", "current_trial": 181, "dateTime": 1513546053225, "trialdata": {"rt": -1, "stimulus": "<p id=\"stim\">3</p>", "key_press": -1, "trial_type": "single-stim", "trial_index": 181, "time_elapsed": 879472, "internal_node_id": "0.0-129.0-7.0"}}, {"uniqueid": "MTK1301:32SCWG5HIIB2IWBBS8UBKXV4NI76PJ", "current_trial": 182, "dateTime": 1513546054228, "trialdata": {"rt": -1, "stimulus": "<p id=\"stim\">2</p>", "key_press": -1, "trial_type": "single-stim", "trial_index": 182, "time_elapsed": 880475, "internal_node_id": "0.0-129.0-8.0"}}, {"uniqueid": "MTK1301:32SCWG5HIIB2IWBBS8UBKXV4NI76PJ", "current_trial": 183, "dateTime": 1513546055231, "trialdata": {"rt": 30, "stimulus": "<p id=\"stim\">1</p>", "key_press": 175, "trial_type": "single-stim", "trial_index": 183, "time_elapsed": 881478, "internal_node_id": "0.0-129.0-9.0"}}, {"uniqueid": "MTK1301:32SCWG5HIIB2IWBBS8UBKXV4NI76PJ", "current_trial": 184, "dateTime": 1513546056733, "trialdata": {"rt": -1, "stimulus": "<p id=\"stim\">+</p>", "key_press": -1, "type": "FIXATION", "trial_type": "single-stim", "trial_index": 184, "time_elapsed": 882980, "internal_node_id": "0.0-130.0-0.0"}}, {"uniqueid": "MTK1301:32SCWG5HIIB2IWBBS8UBKXV4NI76PJ", "current_trial": 185, "dateTime": 1513546058621, "trialdata": {"rt": -1000, "stimulus": "/static/audio/wordpool/OYSTER.wav", "key_press": -1, "type": "PRES_AUD", "word": "oyster", "wordID": 994, "conditions": [24, 800, "a", 12000], "trial": 5, "serialpos": 0, "trial_type": "single-audio", "trial_index": 185, "time_elapsed": 884868, "internal_node_id": "0.0-131.0"}}, {"uniqueid": "MTK1301:32SCWG5HIIB2IWBBS8UBKXV4NI76PJ", "current_trial": 186, "dateTime": 1513546060485, "trialdata": {"rt": -1000, "stimulus": "/static/audio/wordpool/CLAM.wav", "key_press": -1, "type": "PRES_AUD", "word": "clam", "wordID": 314, "conditions": [24, 800, "a", 12000], "trial": 5, "serialpos": 1, "trial_type": "single-audio", "trial_index": 186, "time_elapsed": 886732, "internal_node_id": "0.0-132.0"}}, {"uniqueid": "MTK1301:32SCWG5HIIB2IWBBS8UBKXV4NI76PJ", "current_trial": 187, "dateTime": 1513546062355, "trialdata": {"rt": -1000, "stimulus": "/static/audio/wordpool/LAKE.wav", "key_press": -1, "type": "PRES_AUD", "word": "lake", "wordID": 795, "conditions": [24, 800, "a", 12000], "trial": 5, "serialpos": 2, "trial_type": "single-audio", "trial_index": 187, "time_elapsed": 888602, "internal_node_id": "0.0-133.0"}}, {"uniqueid": "MTK1301:32SCWG5HIIB2IWBBS8UBKXV4NI76PJ", "current_trial": 188, "dateTime": 1513546064292, "trialdata": {"rt": -1000, "stimulus": "/static/audio/wordpool/MACHINE.wav", "key_press": -1, "type": "PRES_AUD", "word": "machine", "wordID": 851, "conditions": [24, 800, "a", 12000], "trial": 5, "serialpos": 3, "trial_type": "single-audio", "trial_index": 188, "time_elapsed": 890539, "internal_node_id": "0.0-134.0"}}, {"uniqueid": "MTK1301:32SCWG5HIIB2IWBBS8UBKXV4NI76PJ", "current_trial": 189, "dateTime": 1513546066265, "trialdata": {"rt": -1000, "stimulus": "/static/audio/wordpool/SALT.wav", "key_press": -1, "type": "PRES_AUD", "word": "salt", "wordID": 1228, "conditions": [24, 800, "a", 12000], "trial": 5, "serialpos": 4, "trial_type": "single-audio", "trial_index": 189, "time_elapsed": 892512, "internal_node_id": "0.0-135.0"}}, {"uniqueid": "MTK1301:32SCWG5HIIB2IWBBS8UBKXV4NI76PJ", "current_trial": 190, "dateTime": 1513546068013, "trialdata": {"rt": -1000, "stimulus": "/static/audio/wordpool/TROUT.wav", "key_press": -1, "type": "PRES_AUD", "word": "trout", "wordID": 1510, "conditions": [24, 800, "a", 12000], "trial": 5, "serialpos": 5, "trial_type": "single-audio", "trial_index": 190, "time_elapsed": 894260, "internal_node_id": "0.0-136.0"}}, {"uniqueid": "MTK1301:32SCWG5HIIB2IWBBS8UBKXV4NI76PJ", "current_trial": 191, "dateTime": 1513546069786, "trialdata": {"rt": -1000, "stimulus": "/static/audio/wordpool/DORM.wav", "key_press": -1, "type": "PRES_AUD", "word": "dorm", "wordID": 487, "conditions": [24, 800, "a", 12000], "trial": 5, "serialpos": 6, "trial_type": "single-audio", "trial_index": 191, "time_elapsed": 896033, "internal_node_id": "0.0-137.0"}}, {"uniqueid": "MTK1301:32SCWG5HIIB2IWBBS8UBKXV4NI76PJ", "current_trial": 192, "dateTime": 1513546071723, "trialdata": {"rt": -1000, "stimulus": "/static/audio/wordpool/PROTON.wav", "key_press": -1, "type": "PRES_AUD", "word": "proton", "wordID": 1131, "conditions": [24, 800, "a", 12000], "trial": 5, "serialpos": 7, "trial_type": "single-audio", "trial_index": 192, "time_elapsed": 897970, "internal_node_id": "0.0-138.0"}}, {"uniqueid": "MTK1301:32SCWG5HIIB2IWBBS8UBKXV4NI76PJ", "current_trial": 193, "dateTime": 1513546073393, "trialdata": {"rt": -1000, "stimulus": "/static/audio/wordpool/COUNTY.wav", "key_press": -1, "type": "PRES_AUD", "word": "county", "wordID": 388, "conditions": [24, 800, "a", 12000], "trial": 5, "serialpos": 8, "trial_type": "single-audio", "trial_index": 193, "time_elapsed": 899640, "internal_node_id": "0.0-139.0"}}, {"uniqueid": "MTK1301:32SCWG5HIIB2IWBBS8UBKXV4NI76PJ", "current_trial": 194, "dateTime": 1513546075186, "trialdata": {"rt": -1000, "stimulus": "/static/audio/wordpool/PEANUT.wav", "key_press": -1, "type": "PRES_AUD", "word": "peanut", "wordID": 1031, "conditions": [24, 800, "a", 12000], "trial": 5, "serialpos": 9, "trial_type": "single-audio", "trial_index": 194, "time_elapsed": 901433, "internal_node_id": "0.0-140.0"}}, {"uniqueid": "MTK1301:32SCWG5HIIB2IWBBS8UBKXV4NI76PJ", "current_trial": 195, "dateTime": 1513546077162, "trialdata": {"rt": -1000, "stimulus": "/static/audio/wordpool/PIGMENT.wav", "key_press": -1, "type": "PRES_AUD", "word": "pigment", "wordID": 1065, "conditions": [24, 800, "a", 12000], "trial": 5, "serialpos": 10, "trial_type": "single-audio", "trial_index": 195, "time_elapsed": 903408, "internal_node_id": "0.0-141.0"}}, {"uniqueid": "MTK1301:32SCWG5HIIB2IWBBS8UBKXV4NI76PJ", "current_trial": 196, "dateTime": 1513546078896, "trialdata": {"rt": -1000, "stimulus": "/static/audio/wordpool/RIVER.wav", "key_press": -1, "type": "PRES_AUD", "word": "river", "wordID": 1193, "conditions": [24, 800, "a", 12000], "trial": 5, "serialpos": 11, "trial_type": "single-audio", "trial_index": 196, "time_elapsed": 905143, "internal_node_id": "0.0-142.0"}}, {"uniqueid": "MTK1301:32SCWG5HIIB2IWBBS8UBKXV4NI76PJ", "current_trial": 197, "dateTime": 1513546080691, "trialdata": {"rt": -1000, "stimulus": "/static/audio/wordpool/DRESSER.wav", "key_press": -1, "type": "PRES_AUD", "word": "dresser", "wordID": 495, "conditions": [24, 800, "a", 12000], "trial": 5, "serialpos": 12, "trial_type": "single-audio", "trial_index": 197, "time_elapsed": 906937, "internal_node_id": "0.0-143.0"}}, {"uniqueid": "MTK1301:32SCWG5HIIB2IWBBS8UBKXV4NI76PJ", "current_trial": 198, "dateTime": 1513546082335, "trialdata": {"rt": -1000, "stimulus": "/static/audio/wordpool/HOOD.wav", "key_press": -1, "type": "PRES_AUD", "word": "hood", "wordID": 713, "conditions": [24, 800, "a", 12000], "trial": 5, "serialpos": 13, "trial_type": "single-audio", "trial_index": 198, "time_elapsed": 908582, "internal_node_id": "0.0-144.0"}}, {"uniqueid": "MTK1301:32SCWG5HIIB2IWBBS8UBKXV4NI76PJ", "current_trial": 199, "dateTime": 1513546083982, "trialdata": {"rt": -1000, "stimulus": "/static/audio/wordpool/BUBBLE.wav", "key_press": -1, "type": "PRES_AUD", "word": "bubble", "wordID": 182, "conditions": [24, 800, "a", 12000], "trial": 5, "serialpos": 14, "trial_type": "single-audio", "trial_index": 199, "time_elapsed": 910229, "internal_node_id": "0.0-145.0"}}, {"uniqueid": "MTK1301:32SCWG5HIIB2IWBBS8UBKXV4NI76PJ", "current_trial": 200, "dateTime": 1513546085713, "trialdata": {"rt": -1000, "stimulus": "/static/audio/wordpool/PADDLE.wav", "key_press": -1, "type": "PRES_AUD", "word": "paddle", "wordID": 999, "conditions": [24, 800, "a", 12000], "trial": 5, "serialpos": 15, "trial_type": "single-audio", "trial_index": 200, "time_elapsed": 911959, "internal_node_id": "0.0-146.0"}}, {"uniqueid": "MTK1301:32SCWG5HIIB2IWBBS8UBKXV4NI76PJ", "current_trial": 201, "dateTime": 1513546087354, "trialdata": {"rt": -1000, "stimulus": "/static/audio/wordpool/SWIMMER.wav", "key_press": -1, "type": "PRES_AUD", "word": "swimmer", "wordID": 1419, "conditions": [24, 800, "a", 12000], "trial": 5, "serialpos": 16, "trial_type": "single-audio", "trial_index": 201, "time_elapsed": 913601, "internal_node_id": "0.0-147.0"}}, {"uniqueid": "MTK1301:32SCWG5HIIB2IWBBS8UBKXV4NI76PJ", "current_trial": 202, "dateTime": 1513546089171, "trialdata": {"rt": -1000, "stimulus": "/static/audio/wordpool/TOMBSTONE.wav", "key_press": -1, "type": "PRES_AUD", "word": "tombstone", "wordID": 1477, "conditions": [24, 800, "a", 12000], "trial": 5, "serialpos": 17, "trial_type": "single-audio", "trial_index": 202, "time_elapsed": 915418, "internal_node_id": "0.0-148.0"}}, {"uniqueid": "MTK1301:32SCWG5HIIB2IWBBS8UBKXV4NI76PJ", "current_trial": 203, "dateTime": 1513546091030, "trialdata": {"rt": -1000, "stimulus": "/static/audio/wordpool/PUDDING.wav", "key_press": -1, "type": "PRES_AUD", "word": "pudding", "wordID": 1138, "conditions": [24, 800, "a", 12000], "trial": 5, "serialpos": 18, "trial_type": "single-audio", "trial_index": 203, "time_elapsed": 917277, "internal_node_id": "0.0-149.0"}}, {"uniqueid": "MTK1301:32SCWG5HIIB2IWBBS8UBKXV4NI76PJ", "current_trial": 204, "dateTime": 1513546092648, "trialdata": {"rt": -1000, "stimulus": "/static/audio/wordpool/GHETTO.wav", "key_press": -1, "type": "PRES_AUD", "word": "ghetto", "wordID": 632, "conditions": [24, 800, "a", 12000], "trial": 5, "serialpos": 19, "trial_type": "single-audio", "trial_index": 204, "time_elapsed": 918895, "internal_node_id": "0.0-150.0"}}, {"uniqueid": "MTK1301:32SCWG5HIIB2IWBBS8UBKXV4NI76PJ", "current_trial": 205, "dateTime": 1513546094350, "trialdata": {"rt": -1000, "stimulus": "/static/audio/wordpool/TYPIST.wav", "key_press": -1, "type": "PRES_AUD", "word": "typist", "wordID": 1531, "conditions": [24, 800, "a", 12000], "trial": 5, "serialpos": 20, "trial_type": "single-audio", "trial_index": 205, "time_elapsed": 920597, "internal_node_id": "0.0-151.0"}}, {"uniqueid": "MTK1301:32SCWG5HIIB2IWBBS8UBKXV4NI76PJ", "current_trial": 206, "dateTime": 1513546095996, "trialdata": {"rt": -1000, "stimulus": "/static/audio/wordpool/CUSTARD.wav", "key_press": -1, "type": "PRES_AUD", "word": "custard", "wordID": 428, "conditions": [24, 800, "a", 12000], "trial": 5, "serialpos": 21, "trial_type": "single-audio", "trial_index": 206, "time_elapsed": 922242, "internal_node_id": "0.0-152.0"}}, {"uniqueid": "MTK1301:32SCWG5HIIB2IWBBS8UBKXV4NI76PJ", "current_trial": 207, "dateTime": 1513546097701, "trialdata": {"rt": -1000, "stimulus": "/static/audio/wordpool/LEG.wav", "key_press": -1, "type": "PRES_AUD", "word": "leg", "wordID": 808, "conditions": [24, 800, "a", 12000], "trial": 5, "serialpos": 22, "trial_type": "single-audio", "trial_index": 207, "time_elapsed": 923948, "internal_node_id": "0.0-153.0"}}, {"uniqueid": "MTK1301:32SCWG5HIIB2IWBBS8UBKXV4NI76PJ", "current_trial": 208, "dateTime": 1513546099597, "trialdata": {"rt": -1000, "stimulus": "/static/audio/wordpool/WRIST.wav", "key_press": -1, "type": "PRES_AUD", "word": "wrist", "wordID": 1625, "conditions": [24, 800, "a", 12000], "trial": 5, "serialpos": 23, "trial_type": "single-audio", "trial_index": 208, "time_elapsed": 925844, "internal_node_id": "0.0-154.0"}}, {"uniqueid": "MTK1301:32SCWG5HIIB2IWBBS8UBKXV4NI76PJ", "current_trial": 209, "dateTime": 1513546100923, "trialdata": {"rt": -1, "stimulus": "", "key_press": -1, "type": "PRE_RECALL_DELAY", "trial_type": "single-stim", "trial_index": 209, "time_elapsed": 927170, "internal_node_id": "0.0-155.0-0.0"}}, {"uniqueid": "MTK1301:32SCWG5HIIB2IWBBS8UBKXV4NI76PJ", "current_trial": 210, "dateTime": 1513546101425, "trialdata": {"rt": -1000, "stimulus": "/static/audio/400Hz.wav", "key_press": -1, "type": "PRE_RECALL_ALERT", "trial_type": "single-audio", "trial_index": 210, "time_elapsed": 927672, "internal_node_id": "0.0-156.0"}}, {"uniqueid": "MTK1301:32SCWG5HIIB2IWBBS8UBKXV4NI76PJ", "current_trial": 211, "dateTime": 1513546161439, "trialdata": {"rt": [1776, 3382, 6073, 8448, 10302, 11344, 12731, 14055, 18322, 21663], "recwords": ["leg", "wrist", "typing", "ghetto", "oyster", "clam", "lake", "river", "swimming", "trout"], "type": "FREE_RECALL", "conditions": [24, 800, "a", 12000], "trial": 5, "trial_type": "free-recall", "trial_index": 211, "time_elapsed": 987677, "internal_node_id": "0.0-157.0-0.0"}}, {"uniqueid": "MTK1301:32SCWG5HIIB2IWBBS8UBKXV4NI76PJ", "current_trial": 212, "dateTime": 1513546166234, "trialdata": {"rt": 2792, "key_press": 32, "type": "INSTRUCTIONS", "trial_type": "text", "trial_index": 212, "time_elapsed": 992481, "internal_node_id": "0.0-158.0"}}, {"uniqueid": "MTK1301:32SCWG5HIIB2IWBBS8UBKXV4NI76PJ", "current_trial": 213, "dateTime": 1513546192239, "trialdata": {"rt": [2890, 4920, 6945, 9697, 12895, 15133, 17441, 20949, 23568], "responses": ["8", "13", "11", "16", "19", "15", "14", "8", "14"], "num1": [4, 5, 1, 5, 9, 8, 4, 4, 8, 1], "num2": [2, 6, 9, 9, 4, 3, 2, 1, 5, 1], "num3": [2, 2, 1, 2, 6, 4, 8, 2, 1, 1], "type": "DISTRACTOR", "conditions": [12, 1600, "a", 24000], "trial": 6, "trial_type": "math-distractor", "trial_index": 213, "time_elapsed": 1018485, "internal_node_id": "0.0-159.0"}}, {"uniqueid": "MTK1301:32SCWG5HIIB2IWBBS8UBKXV4NI76PJ", "current_trial": 214, "dateTime": 1513546195241, "trialdata": {"rt": -1, "stimulus": "<p id=\"stim\">10</p>", "key_press": -1, "trial_type": "single-stim", "trial_index": 214, "time_elapsed": 1021487, "internal_node_id": "0.0-160.0-0.0"}}, {"uniqueid": "MTK1301:32SCWG5HIIB2IWBBS8UBKXV4NI76PJ", "current_trial": 215, "dateTime": 1513546196243, "trialdata": {"rt": -1, "stimulus": "<p id=\"stim\">9</p>", "key_press": -1, "trial_type": "single-stim", "trial_index": 215, "time_elapsed": 1022489, "internal_node_id": "0.0-160.0-1.0"}}, {"uniqueid": "MTK1301:32SCWG5HIIB2IWBBS8UBKXV4NI76PJ", "current_trial": 216, "dateTime": 1513546197245, "trialdata": {"rt": -1, "stimulus": "<p id=\"stim\">8</p>", "key_press": -1, "trial_type": "single-stim", "trial_index": 216, "time_elapsed": 1023492, "internal_node_id": "0.0-160.0-2.0"}}, {"uniqueid": "MTK1301:32SCWG5HIIB2IWBBS8UBKXV4NI76PJ", "current_trial": 217, "dateTime": 1513546198248, "trialdata": {"rt": -1, "stimulus": "<p id=\"stim\">7</p>", "key_press": -1, "trial_type": "single-stim", "trial_index": 217, "time_elapsed": 1024495, "internal_node_id": "0.0-160.0-3.0"}}, {"uniqueid": "MTK1301:32SCWG5HIIB2IWBBS8UBKXV4NI76PJ", "current_trial": 218, "dateTime": 1513546199251, "trialdata": {"rt": -1, "stimulus": "<p id=\"stim\">6</p>", "key_press": -1, "trial_type": "single-stim", "trial_index": 218, "time_elapsed": 1025497, "internal_node_id": "0.0-160.0-4.0"}}, {"uniqueid": "MTK1301:32SCWG5HIIB2IWBBS8UBKXV4NI76PJ", "current_trial": 219, "dateTime": 1513546200253, "trialdata": {"rt": -1, "stimulus": "<p id=\"stim\">5</p>", "key_press": -1, "trial_type": "single-stim", "trial_index": 219, "time_elapsed": 1026499, "internal_node_id": "0.0-160.0-5.0"}}, {"uniqueid": "MTK1301:32SCWG5HIIB2IWBBS8UBKXV4NI76PJ", "current_trial": 220, "dateTime": 1513546201258, "trialdata": {"rt": -1, "stimulus": "<p id=\"stim\">4</p>", "key_press": -1, "trial_type": "single-stim", "trial_index": 220, "time_elapsed": 1027504, "internal_node_id": "0.0-160.0-6.0"}}, {"uniqueid": "MTK1301:32SCWG5HIIB2IWBBS8UBKXV4NI76PJ", "current_trial": 221, "dateTime": 1513546202263, "trialdata": {"rt": -1, "stimulus": "<p id=\"stim\">3</p>", "key_press": -1, "trial_type": "single-stim", "trial_index": 221, "time_elapsed": 1028510, "internal_node_id": "0.0-160.0-7.0"}}, {"uniqueid": "MTK1301:32SCWG5HIIB2IWBBS8UBKXV4NI76PJ", "current_trial": 222, "dateTime": 1513546203265, "trialdata": {"rt": -1, "stimulus": "<p id=\"stim\">2</p>", "key_press": -1, "trial_type": "single-stim", "trial_index": 222, "time_elapsed": 1029512, "internal_node_id": "0.0-160.0-8.0"}}, {"uniqueid": "MTK1301:32SCWG5HIIB2IWBBS8UBKXV4NI76PJ", "current_trial": 223, "dateTime": 1513546204268, "trialdata": {"rt": -1, "stimulus": "<p id=\"stim\">1</p>", "key_press": -1, "trial_type": "single-stim", "trial_index": 223, "time_elapsed": 1030514, "internal_node_id": "0.0-160.0-9.0"}}, {"uniqueid": "MTK1301:32SCWG5HIIB2IWBBS8UBKXV4NI76PJ", "current_trial": 224, "dateTime": 1513546205770, "trialdata": {"rt": -1, "stimulus": "<p id=\"stim\">+</p>", "key_press": -1, "type": "FIXATION", "trial_type": "single-stim", "trial_index": 224, "time_elapsed": 1032017, "internal_node_id": "0.0-161.0-0.0"}}, {"uniqueid": "MTK1301:32SCWG5HIIB2IWBBS8UBKXV4NI76PJ", "current_trial": 225, "dateTime": 1513546208431, "trialdata": {"rt": -1000, "stimulus": "/static/audio/wordpool/GRAPE.wav", "key_press": -1, "type": "PRES_AUD", "word": "grape", "wordID": 653, "conditions": [12, 1600, "a", 24000], "trial": 6, "serialpos": 0, "trial_type": "single-audio", "trial_index": 225, "time_elapsed": 1034678, "internal_node_id": "0.0-162.0"}}, {"uniqueid": "MTK1301:32SCWG5HIIB2IWBBS8UBKXV4NI76PJ", "current_trial": 226, "dateTime": 1513546211086, "trialdata": {"rt": -1000, "stimulus": "/static/audio/wordpool/BARLEY.wav", "key_press": -1, "type": "PRES_AUD", "word": "barley", "wordID": 87, "conditions": [12, 1600, "a", 24000], "trial": 6, "serialpos": 1, "trial_type": "single-audio", "trial_index": 226, "time_elapsed": 1037333, "internal_node_id": "0.0-163.0"}}, {"uniqueid": "MTK1301:32SCWG5HIIB2IWBBS8UBKXV4NI76PJ", "current_trial": 227, "dateTime": 1513546213812, "trialdata": {"rt": -1000, "stimulus": "/static/audio/wordpool/CHURCH.wav", "key_press": -1, "type": "PRES_AUD", "word": "church", "wordID": 306, "conditions": [12, 1600, "a", 24000], "trial": 6, "serialpos": 2, "trial_type": "single-audio", "trial_index": 227, "time_elapsed": 1040058, "internal_node_id": "0.0-164.0"}}, {"uniqueid": "MTK1301:32SCWG5HIIB2IWBBS8UBKXV4NI76PJ", "current_trial": 228, "dateTime": 1513546216499, "trialdata": {"rt": -1000, "stimulus": "/static/audio/wordpool/PISTOL.wav", "key_press": -1, "type": "PRES_AUD", "word": "pistol", "wordID": 1074, "conditions": [12, 1600, "a", 24000], "trial": 6, "serialpos": 3, "trial_type": "single-audio", "trial_index": 228, "time_elapsed": 1042746, "internal_node_id": "0.0-165.0"}}, {"uniqueid": "MTK1301:32SCWG5HIIB2IWBBS8UBKXV4NI76PJ", "current_trial": 229, "dateTime": 1513546219003, "trialdata": {"rt": -1000, "stimulus": "/static/audio/wordpool/CLAMP.wav", "key_press": -1, "type": "PRES_AUD", "word": "clamp", "wordID": 315, "conditions": [12, 1600, "a", 24000], "trial": 6, "serialpos": 4, "trial_type": "single-audio", "trial_index": 229, "time_elapsed": 1045250, "internal_node_id": "0.0-166.0"}}, {"uniqueid": "MTK1301:32SCWG5HIIB2IWBBS8UBKXV4NI76PJ", "current_trial": 230, "dateTime": 1513546221743, "trialdata": {"rt": -1000, "stimulus": "/static/audio/wordpool/MAPLE.wav", "key_press": -1, "type": "PRES_AUD", "word": "maple", "wordID": 865, "conditions": [12, 1600, "a", 24000], "trial": 6, "serialpos": 5, "trial_type": "single-audio", "trial_index": 230, "time_elapsed": 1047990, "internal_node_id": "0.0-167.0"}}, {"uniqueid": "MTK1301:32SCWG5HIIB2IWBBS8UBKXV4NI76PJ", "current_trial": 231, "dateTime": 1513546224276, "trialdata": {"rt": -1000, "stimulus": "/static/audio/wordpool/DENIM.wav", "key_press": -1, "type": "PRES_AUD", "word": "denim", "wordID": 445, "conditions": [12, 1600, "a", 24000], "trial": 6, "serialpos": 6, "trial_type": "single-audio", "trial_index": 231, "time_elapsed": 1050522, "internal_node_id": "0.0-168.0"}}, {"uniqueid": "MTK1301:32SCWG5HIIB2IWBBS8UBKXV4NI76PJ", "current_trial": 232, "dateTime": 1513546226817, "trialdata": {"rt": -1000, "stimulus": "/static/audio/wordpool/KNIFE.wav", "key_press": -1, "type": "PRES_AUD", "word": "knife", "wordID": 784, "conditions": [12, 1600, "a", 24000], "trial": 6, "serialpos": 7, "trial_type": "single-audio", "trial_index": 232, "time_elapsed": 1053064, "internal_node_id": "0.0-169.0"}}, {"uniqueid": "MTK1301:32SCWG5HIIB2IWBBS8UBKXV4NI76PJ", "current_trial": 233, "dateTime": 1513546229355, "trialdata": {"rt": -1000, "stimulus": "/static/audio/wordpool/ATLAS.wav", "key_press": -1, "type": "PRES_AUD", "word": "atlas", "wordID": 52, "conditions": [12, 1600, "a", 24000], "trial": 6, "serialpos": 8, "trial_type": "single-audio", "trial_index": 233, "time_elapsed": 1055602, "internal_node_id": "0.0-170.0"}}, {"uniqueid": "MTK1301:32SCWG5HIIB2IWBBS8UBKXV4NI76PJ", "current_trial": 234, "dateTime": 1513546231803, "trialdata": {"rt": -1000, "stimulus": "/static/audio/wordpool/ROD.wav", "key_press": -1, "type": "PRES_AUD", "word": "rod", "wordID": 1202, "conditions": [12, 1600, "a", 24000], "trial": 6, "serialpos": 9, "trial_type": "single-audio", "trial_index": 234, "time_elapsed": 1058049, "internal_node_id": "0.0-171.0"}}, {"uniqueid": "MTK1301:32SCWG5HIIB2IWBBS8UBKXV4NI76PJ", "current_trial": 235, "dateTime": 1513546234466, "trialdata": {"rt": -1000, "stimulus": "/static/audio/wordpool/QUARTER.wav", "key_press": -1, "type": "PRES_AUD", "word": "quarter", "wordID": 1147, "conditions": [12, 1600, "a", 24000], "trial": 6, "serialpos": 10, "trial_type": "single-audio", "trial_index": 235, "time_elapsed": 1060712, "internal_node_id": "0.0-172.0"}}, {"uniqueid": "MTK1301:32SCWG5HIIB2IWBBS8UBKXV4NI76PJ", "current_trial": 236, "dateTime": 1513546237249, "trialdata": {"rt": -1000, "stimulus": "/static/audio/wordpool/SADDLE.wav", "key_press": -1, "type": "PRES_AUD", "word": "saddle", "wordID": 1220, "conditions": [12, 1600, "a", 24000], "trial": 6, "serialpos": 11, "trial_type": "single-audio", "trial_index": 236, "time_elapsed": 1063496, "internal_node_id": "0.0-173.0"}}, {"uniqueid": "MTK1301:32SCWG5HIIB2IWBBS8UBKXV4NI76PJ", "current_trial": 237, "dateTime": 1513546238582, "trialdata": {"rt": -1, "stimulus": "", "key_press": -1, "type": "PRE_RECALL_DELAY", "trial_type": "single-stim", "trial_index": 237, "time_elapsed": 1064829, "internal_node_id": "0.0-174.0-0.0"}}, {"uniqueid": "MTK1301:32SCWG5HIIB2IWBBS8UBKXV4NI76PJ", "current_trial": 238, "dateTime": 1513546239085, "trialdata": {"rt": -1000, "stimulus": "/static/audio/400Hz.wav", "key_press": -1, "type": "PRE_RECALL_ALERT", "trial_type": "single-audio", "trial_index": 238, "time_elapsed": 1065332, "internal_node_id": "0.0-175.0"}}, {"uniqueid": "MTK1301:32SCWG5HIIB2IWBBS8UBKXV4NI76PJ", "current_trial": 239, "dateTime": 1513546299098, "trialdata": {"rt": [2403, 4304, 9720, 12494, 32444, 40852], "recwords": ["saddle", "quarter", "pistol", "denim", "barley", "grapes"], "type": "FREE_RECALL", "conditions": [12, 1600, "a", 24000], "trial": 6, "trial_type": "free-recall", "trial_index": 239, "time_elapsed": 1125337, "internal_node_id": "0.0-176.0-0.0"}}, {"uniqueid": "MTK1301:32SCWG5HIIB2IWBBS8UBKXV4NI76PJ", "current_trial": 240, "dateTime": 1513546303312, "trialdata": {"rt": 2211, "key_press": 32, "type": "INSTRUCTIONS", "trial_type": "text", "trial_index": 240, "time_elapsed": 1129559, "internal_node_id": "0.0-177.0"}}, {"uniqueid": "MTK1301:32SCWG5HIIB2IWBBS8UBKXV4NI76PJ", "current_trial": 241, "dateTime": 1513546317317, "trialdata": {"rt": [2499, 5841, 9785], "responses": ["7", "22", "23"], "num1": [1, 7, 7, 4], "num2": [1, 8, 9, 3], "num3": [5, 7, 7, 6], "type": "DISTRACTOR", "conditions": [12, 800, "a", 12000], "trial": 7, "trial_type": "math-distractor", "trial_index": 241, "time_elapsed": 1143564, "internal_node_id": "0.0-178.0"}}, {"uniqueid": "MTK1301:32SCWG5HIIB2IWBBS8UBKXV4NI76PJ", "current_trial": 242, "dateTime": 1513546320320, "trialdata": {"rt": -1, "stimulus": "<p id=\"stim\">10</p>", "key_press": -1, "trial_type": "single-stim", "trial_index": 242, "time_elapsed": 1146567, "internal_node_id": "0.0-179.0-0.0"}}, {"uniqueid": "MTK1301:32SCWG5HIIB2IWBBS8UBKXV4NI76PJ", "current_trial": 243, "dateTime": 1513546321322, "trialdata": {"rt": -1, "stimulus": "<p id=\"stim\">9</p>", "key_press": -1, "trial_type": "single-stim", "trial_index": 243, "time_elapsed": 1147569, "internal_node_id": "0.0-179.0-1.0"}}, {"uniqueid": "MTK1301:32SCWG5HIIB2IWBBS8UBKXV4NI76PJ", "current_trial": 244, "dateTime": 1513546322324, "trialdata": {"rt": -1, "stimulus": "<p id=\"stim\">8</p>", "key_press": -1, "trial_type": "single-stim", "trial_index": 244, "time_elapsed": 1148571, "internal_node_id": "0.0-179.0-2.0"}}, {"uniqueid": "MTK1301:32SCWG5HIIB2IWBBS8UBKXV4NI76PJ", "current_trial": 245, "dateTime": 1513546323327, "trialdata": {"rt": -1, "stimulus": "<p id=\"stim\">7</p>", "key_press": -1, "trial_type": "single-stim", "trial_index": 245, "time_elapsed": 1149574, "internal_node_id": "0.0-179.0-3.0"}}, {"uniqueid": "MTK1301:32SCWG5HIIB2IWBBS8UBKXV4NI76PJ", "current_trial": 246, "dateTime": 1513546324330, "trialdata": {"rt": -1, "stimulus": "<p id=\"stim\">6</p>", "key_press": -1, "trial_type": "single-stim", "trial_index": 246, "time_elapsed": 1150576, "internal_node_id": "0.0-179.0-4.0"}}, {"uniqueid": "MTK1301:32SCWG5HIIB2IWBBS8UBKXV4NI76PJ", "current_trial": 247, "dateTime": 1513546325332, "trialdata": {"rt": -1, "stimulus": "<p id=\"stim\">5</p>", "key_press": -1, "trial_type": "single-stim", "trial_index": 247, "time_elapsed": 1151579, "internal_node_id": "0.0-179.0-5.0"}}, {"uniqueid": "MTK1301:32SCWG5HIIB2IWBBS8UBKXV4NI76PJ", "current_trial": 248, "dateTime": 1513546326335, "trialdata": {"rt": -1, "stimulus": "<p id=\"stim\">4</p>", "key_press": -1, "trial_type": "single-stim", "trial_index": 248, "time_elapsed": 1152582, "internal_node_id": "0.0-179.0-6.0"}}, {"uniqueid": "MTK1301:32SCWG5HIIB2IWBBS8UBKXV4NI76PJ", "current_trial": 249, "dateTime": 1513546327338, "trialdata": {"rt": -1, "stimulus": "<p id=\"stim\">3</p>", "key_press": -1, "trial_type": "single-stim", "trial_index": 249, "time_elapsed": 1153584, "internal_node_id": "0.0-179.0-7.0"}}, {"uniqueid": "MTK1301:32SCWG5HIIB2IWBBS8UBKXV4NI76PJ", "current_trial": 250, "dateTime": 1513546328341, "trialdata": {"rt": -1, "stimulus": "<p id=\"stim\">2</p>", "key_press": -1, "trial_type": "single-stim", "trial_index": 250, "time_elapsed": 1154588, "internal_node_id": "0.0-179.0-8.0"}}, {"uniqueid": "MTK1301:32SCWG5HIIB2IWBBS8UBKXV4NI76PJ", "current_trial": 251, "dateTime": 1513546329345, "trialdata": {"rt": -1, "stimulus": "<p id=\"stim\">1</p>", "key_press": -1, "trial_type": "single-stim", "trial_index": 251, "time_elapsed": 1155592, "internal_node_id": "0.0-179.0-9.0"}}, {"uniqueid": "MTK1301:32SCWG5HIIB2IWBBS8UBKXV4NI76PJ", "current_trial": 252, "dateTime": 1513546330847, "trialdata": {"rt": -1, "stimulus": "<p id=\"stim\">+</p>", "key_press": -1, "type": "FIXATION", "trial_type": "single-stim", "trial_index": 252, "time_elapsed": 1157094, "internal_node_id": "0.0-180.0-0.0"}}, {"uniqueid": "MTK1301:32SCWG5HIIB2IWBBS8UBKXV4NI76PJ", "current_trial": 253, "dateTime": 1513546332601, "trialdata": {"rt": -1000, "stimulus": "/static/audio/wordpool/PIANO.wav", "key_press": -1, "type": "PRES_AUD", "word": "piano", "wordID": 1056, "conditions": [12, 800, "a", 12000], "trial": 7, "serialpos": 0, "trial_type": "single-audio", "trial_index": 253, "time_elapsed": 1158848, "internal_node_id": "0.0-181.0"}}, {"uniqueid": "MTK1301:32SCWG5HIIB2IWBBS8UBKXV4NI76PJ", "current_trial": 254, "dateTime": 1513546334440, "trialdata": {"rt": -1000, "stimulus": "/static/audio/wordpool/GYMNAST.wav", "key_press": -1, "type": "PRES_AUD", "word": "gymnast", "wordID": 674, "conditions": [12, 800, "a", 12000], "trial": 7, "serialpos": 1, "trial_type": "single-audio", "trial_index": 254, "time_elapsed": 1160687, "internal_node_id": "0.0-182.0"}}, {"uniqueid": "MTK1301:32SCWG5HIIB2IWBBS8UBKXV4NI76PJ", "current_trial": 255, "dateTime": 1513546336418, "trialdata": {"rt": -1000, "stimulus": "/static/audio/wordpool/ARMY.wav", "key_press": -1, "type": "PRES_AUD", "word": "army", "wordID": 38, "conditions": [12, 800, "a", 12000], "trial": 7, "serialpos": 2, "trial_type": "single-audio", "trial_index": 255, "time_elapsed": 1162664, "internal_node_id": "0.0-183.0"}}, {"uniqueid": "MTK1301:32SCWG5HIIB2IWBBS8UBKXV4NI76PJ", "current_trial": 256, "dateTime": 1513546338403, "trialdata": {"rt": -1000, "stimulus": "/static/audio/wordpool/BASEMENT.wav", "key_press": -1, "type": "PRES_AUD", "word": "basement", "wordID": 93, "conditions": [12, 800, "a", 12000], "trial": 7, "serialpos": 3, "trial_type": "single-audio", "trial_index": 256, "time_elapsed": 1164649, "internal_node_id": "0.0-184.0"}}, {"uniqueid": "MTK1301:32SCWG5HIIB2IWBBS8UBKXV4NI76PJ", "current_trial": 257, "dateTime": 1513546340153, "trialdata": {"rt": -1000, "stimulus": "/static/audio/wordpool/BROOK.wav", "key_press": -1, "type": "PRES_AUD", "word": "brook", "wordID": 176, "conditions": [12, 800, "a", 12000], "trial": 7, "serialpos": 4, "trial_type": "single-audio", "trial_index": 257, "time_elapsed": 1166400, "internal_node_id": "0.0-185.0"}}, {"uniqueid": "MTK1301:32SCWG5HIIB2IWBBS8UBKXV4NI76PJ", "current_trial": 258, "dateTime": 1513546341981, "trialdata": {"rt": -1000, "stimulus": "/static/audio/wordpool/LAVA.wav", "key_press": -1, "type": "PRES_AUD", "word": "lava", "wordID": 803, "conditions": [12, 800, "a", 12000], "trial": 7, "serialpos": 5, "trial_type": "single-audio", "trial_index": 258, "time_elapsed": 1168228, "internal_node_id": "0.0-186.0"}}, {"uniqueid": "MTK1301:32SCWG5HIIB2IWBBS8UBKXV4NI76PJ", "current_trial": 259, "dateTime": 1513546343805, "trialdata": {"rt": -1000, "stimulus": "/static/audio/wordpool/PLATE.wav", "key_press": -1, "type": "PRES_AUD", "word": "plate", "wordID": 1085, "conditions": [12, 800, "a", 12000], "trial": 7, "serialpos": 6, "trial_type": "single-audio", "trial_index": 259, "time_elapsed": 1170052, "internal_node_id": "0.0-187.0"}}, {"uniqueid": "MTK1301:32SCWG5HIIB2IWBBS8UBKXV4NI76PJ", "current_trial": 260, "dateTime": 1513546345441, "trialdata": {"rt": -1000, "stimulus": "/static/audio/wordpool/ASIA.wav", "key_press": -1, "type": "PRES_AUD", "word": "asia", "wordID": 45, "conditions": [12, 800, "a", 12000], "trial": 7, "serialpos": 7, "trial_type": "single-audio", "trial_index": 260, "time_elapsed": 1171687, "internal_node_id": "0.0-188.0"}}, {"uniqueid": "MTK1301:32SCWG5HIIB2IWBBS8UBKXV4NI76PJ", "current_trial": 261, "dateTime": 1513546347197, "trialdata": {"rt": -1000, "stimulus": "/static/audio/wordpool/EUROPE.wav", "key_press": -1, "type": "PRES_AUD", "word": "europe", "wordID": 540, "conditions": [12, 800, "a", 12000], "trial": 7, "serialpos": 8, "trial_type": "single-audio", "trial_index": 261, "time_elapsed": 1173444, "internal_node_id": "0.0-189.0"}}, {"uniqueid": "MTK1301:32SCWG5HIIB2IWBBS8UBKXV4NI76PJ", "current_trial": 262, "dateTime": 1513546348917, "trialdata": {"rt": -1000, "stimulus": "/static/audio/wordpool/TRIBE.wav", "key_press": -1, "type": "PRES_AUD", "word": "tribe", "wordID": 1504, "conditions": [12, 800, "a", 12000], "trial": 7, "serialpos": 9, "trial_type": "single-audio", "trial_index": 262, "time_elapsed": 1175164, "internal_node_id": "0.0-190.0"}}, {"uniqueid": "MTK1301:32SCWG5HIIB2IWBBS8UBKXV4NI76PJ", "current_trial": 263, "dateTime": 1513546350783, "trialdata": {"rt": -1000, "stimulus": "/static/audio/wordpool/TUBA.wav", "key_press": -1, "type": "PRES_AUD", "word": "tuba", "wordID": 1514, "conditions": [12, 800, "a", 12000], "trial": 7, "serialpos": 10, "trial_type": "single-audio", "trial_index": 263, "time_elapsed": 1177030, "internal_node_id": "0.0-191.0"}}, {"uniqueid": "MTK1301:32SCWG5HIIB2IWBBS8UBKXV4NI76PJ", "current_trial": 264, "dateTime": 1513546352686, "trialdata": {"rt": -1000, "stimulus": "/static/audio/wordpool/SUNSET.wav", "key_press": -1, "type": "PRES_AUD", "word": "sunset", "wordID": 1407, "conditions": [12, 800, "a", 12000], "trial": 7, "serialpos": 11, "trial_type": "single-audio", "trial_index": 264, "time_elapsed": 1178933, "internal_node_id": "0.0-192.0"}}, {"uniqueid": "MTK1301:32SCWG5HIIB2IWBBS8UBKXV4NI76PJ", "current_trial": 265, "dateTime": 1513546354033, "trialdata": {"rt": -1, "stimulus": "", "key_press": -1, "type": "PRE_RECALL_DELAY", "trial_type": "single-stim", "trial_index": 265, "time_elapsed": 1180280, "internal_node_id": "0.0-193.0-0.0"}}, {"uniqueid": "MTK1301:32SCWG5HIIB2IWBBS8UBKXV4NI76PJ", "current_trial": 266, "dateTime": 1513546354536, "trialdata": {"rt": -1000, "stimulus": "/static/audio/400Hz.wav", "key_press": -1, "type": "PRE_RECALL_ALERT", "trial_type": "single-audio", "trial_index": 266, "time_elapsed": 1180783, "internal_node_id": "0.0-194.0"}}, {"uniqueid": "MTK1301:32SCWG5HIIB2IWBBS8UBKXV4NI76PJ", "current_trial": 267, "dateTime": 1513546414554, "trialdata": {"rt": [2768, 3752, 6282, 8656, 11400, 16120], "recwords": ["sunset", "trike", "tuba", "army", "basement", "ballerina"], "type": "FREE_RECALL", "conditions": [12, 800, "a", 12000], "trial": 7, "trial_type": "free-recall", "trial_index": 267, "time_elapsed": 1240790, "internal_node_id": "0.0-195.0-0.0"}}, {"uniqueid": "MTK1301:32SCWG5HIIB2IWBBS8UBKXV4NI76PJ", "current_trial": 268, "dateTime": 1513546420996, "trialdata": {"rt": 4440, "key_press": 32, "type": "INSTRUCTIONS", "trial_type": "text", "trial_index": 268, "time_elapsed": 1247243, "internal_node_id": "0.0-196.0"}}, {"uniqueid": "MTK1301:32SCWG5HIIB2IWBBS8UBKXV4NI76PJ", "current_trial": 269, "dateTime": 1513546435001, "trialdata": {"rt": [2964, 4856, 8442], "responses": ["20", "12", "15"], "num1": [8, 1, 1, 8], "num2": [6, 5, 5, 8], "num3": [6, 6, 8, 9], "type": "DISTRACTOR", "conditions": [12, 800, "v", 12000], "trial": 8, "trial_type": "math-distractor", "trial_index": 269, "time_elapsed": 1261247, "internal_node_id": "0.0-197.0"}}, {"uniqueid": "MTK1301:32SCWG5HIIB2IWBBS8UBKXV4NI76PJ", "current_trial": 270, "dateTime": 1513546438004, "trialdata": {"rt": -1, "stimulus": "<p id=\"stim\">10</p>", "key_press": -1, "trial_type": "single-stim", "trial_index": 270, "time_elapsed": 1264250, "internal_node_id": "0.0-198.0-0.0"}}, {"uniqueid": "MTK1301:32SCWG5HIIB2IWBBS8UBKXV4NI76PJ", "current_trial": 271, "dateTime": 1513546439006, "trialdata": {"rt": -1, "stimulus": "<p id=\"stim\">9</p>", "key_press": -1, "trial_type": "single-stim", "trial_index": 271, "time_elapsed": 1265253, "internal_node_id": "0.0-198.0-1.0"}}, {"uniqueid": "MTK1301:32SCWG5HIIB2IWBBS8UBKXV4NI76PJ", "current_trial": 272, "dateTime": 1513546440009, "trialdata": {"rt": -1, "stimulus": "<p id=\"stim\">8</p>", "key_press": -1, "trial_type": "single-stim", "trial_index": 272, "time_elapsed": 1266256, "internal_node_id": "0.0-198.0-2.0"}}, {"uniqueid": "MTK1301:32SCWG5HIIB2IWBBS8UBKXV4NI76PJ", "current_trial": 273, "dateTime": 1513546441011, "trialdata": {"rt": -1, "stimulus": "<p id=\"stim\">7</p>", "key_press": -1, "trial_ty