{"assignmentId": "31QNSG6A5S00G4QZP1XS4P0AVO878S", "workerId": "MTK1418", "questiondata": {"avail_screen_height": 768, "color_depth": 24, "screen_width": 1366, "pixel_depth": 24, "avail_screen_width": 1366, "screen_height": 768}, "bonus": 0, "hitId": "3MIVREZQVH5SU3ZL4NYZ51UCEEAKQA", "counterbalance": 1788, "useragent": "Mozilla/5.0 (Windows NT 10.0; Win64; x64; rv:56.0) Gecko/20100101 Firefox/56.0", "eventdata": [{"eventtype": "initialized", "interval": 0, "value": null, "timestamp": 1515877924456}, {"eventtype": "window_resize", "interval": 0, "value": [1366, 676], "timestamp": 1515877924456}, {"eventtype": "focus", "interval": 994923, "value": "off", "timestamp": 1515878919379}, {"eventtype": "focus", "interval": 13719, "value": "on", "timestamp": 1515878933098}], "data": [{"current_trial": 0, "trialdata": {"rt": 1568, "trial_type": "text", "internal_node_id": "0.0-0.0", "time_elapsed": 1574, "key_press": 40, "type": "INSTRUCTIONS", "trial_index": 0}, "uniqueid": "MTK1418:31QNSG6A5S00G4QZP1XS4P0AVO878S", "dateTime": 1515877926655}, {"current_trial": 1, "trialdata": {"rt": 1006703, "trial_type": "text", "internal_node_id": "0.0-1.0", "time_elapsed": 1008285, "key_press": 70, "type": "INSTRUCTIONS", "trial_index": 1}, "uniqueid": "MTK1418:31QNSG6A5S00G4QZP1XS4P0AVO878S", "dateTime": 1515878933366}, {"current_trial": 2, "trialdata": {"rt": [10251], "trial_type": "audio-test", "responses": ["ocean"], "internal_node_id": "0.0-2.0", "time_elapsed": 1018612, "type": "AUDIO_TEST", "trial_index": 2}, "uniqueid": "MTK1418:31QNSG6A5S00G4QZP1XS4P0AVO878S", "dateTime": 1515878943692}, {"current_trial": 3, "trialdata": {"rt": [9021], "trial_type": "audio-test", "responses": ["crystal"], "internal_node_id": "0.0-3.0", "time_elapsed": 1027648, "type": "AUDIO_TEST", "trial_index": 3}, "uniqueid": "MTK1418:31QNSG6A5S00G4QZP1XS4P0AVO878S", "dateTime": 1515878952727}, {"current_trial": 4, "trialdata": {"rt": [11969], "trial_type": "audio-test", "responses": ["spice"], "internal_node_id": "0.0-4.0", "time_elapsed": 1039632, "type": "AUDIO_TEST", "trial_index": 4}, "uniqueid": "MTK1418:31QNSG6A5S00G4QZP1XS4P0AVO878S", "dateTime": 1515878964711}, {"current_trial": 5, "trialdata": {"rt": 28815, "trial_type": "survey-text", "responses": "{\"Q0\":\"11:00pm\",\"Q1\":\"7:00am\",\"Q2\":\"4\"}", "internal_node_id": "0.0-5.0", "time_elapsed": 1069215, "type": "SLEEP_SURVEY", "trial_index": 5}, "uniqueid": "MTK1418:31QNSG6A5S00G4QZP1XS4P0AVO878S", "dateTime": 1515878994295}, {"current_trial": 6, "trialdata": {"rt": 55984, "trial_type": "text", "internal_node_id": "0.0-6.0", "time_elapsed": 1126211, "key_press": 74, "type": "INSTRUCTIONS", "trial_index": 6}, "uniqueid": "MTK1418:31QNSG6A5S00G4QZP1XS4P0AVO878S", "dateTime": 1515879051292}, {"current_trial": 7, "trialdata": {"rt": 17755, "trial_type": "text", "internal_node_id": "0.0-7.0", "time_elapsed": 1144473, "key_press": 32, "type": "INSTRUCTIONS", "trial_index": 7}, "uniqueid": "MTK1418:31QNSG6A5S00G4QZP1XS4P0AVO878S", "dateTime": 1515879069554}, {"current_trial": 8, "trialdata": {"rt": 11560, "trial_type": "text", "internal_node_id": "0.0-8.0", "time_elapsed": 1156550, "key_press": 32, "type": "INSTRUCTIONS", "trial_index": 8}, "uniqueid": "MTK1418:31QNSG6A5S00G4QZP1XS4P0AVO878S", "dateTime": 1515879081630}, {"current_trial": 9, "trialdata": {"rt": [8541, 10904, 15253], "trial_type": "math-distractor", "key_times": [4125, 4375, 8541, 10376, 10516, 10904, 13247, 13455, 15253, 17660, 17952], "responses": ["17", "11", "19"], "num2": [8, 5, 2, 9], "num3": [6, 3, 9, 7], "conditions": [18, 1200, "v", 18000], "internal_node_id": "0.0-9.0", "key_presses": [97, 103, 13, 97, 97, 13, 97, 105, 13, 97, 104], "trial": 0, "time_elapsed": 1175623, "type": "DISTRACTOR", "trial_index": 9, "num1": [3, 3, 8, 2]}, "uniqueid": "MTK1418:31QNSG6A5S00G4QZP1XS4P0AVO878S", "dateTime": 1515879100703}, {"current_trial": 10, "trialdata": {"rt": -1, "trial_type": "single-stim", "stimulus": "<p id=\"stim\">10</p>", "internal_node_id": "0.0-10.0-0.0", "time_elapsed": 1178644, "key_press": -1, "trial_index": 10}, "uniqueid": "MTK1418:31QNSG6A5S00G4QZP1XS4P0AVO878S", "dateTime": 1515879103723}, {"current_trial": 11, "trialdata": {"rt": -1, "trial_type": "single-stim", "stimulus": "<p id=\"stim\">9</p>", "internal_node_id": "0.0-10.0-1.0", "time_elapsed": 1179647, "key_press": -1, "trial_index": 11}, "uniqueid": "MTK1418:31QNSG6A5S00G4QZP1XS4P0AVO878S", "dateTime": 1515879104726}, {"current_trial": 12, "trialdata": {"rt": -1, "trial_type": "single-stim", "stimulus": "<p id=\"stim\">8</p>", "internal_node_id": "0.0-10.0-2.0", "time_elapsed": 1180662, "key_press": -1, "trial_index": 12}, "uniqueid": "MTK1418:31QNSG6A5S00G4QZP1XS4P0AVO878S", "dateTime": 1515879105741}, {"current_trial": 13, "trialdata": {"rt": -1, "trial_type": "single-stim", "stimulus": "<p id=\"stim\">7</p>", "internal_node_id": "0.0-10.0-3.0", "time_elapsed": 1181675, "key_press": -1, "trial_index": 13}, "uniqueid": "MTK1418:31QNSG6A5S00G4QZP1XS4P0AVO878S", "dateTime": 1515879106754}, {"current_trial": 14, "trialdata": {"rt": -1, "trial_type": "single-stim", "stimulus": "<p id=\"stim\">6</p>", "internal_node_id": "0.0-10.0-4.0", "time_elapsed": 1182685, "key_press": -1, "trial_index": 14}, "uniqueid": "MTK1418:31QNSG6A5S00G4QZP1XS4P0AVO878S", "dateTime": 1515879107765}, {"current_trial": 15, "trialdata": {"rt": -1, "trial_type": "single-stim", "stimulus": "<p id=\"stim\">5</p>", "internal_node_id": "0.0-10.0-5.0", "time_elapsed": 1183694, "key_press": -1, "trial_index": 15}, "uniqueid": "MTK1418:31QNSG6A5S00G4QZP1XS4P0AVO878S", "dateTime": 1515879108773}, {"current_trial": 16, "trialdata": {"rt": -1, "trial_type": "single-stim", "stimulus": "<p id=\"stim\">4</p>", "internal_node_id": "0.0-10.0-6.0", "time_elapsed": 1184709, "key_press": -1, "trial_index": 16}, "uniqueid": "MTK1418:31QNSG6A5S00G4QZP1XS4P0AVO878S", "dateTime": 1515879109788}, {"current_trial": 17, "trialdata": {"rt": -1, "trial_type": "single-stim", "stimulus": "<p id=\"stim\">3</p>", "internal_node_id": "0.0-10.0-7.0", "time_elapsed": 1185715, "key_press": -1, "trial_index": 17}, "uniqueid": "MTK1418:31QNSG6A5S00G4QZP1XS4P0AVO878S", "dateTime": 1515879110795}, {"current_trial": 18, "trialdata": {"rt": -1, "trial_type": "single-stim", "stimulus": "<p id=\"stim\">2</p>", "internal_node_id": "0.0-10.0-8.0", "time_elapsed": 1186720, "key_press": -1, "trial_index": 18}, "uniqueid": "MTK1418:31QNSG6A5S00G4QZP1XS4P0AVO878S", "dateTime": 1515879111800}, {"current_trial": 19, "trialdata": {"rt": -1, "trial_type": "single-stim", "stimulus": "<p id=\"stim\">1</p>", "internal_node_id": "0.0-10.0-9.0", "time_elapsed": 1187722, "key_press": -1, "trial_index": 19}, "uniqueid": "MTK1418:31QNSG6A5S00G4QZP1XS4P0AVO878S", "dateTime": 1515879112801}, {"current_trial": 20, "trialdata": {"rt": -1, "trial_type": "single-stim", "stimulus": "<p id=\"stim\">+</p>", "internal_node_id": "0.0-11.0-0.0", "time_elapsed": 1189233, "key_press": -1, "type": "FIXATION", "trial_index": 20}, "uniqueid": "MTK1418:31QNSG6A5S00G4QZP1XS4P0AVO878S", "dateTime": 1515879114312}, {"current_trial": 21, "trialdata": {"rt": -1, "trial_type": "single-stim", "word": "inmate", "stimulus": "<p id=\"stim\">INMATE</p>", "conditions": [18, 1200, "v", 18000], "internal_node_id": "0.0-12.0", "trial": 0, "time_elapsed": 1190436, "serialpos": 0, "key_press": -1, "wordID": 737, "type": "PRES_VIS", "trial_index": 21}, "uniqueid": "MTK1418:31QNSG6A5S00G4QZP1XS4P0AVO878S", "dateTime": 1515879115517}, {"current_trial": 22, "trialdata": {"rt": -1, "trial_type": "single-stim", "word": "balloon", "stimulus": "<p id=\"stim\">BALLOON</p>", "conditions": [18, 1200, "v", 18000], "internal_node_id": "0.0-13.0", "trial": 0, "time_elapsed": 1192591, "serialpos": 1, "key_press": -1, "wordID": 74, "type": "PRES_VIS", "trial_index": 22}, "uniqueid": "MTK1418:31QNSG6A5S00G4QZP1XS4P0AVO878S", "dateTime": 1515879117671}, {"current_trial": 23, "trialdata": {"rt": -1, "trial_type": "single-stim", "word": "loft", "stimulus": "<p id=\"stim\">LOFT</p>", "conditions": [18, 1200, "v", 18000], "internal_node_id": "0.0-14.0", "trial": 0, "time_elapsed": 1194808, "serialpos": 2, "key_press": -1, "wordID": 839, "type": "PRES_VIS", "trial_index": 23}, "uniqueid": "MTK1418:31QNSG6A5S00G4QZP1XS4P0AVO878S", "dateTime": 1515879119888}, {"current_trial": 24, "trialdata": {"rt": -1, "trial_type": "single-stim", "word": "stove", "stimulus": "<p id=\"stim\">STOVE</p>", "conditions": [18, 1200, "v", 18000], "internal_node_id": "0.0-15.0", "trial": 0, "time_elapsed": 1196853, "serialpos": 3, "key_press": -1, "wordID": 1387, "type": "PRES_VIS", "trial_index": 24}, "uniqueid": "MTK1418:31QNSG6A5S00G4QZP1XS4P0AVO878S", "dateTime": 1515879121932}, {"current_trial": 25, "trialdata": {"rt": -1, "trial_type": "single-stim", "word": "mars", "stimulus": "<p id=\"stim\">MARS</p>", "conditions": [18, 1200, "v", 18000], "internal_node_id": "0.0-16.0", "trial": 0, "time_elapsed": 1198952, "serialpos": 4, "key_press": -1, "wordID": 872, "type": "PRES_VIS", "trial_index": 25}, "uniqueid": "MTK1418:31QNSG6A5S00G4QZP1XS4P0AVO878S", "dateTime": 1515879124032}, {"current_trial": 26, "trialdata": {"rt": -1, "trial_type": "single-stim", "word": "crib", "stimulus": "<p id=\"stim\">CRIB</p>", "conditions": [18, 1200, "v", 18000], "internal_node_id": "0.0-17.0", "trial": 0, "time_elapsed": 1200987, "serialpos": 5, "key_press": -1, "wordID": 406, "type": "PRES_VIS", "trial_index": 26}, "uniqueid": "MTK1418:31QNSG6A5S00G4QZP1XS4P0AVO878S", "dateTime": 1515879126066}, {"current_trial": 27, "trialdata": {"rt": -1, "trial_type": "single-stim", "word": "slope", "stimulus": "<p id=\"stim\">SLOPE</p>", "conditions": [18, 1200, "v", 18000], "internal_node_id": "0.0-18.0", "trial": 0, "time_elapsed": 1203270, "serialpos": 6, "key_press": -1, "wordID": 1327, "type": "PRES_VIS", "trial_index": 27}, "uniqueid": "MTK1418:31QNSG6A5S00G4QZP1XS4P0AVO878S", "dateTime": 1515879128349}, {"current_trial": 28, "trialdata": {"rt": -1, "trial_type": "single-stim", "word": "hedge", "stimulus": "<p id=\"stim\">HEDGE</p>", "conditions": [18, 1200, "v", 18000], "internal_node_id": "0.0-19.0", "trial": 0, "time_elapsed": 1205364, "serialpos": 7, "key_press": -1, "wordID": 698, "type": "PRES_VIS", "trial_index": 28}, "uniqueid": "MTK1418:31QNSG6A5S00G4QZP1XS4P0AVO878S", "dateTime": 1515879130443}, {"current_trial": 29, "trialdata": {"rt": -1, "trial_type": "single-stim", "word": "jury", "stimulus": "<p id=\"stim\">JURY</p>", "conditions": [18, 1200, "v", 18000], "internal_node_id": "0.0-20.0", "trial": 0, "time_elapsed": 1207485, "serialpos": 8, "key_press": -1, "wordID": 765, "type": "PRES_VIS", "trial_index": 29}, "uniqueid": "MTK1418:31QNSG6A5S00G4QZP1XS4P0AVO878S", "dateTime": 1515879132564}, {"current_trial": 30, "trialdata": {"rt": -1, "trial_type": "single-stim", "word": "wasp", "stimulus": "<p id=\"stim\">WASP</p>", "conditions": [18, 1200, "v", 18000], "internal_node_id": "0.0-21.0", "trial": 0, "time_elapsed": 1209838, "serialpos": 9, "key_press": -1, "wordID": 1592, "type": "PRES_VIS", "trial_index": 30}, "uniqueid": "MTK1418:31QNSG6A5S00G4QZP1XS4P0AVO878S", "dateTime": 1515879134917}, {"current_trial": 31, "trialdata": {"rt": -1, "trial_type": "single-stim", "word": "blouse", "stimulus": "<p id=\"stim\">BLOUSE</p>", "conditions": [18, 1200, "v", 18000], "internal_node_id": "0.0-22.0", "trial": 0, "time_elapsed": 1212120, "serialpos": 10, "key_press": -1, "wordID": 138, "type": "PRES_VIS", "trial_index": 31}, "uniqueid": "MTK1418:31QNSG6A5S00G4QZP1XS4P0AVO878S", "dateTime": 1515879137199}, {"current_trial": 32, "trialdata": {"rt": -1, "trial_type": "single-stim", "word": "apple", "stimulus": "<p id=\"stim\">APPLE</p>", "conditions": [18, 1200, "v", 18000], "internal_node_id": "0.0-23.0", "trial": 0, "time_elapsed": 1214225, "serialpos": 11, "key_press": -1, "wordID": 32, "type": "PRES_VIS", "trial_index": 32}, "uniqueid": "MTK1418:31QNSG6A5S00G4QZP1XS4P0AVO878S", "dateTime": 1515879139304}, {"current_trial": 33, "trialdata": {"rt": -1, "trial_type": "single-stim", "word": "curtain", "stimulus": "<p id=\"stim\">CURTAIN</p>", "conditions": [18, 1200, "v", 18000], "internal_node_id": "0.0-24.0", "trial": 0, "time_elapsed": 1216640, "serialpos": 12, "key_press": -1, "wordID": 426, "type": "PRES_VIS", "trial_index": 33}, "uniqueid": "MTK1418:31QNSG6A5S00G4QZP1XS4P0AVO878S", "dateTime": 1515879141719}, {"current_trial": 34, "trialdata": {"rt": -1, "trial_type": "single-stim", "word": "uncle", "stimulus": "<p id=\"stim\">UNCLE</p>", "conditions": [18, 1200, "v", 18000], "internal_node_id": "0.0-25.0", "trial": 0, "time_elapsed": 1218990, "serialpos": 13, "key_press": -1, "wordID": 1535, "type": "PRES_VIS", "trial_index": 34}, "uniqueid": "MTK1418:31QNSG6A5S00G4QZP1XS4P0AVO878S", "dateTime": 1515879144069}, {"current_trial": 35, "trialdata": {"rt": -1, "trial_type": "single-stim", "word": "fungus", "stimulus": "<p id=\"stim\">FUNGUS</p>", "conditions": [18, 1200, "v", 18000], "internal_node_id": "0.0-26.0", "trial": 0, "time_elapsed": 1221026, "serialpos": 14, "key_press": -1, "wordID": 613, "type": "PRES_VIS", "trial_index": 35}, "uniqueid": "MTK1418:31QNSG6A5S00G4QZP1XS4P0AVO878S", "dateTime": 1515879146106}, {"current_trial": 36, "trialdata": {"rt": -1, "trial_type": "single-stim", "word": "sparrow", "stimulus": "<p id=\"stim\">SPARROW</p>", "conditions": [18, 1200, "v", 18000], "internal_node_id": "0.0-27.0", "trial": 0, "time_elapsed": 1223126, "serialpos": 15, "key_press": -1, "wordID": 1346, "type": "PRES_VIS", "trial_index": 36}, "uniqueid": "MTK1418:31QNSG6A5S00G4QZP1XS4P0AVO878S", "dateTime": 1515879148205}, {"current_trial": 37, "trialdata": {"rt": -1, "trial_type": "single-stim", "word": "breast", "stimulus": "<p id=\"stim\">BREAST</p>", "conditions": [18, 1200, "v", 18000], "internal_node_id": "0.0-28.0", "trial": 0, "time_elapsed": 1225272, "serialpos": 16, "key_press": -1, "wordID": 170, "type": "PRES_VIS", "trial_index": 37}, "uniqueid": "MTK1418:31QNSG6A5S00G4QZP1XS4P0AVO878S", "dateTime": 1515879150351}, {"current_trial": 38, "trialdata": {"rt": -1, "trial_type": "single-stim", "word": "umpire", "stimulus": "<p id=\"stim\">UMPIRE</p>", "conditions": [18, 1200, "v", 18000], "internal_node_id": "0.0-29.0", "trial": 0, "time_elapsed": 1227551, "serialpos": 17, "key_press": -1, "wordID": 1534, "type": "PRES_VIS", "trial_index": 38}, "uniqueid": "MTK1418:31QNSG6A5S00G4QZP1XS4P0AVO878S", "dateTime": 1515879152630}, {"current_trial": 39, "trialdata": {"rt": -1, "trial_type": "single-stim", "stimulus": "", "internal_node_id": "0.0-30.0-0.0", "time_elapsed": 1229741, "key_press": -1, "type": "PRE_RECALL_DELAY", "trial_index": 39}, "uniqueid": "MTK1418:31QNSG6A5S00G4QZP1XS4P0AVO878S", "dateTime": 1515879154820}, {"current_trial": 40, "trialdata": {"rt": -1000, "trial_type": "single-audio", "stimulus": "/static/audio/400Hz.wav", "internal_node_id": "0.0-31.0", "time_elapsed": 1230292, "key_press": -1, "type": "PRE_RECALL_ALERT", "trial_index": 40}, "uniqueid": "MTK1418:31QNSG6A5S00G4QZP1XS4P0AVO878S", "dateTime": 1515879155372}, {"current_trial": 41, "trialdata": {"rt": [10087, 12225, 16628, 22767, 27961, 31464, 36328, 38043, 41890, 45558, 48448, 53223, 59941], "recwords": ["crib", "loft", "balloon", "mars", "hedge", "wasp", "apple", "blouse", "uncle", "fungus", "breast", "umpire", "sparrow"], "key_times": [8555, 9033, 9387, 9604, 10087, 11519, 11711, 11834, 12075, 12225, 14565, 14669, 14819, 14967, 15255, 15406, 16215, 16628, 22168, 22293, 22502, 22630, 22767, 27115, 27251, 27434, 27644, 27796, 27961, 30367, 30535, 30922, 31135, 31464, 34145, 34315, 34508, 34904, 35079, 35651, 35807, 36006, 36116, 36328, 37114, 37312, 37501, 37620, 37749, 37893, 38043, 40867, 41061, 41196, 41310, 41422, 41890, 44267, 44581, 44811, 44961, 45114, 45413, 45558, 47330, 47667, 47732, 47786, 47928, 48254, 48448, 51365, 51592, 52024, 52302, 52534, 52706, 52853, 52997, 53223, 58282, 58895, 59082, 59345, 59531, 59660, 59786, 59941], "trial_type": "free-recall", "conditions": [18, 1200, "v", 18000], "internal_node_id": "0.0-32.0-0.0", "key_presses": [67, 82, 73, 66, 13, 76, 79, 70, 84, 13, 66, 65, 76, 76, 79, 79, 78, 13, 77, 65, 82, 83, 13, 72, 69, 68, 71, 69, 13, 87, 65, 83, 80, 13, 65, 219, 219, 8, 8, 80, 80, 76, 69, 13, 66, 76, 79, 85, 83, 69, 13, 85, 78, 67, 76, 69, 13, 70, 85, 78, 71, 85, 83, 13, 66, 82, 69, 65, 83, 84, 13, 85, 74, 8, 77, 80, 73, 82, 69, 13, 83, 80, 65, 82, 82, 79, 87, 13], "trial": 0, "time_elapsed": 1290317, "type": "FREE_RECALL", "trial_index": 41}, "uniqueid": "MTK1418:31QNSG6A5S00G4QZP1XS4P0AVO878S", "dateTime": 1515879215409}, {"current_trial": 42, "trialdata": {"rt": 23019, "trial_type": "text", "internal_node_id": "0.0-33.0", "time_elapsed": 1315362, "key_press": 70, "type": "INSTRUCTIONS", "trial_index": 42}, "uniqueid": "MTK1418:31QNSG6A5S00G4QZP1XS4P0AVO878S", "dateTime": 1515879240443}, {"current_trial": 43, "trialdata": {"rt": [6054, 7995, 9794, 12847, 14433, 16222], "trial_type": "math-distractor", "key_times": [4949, 5214, 6054, 7451, 7717, 7995, 9252, 9489, 9794, 11948, 12167, 12847, 14178, 14433, 15842, 15998, 16222, 17943], "responses": ["15", "12", "13", "16", "7", "11"], "num2": [9, 4, 6, 2, 1, 6, 5], "num3": [4, 4, 1, 9, 5, 1, 2], "conditions": [18, 1200, "v", 18000], "internal_node_id": "0.0-34.0", "key_presses": [97, 101, 13, 97, 98, 13, 97, 99, 13, 97, 102, 13, 103, 13, 97, 97, 13, 97], "trial": 1, "time_elapsed": 1335407, "type": "DISTRACTOR", "trial_index": 43, "num1": [2, 4, 6, 5, 1, 4, 8]}, "uniqueid": "MTK1418:31QNSG6A5S00G4QZP1XS4P0AVO878S", "dateTime": 1515879260487}, {"current_trial": 44, "trialdata": {"rt": -1, "trial_type": "single-stim", "stimulus": "<p id=\"stim\">10</p>", "internal_node_id": "0.0-35.0-0.0", "time_elapsed": 1338418, "key_press": -1, "trial_index": 44}, "uniqueid": "MTK1418:31QNSG6A5S00G4QZP1XS4P0AVO878S", "dateTime": 1515879263498}, {"current_trial": 45, "trialdata": {"rt": -1, "trial_type": "single-stim", "stimulus": "<p id=\"stim\">9</p>", "internal_node_id": "0.0-35.0-1.0", "time_elapsed": 1339435, "key_press": -1, "trial_index": 45}, "uniqueid": "MTK1418:31QNSG6A5S00G4QZP1XS4P0AVO878S", "dateTime": 1515879264515}, {"current_trial": 46, "trialdata": {"rt": -1, "trial_type": "single-stim", "stimulus": "<p id=\"stim\">8</p>", "internal_node_id": "0.0-35.0-2.0", "time_elapsed": 1340439, "key_press": -1, "trial_index": 46}, "uniqueid": "MTK1418:31QNSG6A5S00G4QZP1XS4P0AVO878S", "dateTime": 1515879265519}, {"current_trial": 47, "trialdata": {"rt": -1, "trial_type": "single-stim", "stimulus": "<p id=\"stim\">7</p>", "internal_node_id": "0.0-35.0-3.0", "time_elapsed": 1341457, "key_press": -1, "trial_index": 47}, "uniqueid": "MTK1418:31QNSG6A5S00G4QZP1XS4P0AVO878S", "dateTime": 1515879266537}, {"current_trial": 48, "trialdata": {"rt": -1, "trial_type": "single-stim", "stimulus": "<p id=\"stim\">6</p>", "internal_node_id": "0.0-35.0-4.0", "time_elapsed": 1342461, "key_press": -1, "trial_index": 48}, "uniqueid": "MTK1418:31QNSG6A5S00G4QZP1XS4P0AVO878S", "dateTime": 1515879267540}, {"current_trial": 49, "trialdata": {"rt": -1, "trial_type": "single-stim", "stimulus": "<p id=\"stim\">5</p>", "internal_node_id": "0.0-35.0-5.0", "time_elapsed": 1343478, "key_press": -1, "trial_index": 49}, "uniqueid": "MTK1418:31QNSG6A5S00G4QZP1XS4P0AVO878S", "dateTime": 1515879268558}, {"current_trial": 50, "trialdata": {"rt": -1, "trial_type": "single-stim", "stimulus": "<p id=\"stim\">4</p>", "internal_node_id": "0.0-35.0-6.0", "time_elapsed": 1344496, "key_press": -1, "trial_index": 50}, "uniqueid": "MTK1418:31QNSG6A5S00G4QZP1XS4P0AVO878S", "dateTime": 1515879269575}, {"current_trial": 51, "trialdata": {"rt": -1, "trial_type": "single-stim", "stimulus": "<p id=\"stim\">3</p>", "internal_node_id": "0.0-35.0-7.0", "time_elapsed": 1345503, "key_press": -1, "trial_index": 51}, "uniqueid": "MTK1418:31QNSG6A5S00G4QZP1XS4P0AVO878S", "dateTime": 1515879270583}, {"current_trial": 52, "trialdata": {"rt": -1, "trial_type": "single-stim", "stimulus": "<p id=\"stim\">2</p>", "internal_node_id": "0.0-35.0-8.0", "time_elapsed": 1346554, "key_press": -1, "trial_index": 52}, "uniqueid": "MTK1418:31QNSG6A5S00G4QZP1XS4P0AVO878S", "dateTime": 1515879271634}, {"current_trial": 53, "trialdata": {"rt": -1, "trial_type": "single-stim", "stimulus": "<p id=\"stim\">1</p>", "internal_node_id": "0.0-35.0-9.0", "time_elapsed": 1347558, "key_press": -1, "trial_index": 53}, "uniqueid": "MTK1418:31QNSG6A5S00G4QZP1XS4P0AVO878S", "dateTime": 1515879272638}, {"current_trial": 54, "trialdata": {"rt": -1, "trial_type": "single-stim", "stimulus": "<p id=\"stim\">+</p>", "internal_node_id": "0.0-36.0-0.0", "time_elapsed": 1349108, "key_press": -1, "type": "FIXATION", "trial_index": 54}, "uniqueid": "MTK1418:31QNSG6A5S00G4QZP1XS4P0AVO878S", "dateTime": 1515879274188}, {"current_trial": 55, "trialdata": {"rt": -1, "trial_type": "single-stim", "word": "bank", "stimulus": "<p id=\"stim\">BANK</p>", "conditions": [18, 1200, "v", 18000], "internal_node_id": "0.0-37.0", "trial": 1, "time_elapsed": 1350364, "serialpos": 0, "key_press": -1, "wordID": 82, "type": "PRES_VIS", "trial_index": 55}, "uniqueid": "MTK1418:31QNSG6A5S00G4QZP1XS4P0AVO878S", "dateTime": 1515879275444}, {"current_trial": 56, "trialdata": {"rt": -1, "trial_type": "single-stim", "word": "cod", "stimulus": "<p id=\"stim\">COD</p>", "conditions": [18, 1200, "v", 18000], "internal_node_id": "0.0-38.0", "trial": 1, "time_elapsed": 1352439, "serialpos": 1, "key_press": -1, "wordID": 339, "type": "PRES_VIS", "trial_index": 56}, "uniqueid": "MTK1418:31QNSG6A5S00G4QZP1XS4P0AVO878S", "dateTime": 1515879277518}, {"current_trial": 57, "trialdata": {"rt": -1, "trial_type": "single-stim", "word": "dolphin", "stimulus": "<p id=\"stim\">DOLPHIN</p>", "conditions": [18, 1200, "v", 18000], "internal_node_id": "0.0-39.0", "trial": 1, "time_elapsed": 1354717, "serialpos": 2, "key_press": -1, "wordID": 482, "type": "PRES_VIS", "trial_index": 57}, "uniqueid": "MTK1418:31QNSG6A5S00G4QZP1XS4P0AVO878S", "dateTime": 1515879279797}, {"current_trial": 58, "trialdata": {"rt": -1, "trial_type": "single-stim", "word": "carrot", "stimulus": "<p id=\"stim\">CARROT</p>", "conditions": [18, 1200, "v", 18000], "internal_node_id": "0.0-40.0", "trial": 1, "time_elapsed": 1356892, "serialpos": 3, "key_press": -1, "wordID": 248, "type": "PRES_VIS", "trial_index": 58}, "uniqueid": "MTK1418:31QNSG6A5S00G4QZP1XS4P0AVO878S", "dateTime": 1515879281972}, {"current_trial": 59, "trialdata": {"rt": -1, "trial_type": "single-stim", "word": "lamp", "stimulus": "<p id=\"stim\">LAMP</p>", "conditions": [18, 1200, "v", 18000], "internal_node_id": "0.0-41.0", "trial": 1, "time_elapsed": 1359050, "serialpos": 4, "key_press": -1, "wordID": 797, "type": "PRES_VIS", "trial_index": 59}, "uniqueid": "MTK1418:31QNSG6A5S00G4QZP1XS4P0AVO878S", "dateTime": 1515879284130}, {"current_trial": 60, "trialdata": {"rt": -1, "trial_type": "single-stim", "word": "cashier", "stimulus": "<p id=\"stim\">CASHIER</p>", "conditions": [18, 1200, "v", 18000], "internal_node_id": "0.0-42.0", "trial": 1, "time_elapsed": 1361413, "serialpos": 5, "key_press": -1, "wordID": 253, "type": "PRES_VIS", "trial_index": 60}, "uniqueid": "MTK1418:31QNSG6A5S00G4QZP1XS4P0AVO878S", "dateTime": 1515879286492}, {"current_trial": 61, "trialdata": {"rt": -1, "trial_type": "single-stim", "word": "pliers", "stimulus": "<p id=\"stim\">PLIERS</p>", "conditions": [18, 1200, "v", 18000], "internal_node_id": "0.0-43.0", "trial": 1, "time_elapsed": 1363588, "serialpos": 6, "key_press": -1, "wordID": 1088, "type": "PRES_VIS", "trial_index": 61}, "uniqueid": "MTK1418:31QNSG6A5S00G4QZP1XS4P0AVO878S", "dateTime": 1515879288667}, {"current_trial": 62, "trialdata": {"rt": -1, "trial_type": "single-stim", "word": "mummy", "stimulus": "<p id=\"stim\">MUMMY</p>", "conditions": [18, 1200, "v", 18000], "internal_node_id": "0.0-44.0", "trial": 1, "time_elapsed": 1365907, "serialpos": 7, "key_press": -1, "wordID": 931, "type": "PRES_VIS", "trial_index": 62}, "uniqueid": "MTK1418:31QNSG6A5S00G4QZP1XS4P0AVO878S", "dateTime": 1515879290986}, {"current_trial": 63, "trialdata": {"rt": -1, "trial_type": "single-stim", "word": "lover", "stimulus": "<p id=\"stim\">LOVER</p>", "conditions": [18, 1200, "v", 18000], "internal_node_id": "0.0-45.0", "trial": 1, "time_elapsed": 1368114, "serialpos": 8, "key_press": -1, "wordID": 845, "type": "PRES_VIS", "trial_index": 63}, "uniqueid": "MTK1418:31QNSG6A5S00G4QZP1XS4P0AVO878S", "dateTime": 1515879293194}, {"current_trial": 64, "trialdata": {"rt": -1, "trial_type": "single-stim", "word": "infant", "stimulus": "<p id=\"stim\">INFANT</p>", "conditions": [18, 1200, "v", 18000], "internal_node_id": "0.0-46.0", "trial": 1, "time_elapsed": 1370287, "serialpos": 9, "key_press": -1, "wordID": 736, "type": "PRES_VIS", "trial_index": 64}, "uniqueid": "MTK1418:31QNSG6A5S00G4QZP1XS4P0AVO878S", "dateTime": 1515879295368}, {"current_trial": 65, "trialdata": {"rt": -1, "trial_type": "single-stim", "word": "tart", "stimulus": "<p id=\"stim\">TART</p>", "conditions": [18, 1200, "v", 18000], "internal_node_id": "0.0-47.0", "trial": 1, "time_elapsed": 1372644, "serialpos": 10, "key_press": -1, "wordID": 1435, "type": "PRES_VIS", "trial_index": 65}, "uniqueid": "MTK1418:31QNSG6A5S00G4QZP1XS4P0AVO878S", "dateTime": 1515879297724}, {"current_trial": 66, "trialdata": {"rt": -1, "trial_type": "single-stim", "word": "scissors", "stimulus": "<p id=\"stim\">SCISSORS</p>", "conditions": [18, 1200, "v", 18000], "internal_node_id": "0.0-48.0", "trial": 1, "time_elapsed": 1374952, "serialpos": 11, "key_press": -1, "wordID": 1249, "type": "PRES_VIS", "trial_index": 66}, "uniqueid": "MTK1418:31QNSG6A5S00G4QZP1XS4P0AVO878S", "dateTime": 1515879300031}, {"current_trial": 67, "trialdata": {"rt": -1, "trial_type": "single-stim", "word": "picture", "stimulus": "<p id=\"stim\">PICTURE</p>", "conditions": [18, 1200, "v", 18000], "internal_node_id": "0.0-49.0", "trial": 1, "time_elapsed": 1377100, "serialpos": 12, "key_press": -1, "wordID": 1060, "type": "PRES_VIS", "trial_index": 67}, "uniqueid": "MTK1418:31QNSG6A5S00G4QZP1XS4P0AVO878S", "dateTime": 1515879302179}, {"current_trial": 68, "trialdata": {"rt": -1, "trial_type": "single-stim", "word": "cobra", "stimulus": "<p id=\"stim\">COBRA</p>", "conditions": [18, 1200, "v", 18000], "internal_node_id": "0.0-50.0", "trial": 1, "time_elapsed": 1379486, "serialpos": 13, "key_press": -1, "wordID": 335, "type": "PRES_VIS", "trial_index": 68}, "uniqueid": "MTK1418:31QNSG6A5S00G4QZP1XS4P0AVO878S", "dateTime": 1515879304565}, {"current_trial": 69, "trialdata": {"rt": -1, "trial_type": "single-stim", "word": "slide", "stimulus": "<p id=\"stim\">SLIDE</p>", "conditions": [18, 1200, "v", 18000], "internal_node_id": "0.0-51.0", "trial": 1, "time_elapsed": 1381562, "serialpos": 14, "key_press": -1, "wordID": 1325, "type": "PRES_VIS", "trial_index": 69}, "uniqueid": "MTK1418:31QNSG6A5S00G4QZP1XS4P0AVO878S", "dateTime": 1515879306641}, {"current_trial": 70, "trialdata": {"rt": -1, "trial_type": "single-stim", "word": "finger", "stimulus": "<p id=\"stim\">FINGER</p>", "conditions": [18, 1200, "v", 18000], "internal_node_id": "0.0-52.0", "trial": 1, "time_elapsed": 1383844, "serialpos": 15, "key_press": -1, "wordID": 566, "type": "PRES_VIS", "trial_index": 70}, "uniqueid": "MTK1418:31QNSG6A5S00G4QZP1XS4P0AVO878S", "dateTime": 1515879308923}, {"current_trial": 71, "trialdata": {"rt": -1, "trial_type": "single-stim", "word": "razor", "stimulus": "<p id=\"stim\">RAZOR</p>", "conditions": [18, 1200, "v", 18000], "internal_node_id": "0.0-53.0", "trial": 1, "time_elapsed": 1386172, "serialpos": 16, "key_press": -1, "wordID": 1170, "type": "PRES_VIS", "trial_index": 71}, "uniqueid": "MTK1418:31QNSG6A5S00G4QZP1XS4P0AVO878S", "dateTime": 1515879311252}, {"current_trial": 72, "trialdata": {"rt": -1, "trial_type": "single-stim", "word": "star", "stimulus": "<p id=\"stim\">STAR</p>", "conditions": [18, 1200, "v", 18000], "internal_node_id": "0.0-54.0", "trial": 1, "time_elapsed": 1388267, "serialpos": 17, "key_press": -1, "wordID": 1372, "type": "PRES_VIS", "trial_index": 72}, "uniqueid": "MTK1418:31QNSG6A5S00G4QZP1XS4P0AVO878S", "dateTime": 1515879313346}, {"current_trial": 73, "trialdata": {"rt": -1, "trial_type": "single-stim", "stimulus": "", "internal_node_id": "0.0-55.0-0.0", "time_elapsed": 1390604, "key_press": -1, "type": "PRE_RECALL_DELAY", "trial_index": 73}, "uniqueid": "MTK1418:31QNSG6A5S00G4QZP1XS4P0AVO878S", "dateTime": 1515879315683}, {"current_trial": 74, "trialdata": {"rt": -1000, "trial_type": "single-audio", "stimulus": "/static/audio/400Hz.wav", "internal_node_id": "0.0-56.0", "time_elapsed": 1391110, "key_press": -1, "type": "PRE_RECALL_ALERT", "trial_index": 74}, "uniqueid": "MTK1418:31QNSG6A5S00G4QZP1XS4P0AVO878S", "dateTime": 1515879316189}, {"current_trial": 75, "trialdata": {"rt": [2633, 5687, 12365, 15892, 19106, 23289, 24687, 28509, 29523, 33690, 39120, 42900, 46873, 51093, 59408], "recwords": ["star", "finger", "razor", "slide", "cobra", "scissors", "tart", "infant", "lover", "mommy", "lamp", "carrot", "cod", "bank", "whale"], "key_times": [1040, 1450, 1644, 1780, 2633, 3535, 3642, 3802, 3993, 4101, 4717, 4857, 5196, 5321, 5460, 5687, 9838, 10012, 10179, 11333, 11536, 11925, 12063, 12365, 14773, 15186, 15458, 15595, 15779, 15892, 16726, 17343, 17551, 17727, 18023, 18469, 18600, 19106, 20848, 21203, 21530, 21696, 21850, 22231, 22485, 22654, 23289, 23804, 24066, 24095, 24319, 24687, 27392, 27547, 27826, 28041, 28205, 28396, 28509, 28646, 28893, 28990, 29170, 29330, 29523, 32437, 32636, 32912, 33093, 33371, 33690, 38340, 38495, 38561, 38781, 39120, 39464, 39636, 40058, 40244, 40301, 40458, 42900, 46102, 46466, 46637, 46873, 47926, 48074, 48212, 48369, 48906, 49047, 49836, 50057, 51093, 58024, 58424, 58612, 58995, 59171, 59408], "trial_type": "free-recall", "conditions": [18, 1200, "v", 18000], "internal_node_id": "0.0-57.0-0.0", "key_presses": [83, 84, 65, 82, 13, 70, 73, 78, 69, 82, 8, 8, 71, 69, 82, 13, 82, 65, 83, 8, 90, 79, 82, 13, 83, 76, 73, 68, 69, 32, 79, 8, 67, 79, 66, 82, 65, 13, 83, 67, 73, 83, 83, 79, 82, 83, 13, 84, 65, 82, 84, 13, 73, 78, 70, 65, 78, 84, 32, 76, 79, 86, 69, 82, 13, 77, 79, 77, 77, 89, 13, 76, 65, 77, 80, 13, 67, 65, 82, 82, 79, 84, 13, 67, 79, 68, 13, 66, 65, 77, 76, 8, 8, 78, 75, 13, 87, 72, 65, 76, 69, 13], "trial": 1, "time_elapsed": 1451127, "type": "FREE_RECALL", "trial_index": 75}, "uniqueid": "MTK1418:31QNSG6A5S00G4QZP1XS4P0AVO878S", "dateTime": 1515879376219}, {"current_trial": 76, "trialdata": {"rt": 22534, "trial_type": "text", "internal_node_id": "0.0-58.0", "time_elapsed": 1475716, "key_press": 32, "type": "INSTRUCTIONS", "trial_index": 76}, "uniqueid": "MTK1418:31QNSG6A5S00G4QZP1XS4P0AVO878S", "dateTime": 1515879400795}, {"current_trial": 77, "trialdata": {"rt": [2514, 4881, 6859, 9816], "trial_type": "math-distractor", "key_times": [1973, 2144, 2514, 4224, 4426, 4881, 6453, 6594, 6859, 9193, 9490, 9816, 11675, 11907], "responses": ["19", "20", "11", "19"], "num2": [9, 7, 1, 9, 9], "num3": [5, 6, 6, 6, 4], "conditions": [24, 800, "v", 12000], "internal_node_id": "0.0-59.0", "key_presses": [97, 105, 13, 98, 96, 13, 97, 97, 13, 97, 105, 13, 97, 103], "trial": 2, "time_elapsed": 1488746, "type": "DISTRACTOR", "trial_index": 77, "num1": [5, 7, 4, 4, 4]}, "uniqueid": "MTK1418:31QNSG6A5S00G4QZP1XS4P0AVO878S", "dateTime": 1515879413826}, {"current_trial": 78, "trialdata": {"rt": -1, "trial_type": "single-stim", "stimulus": "<p id=\"stim\">10</p>", "internal_node_id": "0.0-60.0-0.0", "time_elapsed": 1491767, "key_press": -1, "trial_index": 78}, "uniqueid": "MTK1418:31QNSG6A5S00G4QZP1XS4P0AVO878S", "dateTime": 1515879416847}, {"current_trial": 79, "trialdata": {"rt": -1, "trial_type": "single-stim", "stimulus": "<p id=\"stim\">9</p>", "internal_node_id": "0.0-60.0-1.0", "time_elapsed": 1492783, "key_press": -1, "trial_index": 79}, "uniqueid": "MTK1418:31QNSG6A5S00G4QZP1XS4P0AVO878S", "dateTime": 1515879417863}, {"current_trial": 80, "trialdata": {"rt": -1, "trial_type": "single-stim", "stimulus": "<p id=\"stim\">8</p>", "internal_node_id": "0.0-60.0-2.0", "time_elapsed": 1493797, "key_press": -1, "trial_index": 80}, "uniqueid": "MTK1418:31QNSG6A5S00G4QZP1XS4P0AVO878S", "dateTime": 1515879418877}, {"current_trial": 81, "trialdata": {"rt": -1, "trial_type": "single-stim", "stimulus": "<p id=\"stim\">7</p>", "internal_node_id": "0.0-60.0-3.0", "time_elapsed": 1494814, "key_press": -1, "trial_index": 81}, "uniqueid": "MTK1418:31QNSG6A5S00G4QZP1XS4P0AVO878S", "dateTime": 1515879419895}, {"current_trial": 82, "trialdata": {"rt": -1, "trial_type": "single-stim", "stimulus": "<p id=\"stim\">6</p>", "internal_node_id": "0.0-60.0-4.0", "time_elapsed": 1495835, "key_press": -1, "trial_index": 82}, "uniqueid": "MTK1418:31QNSG6A5S00G4QZP1XS4P0AVO878S", "dateTime": 1515879420915}, {"current_trial": 83, "trialdata": {"rt": -1, "trial_type": "single-stim", "stimulus": "<p id=\"stim\">5</p>", "internal_node_id": "0.0-60.0-5.0", "time_elapsed": 1496841, "key_press": -1, "trial_index": 83}, "uniqueid": "MTK1418:31QNSG6A5S00G4QZP1XS4P0AVO878S", "dateTime": 1515879421921}, {"current_trial": 84, "trialdata": {"rt": -1, "trial_type": "single-stim", "stimulus": "<p id=\"stim\">4</p>", "internal_node_id": "0.0-60.0-6.0", "time_elapsed": 1497860, "key_press": -1, "trial_index": 84}, "uniqueid": "MTK1418:31QNSG6A5S00G4QZP1XS4P0AVO878S", "dateTime": 1515879422940}, {"current_trial": 85, "trialdata": {"rt": -1, "trial_type": "single-stim", "stimulus": "<p id=\"stim\">3</p>", "internal_node_id": "0.0-60.0-7.0", "time_elapsed": 1498879, "key_press": -1, "trial_index": 85}, "uniqueid": "MTK1418:31QNSG6A5S00G4QZP1XS4P0AVO878S", "dateTime": 1515879423961}, {"current_trial": 86, "trialdata": {"rt": -1, "trial_type": "single-stim", "stimulus": "<p id=\"stim\">2</p>", "internal_node_id": "0.0-60.0-8.0", "time_elapsed": 1499893, "key_press": -1, "trial_index": 86}, "uniqueid": "MTK1418:31QNSG6A5S00G4QZP1XS4P0AVO878S", "dateTime": 1515879424973}, {"current_trial": 87, "trialdata": {"rt": -1, "trial_type": "single-stim", "stimulus": "<p id=\"stim\">1</p>", "internal_node_id": "0.0-60.0-9.0", "time_elapsed": 1500910, "key_press": -1, "trial_index": 87}, "uniqueid": "MTK1418:31QNSG6A5S00G4QZP1XS4P0AVO878S", "dateTime": 1515879425989}, {"current_trial": 88, "trialdata": {"rt": -1, "trial_type": "single-stim", "stimulus": "<p id=\"stim\">+</p>", "internal_node_id": "0.0-61.0-0.0", "time_elapsed": 1502415, "key_press": -1, "type": "FIXATION", "trial_index": 88}, "uniqueid": "MTK1418:31QNSG6A5S00G4QZP1XS4P0AVO878S", "dateTime": 1515879427495}, {"current_trial": 89, "trialdata": {"rt": -1, "trial_type": "single-stim", "word": "parrot", "stimulus": "<p id=\"stim\">PARROT</p>", "conditions": [24, 800, "v", 12000], "internal_node_id": "0.0-62.0", "trial": 2, "time_elapsed": 1503218, "serialpos": 0, "key_press": -1, "wordID": 1014, "type": "PRES_VIS", "trial_index": 89}, "uniqueid": "MTK1418:31QNSG6A5S00G4QZP1XS4P0AVO878S", "dateTime": 1515879428297}, {"current_trial": 90, "trialdata": {"rt": -1, "trial_type": "single-stim", "word": "gazelle", "stimulus": "<p id=\"stim\">GAZELLE</p>", "conditions": [24, 800, "v", 12000], "internal_node_id": "0.0-63.0", "trial": 2, "time_elapsed": 1505083, "serialpos": 1, "key_press": -1, "wordID": 627, "type": "PRES_VIS", "trial_index": 90}, "uniqueid": "MTK1418:31QNSG6A5S00G4QZP1XS4P0AVO878S", "dateTime": 1515879430163}, {"current_trial": 91, "trialdata": {"rt": -1, "trial_type": "single-stim", "word": "lettuce", "stimulus": "<p id=\"stim\">LETTUCE</p>", "conditions": [24, 800, "v", 12000], "internal_node_id": "0.0-64.0", "trial": 2, "time_elapsed": 1507086, "serialpos": 2, "key_press": -1, "wordID": 813, "type": "PRES_VIS", "trial_index": 91}, "uniqueid": "MTK1418:31QNSG6A5S00G4QZP1XS4P0AVO878S", "dateTime": 1515879432165}, {"current_trial": 92, "trialdata": {"rt": -1, "trial_type": "single-stim", "word": "badge", "stimulus": "<p id=\"stim\">BADGE</p>", "conditions": [24, 800, "v", 12000], "internal_node_id": "0.0-65.0", "trial": 2, "time_elapsed": 1508929, "serialpos": 3, "key_press": -1, "wordID": 67, "type": "PRES_VIS", "trial_index": 92}, "uniqueid": "MTK1418:31QNSG6A5S00G4QZP1XS4P0AVO878S", "dateTime": 1515879434010}, {"current_trial": 93, "trialdata": {"rt": -1, "trial_type": "single-stim", "word": "ground", "stimulus": "<p id=\"stim\">GROUND</p>", "conditions": [24, 800, "v", 12000], "internal_node_id": "0.0-66.0", "trial": 2, "time_elapsed": 1510933, "serialpos": 4, "key_press": -1, "wordID": 665, "type": "PRES_VIS", "trial_index": 93}, "uniqueid": "MTK1418:31QNSG6A5S00G4QZP1XS4P0AVO878S", "dateTime": 1515879436012}, {"current_trial": 94, "trialdata": {"rt": -1, "trial_type": "single-stim", "word": "crab", "stimulus": "<p id=\"stim\">CRAB</p>", "conditions": [24, 800, "v", 12000], "internal_node_id": "0.0-67.0", "trial": 2, "time_elapsed": 1512609, "serialpos": 5, "key_press": -1, "wordID": 396, "type": "PRES_VIS", "trial_index": 94}, "uniqueid": "MTK1418:31QNSG6A5S00G4QZP1XS4P0AVO878S", "dateTime": 1515879437688}, {"current_trial": 95, "trialdata": {"rt": -1, "trial_type": "single-stim", "word": "suitcase", "stimulus": "<p id=\"stim\">SUITCASE</p>", "conditions": [24, 800, "v", 12000], "internal_node_id": "0.0-68.0", "trial": 2, "time_elapsed": 1514308, "serialpos": 6, "key_press": -1, "wordID": 1402, "type": "PRES_VIS", "trial_index": 95}, "uniqueid": "MTK1418:31QNSG6A5S00G4QZP1XS4P0AVO878S", "dateTime": 1515879439388}, {"current_trial": 96, "trialdata": {"rt": -1, "trial_type": "single-stim", "word": "glass", "stimulus": "<p id=\"stim\">GLASS</p>", "conditions": [24, 800, "v", 12000], "internal_node_id": "0.0-69.0", "trial": 2, "time_elapsed": 1516191, "serialpos": 7, "key_press": -1, "wordID": 638, "type": "PRES_VIS", "trial_index": 96}, "uniqueid": "MTK1418:31QNSG6A5S00G4QZP1XS4P0AVO878S", "dateTime": 1515879441270}, {"current_trial": 97, "trialdata": {"rt": -1, "trial_type": "single-stim", "word": "orchid", "stimulus": "<p id=\"stim\">ORCHID</p>", "conditions": [24, 800, "v", 12000], "internal_node_id": "0.0-70.0", "trial": 2, "time_elapsed": 1518237, "serialpos": 8, "key_press": -1, "wordID": 981, "type": "PRES_VIS", "trial_index": 97}, "uniqueid": "MTK1418:31QNSG6A5S00G4QZP1XS4P0AVO878S", "dateTime": 1515879443316}, {"current_trial": 98, "trialdata": {"rt": -1, "trial_type": "single-stim", "word": "sticker", "stimulus": "<p id=\"stim\">STICKER</p>", "conditions": [24, 800, "v", 12000], "internal_node_id": "0.0-71.0", "trial": 2, "time_elapsed": 1519923, "serialpos": 9, "key_press": -1, "wordID": 1381, "type": "PRES_VIS", "trial_index": 98}, "uniqueid": "MTK1418:31QNSG6A5S00G4QZP1XS4P0AVO878S", "dateTime": 1515879445002}, {"current_trial": 99, "trialdata": {"rt": -1, "trial_type": "single-stim", "word": "church", "stimulus": "<p id=\"stim\">CHURCH</p>", "conditions": [24, 800, "v", 12000], "internal_node_id": "0.0-72.0", "trial": 2, "time_elapsed": 1521941, "serialpos": 10, "key_press": -1, "wordID": 306, "type": "PRES_VIS", "trial_index": 99}, "uniqueid": "MTK1418:31QNSG6A5S00G4QZP1XS4P0AVO878S", "dateTime": 1515879447020}, {"current_trial": 100, "trialdata": {"rt": -1, "trial_type": "single-stim", "word": "chapel", "stimulus": "<p id=\"stim\">CHAPEL</p>", "conditions": [24, 800, "v", 12000], "internal_node_id": "0.0-73.0", "trial": 2, "time_elapsed": 1523672, "serialpos": 11, "key_press": -1, "wordID": 279, "type": "PRES_VIS", "trial_index": 100}, "uniqueid": "MTK1418:31QNSG6A5S00G4QZP1XS4P0AVO878S", "dateTime": 1515879448751}, {"current_trial": 101, "trialdata": {"rt": -1, "trial_type": "single-stim", "word": "lodge", "stimulus": "<p id=\"stim\">LODGE</p>", "conditions": [24, 800, "v", 12000], "internal_node_id": "0.0-74.0", "trial": 2, "time_elapsed": 1525614, "serialpos": 12, "key_press": -1, "wordID": 838, "type": "PRES_VIS", "trial_index": 101}, "uniqueid": "MTK1418:31QNSG6A5S00G4QZP1XS4P0AVO878S", "dateTime": 1515879450693}, {"current_trial": 102, "trialdata": {"rt": -1, "trial_type": "single-stim", "word": "binder", "stimulus": "<p id=\"stim\">BINDER</p>", "conditions": [24, 800, "v", 12000], "internal_node_id": "0.0-75.0", "trial": 2, "time_elapsed": 1527321, "serialpos": 13, "key_press": -1, "wordID": 126, "type": "PRES_VIS", "trial_index": 102}, "uniqueid": "MTK1418:31QNSG6A5S00G4QZP1XS4P0AVO878S", "dateTime": 1515879452400}, {"current_trial": 103, "trialdata": {"rt": -1, "trial_type": "single-stim", "word": "daughter", "stimulus": "<p id=\"stim\">DAUGHTER</p>", "conditions": [24, 800, "v", 12000], "internal_node_id": "0.0-76.0", "trial": 2, "time_elapsed": 1529248, "serialpos": 14, "key_press": -1, "wordID": 441, "type": "PRES_VIS", "trial_index": 103}, "uniqueid": "MTK1418:31QNSG6A5S00G4QZP1XS4P0AVO878S", "dateTime": 1515879454328}, {"current_trial": 104, "trialdata": {"rt": -1, "trial_type": "single-stim", "word": "liver", "stimulus": "<p id=\"stim\">LIVER</p>", "conditions": [24, 800, "v", 12000], "internal_node_id": "0.0-77.0", "trial": 2, "time_elapsed": 1531055, "serialpos": 15, "key_press": -1, "wordID": 832, "type": "PRES_VIS", "trial_index": 104}, "uniqueid": "MTK1418:31QNSG6A5S00G4QZP1XS4P0AVO878S", "dateTime": 1515879456134}, {"current_trial": 105, "trialdata": {"rt": -1, "trial_type": "single-stim", "word": "kidney", "stimulus": "<p id=\"stim\">KIDNEY</p>", "conditions": [24, 800, "v", 12000], "internal_node_id": "0.0-78.0", "trial": 2, "time_elapsed": 1532828, "serialpos": 16, "key_press": -1, "wordID": 775, "type": "PRES_VIS", "trial_index": 105}, "uniqueid": "MTK1418:31QNSG6A5S00G4QZP1XS4P0AVO878S", "dateTime": 1515879457908}, {"current_trial": 106, "trialdata": {"rt": -1, "trial_type": "single-stim", "word": "girl", "stimulus": "<p id=\"stim\">GIRL</p>", "conditions": [24, 800, "v", 12000], "internal_node_id": "0.0-79.0", "trial": 2, "time_elapsed": 1534697, "serialpos": 17, "key_press": -1, "wordID": 636, "type": "PRES_VIS", "trial_index": 106}, "uniqueid": "MTK1418:31QNSG6A5S00G4QZP1XS4P0AVO878S", "dateTime": 1515879459776}, {"current_trial": 107, "trialdata": {"rt": -1, "trial_type": "single-stim", "word": "money", "stimulus": "<p id=\"stim\">MONEY</p>", "conditions": [24, 800, "v", 12000], "internal_node_id": "0.0-80.0", "trial": 2, "time_elapsed": 1536408, "serialpos": 18, "key_press": -1, "wordID": 907, "type": "PRES_VIS", "trial_index": 107}, "uniqueid": "MTK1418:31QNSG6A5S00G4QZP1XS4P0AVO878S", "dateTime": 1515879461487}, {"current_trial": 108, "trialdata": {"rt": -1, "trial_type": "single-stim", "word": "missile", "stimulus": "<p id=\"stim\">MISSILE</p>", "conditions": [24, 800, "v", 12000], "internal_node_id": "0.0-81.0", "trial": 2, "time_elapsed": 1538022, "serialpos": 19, "key_press": -1, "wordID": 899, "type": "PRES_VIS", "trial_index": 108}, "uniqueid": "MTK1418:31QNSG6A5S00G4QZP1XS4P0AVO878S", "dateTime": 1515879463101}, {"current_trial": 109, "trialdata": {"rt": -1, "trial_type": "single-stim", "word": "laser", "stimulus": "<p id=\"stim\">LASER</p>", "conditions": [24, 800, "v", 12000], "internal_node_id": "0.0-82.0", "trial": 2, "time_elapsed": 1539837, "serialpos": 20, "key_press": -1, "wordID": 800, "type": "PRES_VIS", "trial_index": 109}, "uniqueid": "MTK1418:31QNSG6A5S00G4QZP1XS4P0AVO878S", "dateTime": 1515879464916}, {"current_trial": 110, "trialdata": {"rt": -1, "trial_type": "single-stim", "word": "shoulder", "stimulus": "<p id=\"stim\">SHOULDER</p>", "conditions": [24, 800, "v", 12000], "internal_node_id": "0.0-83.0", "trial": 2, "time_elapsed": 1541836, "serialpos": 21, "key_press": -1, "wordID": 1293, "type": "PRES_VIS", "trial_index": 110}, "uniqueid": "MTK1418:31QNSG6A5S00G4QZP1XS4P0AVO878S", "dateTime": 1515879466916}, {"current_trial": 111, "trialdata": {"rt": -1, "trial_type": "single-stim", "word": "plaza", "stimulus": "<p id=\"stim\">PLAZA</p>", "conditions": [24, 800, "v", 12000], "internal_node_id": "0.0-84.0", "trial": 2, "time_elapsed": 1543578, "serialpos": 22, "key_press": -1, "wordID": 1087, "type": "PRES_VIS", "trial_index": 111}, "uniqueid": "MTK1418:31QNSG6A5S00G4QZP1XS4P0AVO878S", "dateTime": 1515879468658}, {"current_trial": 112, "trialdata": {"rt": -1, "trial_type": "single-stim", "word": "boyfriend", "stimulus": "<p id=\"stim\">BOYFRIEND</p>", "conditions": [24, 800, "v", 12000], "internal_node_id": "0.0-85.0", "trial": 2, "time_elapsed": 1545213, "serialpos": 23, "key_press": -1, "wordID": 161, "type": "PRES_VIS", "trial_index": 112}, "uniqueid": "MTK1418:31QNSG6A5S00G4QZP1XS4P0AVO878S", "dateTime": 1515879470292}, {"current_trial": 113, "trialdata": {"rt": -1, "trial_type": "single-stim", "stimulus": "", "internal_node_id": "0.0-86.0-0.0", "time_elapsed": 1547271, "key_press": -1, "type": "PRE_RECALL_DELAY", "trial_index": 113}, "uniqueid": "MTK1418:31QNSG6A5S00G4QZP1XS4P0AVO878S", "dateTime": 1515879472350}, {"current_trial": 114, "trialdata": {"rt": -1000, "trial_type": "single-audio", "stimulus": "/static/audio/400Hz.wav", "internal_node_id": "0.0-87.0", "time_elapsed": 1547777, "key_press": -1, "type": "PRE_RECALL_ALERT", "trial_index": 114}, "uniqueid": "MTK1418:31QNSG6A5S00G4QZP1XS4P0AVO878S", "dateTime": 1515879472857}, {"current_trial": 115, "trialdata": {"rt": [2496, 3326, 6111, 7857, 11027, 19133, 26412, 30218, 37040, 40408, 48283, 49808], "recwords": ["money", "girl", "missle", "lasor", "crab", "boyfriends", "liver", "kidney", "church", "chapel", "glass", "ground"], "key_times": [1293, 1452, 1597, 1602, 1880, 2496, 2808, 2931, 3109, 3197, 3326, 4157, 4295, 4409, 4550, 4897, 5093, 5480, 5613, 5851, 5979, 6111, 6545, 6700, 6962, 7277, 7376, 7523, 7692, 7857, 8998, 9166, 10037, 10219, 10343, 10606, 11027, 16551, 16900, 17150, 17293, 17601, 17781, 17889, 18009, 18122, 18987, 19133, 25611, 25843, 25946, 26130, 26236, 26412, 28121, 28334, 28401, 28984, 29076, 29318, 29508, 29655, 29764, 29909, 30218, 34371, 34607, 34849, 34860, 34958, 35318, 35576, 35750, 36021, 36176, 36578, 36691, 37040, 37355, 37626, 37980, 38154, 38428, 38524, 39171, 39388, 39728, 39849, 40005, 40102, 40408, 47455, 47634, 47802, 48022, 48181, 48283, 48803, 49041, 49123, 49281, 49501, 49563, 49808, 58778, 59510, 59733, 59962], "trial_type": "free-recall", "conditions": [24, 800, "v", 12000], "internal_node_id": "0.0-88.0-0.0", "key_presses": [77, 79, 78, 69, 89, 13, 71, 73, 82, 76, 32, 77, 73, 83, 83, 69, 76, 8, 8, 76, 69, 13, 76, 65, 90, 8, 83, 79, 82, 13, 67, 65, 8, 82, 65, 66, 13, 66, 79, 89, 70, 82, 73, 69, 78, 68, 83, 13, 76, 73, 86, 69, 82, 13, 75, 68, 73, 8, 8, 73, 68, 78, 69, 89, 13, 67, 72, 73, 85, 82, 8, 8, 8, 85, 82, 67, 72, 13, 67, 72, 65, 80, 76, 69, 8, 69, 8, 8, 69, 76, 13, 71, 76, 65, 83, 83, 13, 71, 82, 79, 85, 78, 68, 13, 68, 69, 69, 82], "trial": 2, "time_elapsed": 1607802, "type": "FREE_RECALL", "trial_index": 115}, "uniqueid": "MTK1418:31QNSG6A5S00G4QZP1XS4P0AVO878S", "dateTime": 1515879532892}, {"current_trial": 116, "trialdata": {"rt": 1900, "trial_type": "text", "internal_node_id": "0.0-89.0", "time_elapsed": 1611750, "key_press": 32, "type": "INSTRUCTIONS", "trial_index": 116}, "uniqueid": "MTK1418:31QNSG6A5S00G4QZP1XS4P0AVO878S", "dateTime": 1515879536831}, {"current_trial": 117, "trialdata": {"rt": [3088, 7869, 10800, 15696, 17559, 19479, 22178], "trial_type": "math-distractor", "key_times": [1945, 2363, 3088, 7362, 7544, 7869, 10431, 10614, 10800, 15001, 15221, 15696, 17187, 17332, 17559, 18932, 19199, 19479, 21767, 21942, 22178], "responses": ["13", "21", "21", "13", "12", "16", "23"], "num2": [9, 9, 7, 4, 2, 1, 5, 3], "num3": [3, 5, 8, 8, 3, 6, 9, 9], "conditions": [24, 800, "v", 24000], "internal_node_id": "0.0-90.0", "key_presses": [97, 99, 13, 98, 97, 13, 98, 97, 13, 97, 99, 13, 97, 98, 13, 97, 102, 13, 98, 99, 13], "trial": 3, "time_elapsed": 1637790, "type": "DISTRACTOR", "trial_index": 117, "num1": [1, 8, 6, 1, 7, 9, 9, 2]}, "uniqueid": "MTK1418:31QNSG6A5S00G4QZP1XS4P0AVO878S", "dateTime": 1515879562871}, {"current_trial": 118, "trialdata": {"rt": -1, "trial_type": "single-stim", "stimulus": "<p id=\"stim\">10</p>", "internal_node_id": "0.0-91.0-0.0", "time_elapsed": 1640804, "key_press": -1, "trial_index": 118}, "uniqueid": "MTK1418:31QNSG6A5S00G4QZP1XS4P0AVO878S", "dateTime": 1515879565884}, {"current_trial": 119, "trialdata": {"rt": -1, "trial_type": "single-stim", "stimulus": "<p id=\"stim\">9</p>", "internal_node_id": "0.0-91.0-1.0", "time_elapsed": 1641807, "key_press": -1, "trial_index": 119}, "uniqueid": "MTK1418:31QNSG6A5S00G4QZP1XS4P0AVO878S", "dateTime": 1515879566887}, {"current_trial": 120, "trialdata": {"rt": -1, "trial_type": "single-stim", "stimulus": "<p id=\"stim\">8</p>", "internal_node_id": "0.0-91.0-2.0", "time_elapsed": 1642823, "key_press": -1, "trial_index": 120}, "uniqueid": "MTK1418:31QNSG6A5S00G4QZP1XS4P0AVO878S", "dateTime": 1515879567902}, {"current_trial": 121, "trialdata": {"rt": -1, "trial_type": "single-stim", "stimulus": "<p id=\"stim\">7</p>", "internal_node_id": "0.0-91.0-3.0", "time_elapsed": 1643848, "key_press": -1, "trial_index": 121}, "uniqueid": "MTK1418:31QNSG6A5S00G4QZP1XS4P0AVO878S", "dateTime": 1515879568928}, {"current_trial": 122, "trialdata": {"rt": -1, "trial_type": "single-stim", "stimulus": "<p id=\"stim\">6</p>", "internal_node_id": "0.0-91.0-4.0", "time_elapsed": 1644857, "key_press": -1, "trial_index": 122}, "uniqueid": "MTK1418:31QNSG6A5S00G4QZP1XS4P0AVO878S", "dateTime": 1515879569936}, {"current_trial": 123, "trialdata": {"rt": -1, "trial_type": "single-stim", "stimulus": "<p id=\"stim\">5</p>", "internal_node_id": "0.0-91.0-5.0", "time_elapsed": 1645861, "key_press": -1, "trial_index": 123}, "uniqueid": "MTK1418:31QNSG6A5S00G4QZP1XS4P0AVO878S", "dateTime": 1515879570940}, {"current_trial": 124, "trialdata": {"rt": -1, "trial_type": "single-stim", "stimulus": "<p id=\"stim\">4</p>", "internal_node_id": "0.0-91.0-6.0", "time_elapsed": 1646865, "key_press": -1, "trial_index": 124}, "uniqueid": "MTK1418:31QNSG6A5S00G4QZP1XS4P0AVO878S", "dateTime": 1515879571944}, {"current_trial": 125, "trialdata": {"rt": -1, "trial_type": "single-stim", "stimulus": "<p id=\"stim\">3</p>", "internal_node_id": "0.0-91.0-7.0", "time_elapsed": 1647869, "key_press": -1, "trial_index": 125}, "uniqueid": "MTK1418:31QNSG6A5S00G4QZP1XS4P0AVO878S", "dateTime": 1515879572949}, {"current_trial": 126, "trialdata": {"rt": -1, "trial_type": "single-stim", "stimulus": "<p id=\"stim\">2</p>", "internal_node_id": "0.0-91.0-8.0", "time_elapsed": 1648886, "key_press": -1, "trial_index": 126}, "uniqueid": "MTK1418:31QNSG6A5S00G4QZP1XS4P0AVO878S", "dateTime": 1515879573966}, {"current_trial": 127, "trialdata": {"rt": -1, "trial_type": "single-stim", "stimulus": "<p id=\"stim\">1</p>", "internal_node_id": "0.0-91.0-9.0", "time_elapsed": 1649904, "key_press": -1, "trial_index": 127}, "uniqueid": "MTK1418:31QNSG6A5S00G4QZP1XS4P0AVO878S", "dateTime": 1515879574983}, {"current_trial": 128, "trialdata": {"rt": -1, "trial_type": "single-stim", "stimulus": "<p id=\"stim\">+</p>", "internal_node_id": "0.0-92.0-0.0", "time_elapsed": 1651413, "key_press": -1, "type": "FIXATION", "trial_index": 128}, "uniqueid": "MTK1418:31QNSG6A5S00G4QZP1XS4P0AVO878S", "dateTime": 1515879576493}, {"current_trial": 129, "trialdata": {"rt": -1, "trial_type": "single-stim", "word": "virus", "stimulus": "<p id=\"stim\">VIRUS</p>", "conditions": [24, 800, "v", 24000], "internal_node_id": "0.0-93.0", "trial": 3, "time_elapsed": 1652229, "serialpos": 0, "key_press": -1, "wordID": 1571, "type": "PRES_VIS", "trial_index": 129}, "uniqueid": "MTK1418:31QNSG6A5S00G4QZP1XS4P0AVO878S", "dateTime": 1515879577308}, {"current_trial": 130, "trialdata": {"rt": -1, "trial_type": "single-stim", "word": "panther", "stimulus": "<p id=\"stim\">PANTHER</p>", "conditions": [24, 800, "v", 24000], "internal_node_id": "0.0-94.0", "trial": 3, "time_elapsed": 1653859, "serialpos": 1, "key_press": -1, "wordID": 1008, "type": "PRES_VIS", "trial_index": 130}, "uniqueid": "MTK1418:31QNSG6A5S00G4QZP1XS4P0AVO878S", "dateTime": 1515879578938}, {"current_trial": 131, "trialdata": {"rt": -1, "trial_type": "single-stim", "word": "body", "stimulus": "<p id=\"stim\">BODY</p>", "conditions": [24, 800, "v", 24000], "internal_node_id": "0.0-95.0", "trial": 3, "time_elapsed": 1655834, "serialpos": 2, "key_press": -1, "wordID": 144, "type": "PRES_VIS", "trial_index": 131}, "uniqueid": "MTK1418:31QNSG6A5S00G4QZP1XS4P0AVO878S", "dateTime": 1515879580913}, {"current_trial": 132, "trialdata": {"rt": -1, "trial_type": "single-stim", "word": "cookbook", "stimulus": "<p id=\"stim\">COOKBOOK</p>", "conditions": [24, 800, "v", 24000], "internal_node_id": "0.0-96.0", "trial": 3, "time_elapsed": 1657775, "serialpos": 3, "key_press": -1, "wordID": 372, "type": "PRES_VIS", "trial_index": 132}, "uniqueid": "MTK1418:31QNSG6A5S00G4QZP1XS4P0AVO878S", "dateTime": 1515879582855}, {"current_trial": 133, "trialdata": {"rt": -1, "trial_type": "single-stim", "word": "foot", "stimulus": "<p id=\"stim\">FOOT</p>", "conditions": [24, 800, "v", 24000], "internal_node_id": "0.0-97.0", "trial": 3, "time_elapsed": 1659569, "serialpos": 4, "key_press": -1, "wordID": 589, "type": "PRES_VIS", "trial_index": 133}, "uniqueid": "MTK1418:31QNSG6A5S00G4QZP1XS4P0AVO878S", "dateTime": 1515879584648}, {"current_trial": 134, "trialdata": {"rt": -1, "trial_type": "single-stim", "word": "grave", "stimulus": "<p id=\"stim\">GRAVE</p>", "conditions": [24, 800, "v", 24000], "internal_node_id": "0.0-98.0", "trial": 3, "time_elapsed": 1661390, "serialpos": 5, "key_press": -1, "wordID": 657, "type": "PRES_VIS", "trial_index": 134}, "uniqueid": "MTK1418:31QNSG6A5S00G4QZP1XS4P0AVO878S", "dateTime": 1515879586469}, {"current_trial": 135, "trialdata": {"rt": -1, "trial_type": "single-stim", "word": "survey", "stimulus": "<p id=\"stim\">SURVEY</p>", "conditions": [24, 800, "v", 24000], "internal_node_id": "0.0-99.0", "trial": 3, "time_elapsed": 1663266, "serialpos": 6, "key_press": -1, "wordID": 1413, "type": "PRES_VIS", "trial_index": 135}, "uniqueid": "MTK1418:31QNSG6A5S00G4QZP1XS4P0AVO878S", "dateTime": 1515879588345}, {"current_trial": 136, "trialdata": {"rt": -1, "trial_type": "single-stim", "word": "plaster", "stimulus": "<p id=\"stim\">PLASTER</p>", "conditions": [24, 800, "v", 24000], "internal_node_id": "0.0-100.0", "trial": 3, "time_elapsed": 1665035, "serialpos": 7, "key_press": -1, "wordID": 1084, "type": "PRES_VIS", "trial_index": 136}, "uniqueid": "MTK1418:31QNSG6A5S00G4QZP1XS4P0AVO878S", "dateTime": 1515879590115}, {"current_trial": 137, "trialdata": {"rt": -1, "trial_type": "single-stim", "word": "flower", "stimulus": "<p id=\"stim\">FLOWER</p>", "conditions": [24, 800, "v", 24000], "internal_node_id": "0.0-101.0", "trial": 3, "time_elapsed": 1666683, "serialpos": 8, "key_press": -1, "wordID": 583, "type": "PRES_VIS", "trial_index": 137}, "uniqueid": "MTK1418:31QNSG6A5S00G4QZP1XS4P0AVO878S", "dateTime": 1515879591763}, {"current_trial": 138, "trialdata": {"rt": -1, "trial_type": "single-stim", "word": "lily", "stimulus": "<p id=\"stim\">LILY</p>", "conditions": [24, 800, "v", 24000], "internal_node_id": "0.0-102.0", "trial": 3, "time_elapsed": 1668436, "serialpos": 9, "key_press": -1, "wordID": 820, "type": "PRES_VIS", "trial_index": 138}, "uniqueid": "MTK1418:31QNSG6A5S00G4QZP1XS4P0AVO878S", "dateTime": 1515879593516}, {"current_trial": 139, "trialdata": {"rt": -1, "trial_type": "single-stim", "word": "rust", "stimulus": "<p id=\"stim\">RUST</p>", "conditions": [24, 800, "v", 24000], "internal_node_id": "0.0-103.0", "trial": 3, "time_elapsed": 1670376, "serialpos": 10, "key_press": -1, "wordID": 1218, "type": "PRES_VIS", "trial_index": 139}, "uniqueid": "MTK1418:31QNSG6A5S00G4QZP1XS4P0AVO878S", "dateTime": 1515879595456}, {"current_trial": 140, "trialdata": {"rt": -1, "trial_type": "single-stim", "word": "report", "stimulus": "<p id=\"stim\">REPORT</p>", "conditions": [24, 800, "v", 24000], "internal_node_id": "0.0-104.0", "trial": 3, "time_elapsed": 1671998, "serialpos": 11, "key_press": -1, "wordID": 1183, "type": "PRES_VIS", "trial_index": 140}, "uniqueid": "MTK1418:31QNSG6A5S00G4QZP1XS4P0AVO878S", "dateTime": 1515879597077}, {"current_trial": 141, "trialdata": {"rt": -1, "trial_type": "single-stim", "word": "europe", "stimulus": "<p id=\"stim\">EUROPE</p>", "conditions": [24, 800, "v", 24000], "internal_node_id": "0.0-105.0", "trial": 3, "time_elapsed": 1673670, "serialpos": 12, "key_press": -1, "wordID": 540, "type": "PRES_VIS", "trial_index": 141}, "uniqueid": "MTK1418:31QNSG6A5S00G4QZP1XS4P0AVO878S", "dateTime": 1515879598750}, {"current_trial": 142, "trialdata": {"rt": -1, "trial_type": "single-stim", "word": "lava", "stimulus": "<p id=\"stim\">LAVA</p>", "conditions": [24, 800, "v", 24000], "internal_node_id": "0.0-106.0", "trial": 3, "time_elapsed": 1675328, "serialpos": 13, "key_press": -1, "wordID": 803, "type": "PRES_VIS", "trial_index": 142}, "uniqueid": "MTK1418:31QNSG6A5S00G4QZP1XS4P0AVO878S", "dateTime": 1515879600407}, {"current_trial": 143, "trialdata": {"rt": -1, "trial_type": "single-stim", "word": "casket", "stimulus": "<p id=\"stim\">CASKET</p>", "conditions": [24, 800, "v", 24000], "internal_node_id": "0.0-107.0", "trial": 3, "time_elapsed": 1676947, "serialpos": 14, "key_press": -1, "wordID": 254, "type": "PRES_VIS", "trial_index": 143}, "uniqueid": "MTK1418:31QNSG6A5S00G4QZP1XS4P0AVO878S", "dateTime": 1515879602026}, {"current_trial": 144, "trialdata": {"rt": -1, "trial_type": "single-stim", "word": "tombstone", "stimulus": "<p id=\"stim\">TOMBSTONE</p>", "conditions": [24, 800, "v", 24000], "internal_node_id": "0.0-108.0", "trial": 3, "time_elapsed": 1678657, "serialpos": 15, "key_press": -1, "wordID": 1477, "type": "PRES_VIS", "trial_index": 144}, "uniqueid": "MTK1418:31QNSG6A5S00G4QZP1XS4P0AVO878S", "dateTime": 1515879603736}, {"current_trial": 145, "trialdata": {"rt": -1, "trial_type": "single-stim", "word": "clam", "stimulus": "<p id=\"stim\">CLAM</p>", "conditions": [24, 800, "v", 24000], "internal_node_id": "0.0-109.0", "trial": 3, "time_elapsed": 1680523, "serialpos": 16, "key_press": -1, "wordID": 314, "type": "PRES_VIS", "trial_index": 145}, "uniqueid": "MTK1418:31QNSG6A5S00G4QZP1XS4P0AVO878S", "dateTime": 1515879605603}, {"current_trial": 146, "trialdata": {"rt": -1, "trial_type": "single-stim", "word": "seal", "stimulus": "<p id=\"stim\">SEAL</p>", "conditions": [24, 800, "v", 24000], "internal_node_id": "0.0-110.0", "trial": 3, "time_elapsed": 1682445, "serialpos": 17, "key_press": -1, "wordID": 1261, "type": "PRES_VIS", "trial_index": 146}, "uniqueid": "MTK1418:31QNSG6A5S00G4QZP1XS4P0AVO878S", "dateTime": 1515879607524}, {"current_trial": 147, "trialdata": {"rt": -1, "trial_type": "single-stim", "word": "clamp", "stimulus": "<p id=\"stim\">CLAMP</p>", "conditions": [24, 800, "v", 24000], "internal_node_id": "0.0-111.0", "trial": 3, "time_elapsed": 1684219, "serialpos": 18, "key_press": -1, "wordID": 315, "type": "PRES_VIS", "trial_index": 147}, "uniqueid": "MTK1418:31QNSG6A5S00G4QZP1XS4P0AVO878S", "dateTime": 1515879609298}, {"current_trial": 148, "trialdata": {"rt": -1, "trial_type": "single-stim", "word": "napkin", "stimulus": "<p id=\"stim\">NAPKIN</p>", "conditions": [24, 800, "v", 24000], "internal_node_id": "0.0-112.0", "trial": 3, "time_elapsed": 1685930, "serialpos": 19, "key_press": -1, "wordID": 936, "type": "PRES_VIS", "trial_index": 148}, "uniqueid": "MTK1418:31QNSG6A5S00G4QZP1XS4P0AVO878S", "dateTime": 1515879611010}, {"current_trial": 149, "trialdata": {"rt": -1, "trial_type": "single-stim", "word": "cousin", "stimulus": "<p id=\"stim\">COUSIN</p>", "conditions": [24, 800, "v", 24000], "internal_node_id": "0.0-113.0", "trial": 3, "time_elapsed": 1687571, "serialpos": 20, "key_press": -1, "wordID": 391, "type": "PRES_VIS", "trial_index": 149}, "uniqueid": "MTK1418:31QNSG6A5S00G4QZP1XS4P0AVO878S", "dateTime": 1515879612651}, {"current_trial": 150, "trialdata": {"rt": -1, "trial_type": "single-stim", "word": "woman", "stimulus": "<p id=\"stim\">WOMAN</p>", "conditions": [24, 800, "v", 24000], "internal_node_id": "0.0-114.0", "trial": 3, "time_elapsed": 1689425, "serialpos": 21, "key_press": -1, "wordID": 1619, "type": "PRES_VIS", "trial_index": 150}, "uniqueid": "MTK1418:31QNSG6A5S00G4QZP1XS4P0AVO878S", "dateTime": 1515879614505}, {"current_trial": 151, "trialdata": {"rt": -1, "trial_type": "single-stim", "word": "fruit", "stimulus": "<p id=\"stim\">FRUIT</p>", "conditions": [24, 800, "v", 24000], "internal_node_id": "0.0-115.0", "trial": 3, "time_elapsed": 1691182, "serialpos": 22, "key_press": -1, "wordID": 609, "type": "PRES_VIS", "trial_index": 151}, "uniqueid": "MTK1418:31QNSG6A5S00G4QZP1XS4P0AVO878S", "dateTime": 1515879616262}, {"current_trial": 152, "trialdata": {"rt": -1, "trial_type": "single-stim", "word": "france", "stimulus": "<p id=\"stim\">FRANCE</p>", "conditions": [24, 800, "v", 24000], "internal_node_id": "0.0-116.0", "trial": 3, "time_elapsed": 1692896, "serialpos": 23, "key_press": -1, "wordID": 600, "type": "PRES_VIS", "trial_index": 152}, "uniqueid": "MTK1418:31QNSG6A5S00G4QZP1XS4P0AVO878S", "dateTime": 1515879617976}, {"current_trial": 153, "trialdata": {"rt": -1, "trial_type": "single-stim", "stimulus": "", "internal_node_id": "0.0-117.0-0.0", "time_elapsed": 1695162, "key_press": -1, "type": "PRE_RECALL_DELAY", "trial_index": 153}, "uniqueid": "MTK1418:31QNSG6A5S00G4QZP1XS4P0AVO878S", "dateTime": 1515879620241}, {"current_trial": 154, "trialdata": {"rt": -1000, "trial_type": "single-audio", "stimulus": "/static/audio/400Hz.wav", "internal_node_id": "0.0-118.0", "time_elapsed": 1695665, "key_press": -1, "type": "PRE_RECALL_ALERT", "trial_index": 154}, "uniqueid": "MTK1418:31QNSG6A5S00G4QZP1XS4P0AVO878S", "dateTime": 1515879620745}, {"current_trial": 155, "trialdata": {"rt": [2184, 3675, 7580, 9927, 12280, 19951, 24595, 29172, 30217, 32098, 39407, 43346, 50283], "recwords": ["grave", "casket", "tombstone", "flowers", "france", "fruit", "woman", "clamp", "seal", "clam", "lava", "rust", "lilies"], "key_times": [939, 1256, 1348, 1590, 1759, 2184, 2612, 2814, 2933, 3110, 3204, 3412, 3675, 4285, 4418, 4826, 5051, 5266, 5585, 5817, 6080, 6200, 6344, 6421, 6742, 6978, 7294, 7388, 7580, 7920, 8076, 8997, 9167, 9247, 9371, 9724, 9927, 10489, 10717, 10850, 11318, 11417, 11630, 12280, 18409, 18881, 19451, 19614, 19795, 19951, 21715, 21911, 22135, 22272, 22457, 22776, 22893, 23035, 23197, 23324, 23828, 23967, 24146, 24264, 24342, 24595, 28137, 28352, 28535, 28610, 28827, 29172, 29503, 29653, 29770, 29962, 30217, 31326, 31534, 31756, 31854, 32098, 38307, 38486, 39008, 39195, 39407, 41559, 42424, 42728, 42855, 43003, 43214, 43346, 49237, 49456, 49678, 49917, 50017, 50130, 50283], "trial_type": "free-recall", "conditions": [24, 800, "v", 24000], "internal_node_id": "0.0-119.0-0.0", "key_presses": [71, 82, 65, 86, 69, 13, 67, 65, 83, 75, 69, 84, 13, 84, 72, 8, 79, 77, 66, 83, 84, 79, 82, 69, 8, 8, 78, 69, 13, 70, 76, 79, 87, 69, 82, 83, 13, 70, 82, 65, 78, 67, 69, 13, 70, 82, 85, 73, 84, 13, 87, 65, 79, 77, 65, 8, 8, 8, 8, 8, 87, 79, 77, 65, 78, 13, 67, 76, 65, 77, 80, 13, 83, 69, 65, 76, 13, 67, 76, 65, 77, 13, 76, 65, 86, 65, 13, 84, 8, 82, 85, 83, 84, 13, 76, 73, 76, 73, 69, 83, 13], "trial": 3, "time_elapsed": 1755685, "type": "FREE_RECALL", "trial_index": 155}, "uniqueid": "MTK1418:31QNSG6A5S00G4QZP1XS4P0AVO878S", "dateTime": 1515879680778}, {"current_trial": 156, "trialdata": {"rt": 27958, "trial_type": "text", "internal_node_id": "0.0-120.0", "time_elapsed": 1785665, "key_press": 70, "type": "INSTRUCTIONS", "trial_index": 156}, "uniqueid": "MTK1418:31QNSG6A5S00G4QZP1XS4P0AVO878S", "dateTime": 1515879710746}, {"current_trial": 157, "trialdata": {"rt": [2557, 4389, 6054, 8252, 10606, 12436, 14377, 16130, 18888, 20523], "trial_type": "math-distractor", "key_times": [2094, 2322, 2557, 4106, 4389, 5779, 6054, 7904, 8063, 8252, 10199, 10375, 10606, 12038, 12214, 12436, 14055, 14377, 15780, 15929, 16130, 18472, 18711, 18888, 20083, 20297, 20523, 23456], "responses": ["17", "8", "9", "14", "14", "12", "9", "11", "17", "17"], "num2": [5, 3, 2, 8, 5, 1, 2, 3, 2, 6, 9], "num3": [6, 1, 6, 1, 1, 2, 6, 4, 7, 4, 6], "conditions": [24, 800, "v", 24000], "internal_node_id": "0.0-121.0", "key_presses": [97, 103, 13, 104, 13, 105, 13, 97, 100, 13, 97, 100, 13, 97, 98, 13, 105, 13, 97, 97, 13, 97, 103, 13, 97, 103, 13, 98], "trial": 4, "time_elapsed": 1811711, "type": "DISTRACTOR", "trial_index": 157, "num1": [6, 4, 1, 5, 8, 9, 1, 4, 8, 7, 7]}, "uniqueid": "MTK1418:31QNSG6A5S00G4QZP1XS4P0AVO878S", "dateTime": 1515879736792}, {"current_trial": 158, "trialdata": {"rt": -1, "trial_type": "single-stim", "stimulus": "<p id=\"stim\">10</p>", "internal_node_id": "0.0-122.0-0.0", "time_elapsed": 1814731, "key_press": -1, "trial_index": 158}, "uniqueid": "MTK1418:31QNSG6A5S00G4QZP1XS4P0AVO878S", "dateTime": 1515879739812}, {"current_trial": 159, "trialdata": {"rt": -1, "trial_type": "single-stim", "stimulus": "<p id=\"stim\">9</p>", "internal_node_id": "0.0-122.0-1.0", "time_elapsed": 1815747, "key_press": -1, "trial_index": 159}, "uniqueid": "MTK1418:31QNSG6A5S00G4QZP1XS4P0AVO878S", "dateTime": 1515879740828}, {"current_trial": 160, "trialdata": {"rt": -1, "trial_type": "single-stim", "stimulus": "<p id=\"stim\">8</p>", "internal_node_id": "0.0-122.0-2.0", "time_elapsed": 1816760, "key_press": -1, "trial_index": 160}, "uniqueid": "MTK1418:31QNSG6A5S00G4QZP1XS4P0AVO878S", "dateTime": 1515879741840}, {"current_trial": 161, "trialdata": {"rt": -1, "trial_type": "single-stim", "stimulus": "<p id=\"stim\">7</p>", "internal_node_id": "0.0-122.0-3.0", "time_elapsed": 1817775, "key_press": -1, "trial_index": 161}, "uniqueid": "MTK1418:31QNSG6A5S00G4QZP1XS4P0AVO878S", "dateTime": 1515879742854}, {"current_trial": 162, "trialdata": {"rt": -1, "trial_type": "single-stim", "stimulus": "<p id=\"stim\">6</p>", "internal_node_id": "0.0-122.0-4.0", "time_elapsed": 1818791, "key_press": -1, "trial_index": 162}, "uniqueid": "MTK1418:31QNSG6A5S00G4QZP1XS4P0AVO878S", "dateTime": 1515879743871}, {"current_trial": 163, "trialdata": {"rt": -1, "trial_type": "single-stim", "stimulus": "<p id=\"stim\">5</p>", "internal_node_id": "0.0-122.0-5.0", "time_elapsed": 1819796, "key_press": -1, "trial_index": 163}, "uniqueid": "MTK1418:31QNSG6A5S00G4QZP1XS4P0AVO878S", "dateTime": 1515879744876}, {"current_trial": 164, "trialdata": {"rt": -1, "trial_type": "single-stim", "stimulus": "<p id=\"stim\">4</p>", "internal_node_id": "0.0-122.0-6.0", "time_elapsed": 1820800, "key_press": -1, "trial_index": 164}, "uniqueid": "MTK1418:31QNSG6A5S00G4QZP1XS4P0AVO878S", "dateTime": 1515879745880}, {"current_trial": 165, "trialdata": {"rt": -1, "trial_type": "single-stim", "stimulus": "<p id=\"stim\">3</p>", "internal_node_id": "0.0-122.0-7.0", "time_elapsed": 1821809, "key_press": -1, "trial_index": 165}, "uniqueid": "MTK1418:31QNSG6A5S00G4QZP1XS4P0AVO878S", "dateTime": 1515879746889}, {"current_trial": 166, "trialdata": {"rt": -1, "trial_type": "single-stim", "stimulus": "<p id=\"stim\">2</p>", "internal_node_id": "0.0-122.0-8.0", "time_elapsed": 1822826, "key_press": -1, "trial_index": 166}, "uniqueid": "MTK1418:31QNSG6A5S00G4QZP1XS4P0AVO878S", "dateTime": 1515879747907}, {"current_trial": 167, "trialdata": {"rt": -1, "trial_type": "single-stim", "stimulus": "<p id=\"stim\">1</p>", "internal_node_id": "0.0-122.0-9.0", "time_elapsed": 1823838, "key_press": -1, "trial_index": 167}, "uniqueid": "MTK1418:31QNSG6A5S00G4QZP1XS4P0AVO878S", "dateTime": 1515879748917}, {"current_trial": 168, "trialdata": {"rt": -1, "trial_type": "single-stim", "stimulus": "<p id=\"stim\">+</p>", "internal_node_id": "0.0-123.0-0.0", "time_elapsed": 1825351, "key_press": -1, "type": "FIXATION", "trial_index": 168}, "uniqueid": "MTK1418:31QNSG6A5S00G4QZP1XS4P0AVO878S", "dateTime": 1515879750430}, {"current_trial": 169, "trialdata": {"rt": -1, "trial_type": "single-stim", "word": "server", "stimulus": "<p id=\"stim\">SERVER</p>", "conditions": [24, 800, "v", 24000], "internal_node_id": "0.0-124.0", "trial": 4, "time_elapsed": 1826170, "serialpos": 0, "key_press": -1, "wordID": 1271, "type": "PRES_VIS", "trial_index": 169}, "uniqueid": "MTK1418:31QNSG6A5S00G4QZP1XS4P0AVO878S", "dateTime": 1515879751250}, {"current_trial": 170, "trialdata": {"rt": -1, "trial_type": "single-stim", "word": "trench", "stimulus": "<p id=\"stim\">TRENCH</p>", "conditions": [24, 800, "v", 24000], "internal_node_id": "0.0-125.0", "trial": 4, "time_elapsed": 1828005, "serialpos": 1, "key_press": -1, "wordID": 1502, "type": "PRES_VIS", "trial_index": 170}, "uniqueid": "MTK1418:31QNSG6A5S00G4QZP1XS4P0AVO878S", "dateTime": 1515879753084}, {"current_trial": 171, "trialdata": {"rt": -1, "trial_type": "single-stim", "word": "rebel", "stimulus": "<p id=\"stim\">REBEL</p>", "conditions": [24, 800, "v", 24000], "internal_node_id": "0.0-126.0", "trial": 4, "time_elapsed": 1829800, "serialpos": 2, "key_press": -1, "wordID": 1171, "type": "PRES_VIS", "trial_index": 171}, "uniqueid": "MTK1418:31QNSG6A5S00G4QZP1XS4P0AVO878S", "dateTime": 1515879754880}, {"current_trial": 172, "trialdata": {"rt": -1, "trial_type": "single-stim", "word": "sheriff", "stimulus": "<p id=\"stim\">SHERIFF</p>", "conditions": [24, 800, "v", 24000], "internal_node_id": "0.0-127.0", "trial": 4, "time_elapsed": 1831726, "serialpos": 3, "key_press": -1, "wordID": 1283, "type": "PRES_VIS", "trial_index": 172}, "uniqueid": "MTK1418:31QNSG6A5S00G4QZP1XS4P0AVO878S", "dateTime": 1515879756805}, {"current_trial": 173, "trialdata": {"rt": -1, "trial_type": "single-stim", "word": "wife", "stimulus": "<p id=\"stim\">WIFE</p>", "conditions": [24, 800, "v", 24000], "internal_node_id": "0.0-128.0", "trial": 4, "time_elapsed": 1833669, "serialpos": 4, "key_press": -1, "wordID": 1608, "type": "PRES_VIS", "trial_index": 173}, "uniqueid": "MTK1418:31QNSG6A5S00G4QZP1XS4P0AVO878S", "dateTime": 1515879758748}, {"current_trial": 174, "trialdata": {"rt": -1, "trial_type": "single-stim", "word": "friend", "stimulus": "<p id=\"stim\">FRIEND</p>", "conditions": [24, 800, "v", 24000], "internal_node_id": "0.0-129.0", "trial": 4, "time_elapsed": 1835505, "serialpos": 5, "key_press": -1, "wordID": 605, "type": "PRES_VIS", "trial_index": 174}, "uniqueid": "MTK1418:31QNSG6A5S00G4QZP1XS4P0AVO878S", "dateTime": 1515879760585}, {"current_trial": 175, "trialdata": {"rt": -1, "trial_type": "single-stim", "word": "beef", "stimulus": "<p id=\"stim\">BEEF</p>", "conditions": [24, 800, "v", 24000], "internal_node_id": "0.0-130.0", "trial": 4, "time_elapsed": 1837155, "serialpos": 6, "key_press": -1, "wordID": 112, "type": "PRES_VIS", "trial_index": 175}, "uniqueid": "MTK1418:31QNSG6A5S00G4QZP1XS4P0AVO878S", "dateTime": 1515879762235}, {"current_trial": 176, "trialdata": {"rt": -1, "trial_type": "single-stim", "word": "stomach", "stimulus": "<p id=\"stim\">STOMACH</p>", "conditions": [24, 800, "v", 24000], "internal_node_id": "0.0-131.0", "trial": 4, "time_elapsed": 1839038, "serialpos": 7, "key_press": -1, "wordID": 1383, "type": "PRES_VIS", "trial_index": 176}, "uniqueid": "MTK1418:31QNSG6A5S00G4QZP1XS4P0AVO878S", "dateTime": 1515879764117}, {"current_trial": 177, "trialdata": {"rt": -1, "trial_type": "single-stim", "word": "widow", "stimulus": "<p id=\"stim\">WIDOW</p>", "conditions": [24, 800, "v", 24000], "internal_node_id": "0.0-132.0", "trial": 4, "time_elapsed": 1840655, "serialpos": 8, "key_press": -1, "wordID": 1607, "type": "PRES_VIS", "trial_index": 177}, "uniqueid": "MTK1418:31QNSG6A5S00G4QZP1XS4P0AVO878S", "dateTime": 1515879765734}, {"current_trial": 178, "trialdata": {"rt": -1, "trial_type": "single-stim", "word": "sibling", "stimulus": "<p id=\"stim\">SIBLING</p>", "conditions": [24, 800, "v", 24000], "internal_node_id": "0.0-133.0", "trial": 4, "time_elapsed": 1842607, "serialpos": 9, "key_press": -1, "wordID": 1300, "type": "PRES_VIS", "trial_index": 178}, "uniqueid": "MTK1418:31QNSG6A5S00G4QZP1XS4P0AVO878S", "dateTime": 1515879767687}, {"current_trial": 179, "trialdata": {"rt": -1, "trial_type": "single-stim", "word": "cattle", "stimulus": "<p id=\"stim\">CATTLE</p>", "conditions": [24, 800, "v", 24000], "internal_node_id": "0.0-134.0", "trial": 4, "time_elapsed": 1844399, "serialpos": 10, "key_press": -1, "wordID": 260, "type": "PRES_VIS", "trial_index": 179}, "uniqueid": "MTK1418:31QNSG6A5S00G4QZP1XS4P0AVO878S", "dateTime": 1515879769478}, {"current_trial": 180, "trialdata": {"rt": -1, "trial_type": "single-stim", "word": "toaster", "stimulus": "<p id=\"stim\">TOASTER</p>", "conditions": [24, 800, "v", 24000], "internal_node_id": "0.0-135.0", "trial": 4, "time_elapsed": 1846096, "serialpos": 11, "key_press": -1, "wordID": 1471, "type": "PRES_VIS", "trial_index": 180}, "uniqueid": "MTK1418:31QNSG6A5S00G4QZP1XS4P0AVO878S", "dateTime": 1515879771176}, {"current_trial": 181, "trialdata": {"rt": -1, "trial_type": "single-stim", "word": "yarn", "stimulus": "<p id=\"stim\">YARN</p>", "conditions": [24, 800, "v", 24000], "internal_node_id": "0.0-136.0", "trial": 4, "time_elapsed": 1848056, "serialpos": 12, "key_press": -1, "wordID": 1630, "type": "PRES_VIS", "trial_index": 181}, "uniqueid": "MTK1418:31QNSG6A5S00G4QZP1XS4P0AVO878S", "dateTime": 1515879773135}, {"current_trial": 182, "trialdata": {"rt": -1, "trial_type": "single-stim", "word": "dancer", "stimulus": "<p id=\"stim\">DANCER</p>", "conditions": [24, 800, "v", 24000], "internal_node_id": "0.0-137.0", "trial": 4, "time_elapsed": 1849789, "serialpos": 13, "key_press": -1, "wordID": 436, "type": "PRES_VIS", "trial_index": 182}, "uniqueid": "MTK1418:31QNSG6A5S00G4QZP1XS4P0AVO878S", "dateTime": 1515879774869}, {"current_trial": 183, "trialdata": {"rt": -1, "trial_type": "single-stim", "word": "turnip", "stimulus": "<p id=\"stim\">TURNIP</p>", "conditions": [24, 800, "v", 24000], "internal_node_id": "0.0-138.0", "trial": 4, "time_elapsed": 1851445, "serialpos": 14, "key_press": -1, "wordID": 1520, "type": "PRES_VIS", "trial_index": 183}, "uniqueid": "MTK1418:31QNSG6A5S00G4QZP1XS4P0AVO878S", "dateTime": 1515879776524}, {"current_trial": 184, "trialdata": {"rt": -1, "trial_type": "single-stim", "word": "venus", "stimulus": "<p id=\"stim\">VENUS</p>", "conditions": [24, 800, "v", 24000], "internal_node_id": "0.0-139.0", "trial": 4, "time_elapsed": 1853406, "serialpos": 15, "key_press": -1, "wordID": 1556, "type": "PRES_VIS", "trial_index": 184}, "uniqueid": "MTK1418:31QNSG6A5S00G4QZP1XS4P0AVO878S", "dateTime": 1515879778485}, {"current_trial": 185, "trialdata": {"rt": -1, "trial_type": "single-stim", "word": "elbow", "stimulus": "<p id=\"stim\">ELBOW</p>", "conditions": [24, 800, "v", 24000], "internal_node_id": "0.0-140.0", "trial": 4, "time_elapsed": 1855196, "serialpos": 16, "key_press": -1, "wordID": 519, "type": "PRES_VIS", "trial_index": 185}, "uniqueid": "MTK1418:31QNSG6A5S00G4QZP1XS4P0AVO878S", "dateTime": 1515879780275}, {"current_trial": 186, "trialdata": {"rt": -1, "trial_type": "single-stim", "word": "cabbage", "stimulus": "<p id=\"stim\">CABBAGE</p>", "conditions": [24, 800, "v", 24000], "internal_node_id": "0.0-141.0", "trial": 4, "time_elapsed": 1857170, "serialpos": 17, "key_press": -1, "wordID": 209, "type": "PRES_VIS", "trial_index": 186}, "uniqueid": "MTK1418:31QNSG6A5S00G4QZP1XS4P0AVO878S", "dateTime": 1515879782249}, {"current_trial": 187, "trialdata": {"rt": -1, "trial_type": "single-stim", "word": "pistol", "stimulus": "<p id=\"stim\">PISTOL</p>", "conditions": [24, 800, "v", 24000], "internal_node_id": "0.0-142.0", "trial": 4, "time_elapsed": 1859179, "serialpos": 18, "key_press": -1, "wordID": 1074, "type": "PRES_VIS", "trial_index": 187}, "uniqueid": "MTK1418:31QNSG6A5S00G4QZP1XS4P0AVO878S", "dateTime": 1515879784258}, {"current_trial": 188, "trialdata": {"rt": -1, "trial_type": "single-stim", "word": "burglar", "stimulus": "<p id=\"stim\">BURGLAR</p>", "conditions": [24, 800, "v", 24000], "internal_node_id": "0.0-143.0", "trial": 4, "time_elapsed": 1860861, "serialpos": 19, "key_press": -1, "wordID": 199, "type": "PRES_VIS", "trial_index": 188}, "uniqueid": "MTK1418:31QNSG6A5S00G4QZP1XS4P0AVO878S", "dateTime": 1515879785941}, {"current_trial": 189, "trialdata": {"rt": -1, "trial_type": "single-stim", "word": "racket", "stimulus": "<p id=\"stim\">RACKET</p>", "conditions": [24, 800, "v", 24000], "internal_node_id": "0.0-144.0", "trial": 4, "time_elapsed": 1862804, "serialpos": 20, "key_press": -1, "wordID": 1154, "type": "PRES_VIS", "trial_index": 189}, "uniqueid": "MTK1418:31QNSG6A5S00G4QZP1XS4P0AVO878S", "dateTime": 1515879787884}, {"current_trial": 190, "trialdata": {"rt": -1, "trial_type": "single-stim", "word": "belly", "stimulus": "<p id=\"stim\">BELLY</p>", "conditions": [24, 800, "v", 24000], "internal_node_id": "0.0-145.0", "trial": 4, "time_elapsed": 1864655, "serialpos": 21, "key_press": -1, "wordID": 118, "type": "PRES_VIS", "trial_index": 190}, "uniqueid": "MTK1418:31QNSG6A5S00G4QZP1XS4P0AVO878S", "dateTime": 1515879789734}, {"current_trial": 191, "trialdata": {"rt": -1, "trial_type": "single-stim", "word": "rabbit", "stimulus": "<p id=\"stim\">RABBIT</p>", "conditions": [24, 800, "v", 24000], "internal_node_id": "0.0-146.0", "trial": 4, "time_elapsed": 1866634, "serialpos": 22, "key_press": -1, "wordID": 1151, "type": "PRES_VIS", "trial_index": 191}, "uniqueid": "MTK1418:31QNSG6A5S00G4QZP1XS4P0AVO878S", "dateTime": 1515879791714}, {"current_trial": 192, "trialdata": {"rt": -1, "trial_type": "single-stim", "word": "pigeon", "stimulus": "<p id=\"stim\">PIGEON</p>", "conditions": [24, 800, "v", 24000], "internal_node_id": "0.0-147.0", "trial": 4, "time_elapsed": 1868423, "serialpos": 23, "key_press": -1, "wordID": 1064, "type": "PRES_VIS", "trial_index": 192}, "uniqueid": "MTK1418:31QNSG6A5S00G4QZP1XS4P0AVO878S", "dateTime": 1515879793503}, {"current_trial": 193, "trialdata": {"rt": -1, "trial_type": "single-stim", "stimulus": "", "internal_node_id": "0.0-148.0-0.0", "time_elapsed": 1870712, "key_press": -1, "type": "PRE_RECALL_DELAY", "trial_index": 193}, "uniqueid": "MTK1418:31QNSG6A5S00G4QZP1XS4P0AVO878S", "dateTime": 1515879795791}, {"current_trial": 194, "trialdata": {"rt": -1000, "trial_type": "single-audio", "stimulus": "/static/audio/400Hz.wav", "internal_node_id": "0.0-149.0", "time_elapsed": 1871221, "key_press": -1, "type": "PRE_RECALL_ALERT", "trial_index": 194}, "uniqueid": "MTK1418:31QNSG6A5S00G4QZP1XS4P0AVO878S", "dateTime": 1515879796301}, {"current_trial": 195, "trialdata": {"rt": [1740, 3031, 17885, 23301, 24322, 28640, 31159, 36214, 40040, 57037], "recwords": ["wife", "cousin", "venus", "sibling", "widow", "beef", "stomach", "rebel", "sherrif", "friend"], "key_times": [862, 1272, 1442, 1631, 1740, 2075, 2221, 2374, 2547, 2617, 2790, 3031, 15787, 15975, 16414, 16717, 17162, 17885, 21576, 22191, 22332, 22446, 22604, 23037, 23155, 23301, 23635, 23734, 23952, 24066, 24217, 24322, 27582, 27805, 27995, 28145, 28640, 28805, 29061, 29185, 29704, 30215, 30410, 30529, 30714, 30832, 31159, 35244, 35348, 35657, 35831, 35951, 36214, 37125, 37559, 37787, 38084, 38218, 38831, 38910, 39127, 39320, 39440, 39642, 40040, 55457, 55811, 55948, 56126, 56710, 56817, 57037], "trial_type": "free-recall", "conditions": [24, 800, "v", 24000], "internal_node_id": "0.0-150.0-0.0", "key_presses": [87, 73, 70, 69, 13, 67, 79, 85, 83, 73, 78, 13, 86, 69, 78, 85, 83, 13, 83, 73, 66, 76, 73, 78, 71, 13, 87, 73, 68, 79, 87, 13, 66, 69, 69, 70, 13, 83, 84, 80, 8, 79, 77, 65, 67, 72, 13, 82, 69, 66, 69, 76, 13, 83, 74, 69, 8, 8, 72, 69, 82, 82, 73, 70, 13, 70, 82, 73, 69, 78, 68, 13], "trial": 4, "time_elapsed": 1931249, "type": "FREE_RECALL", "trial_index": 195}, "uniqueid": "MTK1418:31QNSG6A5S00G4QZP1XS4P0AVO878S", "dateTime": 1515879856343}, {"current_trial": 196, "trialdata": {"rt": 20571, "trial_type": "text", "internal_node_id": "0.0-151.0", "time_elapsed": 1953840, "key_press": 32, "type": "INSTRUCTIONS", "trial_index": 196}, "uniqueid": "MTK1418:31QNSG6A5S00G4QZP1XS4P0AVO878S", "dateTime": 1515879878920}, {"current_trial": 197, "trialdata": {"rt": [4587, 8663, 11322], "trial_type": "math-distractor", "key_times": [2919, 3129, 3897, 4399, 4587, 8263, 8460, 8663, 10784, 11048, 11322], "responses": ["21", "15", "13"], "num2": [7, 4, 3, 3], "num3": [6, 3, 8, 2], "conditions": [24, 1600, "v", 12000], "internal_node_id": "0.0-152.0", "key_presses": [98, 98, 8, 97, 13, 97, 101, 13, 97, 99, 13], "trial": 5, "time_elapsed": 1967876, "type": "DISTRACTOR", "trial_index": 197, "num1": [8, 8, 2, 1]}, "uniqueid": "MTK1418:31QNSG6A5S00G4QZP1XS4P0AVO878S", "dateTime": 1515879892957}, {"current_trial": 198, "trialdata": {"rt": -1, "trial_type": "single-stim", "stimulus": "<p id=\"stim\">10</p>", "internal_node_id": "0.0-153.0-0.0", "time_elapsed": 1970912, "key_press": -1, "trial_index": 198}, "uniqueid": "MTK1418:31QNSG6A5S00G4QZP1XS4P0AVO878S", "dateTime": 1515879895994}, {"current_trial": 199, "trialdata": {"rt": -1, "trial_type": "single-stim", "stimulus": "<p id=\"stim\">9</p>", "internal_node_id": "0.0-153.0-1.0", "time_elapsed": 1971917, "key_press": -1, "trial_index": 199}, "uniqueid": "MTK1418:31QNSG6A5S00G4QZP1XS4P0AVO878S", "dateTime": 1515879896997}, {"current_trial": 200, "trialdata": {"rt": -1, "trial_type": "single-stim", "stimulus": "<p id=\"stim\">8</p>", "internal_node_id": "0.0-153.0-2.0", "time_elapsed": 1972931, "key_press": -1, "trial_index": 200}, "uniqueid": "MTK1418:31QNSG6A5S00G4QZP1XS4P0AVO878S", "dateTime": 1515879898010}, {"current_trial": 201, "trialdata": {"rt": -1, "trial_type": "single-stim", "stimulus": "<p id=\"stim\">7</p>", "internal_node_id": "0.0-153.0-3.0", "time_elapsed": 1973934, "key_press": -1, "trial_index": 201}, "uniqueid": "MTK1418:31QNSG6A5S00G4QZP1XS4P0AVO878S", "dateTime": 1515879899013}, {"current_trial": 202, "trialdata": {"rt": -1, "trial_type": "single-stim", "stimulus": "<p id=\"stim\">6</p>", "internal_node_id": "0.0-153.0-4.0", "time_elapsed": 1974948, "key_press": -1, "trial_index": 202}, "uniqueid": "MTK1418:31QNSG6A5S00G4QZP1XS4P0AVO878S", "dateTime": 1515879900028}, {"current_trial": 203, "trialdata": {"rt": -1, "trial_type": "single-stim", "stimulus": "<p id=\"stim\">5</p>", "internal_node_id": "0.0-153.0-5.0", "time_elapsed": 1975952, "key_press": -1, "trial_index": 203}, "uniqueid": "MTK1418:31QNSG6A5S00G4QZP1XS4P0AVO878S", "dateTime": 1515879901031}, {"current_trial": 204, "trialdata": {"rt": -1, "trial_type": "single-stim", "stimulus": "<p id=\"stim\">4</p>", "internal_node_id": "0.0-153.0-6.0", "time_elapsed": 1976956, "key_press": -1, "trial_index": 204}, "uniqueid": "MTK1418:31QNSG6A5S00G4QZP1XS4P0AVO878S", "dateTime": 1515879902036}, {"current_trial": 205, "trialdata": {"rt": -1, "trial_type": "single-stim", "stimulus": "<p id=\"stim\">3</p>", "internal_node_id": "0.0-153.0-7.0", "time_elapsed": 1977961, "key_press": -1, "trial_index": 205}, "uniqueid": "MTK1418:31QNSG6A5S00G4QZP1XS4P0AVO878S", "dateTime": 1515879903042}, {"current_trial": 206, "trialdata": {"rt": -1, "trial_type": "single-stim", "stimulus": "<p id=\"stim\">2</p>", "internal_node_id": "0.0-153.0-8.0", "time_elapsed": 1978980, "key_press": -1, "trial_index": 206}, "uniqueid": "MTK1418:31QNSG6A5S00G4QZP1XS4P0AVO878S", "dateTime": 1515879904061}, {"current_trial": 207, "trialdata": {"rt": -1, "trial_type": "single-stim", "stimulus": "<p id=\"stim\">1</p>", "internal_node_id": "0.0-153.0-9.0", "time_elapsed": 1979998, "key_press": -1, "trial_index": 207}, "uniqueid": "MTK1418:31QNSG6A5S00G4QZP1XS4P0AVO878S", "dateTime": 1515879905078}, {"current_trial": 208, "trialdata": {"rt": -1, "trial_type": "single-stim", "stimulus": "<p id=\"stim\">+</p>", "internal_node_id": "0.0-154.0-0.0", "time_elapsed": 1981514, "key_press": -1, "type": "FIXATION", "trial_index": 208}, "uniqueid": "MTK1418:31QNSG6A5S00G4QZP1XS4P0AVO878S", "dateTime": 1515879906595}, {"current_trial": 209, "trialdata": {"rt": -1, "trial_type": "single-stim", "word": "garden", "stimulus": "<p id=\"stim\">GARDEN</p>", "conditions": [24, 1600, "v", 12000], "internal_node_id": "0.0-155.0", "trial": 5, "time_elapsed": 1983135, "serialpos": 0, "key_press": -1, "wordID": 622, "type": "PRES_VIS", "trial_index": 209}, "uniqueid": "MTK1418:31QNSG6A5S00G4QZP1XS4P0AVO878S", "dateTime": 1515879908216}, {"current_trial": 210, "trialdata": {"rt": -1, "trial_type": "single-stim", "word": "spouse", "stimulus": "<p id=\"stim\">SPOUSE</p>", "conditions": [24, 1600, "v", 12000], "internal_node_id": "0.0-156.0", "trial": 5, "time_elapsed": 1985700, "serialpos": 1, "key_press": -1, "wordID": 1357, "type": "PRES_VIS", "trial_index": 210}, "uniqueid": "MTK1418:31QNSG6A5S00G4QZP1XS4P0AVO878S", "dateTime": 1515879910780}, {"current_trial": 211, "trialdata": {"rt": -1, "trial_type": "single-stim", "word": "motel", "stimulus": "<p id=\"stim\">MOTEL</p>", "conditions": [24, 1600, "v", 12000], "internal_node_id": "0.0-157.0", "trial": 5, "time_elapsed": 1988181, "serialpos": 2, "key_press": -1, "wordID": 918, "type": "PRES_VIS", "trial_index": 211}, "uniqueid": "MTK1418:31QNSG6A5S00G4QZP1XS4P0AVO878S", "dateTime": 1515879913261}, {"current_trial": 212, "trialdata": {"rt": -1, "trial_type": "single-stim", "word": "lumber", "stimulus": "<p id=\"stim\">LUMBER</p>", "conditions": [24, 1600, "v", 12000], "internal_node_id": "0.0-158.0", "trial": 5, "time_elapsed": 1990611, "serialpos": 3, "key_press": -1, "wordID": 847, "type": "PRES_VIS", "trial_index": 212}, "uniqueid": "MTK1418:31QNSG6A5S00G4QZP1XS4P0AVO878S", "dateTime": 1515879915690}, {"current_trial": 213, "trialdata": {"rt": -1, "trial_type": "single-stim", "word": "omelet", "stimulus": "<p id=\"stim\">OMELET</p>", "conditions": [24, 1600, "v", 12000], "internal_node_id": "0.0-159.0", "trial": 5, "time_elapsed": 1993200, "serialpos": 4, "key_press": -1, "wordID": 975, "type": "PRES_VIS", "trial_index": 213}, "uniqueid": "MTK1418:31QNSG6A5S00G4QZP1XS4P0AVO878S", "dateTime": 1515879918280}, {"current_trial": 214, "trialdata": {"rt": -1, "trial_type": "single-stim", "word": "skillet", "stimulus": "<p id=\"stim\">SKILLET</p>", "conditions": [24, 1600, "v", 12000], "internal_node_id": "0.0-160.0", "trial": 5, "time_elapsed": 1995732, "serialpos": 5, "key_press": -1, "wordID": 1316, "type": "PRES_VIS", "trial_index": 214}, "uniqueid": "MTK1418:31QNSG6A5S00G4QZP1XS4P0AVO878S", "dateTime": 1515879920812}, {"current_trial": 215, "trialdata": {"rt": -1, "trial_type": "single-stim", "word": "tourist", "stimulus": "<p id=\"stim\">TOURIST</p>", "conditions": [24, 1600, "v", 12000], "internal_node_id": "0.0-161.0", "trial": 5, "time_elapsed": 1998474, "serialpos": 6, "key_press": -1, "wordID": 1487, "type": "PRES_VIS", "trial_index": 215}, "uniqueid": "MTK1418:31QNSG6A5S00G4QZP1XS4P0AVO878S", "dateTime": 1515879923553}, {"current_trial": 216, "trialdata": {"rt": -1, "trial_type": "single-stim", "word": "novel", "stimulus": "<p id=\"stim\">NOVEL</p>", "conditions": [24, 1600, "v", 12000], "internal_node_id": "0.0-162.0", "trial": 5, "time_elapsed": 2000996, "serialpos": 7, "key_press": -1, "wordID": 959, "type": "PRES_VIS", "trial_index": 216}, "uniqueid": "MTK1418:31QNSG6A5S00G4QZP1XS4P0AVO878S", "dateTime": 1515879926076}, {"current_trial": 217, "trialdata": {"rt": -1, "trial_type": "single-stim", "word": "blender", "stimulus": "<p id=\"stim\">BLENDER</p>", "conditions": [24, 1600, "v", 12000], "internal_node_id": "0.0-163.0", "trial": 5, "time_elapsed": 2003455, "serialpos": 8, "key_press": -1, "wordID": 135, "type": "PRES_VIS", "trial_index": 217}, "uniqueid": "MTK1418:31QNSG6A5S00G4QZP1XS4P0AVO878S", "dateTime": 1515879928535}, {"current_trial": 218, "trialdata": {"rt": -1, "trial_type": "single-stim", "word": "denim", "stimulus": "<p id=\"stim\">DENIM</p>", "conditions": [24, 1600, "v", 12000], "internal_node_id": "0.0-164.0", "trial": 5, "time_elapsed": 2006117, "serialpos": 9, "key_press": -1, "wordID": 445, "type": "PRES_VIS", "trial_index": 218}, "uniqueid": "MTK1418:31QNSG6A5S00G4QZP1XS4P0AVO878S", "dateTime": 1515879931196}, {"current_trial": 219, "trialdata": {"rt": -1, "trial_type": "single-stim", "word": "dress", "stimulus": "<p id=\"stim\">DRESS</p>", "conditions": [24, 1600, "v", 12000], "internal_node_id": "0.0-165.0", "trial": 5, "time_elapsed": 2008924, "serialpos": 10, "key_press": -1, "wordID": 494, "type": "PRES_VIS", "trial_index": 219}, "uniqueid": "MTK1418:31QNSG6A5S00G4QZP1XS4P0AVO878S", "dateTime": 1515879934003}, {"current_trial": 220, "trialdata": {"rt": -1, "trial_type": "single-stim", "word": "brandy", "stimulus": "<p id=\"stim\">BRANDY</p>", "conditions": [24, 1600, "v", 12000], "internal_node_id": "0.0-166.0", "trial": 5, "time_elapsed": 2011711, "serialpos": 11, "key_press": -1, "wordID": 168, "type": "PRES_VIS", "trial_index": 220}, "uniqueid": "MTK1418:31QNSG6A5S00G4QZP1XS4P0AVO878S", "dateTime": 1515879936791}, {"current_trial": 221, "trialdata": {"rt": -1, "trial_type": "single-stim", "word": "leg", "stimulus": "<p id=\"stim\">LEG</p>", "conditions": [24, 1600, "v", 12000], "internal_node_id": "0.0-167.0", "trial": 5, "time_elapsed": 2014353, "serialpos": 12, "key_press": -1, "wordID": 808, "type": "PRES_VIS", "trial_index": 221}, "uniqueid": "MTK1418:31QNSG6A5S00G4QZP1XS4P0AVO878S", "dateTime": 1515879939433}, {"current_trial": 222, "trialdata": {"rt": -1, "trial_type": "single-stim", "word": "muffin", "stimulus": "<p id=\"stim\">MUFFIN</p>", "conditions": [24, 1600, "v", 12000], "internal_node_id": "0.0-168.0", "trial": 5, "time_elapsed": 2016767, "serialpos": 13, "key_press": -1, "wordID": 928, "type": "PRES_VIS", "trial_index": 222}, "uniqueid": "MTK1418:31QNSG6A5S00G4QZP1XS4P0AVO878S", "dateTime": 1515879941846}, {"current_trial": 223, "trialdata": {"rt": -1, "trial_type": "single-stim", "word": "pastry", "stimulus": "<p id=\"stim\">PASTRY</p>", "conditions": [24, 1600, "v", 12000], "internal_node_id": "0.0-169.0", "trial": 5, "time_elapsed": 2019240, "serialpos": 14, "key_press": -1, "wordID": 1021, "type": "PRES_VIS", "trial_index": 223}, "uniqueid": "MTK1418:31QNSG6A5S00G4QZP1XS4P0AVO878S", "dateTime": 1515879944319}, {"current_trial": 224, "trialdata": {"rt": -1, "trial_type": "single-stim", "word": "nurse", "stimulus": "<p id=\"stim\">NURSE</p>", "conditions": [24, 1600, "v", 12000], "internal_node_id": "0.0-170.0", "trial": 5, "time_elapsed": 2021665, "serialpos": 15, "key_press": -1, "wordID": 962, "type": "PRES_VIS", "trial_index": 224}, "uniqueid": "MTK1418:31QNSG6A5S00G4QZP1XS4P0AVO878S", "dateTime": 1515879946744}, {"current_trial": 225, "trialdata": {"rt": -1, "trial_type": "single-stim", "word": "honey", "stimulus": "<p id=\"stim\">HONEY</p>", "conditions": [24, 1600, "v", 12000], "internal_node_id": "0.0-171.0", "trial": 5, "time_elapsed": 2024163, "serialpos": 16, "key_press": -1, "wordID": 712, "type": "PRES_VIS", "trial_index": 225}, "uniqueid": "MTK1418:31QNSG6A5S00G4QZP1XS4P0AVO878S", "dateTime": 1515879949243}, {"current_trial": 226, "trialdata": {"rt": -1, "trial_type": "single-stim", "word": "brother", "stimulus": "<p id=\"stim\">BROTHER</p>", "conditions": [24, 1600, "v", 12000], "internal_node_id": "0.0-172.0", "trial": 5, "time_elapsed": 2026689, "serialpos": 17, "key_press": -1, "wordID": 178, "type": "PRES_VIS", "trial_index": 226}, "uniqueid": "MTK1418:31QNSG6A5S00G4QZP1XS4P0AVO878S", "dateTime": 1515879951769}, {"current_trial": 227, "trialdata": {"rt": -1, "trial_type": "single-stim", "word": "cottage", "stimulus": "<p id=\"stim\">COTTAGE</p>", "conditions": [24, 1600, "v", 12000], "internal_node_id": "0.0-173.0", "trial": 5, "time_elapsed": 2029433, "serialpos": 18, "key_press": -1, "wordID": 383, "type": "PRES_VIS", "trial_index": 227}, "uniqueid": "MTK1418:31QNSG6A5S00G4QZP1XS4P0AVO878S", "dateTime": 1515879954513}, {"current_trial": 228, "trialdata": {"rt": -1, "trial_type": "single-stim", "word": "arm", "stimulus": "<p id=\"stim\">ARM</p>", "conditions": [24, 1600, "v", 12000], "internal_node_id": "0.0-174.0", "trial": 5, "time_elapsed": 2031947, "serialpos": 19, "key_press": -1, "wordID": 37, "type": "PRES_VIS", "trial_index": 228}, "uniqueid": "MTK1418:31QNSG6A5S00G4QZP1XS4P0AVO878S", "dateTime": 1515879957026}, {"current_trial": 229, "trialdata": {"rt": -1, "trial_type": "single-stim", "word": "suspect", "stimulus": "<p id=\"stim\">SUSPECT</p>", "conditions": [24, 1600, "v", 12000], "internal_node_id": "0.0-175.0", "trial": 5, "time_elapsed": 2034732, "serialpos": 20, "key_press": -1, "wordID": 1414, "type": "PRES_VIS", "trial_index": 229}, "uniqueid": "MTK1418:31QNSG6A5S00G4QZP1XS4P0AVO878S", "dateTime": 1515879959811}, {"current_trial": 230, "trialdata": {"rt": -1, "trial_type": "single-stim", "word": "film", "stimulus": "<p id=\"stim\">FILM</p>", "conditions": [24, 1600, "v", 12000], "internal_node_id": "0.0-176.0", "trial": 5, "time_elapsed": 2037443, "serialpos": 21, "key_press": -1, "wordID": 564, "type": "PRES_VIS", "trial_index": 230}, "uniqueid": "MTK1418:31QNSG6A5S00G4QZP1XS4P0AVO878S", "dateTime": 1515879962522}, {"current_trial": 231, "trialdata": {"rt": -1, "trial_type": "single-stim", "word": "doughnut", "stimulus": "<p id=\"stim\">DOUGHNUT</p>", "conditions": [24, 1600, "v", 12000], "internal_node_id": "0.0-177.0", "trial": 5, "time_elapsed": 2040053, "serialpos": 22, "key_press": -1, "wordID": 489, "type": "PRES_VIS", "trial_index": 231}, "uniqueid": "MTK1418:31QNSG6A5S00G4QZP1XS4P0AVO878S", "dateTime": 1515879965133}, {"current_trial": 232, "trialdata": {"rt": -1, "trial_type": "single-stim", "word": "shelter", "stimulus": "<p id=\"stim\">SHELTER</p>", "conditions": [24, 1600, "v", 12000], "internal_node_id": "0.0-178.0", "trial": 5, "time_elapsed": 2042531, "serialpos": 23, "key_press": -1, "wordID": 1281, "type": "PRES_VIS", "trial_index": 232}, "uniqueid": "MTK1418:31QNSG6A5S00G4QZP1XS4P0AVO878S", "dateTime": 1515879967611}, {"current_trial": 233, "trialdata": {"rt": -1, "trial_type": "single-stim", "stimulus": "", "internal_node_id": "0.0-179.0-0.0", "time_elapsed": 2045030, "key_press": -1, "type": "PRE_RECALL_DELAY", "trial_index": 233}, "uniqueid": "MTK1418:31QNSG6A5S00G4QZP1XS4P0AVO878S", "dateTime": 1515879970110}, {"current_trial": 234, "trialdata": {"rt": -1000, "trial_type": "single-audio", "stimulus": "/static/audio/400Hz.wav", "internal_node_id": "0.0-180.0", "time_elapsed": 2045542, "key_press": -1, "type": "PRE_RECALL_ALERT", "trial_index": 234}, "uniqueid": "MTK1418:31QNSG6A5S00G4QZP1XS4P0AVO878S", "dateTime": 1515879970622}, {"current_trial": 235, "trialdata": {"rt": [1442, 3289, 5080, 5270, 6376, 8539, 12416, 12669, 17757, 23460, 31598, 41203, 43285, 50149, 57339], "recwords": ["nurses", "honey", "butter", "", "leg", "brother", "doughnut", "", "pastery", "shelter", "muffins", "spouse", "garden", "carrot", "brandy"], "key_times": [594, 816, 962, 1091, 1273, 1278, 1442, 2460, 2619, 2763, 2889, 3020, 3289, 3473, 3616, 3831, 3990, 4234, 4684, 4772, 4913, 5080, 5270, 5770, 5870, 6094, 6376, 6725, 6997, 7094, 7237, 7410, 7807, 8112, 8253, 8385, 8539, 9471, 9606, 9859, 10135, 10606, 10715, 10906, 11345, 11611, 11882, 12066, 12269, 12416, 12669, 13115, 13261, 13408, 13697, 13852, 14001, 14318, 14457, 14592, 15202, 15350, 15497, 15919, 16357, 16909, 17757, 22073, 22472, 22779, 22927, 23126, 23331, 23449, 23460, 30539, 30794, 30920, 31105, 31179, 31325, 31497, 31598, 38679, 39971, 40084, 40343, 40480, 40679, 41203, 41744, 41915, 42106, 42292, 42842, 42977, 43285, 48429, 48672, 48899, 49066, 49299, 49690, 50149, 55844, 56137, 56372, 56492, 56745, 56925, 57339], "trial_type": "free-recall", "conditions": [24, 1600, "v", 12000], "internal_node_id": "0.0-181.0-0.0", "key_presses": [78, 85, 82, 83, 69, 83, 13, 72, 79, 78, 69, 89, 13, 66, 85, 84, 84, 82, 8, 69, 82, 13, 32, 76, 69, 71, 13, 66, 82, 79, 84, 69, 8, 72, 69, 82, 13, 68, 79, 85, 72, 8, 71, 74, 8, 72, 78, 85, 84, 13, 32, 80, 65, 83, 84, 69, 82, 73, 69, 83, 8, 8, 8, 85, 8, 89, 13, 83, 72, 69, 76, 84, 69, 82, 13, 77, 85, 70, 70, 73, 78, 83, 13, 83, 80, 79, 85, 83, 69, 13, 71, 65, 82, 68, 69, 78, 13, 67, 65, 82, 82, 79, 84, 13, 66, 82, 65, 78, 68, 89, 13], "trial": 5, "time_elapsed": 2105581, "type": "FREE_RECALL", "trial_index": 235}, "uniqueid": "MTK1418:31QNSG6A5S00G4QZP1XS4P0AVO878S", "dateTime": 1515880030669}, {"current_trial": 236, "trialdata": {"rt": 2368, "trial_type": "text", "internal_node_id": "0.0-182.0", "time_elapsed": 2109960, "key_press": 32, "type": "INSTRUCTIONS", "trial_index": 236}, "uniqueid": "MTK1418:31QNSG6A5S00G4QZP1XS4P0AVO878S", "dateTime": 1515880035040}, {"current_trial": 237, "trialdata": {"rt": [6595, 9617, 12395, 15115, 17529, 19900, 21939, 23552], "trial_type": "math-distractor", "key_times": [5949, 6124, 6595, 9226, 9409, 9617, 10913, 11182, 11424, 12132, 12395, 13568, 13772, 14412, 14855, 15115, 17031, 17233, 17529, 19514, 19699, 19900, 21714, 21939, 23224, 23359, 23552], "responses": ["20", "14", "13", "16", "12", "18", "8", "11"], "num2": [2, 1, 1, 9, 5, 9, 1, 4, 6], "num3": [9, 8, 3, 1, 4, 5, 4, 1, 9], "conditions": [12, 1600, "v", 24000], "internal_node_id": "0.0-183.0", "key_presses": [98, 96, 13, 97, 100, 13, 97, 99, 100, 8, 13, 97, 101, 8, 102, 13, 97, 98, 13, 97, 104, 13, 104, 13, 97, 97, 13], "trial": 6, "time_elapsed": 2135993, "type": "DISTRACTOR", "trial_index": 237, "num1": [9, 5, 9, 6, 3, 4, 3, 6, 4]}, "uniqueid": "MTK1418:31QNSG6A5S00G4QZP1XS4P0AVO878S", "dateTime": 1515880061074}, {"current_trial": 238, "trialdata": {"rt": -1, "trial_type": "single-stim", "stimulus": "<p id=\"stim\">10</p>", "internal_node_id": "0.0-184.0-0.0", "time_elapsed": 2139020, "key_press": -1, "trial_index": 238}, "uniqueid": "MTK1418:31QNSG6A5S00G4QZP1XS4P0AVO878S", "dateTime": 1515880064101}, {"current_trial": 239, "trialdata": {"rt": -1, "trial_type": "single-stim", "stimulus": "<p id=\"stim\">9</p>", "internal_node_id": "0.0-184.0-1.0", "time_elapsed": 2140025, "key_press": -1, "trial_index": 239}, "uniqueid": "MTK1418:31QNSG6A5S00G4QZP1XS4P0AVO878S", "dateTime": 1515880065105}, {"current_trial": 240, "trialdata": {"rt": -1, "trial_type": "single-stim", "stimulus": "<p id=\"stim\">8</p>", "internal_node_id": "0.0-184.0-2.0", "time_elapsed": 2141038, "key_press": -1, "trial_index": 240}, "uniqueid": "MTK1418:31QNSG6A5S00G4QZP1XS4P0AVO878S", "dateTime": 1515880066118}, {"current_trial": 241, "trialdata": {"rt": -1, "trial_type": "single-stim", "stimulus": "<p id=\"stim\">7</p>", "internal_node_id": "0.0-184.0-3.0", "time_elapsed": 2142056, "key_press": -1, "trial_index": 241}, "uniqueid": "MTK1418:31QNSG6A5S00G4QZP1XS4P0AVO878S", "dateTime": 1515880067135}, {"current_trial": 242, "trialdata": {"rt": -1, "trial_type": "single-stim", "stimulus": "<p id=\"stim\">6</p>", "internal_node_id": "0.0-184.0-4.0", "time_elapsed": 2143068, "key_press": -1, "trial_index": 242}, "uniqueid": "MTK1418:31QNSG6A5S00G4QZP1XS4P0AVO878S", "dateTime": 1515880068148}, {"current_trial": 243, "trialdata": {"rt": -1, "trial_type": "single-stim", "stimulus": "<p id=\"stim\">5</p>", "internal_node_id": "0.0-184.0-5.0", "time_elapsed": 2144117, "key_press": -1, "trial_index": 243}, "uniqueid": "MTK1418:31QNSG6A5S00G4QZP1XS4P0AVO878S", "dateTime": 1515880069196}, {"current_trial": 244, "trialdata": {"rt": -1, "trial_type": "single-stim", "stimulus": "<p id=\"stim\">4</p>", "internal_node_id": "0.0-184.0-6.0", "time_elapsed": 2145118, "key_press": -1, "trial_index": 244}, "uniqueid": "MTK1418:31QNSG6A5S00G4QZP1XS4P0AVO878S", "dateTime": 1515880070198}, {"current_trial": 245, "trialdata": {"rt": -1, "trial_type": "single-stim", "stimulus": "<p id=\"stim\">3</p>", "internal_node_id": "0.0-184.0-7.0", "time_elapsed": 2146135, "key_press": -1, "trial_index": 245}, "uniqueid": "MTK1418:31QNSG6A5S00G4QZP1XS4P0AVO878S", "dateTime": 1515880071215}, {"current_trial": 246, "trialdata": {"rt": -1, "trial_type": "single-stim", "stimulus": "<p id=\"stim\">2</p>", "internal_node_id": "0.0-184.0-8.0", "time_elapsed": 2147139, "key_press": -1, "trial_index": 246}, "uniqueid": "MTK1418:31QNSG6A5S00G4QZP1XS4P0AVO878S", "dateTime": 1515880072219}, {"current_trial": 247, "trialdata": {"rt": -1, "trial_type": "single-stim", "stimulus": "<p id=\"stim\">1</p>", "internal_node_id": "0.0-184.0-9.0", "time_ela