{"assignmentId": "3SNLUL3WO5UXTMMEWYZ7JM00N5ALUC", "workerId": "MTK1568", "questiondata": {"avail_screen_height": 728, "color_depth": 24, "screen_width": 1366, "pixel_depth": 24, "avail_screen_width": 1366, "screen_height": 768}, "bonus": 0, "hitId": "3U18MJKL1UTP88A5WIPKDOMZ4UUCNI", "counterbalance": 1290, "useragent": "Mozilla/5.0 (Windows NT 10.0; Win64; x64) AppleWebKit/537.36 (KHTML, like Gecko) Chrome/63.0.3239.132 Safari/537.36", "eventdata": [{"eventtype": "initialized", "interval": 0, "value": null, "timestamp": 1515981545316}, {"eventtype": "window_resize", "interval": 0, "value": [1366, 721], "timestamp": 1515981545316}, {"eventtype": "focus", "interval": 81512, "value": "off", "timestamp": 1515981626828}, {"eventtype": "focus", "interval": 3349, "value": "on", "timestamp": 1515981630177}, {"eventtype": "focus", "interval": 152470, "value": "off", "timestamp": 1515981782647}, {"eventtype": "focus", "interval": 41608, "value": "on", "timestamp": 1515981824255}, {"eventtype": "focus", "interval": 2127795, "value": "off", "timestamp": 1515983952050}, {"eventtype": "focus", "interval": 2373, "value": "on", "timestamp": 1515983954423}], "data": [{"current_trial": 0, "trialdata": {"rt": 12330, "trial_type": "text", "internal_node_id": "0.0-0.0", "time_elapsed": 12335, "key_press": 32, "type": "INSTRUCTIONS", "trial_index": 0}, "uniqueid": "MTK1568:3SNLUL3WO5UXTMMEWYZ7JM00N5ALUC", "dateTime": 1515981570981}, {"current_trial": 1, "trialdata": {"rt": 36212, "trial_type": "text", "internal_node_id": "0.0-1.0", "time_elapsed": 48552, "key_press": 32, "type": "INSTRUCTIONS", "trial_index": 1}, "uniqueid": "MTK1568:3SNLUL3WO5UXTMMEWYZ7JM00N5ALUC", "dateTime": 1515981607198}, {"current_trial": 2, "trialdata": {"rt": [14289], "trial_type": "audio-test", "responses": ["ocean"], "internal_node_id": "0.0-2.0", "time_elapsed": 62892, "type": "AUDIO_TEST", "trial_index": 2}, "uniqueid": "MTK1568:3SNLUL3WO5UXTMMEWYZ7JM00N5ALUC", "dateTime": 1515981621537}, {"current_trial": 3, "trialdata": {"rt": [13507], "trial_type": "audio-test", "responses": ["crystal"], "internal_node_id": "0.0-3.0", "time_elapsed": 76413, "type": "AUDIO_TEST", "trial_index": 3}, "uniqueid": "MTK1568:3SNLUL3WO5UXTMMEWYZ7JM00N5ALUC", "dateTime": 1515981635058}, {"current_trial": 4, "trialdata": {"rt": [9134], "trial_type": "audio-test", "responses": ["spice"], "internal_node_id": "0.0-4.0", "time_elapsed": 85561, "type": "AUDIO_TEST", "trial_index": 4}, "uniqueid": "MTK1568:3SNLUL3WO5UXTMMEWYZ7JM00N5ALUC", "dateTime": 1515981644207}, {"current_trial": 5, "trialdata": {"rt": 28563, "trial_type": "survey-text", "responses": "{\"Q0\":\"12:00pm\",\"Q1\":\"8:30am\",\"Q2\":\"3\"}", "internal_node_id": "0.0-5.0", "time_elapsed": 114889, "type": "SLEEP_SURVEY", "trial_index": 5}, "uniqueid": "MTK1568:3SNLUL3WO5UXTMMEWYZ7JM00N5ALUC", "dateTime": 1515981673534}, {"current_trial": 6, "trialdata": {"rt": 41405, "trial_type": "text", "internal_node_id": "0.0-6.0", "time_elapsed": 157299, "key_press": 32, "type": "INSTRUCTIONS", "trial_index": 6}, "uniqueid": "MTK1568:3SNLUL3WO5UXTMMEWYZ7JM00N5ALUC", "dateTime": 1515981715945}, {"current_trial": 7, "trialdata": {"rt": 19172, "trial_type": "text", "internal_node_id": "0.0-7.0", "time_elapsed": 176975, "key_press": 32, "type": "INSTRUCTIONS", "trial_index": 7}, "uniqueid": "MTK1568:3SNLUL3WO5UXTMMEWYZ7JM00N5ALUC", "dateTime": 1515981735620}, {"current_trial": 8, "trialdata": {"rt": 11369, "trial_type": "text", "internal_node_id": "0.0-8.0", "time_elapsed": 188850, "key_press": 32, "type": "INSTRUCTIONS", "trial_index": 8}, "uniqueid": "MTK1568:3SNLUL3WO5UXTMMEWYZ7JM00N5ALUC", "dateTime": 1515981747496}, {"current_trial": 9, "trialdata": {"rt": [5353, 7751, 11520, 14626, 17749], "trial_type": "math-distractor", "key_times": [3088, 3605, 5353, 6890, 7751, 10512, 10725, 11520, 13730, 14163, 14626, 16561, 17022, 17749], "responses": ["18", "4", "21", "17", "19"], "num2": [7, 1, 9, 1, 4, 2], "num3": [5, 1, 5, 7, 9, 5], "conditions": [18, 1200, "a", 18000], "internal_node_id": "0.0-9.0", "key_presses": [49, 56, 13, 52, 13, 50, 49, 13, 49, 55, 13, 49, 57, 13], "trial": 0, "time_elapsed": 207889, "type": "DISTRACTOR", "trial_index": 9, "num1": [6, 2, 7, 9, 6, 1]}, "uniqueid": "MTK1568:3SNLUL3WO5UXTMMEWYZ7JM00N5ALUC", "dateTime": 1515981766535}, {"current_trial": 10, "trialdata": {"rt": -1, "trial_type": "single-stim", "stimulus": "<p id=\"stim\">10</p>", "internal_node_id": "0.0-10.0-0.0", "time_elapsed": 210901, "key_press": -1, "trial_index": 10}, "uniqueid": "MTK1568:3SNLUL3WO5UXTMMEWYZ7JM00N5ALUC", "dateTime": 1515981769546}, {"current_trial": 11, "trialdata": {"rt": -1, "trial_type": "single-stim", "stimulus": "<p id=\"stim\">9</p>", "internal_node_id": "0.0-10.0-1.0", "time_elapsed": 211908, "key_press": -1, "trial_index": 11}, "uniqueid": "MTK1568:3SNLUL3WO5UXTMMEWYZ7JM00N5ALUC", "dateTime": 1515981770553}, {"current_trial": 12, "trialdata": {"rt": -1, "trial_type": "single-stim", "stimulus": "<p id=\"stim\">8</p>", "internal_node_id": "0.0-10.0-2.0", "time_elapsed": 212914, "key_press": -1, "trial_index": 12}, "uniqueid": "MTK1568:3SNLUL3WO5UXTMMEWYZ7JM00N5ALUC", "dateTime": 1515981771560}, {"current_trial": 13, "trialdata": {"rt": -1, "trial_type": "single-stim", "stimulus": "<p id=\"stim\">7</p>", "internal_node_id": "0.0-10.0-3.0", "time_elapsed": 213920, "key_press": -1, "trial_index": 13}, "uniqueid": "MTK1568:3SNLUL3WO5UXTMMEWYZ7JM00N5ALUC", "dateTime": 1515981772565}, {"current_trial": 14, "trialdata": {"rt": -1, "trial_type": "single-stim", "stimulus": "<p id=\"stim\">6</p>", "internal_node_id": "0.0-10.0-4.0", "time_elapsed": 214923, "key_press": -1, "trial_index": 14}, "uniqueid": "MTK1568:3SNLUL3WO5UXTMMEWYZ7JM00N5ALUC", "dateTime": 1515981773569}, {"current_trial": 15, "trialdata": {"rt": -1, "trial_type": "single-stim", "stimulus": "<p id=\"stim\">5</p>", "internal_node_id": "0.0-10.0-5.0", "time_elapsed": 215932, "key_press": -1, "trial_index": 15}, "uniqueid": "MTK1568:3SNLUL3WO5UXTMMEWYZ7JM00N5ALUC", "dateTime": 1515981774578}, {"current_trial": 16, "trialdata": {"rt": -1, "trial_type": "single-stim", "stimulus": "<p id=\"stim\">4</p>", "internal_node_id": "0.0-10.0-6.0", "time_elapsed": 216938, "key_press": -1, "trial_index": 16}, "uniqueid": "MTK1568:3SNLUL3WO5UXTMMEWYZ7JM00N5ALUC", "dateTime": 1515981775584}, {"current_trial": 17, "trialdata": {"rt": -1, "trial_type": "single-stim", "stimulus": "<p id=\"stim\">3</p>", "internal_node_id": "0.0-10.0-7.0", "time_elapsed": 217942, "key_press": -1, "trial_index": 17}, "uniqueid": "MTK1568:3SNLUL3WO5UXTMMEWYZ7JM00N5ALUC", "dateTime": 1515981776587}, {"current_trial": 18, "trialdata": {"rt": -1, "trial_type": "single-stim", "stimulus": "<p id=\"stim\">2</p>", "internal_node_id": "0.0-10.0-8.0", "time_elapsed": 218946, "key_press": -1, "trial_index": 18}, "uniqueid": "MTK1568:3SNLUL3WO5UXTMMEWYZ7JM00N5ALUC", "dateTime": 1515981777591}, {"current_trial": 19, "trialdata": {"rt": -1, "trial_type": "single-stim", "stimulus": "<p id=\"stim\">1</p>", "internal_node_id": "0.0-10.0-9.0", "time_elapsed": 219949, "key_press": -1, "trial_index": 19}, "uniqueid": "MTK1568:3SNLUL3WO5UXTMMEWYZ7JM00N5ALUC", "dateTime": 1515981778594}, {"current_trial": 20, "trialdata": {"rt": -1, "trial_type": "single-stim", "stimulus": "<p id=\"stim\">+</p>", "internal_node_id": "0.0-11.0-0.0", "time_elapsed": 221451, "key_press": -1, "type": "FIXATION", "trial_index": 20}, "uniqueid": "MTK1568:3SNLUL3WO5UXTMMEWYZ7JM00N5ALUC", "dateTime": 1515981780097}, {"current_trial": 21, "trialdata": {"rt": -1000, "trial_type": "single-audio", "word": "cook", "stimulus": "/static/audio/wordpool/COOK.wav", "conditions": [18, 1200, "a", 18000], "internal_node_id": "0.0-12.0", "trial": 0, "time_elapsed": 223845, "serialpos": 0, "key_press": -1, "wordID": 371, "type": "PRES_AUD", "trial_index": 21}, "uniqueid": "MTK1568:3SNLUL3WO5UXTMMEWYZ7JM00N5ALUC", "dateTime": 1515981782491}, {"current_trial": 22, "trialdata": {"rt": -1000, "trial_type": "single-audio", "word": "cabin", "stimulus": "/static/audio/wordpool/CABIN.wav", "conditions": [18, 1200, "a", 18000], "internal_node_id": "0.0-13.0", "trial": 0, "time_elapsed": 225864, "serialpos": 1, "key_press": -1, "wordID": 210, "type": "PRES_AUD", "trial_index": 22}, "uniqueid": "MTK1568:3SNLUL3WO5UXTMMEWYZ7JM00N5ALUC", "dateTime": 1515981784510}, {"current_trial": 23, "trialdata": {"rt": -1000, "trial_type": "single-audio", "word": "lagoon", "stimulus": "/static/audio/wordpool/LAGOON.wav", "conditions": [18, 1200, "a", 18000], "internal_node_id": "0.0-14.0", "trial": 0, "time_elapsed": 227960, "serialpos": 2, "key_press": -1, "wordID": 794, "type": "PRES_AUD", "trial_index": 23}, "uniqueid": "MTK1568:3SNLUL3WO5UXTMMEWYZ7JM00N5ALUC", "dateTime": 1515981786606}, {"current_trial": 24, "trialdata": {"rt": -1000, "trial_type": "single-audio", "word": "costume", "stimulus": "/static/audio/wordpool/COSTUME.wav", "conditions": [18, 1200, "a", 18000], "internal_node_id": "0.0-15.0", "trial": 0, "time_elapsed": 230163, "serialpos": 3, "key_press": -1, "wordID": 382, "type": "PRES_AUD", "trial_index": 24}, "uniqueid": "MTK1568:3SNLUL3WO5UXTMMEWYZ7JM00N5ALUC", "dateTime": 1515981788808}, {"current_trial": 25, "trialdata": {"rt": -1000, "trial_type": "single-audio", "word": "summit", "stimulus": "/static/audio/wordpool/SUMMIT.wav", "conditions": [18, 1200, "a", 18000], "internal_node_id": "0.0-16.0", "trial": 0, "time_elapsed": 232329, "serialpos": 4, "key_press": -1, "wordID": 1404, "type": "PRES_AUD", "trial_index": 25}, "uniqueid": "MTK1568:3SNLUL3WO5UXTMMEWYZ7JM00N5ALUC", "dateTime": 1515981790974}, {"current_trial": 26, "trialdata": {"rt": -1000, "trial_type": "single-audio", "word": "swamp", "stimulus": "/static/audio/wordpool/SWAMP.wav", "conditions": [18, 1200, "a", 18000], "internal_node_id": "0.0-17.0", "trial": 0, "time_elapsed": 234430, "serialpos": 5, "key_press": -1, "wordID": 1415, "type": "PRES_AUD", "trial_index": 26}, "uniqueid": "MTK1568:3SNLUL3WO5UXTMMEWYZ7JM00N5ALUC", "dateTime": 1515981793075}, {"current_trial": 27, "trialdata": {"rt": -1000, "trial_type": "single-audio", "word": "candy", "stimulus": "/static/audio/wordpool/CANDY.wav", "conditions": [18, 1200, "a", 18000], "internal_node_id": "0.0-18.0", "trial": 0, "time_elapsed": 236594, "serialpos": 6, "key_press": -1, "wordID": 229, "type": "PRES_AUD", "trial_index": 27}, "uniqueid": "MTK1568:3SNLUL3WO5UXTMMEWYZ7JM00N5ALUC", "dateTime": 1515981795239}, {"current_trial": 28, "trialdata": {"rt": -1000, "trial_type": "single-audio", "word": "typist", "stimulus": "/static/audio/wordpool/TYPIST.wav", "conditions": [18, 1200, "a", 18000], "internal_node_id": "0.0-19.0", "trial": 0, "time_elapsed": 238995, "serialpos": 7, "key_press": -1, "wordID": 1531, "type": "PRES_AUD", "trial_index": 28}, "uniqueid": "MTK1568:3SNLUL3WO5UXTMMEWYZ7JM00N5ALUC", "dateTime": 1515981797640}, {"current_trial": 29, "trialdata": {"rt": -1000, "trial_type": "single-audio", "word": "drug", "stimulus": "/static/audio/wordpool/DRUG.wav", "conditions": [18, 1200, "a", 18000], "internal_node_id": "0.0-20.0", "trial": 0, "time_elapsed": 241247, "serialpos": 8, "key_press": -1, "wordID": 500, "type": "PRES_AUD", "trial_index": 29}, "uniqueid": "MTK1568:3SNLUL3WO5UXTMMEWYZ7JM00N5ALUC", "dateTime": 1515981799893}, {"current_trial": 30, "trialdata": {"rt": -1000, "trial_type": "single-audio", "word": "comet", "stimulus": "/static/audio/wordpool/COMET.wav", "conditions": [18, 1200, "a", 18000], "internal_node_id": "0.0-21.0", "trial": 0, "time_elapsed": 243590, "serialpos": 9, "key_press": -1, "wordID": 352, "type": "PRES_AUD", "trial_index": 30}, "uniqueid": "MTK1568:3SNLUL3WO5UXTMMEWYZ7JM00N5ALUC", "dateTime": 1515981802235}, {"current_trial": 31, "trialdata": {"rt": -1000, "trial_type": "single-audio", "word": "toaster", "stimulus": "/static/audio/wordpool/TOASTER.wav", "conditions": [18, 1200, "a", 18000], "internal_node_id": "0.0-22.0", "trial": 0, "time_elapsed": 245987, "serialpos": 10, "key_press": -1, "wordID": 1471, "type": "PRES_AUD", "trial_index": 31}, "uniqueid": "MTK1568:3SNLUL3WO5UXTMMEWYZ7JM00N5ALUC", "dateTime": 1515981804632}, {"current_trial": 32, "trialdata": {"rt": -1000, "trial_type": "single-audio", "word": "rifle", "stimulus": "/static/audio/wordpool/RIFLE.wav", "conditions": [18, 1200, "a", 18000], "internal_node_id": "0.0-23.0", "trial": 0, "time_elapsed": 248124, "serialpos": 11, "key_press": -1, "wordID": 1191, "type": "PRES_AUD", "trial_index": 32}, "uniqueid": "MTK1568:3SNLUL3WO5UXTMMEWYZ7JM00N5ALUC", "dateTime": 1515981806769}, {"current_trial": 33, "trialdata": {"rt": -1000, "trial_type": "single-audio", "word": "leg", "stimulus": "/static/audio/wordpool/LEG.wav", "conditions": [18, 1200, "a", 18000], "internal_node_id": "0.0-24.0", "trial": 0, "time_elapsed": 250525, "serialpos": 12, "key_press": -1, "wordID": 808, "type": "PRES_AUD", "trial_index": 33}, "uniqueid": "MTK1568:3SNLUL3WO5UXTMMEWYZ7JM00N5ALUC", "dateTime": 1515981809170}, {"current_trial": 34, "trialdata": {"rt": -1000, "trial_type": "single-audio", "word": "snack", "stimulus": "/static/audio/wordpool/SNACK.wav", "conditions": [18, 1200, "a", 18000], "internal_node_id": "0.0-25.0", "trial": 0, "time_elapsed": 252672, "serialpos": 13, "key_press": -1, "wordID": 1330, "type": "PRES_AUD", "trial_index": 34}, "uniqueid": "MTK1568:3SNLUL3WO5UXTMMEWYZ7JM00N5ALUC", "dateTime": 1515981811318}, {"current_trial": 35, "trialdata": {"rt": -1000, "trial_type": "single-audio", "word": "sunset", "stimulus": "/static/audio/wordpool/SUNSET.wav", "conditions": [18, 1200, "a", 18000], "internal_node_id": "0.0-26.0", "trial": 0, "time_elapsed": 254700, "serialpos": 14, "key_press": -1, "wordID": 1407, "type": "PRES_AUD", "trial_index": 35}, "uniqueid": "MTK1568:3SNLUL3WO5UXTMMEWYZ7JM00N5ALUC", "dateTime": 1515981813346}, {"current_trial": 36, "trialdata": {"rt": -1000, "trial_type": "single-audio", "word": "waiter", "stimulus": "/static/audio/wordpool/WAITER.wav", "conditions": [18, 1200, "a", 18000], "internal_node_id": "0.0-27.0", "trial": 0, "time_elapsed": 256913, "serialpos": 15, "key_press": -1, "wordID": 1579, "type": "PRES_AUD", "trial_index": 36}, "uniqueid": "MTK1568:3SNLUL3WO5UXTMMEWYZ7JM00N5ALUC", "dateTime": 1515981815558}, {"current_trial": 37, "trialdata": {"rt": -1000, "trial_type": "single-audio", "word": "bathtub", "stimulus": "/static/audio/wordpool/BATHTUB.wav", "conditions": [18, 1200, "a", 18000], "internal_node_id": "0.0-28.0", "trial": 0, "time_elapsed": 259265, "serialpos": 16, "key_press": -1, "wordID": 99, "type": "PRES_AUD", "trial_index": 37}, "uniqueid": "MTK1568:3SNLUL3WO5UXTMMEWYZ7JM00N5ALUC", "dateTime": 1515981817910}, {"current_trial": 38, "trialdata": {"rt": -1000, "trial_type": "single-audio", "word": "forehead", "stimulus": "/static/audio/wordpool/FOREHEAD.wav", "conditions": [18, 1200, "a", 18000], "internal_node_id": "0.0-29.0", "trial": 0, "time_elapsed": 261382, "serialpos": 17, "key_press": -1, "wordID": 591, "type": "PRES_AUD", "trial_index": 38}, "uniqueid": "MTK1568:3SNLUL3WO5UXTMMEWYZ7JM00N5ALUC", "dateTime": 1515981820028}, {"current_trial": 39, "trialdata": {"rt": -1, "trial_type": "single-stim", "stimulus": "", "internal_node_id": "0.0-30.0-0.0", "time_elapsed": 262600, "key_press": -1, "type": "PRE_RECALL_DELAY", "trial_index": 39}, "uniqueid": "MTK1568:3SNLUL3WO5UXTMMEWYZ7JM00N5ALUC", "dateTime": 1515981821245}, {"current_trial": 40, "trialdata": {"rt": -1000, "trial_type": "single-audio", "stimulus": "/static/audio/400Hz.wav", "internal_node_id": "0.0-31.0", "time_elapsed": 263104, "key_press": -1, "type": "PRE_RECALL_ALERT", "trial_index": 40}, "uniqueid": "MTK1568:3SNLUL3WO5UXTMMEWYZ7JM00N5ALUC", "dateTime": 1515981821749}, {"current_trial": 41, "trialdata": {"rt": [5094, 7452, 13293, 17397, 22085, 38492, 47926], "recwords": ["forehead", "comet", "typist", "comet", "bathtub", "crystal", "comet"], "key_times": [2898, 3312, 3549, 3667, 3975, 4184, 4320, 4538, 5094, 6192, 6559, 6764, 6944, 7175, 7452, 11813, 12114, 12296, 12492, 12679, 12949, 13293, 16418, 16603, 16766, 16909, 17135, 17397, 19936, 20110, 20361, 20545, 20981, 21198, 21536, 22085, 36520, 36901, 37186, 37339, 37631, 37865, 37961, 38492, 46765, 46971, 47203, 47392, 47630, 47926], "trial_type": "free-recall", "conditions": [18, 1200, "a", 18000], "internal_node_id": "0.0-32.0-0.0", "key_presses": [70, 79, 82, 69, 72, 69, 65, 68, 13, 67, 79, 77, 69, 84, 13, 84, 89, 80, 73, 83, 84, 13, 67, 79, 77, 69, 84, 13, 66, 65, 84, 72, 84, 85, 66, 13, 67, 82, 89, 83, 84, 65, 76, 13, 67, 79, 77, 69, 84, 13], "trial": 0, "time_elapsed": 323118, "type": "FREE_RECALL", "trial_index": 41}, "uniqueid": "MTK1568:3SNLUL3WO5UXTMMEWYZ7JM00N5ALUC", "dateTime": 1515981881787}, {"current_trial": 42, "trialdata": {"rt": 1644, "trial_type": "text", "internal_node_id": "0.0-33.0", "time_elapsed": 326789, "key_press": 32, "type": "INSTRUCTIONS", "trial_index": 42}, "uniqueid": "MTK1568:3SNLUL3WO5UXTMMEWYZ7JM00N5ALUC", "dateTime": 1515981885435}, {"current_trial": 43, "trialdata": {"rt": [6578, 9424, 12256, 15139, 17400], "trial_type": "math-distractor", "key_times": [4905, 5078, 6578, 8548, 9072, 9424, 11001, 11508, 12256, 14451, 14819, 15139, 16846, 17090, 17400], "responses": ["23", "17", "10", "20", "11"], "num2": [7, 5, 1, 9, 2, 8], "num3": [9, 6, 3, 8, 7, 8], "conditions": [18, 1200, "a", 18000], "internal_node_id": "0.0-34.0", "key_presses": [50, 51, 13, 49, 55, 13, 49, 48, 13, 50, 48, 13, 49, 49, 13], "trial": 1, "time_elapsed": 346805, "type": "DISTRACTOR", "trial_index": 43, "num1": [7, 6, 3, 3, 2, 8]}, "uniqueid": "MTK1568:3SNLUL3WO5UXTMMEWYZ7JM00N5ALUC", "dateTime": 1515981905451}, {"current_trial": 44, "trialdata": {"rt": -1, "trial_type": "single-stim", "stimulus": "<p id=\"stim\">10</p>", "internal_node_id": "0.0-35.0-0.0", "time_elapsed": 349811, "key_press": -1, "trial_index": 44}, "uniqueid": "MTK1568:3SNLUL3WO5UXTMMEWYZ7JM00N5ALUC", "dateTime": 1515981908457}, {"current_trial": 45, "trialdata": {"rt": -1, "trial_type": "single-stim", "stimulus": "<p id=\"stim\">9</p>", "internal_node_id": "0.0-35.0-1.0", "time_elapsed": 350816, "key_press": -1, "trial_index": 45}, "uniqueid": "MTK1568:3SNLUL3WO5UXTMMEWYZ7JM00N5ALUC", "dateTime": 1515981909461}, {"current_trial": 46, "trialdata": {"rt": -1, "trial_type": "single-stim", "stimulus": "<p id=\"stim\">8</p>", "internal_node_id": "0.0-35.0-2.0", "time_elapsed": 351820, "key_press": -1, "trial_index": 46}, "uniqueid": "MTK1568:3SNLUL3WO5UXTMMEWYZ7JM00N5ALUC", "dateTime": 1515981910465}, {"current_trial": 47, "trialdata": {"rt": -1, "trial_type": "single-stim", "stimulus": "<p id=\"stim\">7</p>", "internal_node_id": "0.0-35.0-3.0", "time_elapsed": 352823, "key_press": -1, "trial_index": 47}, "uniqueid": "MTK1568:3SNLUL3WO5UXTMMEWYZ7JM00N5ALUC", "dateTime": 1515981911468}, {"current_trial": 48, "trialdata": {"rt": -1, "trial_type": "single-stim", "stimulus": "<p id=\"stim\">6</p>", "internal_node_id": "0.0-35.0-4.0", "time_elapsed": 353828, "key_press": -1, "trial_index": 48}, "uniqueid": "MTK1568:3SNLUL3WO5UXTMMEWYZ7JM00N5ALUC", "dateTime": 1515981912473}, {"current_trial": 49, "trialdata": {"rt": -1, "trial_type": "single-stim", "stimulus": "<p id=\"stim\">5</p>", "internal_node_id": "0.0-35.0-5.0", "time_elapsed": 354832, "key_press": -1, "trial_index": 49}, "uniqueid": "MTK1568:3SNLUL3WO5UXTMMEWYZ7JM00N5ALUC", "dateTime": 1515981913478}, {"current_trial": 50, "trialdata": {"rt": -1, "trial_type": "single-stim", "stimulus": "<p id=\"stim\">4</p>", "internal_node_id": "0.0-35.0-6.0", "time_elapsed": 355835, "key_press": -1, "trial_index": 50}, "uniqueid": "MTK1568:3SNLUL3WO5UXTMMEWYZ7JM00N5ALUC", "dateTime": 1515981914480}, {"current_trial": 51, "trialdata": {"rt": -1, "trial_type": "single-stim", "stimulus": "<p id=\"stim\">3</p>", "internal_node_id": "0.0-35.0-7.0", "time_elapsed": 356837, "key_press": -1, "trial_index": 51}, "uniqueid": "MTK1568:3SNLUL3WO5UXTMMEWYZ7JM00N5ALUC", "dateTime": 1515981915482}, {"current_trial": 52, "trialdata": {"rt": -1, "trial_type": "single-stim", "stimulus": "<p id=\"stim\">2</p>", "internal_node_id": "0.0-35.0-8.0", "time_elapsed": 357841, "key_press": -1, "trial_index": 52}, "uniqueid": "MTK1568:3SNLUL3WO5UXTMMEWYZ7JM00N5ALUC", "dateTime": 1515981916486}, {"current_trial": 53, "trialdata": {"rt": -1, "trial_type": "single-stim", "stimulus": "<p id=\"stim\">1</p>", "internal_node_id": "0.0-35.0-9.0", "time_elapsed": 358845, "key_press": -1, "trial_index": 53}, "uniqueid": "MTK1568:3SNLUL3WO5UXTMMEWYZ7JM00N5ALUC", "dateTime": 1515981917491}, {"current_trial": 54, "trialdata": {"rt": -1, "trial_type": "single-stim", "stimulus": "<p id=\"stim\">+</p>", "internal_node_id": "0.0-36.0-0.0", "time_elapsed": 360351, "key_press": -1, "type": "FIXATION", "trial_index": 54}, "uniqueid": "MTK1568:3SNLUL3WO5UXTMMEWYZ7JM00N5ALUC", "dateTime": 1515981918997}, {"current_trial": 55, "trialdata": {"rt": -1000, "trial_type": "single-audio", "word": "clock", "stimulus": "/static/audio/wordpool/CLOCK.wav", "conditions": [18, 1200, "a", 18000], "internal_node_id": "0.0-37.0", "trial": 1, "time_elapsed": 362621, "serialpos": 0, "key_press": -1, "wordID": 324, "type": "PRES_AUD", "trial_index": 55}, "uniqueid": "MTK1568:3SNLUL3WO5UXTMMEWYZ7JM00N5ALUC", "dateTime": 1515981921267}, {"current_trial": 56, "trialdata": {"rt": -1000, "trial_type": "single-audio", "word": "sidewalk", "stimulus": "/static/audio/wordpool/SIDEWALK.wav", "conditions": [18, 1200, "a", 18000], "internal_node_id": "0.0-38.0", "trial": 1, "time_elapsed": 364632, "serialpos": 1, "key_press": -1, "wordID": 1302, "type": "PRES_AUD", "trial_index": 56}, "uniqueid": "MTK1568:3SNLUL3WO5UXTMMEWYZ7JM00N5ALUC", "dateTime": 1515981923278}, {"current_trial": 57, "trialdata": {"rt": -1000, "trial_type": "single-audio", "word": "creature", "stimulus": "/static/audio/wordpool/CREATURE.wav", "conditions": [18, 1200, "a", 18000], "internal_node_id": "0.0-39.0", "trial": 1, "time_elapsed": 366695, "serialpos": 2, "key_press": -1, "wordID": 402, "type": "PRES_AUD", "trial_index": 57}, "uniqueid": "MTK1568:3SNLUL3WO5UXTMMEWYZ7JM00N5ALUC", "dateTime": 1515981925341}, {"current_trial": 58, "trialdata": {"rt": -1000, "trial_type": "single-audio", "word": "fungus", "stimulus": "/static/audio/wordpool/FUNGUS.wav", "conditions": [18, 1200, "a", 18000], "internal_node_id": "0.0-40.0", "trial": 1, "time_elapsed": 368838, "serialpos": 3, "key_press": -1, "wordID": 613, "type": "PRES_AUD", "trial_index": 58}, "uniqueid": "MTK1568:3SNLUL3WO5UXTMMEWYZ7JM00N5ALUC", "dateTime": 1515981927484}, {"current_trial": 59, "trialdata": {"rt": -1000, "trial_type": "single-audio", "word": "clamp", "stimulus": "/static/audio/wordpool/CLAMP.wav", "conditions": [18, 1200, "a", 18000], "internal_node_id": "0.0-41.0", "trial": 1, "time_elapsed": 370937, "serialpos": 4, "key_press": -1, "wordID": 315, "type": "PRES_AUD", "trial_index": 59}, "uniqueid": "MTK1568:3SNLUL3WO5UXTMMEWYZ7JM00N5ALUC", "dateTime": 1515981929583}, {"current_trial": 60, "trialdata": {"rt": -1000, "trial_type": "single-audio", "word": "scarecrow", "stimulus": "/static/audio/wordpool/SCARECROW.wav", "conditions": [18, 1200, "a", 18000], "internal_node_id": "0.0-42.0", "trial": 1, "time_elapsed": 373042, "serialpos": 5, "key_press": -1, "wordID": 1244, "type": "PRES_AUD", "trial_index": 60}, "uniqueid": "MTK1568:3SNLUL3WO5UXTMMEWYZ7JM00N5ALUC", "dateTime": 1515981931688}, {"current_trial": 61, "trialdata": {"rt": -1000, "trial_type": "single-audio", "word": "orchid", "stimulus": "/static/audio/wordpool/ORCHID.wav", "conditions": [18, 1200, "a", 18000], "internal_node_id": "0.0-43.0", "trial": 1, "time_elapsed": 375208, "serialpos": 6, "key_press": -1, "wordID": 981, "type": "PRES_AUD", "trial_index": 61}, "uniqueid": "MTK1568:3SNLUL3WO5UXTMMEWYZ7JM00N5ALUC", "dateTime": 1515981933854}, {"current_trial": 62, "trialdata": {"rt": -1000, "trial_type": "single-audio", "word": "receipt", "stimulus": "/static/audio/wordpool/RECEIPT.wav", "conditions": [18, 1200, "a", 18000], "internal_node_id": "0.0-44.0", "trial": 1, "time_elapsed": 377220, "serialpos": 7, "key_press": -1, "wordID": 1172, "type": "PRES_AUD", "trial_index": 62}, "uniqueid": "MTK1568:3SNLUL3WO5UXTMMEWYZ7JM00N5ALUC", "dateTime": 1515981935865}, {"current_trial": 63, "trialdata": {"rt": -1000, "trial_type": "single-audio", "word": "table", "stimulus": "/static/audio/wordpool/TABLE.wav", "conditions": [18, 1200, "a", 18000], "internal_node_id": "0.0-45.0", "trial": 1, "time_elapsed": 379292, "serialpos": 8, "key_press": -1, "wordID": 1425, "type": "PRES_AUD", "trial_index": 63}, "uniqueid": "MTK1568:3SNLUL3WO5UXTMMEWYZ7JM00N5ALUC", "dateTime": 1515981937937}, {"current_trial": 64, "trialdata": {"rt": -1000, "trial_type": "single-audio", "word": "turkey", "stimulus": "/static/audio/wordpool/TURKEY.wav", "conditions": [18, 1200, "a", 18000], "internal_node_id": "0.0-46.0", "trial": 1, "time_elapsed": 381650, "serialpos": 9, "key_press": -1, "wordID": 1519, "type": "PRES_AUD", "trial_index": 64}, "uniqueid": "MTK1568:3SNLUL3WO5UXTMMEWYZ7JM00N5ALUC", "dateTime": 1515981940295}, {"current_trial": 65, "trialdata": {"rt": -1000, "trial_type": "single-audio", "word": "ketchup", "stimulus": "/static/audio/wordpool/KETCHUP.wav", "conditions": [18, 1200, "a", 18000], "internal_node_id": "0.0-47.0", "trial": 1, "time_elapsed": 384033, "serialpos": 10, "key_press": -1, "wordID": 770, "type": "PRES_AUD", "trial_index": 65}, "uniqueid": "MTK1568:3SNLUL3WO5UXTMMEWYZ7JM00N5ALUC", "dateTime": 1515981942679}, {"current_trial": 66, "trialdata": {"rt": -1000, "trial_type": "single-audio", "word": "nomad", "stimulus": "/static/audio/wordpool/NOMAD.wav", "conditions": [18, 1200, "a", 18000], "internal_node_id": "0.0-48.0", "trial": 1, "time_elapsed": 386132, "serialpos": 11, "key_press": -1, "wordID": 954, "type": "PRES_AUD", "trial_index": 66}, "uniqueid": "MTK1568:3SNLUL3WO5UXTMMEWYZ7JM00N5ALUC", "dateTime": 1515981944778}, {"current_trial": 67, "trialdata": {"rt": -1000, "trial_type": "single-audio", "word": "ghetto", "stimulus": "/static/audio/wordpool/GHETTO.wav", "conditions": [18, 1200, "a", 18000], "internal_node_id": "0.0-49.0", "trial": 1, "time_elapsed": 388214, "serialpos": 12, "key_press": -1, "wordID": 632, "type": "PRES_AUD", "trial_index": 67}, "uniqueid": "MTK1568:3SNLUL3WO5UXTMMEWYZ7JM00N5ALUC", "dateTime": 1515981946860}, {"current_trial": 68, "trialdata": {"rt": -1000, "trial_type": "single-audio", "word": "salmon", "stimulus": "/static/audio/wordpool/SALMON.wav", "conditions": [18, 1200, "a", 18000], "internal_node_id": "0.0-50.0", "trial": 1, "time_elapsed": 390340, "serialpos": 13, "key_press": -1, "wordID": 1226, "type": "PRES_AUD", "trial_index": 68}, "uniqueid": "MTK1568:3SNLUL3WO5UXTMMEWYZ7JM00N5ALUC", "dateTime": 1515981948996}, {"current_trial": 69, "trialdata": {"rt": -1000, "trial_type": "single-audio", "word": "icing", "stimulus": "/static/audio/wordpool/ICING.wav", "conditions": [18, 1200, "a", 18000], "internal_node_id": "0.0-51.0", "trial": 1, "time_elapsed": 392699, "serialpos": 14, "key_press": -1, "wordID": 731, "type": "PRES_AUD", "trial_index": 69}, "uniqueid": "MTK1568:3SNLUL3WO5UXTMMEWYZ7JM00N5ALUC", "dateTime": 1515981951344}, {"current_trial": 70, "trialdata": {"rt": -1000, "trial_type": "single-audio", "word": "thread", "stimulus": "/static/audio/wordpool/THREAD.wav", "conditions": [18, 1200, "a", 18000], "internal_node_id": "0.0-52.0", "trial": 1, "time_elapsed": 394877, "serialpos": 15, "key_press": -1, "wordID": 1459, "type": "PRES_AUD", "trial_index": 70}, "uniqueid": "MTK1568:3SNLUL3WO5UXTMMEWYZ7JM00N5ALUC", "dateTime": 1515981953522}, {"current_trial": 71, "trialdata": {"rt": -1000, "trial_type": "single-audio", "word": "slime", "stimulus": "/static/audio/wordpool/SLIME.wav", "conditions": [18, 1200, "a", 18000], "internal_node_id": "0.0-53.0", "trial": 1, "time_elapsed": 397195, "serialpos": 16, "key_press": -1, "wordID": 1326, "type": "PRES_AUD", "trial_index": 71}, "uniqueid": "MTK1568:3SNLUL3WO5UXTMMEWYZ7JM00N5ALUC", "dateTime": 1515981955841}, {"current_trial": 72, "trialdata": {"rt": -1000, "trial_type": "single-audio", "word": "notebook", "stimulus": "/static/audio/wordpool/NOTEBOOK.wav", "conditions": [18, 1200, "a", 18000], "internal_node_id": "0.0-54.0", "trial": 1, "time_elapsed": 399303, "serialpos": 17, "key_press": -1, "wordID": 958, "type": "PRES_AUD", "trial_index": 72}, "uniqueid": "MTK1568:3SNLUL3WO5UXTMMEWYZ7JM00N5ALUC", "dateTime": 1515981957949}, {"current_trial": 73, "trialdata": {"rt": -1, "trial_type": "single-stim", "stimulus": "", "internal_node_id": "0.0-55.0-0.0", "time_elapsed": 400688, "key_press": -1, "type": "PRE_RECALL_DELAY", "trial_index": 73}, "uniqueid": "MTK1568:3SNLUL3WO5UXTMMEWYZ7JM00N5ALUC", "dateTime": 1515981959333}, {"current_trial": 74, "trialdata": {"rt": -1000, "trial_type": "single-audio", "stimulus": "/static/audio/400Hz.wav", "internal_node_id": "0.0-56.0", "time_elapsed": 401191, "key_press": -1, "type": "PRE_RECALL_ALERT", "trial_index": 74}, "uniqueid": "MTK1568:3SNLUL3WO5UXTMMEWYZ7JM00N5ALUC", "dateTime": 1515981959837}, {"current_trial": 75, "trialdata": {"rt": [3566, 7031, 8761, 12494, 18038, 34809], "recwords": ["notebook", "ketchup", "clam", "nomad", "fungis", "sunset"], "key_times": [1387, 1567, 1811, 2035, 2688, 2864, 3016, 3168, 3566, 4082, 4248, 4514, 5479, 5731, 5970, 6471, 7031, 7887, 8046, 8204, 8360, 8761, 11407, 11570, 11762, 11954, 12211, 12494, 16350, 16618, 16885, 17106, 17364, 17704, 18038, 33156, 33458, 33742, 33982, 34190, 34464, 34809], "trial_type": "free-recall", "conditions": [18, 1200, "a", 18000], "internal_node_id": "0.0-57.0-0.0", "key_presses": [78, 79, 84, 69, 66, 79, 79, 75, 13, 75, 69, 84, 67, 72, 85, 80, 13, 67, 76, 65, 77, 13, 78, 79, 77, 65, 68, 13, 70, 85, 78, 71, 73, 83, 13, 83, 85, 78, 83, 69, 84, 13], "trial": 1, "time_elapsed": 461206, "type": "FREE_RECALL", "trial_index": 75}, "uniqueid": "MTK1568:3SNLUL3WO5UXTMMEWYZ7JM00N5ALUC", "dateTime": 1515982019866}, {"current_trial": 76, "trialdata": {"rt": 3318, "trial_type": "text", "internal_node_id": "0.0-58.0", "time_elapsed": 466542, "key_press": 32, "type": "INSTRUCTIONS", "trial_index": 76}, "uniqueid": "MTK1568:3SNLUL3WO5UXTMMEWYZ7JM00N5ALUC", "dateTime": 1515982025187}, {"current_trial": 77, "trialdata": {"rt": [2576, 5772, 7869, 11739], "trial_type": "math-distractor", "key_times": [1783, 2056, 2576, 5109, 5281, 5772, 7010, 7291, 7869, 10936, 11188, 11739], "responses": ["17", "23", "17", "13"], "num2": [4, 8, 4, 8, 2], "num3": [6, 8, 7, 1, 8], "conditions": [12, 800, "a", 12000], "internal_node_id": "0.0-59.0", "key_presses": [49, 55, 13, 50, 51, 13, 49, 55, 13, 49, 51, 13], "trial": 2, "time_elapsed": 479555, "type": "DISTRACTOR", "trial_index": 77, "num1": [7, 7, 6, 4, 9]}, "uniqueid": "MTK1568:3SNLUL3WO5UXTMMEWYZ7JM00N5ALUC", "dateTime": 1515982038202}, {"current_trial": 78, "trialdata": {"rt": -1, "trial_type": "single-stim", "stimulus": "<p id=\"stim\">10</p>", "internal_node_id": "0.0-60.0-0.0", "time_elapsed": 482561, "key_press": -1, "trial_index": 78}, "uniqueid": "MTK1568:3SNLUL3WO5UXTMMEWYZ7JM00N5ALUC", "dateTime": 1515982041206}, {"current_trial": 79, "trialdata": {"rt": -1, "trial_type": "single-stim", "stimulus": "<p id=\"stim\">9</p>", "internal_node_id": "0.0-60.0-1.0", "time_elapsed": 483565, "key_press": -1, "trial_index": 79}, "uniqueid": "MTK1568:3SNLUL3WO5UXTMMEWYZ7JM00N5ALUC", "dateTime": 1515982042210}, {"current_trial": 80, "trialdata": {"rt": -1, "trial_type": "single-stim", "stimulus": "<p id=\"stim\">8</p>", "internal_node_id": "0.0-60.0-2.0", "time_elapsed": 484569, "key_press": -1, "trial_index": 80}, "uniqueid": "MTK1568:3SNLUL3WO5UXTMMEWYZ7JM00N5ALUC", "dateTime": 1515982043214}, {"current_trial": 81, "trialdata": {"rt": -1, "trial_type": "single-stim", "stimulus": "<p id=\"stim\">7</p>", "internal_node_id": "0.0-60.0-3.0", "time_elapsed": 485573, "key_press": -1, "trial_index": 81}, "uniqueid": "MTK1568:3SNLUL3WO5UXTMMEWYZ7JM00N5ALUC", "dateTime": 1515982044218}, {"current_trial": 82, "trialdata": {"rt": -1, "trial_type": "single-stim", "stimulus": "<p id=\"stim\">6</p>", "internal_node_id": "0.0-60.0-4.0", "time_elapsed": 486578, "key_press": -1, "trial_index": 82}, "uniqueid": "MTK1568:3SNLUL3WO5UXTMMEWYZ7JM00N5ALUC", "dateTime": 1515982045223}, {"current_trial": 83, "trialdata": {"rt": -1, "trial_type": "single-stim", "stimulus": "<p id=\"stim\">5</p>", "internal_node_id": "0.0-60.0-5.0", "time_elapsed": 487584, "key_press": -1, "trial_index": 83}, "uniqueid": "MTK1568:3SNLUL3WO5UXTMMEWYZ7JM00N5ALUC", "dateTime": 1515982046229}, {"current_trial": 84, "trialdata": {"rt": -1, "trial_type": "single-stim", "stimulus": "<p id=\"stim\">4</p>", "internal_node_id": "0.0-60.0-6.0", "time_elapsed": 488587, "key_press": -1, "trial_index": 84}, "uniqueid": "MTK1568:3SNLUL3WO5UXTMMEWYZ7JM00N5ALUC", "dateTime": 1515982047232}, {"current_trial": 85, "trialdata": {"rt": -1, "trial_type": "single-stim", "stimulus": "<p id=\"stim\">3</p>", "internal_node_id": "0.0-60.0-7.0", "time_elapsed": 489591, "key_press": -1, "trial_index": 85}, "uniqueid": "MTK1568:3SNLUL3WO5UXTMMEWYZ7JM00N5ALUC", "dateTime": 1515982048236}, {"current_trial": 86, "trialdata": {"rt": -1, "trial_type": "single-stim", "stimulus": "<p id=\"stim\">2</p>", "internal_node_id": "0.0-60.0-8.0", "time_elapsed": 490619, "key_press": -1, "trial_index": 86}, "uniqueid": "MTK1568:3SNLUL3WO5UXTMMEWYZ7JM00N5ALUC", "dateTime": 1515982049264}, {"current_trial": 87, "trialdata": {"rt": -1, "trial_type": "single-stim", "stimulus": "<p id=\"stim\">1</p>", "internal_node_id": "0.0-60.0-9.0", "time_elapsed": 491624, "key_press": -1, "trial_index": 87}, "uniqueid": "MTK1568:3SNLUL3WO5UXTMMEWYZ7JM00N5ALUC", "dateTime": 1515982050270}, {"current_trial": 88, "trialdata": {"rt": -1, "trial_type": "single-stim", "stimulus": "<p id=\"stim\">+</p>", "internal_node_id": "0.0-61.0-0.0", "time_elapsed": 493129, "key_press": -1, "type": "FIXATION", "trial_index": 88}, "uniqueid": "MTK1568:3SNLUL3WO5UXTMMEWYZ7JM00N5ALUC", "dateTime": 1515982051774}, {"current_trial": 89, "trialdata": {"rt": -1000, "trial_type": "single-audio", "word": "burglar", "stimulus": "/static/audio/wordpool/BURGLAR.wav", "conditions": [12, 800, "a", 12000], "internal_node_id": "0.0-62.0", "trial": 2, "time_elapsed": 494977, "serialpos": 0, "key_press": -1, "wordID": 199, "type": "PRES_AUD", "trial_index": 89}, "uniqueid": "MTK1568:3SNLUL3WO5UXTMMEWYZ7JM00N5ALUC", "dateTime": 1515982053622}, {"current_trial": 90, "trialdata": {"rt": -1000, "trial_type": "single-audio", "word": "rabbit", "stimulus": "/static/audio/wordpool/RABBIT.wav", "conditions": [12, 800, "a", 12000], "internal_node_id": "0.0-63.0", "trial": 2, "time_elapsed": 496871, "serialpos": 1, "key_press": -1, "wordID": 1151, "type": "PRES_AUD", "trial_index": 90}, "uniqueid": "MTK1568:3SNLUL3WO5UXTMMEWYZ7JM00N5ALUC", "dateTime": 1515982055516}, {"current_trial": 91, "trialdata": {"rt": -1000, "trial_type": "single-audio", "word": "woman", "stimulus": "/static/audio/wordpool/WOMAN.wav", "conditions": [12, 800, "a", 12000], "internal_node_id": "0.0-64.0", "trial": 2, "time_elapsed": 498693, "serialpos": 2, "key_press": -1, "wordID": 1619, "type": "PRES_AUD", "trial_index": 91}, "uniqueid": "MTK1568:3SNLUL3WO5UXTMMEWYZ7JM00N5ALUC", "dateTime": 1515982057339}, {"current_trial": 92, "trialdata": {"rt": -1000, "trial_type": "single-audio", "word": "mop", "stimulus": "/static/audio/wordpool/MOP.wav", "conditions": [12, 800, "a", 12000], "internal_node_id": "0.0-65.0", "trial": 2, "time_elapsed": 500414, "serialpos": 3, "key_press": -1, "wordID": 915, "type": "PRES_AUD", "trial_index": 92}, "uniqueid": "MTK1568:3SNLUL3WO5UXTMMEWYZ7JM00N5ALUC", "dateTime": 1515982059059}, {"current_trial": 93, "trialdata": {"rt": -1000, "trial_type": "single-audio", "word": "cousin", "stimulus": "/static/audio/wordpool/COUSIN.wav", "conditions": [12, 800, "a", 12000], "internal_node_id": "0.0-66.0", "trial": 2, "time_elapsed": 502179, "serialpos": 4, "key_press": -1, "wordID": 391, "type": "PRES_AUD", "trial_index": 93}, "uniqueid": "MTK1568:3SNLUL3WO5UXTMMEWYZ7JM00N5ALUC", "dateTime": 1515982060825}, {"current_trial": 94, "trialdata": {"rt": -1000, "trial_type": "single-audio", "word": "uncle", "stimulus": "/static/audio/wordpool/UNCLE.wav", "conditions": [12, 800, "a", 12000], "internal_node_id": "0.0-67.0", "trial": 2, "time_elapsed": 504021, "serialpos": 5, "key_press": -1, "wordID": 1535, "type": "PRES_AUD", "trial_index": 94}, "uniqueid": "MTK1568:3SNLUL3WO5UXTMMEWYZ7JM00N5ALUC", "dateTime": 1515982062666}, {"current_trial": 95, "trialdata": {"rt": -1000, "trial_type": "single-audio", "word": "friend", "stimulus": "/static/audio/wordpool/FRIEND.wav", "conditions": [12, 800, "a", 12000], "internal_node_id": "0.0-68.0", "trial": 2, "time_elapsed": 505893, "serialpos": 6, "key_press": -1, "wordID": 605, "type": "PRES_AUD", "trial_index": 95}, "uniqueid": "MTK1568:3SNLUL3WO5UXTMMEWYZ7JM00N5ALUC", "dateTime": 1515982064538}, {"current_trial": 96, "trialdata": {"rt": -1000, "trial_type": "single-audio", "word": "dust", "stimulus": "/static/audio/wordpool/DUST.wav", "conditions": [12, 800, "a", 12000], "internal_node_id": "0.0-69.0", "trial": 2, "time_elapsed": 507887, "serialpos": 7, "key_press": -1, "wordID": 507, "type": "PRES_AUD", "trial_index": 96}, "uniqueid": "MTK1568:3SNLUL3WO5UXTMMEWYZ7JM00N5ALUC", "dateTime": 1515982066533}, {"current_trial": 97, "trialdata": {"rt": -1000, "trial_type": "single-audio", "word": "lady", "stimulus": "/static/audio/wordpool/LADY.wav", "conditions": [12, 800, "a", 12000], "internal_node_id": "0.0-70.0", "trial": 2, "time_elapsed": 509779, "serialpos": 8, "key_press": -1, "wordID": 793, "type": "PRES_AUD", "trial_index": 97}, "uniqueid": "MTK1568:3SNLUL3WO5UXTMMEWYZ7JM00N5ALUC", "dateTime": 1515982068425}, {"current_trial": 98, "trialdata": {"rt": -1000, "trial_type": "single-audio", "word": "sword", "stimulus": "/static/audio/wordpool/SWORD.wav", "conditions": [12, 800, "a", 12000], "internal_node_id": "0.0-71.0", "trial": 2, "time_elapsed": 511670, "serialpos": 9, "key_press": -1, "wordID": 1422, "type": "PRES_AUD", "trial_index": 98}, "uniqueid": "MTK1568:3SNLUL3WO5UXTMMEWYZ7JM00N5ALUC", "dateTime": 1515982070317}, {"current_trial": 99, "trialdata": {"rt": -1000, "trial_type": "single-audio", "word": "beaver", "stimulus": "/static/audio/wordpool/BEAVER.wav", "conditions": [12, 800, "a", 12000], "internal_node_id": "0.0-72.0", "trial": 2, "time_elapsed": 513311, "serialpos": 10, "key_press": -1, "wordID": 108, "type": "PRES_AUD", "trial_index": 99}, "uniqueid": "MTK1568:3SNLUL3WO5UXTMMEWYZ7JM00N5ALUC", "dateTime": 1515982071957}, {"current_trial": 100, "trialdata": {"rt": -1000, "trial_type": "single-audio", "word": "soda", "stimulus": "/static/audio/wordpool/SODA.wav", "conditions": [12, 800, "a", 12000], "internal_node_id": "0.0-73.0", "trial": 2, "time_elapsed": 515010, "serialpos": 11, "key_press": -1, "wordID": 1340, "type": "PRES_AUD", "trial_index": 100}, "uniqueid": "MTK1568:3SNLUL3WO5UXTMMEWYZ7JM00N5ALUC", "dateTime": 1515982073655}, {"current_trial": 101, "trialdata": {"rt": -1, "trial_type": "single-stim", "stimulus": "", "internal_node_id": "0.0-74.0-0.0", "time_elapsed": 516378, "key_press": -1, "type": "PRE_RECALL_DELAY", "trial_index": 101}, "uniqueid": "MTK1568:3SNLUL3WO5UXTMMEWYZ7JM00N5ALUC", "dateTime": 1515982075023}, {"current_trial": 102, "trialdata": {"rt": -1000, "trial_type": "single-audio", "stimulus": "/static/audio/400Hz.wav", "internal_node_id": "0.0-75.0", "time_elapsed": 516880, "key_press": -1, "type": "PRE_RECALL_ALERT", "trial_index": 102}, "uniqueid": "MTK1568:3SNLUL3WO5UXTMMEWYZ7JM00N5ALUC", "dateTime": 1515982075525}, {"current_trial": 103, "trialdata": {"rt": [2433, 3716, 5184, 12944, 18348, 58881], "recwords": ["beaver", "soda", "lady", "cousin", "brother", "clam"], "key_times": [852, 1148, 1371, 1646, 1874, 2000, 2433, 2947, 3115, 3251, 3429, 3716, 4179, 4392, 4590, 4882, 5184, 11638, 11809, 12037, 12282, 12438, 12664, 12944, 17015, 17303, 17469, 17630, 17792, 17982, 18112, 18348, 57059, 57359, 57735, 58079, 58881], "trial_type": "free-recall", "conditions": [12, 800, "a", 12000], "internal_node_id": "0.0-76.0-0.0", "key_presses": [66, 69, 65, 86, 69, 82, 13, 83, 79, 68, 65, 13, 76, 65, 68, 89, 13, 67, 79, 85, 83, 73, 78, 13, 66, 82, 79, 84, 72, 69, 82, 13, 67, 76, 65, 77, 13], "trial": 2, "time_elapsed": 576887, "type": "FREE_RECALL", "trial_index": 103}, "uniqueid": "MTK1568:3SNLUL3WO5UXTMMEWYZ7JM00N5ALUC", "dateTime": 1515982135547}, {"current_trial": 104, "trialdata": {"rt": 1684, "trial_type": "text", "internal_node_id": "0.0-77.0", "time_elapsed": 580591, "key_press": 32, "type": "INSTRUCTIONS", "trial_index": 104}, "uniqueid": "MTK1568:3SNLUL3WO5UXTMMEWYZ7JM00N5ALUC", "dateTime": 1515982139236}, {"current_trial": 105, "trialdata": {"rt": [2257, 4828, 6867, 8904], "trial_type": "math-distractor", "key_times": [1918, 2257, 3984, 4275, 4828, 6107, 6374, 6867, 8117, 8354, 8904], "responses": ["8", "15", "13", "13"], "num2": [2, 7, 1, 7, 3], "num3": [1, 5, 6, 1, 8], "conditions": [24, 800, "a", 12000], "internal_node_id": "0.0-78.0", "key_presses": [56, 13, 49, 53, 13, 49, 51, 13, 49, 51, 13], "trial": 3, "time_elapsed": 594602, "type": "DISTRACTOR", "trial_index": 105, "num1": [5, 3, 6, 5, 3]}, "uniqueid": "MTK1568:3SNLUL3WO5UXTMMEWYZ7JM00N5ALUC", "dateTime": 1515982153248}, {"current_trial": 106, "trialdata": {"rt": -1, "trial_type": "single-stim", "stimulus": "<p id=\"stim\">10</p>", "internal_node_id": "0.0-79.0-0.0", "time_elapsed": 597611, "key_press": -1, "trial_index": 106}, "uniqueid": "MTK1568:3SNLUL3WO5UXTMMEWYZ7JM00N5ALUC", "dateTime": 1515982156256}, {"current_trial": 107, "trialdata": {"rt": -1, "trial_type": "single-stim", "stimulus": "<p id=\"stim\">9</p>", "internal_node_id": "0.0-79.0-1.0", "time_elapsed": 598613, "key_press": -1, "trial_index": 107}, "uniqueid": "MTK1568:3SNLUL3WO5UXTMMEWYZ7JM00N5ALUC", "dateTime": 1515982157259}, {"current_trial": 108, "trialdata": {"rt": -1, "trial_type": "single-stim", "stimulus": "<p id=\"stim\">8</p>", "internal_node_id": "0.0-79.0-2.0", "time_elapsed": 599618, "key_press": -1, "trial_index": 108}, "uniqueid": "MTK1568:3SNLUL3WO5UXTMMEWYZ7JM00N5ALUC", "dateTime": 1515982158263}, {"current_trial": 109, "trialdata": {"rt": -1, "trial_type": "single-stim", "stimulus": "<p id=\"stim\">7</p>", "internal_node_id": "0.0-79.0-3.0", "time_elapsed": 600622, "key_press": -1, "trial_index": 109}, "uniqueid": "MTK1568:3SNLUL3WO5UXTMMEWYZ7JM00N5ALUC", "dateTime": 1515982159267}, {"current_trial": 110, "trialdata": {"rt": -1, "trial_type": "single-stim", "stimulus": "<p id=\"stim\">6</p>", "internal_node_id": "0.0-79.0-4.0", "time_elapsed": 601627, "key_press": -1, "trial_index": 110}, "uniqueid": "MTK1568:3SNLUL3WO5UXTMMEWYZ7JM00N5ALUC", "dateTime": 1515982160272}, {"current_trial": 111, "trialdata": {"rt": -1, "trial_type": "single-stim", "stimulus": "<p id=\"stim\">5</p>", "internal_node_id": "0.0-79.0-5.0", "time_elapsed": 602632, "key_press": -1, "trial_index": 111}, "uniqueid": "MTK1568:3SNLUL3WO5UXTMMEWYZ7JM00N5ALUC", "dateTime": 1515982161277}, {"current_trial": 112, "trialdata": {"rt": -1, "trial_type": "single-stim", "stimulus": "<p id=\"stim\">4</p>", "internal_node_id": "0.0-79.0-6.0", "time_elapsed": 603636, "key_press": -1, "trial_index": 112}, "uniqueid": "MTK1568:3SNLUL3WO5UXTMMEWYZ7JM00N5ALUC", "dateTime": 1515982162281}, {"current_trial": 113, "trialdata": {"rt": -1, "trial_type": "single-stim", "stimulus": "<p id=\"stim\">3</p>", "internal_node_id": "0.0-79.0-7.0", "time_elapsed": 604640, "key_press": -1, "trial_index": 113}, "uniqueid": "MTK1568:3SNLUL3WO5UXTMMEWYZ7JM00N5ALUC", "dateTime": 1515982163286}, {"current_trial": 114, "trialdata": {"rt": -1, "trial_type": "single-stim", "stimulus": "<p id=\"stim\">2</p>", "internal_node_id": "0.0-79.0-8.0", "time_elapsed": 605643, "key_press": -1, "trial_index": 114}, "uniqueid": "MTK1568:3SNLUL3WO5UXTMMEWYZ7JM00N5ALUC", "dateTime": 1515982164288}, {"current_trial": 115, "trialdata": {"rt": -1, "trial_type": "single-stim", "stimulus": "<p id=\"stim\">1</p>", "internal_node_id": "0.0-79.0-9.0", "time_elapsed": 606646, "key_press": -1, "trial_index": 115}, "uniqueid": "MTK1568:3SNLUL3WO5UXTMMEWYZ7JM00N5ALUC", "dateTime": 1515982165292}, {"current_trial": 116, "trialdata": {"rt": -1, "trial_type": "single-stim", "stimulus": "<p id=\"stim\">+</p>", "internal_node_id": "0.0-80.0-0.0", "time_elapsed": 608151, "key_press": -1, "type": "FIXATION", "trial_index": 116}, "uniqueid": "MTK1568:3SNLUL3WO5UXTMMEWYZ7JM00N5ALUC", "dateTime": 1515982166796}, {"current_trial": 117, "trialdata": {"rt": -1000, "trial_type": "single-audio", "word": "salad", "stimulus": "/static/audio/wordpool/SALAD.wav", "conditions": [24, 800, "a", 12000], "internal_node_id": "0.0-81.0", "trial": 3, "time_elapsed": 610126, "serialpos": 0, "key_press": -1, "wordID": 1223, "type": "PRES_AUD", "trial_index": 117}, "uniqueid": "MTK1568:3SNLUL3WO5UXTMMEWYZ7JM00N5ALUC", "dateTime": 1515982168771}, {"current_trial": 118, "trialdata": {"rt": -1000, "trial_type": "single-audio", "word": "mailbox", "stimulus": "/static/audio/wordpool/MAILBOX.wav", "conditions": [24, 800, "a", 12000], "internal_node_id": "0.0-82.0", "trial": 3, "time_elapsed": 611882, "serialpos": 1, "key_press": -1, "wordID": 856, "type": "PRES_AUD", "trial_index": 118}, "uniqueid": "MTK1568:3SNLUL3WO5UXTMMEWYZ7JM00N5ALUC", "dateTime": 1515982170528}, {"current_trial": 119, "trialdata": {"rt": -1000, "trial_type": "single-audio", "word": "dustpan", "stimulus": "/static/audio/wordpool/DUSTPAN.wav", "conditions": [24, 800, "a", 12000], "internal_node_id": "0.0-83.0", "trial": 3, "time_elapsed": 613799, "serialpos": 2, "key_press": -1, "wordID": 508, "type": "PRES_AUD", "trial_index": 119}, "uniqueid": "MTK1568:3SNLUL3WO5UXTMMEWYZ7JM00N5ALUC", "dateTime": 1515982172445}, {"current_trial": 120, "trialdata": {"rt": -1000, "trial_type": "single-audio", "word": "hand", "stimulus": "/static/audio/wordpool/HAND.wav", "conditions": [24, 800, "a", 12000], "internal_node_id": "0.0-84.0", "trial": 3, "time_elapsed": 615717, "serialpos": 3, "key_press": -1, "wordID": 682, "type": "PRES_AUD", "trial_index": 120}, "uniqueid": "MTK1568:3SNLUL3WO5UXTMMEWYZ7JM00N5ALUC", "dateTime": 1515982174363}, {"current_trial": 121, "trialdata": {"rt": -1000, "trial_type": "single-audio", "word": "lapel", "stimulus": "/static/audio/wordpool/LAPEL.wav", "conditions": [24, 800, "a", 12000], "internal_node_id": "0.0-85.0", "trial": 3, "time_elapsed": 617526, "serialpos": 4, "key_press": -1, "wordID": 799, "type": "PRES_AUD", "trial_index": 121}, "uniqueid": "MTK1568:3SNLUL3WO5UXTMMEWYZ7JM00N5ALUC", "dateTime": 1515982176171}, {"current_trial": 122, "trialdata": {"rt": -1000, "trial_type": "single-audio", "word": "mailman", "stimulus": "/static/audio/wordpool/MAILMAN.wav", "conditions": [24, 800, "a", 12000], "internal_node_id": "0.0-86.0", "trial": 3, "time_elapsed": 619524, "serialpos": 5, "key_press": -1, "wordID": 857, "type": "PRES_AUD", "trial_index": 122}, "uniqueid": "MTK1568:3SNLUL3WO5UXTMMEWYZ7JM00N5ALUC", "dateTime": 1515982178170}, {"current_trial": 123, "trialdata": {"rt": -1000, "trial_type": "single-audio", "word": "banjo", "stimulus": "/static/audio/wordpool/BANJO.wav", "conditions": [24, 800, "a", 12000], "internal_node_id": "0.0-87.0", "trial": 3, "time_elapsed": 621180, "serialpos": 6, "key_press": -1, "wordID": 81, "type": "PRES_AUD", "trial_index": 123}, "uniqueid": "MTK1568:3SNLUL3WO5UXTMMEWYZ7JM00N5ALUC", "dateTime": 1515982179825}, {"current_trial": 124, "trialdata": {"rt": -1000, "trial_type": "single-audio", "word": "trombone", "stimulus": "/static/audio/wordpool/TROMBONE.wav", "conditions": [24, 800, "a", 12000], "internal_node_id": "0.0-88.0", "trial": 3, "time_elapsed": 622984, "serialpos": 7, "key_press": -1, "wordID": 1507, "type": "PRES_AUD", "trial_index": 124}, "uniqueid": "MTK1568:3SNLUL3WO5UXTMMEWYZ7JM00N5ALUC", "dateTime": 1515982181629}, {"current_trial": 125, "trialdata": {"rt": -1000, "trial_type": "single-audio", "word": "office", "stimulus": "/static/audio/wordpool/OFFICE.wav", "conditions": [24, 800, "a", 12000], "internal_node_id": "0.0-89.0", "trial": 3, "time_elapsed": 624833, "serialpos": 8, "key_press": -1, "wordID": 971, "type": "PRES_AUD", "trial_index": 125}, "uniqueid": "MTK1568:3SNLUL3WO5UXTMMEWYZ7JM00N5ALUC", "dateTime": 1515982183478}, {"current_trial": 126, "trialdata": {"rt": -1000, "trial_type": "single-audio", "word": "money", "stimulus": "/static/audio/wordpool/MONEY.wav", "conditions": [24, 800, "a", 12000], "internal_node_id": "0.0-90.0", "trial": 3, "time_elapsed": 626543, "serialpos": 9, "key_press": -1, "wordID": 907, "type": "PRES_AUD", "trial_index": 126}, "uniqueid": "MTK1568:3SNLUL3WO5UXTMMEWYZ7JM00N5ALUC", "dateTime": 1515982185188}, {"current_trial": 127, "trialdata": {"rt": -1000, "trial_type": "single-audio", "word": "beaker", "stimulus": "/static/audio/wordpool/BEAKER.wav", "conditions": [24, 800, "a", 12000], "internal_node_id": "0.0-91.0", "trial": 3, "time_elapsed": 628315, "serialpos": 10, "key_press": -1, "wordID": 103, "type": "PRES_AUD", "trial_index": 127}, "uniqueid": "MTK1568:3SNLUL3WO5UXTMMEWYZ7JM00N5ALUC", "dateTime": 1515982186960}, {"current_trial": 128, "trialdata": {"rt": -1000, "trial_type": "single-audio", "word": "tunnel", "stimulus": "/static/audio/wordpool/TUNNEL.wav", "conditions": [24, 800, "a", 12000], "internal_node_id": "0.0-92.0", "trial": 3, "time_elapsed": 630040, "serialpos": 11, "key_press": -1, "wordID": 1518, "type": "PRES_AUD", "trial_index": 128}, "uniqueid": "MTK1568:3SNLUL3WO5UXTMMEWYZ7JM00N5ALUC", "dateTime": 1515982188686}, {"current_trial": 129, "trialdata": {"rt": -1000, "trial_type": "single-audio", "word": "baby", "stimulus": "/static/audio/wordpool/BABY.wav", "conditions": [24, 800, "a", 12000], "internal_node_id": "0.0-93.0", "trial": 3, "time_elapsed": 631664, "serialpos": 12, "key_press": -1, "wordID": 63, "type": "PRES_AUD", "trial_index": 129}, "uniqueid": "MTK1568:3SNLUL3WO5UXTMMEWYZ7JM00N5ALUC", "dateTime": 1515982190309}, {"current_trial": 130, "trialdata": {"rt": -1000, "trial_type": "single-audio", "word": "message", "stimulus": "/static/audio/wordpool/MESSAGE.wav", "conditions": [24, 800, "a", 12000], "internal_node_id": "0.0-94.0", "trial": 3, "time_elapsed": 633585, "serialpos": 13, "key_press": -1, "wordID": 887, "type": "PRES_AUD", "trial_index": 130}, "uniqueid": "MTK1568:3SNLUL3WO5UXTMMEWYZ7JM00N5ALUC", "dateTime": 1515982192231}, {"current_trial": 131, "trialdata": {"rt": -1000, "trial_type": "single-audio", "word": "shelf", "stimulus": "/static/audio/wordpool/SHELF.wav", "conditions": [24, 800, "a", 12000], "internal_node_id": "0.0-95.0", "trial": 3, "time_elapsed": 635567, "serialpos": 14, "key_press": -1, "wordID": 1279, "type": "PRES_AUD", "trial_index": 131}, "uniqueid": "MTK1568:3SNLUL3WO5UXTMMEWYZ7JM00N5ALUC", "dateTime": 1515982194212}, {"current_trial": 132, "trialdata": {"rt": -1000, "trial_type": "single-audio", "word": "glove", "stimulus": "/static/audio/wordpool/GLOVE.wav", "conditions": [24, 800, "a", 12000], "internal_node_id": "0.0-96.0", "trial": 3, "time_elapsed": 637549, "serialpos": 15, "key_press": -1, "wordID": 641, "type": "PRES_AUD", "trial_index": 132}, "uniqueid": "MTK1568:3SNLUL3WO5UXTMMEWYZ7JM00N5ALUC", "dateTime": 1515982196194}, {"current_trial": 133, "trialdata": {"rt": -1000, "trial_type": "single-audio", "word": "ozone", "stimulus": "/static/audio/wordpool/OZONE.wav", "conditions": [24, 800, "a", 12000], "internal_node_id": "0.0-97.0", "trial": 3, "time_elapsed": 639250, "serialpos": 16, "key_press": -1, "wordID": 995, "type": "PRES_AUD", "trial_index": 133}, "uniqueid": "MTK1568:3SNLUL3WO5UXTMMEWYZ7JM00N5ALUC", "dateTime": 1515982197895}, {"current_trial": 134, "trialdata": {"rt": -1000, "trial_type": "single-audio", "word": "girl", "stimulus": "/static/audio/wordpool/GIRL.wav", "conditions": [24, 800, "a", 12000], "internal_node_id": "0.0-98.0", "trial": 3, "time_elapsed": 640897, "serialpos": 17, "key_press": -1, "wordID": 636, "type": "PRES_AUD", "trial_index": 134}, "uniqueid": "MTK1568:3SNLUL3WO5UXTMMEWYZ7JM00N5ALUC", "dateTime": 1515982199542}, {"current_trial": 135, "trialdata": {"rt": -1000, "trial_type": "single-audio", "word": "kidney", "stimulus": "/static/audio/wordpool/KIDNEY.wav", "conditions": [24, 800, "a", 12000], "internal_node_id": "0.0-99.0", "trial": 3, "time_elapsed": 642533, "serialpos": 18, "key_press": -1, "wordID": 775, "type": "PRES_AUD", "trial_index": 135}, "uniqueid": "MTK1568:3SNLUL3WO5UXTMMEWYZ7JM00N5ALUC", "dateTime": 1515982201178}, {"current_trial": 136, "trialdata": {"rt": -1000, "trial_type": "single-audio", "word": "transplant", "stimulus": "/static/audio/wordpool/TRANSPLANT.wav", "conditions": [24, 800, "a", 12000], "internal_node_id": "0.0-100.0", "trial": 3, "time_elapsed": 644280, "serialpos": 19, "key_press": -1, "wordID": 1495, "type": "PRES_AUD", "trial_index": 136}, "uniqueid": "MTK1568:3SNLUL3WO5UXTMMEWYZ7JM00N5ALUC", "dateTime": 1515982202925}, {"current_trial": 137, "trialdata": {"rt": -1000, "trial_type": "single-audio", "word": "lion", "stimulus": "/static/audio/wordpool/LION.wav", "conditions": [24, 800, "a", 12000], "internal_node_id": "0.0-101.0", "trial": 3, "time_elapsed": 646105, "serialpos": 20, "key_press": -1, "wordID": 826, "type": "PRES_AUD", "trial_index": 137}, "uniqueid": "MTK1568:3SNLUL3WO5UXTMMEWYZ7JM00N5ALUC", "dateTime": 1515982204750}, {"current_trial": 138, "trialdata": {"rt": -1000, "trial_type": "single-audio", "word": "college", "stimulus": "/static/audio/wordpool/COLLEGE.wav", "conditions": [24, 800, "a", 12000], "internal_node_id": "0.0-102.0", "trial": 3, "time_elapsed": 647910, "serialpos": 21, "key_press": -1, "wordID": 345, "type": "PRES_AUD", "trial_index": 138}, "uniqueid": "MTK1568:3SNLUL3WO5UXTMMEWYZ7JM00N5ALUC", "dateTime": 1515982206555}, {"current_trial": 139, "trialdata": {"rt": -1000, "trial_type": "single-audio", "word": "citrus", "stimulus": "/static/audio/wordpool/CITRUS.wav", "conditions": [24, 800, "a", 12000], "internal_node_id": "0.0-103.0", "trial": 3, "time_elapsed": 649646, "serialpos": 22, "key_press": -1, "wordID": 312, "type": "PRES_AUD", "trial_index": 139}, "uniqueid": "MTK1568:3SNLUL3WO5UXTMMEWYZ7JM00N5ALUC", "dateTime": 1515982208292}, {"current_trial": 140, "trialdata": {"rt": -1000, "trial_type": "single-audio", "word": "drink", "stimulus": "/static/audio/wordpool/DRINK.wav", "conditions": [24, 800, "a", 12000], "internal_node_id": "0.0-104.0", "trial": 3, "time_elapsed": 651381, "serialpos": 23, "key_press": -1, "wordID": 497, "type": "PRES_AUD", "trial_index": 140}, "uniqueid": "MTK1568:3SNLUL3WO5UXTMMEWYZ7JM00N5ALUC", "dateTime": 1515982210026}, {"current_trial": 141, "trialdata": {"rt": -1, "trial_type": "single-stim", "stimulus": "", "internal_node_id": "0.0-105.0-0.0", "time_elapsed": 652746, "key_press": -1, "type": "PRE_RECALL_DELAY", "trial_index": 141}, "uniqueid": "MTK1568:3SNLUL3WO5UXTMMEWYZ7JM00N5ALUC", "dateTime": 1515982211391}, {"current_trial": 142, "trialdata": {"rt": -1000, "trial_type": "single-audio", "stimulus": "/static/audio/400Hz.wav", "internal_node_id": "0.0-106.0", "time_elapsed": 653249, "key_press": -1, "type": "PRE_RECALL_ALERT", "trial_index": 142}, "uniqueid": "MTK1568:3SNLUL3WO5UXTMMEWYZ7JM00N5ALUC", "dateTime": 1515982211894}, {"current_trial": 143, "trialdata": {"rt": [4515, 6771, 9845, 13085, 15249, 19590, 28086, 36948, 48215], "recwords": ["drink", "college", "salad", "office", "money", "dustpan", "glove", "trombone", "girl"], "key_times": [2869, 3119, 3301, 3599, 3814, 4515, 5081, 5282, 5510, 5651, 5812, 6085, 6280, 6771, 8163, 8338, 8457, 8717, 8915, 9845, 11829, 11995, 12159, 12321, 12477, 12788, 13085, 13879, 14042, 14219, 14361, 14641, 15249, 17138, 17702, 17883, 18201, 18950, 19115, 19259, 19590, 26524, 26614, 26896, 27226, 27450, 28086, 33912, 34757, 35004, 35240, 35576, 35790, 36001, 36162, 36948, 45516, 45955, 46290, 46648, 48215], "trial_type": "free-recall", "conditions": [24, 800, "a", 12000], "internal_node_id": "0.0-107.0-0.0", "key_presses": [68, 82, 73, 78, 75, 13, 67, 79, 76, 76, 69, 71, 69, 13, 83, 65, 76, 65, 68, 13, 79, 70, 70, 73, 67, 69, 13, 77, 79, 78, 69, 89, 13, 68, 85, 83, 84, 80, 65, 78, 13, 71, 76, 79, 86, 69, 13, 84, 82, 79, 77, 66, 79, 78, 69, 13, 71, 73, 82, 76, 13], "trial": 3, "time_elapsed": 713258, "type": "FREE_RECALL", "trial_index": 143}, "uniqueid": "MTK1568:3SNLUL3WO5UXTMMEWYZ7JM00N5ALUC", "dateTime": 1515982271922}, {"current_trial": 144, "trialdata": {"rt": 1986, "trial_type": "text", "internal_node_id": "0.0-108.0", "time_elapsed": 717267, "key_press": 32, "type": "INSTRUCTIONS", "trial_index": 144}, "uniqueid": "MTK1568:3SNLUL3WO5UXTMMEWYZ7JM00N5ALUC", "dateTime": 1515982275913}, {"current_trial": 145, "trialdata": {"rt": [3263, 6093, 8976, 11628], "trial_type": "math-distractor", "key_times": [2426, 2727, 3263, 5322, 5625, 6093, 7993, 8559, 8976, 10928, 11109, 11628], "responses": ["14", "17", "20", "21"], "num2": [1, 3, 5, 9, 7], "num3": [8, 9, 8, 3, 6], "conditions": [12, 1600, "a", 12000], "internal_node_id": "0.0-109.0", "key_presses": [49, 52, 13, 49, 55, 13, 50, 48, 13, 50, 49, 13], "trial": 4, "time_elapsed": 731279, "type": "DISTRACTOR", "trial_index": 145, "num1": [3, 5, 7, 9, 4]}, "uniqueid": "MTK1568:3SNLUL3WO5UXTMMEWYZ7JM00N5ALUC", "dateTime": 1515982289924}, {"current_trial": 146, "trialdata": {"rt": -1, "trial_type": "single-stim", "stimulus": "<p id=\"stim\">10</p>", "internal_node_id": "0.0-110.0-0.0", "time_elapsed": 734291, "key_press": -1, "trial_index": 146}, "uniqueid": "MTK1568:3SNLUL3WO5UXTMMEWYZ7JM00N5ALUC", "dateTime": 1515982292936}, {"current_trial": 147, "trialdata": {"rt": -1, "trial_type": "single-stim", "stimulus": "<p id=\"stim\">9</p>", "internal_node_id": "0.0-110.0-1.0", "time_elapsed": 735296, "key_press": -1, "trial_index": 147}, "uniqueid": "MTK1568:3SNLUL3WO5UXTMMEWYZ7JM00N5ALUC", "dateTime": 1515982293941}, {"current_trial": 148, "trialdata": {"rt": -1, "trial_type": "single-stim", "stimulus": "<p id=\"stim\">8</p>", "internal_node_id": "0.0-110.0-2.0", "time_elapsed": 736303, "key_press": -1, "trial_index": 148}, "uniqueid": "MTK1568:3SNLUL3WO5UXTMMEWYZ7JM00N5ALUC", "dateTime": 1515982294948}, {"current_trial": 149, "trialdata": {"rt": -1, "trial_type": "single-stim", "stimulus": "<p id=\"stim\">7</p>", "internal_node_id": "0.0-110.0-3.0", "time_elapsed": 737308, "key_press": -1, "trial_index": 149}, "uniqueid": "MTK1568:3SNLUL3WO5UXTMMEWYZ7JM00N5ALUC", "dateTime": 1515982295953}, {"current_trial": 150, "trialdata": {"rt": -1, "trial_type": "single-stim", "stimulus": "<p id=\"stim\">6</p>", "internal_node_id": "0.0-110.0-4.0", "time_elapsed": 738312, "key_press": -1, "trial_index": 150}, "uniqueid": "MTK1568:3SNLUL3WO5UXTMMEWYZ7JM00N5ALUC", "dateTime": 1515982296958}, {"current_trial": 151, "trialdata": {"rt": -1, "trial_type": "single-stim", "stimulus": "<p id=\"stim\">5</p>", "internal_node_id": "0.0-110.0-5.0", "time_elapsed": 739316, "key_press": -1, "trial_index": 151}, "uniqueid": "MTK1568:3SNLUL3WO5UXTMMEWYZ7JM00N5ALUC", "dateTime": 1515982297962}, {"current_trial": 152, "trialdata": {"rt": -1, "trial_type": "single-stim", "stimulus": "<p id=\"stim\">4</p>", "internal_node_id": "0.0-110.0-6.0", "time_elapsed": 740322, "key_press": -1, "trial_index": 152}, "uniqueid": "MTK1568:3SNLUL3WO5UXTMMEWYZ7JM00N5ALUC", "dateTime": 1515982298967}, {"current_trial": 153, "trialdata": {"rt": -1, "trial_type": "single-stim", "stimulus": "<p id=\"stim\">3</p>", "internal_node_id": "0.0-110.0-7.0", "time_elapsed": 741326, "key_press": -1, "trial_index": 153}, "uniqueid": "MTK1568:3SNLUL3WO5UXTMMEWYZ7JM00N5ALUC", "dateTime": 1515982299971}, {"current_trial": 154, "trialdata": {"rt": -1, "trial_type": "single-stim", "stimulus": "<p id=\"stim\">2</p>", "internal_node_id": "0.0-110.0-8.0", "time_elapsed": 742331, "key_press": -1, "trial_index": 154}, "uniqueid": "MTK1568:3SNLUL3WO5UXTMMEWYZ7JM00N5ALUC", "dateTime": 1515982300976}, {"current_trial": 155, "trialdata": {"rt": -1, "trial_type": "single-stim", "stimulus": "<p id=\"stim\">1</p>", "internal_node_id": "0.0-110.0-9.0", "time_elapsed": 743336, "key_press": -1, "trial_index": 155}, "uniqueid": "MTK1568:3SNLUL3WO5UXTMMEWYZ7JM00N5ALUC", "dateTime": 1515982301981}, {"current_trial": 156, "trialdata": {"rt": -1, "trial_type": "single-stim", "stimulus": "<p id=\"stim\">+</p>", "internal_node_id": "0.0-111.0-0.0", "time_elapsed": 744840, "key_press": -1, "type": "FIXATION", "trial_index": 156}, "uniqueid": "MTK1568:3SNLUL3WO5UXTMMEWYZ7JM00N5ALUC", "dateTime": 1515982303486}, {"current_trial": 157, "trialdata": {"rt": -1000, "trial_type": "single-audio", "word": "flashlight", "stimulus": "/static/audio/wordpool/FLASHLIGHT.wav", "conditions": [12, 1600, "a", 12000], "internal_node_id": "0.0-112.0", "trial": 4, "time_elapsed": 747528, "serialpos": 0, "key_press": -1, "wordID": 574, "type": "PRES_AUD", "trial_index": 157}, "uniqueid": "MTK1568:3SNLUL3WO5UXTMMEWYZ7JM00N5ALUC", "dateTime": 1515982306173}, {"current_trial": 158, "trialdata": {"rt": -1000, "trial_type": "single-audio", "word": "child", "stimulus": "/static/audio/wordpool/CHILD.wav", "conditions": [12, 1600, "a", 12000], "internal_node_id": "0.0-113.0", "trial": 4, "time_elapsed": 750073, "serialpos": 1, "key_press": -1, "wordID": 298, "type": "PRES_AUD", "trial_index": 158}, "uniqueid": "MTK1568:3SNLUL3WO5UXTMMEWYZ7JM00N5ALUC", "dateTime": 1515982308718}, {"current_trial": 159, "trialdata": {"rt": -1000, "trial_type": "single-audio", "word": "sister", "stimulus": "/static/audio/wordpool/SISTER.wav", "conditions": [12, 1600, "a", 12000], "internal_node_id": "0.0-114.0", "trial": 4, "time_elapsed": 752571, "serialpos": 2, "key_press": -1, "wordID": 1311, "type": "PRES_AUD", "trial_index": 159}, "uniqueid": "MTK1568:3SNLUL3WO5UXTMMEWYZ7JM00N5ALUC", "dateTime": 1515982311217}, {"current_trial": 160, "trialdata": {"rt": -1000, "trial_type": "single-audio", "word": "kitchen", "stimulus": "/static/audio/wordpool/KITCHEN.wav", "conditions": [12, 1600, "a", 12000], "internal_node_id": "0.0-115.0", "trial": 4, "time_elapsed": 755321, "serialpos": 3, "key_press": -1, "wordID": 777, "type": "PRES_AUD", "trial_index": 160}, "uniqueid": "MTK1568:3SNLUL3WO5UXTMMEWYZ7JM00N5ALUC", "dateTime": 1515982313967}, {"current_trial": 161, "trialdata": {"rt": -1000, "trial_type": "single-audio", "word": "leopard", "stimulus": "/static/audio/wordpool/LEOPARD.wav", "conditions": [12, 1600, "a", 12000], "internal_node_id": "0.0-116.0", "trial": 4, "time_elapsed": 757811, "serialpos": 4, "key_press": -1, "wordID": 811, "type": "PRES_AUD", "trial_index": 161}, "uniqueid": "MTK1568:3SNLUL3WO5UXTMMEWYZ7JM00N5ALUC", "dateTime": 1515982316456}, {"current_trial": 162, "trialdata": {"rt": -1000, "trial_type": "single-audio", "word": "brother", "stimulus": "/static/audio/wordpool/BROTHER.wav", "conditions": [12, 1600, "a", 12000], "internal_node_id": "0.0-117.0", "trial": 4, "time_elapsed": 760352, "serialpos": 5, "key_press": -1, "wordID": 178, "type": "PRES_AUD", "trial_index": 162}, "uniqueid": "MTK1568:3SNLUL3WO5UXTMMEWYZ7JM00N5ALUC", "dateTime": 1515982318998}, {"current_trial": 163, "trialdata": {"rt": -1000, "trial_type": "single-audio", "word": "skillet", "stimulus": "/static/audio/wordpool/SKILLET.wav", "conditions": [12, 1600, "a", 12000], "internal_node_id": "0.0-118.0", "trial": 4, "time_elapsed": 762828, "serialpos": 6, "key_press": -1, "wordID": 1316, "type": "PRES_AUD", "trial_index": 163}, "uniqueid": "MTK1568:3SNLUL3WO5UXTMMEWYZ7JM00N5ALUC", "dateTime": 1515982321473}, {"current_trial": 164, "trialdata": {"rt": -1000, "trial_type": "single-audio", "word": "suitcase", "stimulus": "/static/audio/wordpool/SUITCASE.wav", "conditions": [12, 1600, "a", 12000], "internal_node_id": "0.0-119.0", "trial": 4, "time_elapsed": 765319, "serialpos": 7, "key_press": -1, "wordID": 1402, "type": "PRES_AUD", "trial_index": 164}, "uniqueid": "MTK1568:3SNLUL3WO5UXTMMEWYZ7JM00N5ALUC", "dateTime": 1515982323964}, {"current_trial": 165, "trialdata": {"rt": -1000, "trial_type": "single-audio", "word": "briefcase", "stimulus": "/static/audio/wordpool/BRIEFCASE.wav", "conditions": [12, 1600, "a", 12000], "internal_node_id": "0.0-120.0", "trial": 4, "time_elapsed": 768057, "serialpos": 8, "key_press": -1, "wordID": 174, "type": "PRES_AUD", "trial_index": 165}, "uniqueid": "MTK1568:3SNLUL3WO5UXTMMEWYZ7JM00N5ALUC", "dateTime": 1515982326703}, {"current_trial": 166, "trialdata": {"rt": -1000, "trial_type": "single-audio", "word": "farmer", "stimulus": "/static/audio/wordpool/FARMER.wav", "conditions": [12, 1600, "a", 12000], "internal_node_id": "0.0-121.0", "trial": 4, "time_elapsed": 770781, "serialpos": 9, "key_press": -1, "wordID": 552, "type": "PRES_AUD", "trial_index": 166}, "uniqueid": "MTK1568:3SNLUL3WO5UXTMMEWYZ7JM00N5ALUC", "dateTime": 1515982329427}, {"current_trial": 167, "trialdata": {"rt": -1000, "trial_type": "single-audio", "word": "banker", "stimulus": "/static/audio/wordpool/BANKER.wav", "conditions": [12, 1600, "a", 12000], "internal_node_id": "0.0-122.0", "trial": 4, "time_elapsed": 773342, "serialpos": 10, "key_press": -1, "wordID": 83, "type": "PRES_AUD", "trial_index": 167}, "uniqueid": "MTK1568:3SNLUL3WO5UXTMMEWYZ7JM00N5ALUC", "dateTime": 1515982331987}, {"current_trial": 168, "trialdata": {"rt": -1000, "trial_type": "single-audio", "word": "knapsack", "stimulus": "/static/audio/wordpool/KNAPSACK.wav", "conditions": [12, 1600, "a", 12000], "internal_node_id": "0.0-123.0", "trial": 4, "time_elapsed": 775917, "serialpos": 11, "key_press": -1, "wordID": 782, "type": "PRES_AUD", "trial_index": 168}, "uniqueid": "MTK1568:3SNLUL3WO5UXTMMEWYZ7JM00N5ALUC", "dateTime": 1515982334562}, {"current_trial": 169, "trialdata": {"rt": -1, "trial_type": "single-stim", "stimulus": "", "internal_node_id": "0.0-124.0-0.0", "time_elapsed": 777147, "key_press": -1, "type": "PRE_RECALL_DELAY", "trial_index": 169}, "uniqueid": "MTK1568:3SNLUL3WO5UXTMMEWYZ7JM00N5ALUC", "dateTime": 1515982335793}, {"current_trial": 170, "trialdata": {"rt": -1000, "trial_type": "single-audio", "stimulus": "/static/audio/400Hz.wav", "internal_node_id": "0.0-125.0", "time_elapsed": 777649, "key_press": -1, "type": "PRE_RECALL_ALERT", "trial_index": 170}, "uniqueid": "MTK1568:3SNLUL3WO5UXTMMEWYZ7JM00N5ALUC", "dateTime": 1515982336295}, {"current_trial": 171, "trialdata": {"rt": [6269, 9137, 11685, 13438, 15575, 21712, 25906, 34539], "recwords": ["napsack", "leopard", "child", "sister", "brother", "banker", "flashlight", "banker"], "key_times": [1496, 1714, 2418, 3218, 3425, 3569, 3722, 4876, 5050, 5427, 5651, 6269, 7682, 7855, 8010, 8178, 8344, 8702, 8934, 9137, 10816, 10967, 11110, 11289, 11444, 11685, 12102, 12272, 12407, 12700, 12892, 12984, 13438, 14388, 14702, 14831, 14990, 15125, 15229, 15355, 15575, 20243, 20446, 20859, 21076, 21292, 21426, 21712, 22715, 22867, 23042, 23248, 23551, 23791, 23987, 24388, 24504, 24894, 25906, 31427, 31801, 32390, 32645, 32932, 33089, 34539], "trial_type": "free-recall", "conditions": [12, 1600, "a", 12000], "internal_node_id": "0.0-126.0-0.0", "key_presses": [78, 65, 80, 83, 65, 75, 69, 8, 8, 67, 75, 13, 76, 69, 79, 80, 65, 82, 68, 13, 67, 72, 73, 76, 68, 13, 83, 73, 83, 84, 69, 82, 13, 66, 82, 79, 84, 72, 69, 82, 13, 66, 65, 78, 75, 69, 82, 13, 70, 76, 65, 83, 72, 76, 73, 71, 72, 84, 13, 66, 65, 78, 75, 69, 82, 13], "trial": 4, "time_elapsed": 837657, "type": "FREE_RECALL", "trial_index": 171}, "uniqueid": "MTK1568:3SNLUL3WO5UXTMMEWYZ7JM00N5ALUC", "dateTime": 1515982396308}, {"current_trial": 172, "trialdata": {"rt": 9683, "trial_type": "text", "internal_node_id": "0.0-127.0", "time_elapsed": 849351, "key_press": 32, "type": "INSTRUCTIONS", "trial_index": 172}, "uniqueid": "MTK1568:3SNLUL3WO5UXTMMEWYZ7JM00N5ALUC", "dateTime": 1515982407996}, {"current_trial": 173, "trialdata": {"rt": [2861, 6250, 8420, 11731], "trial_type": "math-distractor", "key_times": [2052, 2299, 2861, 5566, 5721, 6250, 7457, 7911, 8420, 10508, 11186, 11731], "responses": ["13", "23", "17", "16"], "num2": [1, 5, 4, 2, 2], "num3": [5, 9, 7, 5, 9], "conditions": [24, 800, "a", 12000], "internal_node_id": "0.0-128.0", "key_presses": [49, 51, 13, 50, 51, 13, 49, 55, 13, 49, 54, 13], "trial": 5, "time_elapsed": 863364, "type": "DISTRACTOR", "trial_index": 173, "num1": [7, 9, 6, 9, 2]}, "uniqueid": "MTK1568:3SNLUL3WO5UXTMMEWYZ7JM00N5ALUC", "dateTime": 1515982422010}, {"current_trial": 174, "trialdata": {"rt": -1, "trial_type": "single-stim", "stimulus": "<p id=\"stim\">10</p>", "internal_node_id": "0.0-129.0-0.0", "time_elapsed": 866370, "key_press": -1, "trial_index": 174}, "uniqueid": "MTK1568:3SNLUL3WO5UXTMMEWYZ7JM00N5ALUC", "dateTime": 1515982425016}, {"current_trial": 175, "trialdata": {"rt": -1, "trial_type": "single-stim", "stimulus": "<p id=\"stim\">9</p>", "internal_node_id": "0.0-129.0-1.0", "time_elapsed": 867375, "key_press": -1, "trial_index": 175}, "uniqueid": "MTK1568:3SNLUL3WO5UXTMMEWYZ7JM00N5ALUC", "dateTime": 1515982426020}, {"current_trial": 176, "trialdata": {"rt": -1, "trial_type": "single-stim", "stimulus": "<p id=\"stim\">8</p>", "internal_node_id": "0.0-129.0-2.0", "time_elapsed": 868379, "key_press": -1, "trial_index": 176}, "uniqueid": "MTK1568:3SNLUL3WO5UXTMMEWYZ7JM00N5ALUC", "dateTime": 1515982427025}, {"current_trial": 177, "trialdata": {"rt": -1, "trial_type": "single-stim", "stimulus": "<p id=\"stim\">7</p>", "internal_node_id": "0.0-129.0-3.0", "time_elapsed": 869385, "key_press": -1, "trial_index": 177}, "uniqueid": "MTK1568:3SNLUL3WO5UXTMMEWYZ7JM00N5ALUC", "dateTime": 1515982428030}, {"current_trial": 178, "trialdata": {"rt": -1, "trial_type": "single-stim", "stimulus": "<p id=\"stim\">6</p>", "internal_node_id": "0.0-129.0-4.0", "time_elapsed": 870390, "key_press": -1, "trial_index": 178}, "uniqueid": "MTK1568:3SNLUL3WO5UXTMMEWYZ7JM00N5ALUC", "dateTime": 1515982429036}, {"current_trial": 179, "trialdata": {"rt": -1, "trial_type": "single-stim", "stimulus": "<p id=\"stim\">5</p>", "internal_node_id": "0.0-129.0-5.0", "time_elapsed": 871395, "key_press": -1, "trial_index": 179}, "uniqueid": "MTK1568:3SNLUL3WO5UXTMMEWYZ7JM00N5ALUC", "dateTime": 1515982430041}, {"current_trial": 180, "trialdata": {"rt": -1, "trial_type": "single-stim", "stimulus": "<p id=\"stim\">4</p>", "internal_node_id": "0.0-129.0-6.0", "time_elapsed": 872398, "key_press": -1, "trial_index": 180}, "uniqueid": "MTK1568:3SNLUL3WO5UXTMMEWYZ7JM00N5ALUC", "dateTime": 1515982431044}, {"current_trial": 181, "trialdata": {"rt": -1, "trial_type": "single-stim", "stimulus": "<p id=\"stim\">3</p>", "internal_node_id": "0.0-129.0-7.0", "time_elapsed": 873402, "key_press": -1, "trial_index": 181}, "uniqueid": "MTK1568:3SNLUL3WO5UXTMMEWYZ7JM00N5ALUC", "dateTime": 1515982432048}, {"current_trial": 182, "trialdata": {"rt": -1, "trial_type": "single-stim", "stimulus": "<p id=\"stim\">2</p>", "internal_node_id": "0.0-129.0-8.0", "time_elapsed": 874408, "key_press": -1, "trial_index": 182}, "uniqueid": "MTK1568:3SNLUL3WO5UXTMMEWYZ7JM00N5ALUC", "dateTime": 1515982433053}, {"current_trial": 183, "trialdata": {"rt": -1, "trial_type": "single-stim", "stimulus": "<p id=\"stim\">1</p>", "internal_node_id": "0.0-129.0-9.0", "time_elapsed": 875410, "key_press": -1, "trial_index": 183}, "uniqueid": "MTK1568:3SNLUL3WO5UXTMMEWYZ7JM00N5ALUC", "dateTime": 1515982434056}, {"current_trial": 184, "trialdata": {"rt": -1, "trial_type": "single-stim", "stimulus": "<p id=\"stim\">+</p>", "internal_node_id": "0.0-130.0-0.0", "time_elapsed": 876913, "key_press": -1, "type": "FIXATION", "trial_index": 184}, "uniqueid": "MTK1568:3SNLUL3WO5UXTMMEWYZ7JM00N5ALUC", "dateTime": 1515982435559}, {"current_trial": 185, "trialdata": {"rt": -1000, "trial_type": "single-audio", "word": "marsh", "stimulus": "/static/audio/wordpool/MARSH.wav", "conditions": [24, 800, "a", 12000], "internal_node_id": "0.0-131.0", "trial": 5, "time_elapsed": 878832, "serialpos": 0, "key_press": -1, "wordID": 873, "type": "PRES_AUD", "trial_index": 185}, "uniqueid": "MTK1568:3SNLUL3WO5UXTMMEWYZ7JM00N5ALUC", "dateTime": 1515982437477}, {"current_trial": 186, "trialdata": {"rt": -1000, "trial_type": "single-audio", "word": "doughnut", "stimulus": "/static/audio/wordpool/DOUGHNUT.wav", "conditions": [24, 800, "a", 12000], "internal_node_id": "0.0-132.0", "trial": 5, "time_elapsed": 880654, "serialpos": 1, "key_press": -1, "wordID": 489, "type": "PRES_AUD", "trial_index": 186}, "uniqueid": "MTK1568:3SNLUL3WO5UXTMMEWYZ7JM00N5ALUC", "dateTime": 1515982439300}, {"current_trial": 187, "trialdata": {"rt": -1000, "trial_type": "single-audio", "word": "stove", "stimulus": "/static/audio/wordpool/STOVE.wav", "conditions": [24, 800, "a", 12000], "internal_node_id": "0.0-133.0", "trial": 5, "time_elapsed": 882415, "serialpos": 2, "key_press": -1, "wordID": 1387, "type": "PRES_AUD", "trial_index": 187}, "uniqueid": "MTK1568:3SNLUL3WO5UXTMMEWYZ7JM00N5ALUC", "dateTime": 1515982441061}, {"current_trial": 188, "trialdata": {"rt": -1000, "trial_type": "single-audio", "word": "grill", "stimulus": "/static/audio/wordpool/GRILL.wav", "conditions": [24, 800, "a", 12000], "internal_node_id": "0.0-134.0", "trial": 5, "time_elapsed": 884148, "serialpos": 3, "key_press": -1, "wordID": 660, "type": "PRES_AUD", "trial_index": 188}, "uniqueid": "MTK1568:3SNLUL3WO5UXTMMEWYZ7JM00N5ALUC", "dateTime": 1515982442793}, {"current_trial": 189, "trialdata": {"rt": -1000, "trial_type": "single-audio", "word": "taxi", "stimulus": "/static/audio/wordpool/TAXI.wav", "conditions": [24, 800, "a", 12000], "internal_node_id": "0.0-135.0", "trial": 5, "time_elapsed": 885918, "serialpos": 4, "key_press": -1, "wordID": 1437, "type": "PRES_AUD", "trial_index": 189}, "uniqueid": "MTK1568:3SNLUL3WO5UXTMMEWYZ7JM00N5ALUC", "dateTime": 1515982444565}, {"current_trial": 190, "trialdata": {"rt": -1000, "trial_type": "single-audio", "word": "stomach", "stimulus": "/static/audio/wordpool/STOMACH.wav", "conditions": [24, 800, "a", 12000], "internal_node_id": "0.0-136.0", "trial": 5, "time_elapsed": 887632, "serialpos": 5, "key_press": -1, "wordID": 1383, "type": "PRES_AUD", "trial_index": 190}, "uniqueid": "MTK1568:3SNLUL3WO5UXTMMEWYZ7JM00N5ALUC", "dateTime": 1515982446277}, {"current_trial": 191, "trialdata": {"rt": -1000, "trial_type": "single-audio", "word": "hawk", "stimulus": "/static/audio/wordpool/HAWK.wav", "conditions": [24, 800, "a", 12000], "internal_node_id": "0.0-137.0", "trial": 5, "time_elapsed": 889354, "serialpos": 6, "key_press": -1, "wordID": 691, "type": "PRES_AUD", "trial_index": 191}, "uniqueid": "MTK1568:3SNLUL3WO5UXTMMEWYZ7JM00N5ALUC", "dateTime": 1515982447999}, {"current_trial": 192, "trialdata": {"rt": -1000, "trial_type": "single-audio", "word": "muffin", "stimulus": "/static/audio/wordpool/MUFFIN.wav", "conditions": [24, 800, "a", 12000], "internal_node_id": "0.0-138.0", "trial": 5, "time_elapsed": 891158, "serialpos": 7, "key_press": -1, "wordID": 928, "type": "PRES_AUD", "trial_index": 192}, "uniqueid": "MTK1568:3SNLUL3WO5UXTMMEWYZ7JM00N5ALUC", "dateTime": 1515982449804}, {"current_trial": 193, "trialdata": {"rt": -1000, "trial_type": "single-audio", "word": "patient", "stimulus": "/static/audio/wordpool/PATIENT.wav", "conditions": [24, 800, "a", 12000], "internal_node_id": "0.0-139.0", "trial": 5, "time_elapsed": 892804, "serialpos": 8, "key_press": -1, "wordID": 1023, "type": "PRES_AUD", "trial_index": 193}, "uniqueid": "MTK1568:3SNLUL3WO5UXTMMEWYZ7JM00N5ALUC", "dateTime": 1515982451450}, {"current_trial": 194, "trialdata": {"rt": -1000, "trial_type": "single-audio", "word": "valve", "stimulus": "/static/audio/wordpool/VALVE.wav", "conditions": [24, 800, "a", 12000], "internal_node_id": "0.0-140.0", "trial": 5, "time_elapsed": 894547, "serialpos": 9, "key_press": -1, "wordID": 1545, "type": "PRES_AUD", "trial_index": 194}, "uniqueid": "MTK1568:3SNLUL3WO5UXTMMEWYZ7JM00N5ALUC", "dateTime": 1515982453192}, {"current_trial": 195, "trialdata": {"rt": -1000, "trial_type": "single-audio", "word": "panther", "stimulus": "/static/audio/wordpool/PANTHER.wav", "conditions": [24, 800, "a", 12000], "internal_node_id": "0.0-141.0", "trial": 5, "time_elapsed": 896458, "serialpos": 10, "key_press": -1, "wordID": 1008, "type": "PRES_AUD", "trial_index": 195}, "uniqueid": "MTK1568:3SNLUL3WO5UXTMMEWYZ7JM00N5ALUC", "dateTime": 1515982455103}, {"current_trial": 196, "trialdata": {"rt": -1000, "trial_type": "single-audio", "word": "scalpel", "stimulus": "/static/audio/wordpool/SCALPEL.wav", "conditions": [24, 800, "a", 12000], "internal_node_id": "0.0-142.0", "trial": 5, "time_elapsed": 898410, "serialpos": 11, "key_press": -1, "wordID": 1242, "type": "PRES_AUD", "trial_index": 196}, "uniqueid": "MTK1568:3SNLUL3WO5UXTMMEWYZ7JM00N5ALUC", "dateTime": 1515982457055}, {"current_trial": 197, "trialdata": {"rt": -1000, "trial_type": "single-audio", "word": "sunrise", "stimulus": "/static/audio/wordpool/SUNRISE.wav", "conditions": [24, 800, "a", 12000], "internal_node_id": "0.0-143.0", "trial": 5, "time_elapsed": 900058, "serialpos": 12, "key_press": -1, "wordID": 1406, "type": "PRES_AUD", "trial_index": 197}, "uniqueid": "MTK1568:3SNLUL3WO5UXTMMEWYZ7JM00N5ALUC", "dateTime": 1515982458704}, {"current_trial": 198, "trialdata": {"rt": -1000, "trial_type": "single-audio", "word": "casket", "stimulus": "/static/audio/wordpool/CASKET.wav", "conditions": [24, 800, "a", 12000], "internal_node_id": "0.0-144.0", "trial": 5, "time_elapsed": 902039, "serialpos": 13, "key_press": -1, "wordID": 254, "type": "PRES_AUD", "trial_index": 198}, "uniqueid": "MTK1568:3SNLUL3WO5UXTMMEWYZ7JM00N5ALUC", "dateTime": 1515982460685}, {"current_trial": 199, "trialdata": {"rt": -1000, "trial_type": "single-audio", "word": "bouquet", "stimulus": "/static/audio/wordpool/BOUQUET.wav", "conditions": [24, 800, "a", 12000], "internal_node_id": "0.0-145.0", "trial": 5, "time_elapsed": 903983, "serialpos": 14, "key_press": -1, "wordID": 156, "type": "PRES_AUD", "trial_index": 199}, "uniqueid": "MTK1568:3SNLUL3WO5UXTMMEWYZ7JM00N5ALUC", "dateTime": 1515982462628}, {"current_trial": 200, "trialdata": {"rt": -1000, "trial_type": "single-audio", "word": "wagon", "stimulus": "/static/audio/wordpool/WAGON.wav", "conditions": [24, 800, "a", 12000], "internal_node_id": "0.0-146.0", "trial": 5, "time_elapsed": 905679, "serialpos": 15, "key_press": -1, "wordID": 1577, "type": "PRES_AUD", "trial_index": 200}, "uniqueid": "MTK1568:3SNLUL3WO5UXTMMEWYZ7JM00N5ALUC", "dateTime": 1515982464324}, {"current_trial": 201, "trialdata": {"rt": -1000, "trial_type": "single-audio", "word": "tractor", "stimulus": "/static/audio/wordpool/TRACTOR.wav", "conditions": [24, 800, "a", 12000], "internal_node_id": "0.0-147.0", "trial": 5, "time_elapsed": 907591, "serialpos": 16, "key_press": -1, "wordID": 1492, "type": "PRES_AUD", "trial_index": 201}, "uniqueid": "MTK1568:3SNLUL3WO5UXTMMEWYZ7JM00N5ALUC", "dateTime": 1515982466236}, {"current_trial": 202, "trialdata": {"rt": -1000, "trial_type": "single-audio", "word": "slope", "stimulus": "/static/audio/wordpool/SLOPE.wav", "conditions": [24, 800, "a", 12000], "internal_node_id": "0.0-148.0", "trial": 5, "time_elapsed": 909344, "serialpos": 17, "key_press": -1, "wordID": 1327, "type": "PRES_AUD", "trial_index": 202}, "uniqueid": "MTK1568:3SNLUL3WO5UXTMMEWYZ7JM00N5ALUC", "dateTime": 1515982467989}, {"current_trial": 203, "trialdata": {"rt": -1000, "trial_type": "single-audio", "word": "sparrow", "stimulus": "/static/audio/wordpool/SPARROW.wav", "conditions": [24, 800, "a", 12000], "internal_node_id": "0.0-149.0", "trial": 5, "time_elapsed": 910993, "serialpos": 18, "key_press": -1, "wordID": 1346, "type": "PRES_AUD", "trial_index": 203}, "uniqueid": "MTK1568:3SNLUL3WO5UXTMMEWYZ7JM00N5ALUC", "dateTime": 1515982469638}, {"current_trial": 204, "trialdata": {"rt": -1000, "trial_type": "single-audio", "word": "boyfriend", "stimulus": "/static/audio/wordpool/BOYFRIEND.wav", "conditions": [24, 800, "a", 12000], "internal_node_id": "0.0-150.0", "trial": 5, "time_elapsed": 912599, "serialpos": 19, "key_press": -1, "wordID": 161, "type": "PRES_AUD", "trial_index": 204}, "uniqueid": "MTK1568:3SNLUL3WO5UXTMMEWYZ7JM00N5ALUC", "dateTime": 1515982471244}, {"current_trial": 205, "trialdata": {"rt": -1000, "trial_type": "single-audio", "word": "coffee", "stimulus": "/static/audio/wordpool/COFFEE.wav", "conditions": [24, 800, "a", 12000], "internal_node_id": "0.0-151.0", "trial": 5, "time_elapsed": 914543, "serialpos": 20, "key_press": -1, "wordID": 340, "type": "PRES_AUD", "trial_index": 205}, "uniqueid": "MTK1568:3SNLUL3WO5UXTMMEWYZ7JM00N5ALUC", "dateTime": 1515982473188}, {"current_trial": 206, "trialdata": {"rt": -1000, "trial_type": "single-audio", "word": "army", "stimulus": "/static/audio/wordpool/ARMY.wav", "conditions": [24, 800, "a", 12000], "internal_node_id": "0.0-152.0", "trial": 5, "time_elapsed": 916415, "serialpos": 21, "key_press": -1, "wordID": 38, "type": "PRES_AUD", "trial_index": 206}, "uniqueid": "MTK1568:3SNLUL3WO5UXTMMEWYZ7JM00N5ALUC", "dateTime": 1515982475061}, {"current_trial": 207, "trialdata": {"rt": -1000, "trial_type": "single-audio", "word": "award", "stimulus": "/static/audio/wordpool/AWARD.wav", "conditions": [24, 800, "a", 12000], "internal_node_id": "0.0-153.0", "trial": 5, "time_elapsed": 918127, "serialpos": 22, "key_press": -1, "wordID": 62, "type": "PRES_AUD", "trial_index": 207}, "uniqueid": "MTK1568:3SNLUL3WO5UXTMMEWYZ7JM00N5ALUC", "dateTime": 1515982476772}, {"current_trial": 208, "trialdata": {"rt": -1000, "trial_type": "single-audio", "word": "robin", "stimulus": "/static/audio/wordpool/ROBIN.wav", "conditions": [24, 800, "a", 12000], "internal_node_id": "0.0-154.0", "trial": 5, "time_elapsed": 919899, "serialpos": 23, "key_press": -1, "wordID": 1198, "type": "PRES_AUD", "trial_index": 208}, "uniqueid": "MTK1568:3SNLUL3WO5UXTMMEWYZ7JM00N5ALUC", "dateTime": 1515982478544}, {"current_trial": 209, "trialdata": {"rt": -1, "trial_type": "single-stim", "stimulus": "", "internal_node_id": "0.0-155.0-0.0", "time_elapsed": 921182, "key_press": -1, "type": "PRE_RECALL_DELAY", "trial_index": 209}, "uniqueid": "MTK1568:3SNLUL3WO5UXTMMEWYZ7JM00N5ALUC", "dateTime": 1515982479828}, {"current_trial": 210, "trialdata": {"rt": -1000, "trial_type": "single-audio", "stimulus": "/static/audio/400Hz.wav", "internal_node_id": "0.0-156.0", "time_elapsed": 921685, "key_press": -1, "type": "PRE_RECALL_ALERT", "trial_index": 210}, "uniqueid": "MTK1568:3SNLUL3WO5UXTMMEWYZ7JM00N5ALUC", "dateTime": 1515982480330}, {"current_trial": 211, "trialdata": {"rt": [5803, 7733, 11211, 18594, 21733, 23601, 28503, 40072], "recwords": ["robin", "army", "wagon", "boyfriend", "stove", "taxi", "sunrise", "tractor"], "key_times": [4694, 4961, 5226, 5378, 5542, 5803, 6382, 6635, 6860, 7140, 7733, 9557, 9676, 10631, 10772, 10965, 11211, 12717, 12851, 14197, 14370, 14975, 15162, 15378, 15601, 15837, 16075, 16697, 16862, 17327, 17786, 17953, 18140, 18307, 18594, 20490, 20815, 20955, 21164, 21383, 21733, 22333, 22516, 22861, 23097, 23601, 26684, 26882, 27126, 27392, 27546, 27687, 27890, 28503, 35273, 35531, 35644, 35919, 36503, 36661, 37051, 40072], "trial_type": "free-recall", "conditions": [24, 800, "a", 12000], "internal_node_id": "0.0-157.0-0.0", "key_presses": [82, 79, 66, 73, 78, 13, 65, 82, 77, 89, 13, 87, 65, 71, 79, 78, 13, 83, 76, 8, 8, 66, 79, 89, 70, 73, 69, 8, 8, 82, 73, 69, 78, 68, 13, 83, 84, 79, 86, 69, 13, 84, 65, 88, 73, 13, 83, 85, 78, 82, 73, 83, 69, 13, 84, 82, 65, 67, 84, 79, 82, 13], "trial": 5, "time_elapsed": 981694, "type": "FREE_RECALL", "trial_index": 211}, "uniqueid": "MTK1568:3SNLUL3WO5UXTMMEWYZ7JM00N5ALUC", "dateTime": 1515982540361}, {"current_trial": 212, "trialdata": {"rt": 16622, "trial_type": "text", "internal_node_id": "0.0-158.0", "time_elapsed": 1000344, "key_press": 32, "type": "INSTRUCTIONS", "trial_index": 212}, "uniqueid": "MTK1568:3SNLUL3WO5UXTMMEWYZ7JM00N5ALUC", "dateTime": 1515982558989}, {"current_trial": 213, "trialdata": {"rt": [2285, 4415, 8592, 10780, 13213, 15325, 17639, 20626], "trial_type": "math-distractor", "key_times": [1289, 1774, 2285, 3560, 3943, 4415, 7824, 8104, 8592, 9849, 10081, 10780, 12479, 12726, 13213, 14556, 14803, 15325, 16776, 17210, 17639, 19871, 20049, 20626, 23143, 23518], "responses": ["15", "14", "17", "24", "13", "16", "18", "11"], "num2": [5, 2, 9, 8, 6, 8, 3, 2, 2], "num3": [2, 8, 7, 8, 3, 2, 3, 7, 7], "conditions": [12, 1600, "a", 24000], "internal_node_id": "0.0-159.0", "key_presses": [49, 53, 13, 49, 52, 13, 49, 55, 13, 50, 52, 13, 49, 51, 13, 49, 54, 13, 49, 56, 13, 49, 49, 13, 49, 56], "trial": 6, "time_elapsed": 1026358, "type": "DISTRACTOR", "trial_index": 213, "num1": [8, 4, 1, 8, 4, 6, 9, 2, 9]}, "uniqueid": "MTK1568:3SNLUL3WO5UXTMMEWYZ7JM00N5ALUC", "dateTime": 1515982585004}, {"current_trial": 214, "trialdata": {"rt": -1, "trial_type": "single-stim", "stimulus": "<p id=\"stim\">10</p>", "internal_node_id": "0.0-160.0-0.0", "time_elapsed": 1029363, "key_press": -1, "trial_index": 214}, "uniqueid": "MTK1568:3SNLUL3WO5UXTMMEWYZ7JM00N5ALUC", "dateTime": 1515982588008}, {"current_trial": 215, "trialdata": {"rt": -1, "trial_type": "single-stim", "stimulus": "<p id=\"stim\">9</p>", "internal_node_id": "0.0-160.0-1.0", "time_elapsed": 1030367, "key_press": -1, "trial_index": 215}, "uniqueid": "MTK1568:3SNLUL3WO5UXTMMEWYZ7JM00N5ALUC", "dateTime": 1515982589012}, {"current_trial": 216, "trialdata": {"rt": -1, "trial_type": "single-stim", "stimulus": "<p id=\"stim\">8</p>", "internal_node_id": "0.0-160.0-2.0", "time_elapsed": 1031371, "key_press": -1, "trial_index": 216}, "uniqueid": "MTK1568:3SNLUL3WO5UXTMMEWYZ7JM00N5ALUC", "dateTime": 1515982590017}, {"current_trial": 217, "trialdata": {"rt": -1, "trial_type": "single-stim", "stimulus": "<p id=\"stim\">7</p>", "internal_node_id": "0.0-160.0-3.0", "time_elapsed": 1032376, "key_press": -1, "trial_index": 217}, "uniqueid": "MTK1568:3SNLUL3WO5UXTMMEWYZ7JM00N5ALUC", "dateTime": 1515982591025}, {"current_trial": 218, "trialdata": {"rt": -1, "trial_type": "single-stim", "stimulus": "<p id=\"stim\">6</p>", "internal_node_id": "0.0-160.0-4.0", "time_elapsed": 1033385, "key_press": -1, "trial_index": 218}, "uniqueid": "MTK1568:3SNLUL3WO5UXTMMEWYZ7JM00N5ALUC", "dateTime": 1515982592030}, {"current_trial": 219, "trialdata": {"rt": -1, "trial_type": "single-stim", "stimulus": "<p id=\"stim\">5</p>", "internal_node_id": "0.0-160.0-5.0", "time_elapsed": 1034389, "key_press": -1, "trial_index": 219}, "uniqueid": "MTK1568:3SNLUL3WO5UXTMMEWYZ7JM00N5ALUC", "dateTime": 1515982593035}, {"current_trial": 220, "trialdata": {"rt": -1, "trial_type": "single-stim", "stimulus": "<p id=\"stim\">4</p>", "internal_node_id": "0.0-160.0-6.0", "time_elapsed": 1035395, "key_press": -1, "trial_index": 220}, "uniqueid": "MTK1568:3SNLUL3WO5UXTMMEWYZ7JM00N5ALUC", "dateTime": 1515982594040}, {"current_trial": 221, "trialdata": {"rt": -1, "trial_type": "single-stim", "stimulus": "<p id=\"stim\">3</p>", "internal_node_id": "0.0-160.0-7.0", "time_elapsed": 1036400, "key_press": -1, "trial_index": 221}, "uniqueid": "MTK1568:3SNLUL3WO5UXTMMEWYZ7JM00N5ALUC", "dateTime": 1515982595046}, {"current_trial": 222, "trialdata": {"rt": -1, "trial_type": "single-stim", "stimulus": "<p id=\"stim\">2</p>", "internal_node_id": "0.0-160.0-8.0", "time_elapsed": 1037406, "key_press": -1, "trial_index": 222}, "uniqueid": "MTK1568:3SNLUL3WO5UXTMMEWYZ7JM00N5ALUC", "dateTime": 1515982596052}, {"current_trial": 223, "trialdata": {"rt": -1, "trial_type": "single-stim", "stimulus": "<p id=\"stim\">1</p>", "internal_node_id": "0.0-160.0-9.0", "time_elapsed": 1038410, "key_press": -1, "trial_index": 223}, "uniqueid": "MTK1568:3SNLUL3WO5UXTMMEWYZ7JM00N5ALUC", "dateTime": 1515982597055}, {"current_trial": 224, "trialdata": {"rt": -1, "trial_type": "single-stim", "stimulus": "<p id=\"stim\">+</p>", "internal_node_id": "0.0-161.0-0.0", "time_elapsed": 1039914, "key_press": -1, "type": "FIXATION", "trial_index": 224}, "uniqueid": "MTK1568:3SNLUL3WO5UXTMMEWYZ7JM00N5ALUC", "dateTime": 1515982598560}, {"current_trial": 225, "trialdata": {"rt": -1000, "trial_type": "single-audio", "word": "butcher", "stimulus": "/static/audio/wordpool/BUTCHER.wav", "conditions": [12, 1600, "a", 24000], "internal_node_id": "0.0-162.0", "trial": 6, "time_elapsed": 1042523, "serialpos": 0, "key_press": -1, "wordID": 202, "type": "PRES_AUD", "trial_index": 225}, "uniqueid": "MTK1568:3SNLUL3WO5UXTMMEWYZ7JM00N5ALUC", "dateTime": 1515982601168}, {"current_trial": 226, "trialdata": {"rt": -1000, "trial_type": "single-audio", "word": "fiddle", "stimulus": "/static/audio/wordpool/FIDDLE.wav", "conditions": [12, 1600, "a", 24000], "internal_node_id": "0.0-163.0", "trial": 6, "time_elapsed": 1045125, "serialpos": 1, "key_press": -1, "wordID": 560, "type": "PRES_AUD", "trial_index": 226}, "uniqueid": "MTK1568:3SNLUL3WO5UXTMMEWYZ7JM00N5ALUC", "dateTime": 1515982603771}, {"current_trial": 227, "trialdata": {"rt": -1000, "trial_type": "single-audio", "word": "gangster", "stimulus": "/static/audio/wordpool/GANGSTER.wav", "conditions": [12, 1600, "a", 24000], "internal_node_id": "0.0-164.0", "trial": 6, "time_elapsed": 1047812, "serialpos": 2, "key_press": -1, "wordID": 619, "type": "PRES_AUD", "trial_index": 227}, "uniqueid": "MTK1568:3SNLUL3WO5UXTMMEWYZ7JM00N5ALUC", "dateTime": 1515982606457}, {"current_trial": 228, "trialdata": {"rt": -1000, "trial_type": "single-audio", "word": "goblin", "stimulus": "/static/audio/wordpool/GOBLIN.wav", "conditions": [12, 1600, "a", 24000], "internal_node_id": "0.0-165.0", "trial": 6, "time_elapsed": 1050349, "serialpos": 3, "key_press": -1, "wordID": 644, "type": "PRES_AUD", "trial_index": 228}, "uniqueid": "MTK1568:3SNLUL3WO5UXTMMEWYZ7JM00N5ALUC", "dateTime": 1515982608995}, {"current_trial": 229, "trialdata": {"rt": -1000, "trial_type": "single-audio", "word": "dresser", "stimulus": "/static/audio/wordpool/DRESSER.wav", "conditions": [12, 1600, "a", 24000], "internal_node_id": "0.0-166.0", "trial": 6, "time_elapsed": 1052802, "serialpos": 4, "key_press": -1, "wordID": 495, "type": "PRES_AUD", "trial_index": 229}, "uniqueid": "MTK1568:3SNLUL3WO5UXTMMEWYZ7JM00N5ALUC", "dateTime": 1515982611447}, {"current_trial": 230, "trialdata": {"rt": -1000, "trial_type": "single-audio", "word": "husband", "stimulus": "/static/audio/wordpool/HUSBAND.wav", "conditions": [12, 1600, "a", 24000], "internal_node_id": "0.0-167.0", "trial": 6, "time_elapsed": 1055604, "serialpos": 5, "key_press": -1, "wordID": 727, "type": "PRES_AUD", "trial_index": 230}, "uniqueid": "MTK1568:3SNLUL3WO5UXTMMEWYZ7JM00N5ALUC", "dateTime": 1515982614249}, {"current_trial": 231, "trialdata": {"rt": -1000, "trial_type": "single-audio", "word": "parent", "stimulus": "/static/audio/wordpool/PARENT.wav", "conditions": [12, 1600, "a", 24000], "internal_node_id": "0.0-168.0", "trial": 6, "time_elapsed": 1058221, "serialpos": 6, "key_press": -1, "wordID": 1012, "type": "PRES_AUD", "trial_index": 231}, "uniqueid": "MTK1568:3SNLUL3WO5UXTMMEWYZ7JM00N5ALUC", "dateTime": 1515982616867}, {"current_trial": 232, "trialdata": {"rt": -1000, "trial_type": "single-audio", "word": "racket", "stimulus": "/static/audio/wordpool/RACKET.wav", "conditions": [12, 1600, "a", 24000], "internal_node_id": "0.0-169.0", "trial": 6, "time_elapsed": 1060933, "serialpos": 7, "key_press": -1, "wordID": 1154, "type": "PRES_AUD", "trial_index": 232}, "uniqueid": "MTK1568:3SNLUL3WO5UXTMMEWYZ7JM00N5ALUC", "dateTime": 1515982619579}, {"current_trial": 233, "trialdata": {"rt": -1000, "trial_type": "single-audio", "word": "fruit", "stimulus": "/static/audio/wordpool/FRUIT.wav", "conditions": [12, 1600, "a", 24000], "internal_node_id": "0.0-170.0", "trial": 6, "time_elapsed": 1063572, "serialpos": 8, "key_press": -1, "wordID": 609, "type": "PRES_AUD", "trial_index": 233}, "uniqueid": "MTK1568:3SNLUL3WO5UXTMMEWYZ7JM00N5ALUC", "dateTime": 1515982622218}, {"current_trial": 234, "trialdata": {"rt": -1000, "trial_type": "single-audio", "word": "grape", "stimulus": "/static/audio/wordpool/GRAPE.wav", "conditions": [12, 1600, "a", 24000], "internal_node_id": "0.0-171.0", "trial": 6, "time_elapsed": 1066319, "serialpos": 9, "key_press": -1, "wordID": 653, "type": "PRES_AUD", "trial_index": 234}, "uniqueid": "MTK1568:3SNLUL3WO5UXTMMEWYZ7JM00N5ALUC", "dateTime": 1515982624964}, {"current_trial": 235, "trialdata": {"rt": -1000, "trial_type": "single-audio", "word": "nurse", "stimulus": "/static/audio/wordpool/NURSE.wav", "conditions": [12, 1600, "a", 24000], "internal_node_id": "0.0-172.0", "trial": 6, "time_elapsed": 1068893, "serialpos": 10, "key_press": -1, "wordID": 962, "type": "PRES_AUD", "trial_index": 235}, "uniqueid": "MTK1568:3SNLUL3WO5UXTMMEWYZ7JM00N5ALUC", "dateTime": 1515982627538}, {"current_trial": 236, "trialdata": {"rt": -1000, "trial_type": "single-audio", "word": "dragon", "stimulus": "/static/audio/wordpool/DRAGON.wav", "conditions": [12, 1600, "a", 24000], "internal_node_id": "0.0-173.0", "trial": 6, "time_elapsed": 1071316, "serialpos": 11, "key_press": -1, "wordID": 491, "type": "PRES_AUD", "trial_index": 236}, "uniqueid": "MTK1568:3SNLUL3WO5UXTMMEWYZ7JM00N5ALUC", "dateTime": 1515982629961}, {"current_trial": 237, "trialdata": {"rt": -1, "trial_type": "single-stim", "stimulus": "", "internal_node_id": "0.0-174.0-0.0", "time_elapsed": 1072646, "key_press": -1, "type": "PRE_RECALL_DELAY", "trial_index": 237}, "uniqueid": "MTK1568:3SNLUL3WO5UXTMMEWYZ7JM00N5ALUC", "dateTime": 1515982631291}, {"current_trial": 238, "trialdata": {"rt": -1000, "trial_type": "single-audio", "stimulus": "/static/audio/400Hz.wav", "internal_node_id": "0.0-175.0", "time_elapsed": 1073149, "key_press": -1, "type": "PRE_RECALL_ALERT", "trial_index": 238}, "uniqueid": "MTK1568:3SNLUL3WO5UXTMMEWYZ7JM00N5ALUC", "dateTime": 1515982631795}, {"current_trial": 239, "trialdata": {"rt": [4131, 6261, 9470, 14899, 18283, 22242, 39570], "recwords": ["dragon", "nurse", "fruit", "parent", "gangster", "grape", "husband"], "key_times": [2312, 3018, 3210, 3537, 3677, 3860, 4131, 4940, 5230, 5522, 5724, 5947, 6261, 7685, 8079, 8538, 8973, 9112, 9470, 13724, 13850, 14095, 14305, 14461, 14617, 14899, 16464, 16611, 16870, 17168, 17424, 17660, 17863, 17933, 18283, 20757, 20998, 21138, 21365, 21525, 22242, 35941, 36173, 36345, 36830, 37030, 37413, 38235, 38657, 38778, 39570], "trial_type": "free-recall", "conditions": [12, 1600, "a", 24000], "internal_node_id": "0.0-176.0-0.0", "key_presses": [68, 82, 65, 71, 79, 78, 13, 78, 85, 82, 83, 69, 13, 70, 82, 85, 73, 84, 13, 80, 65, 82, 69, 78, 84, 13, 71, 65, 78, 71, 83, 84, 69, 82, 13, 71, 82, 65, 80, 69, 13, 72, 85, 83, 66, 65, 68, 8, 78, 68, 13], "trial": 6, "time_elapsed": 1133161, "type": "FREE_RECALL", "trial_index": 239}, "uniqueid": "MTK1568:3SNLUL3WO5UXTMMEWYZ7JM00N5ALUC", "dateTime": 1515982691831}, {"current_trial": 240, "trialdata": {"rt": 4658, "trial_type": "text", "internal_node_id": "0.0-177.0", "time_elapsed": 1139849, "key_press": 32, "type": "INSTRUCTIONS", "trial_index": 240}, "uniqueid": "MTK1568:3SNLUL3WO5UXTMMEWYZ7JM00N5ALUC", "dateTime": 1515982698494}, {"current_trial": 241, "trialdata": {"rt": [2329, 6802, 9033, 12720, 15021, 17932, 22635], "trial_type": "math-distractor", "key_times": [1463, 1916, 2329, 6050, 6328, 6802, 8281, 8682, 9033, 12131, 12288, 12720, 14198, 14584, 15021, 16753, 17307, 17932, 20627, 20951, 21735, 22292, 22635, 23919], "responses": ["10", "26", "10", "22", "16", "13", "16"], "num2": [3, 8, 7, 8, 8, 4, 5, 3], "num3": [1, 8, 1, 6, 2, 1, 8, 7], "conditions": [24, 1600, "a", 24000], "internal_node_id": "0.0-178.0", "key_presses": [49, 48, 13, 50, 54, 13, 49, 48, 13, 50, 50, 13, 49, 54, 13, 49, 51, 13, 49, 53, 8, 54, 13, 49], "trial": 7, "time_elapsed": 1165860, "type": "DISTRACTOR", "trial_index": 241, "num1": [7, 9, 2, 8, 6, 8, 3, 9]}, "uniqueid": "MTK1568:3SNLUL3WO5UXTMMEWYZ7JM00N5ALUC", "dateTime": 1515982724505}, {"current_trial": 242, "trialdata": {"rt": -1, "trial_type": "single-stim", "stimulus": "<p id=\"stim\">10</p>", "internal_node_id": "0.0-179.0-0.0", "time_elapsed": 1168865, "key_press": -1, "trial_index": 242}, "uniqueid": "MTK1568:3SNLUL3WO5UXTMMEWYZ7JM00N5ALUC", "dateTime": 1515982727510}, {"current_trial": 243, "trialdata": {"rt": -1, "trial_type": "single-stim", "stimulus": "<p id=\"stim\">9</p>", "internal_node_id": "0.0-179.0-1.0", "time_elapsed": 1169869, "key_press": -1, "trial_index": 243}, "uniqueid": "MTK1568:3SNLUL3WO5UXTMMEWYZ7JM00N5ALUC", "dateTime": 1515982728515}, {"current_trial": 244, "trialdata": {"rt": -1, "trial_type": "single-stim", "stimulus": "<p id=\"stim\">8</p>", "internal_node_id": "0.0-179.0-2.0", "time_elapsed": 1170874, "key_press": -1, "trial_index": 244}, "uniqueid": "MTK1568:3SNLUL3WO5UXTMMEWYZ7JM00N5ALUC", "dateTime": 1515982729520}, {"current_trial": 245, "trialdata": {"rt": -1, "trial_type": "single-stim", "stimulus": "<p id=\"stim\">7</p>", "internal_node_id": "0.0-179.0-3.0", "time_elapsed": 1171879, "key_press": -1, "trial_index": 245}, "uniqueid": "MTK1568:3SNLUL3WO5UXTMMEWYZ7JM00N5ALUC", "dateTime": 1515982730525}, {"current_trial": 246, "trialdata": {"rt": -1, "trial_type": "single-stim", "stimulus": "<p id=\"stim\">6</p>", "internal_node_id": "0.0-179.0-4.0", "time_elapsed": 1172884, "key_press": -1, "trial_index": 246}, "uniqueid": "MTK1568:3SNLUL3WO5UXTMMEWYZ7JM00N5ALUC", "dateTime": 1515982731529}, {"current_trial": 247, "trialdata": {"rt": -1, "trial_type": "single-stim", "stimulus": "<p id=\"stim\">5</p>", "internal_node_id": "0.0-179.0-5.0", "time_elapsed": 1173889, "key_press": -1, "trial_index": 247}, "uniqueid": "MTK1568:3SNLUL3WO5UXTMMEWYZ7JM00N5ALUC", "dateTime": 1515982732534}, {"current_trial": 248, "trialdata": {"rt": -1, "trial_type": "single-stim", "stimulus": "<p id=\"stim\">4</p>", "internal_node_id": "0.0-179.0-6.0", "time_elapsed": 1174893, "key_press": -1, "trial_index": 248}, "uniqueid": "MTK1568:3SNLUL3WO5UXTMMEWYZ7JM00N5ALUC", "dateTime": 1515982733539}, {"current_trial": 249, "trialdata": {"rt": -1, "trial_type": "single-stim", "stimulus": "<p id=\"stim\">3</p>", "internal_node_id": "0.0-179.0-7.0", "time_elapsed": 1175896, "key_press": -1, "trial_index": 249}, "uniqueid": "MTK1568:3SNLUL3WO5UXTMMEWYZ7JM00N5ALUC", "dateTime": 1515982734542}, {"current_trial": 250, "trialdata": {"rt": -1, "trial_type": "single-stim", "stimulus": "<p id=\"stim\">2</p>", "internal_node_id": "0.0-179.0-8.0", "time_elapsed": 1176900, "key_press": -1, "trial_index": 250}, "uniqueid": "MTK1568:3SNLUL3WO5UXTMMEWYZ7JM00N5ALUC", "dateTime": 1515982735546}, {"current_trial": 251, "trialdata": {"rt": -1, "trial_type": "single-stim", "stimulus": "<p id=\"stim\">1</p>", "internal_node_id": "0.0-179.0-9.0", "time_elapsed": 1177905, "key_press": -1, "trial_index": 251}, "uniqueid": "MTK1568:3SNLUL3WO5UXTMMEWYZ7JM00N5ALUC", "dateTime": 1515982736551}, {"current_trial": 252, "trialdata": {"rt": -1, "trial_type": "single-stim", "stimulus": "<p id=\"stim\">+</p>", "internal_node_id": "0.0-180.0-0.0", "time_elapsed": 1179411, "key_press": -1, "type": "FIXATION", "trial_index": 252}, "uniqueid": "MTK1568:3SNLUL3WO5UXTMMEWYZ7JM00N5ALUC", "dateTime": 1515982738056}, {"current_trial": 253, "trialdata": {"rt": -1000, "trial_type": "single-audio", "word": "dorm", "stimulus": "/static/audio/wordpool/DORM.wav", "conditions": [24, 1600, "a", 24000], "internal_node_id": "0.0-181.0", "trial": 7, "time_elapsed": 1181949, "serialpos": 0, "key_press": -1, "wordID": 487, "type": "PRES_AUD", "trial_index": 253}, "uniqueid": "MTK1568:3SNLUL3WO5UXTMMEWYZ7JM00N5ALUC", "dateTime": 1515982740594}, {"current_trial": 254, "trialdata": {"rt": -1000, "trial_type": "single-audio", "word": "finger", "stimulus": "/static/audio/wordpool/FINGER.wav", "conditions": [24, 1600, "a", 24000], "internal_node_id": "0.0-182.0", "trial": 7, "time_elapsed": 1184361, "serialpos": 1, "key_press": -1, "wordID": 566, "