{"assignmentId": "3WZ36BJEV4N6G0LD5GK30NITSW0TBF", "workerId": "MTK1478", "questiondata": {"origin": "Taiwan, Province of China", "strat-rehearsal": "70", "marital": "Single", "education": "Associate degree", "ethnicity": "Not Hispanic", "color_depth": 24, "distracted": "No", "wrote-notes": "No", "strat-other": "", "screen_width": 1366, "avail_screen_width": 1366, "avail_screen_height": 743, "strat-image": "73", "language": "Mandarin", "gender": "Male", "age": "53", "gender_other": "", "race": ["Asian"], "strat-categorize": "82", "pixel_depth": 24, "strat-spatial": "62", "strat-story": "67", "race_other": "", "screen_height": 768}, "bonus": 0, "hitId": "3QTFNPMJC6P2G1LFOW9SOMNKDCENZQ", "counterbalance": 2451, "useragent": "Mozilla/5.0 (X11; Linux i686) AppleWebKit/537.36 (KHTML, like Gecko) Ubuntu Chromium/63.0.3239.84 Chrome/63.0.3239.84 Safari/537.36", "eventdata": [{"eventtype": "initialized", "interval": 0, "value": null, "timestamp": 1515948376150}, {"eventtype": "window_resize", "interval": 1, "value": [1364, 690], "timestamp": 1515948376151}], "data": [{"current_trial": 0, "trialdata": {"rt": 1901, "trial_type": "text", "internal_node_id": "0.0-0.0", "time_elapsed": 1910, "key_press": 32, "type": "INSTRUCTIONS", "trial_index": 0}, "uniqueid": "MTK1478:3WZ36BJEV4N6G0LD5GK30NITSW0TBF", "dateTime": 1515948379232}, {"current_trial": 1, "trialdata": {"rt": 54936, "trial_type": "text", "internal_node_id": "0.0-1.0", "time_elapsed": 56850, "key_press": 32, "type": "INSTRUCTIONS", "trial_index": 1}, "uniqueid": "MTK1478:3WZ36BJEV4N6G0LD5GK30NITSW0TBF", "dateTime": 1515948434171}, {"current_trial": 2, "trialdata": {"rt": [20830], "trial_type": "audio-test", "responses": ["ocean"], "internal_node_id": "0.0-2.0", "time_elapsed": 77720, "type": "AUDIO_TEST", "trial_index": 2}, "uniqueid": "MTK1478:3WZ36BJEV4N6G0LD5GK30NITSW0TBF", "dateTime": 1515948455041}, {"current_trial": 3, "trialdata": {"rt": [10075], "trial_type": "audio-test", "responses": ["crystal"], "internal_node_id": "0.0-3.0", "time_elapsed": 87813, "type": "AUDIO_TEST", "trial_index": 3}, "uniqueid": "MTK1478:3WZ36BJEV4N6G0LD5GK30NITSW0TBF", "dateTime": 1515948465133}, {"current_trial": 4, "trialdata": {"rt": [8915], "trial_type": "audio-test", "responses": ["spice"], "internal_node_id": "0.0-4.0", "time_elapsed": 96738, "type": "AUDIO_TEST", "trial_index": 4}, "uniqueid": "MTK1478:3WZ36BJEV4N6G0LD5GK30NITSW0TBF", "dateTime": 1515948474058}, {"current_trial": 5, "trialdata": {"rt": 52155, "trial_type": "survey-text", "responses": "{\"Q0\":\"1 am\",\"Q1\":\"7:30 am\",\"Q2\":\"4\"}", "internal_node_id": "0.0-5.0", "time_elapsed": 149654, "type": "SLEEP_SURVEY", "trial_index": 5}, "uniqueid": "MTK1478:3WZ36BJEV4N6G0LD5GK30NITSW0TBF", "dateTime": 1515948526974}, {"current_trial": 6, "trialdata": {"rt": 99751, "trial_type": "text", "internal_node_id": "0.0-6.0", "time_elapsed": 250408, "key_press": 32, "type": "INSTRUCTIONS", "trial_index": 6}, "uniqueid": "MTK1478:3WZ36BJEV4N6G0LD5GK30NITSW0TBF", "dateTime": 1515948627728}, {"current_trial": 7, "trialdata": {"rt": 20893, "trial_type": "text", "internal_node_id": "0.0-7.0", "time_elapsed": 271803, "key_press": 32, "type": "INSTRUCTIONS", "trial_index": 7}, "uniqueid": "MTK1478:3WZ36BJEV4N6G0LD5GK30NITSW0TBF", "dateTime": 1515948649124}, {"current_trial": 8, "trialdata": {"rt": 9303, "trial_type": "text", "internal_node_id": "0.0-8.0", "time_elapsed": 281612, "key_press": 32, "type": "INSTRUCTIONS", "trial_index": 8}, "uniqueid": "MTK1478:3WZ36BJEV4N6G0LD5GK30NITSW0TBF", "dateTime": 1515948658932}, {"current_trial": 9, "trialdata": {"rt": [5746, 11319, 14572], "trial_type": "math-distractor", "key_times": [2999, 3257, 5746, 9269, 9635, 11319, 13590, 13819, 14572], "responses": ["12", "18", "10"], "num2": [1, 9, 4, 6], "num3": [8, 7, 3, 1], "conditions": [18, 1200, "v", 18000], "internal_node_id": "0.0-9.0", "key_presses": [49, 50, 13, 49, 56, 13, 49, 48, 13], "trial": 0, "time_elapsed": 300641, "type": "DISTRACTOR", "trial_index": 9, "num1": [3, 2, 3, 5]}, "uniqueid": "MTK1478:3WZ36BJEV4N6G0LD5GK30NITSW0TBF", "dateTime": 1515948677961}, {"current_trial": 10, "trialdata": {"rt": -1, "trial_type": "single-stim", "stimulus": "<p id=\"stim\">10</p>", "internal_node_id": "0.0-10.0-0.0", "time_elapsed": 303650, "key_press": -1, "trial_index": 10}, "uniqueid": "MTK1478:3WZ36BJEV4N6G0LD5GK30NITSW0TBF", "dateTime": 1515948680970}, {"current_trial": 11, "trialdata": {"rt": -1, "trial_type": "single-stim", "stimulus": "<p id=\"stim\">9</p>", "internal_node_id": "0.0-10.0-1.0", "time_elapsed": 304654, "key_press": -1, "trial_index": 11}, "uniqueid": "MTK1478:3WZ36BJEV4N6G0LD5GK30NITSW0TBF", "dateTime": 1515948681975}, {"current_trial": 12, "trialdata": {"rt": -1, "trial_type": "single-stim", "stimulus": "<p id=\"stim\">8</p>", "internal_node_id": "0.0-10.0-2.0", "time_elapsed": 305659, "key_press": -1, "trial_index": 12}, "uniqueid": "MTK1478:3WZ36BJEV4N6G0LD5GK30NITSW0TBF", "dateTime": 1515948682979}, {"current_trial": 13, "trialdata": {"rt": -1, "trial_type": "single-stim", "stimulus": "<p id=\"stim\">7</p>", "internal_node_id": "0.0-10.0-3.0", "time_elapsed": 306663, "key_press": -1, "trial_index": 13}, "uniqueid": "MTK1478:3WZ36BJEV4N6G0LD5GK30NITSW0TBF", "dateTime": 1515948683983}, {"current_trial": 14, "trialdata": {"rt": -1, "trial_type": "single-stim", "stimulus": "<p id=\"stim\">6</p>", "internal_node_id": "0.0-10.0-4.0", "time_elapsed": 307667, "key_press": -1, "trial_index": 14}, "uniqueid": "MTK1478:3WZ36BJEV4N6G0LD5GK30NITSW0TBF", "dateTime": 1515948684988}, {"current_trial": 15, "trialdata": {"rt": -1, "trial_type": "single-stim", "stimulus": "<p id=\"stim\">5</p>", "internal_node_id": "0.0-10.0-5.0", "time_elapsed": 308672, "key_press": -1, "trial_index": 15}, "uniqueid": "MTK1478:3WZ36BJEV4N6G0LD5GK30NITSW0TBF", "dateTime": 1515948685992}, {"current_trial": 16, "trialdata": {"rt": -1, "trial_type": "single-stim", "stimulus": "<p id=\"stim\">4</p>", "internal_node_id": "0.0-10.0-6.0", "time_elapsed": 309674, "key_press": -1, "trial_index": 16}, "uniqueid": "MTK1478:3WZ36BJEV4N6G0LD5GK30NITSW0TBF", "dateTime": 1515948686994}, {"current_trial": 17, "trialdata": {"rt": -1, "trial_type": "single-stim", "stimulus": "<p id=\"stim\">3</p>", "internal_node_id": "0.0-10.0-7.0", "time_elapsed": 310681, "key_press": -1, "trial_index": 17}, "uniqueid": "MTK1478:3WZ36BJEV4N6G0LD5GK30NITSW0TBF", "dateTime": 1515948688001}, {"current_trial": 18, "trialdata": {"rt": -1, "trial_type": "single-stim", "stimulus": "<p id=\"stim\">2</p>", "internal_node_id": "0.0-10.0-8.0", "time_elapsed": 311683, "key_press": -1, "trial_index": 18}, "uniqueid": "MTK1478:3WZ36BJEV4N6G0LD5GK30NITSW0TBF", "dateTime": 1515948689003}, {"current_trial": 19, "trialdata": {"rt": -1, "trial_type": "single-stim", "stimulus": "<p id=\"stim\">1</p>", "internal_node_id": "0.0-10.0-9.0", "time_elapsed": 312686, "key_press": -1, "trial_index": 19}, "uniqueid": "MTK1478:3WZ36BJEV4N6G0LD5GK30NITSW0TBF", "dateTime": 1515948690006}, {"current_trial": 20, "trialdata": {"rt": -1, "trial_type": "single-stim", "stimulus": "<p id=\"stim\">+</p>", "internal_node_id": "0.0-11.0-0.0", "time_elapsed": 314190, "key_press": -1, "type": "FIXATION", "trial_index": 20}, "uniqueid": "MTK1478:3WZ36BJEV4N6G0LD5GK30NITSW0TBF", "dateTime": 1515948691511}, {"current_trial": 21, "trialdata": {"rt": -1, "trial_type": "single-stim", "word": "sheriff", "stimulus": "<p id=\"stim\">SHERIFF</p>", "conditions": [18, 1200, "v", 18000], "internal_node_id": "0.0-12.0", "trial": 0, "time_elapsed": 315394, "serialpos": 0, "key_press": -1, "wordID": 1283, "type": "PRES_VIS", "trial_index": 21}, "uniqueid": "MTK1478:3WZ36BJEV4N6G0LD5GK30NITSW0TBF", "dateTime": 1515948692714}, {"current_trial": 22, "trialdata": {"rt": -1, "trial_type": "single-stim", "word": "slug", "stimulus": "<p id=\"stim\">SLUG</p>", "conditions": [18, 1200, "v", 18000], "internal_node_id": "0.0-13.0", "trial": 0, "time_elapsed": 317786, "serialpos": 1, "key_press": -1, "wordID": 1328, "type": "PRES_VIS", "trial_index": 22}, "uniqueid": "MTK1478:3WZ36BJEV4N6G0LD5GK30NITSW0TBF", "dateTime": 1515948695106}, {"current_trial": 23, "trialdata": {"rt": -1, "trial_type": "single-stim", "word": "highway", "stimulus": "<p id=\"stim\">HIGHWAY</p>", "conditions": [18, 1200, "v", 18000], "internal_node_id": "0.0-14.0", "trial": 0, "time_elapsed": 319794, "serialpos": 2, "key_press": -1, "wordID": 706, "type": "PRES_VIS", "trial_index": 23}, "uniqueid": "MTK1478:3WZ36BJEV4N6G0LD5GK30NITSW0TBF", "dateTime": 1515948697115}, {"current_trial": 24, "trialdata": {"rt": -1, "trial_type": "single-stim", "word": "donor", "stimulus": "<p id=\"stim\">DONOR</p>", "conditions": [18, 1200, "v", 18000], "internal_node_id": "0.0-15.0", "trial": 0, "time_elapsed": 322170, "serialpos": 3, "key_press": -1, "wordID": 484, "type": "PRES_VIS", "trial_index": 24}, "uniqueid": "MTK1478:3WZ36BJEV4N6G0LD5GK30NITSW0TBF", "dateTime": 1515948699491}, {"current_trial": 25, "trialdata": {"rt": -1, "trial_type": "single-stim", "word": "headband", "stimulus": "<p id=\"stim\">HEADBAND</p>", "conditions": [18, 1200, "v", 18000], "internal_node_id": "0.0-16.0", "trial": 0, "time_elapsed": 324529, "serialpos": 4, "key_press": -1, "wordID": 695, "type": "PRES_VIS", "trial_index": 25}, "uniqueid": "MTK1478:3WZ36BJEV4N6G0LD5GK30NITSW0TBF", "dateTime": 1515948701850}, {"current_trial": 26, "trialdata": {"rt": -1, "trial_type": "single-stim", "word": "author", "stimulus": "<p id=\"stim\">AUTHOR</p>", "conditions": [18, 1200, "v", 18000], "internal_node_id": "0.0-17.0", "trial": 0, "time_elapsed": 326879, "serialpos": 5, "key_press": -1, "wordID": 60, "type": "PRES_VIS", "trial_index": 26}, "uniqueid": "MTK1478:3WZ36BJEV4N6G0LD5GK30NITSW0TBF", "dateTime": 1515948704199}, {"current_trial": 27, "trialdata": {"rt": -1, "trial_type": "single-stim", "word": "crayon", "stimulus": "<p id=\"stim\">CRAYON</p>", "conditions": [18, 1200, "v", 18000], "internal_node_id": "0.0-18.0", "trial": 0, "time_elapsed": 328949, "serialpos": 6, "key_press": -1, "wordID": 400, "type": "PRES_VIS", "trial_index": 27}, "uniqueid": "MTK1478:3WZ36BJEV4N6G0LD5GK30NITSW0TBF", "dateTime": 1515948706270}, {"current_trial": 28, "trialdata": {"rt": -1, "trial_type": "single-stim", "word": "message", "stimulus": "<p id=\"stim\">MESSAGE</p>", "conditions": [18, 1200, "v", 18000], "internal_node_id": "0.0-19.0", "trial": 0, "time_elapsed": 330965, "serialpos": 7, "key_press": -1, "wordID": 887, "type": "PRES_VIS", "trial_index": 28}, "uniqueid": "MTK1478:3WZ36BJEV4N6G0LD5GK30NITSW0TBF", "dateTime": 1515948708285}, {"current_trial": 29, "trialdata": {"rt": -1, "trial_type": "single-stim", "word": "braces", "stimulus": "<p id=\"stim\">BRACES</p>", "conditions": [18, 1200, "v", 18000], "internal_node_id": "0.0-20.0", "trial": 0, "time_elapsed": 333174, "serialpos": 8, "key_press": -1, "wordID": 163, "type": "PRES_VIS", "trial_index": 29}, "uniqueid": "MTK1478:3WZ36BJEV4N6G0LD5GK30NITSW0TBF", "dateTime": 1515948710495}, {"current_trial": 30, "trialdata": {"rt": -1, "trial_type": "single-stim", "word": "igloo", "stimulus": "<p id=\"stim\">IGLOO</p>", "conditions": [18, 1200, "v", 18000], "internal_node_id": "0.0-21.0", "trial": 0, "time_elapsed": 335513, "serialpos": 9, "key_press": -1, "wordID": 733, "type": "PRES_VIS", "trial_index": 30}, "uniqueid": "MTK1478:3WZ36BJEV4N6G0LD5GK30NITSW0TBF", "dateTime": 1515948712833}, {"current_trial": 31, "trialdata": {"rt": -1, "trial_type": "single-stim", "word": "bathtub", "stimulus": "<p id=\"stim\">BATHTUB</p>", "conditions": [18, 1200, "v", 18000], "internal_node_id": "0.0-22.0", "trial": 0, "time_elapsed": 337539, "serialpos": 10, "key_press": -1, "wordID": 99, "type": "PRES_VIS", "trial_index": 31}, "uniqueid": "MTK1478:3WZ36BJEV4N6G0LD5GK30NITSW0TBF", "dateTime": 1515948714860}, {"current_trial": 32, "trialdata": {"rt": -1, "trial_type": "single-stim", "word": "pistol", "stimulus": "<p id=\"stim\">PISTOL</p>", "conditions": [18, 1200, "v", 18000], "internal_node_id": "0.0-23.0", "trial": 0, "time_elapsed": 339830, "serialpos": 11, "key_press": -1, "wordID": 1074, "type": "PRES_VIS", "trial_index": 32}, "uniqueid": "MTK1478:3WZ36BJEV4N6G0LD5GK30NITSW0TBF", "dateTime": 1515948717150}, {"current_trial": 33, "trialdata": {"rt": -1, "trial_type": "single-stim", "word": "picnic", "stimulus": "<p id=\"stim\">PICNIC</p>", "conditions": [18, 1200, "v", 18000], "internal_node_id": "0.0-24.0", "trial": 0, "time_elapsed": 342136, "serialpos": 12, "key_press": -1, "wordID": 1059, "type": "PRES_VIS", "trial_index": 33}, "uniqueid": "MTK1478:3WZ36BJEV4N6G0LD5GK30NITSW0TBF", "dateTime": 1515948719456}, {"current_trial": 34, "trialdata": {"rt": -1, "trial_type": "single-stim", "word": "handbag", "stimulus": "<p id=\"stim\">HANDBAG</p>", "conditions": [18, 1200, "v", 18000], "internal_node_id": "0.0-25.0", "trial": 0, "time_elapsed": 344154, "serialpos": 13, "key_press": -1, "wordID": 683, "type": "PRES_VIS", "trial_index": 34}, "uniqueid": "MTK1478:3WZ36BJEV4N6G0LD5GK30NITSW0TBF", "dateTime": 1515948721475}, {"current_trial": 35, "trialdata": {"rt": -1, "trial_type": "single-stim", "word": "flashlight", "stimulus": "<p id=\"stim\">FLASHLIGHT</p>", "conditions": [18, 1200, "v", 18000], "internal_node_id": "0.0-26.0", "trial": 0, "time_elapsed": 346488, "serialpos": 14, "key_press": -1, "wordID": 574, "type": "PRES_VIS", "trial_index": 35}, "uniqueid": "MTK1478:3WZ36BJEV4N6G0LD5GK30NITSW0TBF", "dateTime": 1515948723809}, {"current_trial": 36, "trialdata": {"rt": -1, "trial_type": "single-stim", "word": "proton", "stimulus": "<p id=\"stim\">PROTON</p>", "conditions": [18, 1200, "v", 18000], "internal_node_id": "0.0-27.0", "trial": 0, "time_elapsed": 348567, "serialpos": 15, "key_press": -1, "wordID": 1131, "type": "PRES_VIS", "trial_index": 36}, "uniqueid": "MTK1478:3WZ36BJEV4N6G0LD5GK30NITSW0TBF", "dateTime": 1515948725887}, {"current_trial": 37, "trialdata": {"rt": -1, "trial_type": "single-stim", "word": "valve", "stimulus": "<p id=\"stim\">VALVE</p>", "conditions": [18, 1200, "v", 18000], "internal_node_id": "0.0-28.0", "trial": 0, "time_elapsed": 350589, "serialpos": 16, "key_press": -1, "wordID": 1545, "type": "PRES_VIS", "trial_index": 37}, "uniqueid": "MTK1478:3WZ36BJEV4N6G0LD5GK30NITSW0TBF", "dateTime": 1515948727909}, {"current_trial": 38, "trialdata": {"rt": -1, "trial_type": "single-stim", "word": "cupboard", "stimulus": "<p id=\"stim\">CUPBOARD</p>", "conditions": [18, 1200, "v", 18000], "internal_node_id": "0.0-29.0", "trial": 0, "time_elapsed": 352714, "serialpos": 17, "key_press": -1, "wordID": 424, "type": "PRES_VIS", "trial_index": 38}, "uniqueid": "MTK1478:3WZ36BJEV4N6G0LD5GK30NITSW0TBF", "dateTime": 1515948730035}, {"current_trial": 39, "trialdata": {"rt": -1, "trial_type": "single-stim", "stimulus": "", "internal_node_id": "0.0-30.0-0.0", "time_elapsed": 355007, "key_press": -1, "type": "PRE_RECALL_DELAY", "trial_index": 39}, "uniqueid": "MTK1478:3WZ36BJEV4N6G0LD5GK30NITSW0TBF", "dateTime": 1515948732328}, {"current_trial": 40, "trialdata": {"rt": -1000, "trial_type": "single-audio", "stimulus": "/static/audio/400Hz.wav", "internal_node_id": "0.0-31.0", "time_elapsed": 355518, "key_press": -1, "type": "PRE_RECALL_ALERT", "trial_index": 40}, "uniqueid": "MTK1478:3WZ36BJEV4N6G0LD5GK30NITSW0TBF", "dateTime": 1515948732838}, {"current_trial": 41, "trialdata": {"rt": [4631, 8772, 12265, 14612, 18204, 23825, 26279, 30241], "recwords": ["sheriff", "cupboard", "pistol", "slug", "valve", "highway", "author", "headband"], "key_times": [2174, 2432, 2679, 2906, 3291, 3649, 3748, 4631, 5429, 5824, 6398, 6822, 7165, 7575, 7949, 8183, 8772, 10214, 10479, 10718, 11163, 11436, 11661, 12265, 13013, 13344, 13644, 13978, 14612, 16375, 16762, 17102, 17403, 17721, 18204, 21130, 21771, 22071, 22219, 22622, 22862, 23017, 23825, 24206, 24468, 24758, 24910, 25369, 25688, 26279, 27582, 27903, 28162, 28404, 28911, 29114, 29403, 29669, 30241], "trial_type": "free-recall", "conditions": [18, 1200, "v", 18000], "internal_node_id": "0.0-32.0-0.0", "key_presses": [83, 72, 69, 82, 73, 70, 70, 13, 67, 85, 80, 66, 79, 65, 82, 68, 13, 80, 73, 83, 84, 79, 76, 13, 83, 76, 85, 71, 13, 86, 65, 76, 86, 69, 13, 72, 73, 71, 72, 87, 65, 89, 13, 65, 85, 84, 72, 79, 82, 13, 72, 69, 65, 68, 66, 65, 78, 68, 13], "trial": 0, "time_elapsed": 415531, "type": "FREE_RECALL", "trial_index": 41}, "uniqueid": "MTK1478:3WZ36BJEV4N6G0LD5GK30NITSW0TBF", "dateTime": 1515948792859}, {"current_trial": 42, "trialdata": {"rt": 2110, "trial_type": "text", "internal_node_id": "0.0-33.0", "time_elapsed": 419652, "key_press": 32, "type": "INSTRUCTIONS", "trial_index": 42}, "uniqueid": "MTK1478:3WZ36BJEV4N6G0LD5GK30NITSW0TBF", "dateTime": 1515948796973}, {"current_trial": 43, "trialdata": {"rt": [3409, 6662, 9220, 12171], "trial_type": "math-distractor", "key_times": [2195, 2465, 3409, 5303, 5653, 6662, 8353, 8747, 9220, 11073, 11547, 12171, 14111, 14729, 17927], "responses": ["20", "14", "15", "18"], "num2": [9, 4, 8, 3, 6], "num3": [3, 3, 2, 6, 5], "conditions": [18, 1200, "v", 18000], "internal_node_id": "0.0-34.0", "key_presses": [50, 48, 13, 49, 52, 13, 49, 53, 13, 49, 56, 13, 49, 54, 8], "trial": 1, "time_elapsed": 439662, "type": "DISTRACTOR", "trial_index": 43, "num1": [8, 7, 5, 9, 6]}, "uniqueid": "MTK1478:3WZ36BJEV4N6G0LD5GK30NITSW0TBF", "dateTime": 1515948816983}, {"current_trial": 44, "trialdata": {"rt": -1, "trial_type": "single-stim", "stimulus": "<p id=\"stim\">10</p>", "internal_node_id": "0.0-35.0-0.0", "time_elapsed": 442667, "key_press": -1, "trial_index": 44}, "uniqueid": "MTK1478:3WZ36BJEV4N6G0LD5GK30NITSW0TBF", "dateTime": 1515948819987}, {"current_trial": 45, "trialdata": {"rt": -1, "trial_type": "single-stim", "stimulus": "<p id=\"stim\">9</p>", "internal_node_id": "0.0-35.0-1.0", "time_elapsed": 443670, "key_press": -1, "trial_index": 45}, "uniqueid": "MTK1478:3WZ36BJEV4N6G0LD5GK30NITSW0TBF", "dateTime": 1515948820991}, {"current_trial": 46, "trialdata": {"rt": -1, "trial_type": "single-stim", "stimulus": "<p id=\"stim\">8</p>", "internal_node_id": "0.0-35.0-2.0", "time_elapsed": 444674, "key_press": -1, "trial_index": 46}, "uniqueid": "MTK1478:3WZ36BJEV4N6G0LD5GK30NITSW0TBF", "dateTime": 1515948821994}, {"current_trial": 47, "trialdata": {"rt": -1, "trial_type": "single-stim", "stimulus": "<p id=\"stim\">7</p>", "internal_node_id": "0.0-35.0-3.0", "time_elapsed": 445677, "key_press": -1, "trial_index": 47}, "uniqueid": "MTK1478:3WZ36BJEV4N6G0LD5GK30NITSW0TBF", "dateTime": 1515948822998}, {"current_trial": 48, "trialdata": {"rt": -1, "trial_type": "single-stim", "stimulus": "<p id=\"stim\">6</p>", "internal_node_id": "0.0-35.0-4.0", "time_elapsed": 446680, "key_press": -1, "trial_index": 48}, "uniqueid": "MTK1478:3WZ36BJEV4N6G0LD5GK30NITSW0TBF", "dateTime": 1515948824001}, {"current_trial": 49, "trialdata": {"rt": -1, "trial_type": "single-stim", "stimulus": "<p id=\"stim\">5</p>", "internal_node_id": "0.0-35.0-5.0", "time_elapsed": 447684, "key_press": -1, "trial_index": 49}, "uniqueid": "MTK1478:3WZ36BJEV4N6G0LD5GK30NITSW0TBF", "dateTime": 1515948825005}, {"current_trial": 50, "trialdata": {"rt": -1, "trial_type": "single-stim", "stimulus": "<p id=\"stim\">4</p>", "internal_node_id": "0.0-35.0-6.0", "time_elapsed": 448688, "key_press": -1, "trial_index": 50}, "uniqueid": "MTK1478:3WZ36BJEV4N6G0LD5GK30NITSW0TBF", "dateTime": 1515948826009}, {"current_trial": 51, "trialdata": {"rt": -1, "trial_type": "single-stim", "stimulus": "<p id=\"stim\">3</p>", "internal_node_id": "0.0-35.0-7.0", "time_elapsed": 449692, "key_press": -1, "trial_index": 51}, "uniqueid": "MTK1478:3WZ36BJEV4N6G0LD5GK30NITSW0TBF", "dateTime": 1515948827013}, {"current_trial": 52, "trialdata": {"rt": -1, "trial_type": "single-stim", "stimulus": "<p id=\"stim\">2</p>", "internal_node_id": "0.0-35.0-8.0", "time_elapsed": 450696, "key_press": -1, "trial_index": 52}, "uniqueid": "MTK1478:3WZ36BJEV4N6G0LD5GK30NITSW0TBF", "dateTime": 1515948828016}, {"current_trial": 53, "trialdata": {"rt": -1, "trial_type": "single-stim", "stimulus": "<p id=\"stim\">1</p>", "internal_node_id": "0.0-35.0-9.0", "time_elapsed": 451700, "key_press": -1, "trial_index": 53}, "uniqueid": "MTK1478:3WZ36BJEV4N6G0LD5GK30NITSW0TBF", "dateTime": 1515948829020}, {"current_trial": 54, "trialdata": {"rt": -1, "trial_type": "single-stim", "stimulus": "<p id=\"stim\">+</p>", "internal_node_id": "0.0-36.0-0.0", "time_elapsed": 453203, "key_press": -1, "type": "FIXATION", "trial_index": 54}, "uniqueid": "MTK1478:3WZ36BJEV4N6G0LD5GK30NITSW0TBF", "dateTime": 1515948830523}, {"current_trial": 55, "trialdata": {"rt": -1, "trial_type": "single-stim", "word": "silk", "stimulus": "<p id=\"stim\">SILK</p>", "conditions": [18, 1200, "v", 18000], "internal_node_id": "0.0-37.0", "trial": 1, "time_elapsed": 454406, "serialpos": 0, "key_press": -1, "wordID": 1306, "type": "PRES_VIS", "trial_index": 55}, "uniqueid": "MTK1478:3WZ36BJEV4N6G0LD5GK30NITSW0TBF", "dateTime": 1515948831726}, {"current_trial": 56, "trialdata": {"rt": -1, "trial_type": "single-stim", "word": "chipmunk", "stimulus": "<p id=\"stim\">CHIPMUNK</p>", "conditions": [18, 1200, "v", 18000], "internal_node_id": "0.0-38.0", "trial": 1, "time_elapsed": 456768, "serialpos": 1, "key_press": -1, "wordID": 303, "type": "PRES_VIS", "trial_index": 56}, "uniqueid": "MTK1478:3WZ36BJEV4N6G0LD5GK30NITSW0TBF", "dateTime": 1515948834088}, {"current_trial": 57, "trialdata": {"rt": -1, "trial_type": "single-stim", "word": "gift", "stimulus": "<p id=\"stim\">GIFT</p>", "conditions": [18, 1200, "v", 18000], "internal_node_id": "0.0-39.0", "trial": 1, "time_elapsed": 458898, "serialpos": 2, "key_press": -1, "wordID": 634, "type": "PRES_VIS", "trial_index": 57}, "uniqueid": "MTK1478:3WZ36BJEV4N6G0LD5GK30NITSW0TBF", "dateTime": 1515948836219}, {"current_trial": 58, "trialdata": {"rt": -1, "trial_type": "single-stim", "word": "crib", "stimulus": "<p id=\"stim\">CRIB</p>", "conditions": [18, 1200, "v", 18000], "internal_node_id": "0.0-40.0", "trial": 1, "time_elapsed": 460904, "serialpos": 3, "key_press": -1, "wordID": 406, "type": "PRES_VIS", "trial_index": 58}, "uniqueid": "MTK1478:3WZ36BJEV4N6G0LD5GK30NITSW0TBF", "dateTime": 1515948838225}, {"current_trial": 59, "trialdata": {"rt": -1, "trial_type": "single-stim", "word": "flipper", "stimulus": "<p id=\"stim\">FLIPPER</p>", "conditions": [18, 1200, "v", 18000], "internal_node_id": "0.0-41.0", "trial": 1, "time_elapsed": 462930, "serialpos": 4, "key_press": -1, "wordID": 579, "type": "PRES_VIS", "trial_index": 59}, "uniqueid": "MTK1478:3WZ36BJEV4N6G0LD5GK30NITSW0TBF", "dateTime": 1515948840250}, {"current_trial": 60, "trialdata": {"rt": -1, "trial_type": "single-stim", "word": "transplant", "stimulus": "<p id=\"stim\">TRANSPLANT</p>", "conditions": [18, 1200, "v", 18000], "internal_node_id": "0.0-42.0", "trial": 1, "time_elapsed": 465136, "serialpos": 5, "key_press": -1, "wordID": 1495, "type": "PRES_VIS", "trial_index": 60}, "uniqueid": "MTK1478:3WZ36BJEV4N6G0LD5GK30NITSW0TBF", "dateTime": 1515948842457}, {"current_trial": 61, "trialdata": {"rt": -1, "trial_type": "single-stim", "word": "sausage", "stimulus": "<p id=\"stim\">SAUSAGE</p>", "conditions": [18, 1200, "v", 18000], "internal_node_id": "0.0-43.0", "trial": 1, "time_elapsed": 467473, "serialpos": 6, "key_press": -1, "wordID": 1237, "type": "PRES_VIS", "trial_index": 61}, "uniqueid": "MTK1478:3WZ36BJEV4N6G0LD5GK30NITSW0TBF", "dateTime": 1515948844793}, {"current_trial": 62, "trialdata": {"rt": -1, "trial_type": "single-stim", "word": "valley", "stimulus": "<p id=\"stim\">VALLEY</p>", "conditions": [18, 1200, "v", 18000], "internal_node_id": "0.0-44.0", "trial": 1, "time_elapsed": 469739, "serialpos": 7, "key_press": -1, "wordID": 1544, "type": "PRES_VIS", "trial_index": 62}, "uniqueid": "MTK1478:3WZ36BJEV4N6G0LD5GK30NITSW0TBF", "dateTime": 1515948847059}, {"current_trial": 63, "trialdata": {"rt": -1, "trial_type": "single-stim", "word": "soda", "stimulus": "<p id=\"stim\">SODA</p>", "conditions": [18, 1200, "v", 18000], "internal_node_id": "0.0-45.0", "trial": 1, "time_elapsed": 472140, "serialpos": 8, "key_press": -1, "wordID": 1340, "type": "PRES_VIS", "trial_index": 63}, "uniqueid": "MTK1478:3WZ36BJEV4N6G0LD5GK30NITSW0TBF", "dateTime": 1515948849460}, {"current_trial": 64, "trialdata": {"rt": -1, "trial_type": "single-stim", "word": "guard", "stimulus": "<p id=\"stim\">GUARD</p>", "conditions": [18, 1200, "v", 18000], "internal_node_id": "0.0-46.0", "trial": 1, "time_elapsed": 474416, "serialpos": 9, "key_press": -1, "wordID": 666, "type": "PRES_VIS", "trial_index": 64}, "uniqueid": "MTK1478:3WZ36BJEV4N6G0LD5GK30NITSW0TBF", "dateTime": 1515948851737}, {"current_trial": 65, "trialdata": {"rt": -1, "trial_type": "single-stim", "word": "island", "stimulus": "<p id=\"stim\">ISLAND</p>", "conditions": [18, 1200, "v", 18000], "internal_node_id": "0.0-47.0", "trial": 1, "time_elapsed": 476475, "serialpos": 10, "key_press": -1, "wordID": 744, "type": "PRES_VIS", "trial_index": 65}, "uniqueid": "MTK1478:3WZ36BJEV4N6G0LD5GK30NITSW0TBF", "dateTime": 1515948853796}, {"current_trial": 66, "trialdata": {"rt": -1, "trial_type": "single-stim", "word": "chauffeur", "stimulus": "<p id=\"stim\">CHAUFFEUR</p>", "conditions": [18, 1200, "v", 18000], "internal_node_id": "0.0-48.0", "trial": 1, "time_elapsed": 478665, "serialpos": 11, "key_press": -1, "wordID": 282, "type": "PRES_VIS", "trial_index": 66}, "uniqueid": "MTK1478:3WZ36BJEV4N6G0LD5GK30NITSW0TBF", "dateTime": 1515948855986}, {"current_trial": 67, "trialdata": {"rt": -1, "trial_type": "single-stim", "word": "clock", "stimulus": "<p id=\"stim\">CLOCK</p>", "conditions": [18, 1200, "v", 18000], "internal_node_id": "0.0-49.0", "trial": 1, "time_elapsed": 480895, "serialpos": 12, "key_press": -1, "wordID": 324, "type": "PRES_VIS", "trial_index": 67}, "uniqueid": "MTK1478:3WZ36BJEV4N6G0LD5GK30NITSW0TBF", "dateTime": 1515948858216}, {"current_trial": 68, "trialdata": {"rt": -1, "trial_type": "single-stim", "word": "egypt", "stimulus": "<p id=\"stim\">EGYPT</p>", "conditions": [18, 1200, "v", 18000], "internal_node_id": "0.0-50.0", "trial": 1, "time_elapsed": 483168, "serialpos": 13, "key_press": -1, "wordID": 518, "type": "PRES_VIS", "trial_index": 68}, "uniqueid": "MTK1478:3WZ36BJEV4N6G0LD5GK30NITSW0TBF", "dateTime": 1515948860501}, {"current_trial": 69, "trialdata": {"rt": -1, "trial_type": "single-stim", "word": "victim", "stimulus": "<p id=\"stim\">VICTIM</p>", "conditions": [18, 1200, "v", 18000], "internal_node_id": "0.0-51.0", "trial": 1, "time_elapsed": 485581, "serialpos": 14, "key_press": -1, "wordID": 1561, "type": "PRES_VIS", "trial_index": 69}, "uniqueid": "MTK1478:3WZ36BJEV4N6G0LD5GK30NITSW0TBF", "dateTime": 1515948862902}, {"current_trial": 70, "trialdata": {"rt": -1, "trial_type": "single-stim", "word": "cellar", "stimulus": "<p id=\"stim\">CELLAR</p>", "conditions": [18, 1200, "v", 18000], "internal_node_id": "0.0-52.0", "trial": 1, "time_elapsed": 487857, "serialpos": 15, "key_press": -1, "wordID": 266, "type": "PRES_VIS", "trial_index": 70}, "uniqueid": "MTK1478:3WZ36BJEV4N6G0LD5GK30NITSW0TBF", "dateTime": 1515948865178}, {"current_trial": 71, "trialdata": {"rt": -1, "trial_type": "single-stim", "word": "harp", "stimulus": "<p id=\"stim\">HARP</p>", "conditions": [18, 1200, "v", 18000], "internal_node_id": "0.0-53.0", "trial": 1, "time_elapsed": 490017, "serialpos": 16, "key_press": -1, "wordID": 688, "type": "PRES_VIS", "trial_index": 71}, "uniqueid": "MTK1478:3WZ36BJEV4N6G0LD5GK30NITSW0TBF", "dateTime": 1515948867338}, {"current_trial": 72, "trialdata": {"rt": -1, "trial_type": "single-stim", "word": "virus", "stimulus": "<p id=\"stim\">VIRUS</p>", "conditions": [18, 1200, "v", 18000], "internal_node_id": "0.0-54.0", "trial": 1, "time_elapsed": 492258, "serialpos": 17, "key_press": -1, "wordID": 1571, "type": "PRES_VIS", "trial_index": 72}, "uniqueid": "MTK1478:3WZ36BJEV4N6G0LD5GK30NITSW0TBF", "dateTime": 1515948869578}, {"current_trial": 73, "trialdata": {"rt": -1, "trial_type": "single-stim", "stimulus": "", "internal_node_id": "0.0-55.0-0.0", "time_elapsed": 494623, "key_press": -1, "type": "PRE_RECALL_DELAY", "trial_index": 73}, "uniqueid": "MTK1478:3WZ36BJEV4N6G0LD5GK30NITSW0TBF", "dateTime": 1515948871943}, {"current_trial": 74, "trialdata": {"rt": -1000, "trial_type": "single-audio", "stimulus": "/static/audio/400Hz.wav", "internal_node_id": "0.0-56.0", "time_elapsed": 495128, "key_press": -1, "type": "PRE_RECALL_ALERT", "trial_index": 74}, "uniqueid": "MTK1478:3WZ36BJEV4N6G0LD5GK30NITSW0TBF", "dateTime": 1515948872449}, {"current_trial": 75, "trialdata": {"rt": [3226, 4958, 6769, 12208, 19742, 23453, 25634, 28873, 33756, 44974], "recwords": ["virus", "clock", "victim", "egypt", "transplant", "silk", "gift", "chipmunk", "island", "chauffeur"], "key_times": [1676, 2091, 2365, 2629, 2926, 3226, 3560, 3854, 4054, 4360, 4737, 4958, 5205, 5499, 5760, 6098, 6394, 6615, 6769, 7333, 7679, 8013, 8507, 8796, 12208, 13732, 13922, 14165, 14388, 14583, 14917, 15122, 15205, 16934, 17354, 18109, 18300, 18543, 18865, 19742, 22168, 22501, 22698, 22887, 23453, 24328, 24621, 24963, 25186, 25634, 26293, 26536, 27005, 27277, 27638, 27876, 28092, 28371, 28873, 32077, 32340, 32615, 32722, 33011, 33255, 33756, 41688, 42029, 42349, 42715, 43082, 43199, 43583, 44339, 44535, 44974], "trial_type": "free-recall", "conditions": [18, 1200, "v", 18000], "internal_node_id": "0.0-57.0-0.0", "key_presses": [86, 73, 82, 85, 83, 32, 67, 76, 79, 67, 75, 32, 86, 73, 67, 84, 73, 77, 32, 69, 71, 89, 80, 84, 13, 84, 82, 65, 78, 83, 80, 65, 76, 8, 8, 76, 65, 78, 84, 13, 83, 73, 76, 75, 13, 71, 73, 70, 84, 13, 67, 72, 73, 80, 77, 85, 78, 75, 13, 73, 83, 76, 65, 78, 68, 13, 67, 72, 65, 85, 70, 70, 69, 85, 82, 13], "trial": 1, "time_elapsed": 555135, "type": "FREE_RECALL", "trial_index": 75}, "uniqueid": "MTK1478:3WZ36BJEV4N6G0LD5GK30NITSW0TBF", "dateTime": 1515948932461}, {"current_trial": 76, "trialdata": {"rt": 2556, "trial_type": "text", "internal_node_id": "0.0-58.0", "time_elapsed": 559700, "key_press": 32, "type": "INSTRUCTIONS", "trial_index": 76}, "uniqueid": "MTK1478:3WZ36BJEV4N6G0LD5GK30NITSW0TBF", "dateTime": 1515948937021}, {"current_trial": 77, "trialdata": {"rt": [4439, 6842, 13919, 19413, 23500], "trial_type": "math-distractor", "key_times": [3156, 3572, 4439, 6127, 6526, 6842, 8641, 9045, 12130, 12560, 13919, 17543, 18128, 19413, 21668, 22340, 23500], "responses": ["10", "14", "12", "17", "19"], "num2": [5, 3, 1, 7, 1, 1], "num3": [1, 4, 5, 9, 9, 4], "conditions": [12, 800, "v", 24000], "internal_node_id": "0.0-59.0", "key_presses": [49, 48, 13, 49, 52, 13, 49, 52, 8, 50, 13, 49, 55, 13, 49, 57, 13], "trial": 2, "time_elapsed": 584710, "type": "DISTRACTOR", "trial_index": 77, "num1": [4, 7, 6, 1, 9, 4]}, "uniqueid": "MTK1478:3WZ36BJEV4N6G0LD5GK30NITSW0TBF", "dateTime": 1515948962030}, {"current_trial": 78, "trialdata": {"rt": -1, "trial_type": "single-stim", "stimulus": "<p id=\"stim\">10</p>", "internal_node_id": "0.0-60.0-0.0", "time_elapsed": 587714, "key_press": -1, "trial_index": 78}, "uniqueid": "MTK1478:3WZ36BJEV4N6G0LD5GK30NITSW0TBF", "dateTime": 1515948965034}, {"current_trial": 79, "trialdata": {"rt": -1, "trial_type": "single-stim", "stimulus": "<p id=\"stim\">9</p>", "internal_node_id": "0.0-60.0-1.0", "time_elapsed": 588717, "key_press": -1, "trial_index": 79}, "uniqueid": "MTK1478:3WZ36BJEV4N6G0LD5GK30NITSW0TBF", "dateTime": 1515948966038}, {"current_trial": 80, "trialdata": {"rt": -1, "trial_type": "single-stim", "stimulus": "<p id=\"stim\">8</p>", "internal_node_id": "0.0-60.0-2.0", "time_elapsed": 589720, "key_press": -1, "trial_index": 80}, "uniqueid": "MTK1478:3WZ36BJEV4N6G0LD5GK30NITSW0TBF", "dateTime": 1515948967041}, {"current_trial": 81, "trialdata": {"rt": -1, "trial_type": "single-stim", "stimulus": "<p id=\"stim\">7</p>", "internal_node_id": "0.0-60.0-3.0", "time_elapsed": 590724, "key_press": -1, "trial_index": 81}, "uniqueid": "MTK1478:3WZ36BJEV4N6G0LD5GK30NITSW0TBF", "dateTime": 1515948968044}, {"current_trial": 82, "trialdata": {"rt": -1, "trial_type": "single-stim", "stimulus": "<p id=\"stim\">6</p>", "internal_node_id": "0.0-60.0-4.0", "time_elapsed": 591727, "key_press": -1, "trial_index": 82}, "uniqueid": "MTK1478:3WZ36BJEV4N6G0LD5GK30NITSW0TBF", "dateTime": 1515948969047}, {"current_trial": 83, "trialdata": {"rt": -1, "trial_type": "single-stim", "stimulus": "<p id=\"stim\">5</p>", "internal_node_id": "0.0-60.0-5.0", "time_elapsed": 592730, "key_press": -1, "trial_index": 83}, "uniqueid": "MTK1478:3WZ36BJEV4N6G0LD5GK30NITSW0TBF", "dateTime": 1515948970051}, {"current_trial": 84, "trialdata": {"rt": -1, "trial_type": "single-stim", "stimulus": "<p id=\"stim\">4</p>", "internal_node_id": "0.0-60.0-6.0", "time_elapsed": 593734, "key_press": -1, "trial_index": 84}, "uniqueid": "MTK1478:3WZ36BJEV4N6G0LD5GK30NITSW0TBF", "dateTime": 1515948971054}, {"current_trial": 85, "trialdata": {"rt": -1, "trial_type": "single-stim", "stimulus": "<p id=\"stim\">3</p>", "internal_node_id": "0.0-60.0-7.0", "time_elapsed": 594737, "key_press": -1, "trial_index": 85}, "uniqueid": "MTK1478:3WZ36BJEV4N6G0LD5GK30NITSW0TBF", "dateTime": 1515948972057}, {"current_trial": 86, "trialdata": {"rt": -1, "trial_type": "single-stim", "stimulus": "<p id=\"stim\">2</p>", "internal_node_id": "0.0-60.0-8.0", "time_elapsed": 595741, "key_press": -1, "trial_index": 86}, "uniqueid": "MTK1478:3WZ36BJEV4N6G0LD5GK30NITSW0TBF", "dateTime": 1515948973062}, {"current_trial": 87, "trialdata": {"rt": -1, "trial_type": "single-stim", "stimulus": "<p id=\"stim\">1</p>", "internal_node_id": "0.0-60.0-9.0", "time_elapsed": 596745, "key_press": -1, "trial_index": 87}, "uniqueid": "MTK1478:3WZ36BJEV4N6G0LD5GK30NITSW0TBF", "dateTime": 1515948974065}, {"current_trial": 88, "trialdata": {"rt": -1, "trial_type": "single-stim", "stimulus": "<p id=\"stim\">+</p>", "internal_node_id": "0.0-61.0-0.0", "time_elapsed": 598249, "key_press": -1, "type": "FIXATION", "trial_index": 88}, "uniqueid": "MTK1478:3WZ36BJEV4N6G0LD5GK30NITSW0TBF", "dateTime": 1515948975569}, {"current_trial": 89, "trialdata": {"rt": -1, "trial_type": "single-stim", "word": "river", "stimulus": "<p id=\"stim\">RIVER</p>", "conditions": [12, 800, "v", 24000], "internal_node_id": "0.0-62.0", "trial": 2, "time_elapsed": 599052, "serialpos": 0, "key_press": -1, "wordID": 1193, "type": "PRES_VIS", "trial_index": 89}, "uniqueid": "MTK1478:3WZ36BJEV4N6G0LD5GK30NITSW0TBF", "dateTime": 1515948976372}, {"current_trial": 90, "trialdata": {"rt": -1, "trial_type": "single-stim", "word": "drug", "stimulus": "<p id=\"stim\">DRUG</p>", "conditions": [12, 800, "v", 24000], "internal_node_id": "0.0-63.0", "trial": 2, "time_elapsed": 600968, "serialpos": 1, "key_press": -1, "wordID": 500, "type": "PRES_VIS", "trial_index": 90}, "uniqueid": "MTK1478:3WZ36BJEV4N6G0LD5GK30NITSW0TBF", "dateTime": 1515948978288}, {"current_trial": 91, "trialdata": {"rt": -1, "trial_type": "single-stim", "word": "cod", "stimulus": "<p id=\"stim\">COD</p>", "conditions": [12, 800, "v", 24000], "internal_node_id": "0.0-64.0", "trial": 2, "time_elapsed": 602653, "serialpos": 2, "key_press": -1, "wordID": 339, "type": "PRES_VIS", "trial_index": 91}, "uniqueid": "MTK1478:3WZ36BJEV4N6G0LD5GK30NITSW0TBF", "dateTime": 1515948979974}, {"current_trial": 92, "trialdata": {"rt": -1, "trial_type": "single-stim", "word": "spoon", "stimulus": "<p id=\"stim\">SPOON</p>", "conditions": [12, 800, "v", 24000], "internal_node_id": "0.0-65.0", "trial": 2, "time_elapsed": 604409, "serialpos": 3, "key_press": -1, "wordID": 1356, "type": "PRES_VIS", "trial_index": 92}, "uniqueid": "MTK1478:3WZ36BJEV4N6G0LD5GK30NITSW0TBF", "dateTime": 1515948981729}, {"current_trial": 93, "trialdata": {"rt": -1, "trial_type": "single-stim", "word": "skillet", "stimulus": "<p id=\"stim\">SKILLET</p>", "conditions": [12, 800, "v", 24000], "internal_node_id": "0.0-66.0", "trial": 2, "time_elapsed": 606178, "serialpos": 4, "key_press": -1, "wordID": 1316, "type": "PRES_VIS", "trial_index": 93}, "uniqueid": "MTK1478:3WZ36BJEV4N6G0LD5GK30NITSW0TBF", "dateTime": 1515948983498}, {"current_trial": 94, "trialdata": {"rt": -1, "trial_type": "single-stim", "word": "chemist", "stimulus": "<p id=\"stim\">CHEMIST</p>", "conditions": [12, 800, "v", 24000], "internal_node_id": "0.0-67.0", "trial": 2, "time_elapsed": 607823, "serialpos": 5, "key_press": -1, "wordID": 291, "type": "PRES_VIS", "trial_index": 94}, "uniqueid": "MTK1478:3WZ36BJEV4N6G0LD5GK30NITSW0TBF", "dateTime": 1515948985143}, {"current_trial": 95, "trialdata": {"rt": -1, "trial_type": "single-stim", "word": "journal", "stimulus": "<p id=\"stim\">JOURNAL</p>", "conditions": [12, 800, "v", 24000], "internal_node_id": "0.0-68.0", "trial": 2, "time_elapsed": 609763, "serialpos": 6, "key_press": -1, "wordID": 759, "type": "PRES_VIS", "trial_index": 95}, "uniqueid": "MTK1478:3WZ36BJEV4N6G0LD5GK30NITSW0TBF", "dateTime": 1515948987083}, {"current_trial": 96, "trialdata": {"rt": -1, "trial_type": "single-stim", "word": "poison", "stimulus": "<p id=\"stim\">POISON</p>", "conditions": [12, 800, "v", 24000], "internal_node_id": "0.0-69.0", "trial": 2, "time_elapsed": 611738, "serialpos": 7, "key_press": -1, "wordID": 1095, "type": "PRES_VIS", "trial_index": 96}, "uniqueid": "MTK1478:3WZ36BJEV4N6G0LD5GK30NITSW0TBF", "dateTime": 1515948989059}, {"current_trial": 97, "trialdata": {"rt": -1, "trial_type": "single-stim", "word": "iceberg", "stimulus": "<p id=\"stim\">ICEBERG</p>", "conditions": [12, 800, "v", 24000], "internal_node_id": "0.0-70.0", "trial": 2, "time_elapsed": 613646, "serialpos": 8, "key_press": -1, "wordID": 730, "type": "PRES_VIS", "trial_index": 97}, "uniqueid": "MTK1478:3WZ36BJEV4N6G0LD5GK30NITSW0TBF", "dateTime": 1515948990966}, {"current_trial": 98, "trialdata": {"rt": -1, "trial_type": "single-stim", "word": "actress", "stimulus": "<p id=\"stim\">ACTRESS</p>", "conditions": [12, 800, "v", 24000], "internal_node_id": "0.0-71.0", "trial": 2, "time_elapsed": 615641, "serialpos": 9, "key_press": -1, "wordID": 5, "type": "PRES_VIS", "trial_index": 98}, "uniqueid": "MTK1478:3WZ36BJEV4N6G0LD5GK30NITSW0TBF", "dateTime": 1515948992961}, {"current_trial": 99, "trialdata": {"rt": -1, "trial_type": "single-stim", "word": "bacon", "stimulus": "<p id=\"stim\">BACON</p>", "conditions": [12, 800, "v", 24000], "internal_node_id": "0.0-72.0", "trial": 2, "time_elapsed": 617391, "serialpos": 10, "key_press": -1, "wordID": 66, "type": "PRES_VIS", "trial_index": 99}, "uniqueid": "MTK1478:3WZ36BJEV4N6G0LD5GK30NITSW0TBF", "dateTime": 1515948994711}, {"current_trial": 100, "trialdata": {"rt": -1, "trial_type": "single-stim", "word": "scallop", "stimulus": "<p id=\"stim\">SCALLOP</p>", "conditions": [12, 800, "v", 24000], "internal_node_id": "0.0-73.0", "trial": 2, "time_elapsed": 619344, "serialpos": 11, "key_press": -1, "wordID": 1241, "type": "PRES_VIS", "trial_index": 100}, "uniqueid": "MTK1478:3WZ36BJEV4N6G0LD5GK30NITSW0TBF", "dateTime": 1515948996664}, {"current_trial": 101, "trialdata": {"rt": -1, "trial_type": "single-stim", "stimulus": "", "internal_node_id": "0.0-74.0-0.0", "time_elapsed": 621802, "key_press": -1, "type": "PRE_RECALL_DELAY", "trial_index": 101}, "uniqueid": "MTK1478:3WZ36BJEV4N6G0LD5GK30NITSW0TBF", "dateTime": 1515948999122}, {"current_trial": 102, "trialdata": {"rt": -1000, "trial_type": "single-audio", "stimulus": "/static/audio/400Hz.wav", "internal_node_id": "0.0-75.0", "time_elapsed": 622305, "key_press": -1, "type": "PRE_RECALL_ALERT", "trial_index": 102}, "uniqueid": "MTK1478:3WZ36BJEV4N6G0LD5GK30NITSW0TBF", "dateTime": 1515948999626}, {"current_trial": 103, "trialdata": {"rt": [4234, 6520, 9001, 12141, 16261, 18781, 23317, 27511, 30341, 42774, 53919], "recwords": ["bacon", "scallop", "actress", "iceberg", "cod", "skillet", "chemist", "river", "drug", "skillet", "spoon"], "key_times": [2188, 2366, 2714, 3025, 3254, 4234, 4633, 4802, 5015, 5352, 5486, 5677, 5857, 6520, 6912, 7224, 7679, 7862, 8047, 8318, 8438, 9001, 9737, 10023, 10285, 10783, 10952, 11100, 11351, 12141, 14836, 15133, 15468, 16261, 16769, 17244, 17437, 17677, 17798, 18058, 18315, 18781, 21169, 21483, 21705, 21960, 22214, 22459, 22778, 23317, 26143, 26467, 26806, 26986, 27142, 27511, 28430, 28609, 28881, 29236, 30341, 40812, 40961, 41150, 41380, 41476, 41642, 41843, 42774, 52117, 52422, 52743, 52849, 53172, 53919], "trial_type": "free-recall", "conditions": [12, 800, "v", 24000], "internal_node_id": "0.0-76.0-0.0", "key_presses": [66, 65, 67, 79, 78, 13, 83, 67, 65, 76, 76, 79, 80, 13, 65, 67, 84, 82, 69, 83, 83, 13, 73, 67, 69, 66, 69, 82, 71, 13, 67, 79, 68, 13, 83, 75, 73, 76, 76, 69, 84, 13, 67, 72, 69, 77, 73, 83, 84, 13, 82, 73, 86, 69, 82, 13, 68, 82, 85, 71, 13, 83, 75, 73, 76, 76, 69, 84, 13, 83, 80, 79, 79, 78, 13], "trial": 2, "time_elapsed": 682314, "type": "FREE_RECALL", "trial_index": 103}, "uniqueid": "MTK1478:3WZ36BJEV4N6G0LD5GK30NITSW0TBF", "dateTime": 1515949059642}, {"current_trial": 104, "trialdata": {"rt": 2986, "trial_type": "text", "internal_node_id": "0.0-77.0", "time_elapsed": 687311, "key_press": 32, "type": "INSTRUCTIONS", "trial_index": 104}, "uniqueid": "MTK1478:3WZ36BJEV4N6G0LD5GK30NITSW0TBF", "dateTime": 1515949064631}, {"current_trial": 105, "trialdata": {"rt": [4080, 7284, 9965, 12457, 14407, 18436, 21001], "trial_type": "math-distractor", "key_times": [1944, 2213, 4080, 5894, 6014, 7284, 9494, 9965, 11749, 12205, 12457, 13868, 13988, 14407, 17411, 18054, 18436, 20090, 20626, 21001, 22821, 23210], "responses": ["18", "11", "6", "17", "11", "20", "20"], "num2": [5, 3, 1, 5, 7, 5, 9, 5], "num3": [4, 3, 3, 5, 1, 6, 8, 7], "conditions": [12, 1600, "v", 24000], "internal_node_id": "0.0-78.0", "key_presses": [49, 56, 13, 49, 49, 13, 54, 13, 49, 55, 13, 49, 49, 13, 50, 48, 13, 50, 48, 13, 49, 53], "trial": 3, "time_elapsed": 713321, "type": "DISTRACTOR", "trial_index": 105, "num1": [9, 5, 2, 7, 3, 9, 3, 3]}, "uniqueid": "MTK1478:3WZ36BJEV4N6G0LD5GK30NITSW0TBF", "dateTime": 1515949090641}, {"current_trial": 106, "trialdata": {"rt": -1, "trial_type": "single-stim", "stimulus": "<p id=\"stim\">10</p>", "internal_node_id": "0.0-79.0-0.0", "time_elapsed": 716326, "key_press": -1, "trial_index": 106}, "uniqueid": "MTK1478:3WZ36BJEV4N6G0LD5GK30NITSW0TBF", "dateTime": 1515949093646}, {"current_trial": 107, "trialdata": {"rt": -1, "trial_type": "single-stim", "stimulus": "<p id=\"stim\">9</p>", "internal_node_id": "0.0-79.0-1.0", "time_elapsed": 717329, "key_press": -1, "trial_index": 107}, "uniqueid": "MTK1478:3WZ36BJEV4N6G0LD5GK30NITSW0TBF", "dateTime": 1515949094649}, {"current_trial": 108, "trialdata": {"rt": -1, "trial_type": "single-stim", "stimulus": "<p id=\"stim\">8</p>", "internal_node_id": "0.0-79.0-2.0", "time_elapsed": 718333, "key_press": -1, "trial_index": 108}, "uniqueid": "MTK1478:3WZ36BJEV4N6G0LD5GK30NITSW0TBF", "dateTime": 1515949095653}, {"current_trial": 109, "trialdata": {"rt": -1, "trial_type": "single-stim", "stimulus": "<p id=\"stim\">7</p>", "internal_node_id": "0.0-79.0-3.0", "time_elapsed": 719337, "key_press": -1, "trial_index": 109}, "uniqueid": "MTK1478:3WZ36BJEV4N6G0LD5GK30NITSW0TBF", "dateTime": 1515949096657}, {"current_trial": 110, "trialdata": {"rt": -1, "trial_type": "single-stim", "stimulus": "<p id=\"stim\">6</p>", "internal_node_id": "0.0-79.0-4.0", "time_elapsed": 720340, "key_press": -1, "trial_index": 110}, "uniqueid": "MTK1478:3WZ36BJEV4N6G0LD5GK30NITSW0TBF", "dateTime": 1515949097660}, {"current_trial": 111, "trialdata": {"rt": -1, "trial_type": "single-stim", "stimulus": "<p id=\"stim\">5</p>", "internal_node_id": "0.0-79.0-5.0", "time_elapsed": 721343, "key_press": -1, "trial_index": 111}, "uniqueid": "MTK1478:3WZ36BJEV4N6G0LD5GK30NITSW0TBF", "dateTime": 1515949098664}, {"current_trial": 112, "trialdata": {"rt": -1, "trial_type": "single-stim", "stimulus": "<p id=\"stim\">4</p>", "internal_node_id": "0.0-79.0-6.0", "time_elapsed": 722347, "key_press": -1, "trial_index": 112}, "uniqueid": "MTK1478:3WZ36BJEV4N6G0LD5GK30NITSW0TBF", "dateTime": 1515949099667}, {"current_trial": 113, "trialdata": {"rt": -1, "trial_type": "single-stim", "stimulus": "<p id=\"stim\">3</p>", "internal_node_id": "0.0-79.0-7.0", "time_elapsed": 723350, "key_press": -1, "trial_index": 113}, "uniqueid": "MTK1478:3WZ36BJEV4N6G0LD5GK30NITSW0TBF", "dateTime": 1515949100670}, {"current_trial": 114, "trialdata": {"rt": -1, "trial_type": "single-stim", "stimulus": "<p id=\"stim\">2</p>", "internal_node_id": "0.0-79.0-8.0", "time_elapsed": 724353, "key_press": -1, "trial_index": 114}, "uniqueid": "MTK1478:3WZ36BJEV4N6G0LD5GK30NITSW0TBF", "dateTime": 1515949101673}, {"current_trial": 115, "trialdata": {"rt": -1, "trial_type": "single-stim", "stimulus": "<p id=\"stim\">1</p>", "internal_node_id": "0.0-79.0-9.0", "time_elapsed": 725359, "key_press": -1, "trial_index": 115}, "uniqueid": "MTK1478:3WZ36BJEV4N6G0LD5GK30NITSW0TBF", "dateTime": 1515949102679}, {"current_trial": 116, "trialdata": {"rt": -1, "trial_type": "single-stim", "stimulus": "<p id=\"stim\">+</p>", "internal_node_id": "0.0-80.0-0.0", "time_elapsed": 726863, "key_press": -1, "type": "FIXATION", "trial_index": 116}, "uniqueid": "MTK1478:3WZ36BJEV4N6G0LD5GK30NITSW0TBF", "dateTime": 1515949104184}, {"current_trial": 117, "trialdata": {"rt": -1, "trial_type": "single-stim", "word": "sparrow", "stimulus": "<p id=\"stim\">SPARROW</p>", "conditions": [12, 1600, "v", 24000], "internal_node_id": "0.0-81.0", "trial": 3, "time_elapsed": 728467, "serialpos": 0, "key_press": -1, "wordID": 1346, "type": "PRES_VIS", "trial_index": 117}, "uniqueid": "MTK1478:3WZ36BJEV4N6G0LD5GK30NITSW0TBF", "dateTime": 1515949105787}, {"current_trial": 118, "trialdata": {"rt": -1, "trial_type": "single-stim", "word": "gravel", "stimulus": "<p id=\"stim\">GRAVEL</p>", "conditions": [12, 1600, "v", 24000], "internal_node_id": "0.0-82.0", "trial": 3, "time_elapsed": 731075, "serialpos": 1, "key_press": -1, "wordID": 658, "type": "PRES_VIS", "trial_index": 118}, "uniqueid": "MTK1478:3WZ36BJEV4N6G0LD5GK30NITSW0TBF", "dateTime": 1515949108395}, {"current_trial": 119, "trialdata": {"rt": -1, "trial_type": "single-stim", "word": "scalpel", "stimulus": "<p id=\"stim\">SCALPEL</p>", "conditions": [12, 1600, "v", 24000], "internal_node_id": "0.0-83.0", "trial": 3, "time_elapsed": 733533, "serialpos": 2, "key_press": -1, "wordID": 1242, "type": "PRES_VIS", "trial_index": 119}, "uniqueid": "MTK1478:3WZ36BJEV4N6G0LD5GK30NITSW0TBF", "dateTime": 1515949110853}, {"current_trial": 120, "trialdata": {"rt": -1, "trial_type": "single-stim", "word": "bunny", "stimulus": "<p id=\"stim\">BUNNY</p>", "conditions": [12, 1600, "v", 24000], "internal_node_id": "0.0-84.0", "trial": 3, "time_elapsed": 736213, "serialpos": 3, "key_press": -1, "wordID": 197, "type": "PRES_VIS", "trial_index": 120}, "uniqueid": "MTK1478:3WZ36BJEV4N6G0LD5GK30NITSW0TBF", "dateTime": 1515949113534}, {"current_trial": 121, "trialdata": {"rt": -1, "trial_type": "single-stim", "word": "temple", "stimulus": "<p id=\"stim\">TEMPLE</p>", "conditions": [12, 1600, "v", 24000], "internal_node_id": "0.0-85.0", "trial": 3, "time_elapsed": 738703, "serialpos": 4, "key_press": -1, "wordID": 1447, "type": "PRES_VIS", "trial_index": 121}, "uniqueid": "MTK1478:3WZ36BJEV4N6G0LD5GK30NITSW0TBF", "dateTime": 1515949116024}, {"current_trial": 122, "trialdata": {"rt": -1, "trial_type": "single-stim", "word": "fireplace", "stimulus": "<p id=\"stim\">FIREPLACE</p>", "conditions": [12, 1600, "v", 24000], "internal_node_id": "0.0-86.0", "trial": 3, "time_elapsed": 741423, "serialpos": 5, "key_press": -1, "wordID": 569, "type": "PRES_VIS", "trial_index": 122}, "uniqueid": "MTK1478:3WZ36BJEV4N6G0LD5GK30NITSW0TBF", "dateTime": 1515949118743}, {"current_trial": 123, "trialdata": {"rt": -1, "trial_type": "single-stim", "word": "kitchen", "stimulus": "<p id=\"stim\">KITCHEN</p>", "conditions": [12, 1600, "v", 24000], "internal_node_id": "0.0-87.0", "trial": 3, "time_elapsed": 744215, "serialpos": 6, "key_press": -1, "wordID": 777, "type": "PRES_VIS", "trial_index": 123}, "uniqueid": "MTK1478:3WZ36BJEV4N6G0LD5GK30NITSW0TBF", "dateTime": 1515949121535}, {"current_trial": 124, "trialdata": {"rt": -1, "trial_type": "single-stim", "word": "nightgown", "stimulus": "<p id=\"stim\">NIGHTGOWN</p>", "conditions": [12, 1600, "v", 24000], "internal_node_id": "0.0-88.0", "trial": 3, "time_elapsed": 746806, "serialpos": 7, "key_press": -1, "wordID": 952, "type": "PRES_VIS", "trial_index": 124}, "uniqueid": "MTK1478:3WZ36BJEV4N6G0LD5GK30NITSW0TBF", "dateTime": 1515949124126}, {"current_trial": 125, "trialdata": {"rt": -1, "trial_type": "single-stim", "word": "coin", "stimulus": "<p id=\"stim\">COIN</p>", "conditions": [12, 1600, "v", 24000], "internal_node_id": "0.0-89.0", "trial": 3, "time_elapsed": 749446, "serialpos": 8, "key_press": -1, "wordID": 342, "type": "PRES_VIS", "trial_index": 125}, "uniqueid": "MTK1478:3WZ36BJEV4N6G0LD5GK30NITSW0TBF", "dateTime": 1515949126766}, {"current_trial": 126, "trialdata": {"rt": -1, "trial_type": "single-stim", "word": "razor", "stimulus": "<p id=\"stim\">RAZOR</p>", "conditions": [12, 1600, "v", 24000], "internal_node_id": "0.0-90.0", "trial": 3, "time_elapsed": 751937, "serialpos": 9, "key_press": -1, "wordID": 1170, "type": "PRES_VIS", "trial_index": 126}, "uniqueid": "MTK1478:3WZ36BJEV4N6G0LD5GK30NITSW0TBF", "dateTime": 1515949129257}, {"current_trial": 127, "trialdata": {"rt": -1, "trial_type": "single-stim", "word": "tractor", "stimulus": "<p id=\"stim\">TRACTOR</p>", "conditions": [12, 1600, "v", 24000], "internal_node_id": "0.0-91.0", "trial": 3, "time_elapsed": 754727, "serialpos": 10, "key_press": -1, "wordID": 1492, "type": "PRES_VIS", "trial_index": 127}, "uniqueid": "MTK1478:3WZ36BJEV4N6G0LD5GK30NITSW0TBF", "dateTime": 1515949132048}, {"current_trial": 128, "trialdata": {"rt": -1, "trial_type": "single-stim", "word": "robin", "stimulus": "<p id=\"stim\">ROBIN</p>", "conditions": [12, 1600, "v", 24000], "internal_node_id": "0.0-92.0", "trial": 3, "time_elapsed": 757516, "serialpos": 11, "key_press": -1, "wordID": 1198, "type": "PRES_VIS", "trial_index": 128}, "uniqueid": "MTK1478:3WZ36BJEV4N6G0LD5GK30NITSW0TBF", "dateTime": 1515949134837}, {"current_trial": 129, "trialdata": {"rt": -1, "trial_type": "single-stim", "stimulus": "", "internal_node_id": "0.0-93.0-0.0", "time_elapsed": 759666, "key_press": -1, "type": "PRE_RECALL_DELAY", "trial_index": 129}, "uniqueid": "MTK1478:3WZ36BJEV4N6G0LD5GK30NITSW0TBF", "dateTime": 1515949136986}, {"current_trial": 130, "trialdata": {"rt": -1000, "trial_type": "single-audio", "stimulus": "/static/audio/400Hz.wav", "internal_node_id": "0.0-94.0", "time_elapsed": 760169, "key_press": -1, "type": "PRE_RECALL_ALERT", "trial_index": 130}, "uniqueid": "MTK1478:3WZ36BJEV4N6G0LD5GK30NITSW0TBF", "dateTime": 1515949137489}, {"current_trial": 131, "trialdata": {"rt": [2399, 4584, 7113, 9700, 13365, 15644, 27846, 31995, 45953], "recwords": ["coin", "razor", "tractor", "robin", "gravel", "sparrow", "kitchen", "nightgown", "bunny"], "key_times": [819, 1147, 1349, 1528, 2399, 3034, 3186, 3490, 3886, 4145, 4584, 5171, 5332, 5485, 5773, 6147, 6362, 6592, 7113, 7874, 8154, 8472, 8703, 8917, 9700, 11489, 11705, 11893, 12210, 12471, 12865, 13365, 13708, 13987, 14127, 14510, 14618, 14943, 15159, 15644, 17332, 17483, 17812, 18611, 18912, 19159, 26535, 27846, 28615, 28854, 29092, 29207, 29318, 29822, 30063, 30389, 30726, 31995, 44052, 44323, 44525, 44636, 45198, 45953], "trial_type": "free-recall", "conditions": [12, 1600, "v", 24000], "internal_node_id": "0.0-95.0-0.0", "key_presses": [67, 79, 73, 78, 13, 82, 65, 90, 79, 82, 13, 84, 82, 65, 67, 84, 79, 82, 13, 82, 79, 66, 73, 78, 13, 71, 82, 65, 86, 69, 76, 13, 83, 80, 65, 82, 82, 79, 87, 13, 75, 73, 84, 67, 72, 69, 78, 13, 78, 73, 71, 72, 84, 71, 79, 87, 78, 13, 66, 85, 78, 78, 89, 13], "trial": 3, "time_elapsed": 820181, "type": "FREE_RECALL", "trial_index": 131}, "uniqueid": "MTK1478:3WZ36BJEV4N6G0LD5GK30NITSW0TBF", "dateTime": 1515949197511}, {"current_trial": 132, "trialdata": {"rt": 8502, "trial_type": "text", "internal_node_id": "0.0-96.0", "time_elapsed": 830695, "key_press": 32, "type": "INSTRUCTIONS", "trial_index": 132}, "uniqueid": "MTK1478:3WZ36BJEV4N6G0LD5GK30NITSW0TBF", "dateTime": 1515949208016}, {"current_trial": 133, "trialdata": {"rt": [3172, 7002, 9380, 11633], "trial_type": "math-distractor", "key_times": [2327, 2500, 3172, 6166, 6813, 7002, 8568, 9189, 9380, 10943, 11432, 11633], "responses": ["12", "16", "19", "16"], "num2": [2, 2, 8, 5, 4], "num3": [7, 7, 7, 7, 4], "conditions": [12, 1600, "v", 12000], "internal_node_id": "0.0-97.0", "key_presses": [49, 50, 13, 49, 54, 13, 49, 57, 13, 49, 54, 13], "trial": 4, "time_elapsed": 844706, "type": "DISTRACTOR", "trial_index": 133, "num1": [3, 7, 4, 4, 3]}, "uniqueid": "MTK1478:3WZ36BJEV4N6G0LD5GK30NITSW0TBF", "dateTime": 1515949222026}, {"current_trial": 134, "trialdata": {"rt": -1, "trial_type": "single-stim", "stimulus": "<p id=\"stim\">10</p>", "internal_node_id": "0.0-98.0-0.0", "time_elapsed": 847710, "key_press": -1, "trial_index": 134}, "uniqueid": "MTK1478:3WZ36BJEV4N6G0LD5GK30NITSW0TBF", "dateTime": 1515949225031}, {"current_trial": 135, "trialdata": {"rt": -1, "trial_type": "single-stim", "stimulus": "<p id=\"stim\">9</p>", "internal_node_id": "0.0-98.0-1.0", "time_elapsed": 848713, "key_press": -1, "trial_index": 135}, "uniqueid": "MTK1478:3WZ36BJEV4N6G0LD5GK30NITSW0TBF", "dateTime": 1515949226033}, {"current_trial": 136, "trialdata": {"rt": -1, "trial_type": "single-stim", "stimulus": "<p id=\"stim\">8</p>", "internal_node_id": "0.0-98.0-2.0", "time_elapsed": 849716, "key_press": -1, "trial_index": 136}, "uniqueid": "MTK1478:3WZ36BJEV4N6G0LD5GK30NITSW0TBF", "dateTime": 1515949227036}, {"current_trial": 137, "trialdata": {"rt": -1, "trial_type": "single-stim", "stimulus": "<p id=\"stim\">7</p>", "internal_node_id": "0.0-98.0-3.0", "time_elapsed": 850720, "key_press": -1, "trial_index": 137}, "uniqueid": "MTK1478:3WZ36BJEV4N6G0LD5GK30NITSW0TBF", "dateTime": 1515949228040}, {"current_trial": 138, "trialdata": {"rt": -1, "trial_type": "single-stim", "stimulus": "<p id=\"stim\">6</p>", "internal_node_id": "0.0-98.0-4.0", "time_elapsed": 851723, "key_press": -1, "trial_index": 138}, "uniqueid": "MTK1478:3WZ36BJEV4N6G0LD5GK30NITSW0TBF", "dateTime": 1515949229044}, {"current_trial": 139, "trialdata": {"rt": -1, "trial_type": "single-stim", "stimulus": "<p id=\"stim\">5</p>", "internal_node_id": "0.0-98.0-5.0", "time_elapsed": 852728, "key_press": -1, "trial_index": 139}, "uniqueid": "MTK1478:3WZ36BJEV4N6G0LD5GK30NITSW0TBF", "dateTime": 1515949230048}, {"current_trial": 140, "trialdata": {"rt": -1, "trial_type": "single-stim", "stimulus": "<p id=\"stim\">4</p>", "internal_node_id": "0.0-98.0-6.0", "time_elapsed": 853732, "key_press": -1, "trial_index": 140}, "uniqueid": "MTK1478:3WZ36BJEV4N6G0LD5GK30NITSW0TBF", "dateTime": 1515949231052}, {"current_trial": 141, "trialdata": {"rt": -1, "trial_type": "single-stim", "stimulus": "<p id=\"stim\">3</p>", "internal_node_id": "0.0-98.0-7.0", "time_elapsed": 854735, "key_press": -1, "trial_index": 141}, "uniqueid": "MTK1478:3WZ36BJEV4N6G0LD5GK30NITSW0TBF", "dateTime": 1515949232055}, {"current_trial": 142, "trialdata": {"rt": -1, "trial_type": "single-stim", "stimulus": "<p id=\"stim\">2</p>", "internal_node_id": "0.0-98.0-8.0", "time_elapsed": 855739, "key_press": -1, "trial_index": 142}, "uniqueid": "MTK1478:3WZ36BJEV4N6G0LD5GK30NITSW0TBF", "dateTime": 1515949233059}, {"current_trial": 143, "trialdata": {"rt": -1, "trial_type": "single-stim", "stimulus": "<p id=\"stim\">1</p>", "internal_node_id": "0.0-98.0-9.0", "time_elapsed": 856742, "key_press": -1, "trial_index": 143}, "uniqueid": "MTK1478:3WZ36BJEV4N6G0LD5GK30NITSW0TBF", "dateTime": 1515949234062}, {"current_trial": 144, "trialdata": {"rt": -1, "trial_type": "single-stim", "stimulus": "<p id=\"stim\">+</p>", "internal_node_id": "0.0-99.0-0.0", "time_elapsed": 858245, "key_press": -1, "type": "FIXATION", "trial_index": 144}, "uniqueid": "MTK1478:3WZ36BJEV4N6G0LD5GK30NITSW0TBF", "dateTime": 1515949235566}, {"current_trial": 145, "trialdata": {"rt": -1, "trial_type": "single-stim", "word": "basement", "stimulus": "<p id=\"stim\">BASEMENT</p>", "conditions": [12, 1600, "v", 12000], "internal_node_id": "0.0-100.0", "trial": 4, "time_elapsed": 859852, "serialpos": 0, "key_press": -1, "wordID": 93, "type": "PRES_VIS", "trial_index": 145}, "uniqueid": "MTK1478:3WZ36BJEV4N6G0LD5GK30NITSW0TBF", "dateTime": 1515949237172}, {"current_trial": 146, "trialdata": {"rt": -1, "trial_type": "single-stim", "word": "office", "stimulus": "<p id=\"stim\">OFFICE</p>", "conditions": [12, 1600, "v", 12000], "internal_node_id": "0.0-101.0", "trial": 4, "time_elapsed": 862529, "serialpos": 1, "key_press": -1, "wordID": 971, "type": "PRES_VIS", "trial_index": 146}, "uniqueid": "MTK1478:3WZ36BJEV4N6G0LD5GK30NITSW0TBF", "dateTime": 1515949239849}, {"current_trial": 147, "trialdata": {"rt": -1, "trial_type": "single-stim", "word": "plaid", "stimulus": "<p id=\"stim\">PLAID</p>", "conditions": [12, 1600, "v", 12000], "internal_node_id": "0.0-102.0", "trial": 4, "time_elapsed": 865174, "serialpos": 2, "key_press": -1, "wordID": 1079, "type": "PRES_VIS", "trial_index": 147}, "uniqueid": "MTK1478:3WZ36BJEV4N6G0LD5GK30NITSW0TBF", "dateTime": 1515949242495}, {"current_trial": 148, "trialdata": {"rt": -1, "trial_type": "single-stim", "word": "tortoise", "stimulus": "<p id=\"stim\">TORTOISE</p>", "conditions": [12, 1600, "v", 12000], "internal_node_id": "0.0-103.0", "trial": 4, "time_elapsed": 867639, "serialpos": 3, "key_press": -1, "wordID": 1485, "type": "PRES_VIS", "trial_index": 148}, "uniqueid": "MTK1478:3WZ36BJEV4N6G0LD5GK30NITSW0TBF", "dateTime": 1515949244959}, {"current_trial": 149, "trialdata": {"rt": -1, "trial_type": "single-stim", "word": "ghetto", "stimulus": "<p id=\"stim\">GHETTO</p>", "conditions": [12, 1600, "v", 12000], "internal_node_id": "0.0-104.0", "trial": 4, "time_elapsed": 870286, "serialpos": 4, "key_press": -1, "wordID": 632, "type": "PRES_VIS", "trial_index": 149}, "uniqueid": "MTK1478:3WZ36BJEV4N6G0LD5GK30NITSW0TBF", "dateTime": 1515949247607}, {"current_trial": 150, "trialdata": {"rt": -1, "trial_type": "single-stim", "word": "skirt", "stimulus": "<p id=\"stim\">SKIRT</p>", "conditions": [12, 1600, "v", 12000], "internal_node_id": "0.0-105.0", "trial": 4, "time_elapsed": 873054, "serialpos": 5, "key_press": -1, "wordID": 1318, "type": "PRES_VIS", "trial_index": 150}, "uniqueid": "MTK1478:3WZ36BJEV4N6G0LD5GK30NITSW0TBF", "dateTime": 1515949250375}, {"current_trial": 151, "trialdata": {"rt": -1, "trial_type": "single-stim", "word": "dress", "stimulus": "<p id=\"stim\">DRESS</p>", "conditions": [12, 1600, "v", 12000], "internal_node_id": "0.0-106.0", "trial": 4, "time_elapsed": 875539, "serialpos": 6, "key_press": -1, "wordID": 494, "type": "PRES_VIS", "trial_index": 151}, "uniqueid": "MTK1478:3WZ36BJEV4N6G0LD5GK30NITSW0TBF", "dateTime": 1515949252859}, {"current_trial": 152, "trialdata": {"rt": -1, "trial_type": "single-stim", "word": "branch", "stimulus": "<p id=\"stim\">BRANCH</p>", "conditions": [12, 1600, "v", 12000], "internal_node_id": "0.0-107.0", "trial": 4, "time_elapsed": 878002, "serialpos": 7, "key_press": -1, "wordID": 167, "type": "PRES_VIS", "trial_index": 152}, "uniqueid": "MTK1478:3WZ36BJEV4N6G0LD5GK30NITSW0TBF", "dateTime": 1515949255323}, {"current_trial": 153, "trialdata": {"rt": -1, "trial_type": "single-stim", "word": "panther", "stimulus": "<p id=\"stim\">PANTHER</p>", "conditions": [12, 1600, "v", 12000], "internal_node_id": "0.0-108.0", "trial": 4, "time_elapsed": 880433, "serialpos": 8, "key_press": -1, "wordID": 1008, "type": "PRES_VIS", "trial_index": 153}, "uniqueid": "MTK1478:3WZ36BJEV4N6G0LD5GK30NITSW0TBF", "dateTime": 1515949257758}, {"current_trial": 154, "trialdata": {"rt": -1, "trial_type": "single-stim", "word": "lumber", "stimulus": "<p id=\"stim\">LUMBER</p>", "conditions": [12, 1600, "v", 12000], "internal_node_id": "0.0-109.0", "trial": 4, "time_elapsed": 882912, "serialpos": 9, "key_press": -1, "wordID": 847, "type": "PRES_VIS", "trial_index": 154}, "uniqueid": "MTK1478:3WZ36BJEV4N6G0LD5GK30NITSW0TBF", "dateTime": 1515949260232}, {"current_trial": 155, "trialdata": {"rt": -1, "trial_type": "single-stim", "word": "bubble", "stimulus": "<p id=\"stim\">BUBBLE</p>", "conditions": [12, 1600, "v", 12000], "internal_node_id": "0.0-110.0", "trial": 4, "time_elapsed": 885547, "serialpos": 10, "key_press": -1, "wordID": 182, "type": "PRES_VIS", "trial_index": 155}, "uniqueid": "MTK1478:3WZ36BJEV4N6G0LD5GK30NITSW0TBF", "dateTime": 1515949262868}, {"current_trial": 156, "trialdata": {"rt": -1, "trial_type": "single-stim", "word": "waitress", "stimulus": "<p id=\"stim\">WAITRESS</p>", "conditions": [12, 1600, "v", 12000], "internal_node_id": "0.0-111.0", "trial": 4, "time_elapsed": 888146, "serialpos": 11, "key_press": -1, "wordID": 1580, "type": "PRES_VIS", "trial_index": 156}, "uniqueid": "MTK1478:3WZ36BJEV4N6G0LD5GK30NITSW0TBF", "dateTime": 1515949265467}, {"current_trial": 157, "trialdata": {"rt": -1, "trial_type": "single-stim", "stimulus": "", "internal_node_id": "0.0-112.0-0.0", "time_elapsed": 890645, "key_press": -1, "type": "PRE_RECALL_DELAY", "trial_index": 157}, "uniqueid": "MTK1478:3WZ36BJEV4N6G0LD5GK30NITSW0TBF", "dateTime": 1515949267966}, {"current_trial": 158, "trialdata": {"rt": -1000, "trial_type": "single-audio", "stimulus": "/static/audio/400Hz.wav", "internal_node_id": "0.0-113.0", "time_elapsed": 891149, "key_press": -1, "type": "PRE_RECALL_ALERT", "trial_index": 158}, "uniqueid": "MTK1478:3WZ36BJEV4N6G0LD5GK30NITSW0TBF", "dateTime": 1515949268469}, {"current_trial": 159, "trialdata": {"rt": [2105, 5137, 7590, 10384, 15067, 16742, 23632, 27217, 37840, 53324, 55927], "recwords": ["bubble", "waitress", "branch", "panther", "skirt", "dress", "ghetto", "plaid", "turquois", "basement", "office"], "key_times": [746, 951, 1283, 1375, 1600, 1895, 2105, 2322, 2547, 2786, 3097, 3267, 3475, 3736, 3857, 5137, 5631, 5897, 6122, 6437, 6773, 6975, 7590, 8573, 8785, 9050, 9377, 9580, 9816, 9970, 10384, 13720, 14031, 14201, 14501, 14678, 15067, 15496, 15708, 15879, 16180, 16288, 16742, 21259, 21451, 21775, 22078, 22209, 22780, 23632, 25742, 25922, 26149, 26560, 26846, 27217, 28024, 33232, 33460, 35306, 35648, 35882, 36038, 36256, 37840, 50910, 51074, 51255, 51447, 51842, 52120, 52348, 52556, 53324, 54572, 54871, 54978, 55189, 55386, 55615, 55927], "trial_type": "free-recall", "conditions": [12, 1600, "v", 12000], "internal_node_id": "0.0-114.0-0.0", "key_presses": [66, 85, 66, 66, 76, 69, 32, 87, 65, 73, 84, 82, 69, 83, 83, 13, 66, 82, 65, 78, 67, 72, 13, 80, 65, 78, 84, 72, 69, 82, 13, 83, 75, 73, 82, 84, 13, 68, 82, 69, 83, 83, 13, 71, 72, 69, 84, 84, 79, 13, 80, 76, 65, 73, 68, 13, 84, 85, 82, 81, 85, 79, 73, 83, 13, 66, 65, 83, 69, 77, 69, 78, 84, 13, 79, 70, 70, 73, 67, 69, 13], "trial": 4, "time_elapsed": 951160, "type": "FREE_RECALL", "trial_index": 159}, "uniqueid": "MTK1478:3WZ36BJEV4N6G0LD5GK30NITSW0TBF", "dateTime": 1515949328491}, {"current_trial": 160, "trialdata": {"rt": 9425, "trial_type": "text", "internal_node_id": "0.0-115.0", "time_elapsed": 962599, "key_press": 32, "type": "INSTRUCTIONS", "trial_index": 160}, "uniqueid": "MTK1478:3WZ36BJEV4N6G0LD5GK30NITSW0TBF", "dateTime": 1515949339919}, {"current_trial": 161, "trialdata": {"rt": [3659, 6727, 9113, 11875], "trial_type": "math-distractor", "key_times": [3027, 3659, 5865, 6118, 6727, 8455, 8899, 9113, 10758, 11624, 11875], "responses": ["8", "13", "17", "16"], "num2": [1, 2, 6, 2, 1], "num3": [4, 2, 4, 5, 5], "conditions": [12, 1600, "v", 12000], "internal_node_id": "0.0-116.0", "key_presses": [56, 13, 49, 51, 13, 49, 55, 13, 49, 54, 13], "trial": 5, "time_elapsed": 976608, "type": "DISTRACTOR", "trial_index": 161, "num1": [3, 9, 7, 9, 9]}, "uniqueid": "MTK1478:3WZ36BJEV4N6G0LD5GK30NITSW0TBF", "dateTime": 1515949353929}, {"current_trial": 162, "trialdata": {"rt": -1, "trial_type": "single-stim", "stimulus": "<p id=\"stim\">10</p>", "internal_node_id": "0.0-117.0-0.0", "time_elapsed": 979613, "key_press": -1, "trial_index": 162}, "uniqueid": "MTK1478:3WZ36BJEV4N6G0LD5GK30NITSW0TBF", "dateTime": 1515949356933}, {"current_trial": 163, "trialdata": {"rt": -1, "trial_type": "single-stim", "stimulus": "<p id=\"stim\">9</p>", "internal_node_id": "0.0-117.0-1.0", "time_elapsed": 980615, "key_press": -1, "trial_index": 163}, "uniqueid": "MTK1478:3WZ36BJEV4N6G0LD5GK30NITSW0TBF", "dateTime": 1515949357936}, {"current_trial": 164, "trialdata": {"rt": -1, "trial_type": "single-stim", "stimulus": "<p id=\"stim\">8</p>", "internal_node_id": "0.0-117.0-2.0", "time_elapsed": 981618, "key_press": -1, "trial_index": 164}, "uniqueid": "MTK1478:3WZ36BJEV4N6G0LD5GK30NITSW0TBF", "dateTime": 1515949358939}, {"current_trial": 165, "trialdata": {"rt": -1, "trial_type": "single-stim", "stimulus": "<p id=\"stim\">7</p>", "internal_node_id": "0.0-117.0-3.0", "time_elapsed": 982622, "key_press": -1, "trial_index": 165}, "uniqueid": "MTK1478:3WZ36BJEV4N6G0LD5GK30NITSW0TBF", "dateTime": 1515949359942}, {"current_trial": 166, "trialdata": {"rt": -1, "trial_type": "single-stim", "stimulus": "<p id=\"stim\">6</p>", "internal_node_id": "0.0-117.0-4.0", "time_elapsed": 983625, "key_press": -1, "trial_index": 166}, "uniqueid": "MTK1478:3WZ36BJEV4N6G0LD5GK30NITSW0TBF", "dateTime": 1515949360946}, {"current_trial": 167, "trialdata": {"rt": -1, "trial_type": "single-stim", "stimulus": "<p id=\"stim\">5</p>", "internal_node_id": "0.0-117.0-5.0", "time_elapsed": 984628, "key_press": -1, "trial_index": 167}, "uniqueid": "MTK1478:3WZ36BJEV4N6G0LD5GK30NITSW0TBF", "dateTime": 1515949361949}, {"current_trial": 168, "trialdata": {"rt": -1, "trial_type": "single-stim", "stimulus": "<p id=\"stim\">4</p>", "internal_node_id": "0.0-117.0-6.0", "time_elapsed": 985631, "key_press": -1, "trial_index": 168}, "uniqueid": "MTK1478:3WZ36BJEV4N6G0LD5GK30NITSW0TBF", "dateTime": 1515949362951}, {"current_trial": 169, "trialdata": {"rt": -1, "trial_type": "single-stim", "stimulus": "<p id=\"stim\">3</p>", "internal_node_id": "0.0-117.0-7.0", "time_elapsed": 986636, "key_press": -1, "trial_index": 169}, "uniqueid": "MTK1478:3WZ36BJEV4N6G0LD5GK30NITSW0TBF", "dateTime": 1515949363956}, {"current_trial": 170, "trialdata": {"rt": -1, "trial_type": "single-stim", "stimulus": "<p id=\"stim\">2</p>", "internal_node_id": "0.0-117.0-8.0", "time_elapsed": 987639, "key_press": -1, "trial_index": 170}, "uniqueid": "MTK1478:3WZ36BJEV4N6G0LD5GK30NITSW0TBF", "dateTime": 1515949364959}, {"current_trial": 171, "trialdata": {"rt": -1, "trial_type": "single-stim", "stimulus": "<p id=\"stim\">1</p>", "internal_node_id": "0.0-117.0-9.0", "time_elapsed": 988643, "key_press": -1, "trial_index": 171}, "uniqueid": "MTK1478:3WZ36BJEV4N6G0LD5GK30NITSW0TBF", "dateTime": 1515949365963}, {"current_trial": 172, "trialdata": {"rt": -1, "trial_type": "single-stim", "stimulus": "<p id=\"stim\">+</p>", "internal_node_id": "0.0-118.0-0.0", "time_elapsed": 990146, "key_press": -1, "type": "FIXATION", "trial_index": 172}, "uniqueid": "MTK1478:3WZ36BJEV4N6G0LD5GK30NITSW0TBF", "dateTime": 1515949367467}, {"current_trial": 173, "trialdata": {"rt": -1, "trial_type": "single-stim", "word": "dragon", "stimulus": "<p id=\"stim\">DRAGON</p>", "conditions": [12, 1600, "v", 12000], "internal_node_id": "0.0-119.0", "trial": 5, "time_elapsed": 991750, "serialpos": 0, "key_press": -1, "wordID": 491, "type": "PRES_VIS", "trial_index": 173}, "uniqueid": "MTK1478:3WZ36BJEV4N6G0LD5GK30NITSW0TBF", "dateTime": 1515949369070}, {"current_trial": 174, "trialdata": {"rt": -1, "trial_type": "single-stim", "word": "dime", "stimulus": "<p id=\"stim\">DIME</p>", "conditions": [12, 1600, "v", 12000], "internal_node_id": "0.0-120.0", "trial": 5, "time_elapsed": 994346, "serialpos": 1, "key_press": -1, "wordID": 465, "type": "PRES_VIS", "trial_index": 174}, "uniqueid": "MTK1478:3WZ36BJEV4N6G0LD5GK30NITSW0TBF", "dateTime": 1515949371666}, {"current_trial": 175, "trialdata": {"rt": -1, "trial_type": "single-stim", "word": "postage", "stimulus": "<p id=\"stim\">POSTAGE</p>", "conditions": [12, 1600, "v", 12000], "internal_node_id": "0.0-121.0", "trial": 5, "time_elapsed": 997093, "serialpos": 2, "key_press": -1, "wordID": 1112, "type": "PRES_VIS", "trial_index": 175}, "uniqueid": "MTK1478:3WZ36BJEV4N6G0LD5GK30NITSW0TBF", "dateTime": 1515949374414}, {"current_trial": 176, "trialdata": {"rt": -1, "trial_type": "single-stim", "word": "cabin", "stimulus": "<p id=\"stim\">CABIN</p>", "conditions": [12, 1600, "v", 12000], "internal_node_id": "0.0-122.0", "trial": 5, "time_elapsed": 999668, "serialpos": 3, "key_press": -1, "wordID": 210, "type": "PRES_VIS", "trial_index": 176}, "uniqueid": "MTK1478:3WZ36BJEV4N6G0LD5GK30NITSW0TBF", "dateTime": 1515949376989}, {"current_trial": 177, "trialdata": {"rt": -1, "trial_type": "single-stim", "word": "cashier", "stimulus": "<p id=\"stim\">CASHIER</p>", "conditions": [12, 1600, "v", 12000], "internal_node_id": "0.0-123.0", "trial": 5, "time_elapsed": 1002198, "serialpos": 4, "key_press": -1, "wordID": 253, "type": "PRES_VIS", "trial_index": 177}, "uniqueid": "MTK1478:3WZ36BJEV4N6G0LD5GK30NITSW0TBF", "dateTime": 1515949379519}, {"current_trial": 178, "trialdata": {"rt": -1, "trial_type": "single-stim", "word": "cricket", "stimulus": "<p id=\"stim\">CRICKET</p>", "conditions": [12, 1600, "v", 12000], "internal_node_id": "0.0-124.0", "trial": 5, "time_elapsed": 1004829, "serialpos": 5, "key_press": -1, "wordID": 407, "type": "PRES_VIS", "trial_index": 178}, "uniqueid": "MTK1478:3WZ36BJEV4N6G0LD5GK30NITSW0TBF", "dateTime": 1515949382149}, {"current_trial": 179, "trialdata": {"rt": -1, "trial_type": "single-stim", "word": "concert", "stimulus": "<p id=\"stim\">CONCERT</p>", "conditions": [12, 1600, "v", 12000], "internal_node_id": "0.0-125.0", "trial": 5, "time_elapsed": 1007265, "serialpos": 6, "key_press": -1, "wordID": 359, "type": "PRES_VIS", "trial_index": 179}, "uniqueid": "MTK1478:3WZ36BJEV4N6G0LD5GK30NITSW0TBF", "dateTime": 1515949384586}, {"current_trial": 180, "trialdata": {"rt": -1, "trial_type": "single-stim", "word": "hiker", "stimulus": "<p id=\"stim\">HIKER</p>", "conditions": [12, 1600, "v", 12000], "internal_node_id": "0.0-126.0", "trial": 5, "time_elapsed": 1009766, "serialpos": 7, "key_press": -1, "wordID": 707, "type": "PRES_VIS", "trial_index": 180}, "uniqueid": "MTK1478:3WZ36BJEV4N6G0LD5GK30NITSW0TBF", "dateTime": 1515949387087}, {"current_trial": 181, "trialdata": {"rt": -1, "trial_type": "single-stim", "word": "climber", "stimulus": "<p id=\"stim\">CLIMBER</p>", "conditions": [12, 1600, "v", 12000], "internal_node_id": "0.0-127.0", "trial": 5, "time_elapsed": 1012383, "serialpos": 8, "key_press": -1, "wordID": 322, "type": "PRES_VIS", "trial_index": 181}, "uniqueid": "MTK1478:3WZ36BJEV4N6G0LD5GK30NITSW0TBF", "dateTime": 1515949389704}, {"current_trial": 182, "trialdata": {"rt": -1, "trial_type": "single-stim", "word": "goblin", "stimulus": "<p id=\"stim\">GOBLIN</p>", "conditions": [12, 1600, "v", 12000], "internal_node_id": "0.0-128.0", "trial": 5, "time_elapsed": 1014800, "serialpos": 9, "key_press": -1, "wordID": 644, "type": "PRES_VIS", "trial_index": 182}, "uniqueid": "MTK1478:3WZ36BJEV4N6G0LD5GK30NITSW0TBF", "dateTime": 1515949392120}, {"current_trial": 183, "trialdata": {"rt": -1, "trial_type": "single-stim", "word": "receipt", "stimulus": "<p id=\"stim\">RECEIPT</p>", "conditions": [12, 1600, "v", 12000], "internal_node_id": "0.0-129.0", "trial": 5, "time_elapsed": 1017371, "serialpos": 10, "key_press": -1, "wordID": 1172, "type": "PRES_VIS", "trial_index": 183}, "uniqueid": "MTK1478:3WZ36BJEV4N6G0LD5GK30NITSW0TBF", "dateTime": 1515949394691}, {"current_trial": 184, "trialdata": {"rt": -1, "trial_type": "single-stim", "word": "balloon", "stimulus": "<p id=\"stim\">BALLOON</p>", "conditions": [12, 1600, "v", 12000], "internal_node_id": "0.0-130.0", "trial": 5, "time_elapsed": 1020050, "serialpos": 11, "key_press": -1, "wordID": 74, "type": "PRES_VIS", "trial_index": 184}, "uniqueid": "MTK1478:3WZ36BJEV4N6G0LD5GK30NITSW0TBF", "dateTime": 1515949397370}, {"current_trial": 185, "trialdata": {"rt": -1, "trial_type": "single-stim", "stimulus": "", "internal_node_id": "0.0-131.0-0.0", "time_elapsed": 1022276, "key_press": -1, "type": "PRE_RECALL_DELAY", "trial_index": 185}, "uniqueid": "MTK1478:3WZ36BJEV4N6G0LD5GK30NITSW0TBF", "dateTime": 1515949399597}, {"current_trial": 186, "trialdata": {"rt": -1000, "trial_type": "single-audio", "stimulus": "/static/audio/400Hz.wav", "internal_node_id": "0.0-132.0", "time_elapsed": 1022780, "key_press": -1, "type": "PRE_RECALL_ALERT", "trial_index": 186}, "uniqueid": "MTK1478:3WZ36BJEV4N6G0LD5GK30NITSW0TBF", "dateTime": 1515949400101}, {"current_trial": 187, "trialdata": {"rt": [3313, 6165, 12216, 15720, 17665, 29136], "recwords": ["receipt", "baloon", "cashier", "dragon", "dime", "postage"], "key_times": [1203, 1384, 1612, 1897, 2282, 2511, 2778, 3313, 4044, 4215, 4597, 4861, 4982, 5305, 6165, 10142, 10380, 10571, 10896, 11329, 11581, 11725, 12216, 13225, 13427, 13691, 14071, 14324, 14543, 15720, 16464, 16823, 17031, 17233, 17665, 24926, 25093, 25355, 25572, 25713, 26020, 26294, 29136], "trial_type": "free-recall", "conditions": [12, 1600, "v", 12000], "internal_node_id": "0.0-133.0-0.0", "key_presses": [82, 69, 67, 69, 73, 80, 84, 13, 66, 65, 76, 79, 79, 78, 13, 67, 65, 83, 72, 73, 69, 82, 13, 68, 82, 65, 71, 79, 78, 13, 68, 73, 77, 69, 13, 80, 79, 83, 84, 65, 71, 69, 13], "trial": 5, "time_elapsed": 1082790, "type": "FREE_RECALL", "trial_index": 187}, "uniqueid": "MTK1478:3WZ36BJEV4N6G0LD5GK30NITSW0TBF", "dateTime": 1515949460120}, {"current_trial": 188, "trialdata": {"rt": 2004, "trial_type": "text", "internal_node_id": "0.0-134.0", "time_elapsed": 1086806, "key_press": 32, "type": "INSTRUCTIONS", "trial_index": 188}, "uniqueid": "MTK1478:3WZ36BJEV4N6G0LD5GK30NITSW0TBF", "dateTime": 1515949464126}, {"current_trial": 189, "trialdata": {"rt": [2770, 6320, 9105, 11410, 13491, 15347, 17916, 20039, 22073], "trial_type": "math-distractor", "key_times": [1955, 2099, 2770, 4353, 5435, 6320, 8739, 8904, 9105, 10677, 11245, 11410, 12866, 13317, 13491, 14999, 15129, 15347, 17313, 17725, 17916, 19408, 19846, 20039, 21695, 21862, 22073, 23793], "responses": ["11", "14", "23", "18", "16", "11", "15", "14", "21"], "num2": [9, 3, 9, 4, 7, 7, 3, 1, 9, 5], "num3": [1, 6, 7, 7, 1, 3, 3, 9, 9, 7], "conditions": [12, 800, "v", 24000], "internal_node_id": "0.0-135.0", "key_presses": [49, 49, 13, 49, 52, 13, 50, 51, 13, 49, 56, 13, 49, 54, 13, 49, 49, 13, 49, 53, 13, 49, 52, 13, 50, 49, 13, 49], "trial": 6, "time_elapsed": 1112816, "type": "DISTRACTOR", "trial_index": 189, "num1": [1, 5, 7, 9, 8, 1, 9, 4, 3, 7]}, "uniqueid": "MTK1478:3WZ36BJEV4N6G0LD5GK30NITSW0TBF", "dateTime": 1515949490136}, {"current_trial": 190, "trialdata": {"rt": -1, "trial_type": "single-stim", "stimulus": "<p id=\"stim\">10</p>", "internal_node_id": "0.0-136.0-0.0", "time_elapsed": 1115821, "key_press": -1, "trial_index": 190}, "uniqueid": "MTK1478:3WZ36BJEV4N6G0LD5GK30NITSW0TBF", "dateTime": 1515949493141}, {"current_trial": 191, "trialdata": {"rt": -1, "trial_type": "single-stim", "stimulus": "<p id=\"stim\">9</p>", "internal_node_id": "0.0-136.0-1.0", "time_elapsed": 1116824, "key_press": -1, "trial_index": 191}, "uniqueid": "MTK1478:3WZ36BJEV4N6G0LD5GK30NITSW0TBF", "dateTime": 1515949494144}, {"current_trial": 192, "trialdata": {"rt": -1, "trial_type": "single-stim", "stimulus": "<p id=\"stim\">8</p>", "internal_node_id": "0.0-136.0-2.0", "time_elapsed": 1117827, "key_press": -1, "trial_index": 192}, "uniqueid": "MTK1478:3WZ36BJEV4N6G0LD5GK30NITSW0TBF", "dateTime": 1515949495148}, {"current_trial": 193, "trialdata": {"rt": -1, "trial_type": "single-stim", "stimulus": "<p id=\"stim\">7</p>", "internal_node_id": "0.0-136.0-3.0", "time_elapsed": 1118831, "key_press": -1, "trial_index": 193}, "uniqueid": "MTK1478:3WZ36BJEV4N6G0LD5GK30NITSW0TBF", "dateTime": 1515949496152}, {"current_trial": 194, "trialdata": {"rt": -1, "trial_type": "single-stim", "stimulus": "<p id=\"stim\">6</p>", "internal_node_id": "0.0-136.0-4.0", "time_elapsed": 1119835, "key_press": -1, "trial_index": 194}, "uniqueid": "MTK1478:3WZ36BJEV4N6G0LD5GK30NITSW0TBF", "dateTime": 1515949497155}, {"current_trial": 195, "trialdata": {"rt": -1, "trial_type": "single-stim", "stimulus": "<p id=\"stim\">5</p>", "internal_node_id": "0.0-136.0-5.0", "time_elapsed": 1120838, "key_press": -1, "trial_index": 195}, "uniqueid": "MTK1478:3WZ36BJEV4N6G0LD5GK30NITSW0TBF", "dateTime": 1515949498159}, {"current_trial": 196, "trialdata": {"rt": -1, "trial_type": "single-stim", "stimulus": "<p id=\"stim\">4</p>", "internal_node_id": "0.0-136.0-6.0", "time_elapsed": 1121842, "key_press": -1, "trial_index": 196}, "uniqueid": "MTK1478:3WZ36BJEV4N6G0LD5GK30NITSW0TBF", "dateTime": 1515949499162}, {"current_trial": 197, "trialdata": {"rt": -1, "trial_type": "single-stim", "stimulus": "<p id=\"stim\">3</p>", "internal_node_id": "0.0-136.0-7.0", "time_elapsed": 1122847, "key_press": -1, "trial_index": 197}, "uniqueid": "MTK1478:3WZ36BJEV4N6G0LD5GK30NITSW0TBF", "dateTime": 1515949500168}, {"current_trial": 198, "trialdata": {"rt": -1, "trial_type": "single-stim", "stimulus": "<p id=\"stim\">2</p>", "internal_node_id": "0.0-136.0-8.0", "time_elapsed": 1123851, "key_press": -1, "trial_index": 198}, "uniqueid": "MTK1478:3WZ36BJEV4N6G0LD5GK30NITSW0TBF", "dateTime": 1515949501171}, {"current_trial": 199, "trialdata": {"rt": -1, "trial_type": "single-stim", "stimulus": "<p id=\"stim\">1</p>", "internal_node_id": "0.0-136.0-9.0", "time_elapsed": 1124852, "key_press": -1, "trial_index": 199}, "uniqueid": "MTK1478:3WZ36BJEV4N6G0LD5GK30NITSW0TBF", "dateTime": 1515949502172}, {"current_trial": 200, "trialdata": {"rt": -1, "trial_type": "single-stim", "stimulus": "<p id=\"stim\">+</p>", "internal_node_id": "0.0-137.0-0.0", "time_elapsed": 1126356, "key_press": -1, "type": "FIXATION", "trial_index": 200}, "uniqueid": "MTK1478:3WZ36BJEV4N6G0LD5GK30NITSW0TBF", "dateTime": 1515949503676}, {"current_trial": 201, "trialdata": {"rt": -1, "trial_type": "single-stim", "word": "dustpan", "stimulus": "<p id=\"stim\">DUSTPAN</p>", "conditions": [12, 800, "v", 24000], "internal_node_id": "0.0-138.0", "trial": 6, "time_elapsed": 1127159, "serialpos": 0, "key_press": -1, "wordID": 508, "type": "PRES_VIS", "trial_index": 201}, "uniqueid": "MTK1478:3WZ36BJEV4N6G0LD5GK30NITSW0TBF", "dateTime": 1515949504480}, {"current_trial": 202, "trialdata": {"rt": -1, "trial_type": "single-stim", "word": "atom", "stimulus": "<p id=\"stim\">ATOM</p>", "conditions": [12, 800, "v", 24000], "internal_node_id": "0.0-139.0", "trial": 6, "time_elapsed": 1128988, "serialpos": 1, "key_press": -1, "wordID": 54, "type": "PRES_VIS", "trial_index": 202}, "uniqueid": "MTK1478:3WZ36BJEV4N6G0LD5GK30NITSW0TBF", "dateTime": 1515949506309}, {"current_trial": 203, "trialdata": {"rt": -1, "trial_type": "single-stim", "word": "thief", "stimulus": "<p id=\"stim\">THIEF</p>", "conditions": [12, 800, "v", 24000], "internal_node_id": "0.0-140.0", "trial": 6, "time_elapsed": 1130638, "serialpos": 2, "key_press": -1, "wordID": 1455, "type": "PRES_VIS", "trial_index": 203}, "uniqueid": "MTK1478:3WZ36BJEV4N6G0LD5GK30NITSW0TBF", "dateTime": 1515949507958}, {"current_trial": 204, "trialdata": {"rt": -1, "trial_type": "single-stim", "word": "princess", "stimulus": "<p id=\"stim\">PRINCESS</p>", "conditions": [12, 800, "v", 24000], "internal_node_id": "0.0-141.0", "trial": 6, "time_elapsed": 1132375, "serialpos": 3, "key_press": -1, "wordID": 1124, "type": "PRES_VIS", "trial_index": 204}, "uniqueid": "MTK1478:3WZ36BJEV4N6G0LD5GK30NITSW0TBF", "dateTime": 1515949509695}, {"current_trial": 205, "trialdata": {"rt": -1, "trial_type": "single-stim", "word": "queen", "stimulus": "<p id=\"stim\">QUEEN</p>", "conditions": [12, 800, "v", 24000], "internal_node_id": "0.0-142.0", "trial": 6, "time_elapsed": 1134017, "serialpos": 4, "key_press": -1, "wordID": 1148, "type": "PRES_VIS", "trial_index": 205}, "uniqueid": "MTK1478:3WZ36BJEV4N6G0LD5GK30NITSW0TBF", "dateTime": 1515949511338}, {"current_trial": 206, "trialdata": {"rt": -1, "trial_type": "single-stim", "word": "atlas", "stimulus": "<p id=\"stim\">ATLAS</p>", "conditions": [12, 800, "v", 24000], "internal_node_id": "0.0-143.0", "trial": 6, "time_elapsed": 1135636, "serialpos": 5, "key_press": -1, "wordID": 52, "type": "PRES_VIS", "trial_index": 206}, "uniqueid": "MTK1478:3WZ36BJEV4N6G0LD5GK30NITSW0TBF", "dateTime": 1515949512956}, {"current_trial": 207, "trialdata": {"rt": -1, "trial_type": "single-stim", "word": "gazelle", "stimulus": "<p id=\"stim\">GAZELLE</p>", "conditions": [12, 800, "v", 24000], "internal_node_id": "0.0-144.0", "trial": 6, "time_elapsed": 1137302, "serialpos": 6, "key_press": -1, "wordID": 627, "type": "PRES_VIS", "trial_index": 207}, "uniqueid": "MTK1478:3WZ36BJEV4N6G0LD5GK30NITSW0TBF", "dateTime": 1515949514623}, {"current_trial": 208, "trialdata": {"rt": -1, "trial_type": "single-stim", "word": "shrub", "stimulus": "<p id=\"stim\">SHRUB</p>", "conditions": [12, 800, "v", 24000], "internal_node_id": "0.0-145.0", "trial": 6, "time_elapsed": 1138974, "serialpos": 7, "key_press": -1, "wordID": 1298, "type": "PRES_VIS", "trial_index": 208}, "uniqueid": "MTK1478:3WZ36BJEV4N6G0LD5GK30NITSW0TBF", "dateTime": 1515949516295}, {"current_trial": 209, "trialdata": {"rt": -1, "trial_type": "single-stim", "word": "robber", "stimulus": "<p id=\"stim\">ROBBER</p>", "conditions": [12, 800, "v", 24000], "internal_node_id": "0.0-146.0", "trial": 6, "time_elapsed": 1140583, "serialpos": 8, "key_press": -1, "wordID": 1196, "type": "PRES_VIS", "trial_index": 209}, "uniqueid": "MTK1478:3WZ36BJEV4N6G0LD5GK30NITSW0TBF", "dateTime": 1515949517903}, {"current_trial": 210, "trialdata": {"rt": -1, "trial_type": "single-stim", "word": "lapel", "stimulus": "<p id=\"stim\">LAPEL</p>", "conditions": [12, 800, "v", 24000], "internal_node_id": "0.0-147.0", "trial": 6, "time_elapsed": 1142374, "serialpos": 9, "key_press": -1, "wordID": 799, "type": "PRES_VIS", "trial_index": 210}, "uniqueid": "MTK1478:3WZ36BJEV4N6G0LD5GK30NITSW0TBF", "dateTime": 1515949519695}, {"current_trial": 211, "trialdata": {"rt": -1, "trial_type": "single-stim", "word": "diner", "stimulus": "<p id=\"stim\">DINER</p>", "conditions": [12, 800, "v", 24000], "internal_node_id": "0.0-148.0", "trial": 6, "time_elapsed": 1144351, "serialpos": 10, "key_press": -1, "wordID": 466, "type": "PRES_VIS", "trial_index": 211}, "uniqueid": "MTK1478:3WZ36BJEV4N6G0LD5GK30NITSW0TBF", "dateTime": 1515949521672}, {"current_trial": 212, "trialdata": {"rt": -1, "trial_type": "single-stim", "word": "whiskers", "stimulus": "<p id=\"stim\">WHISKERS</p>", "conditions": [12, 800, "v", 24000], "internal_node_id": "0.0-149.0", "trial": 6, "time_elapsed": 1145987, "serialpos": 11, "key_press": -1, "wordID": 1604, "type": "PRES_VIS", "trial_index": 212}, "uniqueid": "MTK1478:3WZ36BJEV4N6G0LD5GK30NITSW0TBF", "dateTime": 1515949523308}, {"current_trial": 213, "trialdata": {"rt": -1, "trial_type": "single-stim", "stimulus": "", "internal_node_id": "0.0-150.0-0.0", "time_elapsed": 1148284, "key_press": -1, "type": "PRE_RECALL_DELAY", "trial_index": 213}, "uniqueid": "MTK1478:3WZ36BJEV4N6G0LD5GK30NITSW0TBF", "dateTime": 1515949525605}, {"current_trial": 214, "trialdata": {"rt": -1000, "trial_type": "single-audio", "stimulus": "/static/audio/400Hz.wav", "internal_node_id": "0.0-151.0", "time_elapsed": 1148788, "key_press": -1, "type": "PRE_RECALL_ALERT", "trial_index": 214}, "uniqueid": "MTK1478:3WZ36BJEV4N6G0LD5GK30NITSW0TBF", "dateTime": 1515949526108}, {"current_trial": 215, "trialdata": {"rt": [2918, 5936, 8685, 10983, 14920, 46659, 50777], "recwords": ["diner", "whiskers", "lapel", "princess", "queen", "dustpan", "atom"], "key_times": [951, 1163, 1386, 1638, 1781, 2918, 3616, 3914, 4216, 4479, 4860, 5127, 5259, 5522, 5936, 6555, 6798, 7207, 7465, 7724, 8685, 9056, 9326, 9567, 9787, 10038, 10275, 10510, 10621, 10983, 12952, 13120, 13351, 13469, 13696, 14920, 43576, 43842, 44095, 44582, 45302, 45472, 45725, 46659, 49317, 49695, 49901, 50116, 50777], "trial_type": "free-recall", "conditions": [12, 800, "v", 24000], "internal_node_id": "0.0-152.0-0.0", "key_presses": [68, 73, 78, 69, 82, 13, 87, 72, 73, 83, 75, 69, 82, 83, 13, 76, 65, 80, 69, 76, 13, 80, 82, 73, 78, 67, 69, 83, 83, 13, 81, 85, 69, 69, 78, 13, 68, 85, 83, 84, 80, 65, 78, 13, 65, 84, 79, 77, 13], "trial": 6, "time_elapsed": 1208799, "type": "FREE_RECALL", "trial_index": 215}, "uniqueid": "MTK1478:3WZ36BJEV4N6G0LD5GK30NITSW0TBF", "dateTime": 1515949586132}, {"current_trial": 216, "trialdata": {"rt": 3273, "trial_type": "text", "internal_node_id": "0.0-153.0", "time_elapsed": 1214087, "key_press": 32, "type": "INSTRUCTIONS", "trial_index": 216}, "uniqueid": "MTK1478:3WZ36BJEV4N6G0LD5GK30NITSW0TBF", "dateTime": 1515949591408}, {"current_trial": 217, "trialdata": {"rt": [3342, 5606, 8429, 10244], "trial_type": "math-distractor", "key_times": [1945, 2101, 3342, 4864, 5413, 5606, 6914, 7619, 8429, 9806, 10073, 10244], "responses": ["11", "18", "19", "13"], "num2": [1, 7, 7, 1, 6], "num3": [8, 8, 3, 3, 9], "conditions": [24, 800, "v", 12000], "internal_node_id": "0.0-154.0", "key_presses": [49, 49, 13, 49, 56, 13, 49, 57, 13, 49, 51, 13], "trial": 7, "time_elapsed": 1228097, "type": "DISTRACTOR", "trial_index": 217, "num1": [2, 3, 9, 9, 7]}, "uniqueid": "MTK1478:3WZ36BJEV4N6G0LD5GK30NITSW0TBF", "dateTime": 1515949605417}, {"current_trial": 218, "trialdata": {"rt": -1, "trial_type": "single-stim", "stimulus": "<p id=\"stim\">10</p>", "internal_node_id": "0.0-155.0-0.0", "time_elapsed": 1231100, "key_press": -1, "trial_index": 218}, "uniqueid": "MTK1478:3WZ36BJEV4N6G0LD5GK30NITSW0TBF", "dateTime": 1515949608420}, {"current_trial": 219, "trialdata": {"rt": -1, "trial_type": "single-stim", "stimulus": "<p id=\"stim\">9</p>", "internal_node_id": "0.0-155.0-1.0", "time_elapsed": 1232102, "key_press": -1, "trial_index": 219}, "uniqueid": "MTK1478:3WZ36BJEV4N6G0LD5GK30NITSW0TBF", "dateTime": 1515949609422}, {"current_trial": 220, "trialdata": {"rt": -1, "trial_type": "single-stim", "stimulus": "<p id=\"stim\">8</p>", "internal_node_id": "0.0-155.0-2.0", "time_elapsed": 1233104, "key_press": -1, "trial_index": 220}, "uniqueid": "MTK1478:3WZ36BJEV4N6G0LD5GK30NITSW0TBF", "dateTime": 1515949610426}, {"current_trial": 221, "trialdata": {"rt": -1, "trial_type": "single-stim", "stimulus": "<p id=\"stim\">7</p>", "internal_node_id": "0.0-155.0-3.0", "time_elapsed": 1234109, "key_press": -1, "trial_index": 221}, "uniqueid": "MTK1478:3WZ36BJEV4N6G0LD5GK30NITSW0TBF", "dateTime": 1515949611429}, {"current_trial": 222, "trialdata": {"rt": -1, "trial_type": "single-stim", "stimulus": "<p id=\"stim\">6</p>", "internal_node_id": "0.0-155.0-4.0", "time_elapsed": 1235112, "key_press": -1, "trial_index": 222}, "uniqueid": "MTK1478:3WZ36BJEV4N6G0LD5GK30NITSW0TBF", "dateTime": 1515949612433}, {"current_trial": 223, "trialdata": {"rt": -1, "trial_type": "single-stim", "stimulus": "<p id=\"stim\">5</p>", "internal_node_id": "0.0-155.0-5.0", "time_elapsed": 1236115, "key_press": -1, "trial_index": 223}, "uniqueid": "MTK1478:3WZ36BJEV4N6G0LD5GK30NITSW0TBF", "dateTime": 1515949613435}, {"current_trial": 224, "trialdata": {"rt": -1, "trial_type": "single-stim", "stimulus": "<p id=\"stim\">4</p>", "internal_node_id": "0.0-155.0-6.0", "time_elapsed": 1237119, "key_press": -1, "trial_index": 224}, "uniqueid": "MTK1478:3WZ36BJEV4N6G0LD5GK30NITSW0TBF", "dateTime": 1515949614439}, {"current_trial": 225, "trialdata": {"rt": -1, "trial_type": "single-stim", "stimulus": "<p id=\"stim\">3</p>", "internal_node_id": "0.0-155.0-7.0", "time_elapsed": 1238122, "key_press": -1, "trial_index": 225}, "uniqueid": "MTK1478:3WZ36BJEV4N6G0LD5GK30NITSW0TBF", "dateTime": 1515949615442}, {"current_trial": 226, "trialdata": {"rt": -1, "trial_type": "single-stim", "stimulus": "<p id=\"stim\">2</p>", "internal_node_id": "0.0-155.0-8.0", "time_elapsed": 1239126, "key_press": -1, "trial_index": 226}, "uniqueid": "MTK1478:3WZ36BJEV4N6G0LD5GK30NITSW0TBF", "dateTime": 1515949616447}, {"current_trial": 227, "trialdata": {"rt": -1, "trial_type": "single-stim", "stimulus": "<p id=\"stim\">1</p>", "internal_node_id": "0.0-155.0-9.0", "time_elapsed": 1240130, "key_press": -1, "trial_index": 227}, "uniqueid": "MTK1478:3WZ36BJEV4N6G0LD5GK30NITSW0TBF", "dateTime": 1515949617451}, {"current_trial": 228, "trialdata": {"rt": -1, "trial_type": "single-stim", "stimulus": "<p id=\"stim\">+</p>", "internal_node_id": "0.0-156.0-0.0", "time_elapsed": 1241633, "key_press": -1, "type": "FIXATION", "trial_index": 228}, "uniqueid": "MTK1478:3WZ36BJEV4N6G0LD5GK30NITSW0TBF", "dateTime": 1515949618954}, {"current_trial": 229, "trialdata": {"rt": -1, "trial_type": "single-stim", "word": "rod", "stimulus": "<p id=\"stim\">ROD</p>", "conditions": [24, 800, "v", 12000], "internal_node_id": "0.0-157.0", "trial": 7, "time_elapsed": 1242436, "serialpos": 0, "key_press": -1, "wordID": 1202, "type": "PRES_VIS", "trial_index": 229}, "uniqueid": "MTK1478:3WZ36BJEV4N6G0LD5GK30NITSW0TBF", "dateTime": 1515949619757}, {"current_trial": 230, "trialdata": {"rt": -1, "trial_type": "single-stim", "word": "milk", "stimulus": "<p id=\"stim\">MILK</p>", "conditions": [24, 800, "v", 12000], "internal_node_id": "0.0-158.0", "trial": 7, "time_elapsed": 1244203, "serialpos": 1, "key_press": -1, "wordID": 894, "type": "PRES_VIS", "trial_index": 230}, "uniqueid": "MTK1478:3WZ36BJEV4N6G0LD5GK30NITSW0TBF", "dateTime": 1515949621524}, {"current_trial": 231, "trialdata": {"rt": -1, "trial_type": "single-stim", "word": "honey", "stimulus": "<p id=\"stim\">HONEY</p>", "conditions": [24, 800, "v", 12000], "internal_node_id": "0.0-159.0", "trial": 7, "time_elapsed": 1245869, "serialpos": 2, "key_press": -1, "wordID": 712, "type": "PRES_VIS", "trial_index": 231}, "uniqueid": "MTK1478:3WZ36BJEV4N6G0LD5GK30NITSW0TBF", "dateTime": 1515949623189}, {"current_trial": 232, "trialdata": {"rt": -1, "trial_type": "single-stim", "word": "statue", "stimulus": "<p id=\"stim\">STATUE</p>", "conditions": [24, 800, "v", 12000], "internal_node_id": "0.0-160.0", "trial": 7, "time_elapsed": 1247787, "serialpos": 3, "key_press": -1, "wordID": 1373, "type": "PRES_VIS", "trial_index": 232}, "uniqueid": "MTK1478:3WZ36BJEV4N6G0LD5GK30NITSW0TBF", "dateTime": 1515949625108}, {"current_trial": 233, "trialdata": {"rt": -1, "trial_type": "single-stim", "word": "marine", "stimulus": "<p id=\"stim\">MARINE</p>", "conditions": [24, 800, "v", 12000], "internal_node_id": "0.0-161.0", "trial": 7, "time_elapsed": 1249446, "serialpos": 4, "key_press": -1, "wordID": 868, "type": "PRES_VIS", "trial_index": 233}, "uniqueid": "MTK1478:3WZ36BJEV4N6G0LD5GK30NITSW0TBF", "dateTime": 1515949626766}, {"current_trial": 234, "trialdata": {"rt": -1, "trial_type": "single-stim", "word": "lamp", "stimulus": "<p id=\"stim\">LAMP</p>", "conditions": [24, 800, "v", 12000], "internal_node_id": "0.0-162.0", "trial": 7, "time_elapsed": 1251074, "serialpos": 5, "key_press": -1, "wordID": 797, "type": "PRES_VIS", "trial_index": 234}, "uniqueid": "MTK1478:3WZ36BJEV4N6G0LD5GK30NITSW0TBF", "dateTime": 1515949628395}, {"current_trial": 235, "trialdata": {"rt": -1, "trial_type": "single-stim", "word": "beaver", "stimulus": "<p id=\"stim\">BEAVER</p>", "conditions": [24, 800, "v", 12000], "internal_node_id": "0.0-163.0", "trial": 7, "time_elapsed": 1252775, "serialpos": 6, "key_press": -1, "wordID": 108, "type": "PRES_VIS", "trial_index": 235}, "uniqueid": "MTK1478:3WZ36BJEV4N6G0LD5GK30NITSW0TBF", "dateTime": 1515949630096}, {"current_trial": 236, "trialdata": {"rt": -1, "trial_type": "single-stim", "word": "casket", "stimulus": "<p id=\"stim\">CASKET</p>", "conditions": [24, 800, "v", 12000], "internal_node_id": "0.0-164.0", "trial": 7, "time_elapsed": 1254680, "serialpos": 7, "key_press": -1, "wordID": 254, "type": "PRES_VIS", "trial_index": 236}, "uniqueid": "MTK1478:3WZ36BJEV4N6G0LD5GK30NITSW0TBF", "dateTime": 1515949632000}, {"current_trial": 237, "trialdata": {"rt": -1, "trial_type": "single-stim", "word": "binder", "stimulus": "<p id=\"stim\">BINDER</p>", "conditions": [24, 800, "v", 12000], "internal_node_id": "0.0-165.0", "trial": 7, "time_elapsed": 1256661, "serialpos": 8, "key_press": -1, "wordID": 126, "type": "PRES_VIS", "trial_index": 237}, "uniqueid": "MTK1478:3WZ36BJEV4N6G0LD5GK30NITSW0TBF", "dateTime": 1515949633981}, {"current_trial": 238, "trialdata": {"rt": -1, "trial_type": "single-stim", "word": "salmon", "stimulus": "<p id=\"stim\">SALMON</p>", "conditions": [24, 800, "v", 12000], "internal_node_id": "0.0-166.0", "trial": 7, "time_elapsed": 1258609, "serialpos": 9, "key_press": -1, "wordID": 1226, "type": "PRES_VIS", "trial_index": 238}, "uniqueid": "MTK1478:3WZ36BJEV4N6G0LD5GK30NITSW0TBF", "dateTime": 1515949635930}, {"current_trial": 239, "trialdata": {"rt": -1, "trial_type": "single-stim", "word": "tombstone", "stimulus": "<p id=\"stim\">TOMBSTONE</p>", "conditions": [24, 800, "v", 12000], "internal_node_id": "0.0-167.0", "trial": 7, "time_elapsed": 1260559, "serialpos": 10, "key_press": -1, "wordID": 1477, "type": "PRES_VIS", "trial_index": 239}, "uniqueid": "MTK1478:3WZ36BJEV4N6G0LD5GK30NITSW0TBF", "dateTime": 1515949637879}, {"current_trial": 240, "trialdata": {"rt": -1, "trial_type": "single-stim", "word": "sphinx", "stimulus": "<p id=\"stim\">SPHINX</p>", "conditions": [24, 800, "v", 12000], "internal_node_id": "0.0-168.0", "trial": 7, "time_elapsed": 1262232, "serialpos": 11, "key_press": -1, "wordID": 1348, "type": "PRES_VIS", "trial_index": 240}, "uniqueid": "MTK1478:3WZ36BJEV4N6G0LD5GK30NITSW0TBF", "dateTime": 1515949639552}, {"current_trial": 241, "trialdata": {"rt": -1, "trial_type": "single-stim", "word": "leg", "stimulus": "<p id=\"stim\">LEG</p>", "conditions": [24, 800, "v", 12000], "internal_node_id": "0.0-169.0", "trial": 7, "time_elapsed": 1263994, "serialpos": 12, "key_press": -1, "wordID": 808, "type": "PRES_VIS", "trial_index": 241}, "uniqueid": "MTK1478:3WZ36BJEV4N6G0LD5GK30NITSW0TBF", "dateTime": 1515949641315}, {"current_trial": 242, "trialdata": {"rt": -1, "trial_type": "single-stim", "word": "arm", "stimulus": "<p id=\"stim\">ARM</p>", "conditions": [24, 800, "v", 12000], "internal_node_id": "0.0-170.0", "trial": 7, "time_elapsed": 1265825, "serialpos": 13, "key_press": -1, "wordID": 37, "type": "PRES_VIS", "trial_index": 242}, "uniqueid": "MTK1478:3WZ36BJEV4N6G0LD5GK30NITSW0TBF", "dateTime": 1515949643145}, {"current_trial": 243, "trialdata": {"rt": -1, "trial_type": "single-stim", "word": "donkey", "stimulus": "<p id=\"stim\">DONKEY</p>", "conditions": [24, 800, "v", 12000], "internal_node_id": "0.0-171.0", "trial": 7, "time_elapsed": 1267712, "serialpos": 14, "key_press": -1, "wordID": 483, "type": "PRES_VIS", "trial_index": 243}, "uniqueid": "MTK1478:3WZ36BJEV4N6G0LD5GK30NITSW0TBF", "dateTime": 1515949645033}, {"current_trial": 244, "trialdata": {"rt": -1, "trial_type": "single-stim", "word": "supper", "stimulus": "<p id=\"stim\">SUPPER</p>", "conditions": [24, 800, "v", 12000], "internal_node_id": "0.0-172.0", "trial": 7, "time_elapsed": 1269708, "serialpos": 15, "key_press": -1, "wordID": 1410, "type": "PRES_VIS", "trial_index": 244}, "uniqueid": "MTK1478:3WZ36BJEV4N6G0LD5GK30NITSW0TBF", "dateTime": 1515949647029}, {"current_trial": 245, "trialdata": {"rt": -1, "trial_type": "single-stim", "word": "shortcake", "stimulus": "<p id=\"stim\">SHORTCAKE</p>", "conditions": [24, 800, "v", 12000], "internal_node_id": "0.0-173.0", "trial": 7, "time_elapsed": 1271488, "serialpos": 16, "key_press": -1, "wordID": 1291, "type": "PRES_VIS", "trial_index": 245}, "uniqueid": "MTK1478:3WZ36BJEV4N6G0LD5GK30NITSW0TBF", "dateTime": 1515949648808}, {"current_trial": 246, "trialdata": {"rt": -1, "trial_type": "single-stim", "word": "outdoors", "stimulus": "<p id=\"stim\">OUTDOORS</p>", "conditions": [24, 800, "v", 12000], "internal_node_id": "0.0-174.0", "trial": 7, "time_elapsed": 1273224, "serialpos": 17, "key_press": -1, "wordID": 986, "type": "PRES_VIS", "trial_index": 246}, "uniqueid": "MTK1478:3WZ36BJEV4N6G0LD5GK30NITSW0TBF", "dateTime": 1515949650545}, {"current_trial": 247, "trialdata": {"rt": -1, "trial_type": "single-stim", "word": "creature", "stimulus": "<p id=\"stim\">CREATURE</p>", "conditions": [24, 800, "v", 12000], "internal_node_id": "0.0-175.0", "trial": 7, "time_elapsed": 1274844, "serialpos": 18, "key_press": -1, "wordID": 402, "type": "PRES_VIS", "trial_index": 247}, "uniqueid": "MTK1478:3WZ36BJEV4N6G0LD5GK30NITSW0TBF", "dateTime": 1515949652165}, {"current_trial": 248, "trialdata": {"rt": -1, "trial_type": "single-stim", "word": "camel", "stimulus": "<p id=\"stim\">CAMEL</p>", "conditions": [24, 800, "v", 12000], "internal_node_id": "0.0-176.0", "trial": 7, "time_elapsed": 1276687, "serialpos": 19, "key_press": -1, "wordID": 222, "type": "PRES_VIS", "trial_index": 248}, "uniqueid": "MTK1478:3WZ36BJEV4N6G0LD5GK30NITSW0TBF", "dateTime": 1515949654008}, {"current_trial": 249, "trialdata": {"rt": -1, "trial_type": "single-stim", "word": "driver", "stimulus": "<p id=\"stim\">DRIVER</p>", "conditions": [24, 800, "v", 12000], "internal_node_id": "0.0-177.0", "trial": 7, "time_elapsed": 1278507, "serialpos": 20, "key_press": -1, "wordID": 498, "type": "PRES_VIS", "trial_index": 249}, "uniqueid": "MTK1478:3WZ36BJEV4N6G0LD5GK30NITSW0TBF", "dateTime": 1515949655828}, {"current_trial": 250, "trialdata": {"rt": -1, "trial_type": "single-stim", "word": "cyclone", "stimulus": "<p id=\"stim\">CYCLONE</p>", "conditions": [24, 800, "v", 12000], "internal_node_id": "0.0-178.0", "trial": 7, "time_elapsed": 1280210, "serialpos": 21, "key_press": -1, "wordID": 430, "type": "PRES_VIS", "trial_index": 250}, "uniqueid": "MTK1478:3WZ36BJEV4N6G0LD5GK30NITSW0TBF", "dateTime": 1515949657530}, {"current_trial": 251, "trialdata": {"rt": -1, "trial_type": "single-stim", "word": "relish", "stimulus": "<p id=\"stim\">RELISH</p>", "conditions": [24, 800, "v", 12000], "internal_node_id": "0.0-179.0", "trial": 7, "time_elapsed": 1282163, "serialpos": 22, "key_press": -1, "wordID": 1182, "type": "PRES_VIS", "trial_index": 251}, "uniqueid": "MTK1478:3WZ36BJEV4N6G0LD5GK30NITSW0TBF", "dateTime": 1515949659484}, {"current_trial": 252, "trialdata": {"rt": -1, "trial_type": "single-stim", "word": "barley", "stimulus": "<p id=\"stim\">BARLEY</p>", "conditions": [24, 800, "v", 12000], "internal_node_id": "0.0-180.0", "trial": 7, "time_elapsed": 1283937, "serialpos": 23, "key_press": -1, "wordID": 87, "type": "PRES_VIS", "trial_index": 252}, "uniqueid": "MTK1478:3WZ36BJEV4N6G0LD5GK30NITSW0TBF", "dateTime": 1515949661257}, {"current_trial": 253, "trialdata": {"rt": -1, "trial_type": "single-stim", "stimulus": "", "internal_node_id": "0.0-181.0-0.0", "time_elapsed": 1286224, "key_press": -1, "type": "PRE_RECALL_DELAY", "trial_index": 253}, "uniqueid": "MTK1478:3WZ36BJEV4N6G0LD5GK30NITSW0TBF", "dateTime": 1515949663545}, {"current_trial": 254, "trialdata": {"rt": -1000, "trial_type": "single-audio", "stimulus": "/static/audio/400Hz.wav", "internal_node_id": "0.0-182.0", "time_elapsed": 1286728, "key_press": -1, "type": "PRE_RECALL_ALERT", "trial_index": 254}, "uniqueid": "MTK1478:3WZ36BJEV4N6G0LD5GK30NITSW0TBF", "dateTime": 1515949664049}, {"current_trial": 255, "trialdata": {"rt": [2848, 6003, 9255, 22650, 32179, 36246, 41381], "recwords": ["barley", "cyclone", "donkey", "driver", "rod", "salmon", "outdoor"], "key_times": [619, 807, 1193, 1600, 1878, 2224, 2848, 3351, 3800, 4169, 4515, 4725, 4961, 5198, 6003, 6772, 7032, 7298, 7743, 8040, 8368, 9255, 20967, 21184, 21463, 21848, 22071, 22216, 22650, 30914, 31273, 31576, 32179, 34284, 34457, 34641, 34925, 35166, 35428, 36246, 39025, 39268, 39520, 39856, 40233, 40397, 40622, 41381], "trial_type": "free-recall", "conditions": [24, 800, "v", 12000], "internal_node_id