{"assignmentId": "31Z0PCVWULMJEOINSZ8NVLWX96HT71", "workerId": "MTK1527", "questiondata": {"origin": "United States", "strat-rehearsal": "33", "marital": "Married/Domestic Partnership", "education": "Master's degree", "ethnicity": "Not Hispanic", "color_depth": 24, "distracted": "No", "wrote-notes": "Yes", "strat-other": "I tried to sing the words and group within categories", "screen_width": 1366, "avail_screen_width": 1366, "avail_screen_height": 728, "strat-image": "62", "language": "english", "gender": "Female", "age": "-43", "gender_other": "", "race": ["White"], "strat-categorize": "63", "pixel_depth": 24, "strat-spatial": "9", "strat-story": "70", "race_other": "", "screen_height": 768}, "bonus": 0, "hitId": "3W5PY7V3UPE6SLKPDCFHH8X1YY5JYR", "counterbalance": 574, "useragent": "Mozilla/5.0 (Windows NT 10.0; Win64; x64) AppleWebKit/537.36 (KHTML, like Gecko) Chrome/63.0.3239.132 Safari/537.36", "eventdata": [{"eventtype": "initialized", "interval": 0, "value": null, "timestamp": 1515952896472}, {"eventtype": "window_resize", "interval": 0, "value": [1366, 721], "timestamp": 1515952896472}, {"eventtype": "window_resize", "interval": 3124190, "value": [1517, 801], "timestamp": 1515956020662}], "data": [{"current_trial": 0, "trialdata": {"rt": 7296, "trial_type": "text", "internal_node_id": "0.0-0.0", "time_elapsed": 7301, "key_press": 78, "type": "INSTRUCTIONS", "trial_index": 0}, "uniqueid": "MTK1527:31Z0PCVWULMJEOINSZ8NVLWX96HT71", "dateTime": 1515952904448}, {"current_trial": 1, "trialdata": {"rt": 8091, "trial_type": "text", "internal_node_id": "0.0-1.0", "time_elapsed": 15396, "key_press": 175, "type": "INSTRUCTIONS", "trial_index": 1}, "uniqueid": "MTK1527:31Z0PCVWULMJEOINSZ8NVLWX96HT71", "dateTime": 1515952912542}, {"current_trial": 2, "trialdata": {"rt": [37404], "trial_type": "audio-test", "responses": ["ocean"], "internal_node_id": "0.0-2.0", "time_elapsed": 52836, "type": "AUDIO_TEST", "trial_index": 2}, "uniqueid": "MTK1527:31Z0PCVWULMJEOINSZ8NVLWX96HT71", "dateTime": 1515952949982}, {"current_trial": 3, "trialdata": {"rt": [46467], "trial_type": "audio-test", "responses": ["crystal"], "internal_node_id": "0.0-3.0", "time_elapsed": 99323, "type": "AUDIO_TEST", "trial_index": 3}, "uniqueid": "MTK1527:31Z0PCVWULMJEOINSZ8NVLWX96HT71", "dateTime": 1515952996469}, {"current_trial": 4, "trialdata": {"rt": [8688], "trial_type": "audio-test", "responses": ["spice"], "internal_node_id": "0.0-4.0", "time_elapsed": 108031, "type": "AUDIO_TEST", "trial_index": 4}, "uniqueid": "MTK1527:31Z0PCVWULMJEOINSZ8NVLWX96HT71", "dateTime": 1515953005177}, {"current_trial": 5, "trialdata": {"rt": 23251, "trial_type": "survey-text", "responses": "{\"Q0\":\"10:00 pm\",\"Q1\":\"7:00\",\"Q2\":\"4\"}", "internal_node_id": "0.0-5.0", "time_elapsed": 132046, "type": "SLEEP_SURVEY", "trial_index": 5}, "uniqueid": "MTK1527:31Z0PCVWULMJEOINSZ8NVLWX96HT71", "dateTime": 1515953029192}, {"current_trial": 6, "trialdata": {"rt": 45599, "trial_type": "text", "internal_node_id": "0.0-6.0", "time_elapsed": 178651, "key_press": 74, "type": "INSTRUCTIONS", "trial_index": 6}, "uniqueid": "MTK1527:31Z0PCVWULMJEOINSZ8NVLWX96HT71", "dateTime": 1515953075797}, {"current_trial": 7, "trialdata": {"rt": 21281, "trial_type": "text", "internal_node_id": "0.0-7.0", "time_elapsed": 200442, "key_press": 74, "type": "INSTRUCTIONS", "trial_index": 7}, "uniqueid": "MTK1527:31Z0PCVWULMJEOINSZ8NVLWX96HT71", "dateTime": 1515953097588}, {"current_trial": 8, "trialdata": {"rt": 9417, "trial_type": "text", "internal_node_id": "0.0-8.0", "time_elapsed": 210363, "key_press": 74, "type": "INSTRUCTIONS", "trial_index": 8}, "uniqueid": "MTK1527:31Z0PCVWULMJEOINSZ8NVLWX96HT71", "dateTime": 1515953107509}, {"current_trial": 9, "trialdata": {"rt": [3578, 5736, 7617, 10131, 12217, 14987, 17003], "trial_type": "math-distractor", "key_times": [1778, 2125, 3578, 4876, 5535, 5736, 7335, 7453, 7617, 9368, 9540, 10131, 11440, 11717, 12217, 14703, 14846, 14987, 16378, 16497, 17003], "responses": ["15", "14", "11", "18", "16", "22", "19"], "num2": [8, 4, 3, 1, 9, 9, 6, 4], "num3": [5, 1, 4, 9, 1, 5, 9, 4], "conditions": [18, 1200, "v", 18000], "internal_node_id": "0.0-9.0", "key_presses": [49, 53, 13, 49, 52, 13, 49, 49, 13, 49, 56, 13, 49, 54, 13, 50, 50, 13, 49, 57, 13], "trial": 0, "time_elapsed": 229400, "type": "DISTRACTOR", "trial_index": 9, "num1": [2, 9, 4, 8, 6, 8, 4, 1]}, "uniqueid": "MTK1527:31Z0PCVWULMJEOINSZ8NVLWX96HT71", "dateTime": 1515953126546}, {"current_trial": 10, "trialdata": {"rt": -1, "trial_type": "single-stim", "stimulus": "<p id=\"stim\">10</p>", "internal_node_id": "0.0-10.0-0.0", "time_elapsed": 232417, "key_press": -1, "trial_index": 10}, "uniqueid": "MTK1527:31Z0PCVWULMJEOINSZ8NVLWX96HT71", "dateTime": 1515953129564}, {"current_trial": 11, "trialdata": {"rt": -1, "trial_type": "single-stim", "stimulus": "<p id=\"stim\">9</p>", "internal_node_id": "0.0-10.0-1.0", "time_elapsed": 233427, "key_press": -1, "trial_index": 11}, "uniqueid": "MTK1527:31Z0PCVWULMJEOINSZ8NVLWX96HT71", "dateTime": 1515953130574}, {"current_trial": 12, "trialdata": {"rt": -1, "trial_type": "single-stim", "stimulus": "<p id=\"stim\">8</p>", "internal_node_id": "0.0-10.0-2.0", "time_elapsed": 234433, "key_press": -1, "trial_index": 12}, "uniqueid": "MTK1527:31Z0PCVWULMJEOINSZ8NVLWX96HT71", "dateTime": 1515953131579}, {"current_trial": 13, "trialdata": {"rt": -1, "trial_type": "single-stim", "stimulus": "<p id=\"stim\">7</p>", "internal_node_id": "0.0-10.0-3.0", "time_elapsed": 235443, "key_press": -1, "trial_index": 13}, "uniqueid": "MTK1527:31Z0PCVWULMJEOINSZ8NVLWX96HT71", "dateTime": 1515953132589}, {"current_trial": 14, "trialdata": {"rt": -1, "trial_type": "single-stim", "stimulus": "<p id=\"stim\">6</p>", "internal_node_id": "0.0-10.0-4.0", "time_elapsed": 236447, "key_press": -1, "trial_index": 14}, "uniqueid": "MTK1527:31Z0PCVWULMJEOINSZ8NVLWX96HT71", "dateTime": 1515953133594}, {"current_trial": 15, "trialdata": {"rt": -1, "trial_type": "single-stim", "stimulus": "<p id=\"stim\">5</p>", "internal_node_id": "0.0-10.0-5.0", "time_elapsed": 237451, "key_press": -1, "trial_index": 15}, "uniqueid": "MTK1527:31Z0PCVWULMJEOINSZ8NVLWX96HT71", "dateTime": 1515953134597}, {"current_trial": 16, "trialdata": {"rt": -1, "trial_type": "single-stim", "stimulus": "<p id=\"stim\">4</p>", "internal_node_id": "0.0-10.0-6.0", "time_elapsed": 238458, "key_press": -1, "trial_index": 16}, "uniqueid": "MTK1527:31Z0PCVWULMJEOINSZ8NVLWX96HT71", "dateTime": 1515953135604}, {"current_trial": 17, "trialdata": {"rt": -1, "trial_type": "single-stim", "stimulus": "<p id=\"stim\">3</p>", "internal_node_id": "0.0-10.0-7.0", "time_elapsed": 239468, "key_press": -1, "trial_index": 17}, "uniqueid": "MTK1527:31Z0PCVWULMJEOINSZ8NVLWX96HT71", "dateTime": 1515953136614}, {"current_trial": 18, "trialdata": {"rt": -1, "trial_type": "single-stim", "stimulus": "<p id=\"stim\">2</p>", "internal_node_id": "0.0-10.0-8.0", "time_elapsed": 240474, "key_press": -1, "trial_index": 18}, "uniqueid": "MTK1527:31Z0PCVWULMJEOINSZ8NVLWX96HT71", "dateTime": 1515953137624}, {"current_trial": 19, "trialdata": {"rt": -1, "trial_type": "single-stim", "stimulus": "<p id=\"stim\">1</p>", "internal_node_id": "0.0-10.0-9.0", "time_elapsed": 241485, "key_press": -1, "trial_index": 19}, "uniqueid": "MTK1527:31Z0PCVWULMJEOINSZ8NVLWX96HT71", "dateTime": 1515953138631}, {"current_trial": 20, "trialdata": {"rt": -1, "trial_type": "single-stim", "stimulus": "<p id=\"stim\">+</p>", "internal_node_id": "0.0-11.0-0.0", "time_elapsed": 242988, "key_press": -1, "type": "FIXATION", "trial_index": 20}, "uniqueid": "MTK1527:31Z0PCVWULMJEOINSZ8NVLWX96HT71", "dateTime": 1515953140135}, {"current_trial": 21, "trialdata": {"rt": -1, "trial_type": "single-stim", "word": "crab", "stimulus": "<p id=\"stim\">CRAB</p>", "conditions": [18, 1200, "v", 18000], "internal_node_id": "0.0-12.0", "trial": 0, "time_elapsed": 244194, "serialpos": 0, "key_press": -1, "wordID": 396, "type": "PRES_VIS", "trial_index": 21}, "uniqueid": "MTK1527:31Z0PCVWULMJEOINSZ8NVLWX96HT71", "dateTime": 1515953141341}, {"current_trial": 22, "trialdata": {"rt": -1, "trial_type": "single-stim", "word": "backbone", "stimulus": "<p id=\"stim\">BACKBONE</p>", "conditions": [18, 1200, "v", 18000], "internal_node_id": "0.0-13.0", "trial": 0, "time_elapsed": 246252, "serialpos": 1, "key_press": -1, "wordID": 65, "type": "PRES_VIS", "trial_index": 22}, "uniqueid": "MTK1527:31Z0PCVWULMJEOINSZ8NVLWX96HT71", "dateTime": 1515953143399}, {"current_trial": 23, "trialdata": {"rt": -1, "trial_type": "single-stim", "word": "fruit", "stimulus": "<p id=\"stim\">FRUIT</p>", "conditions": [18, 1200, "v", 18000], "internal_node_id": "0.0-14.0", "trial": 0, "time_elapsed": 248508, "serialpos": 2, "key_press": -1, "wordID": 609, "type": "PRES_VIS", "trial_index": 23}, "uniqueid": "MTK1527:31Z0PCVWULMJEOINSZ8NVLWX96HT71", "dateTime": 1515953145655}, {"current_trial": 24, "trialdata": {"rt": -1, "trial_type": "single-stim", "word": "stamp", "stimulus": "<p id=\"stim\">STAMP</p>", "conditions": [18, 1200, "v", 18000], "internal_node_id": "0.0-15.0", "trial": 0, "time_elapsed": 250742, "serialpos": 3, "key_press": -1, "wordID": 1369, "type": "PRES_VIS", "trial_index": 24}, "uniqueid": "MTK1527:31Z0PCVWULMJEOINSZ8NVLWX96HT71", "dateTime": 1515953147889}, {"current_trial": 25, "trialdata": {"rt": -1, "trial_type": "single-stim", "word": "cafe", "stimulus": "<p id=\"stim\">CAFE</p>", "conditions": [18, 1200, "v", 18000], "internal_node_id": "0.0-16.0", "trial": 0, "time_elapsed": 253004, "serialpos": 4, "key_press": -1, "wordID": 215, "type": "PRES_VIS", "trial_index": 25}, "uniqueid": "MTK1527:31Z0PCVWULMJEOINSZ8NVLWX96HT71", "dateTime": 1515953150150}, {"current_trial": 26, "trialdata": {"rt": -1, "trial_type": "single-stim", "word": "shark", "stimulus": "<p id=\"stim\">SHARK</p>", "conditions": [18, 1200, "v", 18000], "internal_node_id": "0.0-17.0", "trial": 0, "time_elapsed": 255153, "serialpos": 5, "key_press": -1, "wordID": 1274, "type": "PRES_VIS", "trial_index": 26}, "uniqueid": "MTK1527:31Z0PCVWULMJEOINSZ8NVLWX96HT71", "dateTime": 1515953152300}, {"current_trial": 27, "trialdata": {"rt": -1, "trial_type": "single-stim", "word": "neutron", "stimulus": "<p id=\"stim\">NEUTRON</p>", "conditions": [18, 1200, "v", 18000], "internal_node_id": "0.0-18.0", "trial": 0, "time_elapsed": 257165, "serialpos": 6, "key_press": -1, "wordID": 946, "type": "PRES_VIS", "trial_index": 27}, "uniqueid": "MTK1527:31Z0PCVWULMJEOINSZ8NVLWX96HT71", "dateTime": 1515953154311}, {"current_trial": 28, "trialdata": {"rt": -1, "trial_type": "single-stim", "word": "peach", "stimulus": "<p id=\"stim\">PEACH</p>", "conditions": [18, 1200, "v", 18000], "internal_node_id": "0.0-19.0", "trial": 0, "time_elapsed": 259453, "serialpos": 7, "key_press": -1, "wordID": 1030, "type": "PRES_VIS", "trial_index": 28}, "uniqueid": "MTK1527:31Z0PCVWULMJEOINSZ8NVLWX96HT71", "dateTime": 1515953156599}, {"current_trial": 29, "trialdata": {"rt": -1, "trial_type": "single-stim", "word": "lipstick", "stimulus": "<p id=\"stim\">LIPSTICK</p>", "conditions": [18, 1200, "v", 18000], "internal_node_id": "0.0-20.0", "trial": 0, "time_elapsed": 261740, "serialpos": 8, "key_press": -1, "wordID": 828, "type": "PRES_VIS", "trial_index": 29}, "uniqueid": "MTK1527:31Z0PCVWULMJEOINSZ8NVLWX96HT71", "dateTime": 1515953158887}, {"current_trial": 30, "trialdata": {"rt": -1, "trial_type": "single-stim", "word": "citrus", "stimulus": "<p id=\"stim\">CITRUS</p>", "conditions": [18, 1200, "v", 18000], "internal_node_id": "0.0-21.0", "trial": 0, "time_elapsed": 263807, "serialpos": 9, "key_press": -1, "wordID": 312, "type": "PRES_VIS", "trial_index": 30}, "uniqueid": "MTK1527:31Z0PCVWULMJEOINSZ8NVLWX96HT71", "dateTime": 1515953160953}, {"current_trial": 31, "trialdata": {"rt": -1, "trial_type": "single-stim", "word": "match", "stimulus": "<p id=\"stim\">MATCH</p>", "conditions": [18, 1200, "v", 18000], "internal_node_id": "0.0-22.0", "trial": 0, "time_elapsed": 266058, "serialpos": 10, "key_press": -1, "wordID": 877, "type": "PRES_VIS", "trial_index": 31}, "uniqueid": "MTK1527:31Z0PCVWULMJEOINSZ8NVLWX96HT71", "dateTime": 1515953163204}, {"current_trial": 32, "trialdata": {"rt": -1, "trial_type": "single-stim", "word": "label", "stimulus": "<p id=\"stim\">LABEL</p>", "conditions": [18, 1200, "v", 18000], "internal_node_id": "0.0-23.0", "trial": 0, "time_elapsed": 268201, "serialpos": 11, "key_press": -1, "wordID": 789, "type": "PRES_VIS", "trial_index": 32}, "uniqueid": "MTK1527:31Z0PCVWULMJEOINSZ8NVLWX96HT71", "dateTime": 1515953165347}, {"current_trial": 33, "trialdata": {"rt": -1, "trial_type": "single-stim", "word": "baby", "stimulus": "<p id=\"stim\">BABY</p>", "conditions": [18, 1200, "v", 18000], "internal_node_id": "0.0-24.0", "trial": 0, "time_elapsed": 270481, "serialpos": 12, "key_press": -1, "wordID": 63, "type": "PRES_VIS", "trial_index": 33}, "uniqueid": "MTK1527:31Z0PCVWULMJEOINSZ8NVLWX96HT71", "dateTime": 1515953167627}, {"current_trial": 34, "trialdata": {"rt": -1, "trial_type": "single-stim", "word": "tart", "stimulus": "<p id=\"stim\">TART</p>", "conditions": [18, 1200, "v", 18000], "internal_node_id": "0.0-25.0", "trial": 0, "time_elapsed": 272827, "serialpos": 13, "key_press": -1, "wordID": 1435, "type": "PRES_VIS", "trial_index": 34}, "uniqueid": "MTK1527:31Z0PCVWULMJEOINSZ8NVLWX96HT71", "dateTime": 1515953169973}, {"current_trial": 35, "trialdata": {"rt": -1, "trial_type": "single-stim", "word": "inmate", "stimulus": "<p id=\"stim\">INMATE</p>", "conditions": [18, 1200, "v", 18000], "internal_node_id": "0.0-26.0", "trial": 0, "time_elapsed": 274840, "serialpos": 14, "key_press": -1, "wordID": 737, "type": "PRES_VIS", "trial_index": 35}, "uniqueid": "MTK1527:31Z0PCVWULMJEOINSZ8NVLWX96HT71", "dateTime": 1515953171987}, {"current_trial": 36, "trialdata": {"rt": -1, "trial_type": "single-stim", "word": "cook", "stimulus": "<p id=\"stim\">COOK</p>", "conditions": [18, 1200, "v", 18000], "internal_node_id": "0.0-27.0", "trial": 0, "time_elapsed": 276958, "serialpos": 15, "key_press": -1, "wordID": 371, "type": "PRES_VIS", "trial_index": 36}, "uniqueid": "MTK1527:31Z0PCVWULMJEOINSZ8NVLWX96HT71", "dateTime": 1515953174105}, {"current_trial": 37, "trialdata": {"rt": -1, "trial_type": "single-stim", "word": "robin", "stimulus": "<p id=\"stim\">ROBIN</p>", "conditions": [18, 1200, "v", 18000], "internal_node_id": "0.0-28.0", "trial": 0, "time_elapsed": 279344, "serialpos": 16, "key_press": -1, "wordID": 1198, "type": "PRES_VIS", "trial_index": 37}, "uniqueid": "MTK1527:31Z0PCVWULMJEOINSZ8NVLWX96HT71", "dateTime": 1515953176491}, {"current_trial": 38, "trialdata": {"rt": -1, "trial_type": "single-stim", "word": "casket", "stimulus": "<p id=\"stim\">CASKET</p>", "conditions": [18, 1200, "v", 18000], "internal_node_id": "0.0-29.0", "trial": 0, "time_elapsed": 281500, "serialpos": 17, "key_press": -1, "wordID": 254, "type": "PRES_VIS", "trial_index": 38}, "uniqueid": "MTK1527:31Z0PCVWULMJEOINSZ8NVLWX96HT71", "dateTime": 1515953178647}, {"current_trial": 39, "trialdata": {"rt": -1, "trial_type": "single-stim", "stimulus": "", "internal_node_id": "0.0-30.0-0.0", "time_elapsed": 283574, "key_press": -1, "type": "PRE_RECALL_DELAY", "trial_index": 39}, "uniqueid": "MTK1527:31Z0PCVWULMJEOINSZ8NVLWX96HT71", "dateTime": 1515953180721}, {"current_trial": 40, "trialdata": {"rt": -1000, "trial_type": "single-audio", "stimulus": "/static/audio/400Hz.wav", "internal_node_id": "0.0-31.0", "time_elapsed": 284087, "key_press": -1, "type": "PRE_RECALL_ALERT", "trial_index": 40}, "uniqueid": "MTK1527:31Z0PCVWULMJEOINSZ8NVLWX96HT71", "dateTime": 1515953181233}, {"current_trial": 41, "trialdata": {"rt": [3607, 5393, 9102, 13002, 15920, 22317, 34112, 48696], "recwords": ["robin", "casket", "backbone", "peach", "inmate", "label", "match", "tart"], "key_times": [2117, 2254, 2614, 2779, 2908, 3607, 3974, 4237, 4417, 4598, 4816, 5194, 5393, 6610, 6801, 7243, 7372, 7978, 8231, 8429, 8710, 9102, 9771, 9984, 10287, 10866, 11158, 13002, 13509, 13697, 13901, 14526, 14765, 15610, 15920, 20946, 21141, 21317, 21507, 21719, 22317, 31405, 31699, 32674, 33026, 33281, 34112, 47469, 47639, 47905, 48095, 48696], "trial_type": "free-recall", "conditions": [18, 1200, "v", 18000], "internal_node_id": "0.0-32.0-0.0", "key_presses": [82, 79, 66, 73, 78, 13, 67, 65, 83, 75, 69, 84, 13, 66, 65, 67, 75, 66, 79, 78, 69, 13, 80, 69, 65, 67, 72, 13, 73, 78, 77, 65, 84, 69, 13, 76, 65, 66, 69, 76, 13, 77, 65, 84, 67, 72, 13, 84, 65, 82, 84, 13], "trial": 0, "time_elapsed": 344100, "type": "FREE_RECALL", "trial_index": 41}, "uniqueid": "MTK1527:31Z0PCVWULMJEOINSZ8NVLWX96HT71", "dateTime": 1515953241266}, {"current_trial": 42, "trialdata": {"rt": 5540, "trial_type": "text", "internal_node_id": "0.0-33.0", "time_elapsed": 351664, "key_press": 72, "type": "INSTRUCTIONS", "trial_index": 42}, "uniqueid": "MTK1527:31Z0PCVWULMJEOINSZ8NVLWX96HT71", "dateTime": 1515953248810}, {"current_trial": 43, "trialdata": {"rt": [4220, 6778, 8815, 11575, 13631, 15830, 17723], "trial_type": "math-distractor", "key_times": [3644, 3732, 4220, 6440, 6579, 6778, 8286, 8560, 8815, 11032, 11265, 11575, 13231, 13408, 13631, 14751, 14989, 15830, 17228, 17406, 17723], "responses": ["16", "22", "13", "14", "21", "18", "14"], "num2": [6, 8, 4, 7, 7, 4, 6, 5], "num3": [9, 8, 4, 2, 8, 8, 5, 7], "conditions": [18, 1200, "v", 18000], "internal_node_id": "0.0-34.0", "key_presses": [49, 54, 13, 50, 50, 13, 49, 51, 13, 49, 52, 13, 50, 49, 13, 49, 56, 13, 49, 52, 13], "trial": 1, "time_elapsed": 371683, "type": "DISTRACTOR", "trial_index": 43, "num1": [1, 6, 5, 5, 6, 6, 3, 6]}, "uniqueid": "MTK1527:31Z0PCVWULMJEOINSZ8NVLWX96HT71", "dateTime": 1515953268829}, {"current_trial": 44, "trialdata": {"rt": -1, "trial_type": "single-stim", "stimulus": "<p id=\"stim\">10</p>", "internal_node_id": "0.0-35.0-0.0", "time_elapsed": 374695, "key_press": -1, "trial_index": 44}, "uniqueid": "MTK1527:31Z0PCVWULMJEOINSZ8NVLWX96HT71", "dateTime": 1515953271842}, {"current_trial": 45, "trialdata": {"rt": -1, "trial_type": "single-stim", "stimulus": "<p id=\"stim\">9</p>", "internal_node_id": "0.0-35.0-1.0", "time_elapsed": 375700, "key_press": -1, "trial_index": 45}, "uniqueid": "MTK1527:31Z0PCVWULMJEOINSZ8NVLWX96HT71", "dateTime": 1515953272849}, {"current_trial": 46, "trialdata": {"rt": -1, "trial_type": "single-stim", "stimulus": "<p id=\"stim\">8</p>", "internal_node_id": "0.0-35.0-2.0", "time_elapsed": 376710, "key_press": -1, "trial_index": 46}, "uniqueid": "MTK1527:31Z0PCVWULMJEOINSZ8NVLWX96HT71", "dateTime": 1515953273856}, {"current_trial": 47, "trialdata": {"rt": -1, "trial_type": "single-stim", "stimulus": "<p id=\"stim\">7</p>", "internal_node_id": "0.0-35.0-3.0", "time_elapsed": 377715, "key_press": -1, "trial_index": 47}, "uniqueid": "MTK1527:31Z0PCVWULMJEOINSZ8NVLWX96HT71", "dateTime": 1515953274862}, {"current_trial": 48, "trialdata": {"rt": -1, "trial_type": "single-stim", "stimulus": "<p id=\"stim\">6</p>", "internal_node_id": "0.0-35.0-4.0", "time_elapsed": 378721, "key_press": -1, "trial_index": 48}, "uniqueid": "MTK1527:31Z0PCVWULMJEOINSZ8NVLWX96HT71", "dateTime": 1515953275868}, {"current_trial": 49, "trialdata": {"rt": -1, "trial_type": "single-stim", "stimulus": "<p id=\"stim\">5</p>", "internal_node_id": "0.0-35.0-5.0", "time_elapsed": 379726, "key_press": -1, "trial_index": 49}, "uniqueid": "MTK1527:31Z0PCVWULMJEOINSZ8NVLWX96HT71", "dateTime": 1515953276873}, {"current_trial": 50, "trialdata": {"rt": -1, "trial_type": "single-stim", "stimulus": "<p id=\"stim\">4</p>", "internal_node_id": "0.0-35.0-6.0", "time_elapsed": 380732, "key_press": -1, "trial_index": 50}, "uniqueid": "MTK1527:31Z0PCVWULMJEOINSZ8NVLWX96HT71", "dateTime": 1515953277879}, {"current_trial": 51, "trialdata": {"rt": -1, "trial_type": "single-stim", "stimulus": "<p id=\"stim\">3</p>", "internal_node_id": "0.0-35.0-7.0", "time_elapsed": 381738, "key_press": -1, "trial_index": 51}, "uniqueid": "MTK1527:31Z0PCVWULMJEOINSZ8NVLWX96HT71", "dateTime": 1515953278885}, {"current_trial": 52, "trialdata": {"rt": -1, "trial_type": "single-stim", "stimulus": "<p id=\"stim\">2</p>", "internal_node_id": "0.0-35.0-8.0", "time_elapsed": 382745, "key_press": -1, "trial_index": 52}, "uniqueid": "MTK1527:31Z0PCVWULMJEOINSZ8NVLWX96HT71", "dateTime": 1515953279891}, {"current_trial": 53, "trialdata": {"rt": -1, "trial_type": "single-stim", "stimulus": "<p id=\"stim\">1</p>", "internal_node_id": "0.0-35.0-9.0", "time_elapsed": 383755, "key_press": -1, "trial_index": 53}, "uniqueid": "MTK1527:31Z0PCVWULMJEOINSZ8NVLWX96HT71", "dateTime": 1515953280901}, {"current_trial": 54, "trialdata": {"rt": -1, "trial_type": "single-stim", "stimulus": "<p id=\"stim\">+</p>", "internal_node_id": "0.0-36.0-0.0", "time_elapsed": 385259, "key_press": -1, "type": "FIXATION", "trial_index": 54}, "uniqueid": "MTK1527:31Z0PCVWULMJEOINSZ8NVLWX96HT71", "dateTime": 1515953282406}, {"current_trial": 55, "trialdata": {"rt": -1, "trial_type": "single-stim", "word": "airport", "stimulus": "<p id=\"stim\">AIRPORT</p>", "conditions": [18, 1200, "v", 18000], "internal_node_id": "0.0-37.0", "trial": 1, "time_elapsed": 386465, "serialpos": 0, "key_press": -1, "wordID": 12, "type": "PRES_VIS", "trial_index": 55}, "uniqueid": "MTK1527:31Z0PCVWULMJEOINSZ8NVLWX96HT71", "dateTime": 1515953283611}, {"current_trial": 56, "trialdata": {"rt": -1, "trial_type": "single-stim", "word": "typist", "stimulus": "<p id=\"stim\">TYPIST</p>", "conditions": [18, 1200, "v", 18000], "internal_node_id": "0.0-38.0", "trial": 1, "time_elapsed": 388674, "serialpos": 1, "key_press": -1, "wordID": 1531, "type": "PRES_VIS", "trial_index": 56}, "uniqueid": "MTK1527:31Z0PCVWULMJEOINSZ8NVLWX96HT71", "dateTime": 1515953285821}, {"current_trial": 57, "trialdata": {"rt": -1, "trial_type": "single-stim", "word": "vagrant", "stimulus": "<p id=\"stim\">VAGRANT</p>", "conditions": [18, 1200, "v", 18000], "internal_node_id": "0.0-39.0", "trial": 1, "time_elapsed": 390832, "serialpos": 2, "key_press": -1, "wordID": 1543, "type": "PRES_VIS", "trial_index": 57}, "uniqueid": "MTK1527:31Z0PCVWULMJEOINSZ8NVLWX96HT71", "dateTime": 1515953287978}, {"current_trial": 58, "trialdata": {"rt": -1, "trial_type": "single-stim", "word": "pasta", "stimulus": "<p id=\"stim\">PASTA</p>", "conditions": [18, 1200, "v", 18000], "internal_node_id": "0.0-40.0", "trial": 1, "time_elapsed": 392906, "serialpos": 3, "key_press": -1, "wordID": 1020, "type": "PRES_VIS", "trial_index": 58}, "uniqueid": "MTK1527:31Z0PCVWULMJEOINSZ8NVLWX96HT71", "dateTime": 1515953290053}, {"current_trial": 59, "trialdata": {"rt": -1, "trial_type": "single-stim", "word": "salmon", "stimulus": "<p id=\"stim\">SALMON</p>", "conditions": [18, 1200, "v", 18000], "internal_node_id": "0.0-41.0", "trial": 1, "time_elapsed": 395206, "serialpos": 4, "key_press": -1, "wordID": 1226, "type": "PRES_VIS", "trial_index": 59}, "uniqueid": "MTK1527:31Z0PCVWULMJEOINSZ8NVLWX96HT71", "dateTime": 1515953292353}, {"current_trial": 60, "trialdata": {"rt": -1, "trial_type": "single-stim", "word": "liver", "stimulus": "<p id=\"stim\">LIVER</p>", "conditions": [18, 1200, "v", 18000], "internal_node_id": "0.0-42.0", "trial": 1, "time_elapsed": 397230, "serialpos": 5, "key_press": -1, "wordID": 832, "type": "PRES_VIS", "trial_index": 60}, "uniqueid": "MTK1527:31Z0PCVWULMJEOINSZ8NVLWX96HT71", "dateTime": 1515953294377}, {"current_trial": 61, "trialdata": {"rt": -1, "trial_type": "single-stim", "word": "bullet", "stimulus": "<p id=\"stim\">BULLET</p>", "conditions": [18, 1200, "v", 18000], "internal_node_id": "0.0-43.0", "trial": 1, "time_elapsed": 399300, "serialpos": 6, "key_press": -1, "wordID": 193, "type": "PRES_VIS", "trial_index": 61}, "uniqueid": "MTK1527:31Z0PCVWULMJEOINSZ8NVLWX96HT71", "dateTime": 1515953296447}, {"current_trial": 62, "trialdata": {"rt": -1, "trial_type": "single-stim", "word": "palace", "stimulus": "<p id=\"stim\">PALACE</p>", "conditions": [18, 1200, "v", 18000], "internal_node_id": "0.0-44.0", "trial": 1, "time_elapsed": 401359, "serialpos": 7, "key_press": -1, "wordID": 1005, "type": "PRES_VIS", "trial_index": 62}, "uniqueid": "MTK1527:31Z0PCVWULMJEOINSZ8NVLWX96HT71", "dateTime": 1515953298505}, {"current_trial": 63, "trialdata": {"rt": -1, "trial_type": "single-stim", "word": "arm", "stimulus": "<p id=\"stim\">ARM</p>", "conditions": [18, 1200, "v", 18000], "internal_node_id": "0.0-45.0", "trial": 1, "time_elapsed": 403462, "serialpos": 8, "key_press": -1, "wordID": 37, "type": "PRES_VIS", "trial_index": 63}, "uniqueid": "MTK1527:31Z0PCVWULMJEOINSZ8NVLWX96HT71", "dateTime": 1515953300608}, {"current_trial": 64, "trialdata": {"rt": -1, "trial_type": "single-stim", "word": "shelter", "stimulus": "<p id=\"stim\">SHELTER</p>", "conditions": [18, 1200, "v", 18000], "internal_node_id": "0.0-46.0", "trial": 1, "time_elapsed": 405624, "serialpos": 9, "key_press": -1, "wordID": 1281, "type": "PRES_VIS", "trial_index": 64}, "uniqueid": "MTK1527:31Z0PCVWULMJEOINSZ8NVLWX96HT71", "dateTime": 1515953302771}, {"current_trial": 65, "trialdata": {"rt": -1, "trial_type": "single-stim", "word": "dashboard", "stimulus": "<p id=\"stim\">DASHBOARD</p>", "conditions": [18, 1200, "v", 18000], "internal_node_id": "0.0-47.0", "trial": 1, "time_elapsed": 407836, "serialpos": 10, "key_press": -1, "wordID": 440, "type": "PRES_VIS", "trial_index": 65}, "uniqueid": "MTK1527:31Z0PCVWULMJEOINSZ8NVLWX96HT71", "dateTime": 1515953304983}, {"current_trial": 66, "trialdata": {"rt": -1, "trial_type": "single-stim", "word": "sunset", "stimulus": "<p id=\"stim\">SUNSET</p>", "conditions": [18, 1200, "v", 18000], "internal_node_id": "0.0-48.0", "trial": 1, "time_elapsed": 409851, "serialpos": 11, "key_press": -1, "wordID": 1407, "type": "PRES_VIS", "trial_index": 66}, "uniqueid": "MTK1527:31Z0PCVWULMJEOINSZ8NVLWX96HT71", "dateTime": 1515953306997}, {"current_trial": 67, "trialdata": {"rt": -1, "trial_type": "single-stim", "word": "item", "stimulus": "<p id=\"stim\">ITEM</p>", "conditions": [18, 1200, "v", 18000], "internal_node_id": "0.0-49.0", "trial": 1, "time_elapsed": 412215, "serialpos": 12, "key_press": -1, "wordID": 745, "type": "PRES_VIS", "trial_index": 67}, "uniqueid": "MTK1527:31Z0PCVWULMJEOINSZ8NVLWX96HT71", "dateTime": 1515953309362}, {"current_trial": 68, "trialdata": {"rt": -1, "trial_type": "single-stim", "word": "bureau", "stimulus": "<p id=\"stim\">BUREAU</p>", "conditions": [18, 1200, "v", 18000], "internal_node_id": "0.0-50.0", "trial": 1, "time_elapsed": 414443, "serialpos": 13, "key_press": -1, "wordID": 198, "type": "PRES_VIS", "trial_index": 68}, "uniqueid": "MTK1527:31Z0PCVWULMJEOINSZ8NVLWX96HT71", "dateTime": 1515953311605}, {"current_trial": 69, "trialdata": {"rt": -1, "trial_type": "single-stim", "word": "shirt", "stimulus": "<p id=\"stim\">SHIRT</p>", "conditions": [18, 1200, "v", 18000], "internal_node_id": "0.0-51.0", "trial": 1, "time_elapsed": 416831, "serialpos": 14, "key_press": -1, "wordID": 1286, "type": "PRES_VIS", "trial_index": 69}, "uniqueid": "MTK1527:31Z0PCVWULMJEOINSZ8NVLWX96HT71", "dateTime": 1515953313978}, {"current_trial": 70, "trialdata": {"rt": -1, "trial_type": "single-stim", "word": "gymnast", "stimulus": "<p id=\"stim\">GYMNAST</p>", "conditions": [18, 1200, "v", 18000], "internal_node_id": "0.0-52.0", "trial": 1, "time_elapsed": 419151, "serialpos": 15, "key_press": -1, "wordID": 674, "type": "PRES_VIS", "trial_index": 70}, "uniqueid": "MTK1527:31Z0PCVWULMJEOINSZ8NVLWX96HT71", "dateTime": 1515953316298}, {"current_trial": 71, "trialdata": {"rt": -1, "trial_type": "single-stim", "word": "ulcer", "stimulus": "<p id=\"stim\">ULCER</p>", "conditions": [18, 1200, "v", 18000], "internal_node_id": "0.0-53.0", "trial": 1, "time_elapsed": 421312, "serialpos": 16, "key_press": -1, "wordID": 1532, "type": "PRES_VIS", "trial_index": 71}, "uniqueid": "MTK1527:31Z0PCVWULMJEOINSZ8NVLWX96HT71", "dateTime": 1515953318459}, {"current_trial": 72, "trialdata": {"rt": -1, "trial_type": "single-stim", "word": "milk", "stimulus": "<p id=\"stim\">MILK</p>", "conditions": [18, 1200, "v", 18000], "internal_node_id": "0.0-54.0", "trial": 1, "time_elapsed": 423578, "serialpos": 17, "key_press": -1, "wordID": 894, "type": "PRES_VIS", "trial_index": 72}, "uniqueid": "MTK1527:31Z0PCVWULMJEOINSZ8NVLWX96HT71", "dateTime": 1515953320724}, {"current_trial": 73, "trialdata": {"rt": -1, "trial_type": "single-stim", "stimulus": "", "internal_node_id": "0.0-55.0-0.0", "time_elapsed": 425733, "key_press": -1, "type": "PRE_RECALL_DELAY", "trial_index": 73}, "uniqueid": "MTK1527:31Z0PCVWULMJEOINSZ8NVLWX96HT71", "dateTime": 1515953322879}, {"current_trial": 74, "trialdata": {"rt": -1000, "trial_type": "single-audio", "stimulus": "/static/audio/400Hz.wav", "internal_node_id": "0.0-56.0", "time_elapsed": 426239, "key_press": -1, "type": "PRE_RECALL_ALERT", "trial_index": 74}, "uniqueid": "MTK1527:31Z0PCVWULMJEOINSZ8NVLWX96HT71", "dateTime": 1515953323386}, {"current_trial": 75, "trialdata": {"rt": [7474, 11233, 13650, 16397, 20119, 22041, 26378, 29919, 35724, 39623, 42872, 52013], "recwords": ["airport", "gymnast", "milk", "item", "sunset", "dash", "shelter", "vagrant", "typist", "sunset", "salmon", "pasta"], "key_times": [4580, 5056, 5323, 5895, 6059, 6440, 6592, 7474, 8274, 8431, 8682, 8892, 9218, 9396, 9845, 10451, 10827, 11233, 11907, 12099, 12230, 12428, 13650, 14599, 15030, 15260, 15918, 16397, 16888, 17940, 18087, 18478, 18740, 19298, 20119, 20642, 20871, 21046, 21596, 22041, 22496, 23073, 23429, 23950, 24331, 24600, 24828, 26378, 26745, 27068, 27606, 27813, 28052, 28574, 28933, 29919, 32142, 32500, 32946, 33133, 33419, 34323, 35724, 37756, 38326, 38476, 38790, 38963, 39261, 39623, 41096, 41276, 41663, 41801, 41972, 42179, 42872, 49415, 50316, 50999, 51248, 51436, 51527, 51677, 52013], "trial_type": "free-recall", "conditions": [18, 1200, "v", 18000], "internal_node_id": "0.0-57.0-0.0", "key_presses": [65, 73, 82, 80, 79, 82, 84, 13, 71, 89, 77, 78, 65, 83, 82, 8, 84, 13, 77, 73, 76, 75, 13, 73, 84, 69, 77, 13, 83, 85, 78, 83, 69, 84, 13, 68, 65, 83, 72, 13, 83, 72, 69, 76, 84, 69, 82, 13, 86, 65, 71, 82, 65, 78, 84, 13, 84, 89, 80, 73, 83, 84, 13, 83, 85, 78, 83, 69, 84, 13, 83, 65, 76, 77, 79, 78, 13, 219, 8, 80, 65, 83, 84, 65, 13], "trial": 1, "time_elapsed": 486250, "type": "FREE_RECALL", "trial_index": 75}, "uniqueid": "MTK1527:31Z0PCVWULMJEOINSZ8NVLWX96HT71", "dateTime": 1515953383410}, {"current_trial": 76, "trialdata": {"rt": 5098, "trial_type": "text", "internal_node_id": "0.0-58.0", "time_elapsed": 493369, "key_press": 68, "type": "INSTRUCTIONS", "trial_index": 76}, "uniqueid": "MTK1527:31Z0PCVWULMJEOINSZ8NVLWX96HT71", "dateTime": 1515953390515}, {"current_trial": 77, "trialdata": {"rt": [1747, 3570, 5183, 7072, 8534, 10230], "trial_type": "math-distractor", "key_times": [1316, 1747, 3132, 3390, 3570, 5002, 5183, 6365, 6897, 7072, 8178, 8362, 8534, 9753, 9903, 10230, 11380, 11750], "responses": ["9", "13", "6", "19", "12", "10"], "num2": [5, 4, 3, 4, 3, 4, 9], "num3": [1, 2, 1, 8, 1, 3, 7], "conditions": [24, 800, "v", 12000], "internal_node_id": "0.0-59.0", "key_presses": [57, 13, 49, 51, 13, 54, 13, 49, 57, 13, 49, 50, 13, 49, 48, 13, 49, 56], "trial": 2, "time_elapsed": 506386, "type": "DISTRACTOR", "trial_index": 77, "num1": [3, 7, 2, 7, 8, 3, 2]}, "uniqueid": "MTK1527:31Z0PCVWULMJEOINSZ8NVLWX96HT71", "dateTime": 1515953403533}, {"current_trial": 78, "trialdata": {"rt": -1, "trial_type": "single-stim", "stimulus": "<p id=\"stim\">10</p>", "internal_node_id": "0.0-60.0-0.0", "time_elapsed": 509398, "key_press": -1, "trial_index": 78}, "uniqueid": "MTK1527:31Z0PCVWULMJEOINSZ8NVLWX96HT71", "dateTime": 1515953406544}, {"current_trial": 79, "trialdata": {"rt": -1, "trial_type": "single-stim", "stimulus": "<p id=\"stim\">9</p>", "internal_node_id": "0.0-60.0-1.0", "time_elapsed": 510403, "key_press": -1, "trial_index": 79}, "uniqueid": "MTK1527:31Z0PCVWULMJEOINSZ8NVLWX96HT71", "dateTime": 1515953407549}, {"current_trial": 80, "trialdata": {"rt": -1, "trial_type": "single-stim", "stimulus": "<p id=\"stim\">8</p>", "internal_node_id": "0.0-60.0-2.0", "time_elapsed": 511408, "key_press": -1, "trial_index": 80}, "uniqueid": "MTK1527:31Z0PCVWULMJEOINSZ8NVLWX96HT71", "dateTime": 1515953408554}, {"current_trial": 81, "trialdata": {"rt": -1, "trial_type": "single-stim", "stimulus": "<p id=\"stim\">7</p>", "internal_node_id": "0.0-60.0-3.0", "time_elapsed": 512416, "key_press": -1, "trial_index": 81}, "uniqueid": "MTK1527:31Z0PCVWULMJEOINSZ8NVLWX96HT71", "dateTime": 1515953409562}, {"current_trial": 82, "trialdata": {"rt": -1, "trial_type": "single-stim", "stimulus": "<p id=\"stim\">6</p>", "internal_node_id": "0.0-60.0-4.0", "time_elapsed": 513422, "key_press": -1, "trial_index": 82}, "uniqueid": "MTK1527:31Z0PCVWULMJEOINSZ8NVLWX96HT71", "dateTime": 1515953410568}, {"current_trial": 83, "trialdata": {"rt": -1, "trial_type": "single-stim", "stimulus": "<p id=\"stim\">5</p>", "internal_node_id": "0.0-60.0-5.0", "time_elapsed": 514426, "key_press": -1, "trial_index": 83}, "uniqueid": "MTK1527:31Z0PCVWULMJEOINSZ8NVLWX96HT71", "dateTime": 1515953411573}, {"current_trial": 84, "trialdata": {"rt": -1, "trial_type": "single-stim", "stimulus": "<p id=\"stim\">4</p>", "internal_node_id": "0.0-60.0-6.0", "time_elapsed": 515432, "key_press": -1, "trial_index": 84}, "uniqueid": "MTK1527:31Z0PCVWULMJEOINSZ8NVLWX96HT71", "dateTime": 1515953412579}, {"current_trial": 85, "trialdata": {"rt": -1, "trial_type": "single-stim", "stimulus": "<p id=\"stim\">3</p>", "internal_node_id": "0.0-60.0-7.0", "time_elapsed": 516440, "key_press": -1, "trial_index": 85}, "uniqueid": "MTK1527:31Z0PCVWULMJEOINSZ8NVLWX96HT71", "dateTime": 1515953413586}, {"current_trial": 86, "trialdata": {"rt": -1, "trial_type": "single-stim", "stimulus": "<p id=\"stim\">2</p>", "internal_node_id": "0.0-60.0-8.0", "time_elapsed": 517446, "key_press": -1, "trial_index": 86}, "uniqueid": "MTK1527:31Z0PCVWULMJEOINSZ8NVLWX96HT71", "dateTime": 1515953414593}, {"current_trial": 87, "trialdata": {"rt": -1, "trial_type": "single-stim", "stimulus": "<p id=\"stim\">1</p>", "internal_node_id": "0.0-60.0-9.0", "time_elapsed": 518454, "key_press": -1, "trial_index": 87}, "uniqueid": "MTK1527:31Z0PCVWULMJEOINSZ8NVLWX96HT71", "dateTime": 1515953415601}, {"current_trial": 88, "trialdata": {"rt": -1, "trial_type": "single-stim", "stimulus": "<p id=\"stim\">+</p>", "internal_node_id": "0.0-61.0-0.0", "time_elapsed": 519974, "key_press": -1, "type": "FIXATION", "trial_index": 88}, "uniqueid": "MTK1527:31Z0PCVWULMJEOINSZ8NVLWX96HT71", "dateTime": 1515953417120}, {"current_trial": 89, "trialdata": {"rt": -1, "trial_type": "single-stim", "word": "leopard", "stimulus": "<p id=\"stim\">LEOPARD</p>", "conditions": [24, 800, "v", 12000], "internal_node_id": "0.0-62.0", "trial": 2, "time_elapsed": 520781, "serialpos": 0, "key_press": -1, "wordID": 811, "type": "PRES_VIS", "trial_index": 89}, "uniqueid": "MTK1527:31Z0PCVWULMJEOINSZ8NVLWX96HT71", "dateTime": 1515953417927}, {"current_trial": 90, "trialdata": {"rt": -1, "trial_type": "single-stim", "word": "receipt", "stimulus": "<p id=\"stim\">RECEIPT</p>", "conditions": [24, 800, "v", 12000], "internal_node_id": "0.0-63.0", "trial": 2, "time_elapsed": 522605, "serialpos": 1, "key_press": -1, "wordID": 1172, "type": "PRES_VIS", "trial_index": 90}, "uniqueid": "MTK1527:31Z0PCVWULMJEOINSZ8NVLWX96HT71", "dateTime": 1515953419751}, {"current_trial": 91, "trialdata": {"rt": -1, "trial_type": "single-stim", "word": "report", "stimulus": "<p id=\"stim\">REPORT</p>", "conditions": [24, 800, "v", 12000], "internal_node_id": "0.0-64.0", "trial": 2, "time_elapsed": 524260, "serialpos": 2, "key_press": -1, "wordID": 1183, "type": "PRES_VIS", "trial_index": 91}, "uniqueid": "MTK1527:31Z0PCVWULMJEOINSZ8NVLWX96HT71", "dateTime": 1515953421406}, {"current_trial": 92, "trialdata": {"rt": -1, "trial_type": "single-stim", "word": "robber", "stimulus": "<p id=\"stim\">ROBBER</p>", "conditions": [24, 800, "v", 12000], "internal_node_id": "0.0-65.0", "trial": 2, "time_elapsed": 526092, "serialpos": 3, "key_press": -1, "wordID": 1196, "type": "PRES_VIS", "trial_index": 92}, "uniqueid": "MTK1527:31Z0PCVWULMJEOINSZ8NVLWX96HT71", "dateTime": 1515953423238}, {"current_trial": 93, "trialdata": {"rt": -1, "trial_type": "single-stim", "word": "fox", "stimulus": "<p id=\"stim\">FOX</p>", "conditions": [24, 800, "v", 12000], "internal_node_id": "0.0-66.0", "trial": 2, "time_elapsed": 527931, "serialpos": 4, "key_press": -1, "wordID": 597, "type": "PRES_VIS", "trial_index": 93}, "uniqueid": "MTK1527:31Z0PCVWULMJEOINSZ8NVLWX96HT71", "dateTime": 1515953425077}, {"current_trial": 94, "trialdata": {"rt": -1, "trial_type": "single-stim", "word": "powder", "stimulus": "<p id=\"stim\">POWDER</p>", "conditions": [24, 800, "v", 12000], "internal_node_id": "0.0-67.0", "trial": 2, "time_elapsed": 529542, "serialpos": 5, "key_press": -1, "wordID": 1116, "type": "PRES_VIS", "trial_index": 94}, "uniqueid": "MTK1527:31Z0PCVWULMJEOINSZ8NVLWX96HT71", "dateTime": 1515953426689}, {"current_trial": 95, "trialdata": {"rt": -1, "trial_type": "single-stim", "word": "paddle", "stimulus": "<p id=\"stim\">PADDLE</p>", "conditions": [24, 800, "v", 12000], "internal_node_id": "0.0-68.0", "trial": 2, "time_elapsed": 531292, "serialpos": 6, "key_press": -1, "wordID": 999, "type": "PRES_VIS", "trial_index": 95}, "uniqueid": "MTK1527:31Z0PCVWULMJEOINSZ8NVLWX96HT71", "dateTime": 1515953428438}, {"current_trial": 96, "trialdata": {"rt": -1, "trial_type": "single-stim", "word": "waitress", "stimulus": "<p id=\"stim\">WAITRESS</p>", "conditions": [24, 800, "v", 12000], "internal_node_id": "0.0-69.0", "trial": 2, "time_elapsed": 533057, "serialpos": 7, "key_press": -1, "wordID": 1580, "type": "PRES_VIS", "trial_index": 96}, "uniqueid": "MTK1527:31Z0PCVWULMJEOINSZ8NVLWX96HT71", "dateTime": 1515953430204}, {"current_trial": 97, "trialdata": {"rt": -1, "trial_type": "single-stim", "word": "cashier", "stimulus": "<p id=\"stim\">CASHIER</p>", "conditions": [24, 800, "v", 12000], "internal_node_id": "0.0-70.0", "trial": 2, "time_elapsed": 534984, "serialpos": 8, "key_press": -1, "wordID": 253, "type": "PRES_VIS", "trial_index": 97}, "uniqueid": "MTK1527:31Z0PCVWULMJEOINSZ8NVLWX96HT71", "dateTime": 1515953432131}, {"current_trial": 98, "trialdata": {"rt": -1, "trial_type": "single-stim", "word": "piston", "stimulus": "<p id=\"stim\">PISTON</p>", "conditions": [24, 800, "v", 12000], "internal_node_id": "0.0-71.0", "trial": 2, "time_elapsed": 536804, "serialpos": 9, "key_press": -1, "wordID": 1075, "type": "PRES_VIS", "trial_index": 98}, "uniqueid": "MTK1527:31Z0PCVWULMJEOINSZ8NVLWX96HT71", "dateTime": 1515953433951}, {"current_trial": 99, "trialdata": {"rt": -1, "trial_type": "single-stim", "word": "thief", "stimulus": "<p id=\"stim\">THIEF</p>", "conditions": [24, 800, "v", 12000], "internal_node_id": "0.0-72.0", "trial": 2, "time_elapsed": 538615, "serialpos": 10, "key_press": -1, "wordID": 1455, "type": "PRES_VIS", "trial_index": 99}, "uniqueid": "MTK1527:31Z0PCVWULMJEOINSZ8NVLWX96HT71", "dateTime": 1515953435762}, {"current_trial": 100, "trialdata": {"rt": -1, "trial_type": "single-stim", "word": "clam", "stimulus": "<p id=\"stim\">CLAM</p>", "conditions": [24, 800, "v", 12000], "internal_node_id": "0.0-73.0", "trial": 2, "time_elapsed": 540518, "serialpos": 11, "key_press": -1, "wordID": 314, "type": "PRES_VIS", "trial_index": 100}, "uniqueid": "MTK1527:31Z0PCVWULMJEOINSZ8NVLWX96HT71", "dateTime": 1515953437664}, {"current_trial": 101, "trialdata": {"rt": -1, "trial_type": "single-stim", "word": "seagull", "stimulus": "<p id=\"stim\">SEAGULL</p>", "conditions": [24, 800, "v", 12000], "internal_node_id": "0.0-74.0", "trial": 2, "time_elapsed": 542198, "serialpos": 12, "key_press": -1, "wordID": 1260, "type": "PRES_VIS", "trial_index": 101}, "uniqueid": "MTK1527:31Z0PCVWULMJEOINSZ8NVLWX96HT71", "dateTime": 1515953439344}, {"current_trial": 102, "trialdata": {"rt": -1, "trial_type": "single-stim", "word": "friend", "stimulus": "<p id=\"stim\">FRIEND</p>", "conditions": [24, 800, "v", 12000], "internal_node_id": "0.0-75.0", "trial": 2, "time_elapsed": 543927, "serialpos": 13, "key_press": -1, "wordID": 605, "type": "PRES_VIS", "trial_index": 102}, "uniqueid": "MTK1527:31Z0PCVWULMJEOINSZ8NVLWX96HT71", "dateTime": 1515953441074}, {"current_trial": 103, "trialdata": {"rt": -1, "trial_type": "single-stim", "word": "diner", "stimulus": "<p id=\"stim\">DINER</p>", "conditions": [24, 800, "v", 12000], "internal_node_id": "0.0-76.0", "trial": 2, "time_elapsed": 545677, "serialpos": 14, "key_press": -1, "wordID": 466, "type": "PRES_VIS", "trial_index": 103}, "uniqueid": "MTK1527:31Z0PCVWULMJEOINSZ8NVLWX96HT71", "dateTime": 1515953442824}, {"current_trial": 104, "trialdata": {"rt": -1, "trial_type": "single-stim", "word": "dorm", "stimulus": "<p id=\"stim\">DORM</p>", "conditions": [24, 800, "v", 12000], "internal_node_id": "0.0-77.0", "trial": 2, "time_elapsed": 547654, "serialpos": 15, "key_press": -1, "wordID": 487, "type": "PRES_VIS", "trial_index": 104}, "uniqueid": "MTK1527:31Z0PCVWULMJEOINSZ8NVLWX96HT71", "dateTime": 1515953444801}, {"current_trial": 105, "trialdata": {"rt": -1, "trial_type": "single-stim", "word": "wife", "stimulus": "<p id=\"stim\">WIFE</p>", "conditions": [24, 800, "v", 12000], "internal_node_id": "0.0-78.0", "trial": 2, "time_elapsed": 549555, "serialpos": 16, "key_press": -1, "wordID": 1608, "type": "PRES_VIS", "trial_index": 105}, "uniqueid": "MTK1527:31Z0PCVWULMJEOINSZ8NVLWX96HT71", "dateTime": 1515953446701}, {"current_trial": 106, "trialdata": {"rt": -1, "trial_type": "single-stim", "word": "xerox", "stimulus": "<p id=\"stim\">XEROX</p>", "conditions": [24, 800, "v", 12000], "internal_node_id": "0.0-79.0", "trial": 2, "time_elapsed": 551186, "serialpos": 17, "key_press": -1, "wordID": 1627, "type": "PRES_VIS", "trial_index": 106}, "uniqueid": "MTK1527:31Z0PCVWULMJEOINSZ8NVLWX96HT71", "dateTime": 1515953448333}, {"current_trial": 107, "trialdata": {"rt": -1, "trial_type": "single-stim", "word": "flag", "stimulus": "<p id=\"stim\">FLAG</p>", "conditions": [24, 800, "v", 12000], "internal_node_id": "0.0-80.0", "trial": 2, "time_elapsed": 552888, "serialpos": 18, "key_press": -1, "wordID": 572, "type": "PRES_VIS", "trial_index": 107}, "uniqueid": "MTK1527:31Z0PCVWULMJEOINSZ8NVLWX96HT71", "dateTime": 1515953450035}, {"current_trial": 108, "trialdata": {"rt": -1, "trial_type": "single-stim", "word": "plate", "stimulus": "<p id=\"stim\">PLATE</p>", "conditions": [24, 800, "v", 12000], "internal_node_id": "0.0-81.0", "trial": 2, "time_elapsed": 554848, "serialpos": 19, "key_press": -1, "wordID": 1085, "type": "PRES_VIS", "trial_index": 108}, "uniqueid": "MTK1527:31Z0PCVWULMJEOINSZ8NVLWX96HT71", "dateTime": 1515953451995}, {"current_trial": 109, "trialdata": {"rt": -1, "trial_type": "single-stim", "word": "cocoon", "stimulus": "<p id=\"stim\">COCOON</p>", "conditions": [24, 800, "v", 12000], "internal_node_id": "0.0-82.0", "trial": 2, "time_elapsed": 556715, "serialpos": 20, "key_press": -1, "wordID": 338, "type": "PRES_VIS", "trial_index": 109}, "uniqueid": "MTK1527:31Z0PCVWULMJEOINSZ8NVLWX96HT71", "dateTime": 1515953453861}, {"current_trial": 110, "trialdata": {"rt": -1, "trial_type": "single-stim", "word": "valve", "stimulus": "<p id=\"stim\">VALVE</p>", "conditions": [24, 800, "v", 12000], "internal_node_id": "0.0-83.0", "trial": 2, "time_elapsed": 558359, "serialpos": 21, "key_press": -1, "wordID": 1545, "type": "PRES_VIS", "trial_index": 110}, "uniqueid": "MTK1527:31Z0PCVWULMJEOINSZ8NVLWX96HT71", "dateTime": 1515953455505}, {"current_trial": 111, "trialdata": {"rt": -1, "trial_type": "single-stim", "word": "actor", "stimulus": "<p id=\"stim\">ACTOR</p>", "conditions": [24, 800, "v", 12000], "internal_node_id": "0.0-84.0", "trial": 2, "time_elapsed": 560314, "serialpos": 22, "key_press": -1, "wordID": 4, "type": "PRES_VIS", "trial_index": 111}, "uniqueid": "MTK1527:31Z0PCVWULMJEOINSZ8NVLWX96HT71", "dateTime": 1515953457460}, {"current_trial": 112, "trialdata": {"rt": -1, "trial_type": "single-stim", "word": "film", "stimulus": "<p id=\"stim\">FILM</p>", "conditions": [24, 800, "v", 12000], "internal_node_id": "0.0-85.0", "trial": 2, "time_elapsed": 562034, "serialpos": 23, "key_press": -1, "wordID": 564, "type": "PRES_VIS", "trial_index": 112}, "uniqueid": "MTK1527:31Z0PCVWULMJEOINSZ8NVLWX96HT71", "dateTime": 1515953459181}, {"current_trial": 113, "trialdata": {"rt": -1, "trial_type": "single-stim", "stimulus": "", "internal_node_id": "0.0-86.0-0.0", "time_elapsed": 564196, "key_press": -1, "type": "PRE_RECALL_DELAY", "trial_index": 113}, "uniqueid": "MTK1527:31Z0PCVWULMJEOINSZ8NVLWX96HT71", "dateTime": 1515953461342}, {"current_trial": 114, "trialdata": {"rt": -1000, "trial_type": "single-audio", "stimulus": "/static/audio/400Hz.wav", "internal_node_id": "0.0-87.0", "time_elapsed": 564704, "key_press": -1, "type": "PRE_RECALL_ALERT", "trial_index": 114}, "uniqueid": "MTK1527:31Z0PCVWULMJEOINSZ8NVLWX96HT71", "dateTime": 1515953461850}, {"current_trial": 115, "trialdata": {"rt": [4344, 6684, 8291, 11495, 14930, 21849, 23743, 26861, 29310, 31297, 33573, 36614, 37823, 40583, 43076, 48869, 54565, 59012], "recwords": ["leopard", "wife", "friend", "seagull", "casgier", "waitress", "xerox", "flag", "paddle", "robber", "fox", "cocoon", "va", "valve", "film", "paddle", "friend", "flag"], "key_times": [2223, 2541, 2667, 2773, 3058, 3376, 3937, 4344, 4953, 5184, 5446, 5743, 6684, 7257, 7423, 7516, 7642, 7699, 7879, 8291, 8807, 9144, 9464, 9646, 9805, 10135, 10291, 10488, 10700, 10934, 11106, 11279, 11495, 13174, 13444, 13623, 13745, 13906, 14078, 14263, 14930, 15767, 16206, 16655, 16947, 17301, 17657, 18040, 18150, 18594, 18980, 19127, 19729, 19882, 20105, 20479, 20638, 20871, 21031, 21849, 22488, 22735, 22920, 23167, 23522, 23743, 24597, 24827, 25129, 25948, 26861, 27599, 27850, 28130, 28265, 28384, 28577, 29310, 30424, 30565, 30783, 30935, 31011, 31173, 31297, 32026, 32178, 32526, 33573, 35063, 35169, 35343, 35489, 35619, 35954, 36614, 37435, 37712, 37823, 38364, 38591, 39202, 39786, 39968, 40270, 40418, 40583, 42272, 42405, 42597, 42802, 43076, 46053, 47245, 47610, 47754, 48007, 48136, 48255, 48438, 48869, 53081, 53281, 53412, 53480, 53635, 53788, 54565, 57855, 57997, 58165, 58761, 59012], "trial_type": "free-recall", "conditions": [24, 800, "v", 12000], "internal_node_id": "0.0-88.0-0.0", "key_presses": [76, 69, 79, 80, 65, 82, 68, 13, 87, 73, 70, 69, 13, 70, 82, 73, 69, 78, 68, 13, 68, 69, 8, 8, 8, 83, 69, 65, 71, 85, 76, 76, 13, 67, 65, 83, 71, 73, 69, 82, 13, 83, 8, 81, 8, 87, 73, 65, 84, 8, 8, 8, 65, 73, 84, 82, 69, 83, 83, 13, 88, 69, 82, 79, 88, 13, 70, 76, 65, 71, 13, 80, 65, 68, 68, 76, 69, 13, 82, 79, 66, 66, 69, 82, 13, 70, 79, 88, 13, 67, 79, 67, 79, 79, 78, 13, 86, 65, 186, 86, 69, 8, 65, 76, 86, 69, 13, 70, 73, 76, 77, 13, 219, 8, 80, 65, 68, 68, 76, 69, 13, 70, 82, 73, 69, 78, 68, 13, 70, 76, 65, 71, 13], "trial": 2, "time_elapsed": 624716, "type": "FREE_RECALL", "trial_index": 115}, "uniqueid": "MTK1527:31Z0PCVWULMJEOINSZ8NVLWX96HT71", "dateTime": 1515953521884}, {"current_trial": 116, "trialdata": {"rt": 9793, "trial_type": "text", "internal_node_id": "0.0-89.0", "time_elapsed": 636538, "key_press": 71, "type": "INSTRUCTIONS", "trial_index": 116}, "uniqueid": "MTK1527:31Z0PCVWULMJEOINSZ8NVLWX96HT71", "dateTime": 1515953533685}, {"current_trial": 117, "trialdata": {"rt": [2954, 5055, 6460, 8647, 10195, 11780, 13673, 15305, 16894, 18513, 20216, 22145, 23787], "trial_type": "math-distractor", "key_times": [2480, 2783, 2954, 4439, 4880, 5055, 6111, 6278, 6460, 8146, 8294, 8647, 9782, 9978, 10195, 11315, 11455, 11780, 13477, 13673, 14664, 15144, 15305, 16285, 16494, 16894, 17958, 18165, 18513, 19595, 19746, 20216, 21662, 21742, 22145, 23537, 23787], "responses": ["24", "16", "11", "25", "11", "19", "5", "16", "18", "19", "19", "20", "6"], "num2": [9, 4, 2, 8, 7, 9, 3, 8, 6, 3, 9, 4, 2, 3], "num3": [9, 4, 8, 9, 2, 9, 1, 7, 8, 7, 9, 8, 2, 1], "conditions": [24, 1600, "v", 24000], "internal_node_id": "0.0-90.0", "key_presses": [50, 52, 13, 49, 54, 13, 49, 49, 13, 50, 53, 13, 49, 49, 13, 49, 57, 13, 53, 13, 49, 54, 13, 49, 56, 13, 49, 57, 13, 49, 57, 13, 50, 48, 13, 54, 13], "trial": 3, "time_elapsed": 662554, "type": "DISTRACTOR", "trial_index": 117, "num1": [6, 8, 1, 8, 2, 1, 1, 1, 4, 9, 1, 8, 2, 7]}, "uniqueid": "MTK1527:31Z0PCVWULMJEOINSZ8NVLWX96HT71", "dateTime": 1515953559700}, {"current_trial": 118, "trialdata": {"rt": -1, "trial_type": "single-stim", "stimulus": "<p id=\"stim\">10</p>", "internal_node_id": "0.0-91.0-0.0", "time_elapsed": 665559, "key_press": -1, "trial_index": 118}, "uniqueid": "MTK1527:31Z0PCVWULMJEOINSZ8NVLWX96HT71", "dateTime": 1515953562705}, {"current_trial": 119, "trialdata": {"rt": -1, "trial_type": "single-stim", "stimulus": "<p id=\"stim\">9</p>", "internal_node_id": "0.0-91.0-1.0", "time_elapsed": 666563, "key_press": -1, "trial_index": 119}, "uniqueid": "MTK1527:31Z0PCVWULMJEOINSZ8NVLWX96HT71", "dateTime": 1515953563710}, {"current_trial": 120, "trialdata": {"rt": -1, "trial_type": "single-stim", "stimulus": "<p id=\"stim\">8</p>", "internal_node_id": "0.0-91.0-2.0", "time_elapsed": 667568, "key_press": -1, "trial_index": 120}, "uniqueid": "MTK1527:31Z0PCVWULMJEOINSZ8NVLWX96HT71", "dateTime": 1515953564714}, {"current_trial": 121, "trialdata": {"rt": -1, "trial_type": "single-stim", "stimulus": "<p id=\"stim\">7</p>", "internal_node_id": "0.0-91.0-3.0", "time_elapsed": 668572, "key_press": -1, "trial_index": 121}, "uniqueid": "MTK1527:31Z0PCVWULMJEOINSZ8NVLWX96HT71", "dateTime": 1515953565718}, {"current_trial": 122, "trialdata": {"rt": -1, "trial_type": "single-stim", "stimulus": "<p id=\"stim\">6</p>", "internal_node_id": "0.0-91.0-4.0", "time_elapsed": 669579, "key_press": -1, "trial_index": 122}, "uniqueid": "MTK1527:31Z0PCVWULMJEOINSZ8NVLWX96HT71", "dateTime": 1515953566726}, {"current_trial": 123, "trialdata": {"rt": -1, "trial_type": "single-stim", "stimulus": "<p id=\"stim\">5</p>", "internal_node_id": "0.0-91.0-5.0", "time_elapsed": 670588, "key_press": -1, "trial_index": 123}, "uniqueid": "MTK1527:31Z0PCVWULMJEOINSZ8NVLWX96HT71", "dateTime": 1515953567734}, {"current_trial": 124, "trialdata": {"rt": -1, "trial_type": "single-stim", "stimulus": "<p id=\"stim\">4</p>", "internal_node_id": "0.0-91.0-6.0", "time_elapsed": 671595, "key_press": -1, "trial_index": 124}, "uniqueid": "MTK1527:31Z0PCVWULMJEOINSZ8NVLWX96HT71", "dateTime": 1515953568742}, {"current_trial": 125, "trialdata": {"rt": -1, "trial_type": "single-stim", "stimulus": "<p id=\"stim\">3</p>", "internal_node_id": "0.0-91.0-7.0", "time_elapsed": 672599, "key_press": -1, "trial_index": 125}, "uniqueid": "MTK1527:31Z0PCVWULMJEOINSZ8NVLWX96HT71", "dateTime": 1515953569746}, {"current_trial": 126, "trialdata": {"rt": -1, "trial_type": "single-stim", "stimulus": "<p id=\"stim\">2</p>", "internal_node_id": "0.0-91.0-8.0", "time_elapsed": 673604, "key_press": -1, "trial_index": 126}, "uniqueid": "MTK1527:31Z0PCVWULMJEOINSZ8NVLWX96HT71", "dateTime": 1515953570750}, {"current_trial": 127, "trialdata": {"rt": -1, "trial_type": "single-stim", "stimulus": "<p id=\"stim\">1</p>", "internal_node_id": "0.0-91.0-9.0", "time_elapsed": 674609, "key_press": -1, "trial_index": 127}, "uniqueid": "MTK1527:31Z0PCVWULMJEOINSZ8NVLWX96HT71", "dateTime": 1515953571755}, {"current_trial": 128, "trialdata": {"rt": -1, "trial_type": "single-stim", "stimulus": "<p id=\"stim\">+</p>", "internal_node_id": "0.0-92.0-0.0", "time_elapsed": 676114, "key_press": -1, "type": "FIXATION", "trial_index": 128}, "uniqueid": "MTK1527:31Z0PCVWULMJEOINSZ8NVLWX96HT71", "dateTime": 1515953573260}, {"current_trial": 129, "trialdata": {"rt": -1, "trial_type": "single-stim", "word": "lava", "stimulus": "<p id=\"stim\">LAVA</p>", "conditions": [24, 1600, "v", 24000], "internal_node_id": "0.0-93.0", "trial": 3, "time_elapsed": 677723, "serialpos": 0, "key_press": -1, "wordID": 803, "type": "PRES_VIS", "trial_index": 129}, "uniqueid": "MTK1527:31Z0PCVWULMJEOINSZ8NVLWX96HT71", "dateTime": 1515953574872}, {"current_trial": 130, "trialdata": {"rt": -1, "trial_type": "single-stim", "word": "crater", "stimulus": "<p id=\"stim\">CRATER</p>", "conditions": [24, 1600, "v", 24000], "internal_node_id": "0.0-94.0", "trial": 3, "time_elapsed": 680343, "serialpos": 1, "key_press": -1, "wordID": 399, "type": "PRES_VIS", "trial_index": 130}, "uniqueid": "MTK1527:31Z0PCVWULMJEOINSZ8NVLWX96HT71", "dateTime": 1515953577490}, {"current_trial": 131, "trialdata": {"rt": -1, "trial_type": "single-stim", "word": "luggage", "stimulus": "<p id=\"stim\">LUGGAGE</p>", "conditions": [24, 1600, "v", 24000], "internal_node_id": "0.0-95.0", "trial": 3, "time_elapsed": 682905, "serialpos": 2, "key_press": -1, "wordID": 846, "type": "PRES_VIS", "trial_index": 131}, "uniqueid": "MTK1527:31Z0PCVWULMJEOINSZ8NVLWX96HT71", "dateTime": 1515953580051}, {"current_trial": 132, "trialdata": {"rt": -1, "trial_type": "single-stim", "word": "nurse", "stimulus": "<p id=\"stim\">NURSE</p>", "conditions": [24, 1600, "v", 24000], "internal_node_id": "0.0-96.0", "trial": 3, "time_elapsed": 685403, "serialpos": 3, "key_press": -1, "wordID": 962, "type": "PRES_VIS", "trial_index": 132}, "uniqueid": "MTK1527:31Z0PCVWULMJEOINSZ8NVLWX96HT71", "dateTime": 1515953582549}, {"current_trial": 133, "trialdata": {"rt": -1, "trial_type": "single-stim", "word": "bacon", "stimulus": "<p id=\"stim\">BACON</p>", "conditions": [24, 1600, "v", 24000], "internal_node_id": "0.0-97.0", "trial": 3, "time_elapsed": 687971, "serialpos": 4, "key_press": -1, "wordID": 66, "type": "PRES_VIS", "trial_index": 133}, "uniqueid": "MTK1527:31Z0PCVWULMJEOINSZ8NVLWX96HT71", "dateTime": 1515953585118}, {"current_trial": 134, "trialdata": {"rt": -1, "trial_type": "single-stim", "word": "supper", "stimulus": "<p id=\"stim\">SUPPER</p>", "conditions": [24, 1600, "v", 24000], "internal_node_id": "0.0-98.0", "trial": 3, "time_elapsed": 690678, "serialpos": 5, "key_press": -1, "wordID": 1410, "type": "PRES_VIS", "trial_index": 134}, "uniqueid": "MTK1527:31Z0PCVWULMJEOINSZ8NVLWX96HT71", "dateTime": 1515953587824}, {"current_trial": 135, "trialdata": {"rt": -1, "trial_type": "single-stim", "word": "skillet", "stimulus": "<p id=\"stim\">SKILLET</p>", "conditions": [24, 1600, "v", 24000], "internal_node_id": "0.0-99.0", "trial": 3, "time_elapsed": 693404, "serialpos": 6, "key_press": -1, "wordID": 1316, "type": "PRES_VIS", "trial_index": 135}, "uniqueid": "MTK1527:31Z0PCVWULMJEOINSZ8NVLWX96HT71", "dateTime": 1515953590550}, {"current_trial": 136, "trialdata": {"rt": -1, "trial_type": "single-stim", "word": "jungle", "stimulus": "<p id=\"stim\">JUNGLE</p>", "conditions": [24, 1600, "v", 24000], "internal_node_id": "0.0-100.0", "trial": 3, "time_elapsed": 695986, "serialpos": 7, "key_press": -1, "wordID": 763, "type": "PRES_VIS", "trial_index": 136}, "uniqueid": "MTK1527:31Z0PCVWULMJEOINSZ8NVLWX96HT71", "dateTime": 1515953593132}, {"current_trial": 137, "trialdata": {"rt": -1, "trial_type": "single-stim", "word": "taxi", "stimulus": "<p id=\"stim\">TAXI</p>", "conditions": [24, 1600, "v", 24000], "internal_node_id": "0.0-101.0", "trial": 3, "time_elapsed": 698772, "serialpos": 8, "key_press": -1, "wordID": 1437, "type": "PRES_VIS", "trial_index": 137}, "uniqueid": "MTK1527:31Z0PCVWULMJEOINSZ8NVLWX96HT71", "dateTime": 1515953595918}, {"current_trial": 138, "trialdata": {"rt": -1, "trial_type": "single-stim", "word": "spoon", "stimulus": "<p id=\"stim\">SPOON</p>", "conditions": [24, 1600, "v", 24000], "internal_node_id": "0.0-102.0", "trial": 3, "time_elapsed": 701312, "serialpos": 9, "key_press": -1, "wordID": 1356, "type": "PRES_VIS", "trial_index": 138}, "uniqueid": "MTK1527:31Z0PCVWULMJEOINSZ8NVLWX96HT71", "dateTime": 1515953598459}, {"current_trial": 139, "trialdata": {"rt": -1, "trial_type": "single-stim", "word": "witness", "stimulus": "<p id=\"stim\">WITNESS</p>", "conditions": [24, 1600, "v", 24000], "internal_node_id": "0.0-103.0", "trial": 3, "time_elapsed": 703797, "serialpos": 10, "key_press": -1, "wordID": 1617, "type": "PRES_VIS", "trial_index": 139}, "uniqueid": "MTK1527:31Z0PCVWULMJEOINSZ8NVLWX96HT71", "dateTime": 1515953600943}, {"current_trial": 140, "trialdata": {"rt": -1, "trial_type": "single-stim", "word": "marker", "stimulus": "<p id=\"stim\">MARKER</p>", "conditions": [24, 1600, "v", 24000], "internal_node_id": "0.0-104.0", "trial": 3, "time_elapsed": 706237, "serialpos": 11, "key_press": -1, "wordID": 869, "type": "PRES_VIS", "trial_index": 140}, "uniqueid": "MTK1527:31Z0PCVWULMJEOINSZ8NVLWX96HT71", "dateTime": 1515953603383}, {"current_trial": 141, "trialdata": {"rt": -1, "trial_type": "single-stim", "word": "concert", "stimulus": "<p id=\"stim\">CONCERT</p>", "conditions": [24, 1600, "v", 24000], "internal_node_id": "0.0-105.0", "trial": 3, "time_elapsed": 708827, "serialpos": 12, "key_press": -1, "wordID": 359, "type": "PRES_VIS", "trial_index": 141}, "uniqueid": "MTK1527:31Z0PCVWULMJEOINSZ8NVLWX96HT71", "dateTime": 1515953605973}, {"current_trial": 142, "trialdata": {"rt": -1, "trial_type": "single-stim", "word": "toaster", "stimulus": "<p id=\"stim\">TOASTER</p>", "conditions": [24, 1600, "v", 24000], "internal_node_id": "0.0-106.0", "trial": 3, "time_elapsed": 711445, "serialpos": 13, "key_press": -1, "wordID": 1471, "type": "PRES_VIS", "trial_index": 142}, "uniqueid": "MTK1527:31Z0PCVWULMJEOINSZ8NVLWX96HT71", "dateTime": 1515953608592}, {"current_trial": 143, "trialdata": {"rt": -1, "trial_type": "single-stim", "word": "hiker", "stimulus": "<p id=\"stim\">HIKER</p>", "conditions": [24, 1600, "v", 24000], "internal_node_id": "0.0-107.0", "trial": 3, "time_elapsed": 714060, "serialpos": 14, "key_press": -1, "wordID": 707, "type": "PRES_VIS", "trial_index": 143}, "uniqueid": "MTK1527:31Z0PCVWULMJEOINSZ8NVLWX96HT71", "dateTime": 1515953611207}, {"current_trial": 144, "trialdata": {"rt": -1, "trial_type": "single-stim", "word": "climber", "stimulus": "<p id=\"stim\">CLIMBER</p>", "conditions": [24, 1600, "v", 24000], "internal_node_id": "0.0-108.0", "trial": 3, "time_elapsed": 716516, "serialpos": 15, "key_press": -1, "wordID": 322, "type": "PRES_VIS", "trial_index": 144}, "uniqueid": "MTK1527:31Z0PCVWULMJEOINSZ8NVLWX96HT71", "dateTime": 1515953613663}, {"current_trial": 145, "trialdata": {"rt": -1, "trial_type": "single-stim", "word": "gift", "stimulus": "<p id=\"stim\">GIFT</p>", "conditions": [24, 1600, "v", 24000], "internal_node_id": "0.0-109.0", "trial": 3, "time_elapsed": 719097, "serialpos": 16, "key_press": -1, "wordID": 634, "type": "PRES_VIS", "trial_index": 145}, "uniqueid": "MTK1527:31Z0PCVWULMJEOINSZ8NVLWX96HT71", "dateTime": 1515953616244}, {"current_trial": 146, "trialdata": {"rt": -1, "trial_type": "single-stim", "word": "basement", "stimulus": "<p id=\"stim\">BASEMENT</p>", "conditions": [24, 1600, "v", 24000], "internal_node_id": "0.0-110.0", "trial": 3, "time_elapsed": 721610, "serialpos": 17, "key_press": -1, "wordID": 93, "type": "PRES_VIS", "trial_index": 146}, "uniqueid": "MTK1527:31Z0PCVWULMJEOINSZ8NVLWX96HT71", "dateTime": 1515953618756}, {"current_trial": 147, "trialdata": {"rt": -1, "trial_type": "single-stim", "word": "loft", "stimulus": "<p id=\"stim\">LOFT</p>", "conditions": [24, 1600, "v", 24000], "internal_node_id": "0.0-111.0", "trial": 3, "time_elapsed": 724068, "serialpos": 18, "key_press": -1, "wordID": 839, "type": "PRES_VIS", "trial_index": 147}, "uniqueid": "MTK1527:31Z0PCVWULMJEOINSZ8NVLWX96HT71", "dateTime": 1515953621214}, {"current_trial": 148, "trialdata": {"rt": -1, "trial_type": "single-stim", "word": "window", "stimulus": "<p id=\"stim\">WINDOW</p>", "conditions": [24, 1600, "v", 24000], "internal_node_id": "0.0-112.0", "trial": 3, "time_elapsed": 726854, "serialpos": 19, "key_press": -1, "wordID": 1610, "type": "PRES_VIS", "trial_index": 148}, "uniqueid": "MTK1527:31Z0PCVWULMJEOINSZ8NVLWX96HT71", "dateTime": 1515953624000}, {"current_trial": 149, "trialdata": {"rt": -1, "trial_type": "single-stim", "word": "carriage", "stimulus": "<p id=\"stim\">CARRIAGE</p>", "conditions": [24, 1600, "v", 24000], "internal_node_id": "0.0-113.0", "trial": 3, "time_elapsed": 729524, "serialpos": 20, "key_press": -1, "wordID": 247, "type": "PRES_VIS", "trial_index": 149}, "uniqueid": "MTK1527:31Z0PCVWULMJEOINSZ8NVLWX96HT71", "dateTime": 1515953626670}, {"current_trial": 150, "trialdata": {"rt": -1, "trial_type": "single-stim", "word": "stove", "stimulus": "<p id=\"stim\">STOVE</p>", "conditions": [24, 1600, "v", 24000], "internal_node_id": "0.0-114.0", "trial": 3, "time_elapsed": 732176, "serialpos": 21, "key_press": -1, "wordID": 1387, "type": "PRES_VIS", "trial_index": 150}, "uniqueid": "MTK1527:31Z0PCVWULMJEOINSZ8NVLWX96HT71", "dateTime": 1515953629322}, {"current_trial": 151, "trialdata": {"rt": -1, "trial_type": "single-stim", "word": "sheriff", "stimulus": "<p id=\"stim\">SHERIFF</p>", "conditions": [24, 1600, "v", 24000], "internal_node_id": "0.0-115.0", "trial": 3, "time_elapsed": 734681, "serialpos": 22, "key_press": -1, "wordID": 1283, "type": "PRES_VIS", "trial_index": 151}, "uniqueid": "MTK1527:31Z0PCVWULMJEOINSZ8NVLWX96HT71", "dateTime": 1515953631828}, {"current_trial": 152, "trialdata": {"rt": -1, "trial_type": "single-stim", "word": "cocktail", "stimulus": "<p id=\"stim\">COCKTAIL</p>", "conditions": [24, 1600, "v", 24000], "internal_node_id": "0.0-116.0", "trial": 3, "time_elapsed": 737105, "serialpos": 23, "key_press": -1, "wordID": 337, "type": "PRES_VIS", "trial_index": 152}, "uniqueid": "MTK1527:31Z0PCVWULMJEOINSZ8NVLWX96HT71", "dateTime": 1515953634251}, {"current_trial": 153, "trialdata": {"rt": -1, "trial_type": "single-stim", "stimulus": "", "internal_node_id": "0.0-117.0-0.0", "time_elapsed": 739141, "key_press": -1, "type": "PRE_RECALL_DELAY", "trial_index": 153}, "uniqueid": "MTK1527:31Z0PCVWULMJEOINSZ8NVLWX96HT71", "dateTime": 1515953636288}, {"current_trial": 154, "trialdata": {"rt": -1000, "trial_type": "single-audio", "stimulus": "/static/audio/400Hz.wav", "internal_node_id": "0.0-118.0", "time_elapsed": 739646, "key_press": -1, "type": "PRE_RECALL_ALERT", "trial_index": 154}, "uniqueid": "MTK1527:31Z0PCVWULMJEOINSZ8NVLWX96HT71", "dateTime": 1515953636793}, {"current_trial": 155, "trialdata": {"rt": [3310, 6806, 9658, 14248, 16488, 20041, 23078, 26208, 29109, 33284, 42407, 47104, 55492, 58986], "recwords": ["sherif", "cocltaol", "sove", "climber", "hiker", "toaster", "taxi", "spoon", "jungle", "witness", "luggage", "crater", "basement", "stove"], "key_times": [1242, 1695, 1942, 2112, 2331, 2653, 3310, 3679, 3862, 4053, 4217, 4533, 4789, 4952, 5605, 6806, 7874, 8518, 8794, 9109, 9658, 12069, 12200, 12361, 12470, 12887, 13252, 13840, 14248, 14762, 14954, 15193, 15415, 15963, 16488, 17041, 17461, 17710, 18441, 18543, 18663, 18843, 20041, 21828, 22100, 22501, 22640, 23078, 23391, 23518, 23656, 23784, 24061, 24854, 25512, 26208, 27253, 27416, 27615, 27895, 28115, 28451, 29109, 30781, 30909, 31103, 31314, 31571, 31836, 31991, 33284, 40727, 41027, 41413, 41552, 41701, 41880, 42150, 42407, 45164, 45687, 45831, 45898, 46181, 46419, 47104, 52295, 52453, 52604, 52946, 53446, 54008, 54221, 54603, 55492, 57445, 57589, 57954, 58190, 58352, 58986], "trial_type": "free-recall", "conditions": [24, 1600, "v", 24000], "internal_node_id": "0.0-119.0-0.0", "key_presses": [83, 72, 69, 82, 73, 70, 13, 67, 79, 67, 76, 84, 65, 79, 76, 13, 83, 79, 86, 69, 13, 67, 76, 73, 77, 66, 69, 82, 13, 72, 73, 75, 69, 82, 13, 84, 79, 65, 83, 84, 69, 82, 13, 84, 65, 88, 73, 13, 83, 80, 79, 79, 77, 8, 78, 13, 74, 85, 78, 71, 76, 69, 13, 87, 73, 84, 78, 69, 83, 83, 13, 76, 85, 71, 71, 65, 71, 69, 13, 67, 82, 65, 84, 69, 82, 13, 66, 65, 83, 69, 77, 69, 78, 84, 13, 83, 84, 79, 86, 69, 13], "trial": 3, "time_elapsed": 799659, "type": "FREE_RECALL", "trial_index": 155}, "uniqueid": "MTK1527:31Z0PCVWULMJEOINSZ8NVLWX96HT71", "dateTime": 1515953696824}, {"current_trial": 156, "trialdata": {"rt": 1, "trial_type": "text", "internal_node_id": "0.0-120.0", "time_elapsed": 801687, "key_press": 73, "type": "INSTRUCTIONS", "trial_index": 156}, "uniqueid": "MTK1527:31Z0PCVWULMJEOINSZ8NVLWX96HT71", "dateTime": 1515953698833}, {"current_trial": 157, "trialdata": {"rt": [2766, 4947, 8075, 9869, 11613, 13271, 15489, 17671, 20345, 22187, 23867], "trial_type": "math-distractor", "key_times": [2087, 2560, 2766, 3849, 4243, 4249, 4947, 7642, 7832, 8075, 9468, 9661, 9869, 11431, 11613, 12967, 13134, 13271, 14899, 15076, 15489, 17013, 17454, 17671, 19922, 20345, 22024, 22187, 23513, 23680, 23867], "responses": ["15", "154", "21", "21", "8", "12", "20", "12", "9", "8", "11"], "num2": [8, 1, 1, 8, 3, 5, 3, 7, 3, 1, 3, 1], "num3": [4, 8, 6, 4, 2, 6, 8, 1, 7, 4, 5, 6], "conditions": [24, 1600, "v", 24000], "internal_node_id": "0.0-121.0", "key_presses": [49, 53, 13, 49, 53, 52, 13, 50, 49, 13, 50, 49, 13, 56, 13, 49, 50, 13, 50, 48, 13, 49, 50, 13, 57, 13, 56, 13, 49, 49, 13], "trial": 4, "time_elapsed": 827703, "type": "DISTRACTOR", "trial_index": 157, "num1": [3, 5, 9, 9, 3, 1, 9, 4, 6, 3, 3, 6]}, "uniqueid": "MTK1527:31Z0PCVWULMJEOINSZ8NVLWX96HT71", "dateTime": 1515953724850}, {"current_trial": 158, "trialdata": {"rt": -1, "trial_type": "single-stim", "stimulus": "<p id=\"stim\">10</p>", "internal_node_id": "0.0-122.0-0.0", "time_elapsed": 830711, "key_press": -1, "trial_index": 158}, "uniqueid": "MTK1527:31Z0PCVWULMJEOINSZ8NVLWX96HT71", "dateTime": 1515953727857}, {"current_trial": 159, "trialdata": {"rt": -1, "trial_type": "single-stim", "stimulus": "<p id=\"stim\">9</p>", "internal_node_id": "0.0-122.0-1.0", "time_elapsed": 831718, "key_press": -1, "trial_index": 159}, "uniqueid": "MTK1527:31Z0PCVWULMJEOINSZ8NVLWX96HT71", "dateTime": 1515953728865}, {"current_trial": 160, "trialdata": {"rt": -1, "trial_type": "single-stim", "stimulus": "<p id=\"stim\">8</p>", "internal_node_id": "0.0-122.0-2.0", "time_elapsed": 832726, "key_press": -1, "trial_index": 160}, "uniqueid": "MTK1527:31Z0PCVWULMJEOINSZ8NVLWX96HT71", "dateTime": 1515953729872}, {"current_trial": 161, "trialdata": {"rt": -1, "trial_type": "single-stim", "stimulus": "<p id=\"stim\">7</p>", "internal_node_id": "0.0-122.0-3.0", "time_elapsed": 833736, "key_press": -1, "trial_index": 161}, "uniqueid": "MTK1527:31Z0PCVWULMJEOINSZ8NVLWX96HT71", "dateTime": 1515953730882}, {"current_trial": 162, "trialdata": {"rt": -1, "trial_type": "single-stim", "stimulus": "<p id=\"stim\">6</p>", "internal_node_id": "0.0-122.0-4.0", "time_elapsed": 834741, "key_press": -1, "trial_index": 162}, "uniqueid": "MTK1527:31Z0PCVWULMJEOINSZ8NVLWX96HT71", "dateTime": 1515953731888}, {"current_trial": 163, "trialdata": {"rt": -1, "trial_type": "single-stim", "stimulus": "<p id=\"stim\">5</p>", "internal_node_id": "0.0-122.0-5.0", "time_elapsed": 835747, "key_press": -1, "trial_index": 163}, "uniqueid": "MTK1527:31Z0PCVWULMJEOINSZ8NVLWX96HT71", "dateTime": 1515953732894}, {"current_trial": 164, "trialdata": {"rt": -1, "trial_type": "single-stim", "stimulus": "<p id=\"stim\">4</p>", "internal_node_id": "0.0-122.0-6.0", "time_elapsed": 836752, "key_press": -1, "trial_index": 164}, "uniqueid": "MTK1527:31Z0PCVWULMJEOINSZ8NVLWX96HT71", "dateTime": 1515953733898}, {"current_trial": 165, "trialdata": {"rt": -1, "trial_type": "single-stim", "stimulus": "<p id=\"stim\">3</p>", "internal_node_id": "0.0-122.0-7.0", "time_elapsed": 837757, "key_press": -1, "trial_index": 165}, "uniqueid": "MTK1527:31Z0PCVWULMJEOINSZ8NVLWX96HT71", "dateTime": 1515953734903}, {"current_trial": 166, "trialdata": {"rt": -1, "trial_type": "single-stim", "stimulus": "<p id=\"stim\">2</p>", "internal_node_id": "0.0-122.0-8.0", "time_elapsed": 838765, "key_press": -1, "trial_index": 166}, "uniqueid": "MTK1527:31Z0PCVWULMJEOINSZ8NVLWX96HT71", "dateTime": 1515953735911}, {"current_trial": 167, "trialdata": {"rt": -1, "trial_type": "single-stim", "stimulus": "<p id=\"stim\">1</p>", "internal_node_id": "0.0-122.0-9.0", "time_elapsed": 839769, "key_press": -1, "trial_index": 167}, "uniqueid": "MTK1527:31Z0PCVWULMJEOINSZ8NVLWX96HT71", "dateTime": 1515953736915}, {"current_trial": 168, "trialdata": {"rt": -1, "trial_type": "single-stim", "stimulus": "<p id=\"stim\">+</p>", "internal_node_id": "0.0-123.0-0.0", "time_elapsed": 841274, "key_press": -1, "type": "FIXATION", "trial_index": 168}, "uniqueid": "MTK1527:31Z0PCVWULMJEOINSZ8NVLWX96HT71", "dateTime": 1515953738421}, {"current_trial": 169, "trialdata": {"rt": -1, "trial_type": "single-stim", "word": "forest", "stimulus": "<p id=\"stim\">FOREST</p>", "conditions": [24, 1600, "v", 24000], "internal_node_id": "0.0-124.0", "trial": 4, "time_elapsed": 842879, "serialpos": 0, "key_press": -1, "wordID": 592, "type": "PRES_VIS", "trial_index": 169}, "uniqueid": "MTK1527:31Z0PCVWULMJEOINSZ8NVLWX96HT71", "dateTime": 1515953740026}, {"current_trial": 170, "trialdata": {"rt": -1, "trial_type": "single-stim", "word": "tablet", "stimulus": "<p id=\"stim\">TABLET</p>", "conditions": [24, 1600, "v", 24000], "internal_node_id": "0.0-125.0", "trial": 4, "time_elapsed": 845580, "serialpos": 1, "key_press": -1, "wordID": 1426, "type": "PRES_VIS", "trial_index": 170}, "uniqueid": "MTK1527:31Z0PCVWULMJEOINSZ8NVLWX96HT71", "dateTime": 1515953742727}, {"current_trial": 171, "trialdata": {"rt": -1, "trial_type": "single-stim", "word": "poet", "stimulus": "<p id=\"stim\">POET</p>", "conditions": [24, 1600, "v", 24000], "internal_node_id": "0.0-126.0", "trial": 4, "time_elapsed": 848144, "serialpos": 2, "key_press": -1, "wordID": 1094, "type": "PRES_VIS", "trial_index": 171}, "uniqueid": "MTK1527:31Z0PCVWULMJEOINSZ8NVLWX96HT71", "dateTime": 1515953745291}, {"current_trial": 172, "trialdata": {"rt": -1, "trial_type": "single-stim", "word": "woman", "stimulus": "<p id=\"stim\">WOMAN</p>", "conditions": [24, 1600, "v", 24000], "internal_node_id": "0.0-127.0", "trial": 4, "time_elapsed": 850771, "serialpos": 3, "key_press": -1, "wordID": 1619, "type": "PRES_VIS", "trial_index": 172}, "uniqueid": "MTK1527:31Z0PCVWULMJEOINSZ8NVLWX96HT71", "dateTime": 1515953747918}, {"current_trial": 173, "trialdata": {"rt": -1, "trial_type": "single-stim", "word": "suitcase", "stimulus": "<p id=\"stim\">SUITCASE</p>", "conditions": [24, 1600, "v", 24000], "internal_node_id": "0.0-128.0", "trial": 4, "time_elapsed": 853426, "serialpos": 4, "key_press": -1, "wordID": 1402, "type": "PRES_VIS", "trial_index": 173}, "uniqueid": "MTK1527:31Z0PCVWULMJEOINSZ8NVLWX96HT71", "dateTime": 1515953750572}, {"current_trial": 174, "trialdata": {"rt": -1, "trial_type": "single-stim", "word": "flower", "stimulus": "<p id=\"stim\">FLOWER</p>", "conditions": [24, 1600, "v", 24000], "internal_node_id": "0.0-129.0", "trial": 4, "time_elapsed": 856175, "serialpos": 5, "key_press": -1, "wordID": 583, "type": "PRES_VIS", "trial_index": 174}, "uniqueid": "MTK1527:31Z0PCVWULMJEOINSZ8NVLWX96HT71", "dateTime": 1515953753321}, {"current_trial": 175, "trialdata": {"rt": -1, "trial_type": "single-stim", "word": "hawk", "stimulus": "<p id=\"stim\">HAWK</p>", "conditions": [24, 1600, "v", 24000], "internal_node_id": "0.0-130.0", "trial": 4, "time_elapsed": 858775, "serialpos": 6, "key_press": -1, "wordID": 691, "type": "PRES_VIS", "trial_index": 175}, "uniqueid": "MTK1527:31Z0PCVWULMJEOINSZ8NVLWX96HT71", "dateTime": 1515953755922}, {"current_trial": 176, "trialdata": {"rt": -1, "trial_type": "single-stim", "word": "barrel", "stimulus": "<p id=\"stim\">BARREL</p>", "conditions": [24, 1600, "v", 24000], "internal_node_id": "0.0-131.0", "trial": 4, "time_elapsed": 861192, "serialpos": 7, "key_press": -1, "wordID": 90, "type": "PRES_VIS", "trial_index": 176}, "uniqueid": "MTK1527:31Z0PCVWULMJEOINSZ8NVLWX96HT71", "dateTime": 1515953758339}, {"current_trial": 177, "trialdata": {"rt": -1, "trial_type": "single-stim", "word": "gallon", "stimulus": "<p id=\"stim\">GALLON</p>", "conditions": [24, 1600, "v", 24000], "internal_node_id": "0.0-132.0", "trial": 4, "time_elapsed": 863838, "serialpos": 8, "key_press": -1, "wordID": 617, "type": "PRES_VIS", "trial_index": 177}, "uniqueid": "MTK1527:31Z0PCVWULMJEOINSZ8NVLWX96HT71", "dateTime": 1515953760984}, {"current_trial": 178, "trialdata": {"rt": -1, "trial_type": "single-stim", "word": "beaver", "stimulus": "<p id=\"stim\">BEAVER</p>", "conditions": [24, 1600, "v", 24000], "internal_node_id": "0.0-133.0", "trial": 4, "time_elapsed": 866547, "serialpos": 9, "key_press": -1, "wordID": 108, "type": "PRES_VIS", "trial_index": 178}, "uniqueid": "MTK1527:31Z0PCVWULMJEOINSZ8NVLWX96HT71", "dateTime": 1515953763694}, {"current_trial": 179, "trialdata": {"rt": -1, "trial_type": "single-stim", "word": "hero", "stimulus": "<p id=\"stim\">HERO</p>", "conditions": [24, 1600, "v", 24000], "internal_node_id": "0.0-134.0", "trial": 4, "time_elapsed": 868980, "serialpos": 10, "key_press": -1, "wordID": 705, "type": "PRES_VIS", "trial_index": 179}, "uniqueid": "MTK1527:31Z0PCVWULMJEOINSZ8NVLWX96HT71", "dateTime": 1515953766127}, {"current_trial": 180, "trialdata": {"rt": -1, "trial_type": "single-stim", "word": "knapsack", "stimulus": "<p id=\"stim\">KNAPSACK</p>", "conditions": [24, 1600, "v", 24000], "internal_node_id": "0.0-135.0", "trial": 4, "time_elapsed": 871550, "serialpos": 11, "key_press": -1, "wordID": 782, "type": "PRES_VIS", "trial_index": 180}, "uniqueid": "MTK1527:31Z0PCVWULMJEOINSZ8NVLWX96HT71", "dateTime": 1515953768697}, {"current_trial": 181, "trialdata": {"rt": -1, "trial_type": "single-stim", "word": "kitchen", "stimulus": "<p id=\"stim\">KITCHEN</p>", "conditions": [24, 1600, "v", 24000], "internal_node_id": "0.0-136.0", "trial": 4, "time_elapsed": 874239, "serialpos": 12, "key_press": -1, "wordID": 777, "type": "PRES_VIS", "trial_index": 181}, "uniqueid": "MTK1527:31Z0PCVWULMJEOINSZ8NVLWX96HT71", "dateTime": 1515953771385}, {"current_trial": 182, "trialdata": {"rt": -1, "trial_type": "single-stim", "word": "fireplace", "stimulus": "<p id=\"stim\">FIREPLACE</p>", "conditions": [24, 1600, "v", 24000], "internal_node_id": "0.0-137.0", "trial": 4, "time_elapsed": 876651, "serialpos": 13, "key_press": -1, "wordID": 569, "type": "PRES_VIS", "trial_index": 182}, "uniqueid": "MTK1527:31Z0PCVWULMJEOINSZ8NVLWX96HT71", "dateTime": 1515953773798}, {"current_trial": 183, "trialdata": {"rt": -1, "trial_type": "single-stim", "word": "subway", "stimulus": "<p id=\"stim\">SUBWAY</p>", "conditions": [24, 1600, "v", 24000], "internal_node_id": "0.0-138.0", "trial": 4, "time_elapsed": 879445, "serialpos": 14, "key_press": -1, "wordID": 1399, "type": "PRES_VIS", "trial_index": 183}, "uniqueid": "MTK1527:31Z0PCVWULMJEOINSZ8NVLWX96HT71", "dateTime": 1515953776592}, {"current_trial": 184, "trialdata": {"rt": -1, "trial_type": "single-stim", "word": "snake", "stimulus": "<p id=\"stim\">SNAKE</p>", "conditions": [24, 1600, "v", 24000], "internal_node_id": "0.0-139.0", "trial": 4, "time_elapsed": 882136, "serialpos": 15, "key_press": -1, "wordID": 1332, "type": "PRES_VIS", "trial_index": 184}, "uniqueid": "MTK1527:31Z0PCVWULMJEOINSZ8NVLWX96HT71", "dateTime": 1515953779283}, {"current_trial": 185, "trialdata": {"rt": -1, "trial_type": "single-stim", "word": "cyclone", "stimulus": "<p id=\"stim\">CYCLONE</p>", "conditions": [24, 1600, "v", 24000], "internal_node_id": "0.0-140.0", "trial": 4, "time_elapsed": 884830, "serialpos": 16, "key_press": -1, "wordID": 430, "type": "PRES_VIS", "trial_index": 185}, "uniqueid": "MTK1527:31Z0PCVWULMJEOINSZ8NVLWX96HT71", "dateTime": 1515953781977}, {"current_trial": 186, "trialdata": {"rt": -1, "trial_type": "single-stim", "word": "dolphin", "stimulus": "<p id=\"stim\">DOLPHIN</p>", "conditions": [24, 1600, "v", 24000], "internal_node_id": "0.0-141.0", "trial": 4, "time_elapsed": 887288, "serialpos": 17, "key_press": -1, "wordID": 482, "type": "PRES_VIS", "trial_index": 186}, "uniqueid": "MTK1527:31Z0PCVWULMJEOINSZ8NVLWX96HT71", "dateTime": 1515953784435}, {"current_trial": 187, "trialdata": {"rt": -1, "trial_type": "single-stim", "word": "padding", "stimulus": "<p id=\"stim\">PADDING</p>", "conditions": [24, 1600, "v", 24000], "internal_node_id": "0.0-142.0", "trial": 4, "time_elapsed": 890055, "serialpos": 18, "key_press": -1, "wordID": 998, "type": "PRES_VIS", "trial_index": 187}, "uniqueid": "MTK1527:31Z0PCVWULMJEOINSZ8NVLWX96HT71", "dateTime": 1515953787201}, {"current_trial": 188, "trialdata": {"rt": -1, "trial_type": "single-stim", "word": "drawing", "stimulus": "<p id=\"stim\">DRAWING</p>", "conditions": [24, 1600, "v", 24000], "internal_node_id": "0.0-143.0", "trial": 4, "time_elapsed": 892515, "serialpos": 19, "key_press": -1, "wordID": 493, "type": "PRES_VIS", "trial_index": 188}, "uniqueid": "MTK1527:31Z0PCVWULMJEOINSZ8NVLWX96HT71", "dateTime": 1515953789662}, {"current_trial": 189, "trialdata": {"rt": -1, "trial_type": "single-stim", "word": "rabbit", "stimulus": "<p id=\"stim\">RABBIT</p>", "conditions": [24, 1600, "v", 24000], "internal_node_id": "0.0-144.0", "trial": 4, "time_elapsed": 895249, "serialpos": 20, "key_press": -1, "wordID": 1151, "type": "PRES_VIS", "trial_index": 189}, "uniqueid": "MTK1527:31Z0PCVWULMJEOINSZ8NVLWX96HT71", "dateTime": 1515953792401}, {"current_trial": 190, "trialdata": {"rt": -1, "trial_type": "single-stim", "word": "postage", "stimulus": "<p id=\"stim\">POSTAGE</p>", "conditions": [24, 1600, "v", 24000], "internal_node_id": "0.0-145.0", "trial": 4, "time_elapsed": 897787, "serialpos": 21, "key_press": -1, "wordID": 1112, "type": "PRES_VIS", "trial_index": 190}, "uniqueid": "MTK1527:31Z0PCVWULMJEOINSZ8NVLWX96HT71", "dateTime": 1515953794934}, {"current_trial": 191, "trialdata": {"rt": -1, "trial_type": "single-stim", "word": "spider", "stimulus": "<p id=\"stim\">SPIDER</p>", "conditions": [24, 1600, "v", 24000], "internal_node_id": "0.0-146.0", "trial": 4, "time_elapsed": 900361, "serialpos": 22, "key_press": -1, "wordID": 1350, "type": "PRES_VIS", "trial_index": 191}, "uniqueid": "MTK1527:31Z0PCVWULMJEOINSZ8NVLWX96HT71", "dateTime": 1515953797508}, {"current_trial": 192, "trialdata": {"rt": -1, "trial_type": "single-stim", "word": "creature", "stimulus": "<p id=\"stim\">CREATURE</p>", "conditions": [24, 1600, "v", 24000], "internal_node_id": "0.0-147.0", "trial": 4, "time_elapsed": 902828, "serialpos": 23, "key_press": -1, "wordID": 402, "type": "PRES_VIS", "trial_index": 192}, "uniqueid": "MTK1527:31Z0PCVWULMJEOINSZ8NVLWX96HT71", "dateTime": 1515953799974}, {"current_trial": 193, "trialdata": {"rt": -1, "trial_type": "single-stim", "stimulus": "", "internal_node_id": "0.0-148.0-0.0", "time_elapsed": 905250, "key_press": -1, "type": "PRE_RECALL_DELAY", "trial_index": 193}, "uniqueid": "MTK1527:31Z0PCVWULMJEOINSZ8NVLWX96HT71", "dateTime": 1515953802397}, {"current_trial": 194, "trialdata": {"rt": -1000, "trial_type": "single-audio", "stimulus": "/static/audio/400Hz.wav", "internal_node_id": "0.0-149.0", "time_elapsed": 905755, "key_press": -1, "type": "PRE_RECALL_ALERT", "trial_index": 194}, "uniqueid": "MTK1527:31Z0PCVWULMJEOINSZ8NVLWX96HT71", "dateTime": 1515953802901}, {"current_trial": 195, "trialdata": {"rt": [3614, 6577, 9795, 13293, 15040, 19999, 23151, 25437, 27858, 31012, 34558, 44099, 48407, 54415, 57414], "recwords": ["hawk", "rabbit", "creature", "beaver", "hawk", "firest", "tablet", "hero", "firplace", "kitchen", "snake", "kitchen", "knapsack", "drawing", "creature"], "key_times": [1774, 2065, 2892, 3063, 3614, 4374, 4632, 4776, 4905, 5120, 6279, 6577, 7417, 7627, 7743, 7932, 8002, 8368, 8600, 8794, 9795, 10388, 10528, 10780, 10933, 11113, 11710, 13293, 13780, 13942, 14266, 14392, 15040, 18695, 18856, 19110, 19293, 19511, 19665, 19999, 20382, 20600, 20965, 21164, 21355, 21529, 23151, 23815, 23992, 24173, 24851, 25437, 26044, 26168, 26305, 26691, 26894, 27102, 27331, 27518, 27858, 28693, 28884, 29152, 29333, 29495, 29806, 30135, 31012, 32678, 32909, 33080, 33207, 33538, 34558, 38156, 38323, 38610, 38815, 38938, 39297, 39416, 39803, 39984, 40515, 40689, 42325, 42485, 42779, 43465, 43755, 43884, 44099, 44720, 44874, 45500, 45688, 46317, 46481, 46825, 46943, 47237, 47428, 47740, 47901, 48407, 51288, 51499, 51860, 52073, 52523, 52662, 52830, 54415, 55395, 55572, 55722, 55911, 56008, 56213, 56400, 56570, 57414], "trial_type": "free-recall", "conditions": [24, 1600, "v", 24000], "internal_node_id": "0.0-150.0-0.0", "key_presses": [72, 65, 87, 75, 13, 82, 65, 66, 66, 73, 84, 13, 67, 82, 69, 65, 84, 85, 82, 69, 13, 66, 69, 65, 86, 69, 82, 13, 72, 65, 87, 75, 13, 70, 73, 82, 69, 83, 84, 13, 84, 65, 66, 76, 69, 84, 13, 72, 69, 82, 79, 13, 70, 73, 82, 80, 76, 65, 67, 69, 13, 75, 73, 84, 67, 72, 69, 78, 13, 83, 78, 65, 75, 69, 13, 75, 73, 84, 67, 71, 69, 78, 36, 36, 8, 8, 8, 8, 8, 72, 69, 78, 13, 75, 78, 8, 8, 75, 78, 65, 80, 83, 65, 67, 75, 13, 68, 82, 65, 87, 73, 78, 71, 13, 67, 82, 69, 65, 84, 85, 82, 69, 13], "trial": 4, "time_elapsed": 965768, "type": "FREE_RECALL", "trial_index": 195}, "uniqueid": "MTK1527:31Z0PCVWULMJEOINSZ8NVLWX96HT71", "dateTime": 1515953862936}, {"current_trial": 196, "trialdata": {"rt": 3292, "trial_type": "text", "internal_node_id": "0.0-151.0", "time_elapsed": 971090, "key_press": 70, "type": "INSTRUCTIONS", "trial_index": 196}, "uniqueid": "MTK1527:31Z0PCVWULMJEOINSZ8NVLWX96HT71", "dateTime": 1515953868236}, {"current_trial": 197, "trialdata": {"rt": [1877, 3544, 5321, 6807, 8442, 11043], "trial_type": "math-distractor", "key_times": [1308, 1540, 1877, 2877, 3351, 3544, 4746, 4926, 5321, 6357, 6579, 6807, 8137, 8294, 8442, 10604, 10792, 11043, 12000], "responses": ["16", "15", "19", "13", "21", "17"], "num2": [4, 5, 4, 3, 7, 6, 9], "num3": [6, 3, 7, 4, 5, 6, 5], "conditions": [24, 800, "v", 12000], "internal_node_id": "0.0-152.0", "key_presses": [49, 54, 13, 49, 53, 13, 49, 57, 13, 49, 51, 13, 50, 49, 13, 49, 55, 13, 49], "trial": 5, "time_elapsed": 985111, "type": "DISTRACTOR", "trial_index": 197, "num1": [6, 7, 8, 6, 9, 5, 1]}, "uniqueid": "MTK1527:31Z0PCVWULMJEOINSZ8NVLWX96HT71", "dateTime": 1515953882257}, {"current_trial": 198, "trialdata": {"rt": -1, "trial_type": "single-stim", "stimulus": "<p id=\"stim\">10</p>", "internal_node_id": "0.0-153.0-0.0", "time_elapsed": 988121, "key_press": -1, "trial_index": 198}, "uniqueid": "MTK1527:31Z0PCVWULMJEOINSZ8NVLWX96HT71", "dateTime": 1515953885268}, {"current_trial": 199, "trialdata": {"rt": -1, "trial_type": "single-stim", "stimulus": "<p id=\"stim\">9</p>", "internal_node_id": "0.0-153.0-1.0", "time_elapsed": 989125, "key_press": -1, "trial_index": 199}, "uniqueid": "MTK1527:31Z0PCVWULMJEOINSZ8NVLWX96HT71", "dateTime": 1515953886271}, {"current_trial": 200, "trialdata": {"rt": -1, "trial_type": "single-stim", "stimulus": "<p id=\"stim\">8</p>", "internal_node_id": "0.0-153.0-2.0", "time_elapsed": 990130, "key_press": -1, "trial_index": 200}, "uniqueid": "MTK1527:31Z0PCVWULMJEOINSZ8NVLWX96HT71", "dateTime": 1515953887278}, {"current_trial": 201, "trialdata": {"rt": -1, "trial_type": "single-stim", "stimulus": "<p id=\"stim\">7</p>", "internal_node_id": "0.0-153.0-3.0", "time_elapsed": 991137, "key_press": -1, "trial_index": 201}, "uniqueid": "MTK1527:31Z0PCVWULMJEOINSZ8NVLWX96HT71", "dateTime": 1515953888284}, {"current_trial": 202, "trialdata": {"rt": -1, "trial_type": "single-stim", "stimulus": "<p id=\"stim\">6</p>", "internal_node_id": "0.0-153.0-4.0", "time_elapsed": 992147, "key_press": -1, "trial_index": 202}, "uniqueid": "MTK1527:31Z0PCVWULMJEOINSZ8NVLWX96HT71", "dateTime": 1515953889294}, {"current_trial": 203, "trialdata": {"rt": -1, "trial_type": "single-stim", "stimulus": "<p id=\"stim\">5</p>", "internal_node_id": "0.0-153.0-5.0", "time_elapsed": 993154, "key_press": -1, "trial_index": 203}, "uniqueid": "MTK1527:31Z0PCVWULMJEOINSZ8NVLWX96HT71", "dateTime": 1515953890301}, {"current_trial": 204, "trialdata": {"rt": -1, "trial_type": "single-stim", "stimulus": "<p id=\"stim\">4</p>", "internal_node_id": "0.0-153.0-6.0", "time_elapsed": 994161, "key_press": -1, "trial_index": 204}, "uniqueid": "MTK1527:31Z0PCVWULMJEOINSZ8NVLWX96HT71", "dateTime": 1515953891308}, {"current_trial": 205, "trialdata": {"rt": -1, "trial_type": "single-stim", "stimulus": "<p id=\"stim\">3</p>", "internal_node_id": "0.0-153.0-7.0", "time_elapsed": 995170, "key_press": -1, "trial_index": 205}, "uniqueid": "MTK1527:31Z0PCVWULMJEOINSZ8NVLWX96HT71", "dateTime": 1515953892316}, {"current_trial": 206, "trialdata": {"rt": -1, "trial_type": "single-stim", "stimulus": "<p id=\"stim\">2</p>", "internal_node_id": "0.0-153.0-8.0", "time_elapsed": 996176, "key_press": -1, "trial_index": 206}, "uniqueid": "MTK1527:31Z0PCVWULMJEOINSZ8NVLWX96HT71", "dateTime": 1515953893322}, {"current_trial": 207, "trialdata": {"rt": -1, "trial_type": "single-stim", "stimulus": "<p id=\"stim\">1</p>", "internal_node_id": "0.0-153.0-9.0", "time_elapsed": 997183, "key_press": -1, "trial_index": 207}, "uniqueid": "MTK1527:31Z0PCVWULMJEOINSZ8NVLWX96HT71", "dateTime": 1515953894330}, {"current_trial": 208, "trialdata": {"rt": -1, "trial_type": "single-stim", "stimulus": "<p id=\"stim\">+</p>", "internal_node_id": "0.0-154.0-0.0", "time_elapsed": 998690, "key_press": -1, "type": "FIXATION", "trial_index": 208}, "uniqueid": "MTK1527:31Z0PCVWULMJEOINSZ8NVLWX96HT71", "dateTime": 1515953895837}, {"current_trial": 209, "trialdata": {"rt": -1, "trial_type": "single-stim", "word": "napkin", "stimulus": "<p id=\"stim\">NAPKIN</p>", "conditions": [24, 800, "v", 12000], "internal_node_id": "0.0-155.0", "trial": 5, "time_elapsed": 999495, "serialpos": 0, "key_press": -1, "wordID": 936, "type": "PRES_VIS", "trial_index": 209}, "uniqueid": "MTK1527:31Z0PCVWULMJEOINSZ8NVLWX96HT71", "dateTime": 1515953896642}, {"current_trial": 210, "trialdata": {"rt": -1, "trial_type": "single-stim", "word": "lily", "stimulus": "<p id=\"stim\">LILY</p>", "conditions": [24, 800, "v", 12000], "internal_node_id": "0.0-156.0", "trial": 5, "time_elapsed": 1001402, "serialpos": 1, "key_press": -1, "wordID": 820, "type": "PRES_VIS", "trial_index": 210}, "uniqueid": "MTK1527:31Z0PCVWULMJEOINSZ8NVLWX96HT71", "dateTime": 1515953898549}, {"current_trial": 211, "trialdata": {"rt": -1, "trial_type": "single-stim", "word": "rug", "stimulus": "<p id=\"stim\">RUG</p>", "conditions": [24, 800, "v", 12000], "internal_node_id": "0.0-157.0", "trial": 5, "time_elapsed": 1003136, "serialpos": 2, "key_press": -1, "wordID": 1214, "type": "PRES_VIS", "trial_index": 211}, "uniqueid": "MTK1527:31Z0PCVWULMJEOINSZ8NVLWX96HT71", "dateTime": 1515953900282}, {"current_trial": 212, "trialdata": {"rt": -1, "trial_type": "single-stim", "word": "kleenex", "stimulus": "<p id=\"stim\">KLEENEX</p>", "conditions": [24, 800, "v", 12000], "internal_node_id": "0.0-158.0", "trial": 5, "time_elapsed": 1004873, "serialpos": 3, "key_press": -1, "wordID": 781, "type": "PRES_VIS", "trial_index": 212}, "uniqueid": "MTK1527:31Z0PCVWULMJEOINSZ8NVLWX96HT71", "dateTime": 1515953902019}, {"current_trial": 213, "trialdata": {"rt": -1, "trial_type": "single-stim", "word": "icing", "stimulus": "<p id=\"stim\">ICING</p>", "conditions": [24, 800, "v", 12000], "internal_node_id": "0.0-159.0", "trial": 5, "time_elapsed": 1006828, "serialpos": 4, "key_press": -1, "wordID": 731, "type": "PRES_VIS", "trial_index": 213}, "uniqueid": "MTK1527:31Z0PCVWULMJEOINSZ8NVLWX96HT71", "dateTime": 1515953903974}, {"current_trial": 214, "trialdata": {"rt": -1, "trial_type": "single-stim", "word": "relish", "stimulus": "<p id=\"stim\">RELISH</p>", "conditions": [24, 800, "v", 12000], "internal_node_id": "0.0-160.0", "trial": 5, "time_elapsed": 1008557, "serialpos": 5, "key_press": -1, "wordID": 1182, "type": "PRES_VIS", "trial_index": 214}, "uniqueid": "MTK1527:31Z0PCVWULMJEOINSZ8NVLWX96HT71", "dateTime": 1515953905703}, {"current_trial": 215, "trialdata": {"rt": -1, "trial_type": "single-stim", "word": "turtle", "stimulus": "<p id=\"stim\">TURTLE</p>", "conditions": [24, 800, "v", 12000], "internal_node_id": "0.0-161.0", "trial": 5, "time_elapsed": 1010395, "serialpos": 6, "key_press": -1, "wordID": 1521, "type": "PRES_VIS", "trial_index": 215}, "uniqueid": "MTK1527:31Z0PCVWULMJEOINSZ8NVLWX96HT71", "dateTime": 1515953907542}, {"current_trial": 216, "trialdata": {"rt": -1, "trial_type": "single-stim", "word": "scotch", "stimulus": "<p id=\"stim\">SCOTCH</p>", "conditions": [24, 800, "v", 12000], "internal_node_id": "0.0-162.0", "trial": 5, "time_elapsed": 1012137, "serialpos": 7, "key_press": -1, "wordID": 1250, "type": "PRES_VIS", "trial_index": 216}, "uniqueid": "MTK1527:31Z0PCVWULMJEOINSZ8NVLWX96HT71", "dateTime": 1515953909284}, {"current_trial": 217, "trialdata": {"rt": -1, "trial_type": "single-stim", "word": "custard", "stimulus": "<p id=\"stim\">CUSTARD</p>", "conditions": [24, 800, "v", 12000], "internal_node_id": "0.0-163.0", "trial": 5, "time_elapsed": 1013810, "serialpos": 8, "key_press": -1, "wordID": 428, "type": "PRES_VIS", "trial_index": 217}, "uniqueid": "MTK1527:31Z0PCVWULMJEOINSZ8NVLWX96HT71", "dateTime": 1515953910956}, {"current_trial": 218, "trialdata": {"rt": -1, "trial_type": "single-stim", "word": "shortcake", "stimulus": "<p id=\"stim\">SHORTCAKE</p>", "conditions": [24, 800, "v", 12000], "internal_node_id": "0.0-164.0", "trial": 5, "time_elapsed": 1015727, "serialpos": 9, "key_press": -1, "wordID": 1291, "type": "PRES_VIS", "trial_index": 218}, "uniqueid": "MTK1527:31Z0PCVWULMJEOINSZ8NVLWX96HT71", "dateTime": 1515953912874}, {"current_trial": 219, "trialdata": {"rt": -1, "trial_type": "single-stim", "word": "penguin", "stimulus": "<p id=\"stim\">PENGUIN</p>", "conditions": [24, 800, "v", 12000], "internal_node_id": "0.0-165.0", "trial": 5, "time_elapsed": 1017519, "serialpos": 10, "key_press": -1, "wordID": 1043, "type": "PRES_VIS", "trial_index": 219}, "uniqueid": "MTK1527:31Z0PCVWULMJEOINSZ8NVLWX96HT71", "dateTime": 1515953914666}, {"current_trial": 220, "trialdata": {"rt": -1, "trial_type": "single-stim", "word": "wardrobe", "stimulus": "<p id=\"stim\">WARDROBE</p>", "conditions": [24, 800, "v", 12000], "internal_node_id": "0.0-166.0", "trial": 5, "time_elapsed": 1019495, "serialpos": 11, "key_press": -1, "wordID": 1586, "type": "PRES_VIS", "trial_index": 220}, "uniqueid": "MTK1527:31Z0PCVWULMJEOINSZ8NVLWX96HT71", "dateTime": 1515953916641}, {"current_trial": 221, "trialdata": {"rt": -1, "trial_type": "single-stim", "word": "picture", "stimulus": "<p id=\"stim\">PICTURE</p>", "conditions": [24, 800, "v", 12000], "internal_node_id": "0.0-167.0", "trial": 5, "time_elapsed": 1021473, "serialpos": 12, "key_press": -1, "wordID": 1060, "type": "PRES_VIS", "trial_index": 221}, "uniqueid": "MTK1527:31Z0PCVWULMJEOINSZ8NVLWX96HT71", "dateTime": 1515953918619}, {"current_trial": 222, "trialdata": {"rt": -1, "trial_type": "single-stim", "word": "pastry", "stimulus": "<p id=\"stim\">PASTRY</p>", "conditions": [24, 800, "v", 12000], "internal_node_id": "0.0-168.0", "trial": 5, "time_elapsed": 1023241, "serialpos": 13, "key_press": -1, "wordID": 1021, "type": "PRES_VIS", "trial_index": 222}, "uniqueid": "MTK1527:31Z0PCVWULMJEOINSZ8NVLWX96HT71", "dateTime": 1515953920388}, {"current_trial": 223, "trialdata": {"rt": -1, "trial_type": "single-stim", "word": "pimple", "stimulus": "<p id=\"stim\">PIMPLE</p>", "conditions": [24, 800, "v", 12000], "internal_node_id": "0.0-169.0", "trial": 5, "time_elapsed": 1025038, "serialpos": 14, "key_press": -1, "wordID": 1070, "type": "PRES_VIS", "trial_index": 223}, "uniqueid": "MTK1527:31Z0PCVWULMJEOINSZ8NVLWX96HT71", "dateTime": 1515953922185}, {"current_trial": 224, "trialdata": {"rt": -1, "trial_type": "single-stim", "word": "stream", "stimulus": "<p id=\"stim\">STREAM</p>", "conditions": [24, 800, "v", 12000], "internal_node_id": "0.0-170.0", "trial": 5, "time_elapsed": 1027032, "serialpos": 15, "key_press": -1, "wordID": 1391, "type": "PRES_VIS", "trial_index": 224}, "uniqueid": "MTK1527:31Z0PCVWULMJEOINSZ8NVLWX96HT71", "dateTime": 1515953924178}, {"current_trial": 225, "trialdata": {"rt": -1, "trial_type": "single-stim", "word": "europe", "stimulus": "<p id=\"stim\">EUROPE</p>", "conditions": [24, 800, "v", 12000], "internal_node_id": "0.0-171.0", "trial": 5, "time_elapsed": 1028773, "serialpos": 16, "key_press": -1, "wordID": 540, "type": "PRES_VIS", "trial_index": 225}, "uniqueid": "MTK1527:31Z0PCVWULMJEOINSZ8NVLWX96HT71", "dateTime": 1515953925919}, {"current_trial": 226, "trialdata": {"rt": -1, "trial_type": "single-stim", "word": "candy", "stimulus": "<p id=\"stim\">CANDY</p>", "conditions": [24, 800, "v", 12000], "internal_node_id": "0.0-172.0", "trial": 5, "time_elapsed": 1030733, "serialpos": 17, "key_press": -1, "wordID": 229, "type": "PRES_VIS", "trial_index": 226}, "uniqueid": "MTK1527:31Z0PCVWULMJEOINSZ8NVLWX96HT71", "dateTime": 1515953927880}, {"current_trial": 227, "trialdata": {"rt": -1, "trial_type": "single-stim", "word": "chemist", "stimulus": "<p id=\"stim\">CHEMIST</p>", "conditions": [24, 800, "v", 12000], "internal_node_id": "0.0-173.0", "trial": 5, "time_elapsed": 1032424, "serialpos": 18, "key_press": -1, "wordID": 291, "type": "PRES_VIS", "trial_index": 227}, "uniqueid": "MTK1527:31Z0PCVWULMJEOINSZ8NVLWX96HT71", "dateTime": 1515953929571}, {"current_trial": 228, "trialdata": {"rt": -1, "trial_type": "single-stim", "word": "plaid", "stimulus": "<p id=\"stim\">PLAID</p>", "conditions": [24, 800, "v", 12000], "internal_node_id": "0.0-174.0", "trial": 5, "time_elapsed": 1034249, "serialpos": 19, "key_press": -1, "wordID": 1079, "type": "PRES_VIS", "trial_index": 228}, "uniqueid": "MTK1527:31Z0PCVWULMJEOINSZ8NVLWX96HT71", "dateTime": 1515953931396}, {"current_trial": 229, "trialdata": {"rt": -1, "trial_type": "single-stim", "word": "denim", "stimulus": "<p id=\"stim\">DENIM</p>", "conditions": [24, 800, "v", 12000], "internal_node_id": "0.0-175.0", "trial": 5, "time_elapsed": 1036171, "serialpos": 20, "key_press": -1, "wordID": 445, "type": "PRES_VIS", "trial_index": 229}, "uniqueid": "MTK1527:31Z0PCVWULMJEOINSZ8NVLWX96HT71", "dateTime": 1515953933318}, {"current_trial": 230, "trialdata": {"rt": -1, "trial_type": "single-stim", "word": "slug", "stimulus": "<p id=\"stim\">SLUG</p>", "conditions": [24, 800, "v", 12000], "internal_node_id": "0.0-176.0", "trial": 5, "time_elapsed": 1037831, "serialpos": 21, "key_press": -1, "wordID": 1328, "type": "PRES_VIS", "trial_index": 230}, "uniqueid": "MTK1527:31Z0PCVWULMJEOINSZ8NVLWX96HT71", "dateTime": 1515953934979}, {"current_trial": 231, "trialdata": {"rt": -1, "trial_type": "single-stim", "word": "turnip", "stimulus": "<p id=\"stim\">TURNIP</p>", "conditions": [24, 800, "v", 12000], "internal_node_id": "0.0-177.0", "trial": 5, "time_elapsed": 1039670, "serialpos": 22, "key_press": -1, "wordID": 1520, "type": "PRES_VIS", "trial_index": 231}, "uniqueid": "MTK1527:31Z0PCVWULMJEOINSZ8NVLWX96HT71", "dateTime": 1515953936817}, {"current_trial": 232, "trialdata": {"rt": -1, "trial_type": "single-stim", "word": "freckle", "stimulus": "<p id=\"stim\">FRECKLE</p>", "conditions": [24, 800, "v", 12000], "internal_node_id": "0.0-178.0", "trial": 5, "time_elapsed": 1041380, "serialpos": 23, "key_press": -1, "wordID": 601, "type": "PRES_VIS", "trial_index": 232}, "uniqueid": "MTK1527:31Z0PCVWULMJEOINSZ8NVLWX96HT71", "dateTime": 1515953938527}, {"current_trial": 233, "trialdata": {"rt": -1, "trial_type": "single-stim", "stimulus": "", "internal_node_id": "0.0-179.0-0.0", "time_elapsed": 1043749, "key_press": -1, "type": "PRE_RECALL_DELAY", "trial_index": 233}, "uniqueid": "MTK1527:31Z0PCVWULMJEOINSZ8NVLWX96HT71", "dateTime": 1515953940895}, {"current_trial": 234, "trialdata": {"rt": -1000, "trial_type": "single-audio", "stimulus": "/static/audio/400Hz.wav", "internal_node_id": "0.0-180.0", "time_elapsed": 1044253, "key_press": -1, "type": "PRE_RECALL_ALERT", "trial_index": 234}, "uniqueid": "MTK1527:31Z0PCVWULMJEOINSZ8NVLWX96HT71", "dateTime": 1515953941400}, {"current_trial": 235, "trialdata": {"rt": [5364, 8730, 12895, 17611, 21455, 27027, 31931, 34239, 39364, 42809, 47388, 51879, 56231], "recwords": ["lily", "turnip", "stream", "candy", "kleenex", "picture", "denim", "plaid", "shortcake", "custard", "fresh", "napkin", "stream"], "key_times": [4224, 4399, 4575, 5129, 5364, 6237, 6473, 6658, 7103, 7498, 7684, 8730, 10493, 10830, 10994, 11164, 11392, 11493, 12895, 13536, 13764, 13914, 14137, 14301, 15077, 15878, 17611, 18447, 18645, 18835, 18982, 19321, 19582, 20826, 21455, 23220, 24569, 24845, 25056, 25270, 25439, 25625, 25827, 26039, 27027, 30617, 30802, 30929, 31120, 31323, 31931, 32293, 32459, 32669, 32837, 33033, 34239, 36305, 36390, 36644, 36818, 36962, 37474, 37690, 37882, 38470, 39364, 41033, 41328, 41424, 41598, 41733, 41896, 42138, 42809, 46387, 46571, 46743, 46943, 47116, 47388, 50718, 50908, 51022, 51289, 51464, 51652, 51879, 54061, 54249, 54404, 54560, 54790, 54887, 55097, 55836, 56231, 59293, 59439, 59630, 59687, 59908], "trial_type": "free-recall", "conditions": [24, 800, "v", 12000], "internal_node_id": "0.0-181.0-0.0", "key_presses": [76, 73, 76, 89, 13, 84, 85, 82, 78, 73, 80, 13, 83, 84, 82, 69, 65, 77, 13, 67, 65, 78, 68, 85, 8, 89, 13, 75, 76, 69, 69, 78, 69, 88, 13, 219, 8, 80, 73, 67, 84, 85, 82, 69, 13, 68, 69, 78, 73, 77, 13, 80, 76, 65, 73, 68, 13, 83, 72, 79, 82, 84, 67, 65, 75, 69, 13, 67, 85, 83, 84, 65, 82, 68, 13, 70, 82, 69, 83, 72, 13, 78, 65, 80, 75, 73, 78, 13, 83, 84, 82, 69, 65, 77, 220, 8, 13, 80, 65, 83, 84, 82], "trial": 5, "time_elapsed": 1104267, "type": "FREE_RECALL", "trial_index": 235}, "uniqueid": "MTK1527:31Z0PCVWULMJEOINSZ8NVLWX96HT71", "dateTime": 1515954001435}, {"current_trial": 236, "trialdata": {"rt": 7734, "trial_type": "text", "internal_node_id": "0.0-182.0", "time_elapsed": 1114032, "key_press": 70, "type": "INSTRUCTIONS", "trial_index": 236}, "uniqueid": "MTK1527:31Z0PCVWULMJEOINSZ8NVLWX96HT71", "dateTime": 1515954011178}, {"current_trial": 237, "trialdata": {"rt": [1626, 3288, 4677, 6483, 8198, 9676, 11540, 13190, 15549, 17796, 18978, 20596, 22245, 23958], "trial_type": "math-distractor", "key_times": [1278, 1477, 1626, 2632, 3114, 3288, 4416, 4562, 4677, 5911, 6302, 6483, 8077, 8198, 9396, 9553, 9676, 11379, 11540, 12922, 13073, 13190, 15081, 15276, 15549, 16971, 17607, 17796, 18660, 18820, 18978, 20101, 20411, 20596, 21628, 22067, 22245, 23801, 23958], "responses": ["12", "14", "22", "20", "7", "12", "9", "23", "20", "13", "11", "15", "14", "8"], "num2": [3, 1, 8, 9, 2, 6, 1, 5, 6, 8, 5, 6, 1, 2, 8], "num3": [7, 9, 7, 5, 4, 3, 2, 9, 7, 3, 1, 8, 6, 5, 6], "conditions": [24, 800, "v", 24000], "internal_node_id": "0.0-183.0", "key_presses": [49, 50, 13, 49, 52, 13, 50, 50, 13, 50, 48, 13, 55, 13, 49, 50, 13, 57, 13, 50, 51, 13, 50, 48, 13, 49, 51, 13, 49, 49, 13, 49, 53, 13, 49, 52, 13, 56, 13], "trial": 6, "time_elapsed": 1140042, "type": "DISTRACTOR", "trial_index": 237, "num1": [2, 4, 7, 6, 1, 3, 6, 9, 7, 2, 5, 1, 7, 1, 1]}, "uniqueid": "MTK1527:31Z0PCVWULMJEOINSZ8NVLWX96HT71", "dateTime": 1515954037189}, {"current_trial": 238, "trialdata": {"rt": -1, "trial_type": "single-stim", "stimulus": "<p id=\"stim\">10</p>", "internal_node_id": "0.0-184.0-0.0", "time_elapsed": 1143050, "key_press": -1, "trial_index": 238}, "uniqueid": "MTK1527:31Z0PCVWULMJEOINSZ8NVLWX96HT71", "dateTime": 1515954040197}, {"current_trial": 239, "trialdata": {"rt": -1, "trial_type": "single-stim", "stimulus": "<p id=\"stim\">9</p>", "internal_node_id": "0.0-184.0-1.0", "time_elapsed": 1144055, "key_press": -1, "trial_index": 239}, "uniqueid": "MTK1527:31Z0PCVWULMJEOINSZ8NVLWX96HT71", "dateTime": 1515954041201}, {"current_trial": 240, "trialdata": {"rt": -1, "trial_type": "single-stim", "stimulus": "<p id=\"stim\">8</p>", "internal_node_id": "0.0-184.0-2.0", "time_elapsed": 1145062, "key_press": -1, "trial_index": 240}, "uniqueid": "MTK1527:31Z0PCVWULMJEOINSZ8NVLWX96HT71", "dateTime": 1515954042209}, {"current_trial": 241, "trialdata": {"rt": -1, "trial_type": "single-stim", "stimulus": "<p id=\"stim\">7</p>", "internal_node_id": "0.0-184.0-3.0", "time_elapsed": 1146067, "key_press": -1, "trial_index": 241}, "uniqueid": "MTK1527:31Z0PCVWULMJEOINSZ8NVLWX96HT71", "dateTime": 1515954043214}, {"current_trial": 2