{"assignmentId": "3I0BTBYZAYS1DZHXH6ADONEPGQR0YN", "workerId": "MTK1453", "questiondata": {"origin": "United States", "strat-rehearsal": "66", "marital": "Single", "education": "Bachelor's degree", "ethnicity": "Not Hispanic", "color_depth": 24, "distracted": "No", "wrote-notes": "No", "strat-other": "", "screen_width": 1366, "avail_screen_width": 1366, "avail_screen_height": 768, "strat-image": "84", "language": "English", "gender": "Male", "age": "36", "gender_other": "", "race": ["White"], "strat-categorize": "63", "pixel_depth": 24, "strat-spatial": "49", "strat-story": "30", "race_other": "", "screen_height": 768}, "bonus": 0, "hitId": "3UAU495MIIZ3CNRHJOAXMJ8A14ROU4", "counterbalance": 1330, "useragent": "Mozilla/5.0 (Windows NT 10.0; Win64; x64) AppleWebKit/537.36 (KHTML, like Gecko) Chrome/63.0.3239.132 Safari/537.36", "eventdata": [{"eventtype": "initialized", "interval": 0, "value": null, "timestamp": 1515893717203}, {"eventtype": "window_resize", "interval": 1, "value": [1366, 721], "timestamp": 1515893717204}, {"eventtype": "focus", "interval": 1933664, "value": "off", "timestamp": 1515895650868}, {"eventtype": "focus", "interval": 14734, "value": "on", "timestamp": 1515895665602}, {"eventtype": "focus", "interval": 81539, "value": "off", "timestamp": 1515895747141}, {"eventtype": "focus", "interval": 20195, "value": "on", "timestamp": 1515895767336}, {"eventtype": "focus", "interval": 412193, "value": "off", "timestamp": 1515896179529}, {"eventtype": "focus", "interval": 133719, "value": "on", "timestamp": 1515896313248}, {"eventtype": "focus", "interval": 621364, "value": "off", "timestamp": 1515896934612}, {"eventtype": "focus", "interval": 29779, "value": "on", "timestamp": 1515896964391}], "data": [{"current_trial": 0, "trialdata": {"rt": 1643, "trial_type": "text", "internal_node_id": "0.0-0.0", "time_elapsed": 1648, "key_press": 76, "type": "INSTRUCTIONS", "trial_index": 0}, "uniqueid": "MTK1453:3I0BTBYZAYS1DZHXH6ADONEPGQR0YN", "dateTime": 1515893720177}, {"current_trial": 1, "trialdata": {"rt": 13936, "trial_type": "text", "internal_node_id": "0.0-1.0", "time_elapsed": 15589, "key_press": 75, "type": "INSTRUCTIONS", "trial_index": 1}, "uniqueid": "MTK1453:3I0BTBYZAYS1DZHXH6ADONEPGQR0YN", "dateTime": 1515893734116}, {"current_trial": 2, "trialdata": {"rt": [11961], "trial_type": "audio-test", "responses": ["ocean"], "internal_node_id": "0.0-2.0", "time_elapsed": 27604, "type": "AUDIO_TEST", "trial_index": 2}, "uniqueid": "MTK1453:3I0BTBYZAYS1DZHXH6ADONEPGQR0YN", "dateTime": 1515893746131}, {"current_trial": 3, "trialdata": {"rt": [8758], "trial_type": "audio-test", "responses": ["crystal"], "internal_node_id": "0.0-3.0", "time_elapsed": 36370, "type": "AUDIO_TEST", "trial_index": 3}, "uniqueid": "MTK1453:3I0BTBYZAYS1DZHXH6ADONEPGQR0YN", "dateTime": 1515893754897}, {"current_trial": 4, "trialdata": {"rt": [5823], "trial_type": "audio-test", "responses": ["spice"], "internal_node_id": "0.0-4.0", "time_elapsed": 42197, "type": "AUDIO_TEST", "trial_index": 4}, "uniqueid": "MTK1453:3I0BTBYZAYS1DZHXH6ADONEPGQR0YN", "dateTime": 1515893760724}, {"current_trial": 5, "trialdata": {"rt": 25370, "trial_type": "survey-text", "responses": "{\"Q0\":\"12:00\",\"Q1\":\"9:00\",\"Q2\":\"4\"}", "internal_node_id": "0.0-5.0", "time_elapsed": 68323, "type": "SLEEP_SURVEY", "trial_index": 5}, "uniqueid": "MTK1453:3I0BTBYZAYS1DZHXH6ADONEPGQR0YN", "dateTime": 1515893786850}, {"current_trial": 6, "trialdata": {"rt": 24949, "trial_type": "text", "internal_node_id": "0.0-6.0", "time_elapsed": 94276, "key_press": 16, "type": "INSTRUCTIONS", "trial_index": 6}, "uniqueid": "MTK1453:3I0BTBYZAYS1DZHXH6ADONEPGQR0YN", "dateTime": 1515893812804}, {"current_trial": 7, "trialdata": {"rt": 6109, "trial_type": "text", "internal_node_id": "0.0-7.0", "time_elapsed": 100890, "key_press": 16, "type": "INSTRUCTIONS", "trial_index": 7}, "uniqueid": "MTK1453:3I0BTBYZAYS1DZHXH6ADONEPGQR0YN", "dateTime": 1515893819417}, {"current_trial": 8, "trialdata": {"rt": 32323, "trial_type": "text", "internal_node_id": "0.0-8.0", "time_elapsed": 133716, "key_press": 13, "type": "INSTRUCTIONS", "trial_index": 8}, "uniqueid": "MTK1453:3I0BTBYZAYS1DZHXH6ADONEPGQR0YN", "dateTime": 1515893852243}, {"current_trial": 9, "trialdata": {"rt": [3647, 7864, 11562, 14715], "trial_type": "math-distractor", "key_times": [2652, 2936, 3647, 5997, 7152, 7864, 10419, 10812, 11562, 13209, 13814, 14715, 16863, 17016], "responses": ["10", "14", "17", "19"], "num2": [8, 9, 6, 7, 1], "num3": [1, 2, 6, 8, 6], "conditions": [18, 1200, "v", 18000], "internal_node_id": "0.0-9.0", "key_presses": [49, 48, 13, 49, 52, 13, 49, 55, 13, 49, 57, 13, 49, 52], "trial": 0, "time_elapsed": 152729, "type": "DISTRACTOR", "trial_index": 9, "num1": [2, 3, 5, 4, 7]}, "uniqueid": "MTK1453:3I0BTBYZAYS1DZHXH6ADONEPGQR0YN", "dateTime": 1515893871256}, {"current_trial": 10, "trialdata": {"rt": -1, "trial_type": "single-stim", "stimulus": "<p id=\"stim\">10</p>", "internal_node_id": "0.0-10.0-0.0", "time_elapsed": 155733, "key_press": -1, "trial_index": 10}, "uniqueid": "MTK1453:3I0BTBYZAYS1DZHXH6ADONEPGQR0YN", "dateTime": 1515893874260}, {"current_trial": 11, "trialdata": {"rt": -1, "trial_type": "single-stim", "stimulus": "<p id=\"stim\">9</p>", "internal_node_id": "0.0-10.0-1.0", "time_elapsed": 156736, "key_press": -1, "trial_index": 11}, "uniqueid": "MTK1453:3I0BTBYZAYS1DZHXH6ADONEPGQR0YN", "dateTime": 1515893875263}, {"current_trial": 12, "trialdata": {"rt": -1, "trial_type": "single-stim", "stimulus": "<p id=\"stim\">8</p>", "internal_node_id": "0.0-10.0-2.0", "time_elapsed": 157738, "key_press": -1, "trial_index": 12}, "uniqueid": "MTK1453:3I0BTBYZAYS1DZHXH6ADONEPGQR0YN", "dateTime": 1515893876265}, {"current_trial": 13, "trialdata": {"rt": -1, "trial_type": "single-stim", "stimulus": "<p id=\"stim\">7</p>", "internal_node_id": "0.0-10.0-3.0", "time_elapsed": 158742, "key_press": -1, "trial_index": 13}, "uniqueid": "MTK1453:3I0BTBYZAYS1DZHXH6ADONEPGQR0YN", "dateTime": 1515893877269}, {"current_trial": 14, "trialdata": {"rt": -1, "trial_type": "single-stim", "stimulus": "<p id=\"stim\">6</p>", "internal_node_id": "0.0-10.0-4.0", "time_elapsed": 159744, "key_press": -1, "trial_index": 14}, "uniqueid": "MTK1453:3I0BTBYZAYS1DZHXH6ADONEPGQR0YN", "dateTime": 1515893878271}, {"current_trial": 15, "trialdata": {"rt": -1, "trial_type": "single-stim", "stimulus": "<p id=\"stim\">5</p>", "internal_node_id": "0.0-10.0-5.0", "time_elapsed": 160747, "key_press": -1, "trial_index": 15}, "uniqueid": "MTK1453:3I0BTBYZAYS1DZHXH6ADONEPGQR0YN", "dateTime": 1515893879275}, {"current_trial": 16, "trialdata": {"rt": -1, "trial_type": "single-stim", "stimulus": "<p id=\"stim\">4</p>", "internal_node_id": "0.0-10.0-6.0", "time_elapsed": 161750, "key_press": -1, "trial_index": 16}, "uniqueid": "MTK1453:3I0BTBYZAYS1DZHXH6ADONEPGQR0YN", "dateTime": 1515893880278}, {"current_trial": 17, "trialdata": {"rt": -1, "trial_type": "single-stim", "stimulus": "<p id=\"stim\">3</p>", "internal_node_id": "0.0-10.0-7.0", "time_elapsed": 162757, "key_press": -1, "trial_index": 17}, "uniqueid": "MTK1453:3I0BTBYZAYS1DZHXH6ADONEPGQR0YN", "dateTime": 1515893881285}, {"current_trial": 18, "trialdata": {"rt": -1, "trial_type": "single-stim", "stimulus": "<p id=\"stim\">2</p>", "internal_node_id": "0.0-10.0-8.0", "time_elapsed": 163761, "key_press": -1, "trial_index": 18}, "uniqueid": "MTK1453:3I0BTBYZAYS1DZHXH6ADONEPGQR0YN", "dateTime": 1515893882288}, {"current_trial": 19, "trialdata": {"rt": -1, "trial_type": "single-stim", "stimulus": "<p id=\"stim\">1</p>", "internal_node_id": "0.0-10.0-9.0", "time_elapsed": 164766, "key_press": -1, "trial_index": 19}, "uniqueid": "MTK1453:3I0BTBYZAYS1DZHXH6ADONEPGQR0YN", "dateTime": 1515893883293}, {"current_trial": 20, "trialdata": {"rt": -1, "trial_type": "single-stim", "stimulus": "<p id=\"stim\">+</p>", "internal_node_id": "0.0-11.0-0.0", "time_elapsed": 166268, "key_press": -1, "type": "FIXATION", "trial_index": 20}, "uniqueid": "MTK1453:3I0BTBYZAYS1DZHXH6ADONEPGQR0YN", "dateTime": 1515893884795}, {"current_trial": 21, "trialdata": {"rt": -1, "trial_type": "single-stim", "word": "forest", "stimulus": "<p id=\"stim\">FOREST</p>", "conditions": [18, 1200, "v", 18000], "internal_node_id": "0.0-12.0", "trial": 0, "time_elapsed": 167473, "serialpos": 0, "key_press": -1, "wordID": 592, "type": "PRES_VIS", "trial_index": 21}, "uniqueid": "MTK1453:3I0BTBYZAYS1DZHXH6ADONEPGQR0YN", "dateTime": 1515893886000}, {"current_trial": 22, "trialdata": {"rt": -1, "trial_type": "single-stim", "word": "frame", "stimulus": "<p id=\"stim\">FRAME</p>", "conditions": [18, 1200, "v", 18000], "internal_node_id": "0.0-13.0", "trial": 0, "time_elapsed": 169775, "serialpos": 1, "key_press": -1, "wordID": 599, "type": "PRES_VIS", "trial_index": 22}, "uniqueid": "MTK1453:3I0BTBYZAYS1DZHXH6ADONEPGQR0YN", "dateTime": 1515893888303}, {"current_trial": 23, "trialdata": {"rt": -1, "trial_type": "single-stim", "word": "blockade", "stimulus": "<p id=\"stim\">BLOCKADE</p>", "conditions": [18, 1200, "v", 18000], "internal_node_id": "0.0-14.0", "trial": 0, "time_elapsed": 171887, "serialpos": 2, "key_press": -1, "wordID": 136, "type": "PRES_VIS", "trial_index": 23}, "uniqueid": "MTK1453:3I0BTBYZAYS1DZHXH6ADONEPGQR0YN", "dateTime": 1515893890414}, {"current_trial": 24, "trialdata": {"rt": -1, "trial_type": "single-stim", "word": "flask", "stimulus": "<p id=\"stim\">FLASK</p>", "conditions": [18, 1200, "v", 18000], "internal_node_id": "0.0-15.0", "trial": 0, "time_elapsed": 174021, "serialpos": 3, "key_press": -1, "wordID": 575, "type": "PRES_VIS", "trial_index": 24}, "uniqueid": "MTK1453:3I0BTBYZAYS1DZHXH6ADONEPGQR0YN", "dateTime": 1515893892548}, {"current_trial": 25, "trialdata": {"rt": -1, "trial_type": "single-stim", "word": "sidewalk", "stimulus": "<p id=\"stim\">SIDEWALK</p>", "conditions": [18, 1200, "v", 18000], "internal_node_id": "0.0-16.0", "trial": 0, "time_elapsed": 176198, "serialpos": 4, "key_press": -1, "wordID": 1302, "type": "PRES_VIS", "trial_index": 25}, "uniqueid": "MTK1453:3I0BTBYZAYS1DZHXH6ADONEPGQR0YN", "dateTime": 1515893894726}, {"current_trial": 26, "trialdata": {"rt": -1, "trial_type": "single-stim", "word": "college", "stimulus": "<p id=\"stim\">COLLEGE</p>", "conditions": [18, 1200, "v", 18000], "internal_node_id": "0.0-17.0", "trial": 0, "time_elapsed": 178394, "serialpos": 5, "key_press": -1, "wordID": 345, "type": "PRES_VIS", "trial_index": 26}, "uniqueid": "MTK1453:3I0BTBYZAYS1DZHXH6ADONEPGQR0YN", "dateTime": 1515893896921}, {"current_trial": 27, "trialdata": {"rt": -1, "trial_type": "single-stim", "word": "cocktail", "stimulus": "<p id=\"stim\">COCKTAIL</p>", "conditions": [18, 1200, "v", 18000], "internal_node_id": "0.0-18.0", "trial": 0, "time_elapsed": 180607, "serialpos": 6, "key_press": -1, "wordID": 337, "type": "PRES_VIS", "trial_index": 27}, "uniqueid": "MTK1453:3I0BTBYZAYS1DZHXH6ADONEPGQR0YN", "dateTime": 1515893899135}, {"current_trial": 28, "trialdata": {"rt": -1, "trial_type": "single-stim", "word": "plaster", "stimulus": "<p id=\"stim\">PLASTER</p>", "conditions": [18, 1200, "v", 18000], "internal_node_id": "0.0-19.0", "trial": 0, "time_elapsed": 182667, "serialpos": 7, "key_press": -1, "wordID": 1084, "type": "PRES_VIS", "trial_index": 28}, "uniqueid": "MTK1453:3I0BTBYZAYS1DZHXH6ADONEPGQR0YN", "dateTime": 1515893901194}, {"current_trial": 29, "trialdata": {"rt": -1, "trial_type": "single-stim", "word": "mask", "stimulus": "<p id=\"stim\">MASK</p>", "conditions": [18, 1200, "v", 18000], "internal_node_id": "0.0-20.0", "trial": 0, "time_elapsed": 184814, "serialpos": 8, "key_press": -1, "wordID": 875, "type": "PRES_VIS", "trial_index": 29}, "uniqueid": "MTK1453:3I0BTBYZAYS1DZHXH6ADONEPGQR0YN", "dateTime": 1515893903341}, {"current_trial": 30, "trialdata": {"rt": -1, "trial_type": "single-stim", "word": "whiskers", "stimulus": "<p id=\"stim\">WHISKERS</p>", "conditions": [18, 1200, "v", 18000], "internal_node_id": "0.0-21.0", "trial": 0, "time_elapsed": 187176, "serialpos": 9, "key_press": -1, "wordID": 1604, "type": "PRES_VIS", "trial_index": 30}, "uniqueid": "MTK1453:3I0BTBYZAYS1DZHXH6ADONEPGQR0YN", "dateTime": 1515893905703}, {"current_trial": 31, "trialdata": {"rt": -1, "trial_type": "single-stim", "word": "grave", "stimulus": "<p id=\"stim\">GRAVE</p>", "conditions": [18, 1200, "v", 18000], "internal_node_id": "0.0-22.0", "trial": 0, "time_elapsed": 189504, "serialpos": 10, "key_press": -1, "wordID": 657, "type": "PRES_VIS", "trial_index": 31}, "uniqueid": "MTK1453:3I0BTBYZAYS1DZHXH6ADONEPGQR0YN", "dateTime": 1515893908032}, {"current_trial": 32, "trialdata": {"rt": -1, "trial_type": "single-stim", "word": "robber", "stimulus": "<p id=\"stim\">ROBBER</p>", "conditions": [18, 1200, "v", 18000], "internal_node_id": "0.0-23.0", "trial": 0, "time_elapsed": 191802, "serialpos": 11, "key_press": -1, "wordID": 1196, "type": "PRES_VIS", "trial_index": 32}, "uniqueid": "MTK1453:3I0BTBYZAYS1DZHXH6ADONEPGQR0YN", "dateTime": 1515893910329}, {"current_trial": 33, "trialdata": {"rt": -1, "trial_type": "single-stim", "word": "piston", "stimulus": "<p id=\"stim\">PISTON</p>", "conditions": [18, 1200, "v", 18000], "internal_node_id": "0.0-24.0", "trial": 0, "time_elapsed": 193853, "serialpos": 12, "key_press": -1, "wordID": 1075, "type": "PRES_VIS", "trial_index": 33}, "uniqueid": "MTK1453:3I0BTBYZAYS1DZHXH6ADONEPGQR0YN", "dateTime": 1515893912380}, {"current_trial": 34, "trialdata": {"rt": -1, "trial_type": "single-stim", "word": "island", "stimulus": "<p id=\"stim\">ISLAND</p>", "conditions": [18, 1200, "v", 18000], "internal_node_id": "0.0-25.0", "trial": 0, "time_elapsed": 196146, "serialpos": 13, "key_press": -1, "wordID": 744, "type": "PRES_VIS", "trial_index": 34}, "uniqueid": "MTK1453:3I0BTBYZAYS1DZHXH6ADONEPGQR0YN", "dateTime": 1515893914673}, {"current_trial": 35, "trialdata": {"rt": -1, "trial_type": "single-stim", "word": "dolphin", "stimulus": "<p id=\"stim\">DOLPHIN</p>", "conditions": [18, 1200, "v", 18000], "internal_node_id": "0.0-26.0", "trial": 0, "time_elapsed": 198191, "serialpos": 14, "key_press": -1, "wordID": 482, "type": "PRES_VIS", "trial_index": 35}, "uniqueid": "MTK1453:3I0BTBYZAYS1DZHXH6ADONEPGQR0YN", "dateTime": 1515893916718}, {"current_trial": 36, "trialdata": {"rt": -1, "trial_type": "single-stim", "word": "blouse", "stimulus": "<p id=\"stim\">BLOUSE</p>", "conditions": [18, 1200, "v", 18000], "internal_node_id": "0.0-27.0", "trial": 0, "time_elapsed": 200572, "serialpos": 15, "key_press": -1, "wordID": 138, "type": "PRES_VIS", "trial_index": 36}, "uniqueid": "MTK1453:3I0BTBYZAYS1DZHXH6ADONEPGQR0YN", "dateTime": 1515893919101}, {"current_trial": 37, "trialdata": {"rt": -1, "trial_type": "single-stim", "word": "star", "stimulus": "<p id=\"stim\">STAR</p>", "conditions": [18, 1200, "v", 18000], "internal_node_id": "0.0-28.0", "trial": 0, "time_elapsed": 202894, "serialpos": 16, "key_press": -1, "wordID": 1372, "type": "PRES_VIS", "trial_index": 37}, "uniqueid": "MTK1453:3I0BTBYZAYS1DZHXH6ADONEPGQR0YN", "dateTime": 1515893921421}, {"current_trial": 38, "trialdata": {"rt": -1, "trial_type": "single-stim", "word": "rattle", "stimulus": "<p id=\"stim\">RATTLE</p>", "conditions": [18, 1200, "v", 18000], "internal_node_id": "0.0-29.0", "trial": 0, "time_elapsed": 205105, "serialpos": 17, "key_press": -1, "wordID": 1169, "type": "PRES_VIS", "trial_index": 38}, "uniqueid": "MTK1453:3I0BTBYZAYS1DZHXH6ADONEPGQR0YN", "dateTime": 1515893923633}, {"current_trial": 39, "trialdata": {"rt": -1, "trial_type": "single-stim", "stimulus": "", "internal_node_id": "0.0-30.0-0.0", "time_elapsed": 207326, "key_press": -1, "type": "PRE_RECALL_DELAY", "trial_index": 39}, "uniqueid": "MTK1453:3I0BTBYZAYS1DZHXH6ADONEPGQR0YN", "dateTime": 1515893925853}, {"current_trial": 40, "trialdata": {"rt": -1000, "trial_type": "single-audio", "stimulus": "/static/audio/400Hz.wav", "internal_node_id": "0.0-31.0", "time_elapsed": 207833, "key_press": -1, "type": "PRE_RECALL_ALERT", "trial_index": 40}, "uniqueid": "MTK1453:3I0BTBYZAYS1DZHXH6ADONEPGQR0YN", "dateTime": 1515893926360}, {"current_trial": 41, "trialdata": {"rt": [8145, 11823, 14181, 16030, 22124, 27539, 29677, 55525], "recwords": ["rattle", "flask", "rattle", "flame", "dolphin", "college", "frame", ""], "key_times": [2742, 2919, 3604, 3731, 7003, 7413, 8145, 10245, 10911, 11066, 11322, 11501, 11823, 12758, 12852, 12992, 13121, 13856, 14033, 14181, 15066, 15406, 15521, 15689, 15831, 16030, 19866, 20173, 20392, 20602, 20949, 21077, 21306, 22124, 26238, 26425, 26611, 26731, 26991, 27160, 27311, 27539, 28494, 28693, 28983, 29166, 29289, 29677, 55525], "trial_type": "free-recall", "conditions": [18, 1200, "v", 18000], "internal_node_id": "0.0-32.0-0.0", "key_presses": [82, 65, 84, 84, 76, 69, 13, 70, 76, 65, 83, 75, 13, 82, 65, 84, 84, 76, 69, 13, 70, 76, 65, 77, 69, 13, 68, 79, 76, 80, 72, 73, 78, 13, 67, 79, 76, 76, 69, 71, 69, 13, 70, 82, 65, 77, 69, 13, 13], "trial": 0, "time_elapsed": 267842, "type": "FREE_RECALL", "trial_index": 41}, "uniqueid": "MTK1453:3I0BTBYZAYS1DZHXH6ADONEPGQR0YN", "dateTime": 1515893986374}, {"current_trial": 42, "trialdata": {"rt": 1803, "trial_type": "text", "internal_node_id": "0.0-33.0", "time_elapsed": 271653, "key_press": 13, "type": "INSTRUCTIONS", "trial_index": 42}, "uniqueid": "MTK1453:3I0BTBYZAYS1DZHXH6ADONEPGQR0YN", "dateTime": 1515893990180}, {"current_trial": 43, "trialdata": {"rt": [3312, 6204, 16848], "trial_type": "math-distractor", "key_times": [2063, 3312, 5013, 5416, 6204, 8810, 8910, 16848], "responses": ["6", "19", "17"], "num2": [1, 3, 5, 2], "num3": [2, 8, 9, 6], "conditions": [18, 1200, "v", 18000], "internal_node_id": "0.0-34.0", "key_presses": [54, 13, 49, 57, 13, 49, 55, 13], "trial": 1, "time_elapsed": 291660, "type": "DISTRACTOR", "trial_index": 43, "num1": [3, 8, 3, 4]}, "uniqueid": "MTK1453:3I0BTBYZAYS1DZHXH6ADONEPGQR0YN", "dateTime": 1515894010187}, {"current_trial": 44, "trialdata": {"rt": -1, "trial_type": "single-stim", "stimulus": "<p id=\"stim\">10</p>", "internal_node_id": "0.0-35.0-0.0", "time_elapsed": 294664, "key_press": -1, "trial_index": 44}, "uniqueid": "MTK1453:3I0BTBYZAYS1DZHXH6ADONEPGQR0YN", "dateTime": 1515894013191}, {"current_trial": 45, "trialdata": {"rt": -1, "trial_type": "single-stim", "stimulus": "<p id=\"stim\">9</p>", "internal_node_id": "0.0-35.0-1.0", "time_elapsed": 295665, "key_press": -1, "trial_index": 45}, "uniqueid": "MTK1453:3I0BTBYZAYS1DZHXH6ADONEPGQR0YN", "dateTime": 1515894014192}, {"current_trial": 46, "trialdata": {"rt": -1, "trial_type": "single-stim", "stimulus": "<p id=\"stim\">8</p>", "internal_node_id": "0.0-35.0-2.0", "time_elapsed": 296668, "key_press": -1, "trial_index": 46}, "uniqueid": "MTK1453:3I0BTBYZAYS1DZHXH6ADONEPGQR0YN", "dateTime": 1515894015196}, {"current_trial": 47, "trialdata": {"rt": -1, "trial_type": "single-stim", "stimulus": "<p id=\"stim\">7</p>", "internal_node_id": "0.0-35.0-3.0", "time_elapsed": 297672, "key_press": -1, "trial_index": 47}, "uniqueid": "MTK1453:3I0BTBYZAYS1DZHXH6ADONEPGQR0YN", "dateTime": 1515894016199}, {"current_trial": 48, "trialdata": {"rt": -1, "trial_type": "single-stim", "stimulus": "<p id=\"stim\">6</p>", "internal_node_id": "0.0-35.0-4.0", "time_elapsed": 298674, "key_press": -1, "trial_index": 48}, "uniqueid": "MTK1453:3I0BTBYZAYS1DZHXH6ADONEPGQR0YN", "dateTime": 1515894017201}, {"current_trial": 49, "trialdata": {"rt": -1, "trial_type": "single-stim", "stimulus": "<p id=\"stim\">5</p>", "internal_node_id": "0.0-35.0-5.0", "time_elapsed": 299676, "key_press": -1, "trial_index": 49}, "uniqueid": "MTK1453:3I0BTBYZAYS1DZHXH6ADONEPGQR0YN", "dateTime": 1515894018204}, {"current_trial": 50, "trialdata": {"rt": -1, "trial_type": "single-stim", "stimulus": "<p id=\"stim\">4</p>", "internal_node_id": "0.0-35.0-6.0", "time_elapsed": 300678, "key_press": -1, "trial_index": 50}, "uniqueid": "MTK1453:3I0BTBYZAYS1DZHXH6ADONEPGQR0YN", "dateTime": 1515894019205}, {"current_trial": 51, "trialdata": {"rt": -1, "trial_type": "single-stim", "stimulus": "<p id=\"stim\">3</p>", "internal_node_id": "0.0-35.0-7.0", "time_elapsed": 301679, "key_press": -1, "trial_index": 51}, "uniqueid": "MTK1453:3I0BTBYZAYS1DZHXH6ADONEPGQR0YN", "dateTime": 1515894020207}, {"current_trial": 52, "trialdata": {"rt": -1, "trial_type": "single-stim", "stimulus": "<p id=\"stim\">2</p>", "internal_node_id": "0.0-35.0-8.0", "time_elapsed": 302681, "key_press": -1, "trial_index": 52}, "uniqueid": "MTK1453:3I0BTBYZAYS1DZHXH6ADONEPGQR0YN", "dateTime": 1515894021208}, {"current_trial": 53, "trialdata": {"rt": -1, "trial_type": "single-stim", "stimulus": "<p id=\"stim\">1</p>", "internal_node_id": "0.0-35.0-9.0", "time_elapsed": 303684, "key_press": -1, "trial_index": 53}, "uniqueid": "MTK1453:3I0BTBYZAYS1DZHXH6ADONEPGQR0YN", "dateTime": 1515894022212}, {"current_trial": 54, "trialdata": {"rt": -1, "trial_type": "single-stim", "stimulus": "<p id=\"stim\">+</p>", "internal_node_id": "0.0-36.0-0.0", "time_elapsed": 305190, "key_press": -1, "type": "FIXATION", "trial_index": 54}, "uniqueid": "MTK1453:3I0BTBYZAYS1DZHXH6ADONEPGQR0YN", "dateTime": 1515894023717}, {"current_trial": 55, "trialdata": {"rt": -1, "trial_type": "single-stim", "word": "bathtub", "stimulus": "<p id=\"stim\">BATHTUB</p>", "conditions": [18, 1200, "v", 18000], "internal_node_id": "0.0-37.0", "trial": 1, "time_elapsed": 306394, "serialpos": 0, "key_press": -1, "wordID": 99, "type": "PRES_VIS", "trial_index": 55}, "uniqueid": "MTK1453:3I0BTBYZAYS1DZHXH6ADONEPGQR0YN", "dateTime": 1515894024921}, {"current_trial": 56, "trialdata": {"rt": -1, "trial_type": "single-stim", "word": "treat", "stimulus": "<p id=\"stim\">TREAT</p>", "conditions": [18, 1200, "v", 18000], "internal_node_id": "0.0-38.0", "trial": 1, "time_elapsed": 308640, "serialpos": 1, "key_press": -1, "wordID": 1500, "type": "PRES_VIS", "trial_index": 56}, "uniqueid": "MTK1453:3I0BTBYZAYS1DZHXH6ADONEPGQR0YN", "dateTime": 1515894027168}, {"current_trial": 57, "trialdata": {"rt": -1, "trial_type": "single-stim", "word": "cyclone", "stimulus": "<p id=\"stim\">CYCLONE</p>", "conditions": [18, 1200, "v", 18000], "internal_node_id": "0.0-39.0", "trial": 1, "time_elapsed": 310931, "serialpos": 2, "key_press": -1, "wordID": 430, "type": "PRES_VIS", "trial_index": 57}, "uniqueid": "MTK1453:3I0BTBYZAYS1DZHXH6ADONEPGQR0YN", "dateTime": 1515894029458}, {"current_trial": 58, "trialdata": {"rt": -1, "trial_type": "single-stim", "word": "inmate", "stimulus": "<p id=\"stim\">INMATE</p>", "conditions": [18, 1200, "v", 18000], "internal_node_id": "0.0-40.0", "trial": 1, "time_elapsed": 312959, "serialpos": 3, "key_press": -1, "wordID": 737, "type": "PRES_VIS", "trial_index": 58}, "uniqueid": "MTK1453:3I0BTBYZAYS1DZHXH6ADONEPGQR0YN", "dateTime": 1515894031486}, {"current_trial": 59, "trialdata": {"rt": -1, "trial_type": "single-stim", "word": "sheriff", "stimulus": "<p id=\"stim\">SHERIFF</p>", "conditions": [18, 1200, "v", 18000], "internal_node_id": "0.0-41.0", "trial": 1, "time_elapsed": 315025, "serialpos": 4, "key_press": -1, "wordID": 1283, "type": "PRES_VIS", "trial_index": 59}, "uniqueid": "MTK1453:3I0BTBYZAYS1DZHXH6ADONEPGQR0YN", "dateTime": 1515894033552}, {"current_trial": 60, "trialdata": {"rt": -1, "trial_type": "single-stim", "word": "cross", "stimulus": "<p id=\"stim\">CROSS</p>", "conditions": [18, 1200, "v", 18000], "internal_node_id": "0.0-42.0", "trial": 1, "time_elapsed": 317133, "serialpos": 5, "key_press": -1, "wordID": 412, "type": "PRES_VIS", "trial_index": 60}, "uniqueid": "MTK1453:3I0BTBYZAYS1DZHXH6ADONEPGQR0YN", "dateTime": 1515894035661}, {"current_trial": 61, "trialdata": {"rt": -1, "trial_type": "single-stim", "word": "drawing", "stimulus": "<p id=\"stim\">DRAWING</p>", "conditions": [18, 1200, "v", 18000], "internal_node_id": "0.0-43.0", "trial": 1, "time_elapsed": 319489, "serialpos": 6, "key_press": -1, "wordID": 493, "type": "PRES_VIS", "trial_index": 61}, "uniqueid": "MTK1453:3I0BTBYZAYS1DZHXH6ADONEPGQR0YN", "dateTime": 1515894038016}, {"current_trial": 62, "trialdata": {"rt": -1, "trial_type": "single-stim", "word": "lipstick", "stimulus": "<p id=\"stim\">LIPSTICK</p>", "conditions": [18, 1200, "v", 18000], "internal_node_id": "0.0-44.0", "trial": 1, "time_elapsed": 321647, "serialpos": 7, "key_press": -1, "wordID": 828, "type": "PRES_VIS", "trial_index": 62}, "uniqueid": "MTK1453:3I0BTBYZAYS1DZHXH6ADONEPGQR0YN", "dateTime": 1515894040175}, {"current_trial": 63, "trialdata": {"rt": -1, "trial_type": "single-stim", "word": "shelter", "stimulus": "<p id=\"stim\">SHELTER</p>", "conditions": [18, 1200, "v", 18000], "internal_node_id": "0.0-45.0", "trial": 1, "time_elapsed": 323742, "serialpos": 8, "key_press": -1, "wordID": 1281, "type": "PRES_VIS", "trial_index": 63}, "uniqueid": "MTK1453:3I0BTBYZAYS1DZHXH6ADONEPGQR0YN", "dateTime": 1515894042269}, {"current_trial": 64, "trialdata": {"rt": -1, "trial_type": "single-stim", "word": "hero", "stimulus": "<p id=\"stim\">HERO</p>", "conditions": [18, 1200, "v", 18000], "internal_node_id": "0.0-46.0", "trial": 1, "time_elapsed": 326015, "serialpos": 9, "key_press": -1, "wordID": 705, "type": "PRES_VIS", "trial_index": 64}, "uniqueid": "MTK1453:3I0BTBYZAYS1DZHXH6ADONEPGQR0YN", "dateTime": 1515894044542}, {"current_trial": 65, "trialdata": {"rt": -1, "trial_type": "single-stim", "word": "sunrise", "stimulus": "<p id=\"stim\">SUNRISE</p>", "conditions": [18, 1200, "v", 18000], "internal_node_id": "0.0-47.0", "trial": 1, "time_elapsed": 328059, "serialpos": 10, "key_press": -1, "wordID": 1406, "type": "PRES_VIS", "trial_index": 65}, "uniqueid": "MTK1453:3I0BTBYZAYS1DZHXH6ADONEPGQR0YN", "dateTime": 1515894046587}, {"current_trial": 66, "trialdata": {"rt": -1, "trial_type": "single-stim", "word": "fox", "stimulus": "<p id=\"stim\">FOX</p>", "conditions": [18, 1200, "v", 18000], "internal_node_id": "0.0-48.0", "trial": 1, "time_elapsed": 330309, "serialpos": 11, "key_press": -1, "wordID": 597, "type": "PRES_VIS", "trial_index": 66}, "uniqueid": "MTK1453:3I0BTBYZAYS1DZHXH6ADONEPGQR0YN", "dateTime": 1515894048837}, {"current_trial": 67, "trialdata": {"rt": -1, "trial_type": "single-stim", "word": "bacon", "stimulus": "<p id=\"stim\">BACON</p>", "conditions": [18, 1200, "v", 18000], "internal_node_id": "0.0-49.0", "trial": 1, "time_elapsed": 332516, "serialpos": 12, "key_press": -1, "wordID": 66, "type": "PRES_VIS", "trial_index": 67}, "uniqueid": "MTK1453:3I0BTBYZAYS1DZHXH6ADONEPGQR0YN", "dateTime": 1515894051043}, {"current_trial": 68, "trialdata": {"rt": -1, "trial_type": "single-stim", "word": "belly", "stimulus": "<p id=\"stim\">BELLY</p>", "conditions": [18, 1200, "v", 18000], "internal_node_id": "0.0-50.0", "trial": 1, "time_elapsed": 334692, "serialpos": 13, "key_press": -1, "wordID": 118, "type": "PRES_VIS", "trial_index": 68}, "uniqueid": "MTK1453:3I0BTBYZAYS1DZHXH6ADONEPGQR0YN", "dateTime": 1515894053223}, {"current_trial": 69, "trialdata": {"rt": -1, "trial_type": "single-stim", "word": "maple", "stimulus": "<p id=\"stim\">MAPLE</p>", "conditions": [18, 1200, "v", 18000], "internal_node_id": "0.0-51.0", "trial": 1, "time_elapsed": 336871, "serialpos": 14, "key_press": -1, "wordID": 865, "type": "PRES_VIS", "trial_index": 69}, "uniqueid": "MTK1453:3I0BTBYZAYS1DZHXH6ADONEPGQR0YN", "dateTime": 1515894055399}, {"current_trial": 70, "trialdata": {"rt": -1, "trial_type": "single-stim", "word": "expert", "stimulus": "<p id=\"stim\">EXPERT</p>", "conditions": [18, 1200, "v", 18000], "internal_node_id": "0.0-52.0", "trial": 1, "time_elapsed": 339094, "serialpos": 15, "key_press": -1, "wordID": 542, "type": "PRES_VIS", "trial_index": 70}, "uniqueid": "MTK1453:3I0BTBYZAYS1DZHXH6ADONEPGQR0YN", "dateTime": 1515894057621}, {"current_trial": 71, "trialdata": {"rt": -1, "trial_type": "single-stim", "word": "cabin", "stimulus": "<p id=\"stim\">CABIN</p>", "conditions": [18, 1200, "v", 18000], "internal_node_id": "0.0-53.0", "trial": 1, "time_elapsed": 341302, "serialpos": 16, "key_press": -1, "wordID": 210, "type": "PRES_VIS", "trial_index": 71}, "uniqueid": "MTK1453:3I0BTBYZAYS1DZHXH6ADONEPGQR0YN", "dateTime": 1515894059829}, {"current_trial": 72, "trialdata": {"rt": -1, "trial_type": "single-stim", "word": "country", "stimulus": "<p id=\"stim\">COUNTRY</p>", "conditions": [18, 1200, "v", 18000], "internal_node_id": "0.0-54.0", "trial": 1, "time_elapsed": 343672, "serialpos": 17, "key_press": -1, "wordID": 387, "type": "PRES_VIS", "trial_index": 72}, "uniqueid": "MTK1453:3I0BTBYZAYS1DZHXH6ADONEPGQR0YN", "dateTime": 1515894062199}, {"current_trial": 73, "trialdata": {"rt": -1, "trial_type": "single-stim", "stimulus": "", "internal_node_id": "0.0-55.0-0.0", "time_elapsed": 346082, "key_press": -1, "type": "PRE_RECALL_DELAY", "trial_index": 73}, "uniqueid": "MTK1453:3I0BTBYZAYS1DZHXH6ADONEPGQR0YN", "dateTime": 1515894064609}, {"current_trial": 74, "trialdata": {"rt": -1000, "trial_type": "single-audio", "stimulus": "/static/audio/400Hz.wav", "internal_node_id": "0.0-56.0", "time_elapsed": 346588, "key_press": -1, "type": "PRE_RECALL_ALERT", "trial_index": 74}, "uniqueid": "MTK1453:3I0BTBYZAYS1DZHXH6ADONEPGQR0YN", "dateTime": 1515894065115}, {"current_trial": 75, "trialdata": {"rt": [4370, 7986, 10024, 12217, 20481, 28875, 32590], "recwords": ["bacon", "country", "sherrif", "maple", "cabin", "task", ""], "key_times": [3016, 3218, 3599, 3786, 4020, 4370, 5129, 5323, 5594, 5771, 5918, 6097, 6178, 6813, 7704, 7986, 8813, 8999, 9158, 9360, 9482, 9733, 9870, 10024, 11303, 11442, 11771, 11945, 12054, 12217, 15364, 15631, 15781, 15944, 16068, 16457, 20481, 27800, 27987, 28238, 28572, 28875, 32590], "trial_type": "free-recall", "conditions": [18, 1200, "v", 18000], "internal_node_id": "0.0-57.0-0.0", "key_presses": [66, 65, 67, 79, 78, 13, 67, 79, 85, 78, 84, 82, 89, 220, 8, 13, 83, 72, 69, 82, 82, 73, 70, 13, 77, 65, 80, 76, 69, 13, 67, 65, 66, 73, 78, 34, 13, 84, 65, 83, 75, 13, 13], "trial": 1, "time_elapsed": 406597, "type": "FREE_RECALL", "trial_index": 75}, "uniqueid": "MTK1453:3I0BTBYZAYS1DZHXH6ADONEPGQR0YN", "dateTime": 1515894125129}, {"current_trial": 76, "trialdata": {"rt": 3219, "trial_type": "text", "internal_node_id": "0.0-58.0", "time_elapsed": 411825, "key_press": 13, "type": "INSTRUCTIONS", "trial_index": 76}, "uniqueid": "MTK1453:3I0BTBYZAYS1DZHXH6ADONEPGQR0YN", "dateTime": 1515894130352}, {"current_trial": 77, "trialdata": {"rt": [3020, 5749, 8775, 11812, 16403, 18954, 22725], "trial_type": "math-distractor", "key_times": [1545, 2169, 3020, 4979, 5134, 5749, 7316, 7877, 8775, 10749, 10883, 11812, 13496, 16403, 18093, 18370, 18954, 22075, 22434, 22725], "responses": ["19", "17", "16", "13", "9", "12", "24"], "num2": [9, 9, 9, 2, 2, 7, 7, 8], "num3": [9, 3, 6, 7, 3, 4, 8, 1], "conditions": [12, 1600, "v", 24000], "internal_node_id": "0.0-59.0", "key_presses": [49, 57, 13, 49, 55, 13, 49, 54, 13, 49, 51, 13, 57, 13, 49, 50, 13, 50, 52, 13], "trial": 2, "time_elapsed": 436830, "type": "DISTRACTOR", "trial_index": 77, "num1": [1, 5, 1, 4, 4, 1, 9, 7]}, "uniqueid": "MTK1453:3I0BTBYZAYS1DZHXH6ADONEPGQR0YN", "dateTime": 1515894155357}, {"current_trial": 78, "trialdata": {"rt": -1, "trial_type": "single-stim", "stimulus": "<p id=\"stim\">10</p>", "internal_node_id": "0.0-60.0-0.0", "time_elapsed": 439836, "key_press": -1, "trial_index": 78}, "uniqueid": "MTK1453:3I0BTBYZAYS1DZHXH6ADONEPGQR0YN", "dateTime": 1515894158363}, {"current_trial": 79, "trialdata": {"rt": -1, "trial_type": "single-stim", "stimulus": "<p id=\"stim\">9</p>", "internal_node_id": "0.0-60.0-1.0", "time_elapsed": 440839, "key_press": -1, "trial_index": 79}, "uniqueid": "MTK1453:3I0BTBYZAYS1DZHXH6ADONEPGQR0YN", "dateTime": 1515894159366}, {"current_trial": 80, "trialdata": {"rt": -1, "trial_type": "single-stim", "stimulus": "<p id=\"stim\">8</p>", "internal_node_id": "0.0-60.0-2.0", "time_elapsed": 441843, "key_press": -1, "trial_index": 80}, "uniqueid": "MTK1453:3I0BTBYZAYS1DZHXH6ADONEPGQR0YN", "dateTime": 1515894160370}, {"current_trial": 81, "trialdata": {"rt": -1, "trial_type": "single-stim", "stimulus": "<p id=\"stim\">7</p>", "internal_node_id": "0.0-60.0-3.0", "time_elapsed": 442845, "key_press": -1, "trial_index": 81}, "uniqueid": "MTK1453:3I0BTBYZAYS1DZHXH6ADONEPGQR0YN", "dateTime": 1515894161372}, {"current_trial": 82, "trialdata": {"rt": -1, "trial_type": "single-stim", "stimulus": "<p id=\"stim\">6</p>", "internal_node_id": "0.0-60.0-4.0", "time_elapsed": 443848, "key_press": -1, "trial_index": 82}, "uniqueid": "MTK1453:3I0BTBYZAYS1DZHXH6ADONEPGQR0YN", "dateTime": 1515894162375}, {"current_trial": 83, "trialdata": {"rt": -1, "trial_type": "single-stim", "stimulus": "<p id=\"stim\">5</p>", "internal_node_id": "0.0-60.0-5.0", "time_elapsed": 444850, "key_press": -1, "trial_index": 83}, "uniqueid": "MTK1453:3I0BTBYZAYS1DZHXH6ADONEPGQR0YN", "dateTime": 1515894163377}, {"current_trial": 84, "trialdata": {"rt": -1, "trial_type": "single-stim", "stimulus": "<p id=\"stim\">4</p>", "internal_node_id": "0.0-60.0-6.0", "time_elapsed": 445852, "key_press": -1, "trial_index": 84}, "uniqueid": "MTK1453:3I0BTBYZAYS1DZHXH6ADONEPGQR0YN", "dateTime": 1515894164379}, {"current_trial": 85, "trialdata": {"rt": -1, "trial_type": "single-stim", "stimulus": "<p id=\"stim\">3</p>", "internal_node_id": "0.0-60.0-7.0", "time_elapsed": 446855, "key_press": -1, "trial_index": 85}, "uniqueid": "MTK1453:3I0BTBYZAYS1DZHXH6ADONEPGQR0YN", "dateTime": 1515894165383}, {"current_trial": 86, "trialdata": {"rt": -1, "trial_type": "single-stim", "stimulus": "<p id=\"stim\">2</p>", "internal_node_id": "0.0-60.0-8.0", "time_elapsed": 447857, "key_press": -1, "trial_index": 86}, "uniqueid": "MTK1453:3I0BTBYZAYS1DZHXH6ADONEPGQR0YN", "dateTime": 1515894166385}, {"current_trial": 87, "trialdata": {"rt": -1, "trial_type": "single-stim", "stimulus": "<p id=\"stim\">1</p>", "internal_node_id": "0.0-60.0-9.0", "time_elapsed": 448861, "key_press": -1, "trial_index": 87}, "uniqueid": "MTK1453:3I0BTBYZAYS1DZHXH6ADONEPGQR0YN", "dateTime": 1515894167388}, {"current_trial": 88, "trialdata": {"rt": -1, "trial_type": "single-stim", "stimulus": "<p id=\"stim\">+</p>", "internal_node_id": "0.0-61.0-0.0", "time_elapsed": 450364, "key_press": -1, "type": "FIXATION", "trial_index": 88}, "uniqueid": "MTK1453:3I0BTBYZAYS1DZHXH6ADONEPGQR0YN", "dateTime": 1515894168891}, {"current_trial": 89, "trialdata": {"rt": -1, "trial_type": "single-stim", "word": "dorm", "stimulus": "<p id=\"stim\">DORM</p>", "conditions": [12, 1600, "v", 24000], "internal_node_id": "0.0-62.0", "trial": 2, "time_elapsed": 451968, "serialpos": 0, "key_press": -1, "wordID": 487, "type": "PRES_VIS", "trial_index": 89}, "uniqueid": "MTK1453:3I0BTBYZAYS1DZHXH6ADONEPGQR0YN", "dateTime": 1515894170495}, {"current_trial": 90, "trialdata": {"rt": -1, "trial_type": "single-stim", "word": "termite", "stimulus": "<p id=\"stim\">TERMITE</p>", "conditions": [12, 1600, "v", 24000], "internal_node_id": "0.0-63.0", "trial": 2, "time_elapsed": 454709, "serialpos": 1, "key_press": -1, "wordID": 1450, "type": "PRES_VIS", "trial_index": 90}, "uniqueid": "MTK1453:3I0BTBYZAYS1DZHXH6ADONEPGQR0YN", "dateTime": 1515894173236}, {"current_trial": 91, "trialdata": {"rt": -1, "trial_type": "single-stim", "word": "mammal", "stimulus": "<p id=\"stim\">MAMMAL</p>", "conditions": [12, 1600, "v", 24000], "internal_node_id": "0.0-64.0", "trial": 2, "time_elapsed": 457463, "serialpos": 2, "key_press": -1, "wordID": 860, "type": "PRES_VIS", "trial_index": 91}, "uniqueid": "MTK1453:3I0BTBYZAYS1DZHXH6ADONEPGQR0YN", "dateTime": 1515894175991}, {"current_trial": 92, "trialdata": {"rt": -1, "trial_type": "single-stim", "word": "salmon", "stimulus": "<p id=\"stim\">SALMON</p>", "conditions": [12, 1600, "v", 24000], "internal_node_id": "0.0-65.0", "trial": 2, "time_elapsed": 459950, "serialpos": 3, "key_press": -1, "wordID": 1226, "type": "PRES_VIS", "trial_index": 92}, "uniqueid": "MTK1453:3I0BTBYZAYS1DZHXH6ADONEPGQR0YN", "dateTime": 1515894178478}, {"current_trial": 93, "trialdata": {"rt": -1, "trial_type": "single-stim", "word": "crab", "stimulus": "<p id=\"stim\">CRAB</p>", "conditions": [12, 1600, "v", 24000], "internal_node_id": "0.0-66.0", "trial": 2, "time_elapsed": 462363, "serialpos": 4, "key_press": -1, "wordID": 396, "type": "PRES_VIS", "trial_index": 93}, "uniqueid": "MTK1453:3I0BTBYZAYS1DZHXH6ADONEPGQR0YN", "dateTime": 1515894180890}, {"current_trial": 94, "trialdata": {"rt": -1, "trial_type": "single-stim", "word": "flower", "stimulus": "<p id=\"stim\">FLOWER</p>", "conditions": [12, 1600, "v", 24000], "internal_node_id": "0.0-67.0", "trial": 2, "time_elapsed": 465134, "serialpos": 5, "key_press": -1, "wordID": 583, "type": "PRES_VIS", "trial_index": 94}, "uniqueid": "MTK1453:3I0BTBYZAYS1DZHXH6ADONEPGQR0YN", "dateTime": 1515894183661}, {"current_trial": 95, "trialdata": {"rt": -1, "trial_type": "single-stim", "word": "fruit", "stimulus": "<p id=\"stim\">FRUIT</p>", "conditions": [12, 1600, "v", 24000], "internal_node_id": "0.0-68.0", "trial": 2, "time_elapsed": 467697, "serialpos": 6, "key_press": -1, "wordID": 609, "type": "PRES_VIS", "trial_index": 95}, "uniqueid": "MTK1453:3I0BTBYZAYS1DZHXH6ADONEPGQR0YN", "dateTime": 1515894186224}, {"current_trial": 96, "trialdata": {"rt": -1, "trial_type": "single-stim", "word": "fungus", "stimulus": "<p id=\"stim\">FUNGUS</p>", "conditions": [12, 1600, "v", 24000], "internal_node_id": "0.0-69.0", "trial": 2, "time_elapsed": 470390, "serialpos": 7, "key_press": -1, "wordID": 613, "type": "PRES_VIS", "trial_index": 96}, "uniqueid": "MTK1453:3I0BTBYZAYS1DZHXH6ADONEPGQR0YN", "dateTime": 1515894188917}, {"current_trial": 97, "trialdata": {"rt": -1, "trial_type": "single-stim", "word": "monster", "stimulus": "<p id=\"stim\">MONSTER</p>", "conditions": [12, 1600, "v", 24000], "internal_node_id": "0.0-70.0", "trial": 2, "time_elapsed": 473029, "serialpos": 8, "key_press": -1, "wordID": 911, "type": "PRES_VIS", "trial_index": 97}, "uniqueid": "MTK1453:3I0BTBYZAYS1DZHXH6ADONEPGQR0YN", "dateTime": 1515894191556}, {"current_trial": 98, "trialdata": {"rt": -1, "trial_type": "single-stim", "word": "lamp", "stimulus": "<p id=\"stim\">LAMP</p>", "conditions": [12, 1600, "v", 24000], "internal_node_id": "0.0-71.0", "trial": 2, "time_elapsed": 475628, "serialpos": 9, "key_press": -1, "wordID": 797, "type": "PRES_VIS", "trial_index": 98}, "uniqueid": "MTK1453:3I0BTBYZAYS1DZHXH6ADONEPGQR0YN", "dateTime": 1515894194155}, {"current_trial": 99, "trialdata": {"rt": -1, "trial_type": "single-stim", "word": "leopard", "stimulus": "<p id=\"stim\">LEOPARD</p>", "conditions": [12, 1600, "v", 24000], "internal_node_id": "0.0-72.0", "trial": 2, "time_elapsed": 478227, "serialpos": 10, "key_press": -1, "wordID": 811, "type": "PRES_VIS", "trial_index": 99}, "uniqueid": "MTK1453:3I0BTBYZAYS1DZHXH6ADONEPGQR0YN", "dateTime": 1515894196755}, {"current_trial": 100, "trialdata": {"rt": -1, "trial_type": "single-stim", "word": "braces", "stimulus": "<p id=\"stim\">BRACES</p>", "conditions": [12, 1600, "v", 24000], "internal_node_id": "0.0-73.0", "trial": 2, "time_elapsed": 480936, "serialpos": 11, "key_press": -1, "wordID": 163, "type": "PRES_VIS", "trial_index": 100}, "uniqueid": "MTK1453:3I0BTBYZAYS1DZHXH6ADONEPGQR0YN", "dateTime": 1515894199464}, {"current_trial": 101, "trialdata": {"rt": -1, "trial_type": "single-stim", "stimulus": "", "internal_node_id": "0.0-74.0-0.0", "time_elapsed": 483325, "key_press": -1, "type": "PRE_RECALL_DELAY", "trial_index": 101}, "uniqueid": "MTK1453:3I0BTBYZAYS1DZHXH6ADONEPGQR0YN", "dateTime": 1515894201853}, {"current_trial": 102, "trialdata": {"rt": -1000, "trial_type": "single-audio", "stimulus": "/static/audio/400Hz.wav", "internal_node_id": "0.0-75.0", "time_elapsed": 483831, "key_press": -1, "type": "PRE_RECALL_ALERT", "trial_index": 102}, "uniqueid": "MTK1453:3I0BTBYZAYS1DZHXH6ADONEPGQR0YN", "dateTime": 1515894202358}, {"current_trial": 103, "trialdata": {"rt": [2606, 5328, 7130, 9292, 11370, 20147, 48546], "recwords": ["dorm", "termite", "mammal", "flower", "fungus", "fruit", ""], "key_times": [1871, 2025, 2180, 2277, 2591, 2606, 3429, 3560, 3722, 4460, 4631, 4937, 5074, 5328, 5879, 6007, 6128, 6531, 6690, 6815, 7130, 8246, 8350, 8520, 8625, 8860, 9031, 9292, 10150, 10303, 10476, 10791, 10922, 11087, 11370, 18958, 19147, 19333, 19495, 19592, 20147, 48546], "trial_type": "free-recall", "conditions": [12, 1600, "v", 24000], "internal_node_id": "0.0-76.0-0.0", "key_presses": [68, 79, 82, 77, 16, 13, 84, 69, 82, 77, 73, 84, 69, 13, 77, 65, 77, 77, 65, 76, 13, 70, 76, 79, 87, 69, 82, 13, 70, 85, 78, 71, 85, 83, 13, 70, 82, 85, 73, 84, 13, 13], "trial": 2, "time_elapsed": 543836, "type": "FREE_RECALL", "trial_index": 103}, "uniqueid": "MTK1453:3I0BTBYZAYS1DZHXH6ADONEPGQR0YN", "dateTime": 1515894262368}, {"current_trial": 104, "trialdata": {"rt": 4820, "trial_type": "text", "internal_node_id": "0.0-77.0", "time_elapsed": 550662, "key_press": 13, "type": "INSTRUCTIONS", "trial_index": 104}, "uniqueid": "MTK1453:3I0BTBYZAYS1DZHXH6ADONEPGQR0YN", "dateTime": 1515894269190}, {"current_trial": 105, "trialdata": {"rt": [2928, 5912, 9327, 11736, 14252, 16877, 21647], "trial_type": "math-distractor", "key_times": [1924, 2227, 2928, 5054, 5314, 5912, 7908, 9068, 9327, 11332, 11561, 11736, 13630, 13868, 14252, 15902, 16651, 16877, 19477, 21647], "responses": ["23", "20", "15", "11", "19", "15", "9"], "num2": [8, 8, 6, 1, 5, 9, 3, 4], "num3": [6, 8, 6, 5, 7, 1, 4, 8], "conditions": [24, 1600, "v", 24000], "internal_node_id": "0.0-78.0", "key_presses": [50, 51, 13, 50, 48, 13, 49, 53, 13, 49, 49, 13, 49, 57, 13, 49, 53, 13, 57, 13], "trial": 3, "time_elapsed": 576670, "type": "DISTRACTOR", "trial_index": 105, "num1": [9, 4, 3, 5, 7, 5, 2, 9]}, "uniqueid": "MTK1453:3I0BTBYZAYS1DZHXH6ADONEPGQR0YN", "dateTime": 1515894295198}, {"current_trial": 106, "trialdata": {"rt": -1, "trial_type": "single-stim", "stimulus": "<p id=\"stim\">10</p>", "internal_node_id": "0.0-79.0-0.0", "time_elapsed": 579675, "key_press": -1, "trial_index": 106}, "uniqueid": "MTK1453:3I0BTBYZAYS1DZHXH6ADONEPGQR0YN", "dateTime": 1515894298202}, {"current_trial": 107, "trialdata": {"rt": -1, "trial_type": "single-stim", "stimulus": "<p id=\"stim\">9</p>", "internal_node_id": "0.0-79.0-1.0", "time_elapsed": 580677, "key_press": -1, "trial_index": 107}, "uniqueid": "MTK1453:3I0BTBYZAYS1DZHXH6ADONEPGQR0YN", "dateTime": 1515894299204}, {"current_trial": 108, "trialdata": {"rt": -1, "trial_type": "single-stim", "stimulus": "<p id=\"stim\">8</p>", "internal_node_id": "0.0-79.0-2.0", "time_elapsed": 581679, "key_press": -1, "trial_index": 108}, "uniqueid": "MTK1453:3I0BTBYZAYS1DZHXH6ADONEPGQR0YN", "dateTime": 1515894300207}, {"current_trial": 109, "trialdata": {"rt": -1, "trial_type": "single-stim", "stimulus": "<p id=\"stim\">7</p>", "internal_node_id": "0.0-79.0-3.0", "time_elapsed": 582681, "key_press": -1, "trial_index": 109}, "uniqueid": "MTK1453:3I0BTBYZAYS1DZHXH6ADONEPGQR0YN", "dateTime": 1515894301209}, {"current_trial": 110, "trialdata": {"rt": -1, "trial_type": "single-stim", "stimulus": "<p id=\"stim\">6</p>", "internal_node_id": "0.0-79.0-4.0", "time_elapsed": 583686, "key_press": -1, "trial_index": 110}, "uniqueid": "MTK1453:3I0BTBYZAYS1DZHXH6ADONEPGQR0YN", "dateTime": 1515894302213}, {"current_trial": 111, "trialdata": {"rt": -1, "trial_type": "single-stim", "stimulus": "<p id=\"stim\">5</p>", "internal_node_id": "0.0-79.0-5.0", "time_elapsed": 584690, "key_press": -1, "trial_index": 111}, "uniqueid": "MTK1453:3I0BTBYZAYS1DZHXH6ADONEPGQR0YN", "dateTime": 1515894303217}, {"current_trial": 112, "trialdata": {"rt": -1, "trial_type": "single-stim", "stimulus": "<p id=\"stim\">4</p>", "internal_node_id": "0.0-79.0-6.0", "time_elapsed": 585692, "key_press": -1, "trial_index": 112}, "uniqueid": "MTK1453:3I0BTBYZAYS1DZHXH6ADONEPGQR0YN", "dateTime": 1515894304219}, {"current_trial": 113, "trialdata": {"rt": -1, "trial_type": "single-stim", "stimulus": "<p id=\"stim\">3</p>", "internal_node_id": "0.0-79.0-7.0", "time_elapsed": 586697, "key_press": -1, "trial_index": 113}, "uniqueid": "MTK1453:3I0BTBYZAYS1DZHXH6ADONEPGQR0YN", "dateTime": 1515894305224}, {"current_trial": 114, "trialdata": {"rt": -1, "trial_type": "single-stim", "stimulus": "<p id=\"stim\">2</p>", "internal_node_id": "0.0-79.0-8.0", "time_elapsed": 587699, "key_press": -1, "trial_index": 114}, "uniqueid": "MTK1453:3I0BTBYZAYS1DZHXH6ADONEPGQR0YN", "dateTime": 1515894306226}, {"current_trial": 115, "trialdata": {"rt": -1, "trial_type": "single-stim", "stimulus": "<p id=\"stim\">1</p>", "internal_node_id": "0.0-79.0-9.0", "time_elapsed": 588703, "key_press": -1, "trial_index": 115}, "uniqueid": "MTK1453:3I0BTBYZAYS1DZHXH6ADONEPGQR0YN", "dateTime": 1515894307230}, {"current_trial": 116, "trialdata": {"rt": -1, "trial_type": "single-stim", "stimulus": "<p id=\"stim\">+</p>", "internal_node_id": "0.0-80.0-0.0", "time_elapsed": 590206, "key_press": -1, "type": "FIXATION", "trial_index": 116}, "uniqueid": "MTK1453:3I0BTBYZAYS1DZHXH6ADONEPGQR0YN", "dateTime": 1515894308733}, {"current_trial": 117, "trialdata": {"rt": -1, "trial_type": "single-stim", "word": "cattle", "stimulus": "<p id=\"stim\">CATTLE</p>", "conditions": [24, 1600, "v", 24000], "internal_node_id": "0.0-81.0", "trial": 3, "time_elapsed": 591810, "serialpos": 0, "key_press": -1, "wordID": 260, "type": "PRES_VIS", "trial_index": 117}, "uniqueid": "MTK1453:3I0BTBYZAYS1DZHXH6ADONEPGQR0YN", "dateTime": 1515894310337}, {"current_trial": 118, "trialdata": {"rt": -1, "trial_type": "single-stim", "word": "cowboy", "stimulus": "<p id=\"stim\">COWBOY</p>", "conditions": [24, 1600, "v", 24000], "internal_node_id": "0.0-82.0", "trial": 3, "time_elapsed": 594534, "serialpos": 1, "key_press": -1, "wordID": 394, "type": "PRES_VIS", "trial_index": 118}, "uniqueid": "MTK1453:3I0BTBYZAYS1DZHXH6ADONEPGQR0YN", "dateTime": 1515894313061}, {"current_trial": 119, "trialdata": {"rt": -1, "trial_type": "single-stim", "word": "tourist", "stimulus": "<p id=\"stim\">TOURIST</p>", "conditions": [24, 1600, "v", 24000], "internal_node_id": "0.0-83.0", "trial": 3, "time_elapsed": 596997, "serialpos": 2, "key_press": -1, "wordID": 1487, "type": "PRES_VIS", "trial_index": 119}, "uniqueid": "MTK1453:3I0BTBYZAYS1DZHXH6ADONEPGQR0YN", "dateTime": 1515894315524}, {"current_trial": 120, "trialdata": {"rt": -1, "trial_type": "single-stim", "word": "baby", "stimulus": "<p id=\"stim\">BABY</p>", "conditions": [24, 1600, "v", 24000], "internal_node_id": "0.0-84.0", "trial": 3, "time_elapsed": 599582, "serialpos": 3, "key_press": -1, "wordID": 63, "type": "PRES_VIS", "trial_index": 120}, "uniqueid": "MTK1453:3I0BTBYZAYS1DZHXH6ADONEPGQR0YN", "dateTime": 1515894318109}, {"current_trial": 121, "trialdata": {"rt": -1, "trial_type": "single-stim", "word": "virus", "stimulus": "<p id=\"stim\">VIRUS</p>", "conditions": [24, 1600, "v", 24000], "internal_node_id": "0.0-85.0", "trial": 3, "time_elapsed": 602040, "serialpos": 4, "key_press": -1, "wordID": 1571, "type": "PRES_VIS", "trial_index": 121}, "uniqueid": "MTK1453:3I0BTBYZAYS1DZHXH6ADONEPGQR0YN", "dateTime": 1515894320567}, {"current_trial": 122, "trialdata": {"rt": -1, "trial_type": "single-stim", "word": "sponge", "stimulus": "<p id=\"stim\">SPONGE</p>", "conditions": [24, 1600, "v", 24000], "internal_node_id": "0.0-86.0", "trial": 3, "time_elapsed": 604577, "serialpos": 5, "key_press": -1, "wordID": 1354, "type": "PRES_VIS", "trial_index": 122}, "uniqueid": "MTK1453:3I0BTBYZAYS1DZHXH6ADONEPGQR0YN", "dateTime": 1515894323104}, {"current_trial": 123, "trialdata": {"rt": -1, "trial_type": "single-stim", "word": "item", "stimulus": "<p id=\"stim\">ITEM</p>", "conditions": [24, 1600, "v", 24000], "internal_node_id": "0.0-87.0", "trial": 3, "time_elapsed": 607366, "serialpos": 6, "key_press": -1, "wordID": 745, "type": "PRES_VIS", "trial_index": 123}, "uniqueid": "MTK1453:3I0BTBYZAYS1DZHXH6ADONEPGQR0YN", "dateTime": 1515894325893}, {"current_trial": 124, "trialdata": {"rt": -1, "trial_type": "single-stim", "word": "ozone", "stimulus": "<p id=\"stim\">OZONE</p>", "conditions": [24, 1600, "v", 24000], "internal_node_id": "0.0-88.0", "trial": 3, "time_elapsed": 609903, "serialpos": 7, "key_press": -1, "wordID": 995, "type": "PRES_VIS", "trial_index": 124}, "uniqueid": "MTK1453:3I0BTBYZAYS1DZHXH6ADONEPGQR0YN", "dateTime": 1515894328430}, {"current_trial": 125, "trialdata": {"rt": -1, "trial_type": "single-stim", "word": "smog", "stimulus": "<p id=\"stim\">SMOG</p>", "conditions": [24, 1600, "v", 24000], "internal_node_id": "0.0-89.0", "trial": 3, "time_elapsed": 612615, "serialpos": 8, "key_press": -1, "wordID": 1329, "type": "PRES_VIS", "trial_index": 125}, "uniqueid": "MTK1453:3I0BTBYZAYS1DZHXH6ADONEPGQR0YN", "dateTime": 1515894331142}, {"current_trial": 126, "trialdata": {"rt": -1, "trial_type": "single-stim", "word": "blender", "stimulus": "<p id=\"stim\">BLENDER</p>", "conditions": [24, 1600, "v", 24000], "internal_node_id": "0.0-90.0", "trial": 3, "time_elapsed": 615352, "serialpos": 9, "key_press": -1, "wordID": 135, "type": "PRES_VIS", "trial_index": 126}, "uniqueid": "MTK1453:3I0BTBYZAYS1DZHXH6ADONEPGQR0YN", "dateTime": 1515894333879}, {"current_trial": 127, "trialdata": {"rt": -1, "trial_type": "single-stim", "word": "hostess", "stimulus": "<p id=\"stim\">HOSTESS</p>", "conditions": [24, 1600, "v", 24000], "internal_node_id": "0.0-91.0", "trial": 3, "time_elapsed": 617966, "serialpos": 10, "key_press": -1, "wordID": 722, "type": "PRES_VIS", "trial_index": 127}, "uniqueid": "MTK1453:3I0BTBYZAYS1DZHXH6ADONEPGQR0YN", "dateTime": 1515894336494}, {"current_trial": 128, "trialdata": {"rt": -1, "trial_type": "single-stim", "word": "puppy", "stimulus": "<p id=\"stim\">PUPPY</p>", "conditions": [24, 1600, "v", 24000], "internal_node_id": "0.0-92.0", "trial": 3, "time_elapsed": 620588, "serialpos": 11, "key_press": -1, "wordID": 1143, "type": "PRES_VIS", "trial_index": 128}, "uniqueid": "MTK1453:3I0BTBYZAYS1DZHXH6ADONEPGQR0YN", "dateTime": 1515894339116}, {"current_trial": 129, "trialdata": {"rt": -1, "trial_type": "single-stim", "word": "freezer", "stimulus": "<p id=\"stim\">FREEZER</p>", "conditions": [24, 1600, "v", 24000], "internal_node_id": "0.0-93.0", "trial": 3, "time_elapsed": 623161, "serialpos": 12, "key_press": -1, "wordID": 603, "type": "PRES_VIS", "trial_index": 129}, "uniqueid": "MTK1453:3I0BTBYZAYS1DZHXH6ADONEPGQR0YN", "dateTime": 1515894341688}, {"current_trial": 130, "trialdata": {"rt": -1, "trial_type": "single-stim", "word": "contract", "stimulus": "<p id=\"stim\">CONTRACT</p>", "conditions": [24, 1600, "v", 24000], "internal_node_id": "0.0-94.0", "trial": 3, "time_elapsed": 625847, "serialpos": 13, "key_press": -1, "wordID": 367, "type": "PRES_VIS", "trial_index": 130}, "uniqueid": "MTK1453:3I0BTBYZAYS1DZHXH6ADONEPGQR0YN", "dateTime": 1515894344374}, {"current_trial": 131, "trialdata": {"rt": -1, "trial_type": "single-stim", "word": "award", "stimulus": "<p id=\"stim\">AWARD</p>", "conditions": [24, 1600, "v", 24000], "internal_node_id": "0.0-95.0", "trial": 3, "time_elapsed": 628555, "serialpos": 14, "key_press": -1, "wordID": 62, "type": "PRES_VIS", "trial_index": 131}, "uniqueid": "MTK1453:3I0BTBYZAYS1DZHXH6ADONEPGQR0YN", "dateTime": 1515894347082}, {"current_trial": 132, "trialdata": {"rt": -1, "trial_type": "single-stim", "word": "river", "stimulus": "<p id=\"stim\">RIVER</p>", "conditions": [24, 1600, "v", 24000], "internal_node_id": "0.0-96.0", "trial": 3, "time_elapsed": 631293, "serialpos": 15, "key_press": -1, "wordID": 1193, "type": "PRES_VIS", "trial_index": 132}, "uniqueid": "MTK1453:3I0BTBYZAYS1DZHXH6ADONEPGQR0YN", "dateTime": 1515894349820}, {"current_trial": 133, "trialdata": {"rt": -1, "trial_type": "single-stim", "word": "lake", "stimulus": "<p id=\"stim\">LAKE</p>", "conditions": [24, 1600, "v", 24000], "internal_node_id": "0.0-97.0", "trial": 3, "time_elapsed": 633795, "serialpos": 16, "key_press": -1, "wordID": 795, "type": "PRES_VIS", "trial_index": 133}, "uniqueid": "MTK1453:3I0BTBYZAYS1DZHXH6ADONEPGQR0YN", "dateTime": 1515894352322}, {"current_trial": 134, "trialdata": {"rt": -1, "trial_type": "single-stim", "word": "pizza", "stimulus": "<p id=\"stim\">PIZZA</p>", "conditions": [24, 1600, "v", 24000], "internal_node_id": "0.0-98.0", "trial": 3, "time_elapsed": 636575, "serialpos": 17, "key_press": -1, "wordID": 1078, "type": "PRES_VIS", "trial_index": 134}, "uniqueid": "MTK1453:3I0BTBYZAYS1DZHXH6ADONEPGQR0YN", "dateTime": 1515894355102}, {"current_trial": 135, "trialdata": {"rt": -1, "trial_type": "single-stim", "word": "princess", "stimulus": "<p id=\"stim\">PRINCESS</p>", "conditions": [24, 1600, "v", 24000], "internal_node_id": "0.0-99.0", "trial": 3, "time_elapsed": 639152, "serialpos": 18, "key_press": -1, "wordID": 1124, "type": "PRES_VIS", "trial_index": 135}, "uniqueid": "MTK1453:3I0BTBYZAYS1DZHXH6ADONEPGQR0YN", "dateTime": 1515894357679}, {"current_trial": 136, "trialdata": {"rt": -1, "trial_type": "single-stim", "word": "space", "stimulus": "<p id=\"stim\">SPACE</p>", "conditions": [24, 1600, "v", 24000], "internal_node_id": "0.0-100.0", "trial": 3, "time_elapsed": 641892, "serialpos": 19, "key_press": -1, "wordID": 1344, "type": "PRES_VIS", "trial_index": 136}, "uniqueid": "MTK1453:3I0BTBYZAYS1DZHXH6ADONEPGQR0YN", "dateTime": 1515894360419}, {"current_trial": 137, "trialdata": {"rt": -1, "trial_type": "single-stim", "word": "lily", "stimulus": "<p id=\"stim\">LILY</p>", "conditions": [24, 1600, "v", 24000], "internal_node_id": "0.0-101.0", "trial": 3, "time_elapsed": 644448, "serialpos": 20, "key_press": -1, "wordID": 820, "type": "PRES_VIS", "trial_index": 137}, "uniqueid": "MTK1453:3I0BTBYZAYS1DZHXH6ADONEPGQR0YN", "dateTime": 1515894362975}, {"current_trial": 138, "trialdata": {"rt": -1, "trial_type": "single-stim", "word": "novel", "stimulus": "<p id=\"stim\">NOVEL</p>", "conditions": [24, 1600, "v", 24000], "internal_node_id": "0.0-102.0", "trial": 3, "time_elapsed": 647042, "serialpos": 21, "key_press": -1, "wordID": 959, "type": "PRES_VIS", "trial_index": 138}, "uniqueid": "MTK1453:3I0BTBYZAYS1DZHXH6ADONEPGQR0YN", "dateTime": 1515894365569}, {"current_trial": 139, "trialdata": {"rt": -1, "trial_type": "single-stim", "word": "saddle", "stimulus": "<p id=\"stim\">SADDLE</p>", "conditions": [24, 1600, "v", 24000], "internal_node_id": "0.0-103.0", "trial": 3, "time_elapsed": 649564, "serialpos": 22, "key_press": -1, "wordID": 1220, "type": "PRES_VIS", "trial_index": 139}, "uniqueid": "MTK1453:3I0BTBYZAYS1DZHXH6ADONEPGQR0YN", "dateTime": 1515894368091}, {"current_trial": 140, "trialdata": {"rt": -1, "trial_type": "single-stim", "word": "queen", "stimulus": "<p id=\"stim\">QUEEN</p>", "conditions": [24, 1600, "v", 24000], "internal_node_id": "0.0-104.0", "trial": 3, "time_elapsed": 652001, "serialpos": 23, "key_press": -1, "wordID": 1148, "type": "PRES_VIS", "trial_index": 140}, "uniqueid": "MTK1453:3I0BTBYZAYS1DZHXH6ADONEPGQR0YN", "dateTime": 1515894370528}, {"current_trial": 141, "trialdata": {"rt": -1, "trial_type": "single-stim", "stimulus": "", "internal_node_id": "0.0-105.0-0.0", "time_elapsed": 654397, "key_press": -1, "type": "PRE_RECALL_DELAY", "trial_index": 141}, "uniqueid": "MTK1453:3I0BTBYZAYS1DZHXH6ADONEPGQR0YN", "dateTime": 1515894372924}, {"current_trial": 142, "trialdata": {"rt": -1000, "trial_type": "single-audio", "stimulus": "/static/audio/400Hz.wav", "internal_node_id": "0.0-106.0", "time_elapsed": 654900, "key_press": -1, "type": "PRE_RECALL_ALERT", "trial_index": 142}, "uniqueid": "MTK1453:3I0BTBYZAYS1DZHXH6ADONEPGQR0YN", "dateTime": 1515894373427}, {"current_trial": 143, "trialdata": {"rt": [2791, 5059, 7112, 9042, 13101, 21231, 28327, 33925, 35355], "recwords": ["catt", "smog", "ozone", "queen", "pizza", "cattle", "", "river", "lake"], "key_times": [1305, 1601, 1822, 1957, 2791, 3010, 3740, 4244, 4460, 4615, 4877, 5059, 6144, 6327, 6439, 6690, 6860, 7112, 8016, 8297, 8508, 8657, 8701, 9042, 9842, 10096, 10258, 10433, 10680, 13101, 19495, 19775, 19937, 20073, 20836, 20989, 21231, 28327, 32741, 32942, 33566, 33704, 33846, 33925, 34823, 34935, 35067, 35187, 35355], "trial_type": "free-recall", "conditions": [24, 1600, "v", 24000], "internal_node_id": "0.0-107.0-0.0", "key_presses": [67, 65, 84, 84, 186, 69, 8, 83, 77, 79, 71, 13, 79, 90, 79, 78, 69, 13, 81, 85, 69, 69, 78, 13, 80, 73, 90, 90, 65, 13, 67, 65, 84, 84, 76, 69, 13, 13, 82, 73, 86, 69, 82, 13, 76, 65, 75, 69, 13], "trial": 3, "time_elapsed": 714904, "type": "FREE_RECALL", "trial_index": 143}, "uniqueid": "MTK1453:3I0BTBYZAYS1DZHXH6ADONEPGQR0YN", "dateTime": 1515894433441}, {"current_trial": 144, "trialdata": {"rt": 2322, "trial_type": "text", "internal_node_id": "0.0-108.0", "time_elapsed": 719238, "key_press": 13, "type": "INSTRUCTIONS", "trial_index": 144}, "uniqueid": "MTK1453:3I0BTBYZAYS1DZHXH6ADONEPGQR0YN", "dateTime": 1515894437765}, {"current_trial": 145, "trialdata": {"rt": [3878, 6375, 10053], "trial_type": "math-distractor", "key_times": [2220, 2964, 3878, 5624, 6001, 6375, 9235, 9353, 10053], "responses": ["16", "13", "15"], "num2": [8, 5, 2, 5], "num3": [6, 4, 8, 9], "conditions": [24, 800, "v", 12000], "internal_node_id": "0.0-109.0", "key_presses": [49, 54, 13, 49, 51, 13, 49, 53, 13], "trial": 4, "time_elapsed": 733244, "type": "DISTRACTOR", "trial_index": 145, "num1": [2, 4, 5, 9]}, "uniqueid": "MTK1453:3I0BTBYZAYS1DZHXH6ADONEPGQR0YN", "dateTime": 1515894451772}, {"current_trial": 146, "trialdata": {"rt": -1, "trial_type": "single-stim", "stimulus": "<p id=\"stim\">10</p>", "internal_node_id": "0.0-110.0-0.0", "time_elapsed": 736246, "key_press": -1, "trial_index": 146}, "uniqueid": "MTK1453:3I0BTBYZAYS1DZHXH6ADONEPGQR0YN", "dateTime": 1515894454773}, {"current_trial": 147, "trialdata": {"rt": -1, "trial_type": "single-stim", "stimulus": "<p id=\"stim\">9</p>", "internal_node_id": "0.0-110.0-1.0", "time_elapsed": 737249, "key_press": -1, "trial_index": 147}, "uniqueid": "MTK1453:3I0BTBYZAYS1DZHXH6ADONEPGQR0YN", "dateTime": 1515894455776}, {"current_trial": 148, "trialdata": {"rt": -1, "trial_type": "single-stim", "stimulus": "<p id=\"stim\">8</p>", "internal_node_id": "0.0-110.0-2.0", "time_elapsed": 738252, "key_press": -1, "trial_index": 148}, "uniqueid": "MTK1453:3I0BTBYZAYS1DZHXH6ADONEPGQR0YN", "dateTime": 1515894456779}, {"current_trial": 149, "trialdata": {"rt": -1, "trial_type": "single-stim", "stimulus": "<p id=\"stim\">7</p>", "internal_node_id": "0.0-110.0-3.0", "time_elapsed": 739256, "key_press": -1, "trial_index": 149}, "uniqueid": "MTK1453:3I0BTBYZAYS1DZHXH6ADONEPGQR0YN", "dateTime": 1515894457784}, {"current_trial": 150, "trialdata": {"rt": -1, "trial_type": "single-stim", "stimulus": "<p id=\"stim\">6</p>", "internal_node_id": "0.0-110.0-4.0", "time_elapsed": 740259, "key_press": -1, "trial_index": 150}, "uniqueid": "MTK1453:3I0BTBYZAYS1DZHXH6ADONEPGQR0YN", "dateTime": 1515894458787}, {"current_trial": 151, "trialdata": {"rt": -1, "trial_type": "single-stim", "stimulus": "<p id=\"stim\">5</p>", "internal_node_id": "0.0-110.0-5.0", "time_elapsed": 741262, "key_press": -1, "trial_index": 151}, "uniqueid": "MTK1453:3I0BTBYZAYS1DZHXH6ADONEPGQR0YN", "dateTime": 1515894459789}, {"current_trial": 152, "trialdata": {"rt": -1, "trial_type": "single-stim", "stimulus": "<p id=\"stim\">4</p>", "internal_node_id": "0.0-110.0-6.0", "time_elapsed": 742264, "key_press": -1, "trial_index": 152}, "uniqueid": "MTK1453:3I0BTBYZAYS1DZHXH6ADONEPGQR0YN", "dateTime": 1515894460791}, {"current_trial": 153, "trialdata": {"rt": -1, "trial_type": "single-stim", "stimulus": "<p id=\"stim\">3</p>", "internal_node_id": "0.0-110.0-7.0", "time_elapsed": 743265, "key_press": -1, "trial_index": 153}, "uniqueid": "MTK1453:3I0BTBYZAYS1DZHXH6ADONEPGQR0YN", "dateTime": 1515894461793}, {"current_trial": 154, "trialdata": {"rt": -1, "trial_type": "single-stim", "stimulus": "<p id=\"stim\">2</p>", "internal_node_id": "0.0-110.0-8.0", "time_elapsed": 744269, "key_press": -1, "trial_index": 154}, "uniqueid": "MTK1453:3I0BTBYZAYS1DZHXH6ADONEPGQR0YN", "dateTime": 1515894462796}, {"current_trial": 155, "trialdata": {"rt": -1, "trial_type": "single-stim", "stimulus": "<p id=\"stim\">1</p>", "internal_node_id": "0.0-110.0-9.0", "time_elapsed": 745270, "key_press": -1, "trial_index": 155}, "uniqueid": "MTK1453:3I0BTBYZAYS1DZHXH6ADONEPGQR0YN", "dateTime": 1515894463797}, {"current_trial": 156, "trialdata": {"rt": -1, "trial_type": "single-stim", "stimulus": "<p id=\"stim\">+</p>", "internal_node_id": "0.0-111.0-0.0", "time_elapsed": 746772, "key_press": -1, "type": "FIXATION", "trial_index": 156}, "uniqueid": "MTK1453:3I0BTBYZAYS1DZHXH6ADONEPGQR0YN", "dateTime": 1515894465299}, {"current_trial": 157, "trialdata": {"rt": -1, "trial_type": "single-stim", "word": "plate", "stimulus": "<p id=\"stim\">PLATE</p>", "conditions": [24, 800, "v", 12000], "internal_node_id": "0.0-112.0", "trial": 4, "time_elapsed": 747577, "serialpos": 0, "key_press": -1, "wordID": 1085, "type": "PRES_VIS", "trial_index": 157}, "uniqueid": "MTK1453:3I0BTBYZAYS1DZHXH6ADONEPGQR0YN", "dateTime": 1515894466104}, {"current_trial": 158, "trialdata": {"rt": -1, "trial_type": "single-stim", "word": "office", "stimulus": "<p id=\"stim\">OFFICE</p>", "conditions": [24, 800, "v", 12000], "internal_node_id": "0.0-113.0", "trial": 4, "time_elapsed": 749185, "serialpos": 1, "key_press": -1, "wordID": 971, "type": "PRES_VIS", "trial_index": 158}, "uniqueid": "MTK1453:3I0BTBYZAYS1DZHXH6ADONEPGQR0YN", "dateTime": 1515894467713}, {"current_trial": 159, "trialdata": {"rt": -1, "trial_type": "single-stim", "word": "shirt", "stimulus": "<p id=\"stim\">SHIRT</p>", "conditions": [24, 800, "v", 12000], "internal_node_id": "0.0-114.0", "trial": 4, "time_elapsed": 751060, "serialpos": 2, "key_press": -1, "wordID": 1286, "type": "PRES_VIS", "trial_index": 159}, "uniqueid": "MTK1453:3I0BTBYZAYS1DZHXH6ADONEPGQR0YN", "dateTime": 1515894469587}, {"current_trial": 160, "trialdata": {"rt": -1, "trial_type": "single-stim", "word": "friend", "stimulus": "<p id=\"stim\">FRIEND</p>", "conditions": [24, 800, "v", 12000], "internal_node_id": "0.0-115.0", "trial": 4, "time_elapsed": 752707, "serialpos": 3, "key_press": -1, "wordID": 605, "type": "PRES_VIS", "trial_index": 160}, "uniqueid": "MTK1453:3I0BTBYZAYS1DZHXH6ADONEPGQR0YN", "dateTime": 1515894471234}, {"current_trial": 161, "trialdata": {"rt": -1, "trial_type": "single-stim", "word": "wife", "stimulus": "<p id=\"stim\">WIFE</p>", "conditions": [24, 800, "v", 12000], "internal_node_id": "0.0-116.0", "trial": 4, "time_elapsed": 754416, "serialpos": 4, "key_press": -1, "wordID": 1608, "type": "PRES_VIS", "trial_index": 161}, "uniqueid": "MTK1453:3I0BTBYZAYS1DZHXH6ADONEPGQR0YN", "dateTime": 1515894472943}, {"current_trial": 162, "trialdata": {"rt": -1, "trial_type": "single-stim", "word": "message", "stimulus": "<p id=\"stim\">MESSAGE</p>", "conditions": [24, 800, "v", 12000], "internal_node_id": "0.0-117.0", "trial": 4, "time_elapsed": 756172, "serialpos": 5, "key_press": -1, "wordID": 887, "type": "PRES_VIS", "trial_index": 162}, "uniqueid": "MTK1453:3I0BTBYZAYS1DZHXH6ADONEPGQR0YN", "dateTime": 1515894474699}, {"current_trial": 163, "trialdata": {"rt": -1, "trial_type": "single-stim", "word": "napkin", "stimulus": "<p id=\"stim\">NAPKIN</p>", "conditions": [24, 800, "v", 12000], "internal_node_id": "0.0-118.0", "trial": 4, "time_elapsed": 757786, "serialpos": 6, "key_press": -1, "wordID": 936, "type": "PRES_VIS", "trial_index": 163}, "uniqueid": "MTK1453:3I0BTBYZAYS1DZHXH6ADONEPGQR0YN", "dateTime": 1515894476313}, {"current_trial": 164, "trialdata": {"rt": -1, "trial_type": "single-stim", "word": "tablet", "stimulus": "<p id=\"stim\">TABLET</p>", "conditions": [24, 800, "v", 12000], "internal_node_id": "0.0-119.0", "trial": 4, "time_elapsed": 759724, "serialpos": 7, "key_press": -1, "wordID": 1426, "type": "PRES_VIS", "trial_index": 164}, "uniqueid": "MTK1453:3I0BTBYZAYS1DZHXH6ADONEPGQR0YN", "dateTime": 1515894478251}, {"current_trial": 165, "trialdata": {"rt": -1, "trial_type": "single-stim", "word": "headband", "stimulus": "<p id=\"stim\">HEADBAND</p>", "conditions": [24, 800, "v", 12000], "internal_node_id": "0.0-120.0", "trial": 4, "time_elapsed": 761534, "serialpos": 8, "key_press": -1, "wordID": 695, "type": "PRES_VIS", "trial_index": 165}, "uniqueid": "MTK1453:3I0BTBYZAYS1DZHXH6ADONEPGQR0YN", "dateTime": 1515894480061}, {"current_trial": 166, "trialdata": {"rt": -1, "trial_type": "single-stim", "word": "rocket", "stimulus": "<p id=\"stim\">ROCKET</p>", "conditions": [24, 800, "v", 12000], "internal_node_id": "0.0-121.0", "trial": 4, "time_elapsed": 763373, "serialpos": 9, "key_press": -1, "wordID": 1201, "type": "PRES_VIS", "trial_index": 166}, "uniqueid": "MTK1453:3I0BTBYZAYS1DZHXH6ADONEPGQR0YN", "dateTime": 1515894481901}, {"current_trial": 167, "trialdata": {"rt": -1, "trial_type": "single-stim", "word": "costume", "stimulus": "<p id=\"stim\">COSTUME</p>", "conditions": [24, 800, "v", 12000], "internal_node_id": "0.0-122.0", "trial": 4, "time_elapsed": 765143, "serialpos": 10, "key_press": -1, "wordID": 382, "type": "PRES_VIS", "trial_index": 167}, "uniqueid": "MTK1453:3I0BTBYZAYS1DZHXH6ADONEPGQR0YN", "dateTime": 1515894483670}, {"current_trial": 168, "trialdata": {"rt": -1, "trial_type": "single-stim", "word": "portrait", "stimulus": "<p id=\"stim\">PORTRAIT</p>", "conditions": [24, 800, "v", 12000], "internal_node_id": "0.0-123.0", "trial": 4, "time_elapsed": 766936, "serialpos": 11, "key_press": -1, "wordID": 1110, "type": "PRES_VIS", "trial_index": 168}, "uniqueid": "MTK1453:3I0BTBYZAYS1DZHXH6ADONEPGQR0YN", "dateTime": 1515894485463}, {"current_trial": 169, "trialdata": {"rt": -1, "trial_type": "single-stim", "word": "hedge", "stimulus": "<p id=\"stim\">HEDGE</p>", "conditions": [24, 800, "v", 12000], "internal_node_id": "0.0-124.0", "trial": 4, "time_elapsed": 768811, "serialpos": 12, "key_press": -1, "wordID": 698, "type": "PRES_VIS", "trial_index": 169}, "uniqueid": "MTK1453:3I0BTBYZAYS1DZHXH6ADONEPGQR0YN", "dateTime": 1515894487338}, {"current_trial": 170, "trialdata": {"rt": -1, "trial_type": "single-stim", "word": "crib", "stimulus": "<p id=\"stim\">CRIB</p>", "conditions": [24, 800, "v", 12000], "internal_node_id": "0.0-125.0", "trial": 4, "time_elapsed": 770711, "serialpos": 13, "key_press": -1, "wordID": 406, "type": "PRES_VIS", "trial_index": 170}, "uniqueid": "MTK1453:3I0BTBYZAYS1DZHXH6ADONEPGQR0YN", "dateTime": 1515894489238}, {"current_trial": 171, "trialdata": {"rt": -1, "trial_type": "single-stim", "word": "scalpel", "stimulus": "<p id=\"stim\">SCALPEL</p>", "conditions": [24, 800, "v", 12000], "internal_node_id": "0.0-126.0", "trial": 4, "time_elapsed": 772533, "serialpos": 14, "key_press": -1, "wordID": 1242, "type": "PRES_VIS", "trial_index": 171}, "uniqueid": "MTK1453:3I0BTBYZAYS1DZHXH6ADONEPGQR0YN", "dateTime": 1515894491060}, {"current_trial": 172, "trialdata": {"rt": -1, "trial_type": "single-stim", "word": "scissors", "stimulus": "<p id=\"stim\">SCISSORS</p>", "conditions": [24, 800, "v", 12000], "internal_node_id": "0.0-127.0", "trial": 4, "time_elapsed": 774318, "serialpos": 15, "key_press": -1, "wordID": 1249, "type": "PRES_VIS", "trial_index": 172}, "uniqueid": "MTK1453:3I0BTBYZAYS1DZHXH6ADONEPGQR0YN", "dateTime": 1515894492845}, {"current_trial": 173, "trialdata": {"rt": -1, "trial_type": "single-stim", "word": "rabbit", "stimulus": "<p id=\"stim\">RABBIT</p>", "conditions": [24, 800, "v", 12000], "internal_node_id": "0.0-128.0", "trial": 4, "time_elapsed": 776275, "serialpos": 16, "key_press": -1, "wordID": 1151, "type": "PRES_VIS", "trial_index": 173}, "uniqueid": "MTK1453:3I0BTBYZAYS1DZHXH6ADONEPGQR0YN", "dateTime": 1515894494803}, {"current_trial": 174, "trialdata": {"rt": -1, "trial_type": "single-stim", "word": "primate", "stimulus": "<p id=\"stim\">PRIMATE</p>", "conditions": [24, 800, "v", 12000], "internal_node_id": "0.0-129.0", "trial": 4, "time_elapsed": 778184, "serialpos": 17, "key_press": -1, "wordID": 1122, "type": "PRES_VIS", "trial_index": 174}, "uniqueid": "MTK1453:3I0BTBYZAYS1DZHXH6ADONEPGQR0YN", "dateTime": 1515894496712}, {"current_trial": 175, "trialdata": {"rt": -1, "trial_type": "single-stim", "word": "hound", "stimulus": "<p id=\"stim\">HOUND</p>", "conditions": [24, 800, "v", 12000], "internal_node_id": "0.0-130.0", "trial": 4, "time_elapsed": 779935, "serialpos": 18, "key_press": -1, "wordID": 723, "type": "PRES_VIS", "trial_index": 175}, "uniqueid": "MTK1453:3I0BTBYZAYS1DZHXH6ADONEPGQR0YN", "dateTime": 1515894498462}, {"current_trial": 176, "trialdata": {"rt": -1, "trial_type": "single-stim", "word": "infant", "stimulus": "<p id=\"stim\">INFANT</p>", "conditions": [24, 800, "v", 12000], "internal_node_id": "0.0-131.0", "trial": 4, "time_elapsed": 781700, "serialpos": 19, "key_press": -1, "wordID": 736, "type": "PRES_VIS", "trial_index": 176}, "uniqueid": "MTK1453:3I0BTBYZAYS1DZHXH6ADONEPGQR0YN", "dateTime": 1515894500228}, {"current_trial": 177, "trialdata": {"rt": -1, "trial_type": "single-stim", "word": "concert", "stimulus": "<p id=\"stim\">CONCERT</p>", "conditions": [24, 800, "v", 12000], "internal_node_id": "0.0-132.0", "trial": 4, "time_elapsed": 783354, "serialpos": 20, "key_press": -1, "wordID": 359, "type": "PRES_VIS", "trial_index": 177}, "uniqueid": "MTK1453:3I0BTBYZAYS1DZHXH6ADONEPGQR0YN", "dateTime": 1515894501881}, {"current_trial": 178, "trialdata": {"rt": -1, "trial_type": "single-stim", "word": "apple", "stimulus": "<p id=\"stim\">APPLE</p>", "conditions": [24, 800, "v", 12000], "internal_node_id": "0.0-133.0", "trial": 4, "time_elapsed": 785257, "serialpos": 21, "key_press": -1, "wordID": 32, "type": "PRES_VIS", "trial_index": 178}, "uniqueid": "MTK1453:3I0BTBYZAYS1DZHXH6ADONEPGQR0YN", "dateTime": 1515894503784}, {"current_trial": 179, "trialdata": {"rt": -1, "trial_type": "single-stim", "word": "carriage", "stimulus": "<p id=\"stim\">CARRIAGE</p>", "conditions": [24, 800, "v", 12000], "internal_node_id": "0.0-134.0", "trial": 4, "time_elapsed": 787155, "serialpos": 22, "key_press": -1, "wordID": 247, "type": "PRES_VIS", "trial_index": 179}, "uniqueid": "MTK1453:3I0BTBYZAYS1DZHXH6ADONEPGQR0YN", "dateTime": 1515894505682}, {"current_trial": 180, "trialdata": {"rt": -1, "trial_type": "single-stim", "word": "relish", "stimulus": "<p id=\"stim\">RELISH</p>", "conditions": [24, 800, "v", 12000], "internal_node_id": "0.0-135.0", "trial": 4, "time_elapsed": 789088, "serialpos": 23, "key_press": -1, "wordID": 1182, "type": "PRES_VIS", "trial_index": 180}, "uniqueid": "MTK1453:3I0BTBYZAYS1DZHXH6ADONEPGQR0YN", "dateTime": 1515894507615}, {"current_trial": 181, "trialdata": {"rt": -1, "trial_type": "single-stim", "stimulus": "", "internal_node_id": "0.0-136.0-0.0", "time_elapsed": 791463, "key_press": -1, "type": "PRE_RECALL_DELAY", "trial_index": 181}, "uniqueid": "MTK1453:3I0BTBYZAYS1DZHXH6ADONEPGQR0YN", "dateTime": 1515894509990}, {"current_trial": 182, "trialdata": {"rt": -1000, "trial_type": "single-audio", "stimulus": "/static/audio/400Hz.wav", "internal_node_id": "0.0-137.0", "time_elapsed": 791967, "key_press": -1, "type": "PRE_RECALL_ALERT", "trial_index": 182}, "uniqueid": "MTK1453:3I0BTBYZAYS1DZHXH6ADONEPGQR0YN", "dateTime": 1515894510494}, {"current_trial": 183, "trialdata": {"rt": [3471, 6207, 7441, 9987, 11857], "recwords": ["friend", "message", "wife", "concert", "infant"], "key_times": [1497, 1703, 1918, 2062, 2162, 3157, 3471, 4220, 4364, 4581, 4733, 5212, 5384, 5502, 6207, 6543, 6925, 7116, 7304, 7441, 8108, 8191, 8401, 8496, 8798, 9024, 9824, 9987, 10761, 10901, 11081, 11312, 11442, 11619, 11857], "trial_type": "free-recall", "conditions": [24, 800, "v", 12000], "internal_node_id": "0.0-138.0-0.0", "key_presses": [70, 82, 73, 69, 78, 68, 13, 77, 69, 83, 83, 65, 71, 69, 13, 87, 73, 70, 69, 13, 67, 79, 78, 67, 69, 82, 84, 13, 73, 78, 70, 65, 78, 84, 13], "trial": 4, "time_elapsed": 851970, "type": "FREE_RECALL", "trial_index": 183}, "uniqueid": "MTK1453:3I0BTBYZAYS1DZHXH6ADONEPGQR0YN", "dateTime": 1515894570506}, {"current_trial": 184, "trialdata": {"rt": 16700, "trial_type": "text", "internal_node_id": "0.0-139.0", "time_elapsed": 870681, "key_press": 222, "type": "INSTRUCTIONS", "trial_index": 184}, "uniqueid": "MTK1453:3I0BTBYZAYS1DZHXH6ADONEPGQR0YN", "dateTime": 1515894589208}, {"current_trial": 185, "trialdata": {"rt": [2338, 5080, 7754, 9434, 11603], "trial_type": "math-distractor", "key_times": [1893, 2082, 2338, 4304, 4432, 5080, 7167, 7232, 7754, 9152, 9357, 9434, 11332, 11498, 11603], "responses": ["12", "14", "14", "12", "23"], "num2": [2, 8, 9, 1, 6, 8], "num3": [1, 3, 4, 7, 9, 8], "conditions": [12, 1600, "v", 12000], "internal_node_id": "0.0-140.0", "key_presses": [49, 50, 13, 49, 52, 13, 49, 52, 13, 49, 50, 13, 50, 51, 13], "trial": 5, "time_elapsed": 884689, "type": "DISTRACTOR", "trial_index": 185, "num1": [9, 3, 1, 4, 8, 9]}, "uniqueid": "MTK1453:3I0BTBYZAYS1DZHXH6ADONEPGQR0YN", "dateTime": 1515894603216}, {"current_trial": 186, "trialdata": {"rt": -1, "trial_type": "single-stim", "stimulus": "<p id=\"stim\">10</p>", "internal_node_id": "0.0-141.0-0.0", "time_elapsed": 887697, "key_press": -1, "trial_index": 186}, "uniqueid": "MTK1453:3I0BTBYZAYS1DZHXH6ADONEPGQR0YN", "dateTime": 1515894606224}, {"current_trial": 187, "trialdata": {"rt": -1, "trial_type": "single-stim", "stimulus": "<p id=\"stim\">9</p>", "internal_node_id": "0.0-141.0-1.0", "time_elapsed": 888702, "key_press": -1, "trial_index": 187}, "uniqueid": "MTK1453:3I0BTBYZAYS1DZHXH6ADONEPGQR0YN", "dateTime": 1515894607229}, {"current_trial": 188, "trialdata": {"rt": -1, "trial_type": "single-stim", "stimulus": "<p id=\"stim\">8</p>", "internal_node_id": "0.0-141.0-2.0", "time_elapsed": 889704, "key_press": -1, "trial_index": 188}, "uniqueid": "MTK1453:3I0BTBYZAYS1DZHXH6ADONEPGQR0YN", "dateTime": 1515894608232}, {"current_trial": 189, "trialdata": {"rt": -1, "trial_type": "single-stim", "stimulus": "<p id=\"stim\">7</p>", "internal_node_id": "0.0-141.0-3.0", "time_elapsed": 890710, "key_press": -1, "trial_index": 189}, "uniqueid": "MTK1453:3I0BTBYZAYS1DZHXH6ADONEPGQR0YN", "dateTime": 1515894609237}, {"current_trial": 190, "trialdata": {"rt": -1, "trial_type": "single-stim", "stimulus": "<p id=\"stim\">6</p>", "internal_node_id": "0.0-141.0-4.0", "time_elapsed": 891712, "key_press": -1, "trial_index": 190}, "uniqueid": "MTK1453:3I0BTBYZAYS1DZHXH6ADONEPGQR0YN", "dateTime": 1515894610239}, {"current_trial": 191, "trialdata": {"rt": -1, "trial_type": "single-stim", "stimulus": "<p id=\"stim\">5</p>", "internal_node_id": "0.0-141.0-5.0", "time_elapsed": 892714, "key_press": -1, "trial_index": 191}, "uniqueid": "MTK1453:3I0BTBYZAYS1DZHXH6ADONEPGQR0YN", "dateTime": 1515894611241}, {"current_trial": 192, "trialdata": {"rt": -1, "trial_type": "single-stim", "stimulus": "<p id=\"stim\">4</p>", "internal_node_id": "0.0-141.0-6.0", "time_elapsed": 893716, "key_press": -1, "trial_index": 192}, "uniqueid": "MTK1453:3I0BTBYZAYS1DZHXH6ADONEPGQR0YN", "dateTime": 1515894612244}, {"current_trial": 193, "trialdata": {"rt": -1, "trial_type": "single-stim", "stimulus": "<p id=\"stim\">3</p>", "internal_node_id": "0.0-141.0-7.0", "time_elapsed": 894721, "key_press": -1, "trial_index": 193}, "uniqueid": "MTK1453:3I0BTBYZAYS1DZHXH6ADONEPGQR0YN", "dateTime": 1515894613248}, {"current_trial": 194, "trialdata": {"rt": -1, "trial_type": "single-stim", "stimulus": "<p id=\"stim\">2</p>", "internal_node_id": "0.0-141.0-8.0", "time_elapsed": 895725, "key_press": -1, "trial_index": 194}, "uniqueid": "MTK1453:3I0BTBYZAYS1DZHXH6ADONEPGQR0YN", "dateTime": 1515894614252}, {"current_trial": 195, "trialdata": {"rt": -1, "trial_type": "single-stim", "stimulus": "<p id=\"stim\">1</p>", "internal_node_id": "0.0-141.0-9.0", "time_elapsed": 896726, "key_press": -1, "trial_index": 195}, "uniqueid": "MTK1453:3I0BTBYZAYS1DZHXH6ADONEPGQR0YN", "dateTime": 1515894615254}, {"current_trial": 196, "trialdata": {"rt": -1, "trial_type": "single-stim", "stimulus": "<p id=\"stim\">+</p>", "internal_node_id": "0.0-142.0-0.0", "time_elapsed": 898231, "key_press": -1, "type": "FIXATION", "trial_index": 196}, "uniqueid": "MTK1453:3I0BTBYZAYS1DZHXH6ADONEPGQR0YN", "dateTime": 1515894616758}, {"current_trial": 197, "trialdata": {"rt": -1, "trial_type": "single-stim", "word": "police", "stimulus": "<p id=\"stim\">POLICE</p>", "conditions": [12, 1600, "v", 12000], "internal_node_id": "0.0-143.0", "trial": 5, "time_elapsed": 899834, "serialpos": 0, "key_press": -1, "wordID": 1097, "type": "PRES_VIS", "trial_index": 197}, "uniqueid": "MTK1453:3I0BTBYZAYS1DZHXH6ADONEPGQR0YN", "dateTime": 1515894618361}, {"current_trial": 198, "trialdata": {"rt": -1, "trial_type": "single-stim", "word": "rust", "stimulus": "<p id=\"stim\">RUST</p>", "conditions": [12, 1600, "v", 12000], "internal_node_id": "0.0-144.0", "trial": 5, "time_elapsed": 902421, "serialpos": 1, "key_press": -1, "wordID": 1218, "type": "PRES_VIS", "trial_index": 198}, "uniqueid": "MTK1453:3I0BTBYZAYS1DZHXH6ADONEPGQR0YN", "dateTime": 1515894620948}, {"current_trial": 199, "trialdata": {"rt": -1, "trial_type": "single-stim", "word": "slide", "stimulus": "<p id=\"stim\">SLIDE</p>", "conditions": [12, 1600, "v", 12000], "internal_node_id": "0.0-145.0", "trial": 5, "time_elapsed": 904881, "serialpos": 2, "key_press": -1, "wordID": 1325, "type": "PRES_VIS", "trial_index": 199}, "uniqueid": "MTK1453:3I0BTBYZAYS1DZHXH6ADONEPGQR0YN", "dateTime": 1515894623408}, {"current_trial": 200, "trialdata": {"rt": -1, "trial_type": "single-stim", "word": "sword", "stimulus": "<p id=\"stim\">SWORD</p>", "conditions": [12, 1600, "v", 12000], "internal_node_id": "0.0-146.0", "trial": 5, "time_elapsed": 907543, "serialpos": 3, "key_press": -1, "wordID": 1422, "type": "PRES_VIS", "trial_index": 200}, "uniqueid": "MTK1453:3I0BTBYZAYS1DZHXH6ADONEPGQR0YN", "dateTime": 1515894626071}, {"current_trial": 201, "trialdata": {"rt": -1, "trial_type": "single-stim", "word": "zipper", "stimulus": "<p id=\"stim\">ZIPPER</p>", "conditions": [12, 1600, "v", 12000], "internal_node_id": "0.0-147.0", "trial": 5, "time_elapsed": 910155, "serialpos": 4, "key_press": -1, "wordID": 1635, "type": "PRES_VIS", "trial_index": 201}, "uniqueid": "MTK1453:3I0BTBYZAYS1DZHXH6ADONEPGQR0YN", "dateTime": 1515894628682}, {"current_trial": 202, "trialdata": {"rt": -1, "trial_type": "single-stim", "word": "pork", "stimulus": "<p id=\"stim\">PORK</p>", "conditions": [12, 1600, "v", 12000], "internal_node_id": "0.0-148.0", "trial": 5, "time_elapsed": 912781, "serialpos": 5, "key_press": -1, "wordID": 1107, "type": "PRES_VIS", "trial_index": 202}, "uniqueid": "MTK1453:3I0BTBYZAYS1DZHXH6ADONEPGQR0YN", "dateTime": 1515894631308}, {"current_trial": 203, "trialdata": {"rt": -1, "trial_type": "single-stim", "word": "sausage", "stimulus": "<p id=\"stim\">SAUSAGE</p>", "conditions": [12, 1600, "v", 12000], "internal_node_id": "0.0-149.0", "trial": 5, "time_elapsed": 915279, "serialpos": 6, "key_press": -1, "wordID": 1237, "type": "PRES_VIS", "trial_index": 203}, "uniqueid": "MTK1453:3I0BTBYZAYS1DZHXH6ADONEPGQR0YN", "dateTime": 1515894633807}, {"current_trial": 204, "trialdata": {"rt": -1, "trial_type": "single-stim", "word": "shelf", "stimulus": "<p id=\"stim\">SHELF</p>", "conditions": [12, 1600, "v", 12000], "internal_node_id": "0.0-150.0", "trial": 5, "time_elapsed": 917913, "serialpos": 7, "key_press": -1, "wordID": 1279, "type": "PRES_VIS", "trial_index": 204}, "uniqueid": "MTK1453:3I0BTBYZAYS1DZHXH6ADONEPGQR0YN", "dateTime": 1515894636440}, {"current_trial": 205, "trialdata": {"rt": -1, "trial_type": "single-stim", "word": "grape", "stimulus": "<p id=\"stim\">GRAPE</p>", "conditions": [12, 1600, "v", 12000], "internal_node_id": "0.0-151.0", "trial": 5, "time_elapsed": 920542, "serialpos": 8, "key_press": -1, "wordID": 653, "type": "PRES_VIS", "trial_index": 205}, "uniqueid": "MTK1453:3I0BTBYZAYS1DZHXH6ADONEPGQR0YN", "dateTime": 1515894639070}, {"current_trial": 206, "trialdata": {"rt": -1, "trial_type": "single-stim", "word": "server", "stimulus": "<p id=\"stim\">SERVER</p>", "conditions": [12, 1600, "v", 12000], "internal_node_id": "0.0-152.0", "trial": 5, "time_elapsed": 923262, "serialpos": 9, "key_press": -1, "wordID": 1271, "type": "PRES_VIS", "trial_index": 206}, "uniqueid": "MTK1453:3I0BTBYZAYS1DZHXH6ADONEPGQR0YN", "dateTime": 1515894641789}, {"current_trial": 207, "trialdata": {"rt": -1, "trial_type": "single-stim", "word": "captive", "stimulus": "<p id=\"stim\">CAPTIVE</p>", "conditions": [12, 1600, "v", 12000], "internal_node_id": "0.0-153.0", "trial": 5, "time_elapsed": 925904, "serialpos": 10, "key_press": -1, "wordID": 239, "type": "PRES_VIS", "trial_index": 207}, "uniqueid": "MTK1453:3I0BTBYZAYS1DZHXH6ADONEPGQR0YN", "dateTime": 1515894644432}, {"current_trial": 208, "trialdata": {"rt": -1, "trial_type": "single-stim", "word": "citrus", "stimulus": "<p id=\"stim\">CITRUS</p>", "conditions": [12, 1600, "v", 12000], "internal_node_id": "0.0-154.0", "trial": 5, "time_elapsed": 928477, "serialpos": 11, "key_press": -1, "wordID": 312, "type": "PRES_VIS", "trial_index": 208}, "uniqueid": "MTK1453:3I0BTBYZAYS1DZHXH6ADONEPGQR0YN", "dateTime": 1515894647005}, {"current_trial": 209, "trialdata": {"rt": -1, "trial_type": "single-stim", "stimulus": "", "internal_node_id": "0.0-155.0-0.0", "time_elapsed": 930647, "key_press": -1, "type": "PRE_RECALL_DELAY", "trial_index": 209}, "uniqueid": "MTK1453:3I0BTBYZAYS1DZHXH6ADONEPGQR0YN", "dateTime": 1515894649175}, {"current_trial": 210, "trialdata": {"rt": -1000, "trial_type": "single-audio", "stimulus": "/static/audio/400Hz.wav", "internal_node_id": "0.0-156.0", "time_elapsed": 931152, "key_press": -1, "type": "PRE_RECALL_ALERT", "trial_index": 210}, "uniqueid": "MTK1453:3I0BTBYZAYS1DZHXH6ADONEPGQR0YN", "dateTime": 1515894649679}, {"current_trial": 211, "trialdata": {"rt": [3258, 4892, 6181, 8026, 10961, 16141], "recwords": ["police", "slice", "sword", "captive", "citrus", ""], "key_times": [2128, 2310, 2456, 2640, 2868, 3103, 3258, 4001, 4161, 4353, 4501, 4704, 4892, 5212, 5393, 5594, 5873, 6050, 6181, 6619, 6934, 7223, 7403, 7565, 7666, 7880, 8026, 8630, 8864, 9128, 9773, 9879, 10014, 10961, 15892, 16141], "trial_type": "free-recall", "conditions": [12, 1600, "v", 12000], "internal_node_id": "0.0-157.0-0.0", "key_presses": [80, 79, 76, 73, 67, 69, 13, 83, 76, 73, 67, 69, 13, 83, 87, 79, 82, 68, 13, 67, 65, 80, 84, 73, 86, 69, 13, 67, 73, 84, 82, 85, 83, 13, 16, 13], "trial": 5, "time_elapsed": 991157, "type": "FREE_RECALL", "trial_index": 211}, "uniqueid": "MTK1453:3I0BTBYZAYS1DZHXH6ADONEPGQR0YN", "dateTime": 1515894709693}, {"current_trial": 212, "trialdata": {"rt": 5459, "trial_type": "text", "internal_node_id": "0.0-158.0", "time_elapsed": 998629, "key_press": 13, "type": "INSTRUCTIONS", "trial_index": 212}, "uniqueid": "MTK1453:3I0BTBYZAYS1DZHXH6ADONEPGQR0YN", "dateTime": 1515894717156}, {"current_trial": 213, "trialdata": {"rt": [4337, 7713, 13420, 15870, 18188, 19860, 22158], "trial_type": "math-distractor", "key_times": [3987, 4217, 4337, 6108, 7511, 7713, 12839, 13284, 13420, 15733, 15870, 17334, 17846, 18188, 19613, 19795, 19860, 21771, 21875, 22158, 23797], "responses": ["21", "15", "15", "6", "10", "12", "19"], "num2": [5, 6, 8, 1, 8, 2, 5, 8], "num3": [9, 5, 1, 2, 1, 9, 5, 4], "conditions": [24, 800, "v", 24000], "internal_node_id": "0.0-159.0", "key_presses": [50, 49, 13, 49, 53, 13, 49, 53, 13, 54, 13, 49, 48, 13, 49, 50, 13, 49, 57, 13, 49], "trial": 6, "time_elapsed": 1024640, "type": "DISTRACTOR", "trial_index": 213, "num1": [7, 4, 6, 3, 2, 1, 9, 1]}, "uniqueid": "MTK1453:3I0BTBYZAYS1DZHXH6ADONEPGQR0YN", "dateTime": 1515894743168}, {"current_trial": 214, "trialdata": {"rt": -1, "trial_type": "single-stim", "stimulus": "<p id=\"stim\">10</p>", "internal_node_id": "0.0-160.0-0.0", "time_elapsed": 1027644, "key_press": -1, "trial_index": 214}, "uniqueid": "MTK1453:3I0BTBYZAYS1DZHXH6ADONEPGQR0YN", "dateTime": 1515894746171}, {"current_trial": 215, "trialdata": {"rt": -1, "trial_type": "single-stim", "stimulus": "<p id=\"stim\">9</p>", "internal_node_id": "0.0-160.0-1.0", "time_elapsed": 1028647, "key_press": -1, "trial_index": 215}, "uniqueid": "MTK1453:3I0BTBYZAYS1DZHXH6ADONEPGQR0YN", "dateTime": 1515894747174}, {"current_trial": 216, "trialdata": {"rt": -1, "trial_type": "single-stim", "stimulus": "<p id=\"stim\">8</p>", "internal_node_id": "0.0-160.0-2.0", "time_elapsed": 1029651, "key_press": -1, "trial_index": 216}, "uniqueid": "MTK1453:3I0BTBYZAYS1DZHXH6ADONEPGQR0YN", "dateTime": 1515894748178}, {"current_trial": 217, "trialdata": {"rt": -1, "trial_type": "single-stim", "stimulus": "<p id=\"stim\">7</p>", "internal_node_id": "0.0-160.0-3.0", "time_elapsed": 1030656, "key_press": -1, "trial_index": 217}, "uniqueid": "MTK1453:3I0BTBYZAYS1DZHXH6ADONEPGQR0YN", "dateTime": 1515894749183}, {"current_trial": 218, "trialdata": {"rt": -1, "trial_type": "single-stim", "stimulus": "<p id=\"stim\">6</p>", "internal_node_id": "0.0-160.0-4.0", "time_elapsed": 1031660, "key_press": -1, "trial_index": 218}, "uniqueid": "MTK1453:3I0BTBYZAYS1DZHXH6ADONEPGQR0YN", "dateTime": 1515894750187}, {"current_trial": 219, "trialdata": {"rt": -1, "trial_type": "single-stim", "stimulus": "<p id=\"stim\">5</p>", "internal_node_id": "0.0-160.0-5.0", "time_elapsed": 1032665, "key_press": -1, "trial_index": 219}, "uniqueid": "MTK1453:3I0BTBYZAYS1DZHXH6ADONEPGQR0YN", "dateTime": 1515894751192}, {"current_trial": 220, "trialdata": {"rt": -1, "trial_type": "single-stim", "stimulus": "<p id=\"stim\">4</p>", "internal_node_id": "0.0-160.0-6.0", "time_elapsed": 1033669, "key_press": -1, "trial_index": 220}, "uniqueid": "MTK1453:3I0BTBYZAYS1DZHXH6ADONEPGQR0YN", "dateTime": 1515894752197}, {"current_trial": 221, "trialdata": {"rt": -1, "trial_type": "single-stim", "stimulus": "<p id=\"stim\">3</p>", "internal_node_id": "0.0-160.0-7.0", "time_elapsed": 1034671, "key_press": -1, "trial_index": 221}, "uniqueid": "MTK1453:3I0BTBYZAYS1DZHXH6ADONEPGQR0YN", "dateTime": 1515894753198}, {"current_trial": 222, "trialdata": {"rt": -1, "trial_type": "single-stim", "stimulus": "<p id=\"stim\">2</p>", "internal_node_id": "0.0-160.0-8.0", "time_elapsed": 1035674, "key_press": -1, "trial_index": 222}, "uniqueid": "MTK1453:3I0BTBYZAYS1DZHXH6ADONEPGQR0YN", "dateTime": 1515894754202}, {"current_trial": 223, "trialdata": {"rt": -1, "trial_type": "single-stim", "stimulus": "<p id=\"stim\">1</p>", "internal_node_id": "0.0-160.0-9.0", "time_elapsed": 1036678, "key_press": -1, "trial_index": 223}, "uniqueid": "MTK1453:3I0BTBYZAYS1DZHXH6ADONEPGQR0YN", "dateTime": 1515894755205}, {"current_trial": 224, "trialdata": {"rt": -1, "trial_type": "single-stim", "stimulus": "<p id=\"stim\">+</p>", "internal_node_id": "0.0-161.0-0.0", "time_elapsed": 1038183, "key_press": -1, "type": "FIXATION", "trial_index": 224}, "uniqueid": "MTK1453:3I0BTBYZAYS1DZHXH6ADONEPGQR0YN", "dateTime": 1515894756710}, {"current_trial": 225, "trialdata": {"rt": -1, "trial_type": "single-stim", "word": "motel", "stimulus": "<p id=\"stim\">MOTEL</p>", "conditions": [24, 800, "v", 24000], "internal_node_id": "0.0-162.0", "trial": 6, "time_elapsed": 1038985, "serialpos": 0, "key_press": -1, "wordID": 918, "type": "PRES_VIS", "trial_index": 225}, "uniqueid": "MTK1453:3I0BTBYZAYS1DZHXH6ADONEPGQR0YN", "dateTime": 1515894757512}, {"current_trial": 226, "trialdata": {"rt": -1, "trial_type": "single-stim", "word": "temple", "stimulus": "<p id=\"stim\">TEMPLE</p>", "conditions": [24, 800, "v", 24000], "internal_node_id": "0.0-163.0", "trial": 6, "time_elapsed": 1040826, "serialpos": 1, "key_press": -1, "wordID": 1447, "type": "PRES_VIS", "trial_index": 226}, "uniqueid": "MTK1453:3I0BTBYZAYS1DZHXH6ADONEPGQR0YN", "dateTime": 1515894759353}, {"current_trial": 227, "trialdata": {"rt": -1, "trial_type": "single-stim", "word": "poison", "stimulus": "<p id=\"stim\">POISON</p>", "conditions": [24, 800, "v", 24000], "internal_node_id": "0.0-164.0", "trial": 6, "time_elapsed": 1042780, "serialpos": 2, "key_press": -1, "wordID": 1095, "type": "PRES_VIS", "trial_index": 227}, "uniqueid": "MTK1453:3I0BTBYZAYS1DZHXH6ADONEPGQR0YN", "dateTime": 1515894761307}, {"current_trial": 228, "trialdata": {"rt": -1, "trial_type": "single-stim", "word": "bison", "stimulus": "<p id=\"stim\">BISON</p>", "conditions": [24, 800, "v", 24000], "internal_node_id": "0.0-165.0", "trial": 6, "time_elapsed": 1044444, "serialpos": 3, "key_press": -1, "wordID": 130, "type": "PRES_VIS", "trial_index": 228}, "uniqueid": "MTK1453:3I0BTBYZAYS1DZHXH6ADONEPGQR0YN", "dateTime": 1515894762971}, {"current_trial": 229, "trialdata": {"rt": -1, "trial_type": "single-stim", "word": "liver", "stimulus": "<p id=\"stim\">LIVER</p>", "conditions": [24, 800, "v", 24000], "internal_node_id": "0.0-166.0", "trial": 6, "time_elapsed": 1046180, "serialpos": 4, "key_press": -1, "wordID": 832, "type": "PRES_VIS", "trial_index": 229}, "uniqueid": "MTK1453:3I0BTBYZAYS1DZHXH6ADONEPGQR0YN", "dateTime": 1515894764707}, {"current_trial": 230, "trialdata": {"rt": -1, "trial_type": "single-stim", "word": "kidney", "stimulus": "<p id=\"stim\">KIDNEY</p>", "conditions": [24, 800, "v", 24000], "internal_node_id": "0.0-167.0", "trial": 6, "time_elapsed": 1048148, "serialpos": 5, "key_press": -1, "wordID": 775, "type": "PRES_VIS", "trial_index": 230}, "uniqueid": "MTK1453:3I0BTBYZAYS1DZHXH6ADONEPGQR0YN", "dateTime": 1515894766676}, {"current_trial": 231, "trialdata": {"rt": -1, "trial_type": "single-stim", "word": "tribe", "stimulus": "<p id=\"stim\">TRIBE</p>", "conditions": [24, 800, "v", 24000], "internal_node_id": "0.0-168.0", "trial": 6, "time_elapsed": 1049778, "serialpos": 6, "key_press": -1, "wordID": 1504, "type": "PRES_VIS", "trial_index": 231}, "uniqueid": "MTK1453:3I0BTBYZAYS1DZHXH6ADONEPGQR0YN", "dateTime": 1515894768305}, {"current_trial": 232, "trialdata": {"rt": -1, "trial_type": "single-stim", "word": "basement", "stimulus": "<p id=\"stim\">BASEMENT</p>", "conditions": [24, 800, "v", 24000], "internal_node_id": "0.0-169.0", "trial": 6, "time_elapsed": 1051723, "serialpos": 7, "key_press": -1, "wordID": 93, "type": "PRES_VIS", "trial_index": 232}, "uniqueid": "MTK1453:3I0BTBYZAYS1DZHXH6ADONEPGQR0YN", "dateTime": 1515894770250}, {"current_trial": 233, "trialdata": {"rt": -1, "trial_type": "single-stim", "word": "film", "stimulus": "<p id=\"stim\">FILM</p>", "conditions": [24, 800, "v", 24000], "internal_node_id": "0.0-170.0", "trial": 6, "time_elapsed": 1053607, "serialpos": 8, "key_press": -1, "wordID": 564, "type": "PRES_VIS", "trial_index": 233}, "uniqueid": "MTK1453:3I0BTBYZAYS1DZHXH6ADONEPGQR0YN", "dateTime": 1515894772134}, {"current_trial": 234, "trialdata": {"rt": -1, "trial_type": "single-stim", "word": "orchid", "stimulus": "<p id=\"stim\">ORCHID</p>", "conditions": [24, 800, "v", 24000], "internal_node_id": "0.0-171.0", "trial": 6, "time_elapsed": 1055601, "serialpos": 9, "key_press": -1, "wordID": 981, "type": "PRES_VIS", "trial_index": 234}, "uniqueid": "MTK1453:3I0BTBYZAYS1DZHXH6ADONEPGQR0YN", "dateTime": 1515894774128}, {"current_trial": 235, "trialdata": {"rt": -1, "trial_type": "single-stim", "word": "agent", "stimulus": "<p id=\"stim\">AGENT</p>", "conditions": [24, 800, "v", 24000], "internal_node_id": "0.0-172.0", "trial": 6, "time_elapsed": 1057488, "serialpos": 10, "key_press": -1, "wordID": 9, "type": "PRES_VIS", "trial_index": 235}, "uniqueid": "MTK1453:3I0BTBYZAYS1DZHXH6ADONEPGQR0YN", "dateTime": 1515894776016}, {"current_trial": 236, "trialdata": {"rt": -1, "trial_type": "single-stim", "word": "cellar", "stimulus": "<p id=\"stim\">CELLAR</p>", "conditions": [24, 800, "v", 24000], "internal_node_id": "0.0-173.0", "trial": 6, "time_elapsed": 1059113, "serialpos": 11, "key_press": -1, "wordID": 266, "type": "PRES_VIS", "trial_index": 236}, "uniqueid": "MTK1453:3I0BTBYZAYS1DZHXH6ADONEPGQR0YN", "dateTime": 1515894777640}, {"current_trial": 237, "trialdata": {"rt": -1, "trial_type": "single-stim", "word": "widow", "stimulus": "<p id=\"stim\">WIDOW</p>", "conditions": [24, 800, "v", 24000], "internal_node_id": "0.0-174.0", "trial": 6, "time_elapsed": 1060991, "serialpos": 12, "key_press": -1, "wordID": 1607, "type": "PRES_VIS", "trial_index": 237}, "uniqueid": "MTK1453:3I0BTBYZAYS1DZHXH6ADONEPGQR0YN", "dateTime": 1515894779519}, {"current_trial": 238, "trialdata": {"rt": -1, "trial_type": "single-stim", "word": "shortcake", "stimulus": "<p id=\"stim\">SHORTCAKE</p>", "conditions": [24, 800, "v", 24000], "internal_node_id": "0.0-175.0", "trial": 6, "time_elapsed": 1062784, "serialpos": 13, "key_press": -1, "wordID": 1291, "type": "PRES_VIS", "trial_index": 238}, "uniqueid": "MTK1453:3I0BTBYZAYS1DZHXH6ADONEPGQR0YN", "dateTime": 1515894781311}, {"current_trial": 239, "trialdata": {"rt": -1, "trial_type": "single-stim", "word": "garlic", "stimulus": "<p id=\"stim\">GARLIC</p>", "conditions": [24, 800, "v", 24000], "internal_node_id": "0.0-176.0", "trial": 6, "time_elapsed": 1064538, "serialpos": 14, "key_press": -1, "wordID": 623, "type": "PRES_VIS", "trial_index": 239}, "uniqueid": "MTK1453:3I0BTBYZAYS1DZHXH6ADONEPGQR0YN", "dateTime": 1515894783065}, {"current_trial": 240, "trialdata": {"rt": -1, "trial_type": "single-stim", "word": "preacher", "stimulus": "<p id=\"stim\">PREACHER</p>", "conditions": [24, 800, "v", 24000], "internal_node_id": "0.0-177.0", "trial": 6, "time_elapsed": 1066196, "serialpos": 15, "key_press": -1, "wordID": 1118, "type": "PRES_VIS", "trial_index": 240}, "uniqueid": "MTK1453:3I0BTBYZAYS1DZHXH6ADONEPGQR0YN", "dateTime": 1515894784723}, {"current_trial": 241, "trialdata": {"rt": -1, "trial_type": "single-stim", "word": "brother", "stimulus": "<p id=\"stim\">BROTHER</p>", "conditions": [24, 800, "v", 24000], "internal_node_id": "0.0-178.0", "trial": 6, "time_elapsed": 1067865, "serialpos": 16, "key_press": -1, "wordID": 178, "type": "PRES_VIS", "trial_index": 241}, "uniqueid": "MTK1453:3I0BTBYZAYS1DZHXH6ADONEPGQR0YN", "dateTime": 1515894786392}, {"current_trial": 242, "trialdata": {"rt": -1, "trial_type": "single-stim", "word": "cashew", "stimulus": "<p id=\"stim\">CASHEW</p>", "conditions": [24, 800, "v", 24000], "internal_node_id": "0.0-179.0", "trial": 6, "time_elapsed": 1069859, "serialpos": 17, "key_press": -1, "wordID": 252, "type": "PRES_VIS", "trial_index": 242}, "uniqueid": "MTK1453:3I0BTBYZAYS1DZHXH6ADONEPGQR0YN", "dateTime": 1515894788386}, {"current_trial": 243, "trialdata": {"rt": -1, "trial_type": "single-stim", "word": "candy", "stimulus": "<p id=\"stim\">CANDY</p>", "conditions": [24, 800, "v", 24000], "internal_node_id": "0.0-180.0", "trial": 6, "time_elapsed": 1071676, "serialpos": 18, "key_press": -1, "wordID": 229, "type": "PRES_VIS", "trial_index": 243}, "uniqueid": "MTK1453:3I0BTBYZAYS1DZHXH6ADONEPGQR0YN", "dateTime": 1515894790208}, {"current_trial": 244, "trialdata": {"rt": -1, "trial_type": "single-stim", "word": "soda", "stimulus": "<p id=\"stim\">SODA</p>", "conditions": [24, 800, "v", 24000], "internal_node_id": "0.0-181.0", "trial": 6, "time_elapsed": 1073375, "serialpos": 19, "key_press": -1, "wordID": 1340, "type": "PRES_VIS", "trial_index": 244}, "uniqueid": "MTK1453:3I0BTBYZAYS1DZHXH6ADONEPGQR0YN", "dateTime": 1515894791903}, {"current_trial": 245, "trialdata": {"rt": -1, "trial_type": "single-stim", "word": "boyfriend", "stimulus": "<p id=\"stim\">BOYFRIEND</p>", "conditions": [24, 800, "v", 24000], "internal_node_id": "0.0-182.0", "trial": 6, "time_elapsed": 1075168, "serialpos": 20, "key_press": -1, "wordID": 161, "type": "PRES_VIS", "trial_index": 245}, "uniqueid": "MTK1453:3I0BTBYZAYS1DZHXH6ADONEPGQR0YN", "dateTime": 1515894793695}, {"current_trial": 246, "trialdata": {"rt": -1, "trial_type": "single-stim", "word": "uncle", "stimulus": "<p id=\"stim\">UNCLE</p>", "conditions": [24, 800, "v", 24000], "internal_node_id": "0.0-183.0", "trial": 6, "time_elapsed": 1077104, "serialpos": 21, "key_press": -1, "wordID": 1535, "type": "PRES_VIS", "trial_index": 246}, "uniqueid": "MTK1453:3I0BTBYZAYS1DZHXH6ADONEPGQR0YN", "dateTime": 1515894795631}, {"current_trial": 247, "trialdata": {"rt": -1, "trial_type": "single-stim", "word": "package", "stimulus": "<p id=\"stim\">PACKAGE</p>", "conditions": [24, 800, "v", 24000], "internal_node_id": "0.0-184.0", "trial": 6, "time_elapsed": 1078793, "serialpos": 22, "key_press": -1, "wordID": 996, "type": "PRES_VIS", "trial_index": 247}, "uniqueid": "MTK1453:3I0BTBYZAYS1DZHXH6ADONEPGQR0YN", "dateTime": 1515894797321}, {"current_trial": 248, "trialdata": {"rt": -1, "trial_type": "single-stim", "word": "pluto", "stimulus": "<p id=\"stim\">PLUTO</p>", "conditions": [24, 800, "v", 24000], "internal_node_id": "0.0-185.0", "trial": 6, "time_elapsed": 1080514, "serialpos": 23, "key_press": -1, "wordID": 1091, "type": "PRES_VIS", "trial_index": 248}, "uniqueid": "MTK1453:3I0BTBYZAYS1DZHXH6ADONEPGQR0YN", "dateTime": 1515894799041}, {"current_trial": 249, "trialdata": {"rt": -1, "trial_type": "single-stim", "stimulus": "", "internal_node_id": "0.0-186.0-0.0", "time_elapsed": 1082998, "key_press": -1, "type": "PRE_RECALL_DELAY", "trial_index": 249}, "uniqueid": "MTK1453:3I0BTBYZAYS1DZHXH6ADONEPGQR0YN", "dateTime": 1515894801526}, {"current_trial": 250, "trialdata": {"rt": -1000, "trial_type": "single-audio", "stimulus": "/static/audio/400Hz.wav", "internal_node_id": "0.0-187.0", "time_elapsed": 1083503, "key_press": -1, "type": "PRE_RECALL_ALERT", "trial_index": 250}, "uniqueid": "MTK1453:3I0BTBYZAYS1DZHXH6ADONEPGQR0YN", "dateTime": 1515894802030}, {"current_trial": 251, "trialdata": {"rt": [2863, 4513, 6362, 10149, 12070, 15696], "recwords": ["motel", "tribe", "film", "shortcake", "cookie", "package"], "key_times": [1590, 1764, 2007, 2464, 2599, 2863, 3605, 3777, 3941, 4192, 4340, 4513, 5480, 5714, 5944, 6127, 6362, 6875, 7235, 7367, 7517, 7662, 8700, 9304, 9745, 9898, 10149, 10944, 11165, 11306, 11450, 11612, 11815, 12070, 12729, 12891, 13847, 14873, 15020, 15205, 15334, 15696], "trial_type": "free-recall", "conditions": [24, 800, "v", 24000], "internal_node_id": "0.0-188.0-0.0", "key_presses": [77, 79, 84, 69, 76, 13, 84, 82, 73, 66, 69, 13, 70, 73, 76, 77, 13, 83, 72, 79, 82, 84, 67, 65, 75, 69, 13, 67, 79, 79, 75, 73, 69, 13, 80, 65, 67, 75, 65, 71, 69, 13], "trial": 6, "time_elapsed": 1143509, "type": "FREE_RECALL", "trial_index": 251}, "uniqueid": "MTK1453:3I0BTBYZAYS1DZHXH6ADONEPGQR0YN", "dateTime": 1515894862043}, {"current_trial": 252, "trialdata": {"rt": 2733, "trial_type": "text", "internal_node_id": "0.0-189.0", "time_elapsed": 1148254, "key_press": 220, "type": "INSTRUCTIONS", "trial_index": 252}, "uniqueid": "MTK1453:3I0BTBYZAYS1DZHXH6ADONEPGQR0YN", "dateTime": 1515894866781}, {"current_trial": 253, "trialdata": {"rt": [2840, 5205, 8753, 13543, 16254, 18737, 21487], "trial_type": "math-distractor", "key_times": [1301, 2123, 2840, 3992, 4904, 5205, 6777, 7122, 7140, 7641, 8371, 8753, 11816, 12319, 12747, 13543, 15710, 16254, 17997, 18165, 18737, 20366, 20533, 21487, 23591], "responses": ["13", "19", "9", "16", "7", "12", "12"], "num2": [1, 5, 1, 2, 1, 1, 3, 8], "num3": [3, 5, 2, 9, 3, 3, 5, 6], "conditions": [24, 1600, "v", 24000], "internal_node_id": "0.0-190.0", "key_presses": [49, 51, 13, 49, 57, 13, 57, 34, 34, 220, 8, 13, 49, 54, 34, 13, 55, 13, 49, 50, 13, 49, 50, 13, 49], "trial": 7, "time_elapsed": 1174263, "type": "DISTRACTOR", "trial_index": 253, "num1": [9, 9, 6, 5, 3, 8, 4, 2]}, "uniqueid": "MTK1453:3I0BTBYZAYS1DZHXH6ADONEPGQR0YN", "dateTime": 1515894892790}, {"current_trial": 254, "trialdata": {"rt": -1, "trial_type": "single-stim", "stimulus": "<p id=\"stim\">10</p>", "internal_node_id": "0.0-191.0-0.0", "time_elapsed": 1177268, "key_press": -1, "trial_index": 254}, "uniqueid": "MTK1453:3I0BTBYZAYS1DZHXH6ADONEPGQR0YN", "dateTime": 1515894895795}, {"current_trial": 255, "trialdata": {"rt": -1, "trial_type": "single-stim", "stimulus": "<p id=\"stim\">9</p>", "internal_node_id": "0.0-191.0-1.0", "time_elapsed": 1178270, "key_press": -1, "trial_index": 255}, "uniqueid": "MTK1453:3I0BTBYZAYS1DZHXH6ADONEPGQR0YN", "dateTime": 1515894896798}, {"current_trial": 256, "trialdata": {"rt": -1, "trial_type": "single-stim", "stimulus": "<p id=\"stim\">8</p>", "intern