{"assignmentId": "3QL2OFSM97PRVS8ZMKUM28IJNAPNCE", "workerId": "MTK1888", "questiondata": {"origin": "United States", "strat-rehearsal": "49", "marital": "Married/Domestic Partnership", "education": "Bachelor's degree", "ethnicity": "Not Hispanic", "color_depth": 24, "distracted": "No", "wrote-notes": "No", "strat-other": "I was usually trying to visualize the story I was trying to compose at the same time. I  also often grouped them, since that comes naturally.", "screen_width": 1366, "avail_screen_width": 1366, "avail_screen_height": 728, "strat-image": "88", "language": "English", "gender": "Female", "age": "57", "gender_other": "", "race": ["White"], "strat-categorize": "53", "pixel_depth": 24, "strat-spatial": "0", "strat-story": "84", "race_other": "", "screen_height": 768}, "bonus": 0, "hitId": "3LVTFB9DE5PNSH32EWDK792J87RQGW", "counterbalance": 2304, "useragent": "Mozilla/5.0 (Windows NT 10.0; Win64; x64) AppleWebKit/537.36 (KHTML, like Gecko) Chrome/63.0.3239.132 Safari/537.36", "eventdata": [{"eventtype": "initialized", "interval": 0, "value": null, "timestamp": 1516500333521}, {"eventtype": "window_resize", "interval": 0, "value": [1366, 721], "timestamp": 1516500333521}, {"eventtype": "focus", "interval": 2076476, "value": "off", "timestamp": 1516502409997}, {"eventtype": "focus", "interval": 12473, "value": "on", "timestamp": 1516502422470}, {"eventtype": "focus", "interval": 2211939, "value": "off", "timestamp": 1516504634409}, {"eventtype": "focus", "interval": 9443, "value": "on", "timestamp": 1516504643852}], "data": [{"current_trial": 0, "trialdata": {"rt": 3736, "trial_type": "text", "internal_node_id": "0.0-0.0", "time_elapsed": 3768, "key_press": 32, "type": "INSTRUCTIONS", "trial_index": 0}, "uniqueid": "MTK1888:3QL2OFSM97PRVS8ZMKUM28IJNAPNCE", "dateTime": 1516500338958}, {"current_trial": 1, "trialdata": {"rt": 19032, "trial_type": "text", "internal_node_id": "0.0-1.0", "time_elapsed": 22807, "key_press": 32, "type": "INSTRUCTIONS", "trial_index": 1}, "uniqueid": "MTK1888:3QL2OFSM97PRVS8ZMKUM28IJNAPNCE", "dateTime": 1516500357995}, {"current_trial": 2, "trialdata": {"rt": [27520], "trial_type": "audio-test", "responses": ["ocean"], "internal_node_id": "0.0-2.0", "time_elapsed": 50466, "type": "AUDIO_TEST", "trial_index": 2}, "uniqueid": "MTK1888:3QL2OFSM97PRVS8ZMKUM28IJNAPNCE", "dateTime": 1516500385654}, {"current_trial": 3, "trialdata": {"rt": [7205], "trial_type": "audio-test", "responses": ["crystal"], "internal_node_id": "0.0-3.0", "time_elapsed": 57687, "type": "AUDIO_TEST", "trial_index": 3}, "uniqueid": "MTK1888:3QL2OFSM97PRVS8ZMKUM28IJNAPNCE", "dateTime": 1516500392876}, {"current_trial": 4, "trialdata": {"rt": [8213], "trial_type": "audio-test", "responses": ["spice"], "internal_node_id": "0.0-4.0", "time_elapsed": 65917, "type": "AUDIO_TEST", "trial_index": 4}, "uniqueid": "MTK1888:3QL2OFSM97PRVS8ZMKUM28IJNAPNCE", "dateTime": 1516500401105}, {"current_trial": 5, "trialdata": {"rt": 79355, "trial_type": "survey-text", "responses": "{\"Q0\":\"2:15AM\",\"Q1\":\"9:05AM\",\"Q2\":\"4\"}", "internal_node_id": "0.0-5.0", "time_elapsed": 146034, "type": "SLEEP_SURVEY", "trial_index": 5}, "uniqueid": "MTK1888:3QL2OFSM97PRVS8ZMKUM28IJNAPNCE", "dateTime": 1516500481222}, {"current_trial": 6, "trialdata": {"rt": 3488, "trial_type": "text", "internal_node_id": "0.0-6.0", "time_elapsed": 150525, "key_press": 17, "type": "INSTRUCTIONS", "trial_index": 6}, "uniqueid": "MTK1888:3QL2OFSM97PRVS8ZMKUM28IJNAPNCE", "dateTime": 1516500485713}, {"current_trial": 7, "trialdata": {"rt": 33098, "trial_type": "text", "internal_node_id": "0.0-7.0", "time_elapsed": 184128, "key_press": 32, "type": "INSTRUCTIONS", "trial_index": 7}, "uniqueid": "MTK1888:3QL2OFSM97PRVS8ZMKUM28IJNAPNCE", "dateTime": 1516500519316}, {"current_trial": 8, "trialdata": {"rt": 24373, "trial_type": "text", "internal_node_id": "0.0-8.0", "time_elapsed": 209004, "key_press": 32, "type": "INSTRUCTIONS", "trial_index": 8}, "uniqueid": "MTK1888:3QL2OFSM97PRVS8ZMKUM28IJNAPNCE", "dateTime": 1516500544192}, {"current_trial": 9, "trialdata": {"rt": [4016, 10960, 14610], "trial_type": "math-distractor", "key_times": [2381, 2585, 4016, 10120, 10320, 10960, 14148, 14300, 14610], "responses": ["14", "22", "23"], "num2": [8, 8, 7, 8], "num3": [5, 9, 9, 8], "conditions": [18, 1200, "v", 18000], "internal_node_id": "0.0-9.0", "key_presses": [97, 100, 13, 98, 98, 13, 98, 99, 13], "trial": 0, "time_elapsed": 228047, "type": "DISTRACTOR", "trial_index": 9, "num1": [1, 5, 7, 5]}, "uniqueid": "MTK1888:3QL2OFSM97PRVS8ZMKUM28IJNAPNCE", "dateTime": 1516500563236}, {"current_trial": 10, "trialdata": {"rt": -1, "trial_type": "single-stim", "stimulus": "<p id=\"stim\">10</p>", "internal_node_id": "0.0-10.0-0.0", "time_elapsed": 231056, "key_press": -1, "trial_index": 10}, "uniqueid": "MTK1888:3QL2OFSM97PRVS8ZMKUM28IJNAPNCE", "dateTime": 1516500566245}, {"current_trial": 11, "trialdata": {"rt": -1, "trial_type": "single-stim", "stimulus": "<p id=\"stim\">9</p>", "internal_node_id": "0.0-10.0-1.0", "time_elapsed": 232061, "key_press": -1, "trial_index": 11}, "uniqueid": "MTK1888:3QL2OFSM97PRVS8ZMKUM28IJNAPNCE", "dateTime": 1516500567249}, {"current_trial": 12, "trialdata": {"rt": -1, "trial_type": "single-stim", "stimulus": "<p id=\"stim\">8</p>", "internal_node_id": "0.0-10.0-2.0", "time_elapsed": 233064, "key_press": -1, "trial_index": 12}, "uniqueid": "MTK1888:3QL2OFSM97PRVS8ZMKUM28IJNAPNCE", "dateTime": 1516500568253}, {"current_trial": 13, "trialdata": {"rt": -1, "trial_type": "single-stim", "stimulus": "<p id=\"stim\">7</p>", "internal_node_id": "0.0-10.0-3.0", "time_elapsed": 234069, "key_press": -1, "trial_index": 13}, "uniqueid": "MTK1888:3QL2OFSM97PRVS8ZMKUM28IJNAPNCE", "dateTime": 1516500569258}, {"current_trial": 14, "trialdata": {"rt": -1, "trial_type": "single-stim", "stimulus": "<p id=\"stim\">6</p>", "internal_node_id": "0.0-10.0-4.0", "time_elapsed": 235073, "key_press": -1, "trial_index": 14}, "uniqueid": "MTK1888:3QL2OFSM97PRVS8ZMKUM28IJNAPNCE", "dateTime": 1516500570261}, {"current_trial": 15, "trialdata": {"rt": -1, "trial_type": "single-stim", "stimulus": "<p id=\"stim\">5</p>", "internal_node_id": "0.0-10.0-5.0", "time_elapsed": 236078, "key_press": -1, "trial_index": 15}, "uniqueid": "MTK1888:3QL2OFSM97PRVS8ZMKUM28IJNAPNCE", "dateTime": 1516500571266}, {"current_trial": 16, "trialdata": {"rt": -1, "trial_type": "single-stim", "stimulus": "<p id=\"stim\">4</p>", "internal_node_id": "0.0-10.0-6.0", "time_elapsed": 237082, "key_press": -1, "trial_index": 16}, "uniqueid": "MTK1888:3QL2OFSM97PRVS8ZMKUM28IJNAPNCE", "dateTime": 1516500572270}, {"current_trial": 17, "trialdata": {"rt": -1, "trial_type": "single-stim", "stimulus": "<p id=\"stim\">3</p>", "internal_node_id": "0.0-10.0-7.0", "time_elapsed": 238086, "key_press": -1, "trial_index": 17}, "uniqueid": "MTK1888:3QL2OFSM97PRVS8ZMKUM28IJNAPNCE", "dateTime": 1516500573274}, {"current_trial": 18, "trialdata": {"rt": -1, "trial_type": "single-stim", "stimulus": "<p id=\"stim\">2</p>", "internal_node_id": "0.0-10.0-8.0", "time_elapsed": 239089, "key_press": -1, "trial_index": 18}, "uniqueid": "MTK1888:3QL2OFSM97PRVS8ZMKUM28IJNAPNCE", "dateTime": 1516500574278}, {"current_trial": 19, "trialdata": {"rt": -1, "trial_type": "single-stim", "stimulus": "<p id=\"stim\">1</p>", "internal_node_id": "0.0-10.0-9.0", "time_elapsed": 240094, "key_press": -1, "trial_index": 19}, "uniqueid": "MTK1888:3QL2OFSM97PRVS8ZMKUM28IJNAPNCE", "dateTime": 1516500575282}, {"current_trial": 20, "trialdata": {"rt": -1, "trial_type": "single-stim", "stimulus": "<p id=\"stim\">+</p>", "internal_node_id": "0.0-11.0-0.0", "time_elapsed": 241598, "key_press": -1, "type": "FIXATION", "trial_index": 20}, "uniqueid": "MTK1888:3QL2OFSM97PRVS8ZMKUM28IJNAPNCE", "dateTime": 1516500576787}, {"current_trial": 21, "trialdata": {"rt": -1, "trial_type": "single-stim", "word": "lettuce", "stimulus": "<p id=\"stim\">LETTUCE</p>", "conditions": [18, 1200, "v", 18000], "internal_node_id": "0.0-12.0", "trial": 0, "time_elapsed": 242801, "serialpos": 0, "key_press": -1, "wordID": 813, "type": "PRES_VIS", "trial_index": 21}, "uniqueid": "MTK1888:3QL2OFSM97PRVS8ZMKUM28IJNAPNCE", "dateTime": 1516500577990}, {"current_trial": 22, "trialdata": {"rt": -1, "trial_type": "single-stim", "word": "church", "stimulus": "<p id=\"stim\">CHURCH</p>", "conditions": [18, 1200, "v", 18000], "internal_node_id": "0.0-13.0", "trial": 0, "time_elapsed": 245038, "serialpos": 1, "key_press": -1, "wordID": 306, "type": "PRES_VIS", "trial_index": 22}, "uniqueid": "MTK1888:3QL2OFSM97PRVS8ZMKUM28IJNAPNCE", "dateTime": 1516500580226}, {"current_trial": 23, "trialdata": {"rt": -1, "trial_type": "single-stim", "word": "lava", "stimulus": "<p id=\"stim\">LAVA</p>", "conditions": [18, 1200, "v", 18000], "internal_node_id": "0.0-14.0", "trial": 0, "time_elapsed": 247319, "serialpos": 2, "key_press": -1, "wordID": 803, "type": "PRES_VIS", "trial_index": 23}, "uniqueid": "MTK1888:3QL2OFSM97PRVS8ZMKUM28IJNAPNCE", "dateTime": 1516500582507}, {"current_trial": 24, "trialdata": {"rt": -1, "trial_type": "single-stim", "word": "tart", "stimulus": "<p id=\"stim\">TART</p>", "conditions": [18, 1200, "v", 18000], "internal_node_id": "0.0-15.0", "trial": 0, "time_elapsed": 249533, "serialpos": 3, "key_press": -1, "wordID": 1435, "type": "PRES_VIS", "trial_index": 24}, "uniqueid": "MTK1888:3QL2OFSM97PRVS8ZMKUM28IJNAPNCE", "dateTime": 1516500584721}, {"current_trial": 25, "trialdata": {"rt": -1, "trial_type": "single-stim", "word": "cabbage", "stimulus": "<p id=\"stim\">CABBAGE</p>", "conditions": [18, 1200, "v", 18000], "internal_node_id": "0.0-16.0", "trial": 0, "time_elapsed": 251669, "serialpos": 4, "key_press": -1, "wordID": 209, "type": "PRES_VIS", "trial_index": 25}, "uniqueid": "MTK1888:3QL2OFSM97PRVS8ZMKUM28IJNAPNCE", "dateTime": 1516500586858}, {"current_trial": 26, "trialdata": {"rt": -1, "trial_type": "single-stim", "word": "puddle", "stimulus": "<p id=\"stim\">PUDDLE</p>", "conditions": [18, 1200, "v", 18000], "internal_node_id": "0.0-17.0", "trial": 0, "time_elapsed": 253788, "serialpos": 5, "key_press": -1, "wordID": 1139, "type": "PRES_VIS", "trial_index": 26}, "uniqueid": "MTK1888:3QL2OFSM97PRVS8ZMKUM28IJNAPNCE", "dateTime": 1516500588977}, {"current_trial": 27, "trialdata": {"rt": -1, "trial_type": "single-stim", "word": "boyfriend", "stimulus": "<p id=\"stim\">BOYFRIEND</p>", "conditions": [18, 1200, "v", 18000], "internal_node_id": "0.0-18.0", "trial": 0, "time_elapsed": 256185, "serialpos": 6, "key_press": -1, "wordID": 161, "type": "PRES_VIS", "trial_index": 27}, "uniqueid": "MTK1888:3QL2OFSM97PRVS8ZMKUM28IJNAPNCE", "dateTime": 1516500591373}, {"current_trial": 28, "trialdata": {"rt": -1, "trial_type": "single-stim", "word": "lodge", "stimulus": "<p id=\"stim\">LODGE</p>", "conditions": [18, 1200, "v", 18000], "internal_node_id": "0.0-19.0", "trial": 0, "time_elapsed": 258374, "serialpos": 7, "key_press": -1, "wordID": 838, "type": "PRES_VIS", "trial_index": 28}, "uniqueid": "MTK1888:3QL2OFSM97PRVS8ZMKUM28IJNAPNCE", "dateTime": 1516500593562}, {"current_trial": 29, "trialdata": {"rt": -1, "trial_type": "single-stim", "word": "rifle", "stimulus": "<p id=\"stim\">RIFLE</p>", "conditions": [18, 1200, "v", 18000], "internal_node_id": "0.0-20.0", "trial": 0, "time_elapsed": 260656, "serialpos": 8, "key_press": -1, "wordID": 1191, "type": "PRES_VIS", "trial_index": 29}, "uniqueid": "MTK1888:3QL2OFSM97PRVS8ZMKUM28IJNAPNCE", "dateTime": 1516500595845}, {"current_trial": 30, "trialdata": {"rt": -1, "trial_type": "single-stim", "word": "sidewalk", "stimulus": "<p id=\"stim\">SIDEWALK</p>", "conditions": [18, 1200, "v", 18000], "internal_node_id": "0.0-21.0", "trial": 0, "time_elapsed": 263029, "serialpos": 9, "key_press": -1, "wordID": 1302, "type": "PRES_VIS", "trial_index": 30}, "uniqueid": "MTK1888:3QL2OFSM97PRVS8ZMKUM28IJNAPNCE", "dateTime": 1516500598218}, {"current_trial": 31, "trialdata": {"rt": -1, "trial_type": "single-stim", "word": "slope", "stimulus": "<p id=\"stim\">SLOPE</p>", "conditions": [18, 1200, "v", 18000], "internal_node_id": "0.0-22.0", "trial": 0, "time_elapsed": 265271, "serialpos": 10, "key_press": -1, "wordID": 1327, "type": "PRES_VIS", "trial_index": 31}, "uniqueid": "MTK1888:3QL2OFSM97PRVS8ZMKUM28IJNAPNCE", "dateTime": 1516500600459}, {"current_trial": 32, "trialdata": {"rt": -1, "trial_type": "single-stim", "word": "pimple", "stimulus": "<p id=\"stim\">PIMPLE</p>", "conditions": [18, 1200, "v", 18000], "internal_node_id": "0.0-23.0", "trial": 0, "time_elapsed": 267509, "serialpos": 11, "key_press": -1, "wordID": 1070, "type": "PRES_VIS", "trial_index": 32}, "uniqueid": "MTK1888:3QL2OFSM97PRVS8ZMKUM28IJNAPNCE", "dateTime": 1516500602698}, {"current_trial": 33, "trialdata": {"rt": -1, "trial_type": "single-stim", "word": "raft", "stimulus": "<p id=\"stim\">RAFT</p>", "conditions": [18, 1200, "v", 18000], "internal_node_id": "0.0-24.0", "trial": 0, "time_elapsed": 269677, "serialpos": 12, "key_press": -1, "wordID": 1158, "type": "PRES_VIS", "trial_index": 33}, "uniqueid": "MTK1888:3QL2OFSM97PRVS8ZMKUM28IJNAPNCE", "dateTime": 1516500604866}, {"current_trial": 34, "trialdata": {"rt": -1, "trial_type": "single-stim", "word": "sister", "stimulus": "<p id=\"stim\">SISTER</p>", "conditions": [18, 1200, "v", 18000], "internal_node_id": "0.0-25.0", "trial": 0, "time_elapsed": 271793, "serialpos": 13, "key_press": -1, "wordID": 1311, "type": "PRES_VIS", "trial_index": 34}, "uniqueid": "MTK1888:3QL2OFSM97PRVS8ZMKUM28IJNAPNCE", "dateTime": 1516500606982}, {"current_trial": 35, "trialdata": {"rt": -1, "trial_type": "single-stim", "word": "coffee", "stimulus": "<p id=\"stim\">COFFEE</p>", "conditions": [18, 1200, "v", 18000], "internal_node_id": "0.0-26.0", "trial": 0, "time_elapsed": 274042, "serialpos": 14, "key_press": -1, "wordID": 340, "type": "PRES_VIS", "trial_index": 35}, "uniqueid": "MTK1888:3QL2OFSM97PRVS8ZMKUM28IJNAPNCE", "dateTime": 1516500609230}, {"current_trial": 36, "trialdata": {"rt": -1, "trial_type": "single-stim", "word": "crutch", "stimulus": "<p id=\"stim\">CRUTCH</p>", "conditions": [18, 1200, "v", 18000], "internal_node_id": "0.0-27.0", "trial": 0, "time_elapsed": 276342, "serialpos": 15, "key_press": -1, "wordID": 416, "type": "PRES_VIS", "trial_index": 36}, "uniqueid": "MTK1888:3QL2OFSM97PRVS8ZMKUM28IJNAPNCE", "dateTime": 1516500611530}, {"current_trial": 37, "trialdata": {"rt": -1, "trial_type": "single-stim", "word": "friend", "stimulus": "<p id=\"stim\">FRIEND</p>", "conditions": [18, 1200, "v", 18000], "internal_node_id": "0.0-28.0", "trial": 0, "time_elapsed": 278397, "serialpos": 16, "key_press": -1, "wordID": 605, "type": "PRES_VIS", "trial_index": 37}, "uniqueid": "MTK1888:3QL2OFSM97PRVS8ZMKUM28IJNAPNCE", "dateTime": 1516500613586}, {"current_trial": 38, "trialdata": {"rt": -1, "trial_type": "single-stim", "word": "wasp", "stimulus": "<p id=\"stim\">WASP</p>", "conditions": [18, 1200, "v", 18000], "internal_node_id": "0.0-29.0", "trial": 0, "time_elapsed": 280739, "serialpos": 17, "key_press": -1, "wordID": 1592, "type": "PRES_VIS", "trial_index": 38}, "uniqueid": "MTK1888:3QL2OFSM97PRVS8ZMKUM28IJNAPNCE", "dateTime": 1516500615928}, {"current_trial": 39, "trialdata": {"rt": -1, "trial_type": "single-stim", "stimulus": "", "internal_node_id": "0.0-30.0-0.0", "time_elapsed": 282964, "key_press": -1, "type": "PRE_RECALL_DELAY", "trial_index": 39}, "uniqueid": "MTK1888:3QL2OFSM97PRVS8ZMKUM28IJNAPNCE", "dateTime": 1516500618153}, {"current_trial": 40, "trialdata": {"rt": -1000, "trial_type": "single-audio", "stimulus": "/static/audio/400Hz.wav", "internal_node_id": "0.0-31.0", "time_elapsed": 283583, "key_press": -1, "type": "PRE_RECALL_ALERT", "trial_index": 40}, "uniqueid": "MTK1888:3QL2OFSM97PRVS8ZMKUM28IJNAPNCE", "dateTime": 1516500618771}, {"current_trial": 41, "trialdata": {"rt": [5038, 6853, 9455, 12000, 15071, 16602, 22267, 35703, 37818, 40444, 55689], "recwords": ["boyfriend", "wasp", "crutch", "sidewalk", "boyfriend", "sister", "pear", "cabbage", "slope", "raft", "sister"], "key_times": [2328, 2400, 2648, 3084, 3315, 3447, 3576, 3682, 4063, 5038, 5503, 5802, 5952, 6510, 6853, 7174, 7377, 7673, 7972, 8261, 8378, 9455, 10111, 10223, 10437, 10621, 10838, 10978, 11178, 11369, 12000, 13216, 13338, 13502, 13671, 13867, 13958, 14081, 14172, 14652, 15071, 15458, 15560, 15693, 15875, 16005, 16122, 16602, 21108, 21376, 21528, 21664, 22267, 31156, 31163, 31390, 31859, 32010, 32181, 32329, 32702, 32927, 33347, 33490, 33611, 33797, 33978, 34137, 34304, 34546, 35022, 35106, 35374, 35703, 36149, 36319, 36528, 36819, 37130, 37818, 39229, 39455, 39706, 39914, 40444, 53937, 54341, 54550, 54823, 55095, 55318, 55689], "trial_type": "free-recall", "conditions": [18, 1200, "v", 18000], "internal_node_id": "0.0-32.0-0.0", "key_presses": [66, 79, 89, 70, 82, 73, 69, 78, 68, 13, 87, 65, 83, 80, 13, 67, 82, 85, 84, 67, 72, 13, 83, 73, 68, 69, 87, 65, 76, 75, 13, 66, 79, 89, 70, 82, 73, 69, 78, 68, 13, 83, 73, 83, 84, 69, 82, 13, 80, 69, 65, 82, 13, 86, 67, 65, 8, 8, 8, 8, 66, 65, 8, 8, 67, 65, 66, 66, 65, 76, 8, 71, 69, 13, 83, 76, 79, 80, 69, 13, 82, 65, 70, 84, 13, 83, 73, 83, 84, 69, 82, 13], "trial": 0, "time_elapsed": 343590, "type": "FREE_RECALL", "trial_index": 41}, "uniqueid": "MTK1888:3QL2OFSM97PRVS8ZMKUM28IJNAPNCE", "dateTime": 1516500678784}, {"current_trial": 42, "trialdata": {"rt": 2226, "trial_type": "text", "internal_node_id": "0.0-33.0", "time_elapsed": 347826, "key_press": 32, "type": "INSTRUCTIONS", "trial_index": 42}, "uniqueid": "MTK1888:3QL2OFSM97PRVS8ZMKUM28IJNAPNCE", "dateTime": 1516500683014}, {"current_trial": 43, "trialdata": {"rt": [3669, 7503, 9536, 12211, 15383], "trial_type": "math-distractor", "key_times": [3013, 3366, 3669, 6579, 7503, 9061, 9217, 9536, 11376, 11655, 12211, 14220, 14609, 15383], "responses": ["16", "8", "11", "13", "19"], "num2": [6, 6, 4, 8, 1, 1], "num3": [9, 1, 6, 2, 9, 8], "conditions": [18, 1200, "v", 18000], "internal_node_id": "0.0-34.0", "key_presses": [97, 102, 13, 104, 13, 97, 97, 13, 97, 99, 13, 97, 105, 13], "trial": 1, "time_elapsed": 367833, "type": "DISTRACTOR", "trial_index": 43, "num1": [1, 1, 1, 3, 9, 4]}, "uniqueid": "MTK1888:3QL2OFSM97PRVS8ZMKUM28IJNAPNCE", "dateTime": 1516500703022}, {"current_trial": 44, "trialdata": {"rt": -1, "trial_type": "single-stim", "stimulus": "<p id=\"stim\">10</p>", "internal_node_id": "0.0-35.0-0.0", "time_elapsed": 370841, "key_press": -1, "trial_index": 44}, "uniqueid": "MTK1888:3QL2OFSM97PRVS8ZMKUM28IJNAPNCE", "dateTime": 1516500706030}, {"current_trial": 45, "trialdata": {"rt": -1, "trial_type": "single-stim", "stimulus": "<p id=\"stim\">9</p>", "internal_node_id": "0.0-35.0-1.0", "time_elapsed": 371847, "key_press": -1, "trial_index": 45}, "uniqueid": "MTK1888:3QL2OFSM97PRVS8ZMKUM28IJNAPNCE", "dateTime": 1516500707035}, {"current_trial": 46, "trialdata": {"rt": -1, "trial_type": "single-stim", "stimulus": "<p id=\"stim\">8</p>", "internal_node_id": "0.0-35.0-2.0", "time_elapsed": 372851, "key_press": -1, "trial_index": 46}, "uniqueid": "MTK1888:3QL2OFSM97PRVS8ZMKUM28IJNAPNCE", "dateTime": 1516500708040}, {"current_trial": 47, "trialdata": {"rt": -1, "trial_type": "single-stim", "stimulus": "<p id=\"stim\">7</p>", "internal_node_id": "0.0-35.0-3.0", "time_elapsed": 373855, "key_press": -1, "trial_index": 47}, "uniqueid": "MTK1888:3QL2OFSM97PRVS8ZMKUM28IJNAPNCE", "dateTime": 1516500709043}, {"current_trial": 48, "trialdata": {"rt": -1, "trial_type": "single-stim", "stimulus": "<p id=\"stim\">6</p>", "internal_node_id": "0.0-35.0-4.0", "time_elapsed": 374898, "key_press": -1, "trial_index": 48}, "uniqueid": "MTK1888:3QL2OFSM97PRVS8ZMKUM28IJNAPNCE", "dateTime": 1516500710086}, {"current_trial": 49, "trialdata": {"rt": -1, "trial_type": "single-stim", "stimulus": "<p id=\"stim\">5</p>", "internal_node_id": "0.0-35.0-5.0", "time_elapsed": 375901, "key_press": -1, "trial_index": 49}, "uniqueid": "MTK1888:3QL2OFSM97PRVS8ZMKUM28IJNAPNCE", "dateTime": 1516500711089}, {"current_trial": 50, "trialdata": {"rt": -1, "trial_type": "single-stim", "stimulus": "<p id=\"stim\">4</p>", "internal_node_id": "0.0-35.0-6.0", "time_elapsed": 376904, "key_press": -1, "trial_index": 50}, "uniqueid": "MTK1888:3QL2OFSM97PRVS8ZMKUM28IJNAPNCE", "dateTime": 1516500712092}, {"current_trial": 51, "trialdata": {"rt": -1, "trial_type": "single-stim", "stimulus": "<p id=\"stim\">3</p>", "internal_node_id": "0.0-35.0-7.0", "time_elapsed": 377906, "key_press": -1, "trial_index": 51}, "uniqueid": "MTK1888:3QL2OFSM97PRVS8ZMKUM28IJNAPNCE", "dateTime": 1516500713094}, {"current_trial": 52, "trialdata": {"rt": -1, "trial_type": "single-stim", "stimulus": "<p id=\"stim\">2</p>", "internal_node_id": "0.0-35.0-8.0", "time_elapsed": 378908, "key_press": -1, "trial_index": 52}, "uniqueid": "MTK1888:3QL2OFSM97PRVS8ZMKUM28IJNAPNCE", "dateTime": 1516500714096}, {"current_trial": 53, "trialdata": {"rt": -1, "trial_type": "single-stim", "stimulus": "<p id=\"stim\">1</p>", "internal_node_id": "0.0-35.0-9.0", "time_elapsed": 379911, "key_press": -1, "trial_index": 53}, "uniqueid": "MTK1888:3QL2OFSM97PRVS8ZMKUM28IJNAPNCE", "dateTime": 1516500715100}, {"current_trial": 54, "trialdata": {"rt": -1, "trial_type": "single-stim", "stimulus": "<p id=\"stim\">+</p>", "internal_node_id": "0.0-36.0-0.0", "time_elapsed": 381415, "key_press": -1, "type": "FIXATION", "trial_index": 54}, "uniqueid": "MTK1888:3QL2OFSM97PRVS8ZMKUM28IJNAPNCE", "dateTime": 1516500716604}, {"current_trial": 55, "trialdata": {"rt": -1, "trial_type": "single-stim", "word": "silk", "stimulus": "<p id=\"stim\">SILK</p>", "conditions": [18, 1200, "v", 18000], "internal_node_id": "0.0-37.0", "trial": 1, "time_elapsed": 382619, "serialpos": 0, "key_press": -1, "wordID": 1306, "type": "PRES_VIS", "trial_index": 55}, "uniqueid": "MTK1888:3QL2OFSM97PRVS8ZMKUM28IJNAPNCE", "dateTime": 1516500717808}, {"current_trial": 56, "trialdata": {"rt": -1, "trial_type": "single-stim", "word": "banjo", "stimulus": "<p id=\"stim\">BANJO</p>", "conditions": [18, 1200, "v", 18000], "internal_node_id": "0.0-38.0", "trial": 1, "time_elapsed": 384846, "serialpos": 1, "key_press": -1, "wordID": 81, "type": "PRES_VIS", "trial_index": 56}, "uniqueid": "MTK1888:3QL2OFSM97PRVS8ZMKUM28IJNAPNCE", "dateTime": 1516500720036}, {"current_trial": 57, "trialdata": {"rt": -1, "trial_type": "single-stim", "word": "possum", "stimulus": "<p id=\"stim\">POSSUM</p>", "conditions": [18, 1200, "v", 18000], "internal_node_id": "0.0-39.0", "trial": 1, "time_elapsed": 387053, "serialpos": 2, "key_press": -1, "wordID": 1111, "type": "PRES_VIS", "trial_index": 57}, "uniqueid": "MTK1888:3QL2OFSM97PRVS8ZMKUM28IJNAPNCE", "dateTime": 1516500722242}, {"current_trial": 58, "trialdata": {"rt": -1, "trial_type": "single-stim", "word": "cattle", "stimulus": "<p id=\"stim\">CATTLE</p>", "conditions": [18, 1200, "v", 18000], "internal_node_id": "0.0-40.0", "trial": 1, "time_elapsed": 389425, "serialpos": 3, "key_press": -1, "wordID": 260, "type": "PRES_VIS", "trial_index": 58}, "uniqueid": "MTK1888:3QL2OFSM97PRVS8ZMKUM28IJNAPNCE", "dateTime": 1516500724614}, {"current_trial": 59, "trialdata": {"rt": -1, "trial_type": "single-stim", "word": "fragrance", "stimulus": "<p id=\"stim\">FRAGRANCE</p>", "conditions": [18, 1200, "v", 18000], "internal_node_id": "0.0-41.0", "trial": 1, "time_elapsed": 391649, "serialpos": 4, "key_press": -1, "wordID": 598, "type": "PRES_VIS", "trial_index": 59}, "uniqueid": "MTK1888:3QL2OFSM97PRVS8ZMKUM28IJNAPNCE", "dateTime": 1516500726838}, {"current_trial": 60, "trialdata": {"rt": -1, "trial_type": "single-stim", "word": "wardrobe", "stimulus": "<p id=\"stim\">WARDROBE</p>", "conditions": [18, 1200, "v", 18000], "internal_node_id": "0.0-42.0", "trial": 1, "time_elapsed": 394013, "serialpos": 5, "key_press": -1, "wordID": 1586, "type": "PRES_VIS", "trial_index": 60}, "uniqueid": "MTK1888:3QL2OFSM97PRVS8ZMKUM28IJNAPNCE", "dateTime": 1516500729202}, {"current_trial": 61, "trialdata": {"rt": -1, "trial_type": "single-stim", "word": "wife", "stimulus": "<p id=\"stim\">WIFE</p>", "conditions": [18, 1200, "v", 18000], "internal_node_id": "0.0-43.0", "trial": 1, "time_elapsed": 396126, "serialpos": 6, "key_press": -1, "wordID": 1608, "type": "PRES_VIS", "trial_index": 61}, "uniqueid": "MTK1888:3QL2OFSM97PRVS8ZMKUM28IJNAPNCE", "dateTime": 1516500731315}, {"current_trial": 62, "trialdata": {"rt": -1, "trial_type": "single-stim", "word": "star", "stimulus": "<p id=\"stim\">STAR</p>", "conditions": [18, 1200, "v", 18000], "internal_node_id": "0.0-44.0", "trial": 1, "time_elapsed": 398395, "serialpos": 7, "key_press": -1, "wordID": 1372, "type": "PRES_VIS", "trial_index": 62}, "uniqueid": "MTK1888:3QL2OFSM97PRVS8ZMKUM28IJNAPNCE", "dateTime": 1516500733583}, {"current_trial": 63, "trialdata": {"rt": -1, "trial_type": "single-stim", "word": "pebble", "stimulus": "<p id=\"stim\">PEBBLE</p>", "conditions": [18, 1200, "v", 18000], "internal_node_id": "0.0-45.0", "trial": 1, "time_elapsed": 400749, "serialpos": 8, "key_press": -1, "wordID": 1034, "type": "PRES_VIS", "trial_index": 63}, "uniqueid": "MTK1888:3QL2OFSM97PRVS8ZMKUM28IJNAPNCE", "dateTime": 1516500735938}, {"current_trial": 64, "trialdata": {"rt": -1, "trial_type": "single-stim", "word": "comet", "stimulus": "<p id=\"stim\">COMET</p>", "conditions": [18, 1200, "v", 18000], "internal_node_id": "0.0-46.0", "trial": 1, "time_elapsed": 402860, "serialpos": 9, "key_press": -1, "wordID": 352, "type": "PRES_VIS", "trial_index": 64}, "uniqueid": "MTK1888:3QL2OFSM97PRVS8ZMKUM28IJNAPNCE", "dateTime": 1516500738049}, {"current_trial": 65, "trialdata": {"rt": -1, "trial_type": "single-stim", "word": "sticker", "stimulus": "<p id=\"stim\">STICKER</p>", "conditions": [18, 1200, "v", 18000], "internal_node_id": "0.0-47.0", "trial": 1, "time_elapsed": 405022, "serialpos": 10, "key_press": -1, "wordID": 1381, "type": "PRES_VIS", "trial_index": 65}, "uniqueid": "MTK1888:3QL2OFSM97PRVS8ZMKUM28IJNAPNCE", "dateTime": 1516500740211}, {"current_trial": 66, "trialdata": {"rt": -1, "trial_type": "single-stim", "word": "soda", "stimulus": "<p id=\"stim\">SODA</p>", "conditions": [18, 1200, "v", 18000], "internal_node_id": "0.0-48.0", "trial": 1, "time_elapsed": 407423, "serialpos": 11, "key_press": -1, "wordID": 1340, "type": "PRES_VIS", "trial_index": 66}, "uniqueid": "MTK1888:3QL2OFSM97PRVS8ZMKUM28IJNAPNCE", "dateTime": 1516500742612}, {"current_trial": 67, "trialdata": {"rt": -1, "trial_type": "single-stim", "word": "label", "stimulus": "<p id=\"stim\">LABEL</p>", "conditions": [18, 1200, "v", 18000], "internal_node_id": "0.0-49.0", "trial": 1, "time_elapsed": 409610, "serialpos": 12, "key_press": -1, "wordID": 789, "type": "PRES_VIS", "trial_index": 67}, "uniqueid": "MTK1888:3QL2OFSM97PRVS8ZMKUM28IJNAPNCE", "dateTime": 1516500744798}, {"current_trial": 68, "trialdata": {"rt": -1, "trial_type": "single-stim", "word": "pecan", "stimulus": "<p id=\"stim\">PECAN</p>", "conditions": [18, 1200, "v", 18000], "internal_node_id": "0.0-50.0", "trial": 1, "time_elapsed": 411658, "serialpos": 13, "key_press": -1, "wordID": 1035, "type": "PRES_VIS", "trial_index": 68}, "uniqueid": "MTK1888:3QL2OFSM97PRVS8ZMKUM28IJNAPNCE", "dateTime": 1516500746857}, {"current_trial": 69, "trialdata": {"rt": -1, "trial_type": "single-stim", "word": "typist", "stimulus": "<p id=\"stim\">TYPIST</p>", "conditions": [18, 1200, "v", 18000], "internal_node_id": "0.0-51.0", "trial": 1, "time_elapsed": 414028, "serialpos": 14, "key_press": -1, "wordID": 1531, "type": "PRES_VIS", "trial_index": 69}, "uniqueid": "MTK1888:3QL2OFSM97PRVS8ZMKUM28IJNAPNCE", "dateTime": 1516500749216}, {"current_trial": 70, "trialdata": {"rt": -1, "trial_type": "single-stim", "word": "highway", "stimulus": "<p id=\"stim\">HIGHWAY</p>", "conditions": [18, 1200, "v", 18000], "internal_node_id": "0.0-52.0", "trial": 1, "time_elapsed": 416416, "serialpos": 15, "key_press": -1, "wordID": 706, "type": "PRES_VIS", "trial_index": 70}, "uniqueid": "MTK1888:3QL2OFSM97PRVS8ZMKUM28IJNAPNCE", "dateTime": 1516500751605}, {"current_trial": 71, "trialdata": {"rt": -1, "trial_type": "single-stim", "word": "turnip", "stimulus": "<p id=\"stim\">TURNIP</p>", "conditions": [18, 1200, "v", 18000], "internal_node_id": "0.0-53.0", "trial": 1, "time_elapsed": 418650, "serialpos": 16, "key_press": -1, "wordID": 1520, "type": "PRES_VIS", "trial_index": 71}, "uniqueid": "MTK1888:3QL2OFSM97PRVS8ZMKUM28IJNAPNCE", "dateTime": 1516500753838}, {"current_trial": 72, "trialdata": {"rt": -1, "trial_type": "single-stim", "word": "ox", "stimulus": "<p id=\"stim\">OX</p>", "conditions": [18, 1200, "v", 18000], "internal_node_id": "0.0-54.0", "trial": 1, "time_elapsed": 420808, "serialpos": 17, "key_press": -1, "wordID": 993, "type": "PRES_VIS", "trial_index": 72}, "uniqueid": "MTK1888:3QL2OFSM97PRVS8ZMKUM28IJNAPNCE", "dateTime": 1516500755996}, {"current_trial": 73, "trialdata": {"rt": -1, "trial_type": "single-stim", "stimulus": "", "internal_node_id": "0.0-55.0-0.0", "time_elapsed": 423043, "key_press": -1, "type": "PRE_RECALL_DELAY", "trial_index": 73}, "uniqueid": "MTK1888:3QL2OFSM97PRVS8ZMKUM28IJNAPNCE", "dateTime": 1516500758231}, {"current_trial": 74, "trialdata": {"rt": -1000, "trial_type": "single-audio", "stimulus": "/static/audio/400Hz.wav", "internal_node_id": "0.0-56.0", "time_elapsed": 423564, "key_press": -1, "type": "PRE_RECALL_ALERT", "trial_index": 74}, "uniqueid": "MTK1888:3QL2OFSM97PRVS8ZMKUM28IJNAPNCE", "dateTime": 1516500758752}, {"current_trial": 75, "trialdata": {"rt": [3306, 4765, 6990, 8731, 11147, 14373, 16853, 19608, 22197, 25884, 28763, 33973, 51833, 56281], "recwords": ["wife", "star", "wardrobe", "turnup", "ox", "wardrobe", "highway", "star", "comet", "silk", "pebble", "fragrance", "sidewalk", "friend"], "key_times": [1595, 1883, 2083, 2561, 3306, 3621, 3810, 4037, 4270, 4765, 5081, 5243, 5355, 5650, 5925, 6205, 6450, 6710, 6990, 7492, 7676, 7789, 8004, 8275, 8442, 8731, 8921, 9398, 11147, 11438, 11607, 11713, 12041, 12302, 12489, 12950, 13532, 14373, 14734, 14913, 15045, 15134, 15551, 15720, 15907, 16853, 18588, 18717, 18930, 19011, 19608, 19907, 20035, 20312, 20923, 21252, 22197, 24582, 24753, 24934, 25251, 25884, 27000, 27571, 27915, 28069, 28247, 28380, 28763, 31085, 31712, 31839, 32086, 32279, 32452, 32677, 32827, 32979, 33161, 33403, 33973, 46616, 48294, 48572, 49257, 49514, 49702, 50516, 50761, 51833, 54935, 55314, 55471, 55593, 55738, 55881, 56281], "trial_type": "free-recall", "conditions": [18, 1200, "v", 18000], "internal_node_id": "0.0-57.0-0.0", "key_presses": [87, 73, 70, 69, 13, 83, 84, 65, 82, 13, 87, 65, 82, 68, 82, 79, 66, 69, 13, 84, 85, 82, 78, 85, 80, 32, 79, 88, 13, 87, 65, 82, 68, 82, 79, 66, 69, 13, 72, 73, 71, 72, 87, 65, 89, 13, 83, 84, 65, 82, 13, 67, 79, 77, 69, 84, 13, 83, 73, 76, 75, 13, 80, 69, 66, 66, 76, 69, 13, 71, 8, 70, 82, 65, 71, 82, 65, 78, 67, 69, 13, 83, 73, 68, 69, 87, 65, 76, 75, 13, 70, 82, 73, 69, 78, 68, 13], "trial": 1, "time_elapsed": 483571, "type": "FREE_RECALL", "trial_index": 75}, "uniqueid": "MTK1888:3QL2OFSM97PRVS8ZMKUM28IJNAPNCE", "dateTime": 1516500818764}, {"current_trial": 76, "trialdata": {"rt": 23346, "trial_type": "text", "internal_node_id": "0.0-58.0", "time_elapsed": 508926, "key_press": 32, "type": "INSTRUCTIONS", "trial_index": 76}, "uniqueid": "MTK1888:3QL2OFSM97PRVS8ZMKUM28IJNAPNCE", "dateTime": 1516500844114}, {"current_trial": 77, "trialdata": {"rt": [3362, 5706, 7999, 16825, 21794, 23977], "trial_type": "math-distractor", "key_times": [2843, 3015, 3362, 4793, 5004, 5706, 7015, 7278, 7999, 16199, 16526, 16825, 21158, 21414, 21794, 23394, 23977], "responses": ["13", "14", "15", "20", "25", "5"], "num2": [5, 8, 4, 7, 8, 1, 6], "num3": [1, 4, 5, 8, 8, 1, 4], "conditions": [24, 1600, "v", 24000], "internal_node_id": "0.0-59.0", "key_presses": [97, 99, 13, 97, 100, 13, 97, 101, 13, 98, 96, 13, 98, 101, 13, 101, 13], "trial": 2, "time_elapsed": 533934, "type": "DISTRACTOR", "trial_index": 77, "num1": [7, 2, 6, 5, 9, 3, 2]}, "uniqueid": "MTK1888:3QL2OFSM97PRVS8ZMKUM28IJNAPNCE", "dateTime": 1516500869122}, {"current_trial": 78, "trialdata": {"rt": -1, "trial_type": "single-stim", "stimulus": "<p id=\"stim\">10</p>", "internal_node_id": "0.0-60.0-0.0", "time_elapsed": 536938, "key_press": -1, "trial_index": 78}, "uniqueid": "MTK1888:3QL2OFSM97PRVS8ZMKUM28IJNAPNCE", "dateTime": 1516500872126}, {"current_trial": 79, "trialdata": {"rt": -1, "trial_type": "single-stim", "stimulus": "<p id=\"stim\">9</p>", "internal_node_id": "0.0-60.0-1.0", "time_elapsed": 537941, "key_press": -1, "trial_index": 79}, "uniqueid": "MTK1888:3QL2OFSM97PRVS8ZMKUM28IJNAPNCE", "dateTime": 1516500873129}, {"current_trial": 80, "trialdata": {"rt": -1, "trial_type": "single-stim", "stimulus": "<p id=\"stim\">8</p>", "internal_node_id": "0.0-60.0-2.0", "time_elapsed": 538945, "key_press": -1, "trial_index": 80}, "uniqueid": "MTK1888:3QL2OFSM97PRVS8ZMKUM28IJNAPNCE", "dateTime": 1516500874133}, {"current_trial": 81, "trialdata": {"rt": -1, "trial_type": "single-stim", "stimulus": "<p id=\"stim\">7</p>", "internal_node_id": "0.0-60.0-3.0", "time_elapsed": 539948, "key_press": -1, "trial_index": 81}, "uniqueid": "MTK1888:3QL2OFSM97PRVS8ZMKUM28IJNAPNCE", "dateTime": 1516500875136}, {"current_trial": 82, "trialdata": {"rt": -1, "trial_type": "single-stim", "stimulus": "<p id=\"stim\">6</p>", "internal_node_id": "0.0-60.0-4.0", "time_elapsed": 540952, "key_press": -1, "trial_index": 82}, "uniqueid": "MTK1888:3QL2OFSM97PRVS8ZMKUM28IJNAPNCE", "dateTime": 1516500876140}, {"current_trial": 83, "trialdata": {"rt": -1, "trial_type": "single-stim", "stimulus": "<p id=\"stim\">5</p>", "internal_node_id": "0.0-60.0-5.0", "time_elapsed": 541955, "key_press": -1, "trial_index": 83}, "uniqueid": "MTK1888:3QL2OFSM97PRVS8ZMKUM28IJNAPNCE", "dateTime": 1516500877143}, {"current_trial": 84, "trialdata": {"rt": -1, "trial_type": "single-stim", "stimulus": "<p id=\"stim\">4</p>", "internal_node_id": "0.0-60.0-6.0", "time_elapsed": 542958, "key_press": -1, "trial_index": 84}, "uniqueid": "MTK1888:3QL2OFSM97PRVS8ZMKUM28IJNAPNCE", "dateTime": 1516500878147}, {"current_trial": 85, "trialdata": {"rt": -1, "trial_type": "single-stim", "stimulus": "<p id=\"stim\">3</p>", "internal_node_id": "0.0-60.0-7.0", "time_elapsed": 543962, "key_press": -1, "trial_index": 85}, "uniqueid": "MTK1888:3QL2OFSM97PRVS8ZMKUM28IJNAPNCE", "dateTime": 1516500879150}, {"current_trial": 86, "trialdata": {"rt": -1, "trial_type": "single-stim", "stimulus": "<p id=\"stim\">2</p>", "internal_node_id": "0.0-60.0-8.0", "time_elapsed": 544966, "key_press": -1, "trial_index": 86}, "uniqueid": "MTK1888:3QL2OFSM97PRVS8ZMKUM28IJNAPNCE", "dateTime": 1516500880154}, {"current_trial": 87, "trialdata": {"rt": -1, "trial_type": "single-stim", "stimulus": "<p id=\"stim\">1</p>", "internal_node_id": "0.0-60.0-9.0", "time_elapsed": 545971, "key_press": -1, "trial_index": 87}, "uniqueid": "MTK1888:3QL2OFSM97PRVS8ZMKUM28IJNAPNCE", "dateTime": 1516500881160}, {"current_trial": 88, "trialdata": {"rt": -1, "trial_type": "single-stim", "stimulus": "<p id=\"stim\">+</p>", "internal_node_id": "0.0-61.0-0.0", "time_elapsed": 547475, "key_press": -1, "type": "FIXATION", "trial_index": 88}, "uniqueid": "MTK1888:3QL2OFSM97PRVS8ZMKUM28IJNAPNCE", "dateTime": 1516500882663}, {"current_trial": 89, "trialdata": {"rt": -1, "trial_type": "single-stim", "word": "match", "stimulus": "<p id=\"stim\">MATCH</p>", "conditions": [24, 1600, "v", 24000], "internal_node_id": "0.0-62.0", "trial": 2, "time_elapsed": 549079, "serialpos": 0, "key_press": -1, "wordID": 877, "type": "PRES_VIS", "trial_index": 89}, "uniqueid": "MTK1888:3QL2OFSM97PRVS8ZMKUM28IJNAPNCE", "dateTime": 1516500884268}, {"current_trial": 90, "trialdata": {"rt": -1, "trial_type": "single-stim", "word": "pizza", "stimulus": "<p id=\"stim\">PIZZA</p>", "conditions": [24, 1600, "v", 24000], "internal_node_id": "0.0-63.0", "trial": 2, "time_elapsed": 551653, "serialpos": 1, "key_press": -1, "wordID": 1078, "type": "PRES_VIS", "trial_index": 90}, "uniqueid": "MTK1888:3QL2OFSM97PRVS8ZMKUM28IJNAPNCE", "dateTime": 1516500886842}, {"current_trial": 91, "trialdata": {"rt": -1, "trial_type": "single-stim", "word": "milk", "stimulus": "<p id=\"stim\">MILK</p>", "conditions": [24, 1600, "v", 24000], "internal_node_id": "0.0-64.0", "trial": 2, "time_elapsed": 554261, "serialpos": 2, "key_press": -1, "wordID": 894, "type": "PRES_VIS", "trial_index": 91}, "uniqueid": "MTK1888:3QL2OFSM97PRVS8ZMKUM28IJNAPNCE", "dateTime": 1516500889450}, {"current_trial": 92, "trialdata": {"rt": -1, "trial_type": "single-stim", "word": "country", "stimulus": "<p id=\"stim\">COUNTRY</p>", "conditions": [24, 1600, "v", 24000], "internal_node_id": "0.0-65.0", "trial": 2, "time_elapsed": 556878, "serialpos": 3, "key_press": -1, "wordID": 387, "type": "PRES_VIS", "trial_index": 92}, "uniqueid": "MTK1888:3QL2OFSM97PRVS8ZMKUM28IJNAPNCE", "dateTime": 1516500892067}, {"current_trial": 93, "trialdata": {"rt": -1, "trial_type": "single-stim", "word": "muffin", "stimulus": "<p id=\"stim\">MUFFIN</p>", "conditions": [24, 1600, "v", 24000], "internal_node_id": "0.0-66.0", "trial": 2, "time_elapsed": 559658, "serialpos": 4, "key_press": -1, "wordID": 928, "type": "PRES_VIS", "trial_index": 93}, "uniqueid": "MTK1888:3QL2OFSM97PRVS8ZMKUM28IJNAPNCE", "dateTime": 1516500894846}, {"current_trial": 94, "trialdata": {"rt": -1, "trial_type": "single-stim", "word": "eyelash", "stimulus": "<p id=\"stim\">EYELASH</p>", "conditions": [24, 1600, "v", 24000], "internal_node_id": "0.0-67.0", "trial": 2, "time_elapsed": 562112, "serialpos": 5, "key_press": -1, "wordID": 545, "type": "PRES_VIS", "trial_index": 94}, "uniqueid": "MTK1888:3QL2OFSM97PRVS8ZMKUM28IJNAPNCE", "dateTime": 1516500897300}, {"current_trial": 95, "trialdata": {"rt": -1, "trial_type": "single-stim", "word": "world", "stimulus": "<p id=\"stim\">WORLD</p>", "conditions": [24, 1600, "v", 24000], "internal_node_id": "0.0-68.0", "trial": 2, "time_elapsed": 564886, "serialpos": 6, "key_press": -1, "wordID": 1621, "type": "PRES_VIS", "trial_index": 95}, "uniqueid": "MTK1888:3QL2OFSM97PRVS8ZMKUM28IJNAPNCE", "dateTime": 1516500900074}, {"current_trial": 96, "trialdata": {"rt": -1, "trial_type": "single-stim", "word": "female", "stimulus": "<p id=\"stim\">FEMALE</p>", "conditions": [24, 1600, "v", 24000], "internal_node_id": "0.0-69.0", "trial": 2, "time_elapsed": 567534, "serialpos": 7, "key_press": -1, "wordID": 558, "type": "PRES_VIS", "trial_index": 96}, "uniqueid": "MTK1888:3QL2OFSM97PRVS8ZMKUM28IJNAPNCE", "dateTime": 1516500902722}, {"current_trial": 97, "trialdata": {"rt": -1, "trial_type": "single-stim", "word": "judge", "stimulus": "<p id=\"stim\">JUDGE</p>", "conditions": [24, 1600, "v", 24000], "internal_node_id": "0.0-70.0", "trial": 2, "time_elapsed": 570299, "serialpos": 8, "key_press": -1, "wordID": 760, "type": "PRES_VIS", "trial_index": 97}, "uniqueid": "MTK1888:3QL2OFSM97PRVS8ZMKUM28IJNAPNCE", "dateTime": 1516500905487}, {"current_trial": 98, "trialdata": {"rt": -1, "trial_type": "single-stim", "word": "slime", "stimulus": "<p id=\"stim\">SLIME</p>", "conditions": [24, 1600, "v", 24000], "internal_node_id": "0.0-71.0", "trial": 2, "time_elapsed": 572875, "serialpos": 9, "key_press": -1, "wordID": 1326, "type": "PRES_VIS", "trial_index": 98}, "uniqueid": "MTK1888:3QL2OFSM97PRVS8ZMKUM28IJNAPNCE", "dateTime": 1516500908063}, {"current_trial": 99, "trialdata": {"rt": -1, "trial_type": "single-stim", "word": "piston", "stimulus": "<p id=\"stim\">PISTON</p>", "conditions": [24, 1600, "v", 24000], "internal_node_id": "0.0-72.0", "trial": 2, "time_elapsed": 575557, "serialpos": 10, "key_press": -1, "wordID": 1075, "type": "PRES_VIS", "trial_index": 99}, "uniqueid": "MTK1888:3QL2OFSM97PRVS8ZMKUM28IJNAPNCE", "dateTime": 1516500910746}, {"current_trial": 100, "trialdata": {"rt": -1, "trial_type": "single-stim", "word": "valve", "stimulus": "<p id=\"stim\">VALVE</p>", "conditions": [24, 1600, "v", 24000], "internal_node_id": "0.0-73.0", "trial": 2, "time_elapsed": 578233, "serialpos": 11, "key_press": -1, "wordID": 1545, "type": "PRES_VIS", "trial_index": 100}, "uniqueid": "MTK1888:3QL2OFSM97PRVS8ZMKUM28IJNAPNCE", "dateTime": 1516500913421}, {"current_trial": 101, "trialdata": {"rt": -1, "trial_type": "single-stim", "word": "guitar", "stimulus": "<p id=\"stim\">GUITAR</p>", "conditions": [24, 1600, "v", 24000], "internal_node_id": "0.0-74.0", "trial": 2, "time_elapsed": 580952, "serialpos": 12, "key_press": -1, "wordID": 669, "type": "PRES_VIS", "trial_index": 101}, "uniqueid": "MTK1888:3QL2OFSM97PRVS8ZMKUM28IJNAPNCE", "dateTime": 1516500916140}, {"current_trial": 102, "trialdata": {"rt": -1, "trial_type": "single-stim", "word": "cloud", "stimulus": "<p id=\"stim\">CLOUD</p>", "conditions": [24, 1600, "v", 24000], "internal_node_id": "0.0-75.0", "trial": 2, "time_elapsed": 583597, "serialpos": 13, "key_press": -1, "wordID": 327, "type": "PRES_VIS", "trial_index": 102}, "uniqueid": "MTK1888:3QL2OFSM97PRVS8ZMKUM28IJNAPNCE", "dateTime": 1516500918786}, {"current_trial": 103, "trialdata": {"rt": -1, "trial_type": "single-stim", "word": "shark", "stimulus": "<p id=\"stim\">SHARK</p>", "conditions": [24, 1600, "v", 24000], "internal_node_id": "0.0-76.0", "trial": 2, "time_elapsed": 586289, "serialpos": 14, "key_press": -1, "wordID": 1274, "type": "PRES_VIS", "trial_index": 103}, "uniqueid": "MTK1888:3QL2OFSM97PRVS8ZMKUM28IJNAPNCE", "dateTime": 1516500921478}, {"current_trial": 104, "trialdata": {"rt": -1, "trial_type": "single-stim", "word": "lion", "stimulus": "<p id=\"stim\">LION</p>", "conditions": [24, 1600, "v", 24000], "internal_node_id": "0.0-77.0", "trial": 2, "time_elapsed": 589047, "serialpos": 15, "key_press": -1, "wordID": 826, "type": "PRES_VIS", "trial_index": 104}, "uniqueid": "MTK1888:3QL2OFSM97PRVS8ZMKUM28IJNAPNCE", "dateTime": 1516500924235}, {"current_trial": 105, "trialdata": {"rt": -1, "trial_type": "single-stim", "word": "crib", "stimulus": "<p id=\"stim\">CRIB</p>", "conditions": [24, 1600, "v", 24000], "internal_node_id": "0.0-78.0", "trial": 2, "time_elapsed": 591771, "serialpos": 16, "key_press": -1, "wordID": 406, "type": "PRES_VIS", "trial_index": 105}, "uniqueid": "MTK1888:3QL2OFSM97PRVS8ZMKUM28IJNAPNCE", "dateTime": 1516500926959}, {"current_trial": 106, "trialdata": {"rt": -1, "trial_type": "single-stim", "word": "mattress", "stimulus": "<p id=\"stim\">MATTRESS</p>", "conditions": [24, 1600, "v", 24000], "internal_node_id": "0.0-79.0", "trial": 2, "time_elapsed": 594436, "serialpos": 17, "key_press": -1, "wordID": 878, "type": "PRES_VIS", "trial_index": 106}, "uniqueid": "MTK1888:3QL2OFSM97PRVS8ZMKUM28IJNAPNCE", "dateTime": 1516500929624}, {"current_trial": 107, "trialdata": {"rt": -1, "trial_type": "single-stim", "word": "tombstone", "stimulus": "<p id=\"stim\">TOMBSTONE</p>", "conditions": [24, 1600, "v", 24000], "internal_node_id": "0.0-80.0", "trial": 2, "time_elapsed": 596954, "serialpos": 18, "key_press": -1, "wordID": 1477, "type": "PRES_VIS", "trial_index": 107}, "uniqueid": "MTK1888:3QL2OFSM97PRVS8ZMKUM28IJNAPNCE", "dateTime": 1516500932142}, {"current_trial": 108, "trialdata": {"rt": -1, "trial_type": "single-stim", "word": "scotch", "stimulus": "<p id=\"stim\">SCOTCH</p>", "conditions": [24, 1600, "v", 24000], "internal_node_id": "0.0-81.0", "trial": 2, "time_elapsed": 599598, "serialpos": 19, "key_press": -1, "wordID": 1250, "type": "PRES_VIS", "trial_index": 108}, "uniqueid": "MTK1888:3QL2OFSM97PRVS8ZMKUM28IJNAPNCE", "dateTime": 1516500934786}, {"current_trial": 109, "trialdata": {"rt": -1, "trial_type": "single-stim", "word": "antler", "stimulus": "<p id=\"stim\">ANTLER</p>", "conditions": [24, 1600, "v", 24000], "internal_node_id": "0.0-82.0", "trial": 2, "time_elapsed": 602144, "serialpos": 20, "key_press": -1, "wordID": 28, "type": "PRES_VIS", "trial_index": 109}, "uniqueid": "MTK1888:3QL2OFSM97PRVS8ZMKUM28IJNAPNCE", "dateTime": 1516500937333}, {"current_trial": 110, "trialdata": {"rt": -1, "trial_type": "single-stim", "word": "harp", "stimulus": "<p id=\"stim\">HARP</p>", "conditions": [24, 1600, "v", 24000], "internal_node_id": "0.0-83.0", "trial": 2, "time_elapsed": 604883, "serialpos": 21, "key_press": -1, "wordID": 688, "type": "PRES_VIS", "trial_index": 110}, "uniqueid": "MTK1888:3QL2OFSM97PRVS8ZMKUM28IJNAPNCE", "dateTime": 1516500940071}, {"current_trial": 111, "trialdata": {"rt": -1, "trial_type": "single-stim", "word": "hand", "stimulus": "<p id=\"stim\">HAND</p>", "conditions": [24, 1600, "v", 24000], "internal_node_id": "0.0-84.0", "trial": 2, "time_elapsed": 607578, "serialpos": 22, "key_press": -1, "wordID": 682, "type": "PRES_VIS", "trial_index": 111}, "uniqueid": "MTK1888:3QL2OFSM97PRVS8ZMKUM28IJNAPNCE", "dateTime": 1516500942767}, {"current_trial": 112, "trialdata": {"rt": -1, "trial_type": "single-stim", "word": "bison", "stimulus": "<p id=\"stim\">BISON</p>", "conditions": [24, 1600, "v", 24000], "internal_node_id": "0.0-85.0", "trial": 2, "time_elapsed": 610137, "serialpos": 23, "key_press": -1, "wordID": 130, "type": "PRES_VIS", "trial_index": 112}, "uniqueid": "MTK1888:3QL2OFSM97PRVS8ZMKUM28IJNAPNCE", "dateTime": 1516500945325}, {"current_trial": 113, "trialdata": {"rt": -1, "trial_type": "single-stim", "stimulus": "", "internal_node_id": "0.0-86.0-0.0", "time_elapsed": 612568, "key_press": -1, "type": "PRE_RECALL_DELAY", "trial_index": 113}, "uniqueid": "MTK1888:3QL2OFSM97PRVS8ZMKUM28IJNAPNCE", "dateTime": 1516500947756}, {"current_trial": 114, "trialdata": {"rt": -1000, "trial_type": "single-audio", "stimulus": "/static/audio/400Hz.wav", "internal_node_id": "0.0-87.0", "time_elapsed": 613084, "key_press": -1, "type": "PRE_RECALL_ALERT", "trial_index": 114}, "uniqueid": "MTK1888:3QL2OFSM97PRVS8ZMKUM28IJNAPNCE", "dateTime": 1516500948272}, {"current_trial": 115, "trialdata": {"rt": [5014, 7247, 11924, 15101, 16898, 20317, 30312, 33220, 34940, 36190, 56089], "recwords": ["judge", "slime", "antler", "country", "world", "female", "valve", "piston", "harp", "hand", "antler"], "key_times": [1994, 2347, 2531, 2798, 3055, 5014, 5624, 5884, 6056, 6395, 6761, 7247, 7543, 9117, 9271, 9842, 9962, 10210, 10457, 10560, 11924, 13816, 14062, 14174, 14424, 14507, 14746, 14869, 15101, 15250, 15362, 15755, 15930, 16273, 16898, 17929, 18328, 18525, 18825, 19036, 19212, 20317, 29135, 29418, 29625, 29826, 30064, 30312, 30664, 30862, 31129, 31454, 31600, 31862, 32056, 32215, 32382, 32430, 33220, 33746, 34151, 34321, 34604, 34940, 35240, 35429, 35590, 35814, 36190, 54743, 55044, 55306, 55480, 55653, 55748, 56089], "trial_type": "free-recall", "conditions": [24, 1600, "v", 24000], "internal_node_id": "0.0-88.0-0.0", "key_presses": [74, 85, 68, 71, 69, 13, 83, 76, 73, 77, 69, 13, 65, 78, 76, 8, 84, 76, 69, 82, 13, 67, 79, 85, 78, 84, 82, 89, 32, 87, 79, 82, 76, 68, 13, 70, 69, 77, 65, 76, 69, 13, 86, 65, 76, 86, 69, 13, 80, 79, 83, 8, 8, 73, 83, 84, 79, 78, 13, 72, 65, 82, 80, 13, 72, 65, 78, 68, 13, 65, 78, 84, 76, 69, 82, 13], "trial": 2, "time_elapsed": 673090, "type": "FREE_RECALL", "trial_index": 115}, "uniqueid": "MTK1888:3QL2OFSM97PRVS8ZMKUM28IJNAPNCE", "dateTime": 1516501008284}, {"current_trial": 116, "trialdata": {"rt": 2809, "trial_type": "text", "internal_node_id": "0.0-89.0", "time_elapsed": 677907, "key_press": 32, "type": "INSTRUCTIONS", "trial_index": 116}, "uniqueid": "MTK1888:3QL2OFSM97PRVS8ZMKUM28IJNAPNCE", "dateTime": 1516501013095}, {"current_trial": 117, "trialdata": {"rt": [6001, 10466], "trial_type": "math-distractor", "key_times": [4687, 4908, 6001, 9338, 9620, 10466], "responses": ["13", "20"], "num2": [2, 8, 2], "num3": [4, 4, 4], "conditions": [12, 800, "v", 12000], "internal_node_id": "0.0-90.0", "key_presses": [97, 99, 13, 98, 96, 13], "trial": 3, "time_elapsed": 691914, "type": "DISTRACTOR", "trial_index": 117, "num1": [7, 8, 6]}, "uniqueid": "MTK1888:3QL2OFSM97PRVS8ZMKUM28IJNAPNCE", "dateTime": 1516501027102}, {"current_trial": 118, "trialdata": {"rt": -1, "trial_type": "single-stim", "stimulus": "<p id=\"stim\">10</p>", "internal_node_id": "0.0-91.0-0.0", "time_elapsed": 694917, "key_press": -1, "trial_index": 118}, "uniqueid": "MTK1888:3QL2OFSM97PRVS8ZMKUM28IJNAPNCE", "dateTime": 1516501030105}, {"current_trial": 119, "trialdata": {"rt": -1, "trial_type": "single-stim", "stimulus": "<p id=\"stim\">9</p>", "internal_node_id": "0.0-91.0-1.0", "time_elapsed": 695921, "key_press": -1, "trial_index": 119}, "uniqueid": "MTK1888:3QL2OFSM97PRVS8ZMKUM28IJNAPNCE", "dateTime": 1516501031109}, {"current_trial": 120, "trialdata": {"rt": -1, "trial_type": "single-stim", "stimulus": "<p id=\"stim\">8</p>", "internal_node_id": "0.0-91.0-2.0", "time_elapsed": 696925, "key_press": -1, "trial_index": 120}, "uniqueid": "MTK1888:3QL2OFSM97PRVS8ZMKUM28IJNAPNCE", "dateTime": 1516501032113}, {"current_trial": 121, "trialdata": {"rt": -1, "trial_type": "single-stim", "stimulus": "<p id=\"stim\">7</p>", "internal_node_id": "0.0-91.0-3.0", "time_elapsed": 697930, "key_press": -1, "trial_index": 121}, "uniqueid": "MTK1888:3QL2OFSM97PRVS8ZMKUM28IJNAPNCE", "dateTime": 1516501033118}, {"current_trial": 122, "trialdata": {"rt": -1, "trial_type": "single-stim", "stimulus": "<p id=\"stim\">6</p>", "internal_node_id": "0.0-91.0-4.0", "time_elapsed": 698935, "key_press": -1, "trial_index": 122}, "uniqueid": "MTK1888:3QL2OFSM97PRVS8ZMKUM28IJNAPNCE", "dateTime": 1516501034124}, {"current_trial": 123, "trialdata": {"rt": -1, "trial_type": "single-stim", "stimulus": "<p id=\"stim\">5</p>", "internal_node_id": "0.0-91.0-5.0", "time_elapsed": 699939, "key_press": -1, "trial_index": 123}, "uniqueid": "MTK1888:3QL2OFSM97PRVS8ZMKUM28IJNAPNCE", "dateTime": 1516501035128}, {"current_trial": 124, "trialdata": {"rt": -1, "trial_type": "single-stim", "stimulus": "<p id=\"stim\">4</p>", "internal_node_id": "0.0-91.0-6.0", "time_elapsed": 700943, "key_press": -1, "trial_index": 124}, "uniqueid": "MTK1888:3QL2OFSM97PRVS8ZMKUM28IJNAPNCE", "dateTime": 1516501036131}, {"current_trial": 125, "trialdata": {"rt": -1, "trial_type": "single-stim", "stimulus": "<p id=\"stim\">3</p>", "internal_node_id": "0.0-91.0-7.0", "time_elapsed": 701946, "key_press": -1, "trial_index": 125}, "uniqueid": "MTK1888:3QL2OFSM97PRVS8ZMKUM28IJNAPNCE", "dateTime": 1516501037135}, {"current_trial": 126, "trialdata": {"rt": -1, "trial_type": "single-stim", "stimulus": "<p id=\"stim\">2</p>", "internal_node_id": "0.0-91.0-8.0", "time_elapsed": 702950, "key_press": -1, "trial_index": 126}, "uniqueid": "MTK1888:3QL2OFSM97PRVS8ZMKUM28IJNAPNCE", "dateTime": 1516501038139}, {"current_trial": 127, "trialdata": {"rt": -1, "trial_type": "single-stim", "stimulus": "<p id=\"stim\">1</p>", "internal_node_id": "0.0-91.0-9.0", "time_elapsed": 703955, "key_press": -1, "trial_index": 127}, "uniqueid": "MTK1888:3QL2OFSM97PRVS8ZMKUM28IJNAPNCE", "dateTime": 1516501039145}, {"current_trial": 128, "trialdata": {"rt": -1, "trial_type": "single-stim", "stimulus": "<p id=\"stim\">+</p>", "internal_node_id": "0.0-92.0-0.0", "time_elapsed": 705460, "key_press": -1, "type": "FIXATION", "trial_index": 128}, "uniqueid": "MTK1888:3QL2OFSM97PRVS8ZMKUM28IJNAPNCE", "dateTime": 1516501040649}, {"current_trial": 129, "trialdata": {"rt": -1, "trial_type": "single-stim", "word": "survey", "stimulus": "<p id=\"stim\">SURVEY</p>", "conditions": [12, 800, "v", 12000], "internal_node_id": "0.0-93.0", "trial": 3, "time_elapsed": 706263, "serialpos": 0, "key_press": -1, "wordID": 1413, "type": "PRES_VIS", "trial_index": 129}, "uniqueid": "MTK1888:3QL2OFSM97PRVS8ZMKUM28IJNAPNCE", "dateTime": 1516501041452}, {"current_trial": 130, "trialdata": {"rt": -1, "trial_type": "single-stim", "word": "agent", "stimulus": "<p id=\"stim\">AGENT</p>", "conditions": [12, 800, "v", 12000], "internal_node_id": "0.0-94.0", "trial": 3, "time_elapsed": 707985, "serialpos": 1, "key_press": -1, "wordID": 9, "type": "PRES_VIS", "trial_index": 130}, "uniqueid": "MTK1888:3QL2OFSM97PRVS8ZMKUM28IJNAPNCE", "dateTime": 1516501043174}, {"current_trial": 131, "trialdata": {"rt": -1, "trial_type": "single-stim", "word": "rooster", "stimulus": "<p id=\"stim\">ROOSTER</p>", "conditions": [12, 800, "v", 12000], "internal_node_id": "0.0-95.0", "trial": 3, "time_elapsed": 709934, "serialpos": 2, "key_press": -1, "wordID": 1208, "type": "PRES_VIS", "trial_index": 131}, "uniqueid": "MTK1888:3QL2OFSM97PRVS8ZMKUM28IJNAPNCE", "dateTime": 1516501045123}, {"current_trial": 132, "trialdata": {"rt": -1, "trial_type": "single-stim", "word": "stamp", "stimulus": "<p id=\"stim\">STAMP</p>", "conditions": [12, 800, "v", 12000], "internal_node_id": "0.0-96.0", "trial": 3, "time_elapsed": 711700, "serialpos": 3, "key_press": -1, "wordID": 1369, "type": "PRES_VIS", "trial_index": 132}, "uniqueid": "MTK1888:3QL2OFSM97PRVS8ZMKUM28IJNAPNCE", "dateTime": 1516501046888}, {"current_trial": 133, "trialdata": {"rt": -1, "trial_type": "single-stim", "word": "money", "stimulus": "<p id=\"stim\">MONEY</p>", "conditions": [12, 800, "v", 12000], "internal_node_id": "0.0-97.0", "trial": 3, "time_elapsed": 713627, "serialpos": 4, "key_press": -1, "wordID": 907, "type": "PRES_VIS", "trial_index": 133}, "uniqueid": "MTK1888:3QL2OFSM97PRVS8ZMKUM28IJNAPNCE", "dateTime": 1516501048816}, {"current_trial": 134, "trialdata": {"rt": -1, "trial_type": "single-stim", "word": "bacon", "stimulus": "<p id=\"stim\">BACON</p>", "conditions": [12, 800, "v", 12000], "internal_node_id": "0.0-98.0", "trial": 3, "time_elapsed": 715549, "serialpos": 5, "key_press": -1, "wordID": 66, "type": "PRES_VIS", "trial_index": 134}, "uniqueid": "MTK1888:3QL2OFSM97PRVS8ZMKUM28IJNAPNCE", "dateTime": 1516501050737}, {"current_trial": 135, "trialdata": {"rt": -1, "trial_type": "single-stim", "word": "tuba", "stimulus": "<p id=\"stim\">TUBA</p>", "conditions": [12, 800, "v", 12000], "internal_node_id": "0.0-99.0", "trial": 3, "time_elapsed": 717386, "serialpos": 6, "key_press": -1, "wordID": 1514, "type": "PRES_VIS", "trial_index": 135}, "uniqueid": "MTK1888:3QL2OFSM97PRVS8ZMKUM28IJNAPNCE", "dateTime": 1516501052575}, {"current_trial": 136, "trialdata": {"rt": -1, "trial_type": "single-stim", "word": "briefcase", "stimulus": "<p id=\"stim\">BRIEFCASE</p>", "conditions": [12, 800, "v", 12000], "internal_node_id": "0.0-100.0", "trial": 3, "time_elapsed": 719066, "serialpos": 7, "key_press": -1, "wordID": 174, "type": "PRES_VIS", "trial_index": 136}, "uniqueid": "MTK1888:3QL2OFSM97PRVS8ZMKUM28IJNAPNCE", "dateTime": 1516501054260}, {"current_trial": 137, "trialdata": {"rt": -1, "trial_type": "single-stim", "word": "pocket", "stimulus": "<p id=\"stim\">POCKET</p>", "conditions": [12, 800, "v", 12000], "internal_node_id": "0.0-101.0", "trial": 3, "time_elapsed": 721060, "serialpos": 8, "key_press": -1, "wordID": 1092, "type": "PRES_VIS", "trial_index": 137}, "uniqueid": "MTK1888:3QL2OFSM97PRVS8ZMKUM28IJNAPNCE", "dateTime": 1516501056248}, {"current_trial": 138, "trialdata": {"rt": -1, "trial_type": "single-stim", "word": "juggler", "stimulus": "<p id=\"stim\">JUGGLER</p>", "conditions": [12, 800, "v", 12000], "internal_node_id": "0.0-102.0", "trial": 3, "time_elapsed": 723041, "serialpos": 9, "key_press": -1, "wordID": 762, "type": "PRES_VIS", "trial_index": 138}, "uniqueid": "MTK1888:3QL2OFSM97PRVS8ZMKUM28IJNAPNCE", "dateTime": 1516501058230}, {"current_trial": 139, "trialdata": {"rt": -1, "trial_type": "single-stim", "word": "report", "stimulus": "<p id=\"stim\">REPORT</p>", "conditions": [12, 800, "v", 12000], "internal_node_id": "0.0-103.0", "trial": 3, "time_elapsed": 724800, "serialpos": 10, "key_press": -1, "wordID": 1183, "type": "PRES_VIS", "trial_index": 139}, "uniqueid": "MTK1888:3QL2OFSM97PRVS8ZMKUM28IJNAPNCE", "dateTime": 1516501059988}, {"current_trial": 140, "trialdata": {"rt": -1, "trial_type": "single-stim", "word": "onion", "stimulus": "<p id=\"stim\">ONION</p>", "conditions": [12, 800, "v", 12000], "internal_node_id": "0.0-104.0", "trial": 3, "time_elapsed": 726555, "serialpos": 11, "key_press": -1, "wordID": 976, "type": "PRES_VIS", "trial_index": 140}, "uniqueid": "MTK1888:3QL2OFSM97PRVS8ZMKUM28IJNAPNCE", "dateTime": 1516501061744}, {"current_trial": 141, "trialdata": {"rt": -1, "trial_type": "single-stim", "stimulus": "", "internal_node_id": "0.0-105.0-0.0", "time_elapsed": 729025, "key_press": -1, "type": "PRE_RECALL_DELAY", "trial_index": 141}, "uniqueid": "MTK1888:3QL2OFSM97PRVS8ZMKUM28IJNAPNCE", "dateTime": 1516501064213}, {"current_trial": 142, "trialdata": {"rt": -1000, "trial_type": "single-audio", "stimulus": "/static/audio/400Hz.wav", "internal_node_id": "0.0-106.0", "time_elapsed": 729547, "key_press": -1, "type": "PRE_RECALL_ALERT", "trial_index": 142}, "uniqueid": "MTK1888:3QL2OFSM97PRVS8ZMKUM28IJNAPNCE", "dateTime": 1516501064735}, {"current_trial": 143, "trialdata": {"rt": [6277, 11074, 13980, 17017, 18373, 20282, 36648], "recwords": ["survey", "briefcase", "pocket", "money", "stamp", "rooster", "juggler"], "key_times": [627, 797, 946, 1558, 1989, 3206, 3618, 3741, 4580, 4993, 6277, 7581, 7823, 8033, 8155, 8462, 8791, 9216, 9376, 9535, 11074, 12134, 12288, 12795, 12965, 13345, 13532, 13980, 15007, 15208, 15296, 15678, 16563, 17017, 17290, 17487, 17689, 17860, 18031, 18373, 18689, 18910, 19057, 19278, 19438, 19842, 19916, 20282, 21990, 22857, 34924, 35170, 35721, 35865, 36031, 36230, 36316, 36648], "trial_type": "free-recall", "conditions": [12, 800, "v", 12000], "internal_node_id": "0.0-107.0-0.0", "key_presses": [83, 85, 80, 8, 82, 86, 69, 82, 8, 89, 13, 66, 82, 73, 69, 70, 67, 65, 83, 69, 13, 80, 79, 67, 75, 69, 84, 13, 77, 79, 78, 69, 89, 13, 83, 84, 65, 77, 80, 13, 82, 79, 79, 83, 84, 69, 82, 13, 80, 8, 74, 85, 71, 71, 76, 69, 82, 13], "trial": 3, "time_elapsed": 789553, "type": "FREE_RECALL", "trial_index": 143}, "uniqueid": "MTK1888:3QL2OFSM97PRVS8ZMKUM28IJNAPNCE", "dateTime": 1516501124747}, {"current_trial": 144, "trialdata": {"rt": 9207, "trial_type": "text", "internal_node_id": "0.0-108.0", "time_elapsed": 800769, "key_press": 32, "type": "INSTRUCTIONS", "trial_index": 144}, "uniqueid": "MTK1888:3QL2OFSM97PRVS8ZMKUM28IJNAPNCE", "dateTime": 1516501135957}, {"current_trial": 145, "trialdata": {"rt": [2742, 6112, 8820], "trial_type": "math-distractor", "key_times": [2303, 2742, 5654, 5795, 6112, 8165, 8441, 8820, 11349, 11761], "responses": ["7", "11", "19"], "num2": [5, 1, 7, 2], "num3": [1, 3, 3, 2], "conditions": [24, 1600, "v", 12000], "internal_node_id": "0.0-109.0", "key_presses": [103, 13, 97, 97, 13, 97, 105, 13, 97, 99], "trial": 4, "time_elapsed": 814778, "type": "DISTRACTOR", "trial_index": 145, "num1": [1, 7, 9, 9]}, "uniqueid": "MTK1888:3QL2OFSM97PRVS8ZMKUM28IJNAPNCE", "dateTime": 1516501149966}, {"current_trial": 146, "trialdata": {"rt": -1, "trial_type": "single-stim", "stimulus": "<p id=\"stim\">10</p>", "internal_node_id": "0.0-110.0-0.0", "time_elapsed": 817781, "key_press": -1, "trial_index": 146}, "uniqueid": "MTK1888:3QL2OFSM97PRVS8ZMKUM28IJNAPNCE", "dateTime": 1516501152969}, {"current_trial": 147, "trialdata": {"rt": -1, "trial_type": "single-stim", "stimulus": "<p id=\"stim\">9</p>", "internal_node_id": "0.0-110.0-1.0", "time_elapsed": 818784, "key_press": -1, "trial_index": 147}, "uniqueid": "MTK1888:3QL2OFSM97PRVS8ZMKUM28IJNAPNCE", "dateTime": 1516501153973}, {"current_trial": 148, "trialdata": {"rt": -1, "trial_type": "single-stim", "stimulus": "<p id=\"stim\">8</p>", "internal_node_id": "0.0-110.0-2.0", "time_elapsed": 819788, "key_press": -1, "trial_index": 148}, "uniqueid": "MTK1888:3QL2OFSM97PRVS8ZMKUM28IJNAPNCE", "dateTime": 1516501154976}, {"current_trial": 149, "trialdata": {"rt": -1, "trial_type": "single-stim", "stimulus": "<p id=\"stim\">7</p>", "internal_node_id": "0.0-110.0-3.0", "time_elapsed": 820791, "key_press": -1, "trial_index": 149}, "uniqueid": "MTK1888:3QL2OFSM97PRVS8ZMKUM28IJNAPNCE", "dateTime": 1516501155980}, {"current_trial": 150, "trialdata": {"rt": -1, "trial_type": "single-stim", "stimulus": "<p id=\"stim\">6</p>", "internal_node_id": "0.0-110.0-4.0", "time_elapsed": 821795, "key_press": -1, "trial_index": 150}, "uniqueid": "MTK1888:3QL2OFSM97PRVS8ZMKUM28IJNAPNCE", "dateTime": 1516501156983}, {"current_trial": 151, "trialdata": {"rt": -1, "trial_type": "single-stim", "stimulus": "<p id=\"stim\">5</p>", "internal_node_id": "0.0-110.0-5.0", "time_elapsed": 822798, "key_press": -1, "trial_index": 151}, "uniqueid": "MTK1888:3QL2OFSM97PRVS8ZMKUM28IJNAPNCE", "dateTime": 1516501157987}, {"current_trial": 152, "trialdata": {"rt": -1, "trial_type": "single-stim", "stimulus": "<p id=\"stim\">4</p>", "internal_node_id": "0.0-110.0-6.0", "time_elapsed": 823804, "key_press": -1, "trial_index": 152}, "uniqueid": "MTK1888:3QL2OFSM97PRVS8ZMKUM28IJNAPNCE", "dateTime": 1516501158992}, {"current_trial": 153, "trialdata": {"rt": -1, "trial_type": "single-stim", "stimulus": "<p id=\"stim\">3</p>", "internal_node_id": "0.0-110.0-7.0", "time_elapsed": 824809, "key_press": -1, "trial_index": 153}, "uniqueid": "MTK1888:3QL2OFSM97PRVS8ZMKUM28IJNAPNCE", "dateTime": 1516501159997}, {"current_trial": 154, "trialdata": {"rt": -1, "trial_type": "single-stim", "stimulus": "<p id=\"stim\">2</p>", "internal_node_id": "0.0-110.0-8.0", "time_elapsed": 825811, "key_press": -1, "trial_index": 154}, "uniqueid": "MTK1888:3QL2OFSM97PRVS8ZMKUM28IJNAPNCE", "dateTime": 1516501161000}, {"current_trial": 155, "trialdata": {"rt": -1, "trial_type": "single-stim", "stimulus": "<p id=\"stim\">1</p>", "internal_node_id": "0.0-110.0-9.0", "time_elapsed": 826815, "key_press": -1, "trial_index": 155}, "uniqueid": "MTK1888:3QL2OFSM97PRVS8ZMKUM28IJNAPNCE", "dateTime": 1516501162004}, {"current_trial": 156, "trialdata": {"rt": -1, "trial_type": "single-stim", "stimulus": "<p id=\"stim\">+</p>", "internal_node_id": "0.0-111.0-0.0", "time_elapsed": 828318, "key_press": -1, "type": "FIXATION", "trial_index": 156}, "uniqueid": "MTK1888:3QL2OFSM97PRVS8ZMKUM28IJNAPNCE", "dateTime": 1516501163506}, {"current_trial": 157, "trialdata": {"rt": -1, "trial_type": "single-stim", "word": "empire", "stimulus": "<p id=\"stim\">EMPIRE</p>", "conditions": [24, 1600, "v", 12000], "internal_node_id": "0.0-112.0", "trial": 4, "time_elapsed": 829920, "serialpos": 0, "key_press": -1, "wordID": 529, "type": "PRES_VIS", "trial_index": 157}, "uniqueid": "MTK1888:3QL2OFSM97PRVS8ZMKUM28IJNAPNCE", "dateTime": 1516501165108}, {"current_trial": 158, "trialdata": {"rt": -1, "trial_type": "single-stim", "word": "sword", "stimulus": "<p id=\"stim\">SWORD</p>", "conditions": [24, 1600, "v", 12000], "internal_node_id": "0.0-113.0", "trial": 4, "time_elapsed": 832648, "serialpos": 1, "key_press": -1, "wordID": 1422, "type": "PRES_VIS", "trial_index": 158}, "uniqueid": "MTK1888:3QL2OFSM97PRVS8ZMKUM28IJNAPNCE", "dateTime": 1516501167836}, {"current_trial": 159, "trialdata": {"rt": -1, "trial_type": "single-stim", "word": "glove", "stimulus": "<p id=\"stim\">GLOVE</p>", "conditions": [24, 1600, "v", 12000], "internal_node_id": "0.0-114.0", "trial": 4, "time_elapsed": 835260, "serialpos": 2, "key_press": -1, "wordID": 641, "type": "PRES_VIS", "trial_index": 159}, "uniqueid": "MTK1888:3QL2OFSM97PRVS8ZMKUM28IJNAPNCE", "dateTime": 1516501170448}, {"current_trial": 160, "trialdata": {"rt": -1, "trial_type": "single-stim", "word": "marker", "stimulus": "<p id=\"stim\">MARKER</p>", "conditions": [24, 1600, "v", 12000], "internal_node_id": "0.0-115.0", "trial": 4, "time_elapsed": 837939, "serialpos": 3, "key_press": -1, "wordID": 869, "type": "PRES_VIS", "trial_index": 160}, "uniqueid": "MTK1888:3QL2OFSM97PRVS8ZMKUM28IJNAPNCE", "dateTime": 1516501173127}, {"current_trial": 161, "trialdata": {"rt": -1, "trial_type": "single-stim", "word": "bunny", "stimulus": "<p id=\"stim\">BUNNY</p>", "conditions": [24, 1600, "v", 12000], "internal_node_id": "0.0-116.0", "trial": 4, "time_elapsed": 840661, "serialpos": 4, "key_press": -1, "wordID": 197, "type": "PRES_VIS", "trial_index": 161}, "uniqueid": "MTK1888:3QL2OFSM97PRVS8ZMKUM28IJNAPNCE", "dateTime": 1516501175854}, {"current_trial": 162, "trialdata": {"rt": -1, "trial_type": "single-stim", "word": "slug", "stimulus": "<p id=\"stim\">SLUG</p>", "conditions": [24, 1600, "v", 12000], "internal_node_id": "0.0-117.0", "trial": 4, "time_elapsed": 843082, "serialpos": 5, "key_press": -1, "wordID": 1328, "type": "PRES_VIS", "trial_index": 162}, "uniqueid": "MTK1888:3QL2OFSM97PRVS8ZMKUM28IJNAPNCE", "dateTime": 1516501178271}, {"current_trial": 163, "trialdata": {"rt": -1, "trial_type": "single-stim", "word": "suitcase", "stimulus": "<p id=\"stim\">SUITCASE</p>", "conditions": [24, 1600, "v", 12000], "internal_node_id": "0.0-118.0", "trial": 4, "time_elapsed": 845750, "serialpos": 6, "key_press": -1, "wordID": 1402, "type": "PRES_VIS", "trial_index": 163}, "uniqueid": "MTK1888:3QL2OFSM97PRVS8ZMKUM28IJNAPNCE", "dateTime": 1516501180938}, {"current_trial": 164, "trialdata": {"rt": -1, "trial_type": "single-stim", "word": "lunch", "stimulus": "<p id=\"stim\">LUNCH</p>", "conditions": [24, 1600, "v", 12000], "internal_node_id": "0.0-119.0", "trial": 4, "time_elapsed": 848403, "serialpos": 7, "key_press": -1, "wordID": 848, "type": "PRES_VIS", "trial_index": 164}, "uniqueid": "MTK1888:3QL2OFSM97PRVS8ZMKUM28IJNAPNCE", "dateTime": 1516501183592}, {"current_trial": 165, "trialdata": {"rt": -1, "trial_type": "single-stim", "word": "puppy", "stimulus": "<p id=\"stim\">PUPPY</p>", "conditions": [24, 1600, "v", 12000], "internal_node_id": "0.0-120.0", "trial": 4, "time_elapsed": 850947, "serialpos": 8, "key_press": -1, "wordID": 1143, "type": "PRES_VIS", "trial_index": 165}, "uniqueid": "MTK1888:3QL2OFSM97PRVS8ZMKUM28IJNAPNCE", "dateTime": 1516501186135}, {"current_trial": 166, "trialdata": {"rt": -1, "trial_type": "single-stim", "word": "necklace", "stimulus": "<p id=\"stim\">NECKLACE</p>", "conditions": [24, 1600, "v", 12000], "internal_node_id": "0.0-121.0", "trial": 4, "time_elapsed": 853728, "serialpos": 9, "key_press": -1, "wordID": 939, "type": "PRES_VIS", "trial_index": 166}, "uniqueid": "MTK1888:3QL2OFSM97PRVS8ZMKUM28IJNAPNCE", "dateTime": 1516501188917}, {"current_trial": 167, "trialdata": {"rt": -1, "trial_type": "single-stim", "word": "handbag", "stimulus": "<p id=\"stim\">HANDBAG</p>", "conditions": [24, 1600, "v", 12000], "internal_node_id": "0.0-122.0", "trial": 4, "time_elapsed": 856231, "serialpos": 10, "key_press": -1, "wordID": 683, "type": "PRES_VIS", "trial_index": 167}, "uniqueid": "MTK1888:3QL2OFSM97PRVS8ZMKUM28IJNAPNCE", "dateTime": 1516501191419}, {"current_trial": 168, "trialdata": {"rt": -1, "trial_type": "single-stim", "word": "rabbit", "stimulus": "<p id=\"stim\">RABBIT</p>", "conditions": [24, 1600, "v", 12000], "internal_node_id": "0.0-123.0", "trial": 4, "time_elapsed": 859030, "serialpos": 11, "key_press": -1, "wordID": 1151, "type": "PRES_VIS", "trial_index": 168}, "uniqueid": "MTK1888:3QL2OFSM97PRVS8ZMKUM28IJNAPNCE", "dateTime": 1516501194219}, {"current_trial": 169, "trialdata": {"rt": -1, "trial_type": "single-stim", "word": "paper", "stimulus": "<p id=\"stim\">PAPER</p>", "conditions": [24, 1600, "v", 12000], "internal_node_id": "0.0-124.0", "trial": 4, "time_elapsed": 861439, "serialpos": 12, "key_press": -1, "wordID": 1010, "type": "PRES_VIS", "trial_index": 169}, "uniqueid": "MTK1888:3QL2OFSM97PRVS8ZMKUM28IJNAPNCE", "dateTime": 1516501196628}, {"current_trial": 170, "trialdata": {"rt": -1, "trial_type": "single-stim", "word": "dorm", "stimulus": "<p id=\"stim\">DORM</p>", "conditions": [24, 1600, "v", 12000], "internal_node_id": "0.0-125.0", "trial": 4, "time_elapsed": 864122, "serialpos": 13, "key_press": -1, "wordID": 487, "type": "PRES_VIS", "trial_index": 170}, "uniqueid": "MTK1888:3QL2OFSM97PRVS8ZMKUM28IJNAPNCE", "dateTime": 1516501199311}, {"current_trial": 171, "trialdata": {"rt": -1, "trial_type": "single-stim", "word": "dime", "stimulus": "<p id=\"stim\">DIME</p>", "conditions": [24, 1600, "v", 12000], "internal_node_id": "0.0-126.0", "trial": 4, "time_elapsed": 866903, "serialpos": 14, "key_press": -1, "wordID": 465, "type": "PRES_VIS", "trial_index": 171}, "uniqueid": "MTK1888:3QL2OFSM97PRVS8ZMKUM28IJNAPNCE", "dateTime": 1516501202091}, {"current_trial": 172, "trialdata": {"rt": -1, "trial_type": "single-stim", "word": "diner", "stimulus": "<p id=\"stim\">DINER</p>", "conditions": [24, 1600, "v", 12000], "internal_node_id": "0.0-127.0", "trial": 4, "time_elapsed": 869645, "serialpos": 15, "key_press": -1, "wordID": 466, "type": "PRES_VIS", "trial_index": 172}, "uniqueid": "MTK1888:3QL2OFSM97PRVS8ZMKUM28IJNAPNCE", "dateTime": 1516501204834}, {"current_trial": 173, "trialdata": {"rt": -1, "trial_type": "single-stim", "word": "nomad", "stimulus": "<p id=\"stim\">NOMAD</p>", "conditions": [24, 1600, "v", 12000], "internal_node_id": "0.0-128.0", "trial": 4, "time_elapsed": 872373, "serialpos": 16, "key_press": -1, "wordID": 954, "type": "PRES_VIS", "trial_index": 173}, "uniqueid": "MTK1888:3QL2OFSM97PRVS8ZMKUM28IJNAPNCE", "dateTime": 1516501207561}, {"current_trial": 174, "trialdata": {"rt": -1, "trial_type": "single-stim", "word": "citrus", "stimulus": "<p id=\"stim\">CITRUS</p>", "conditions": [24, 1600, "v", 12000], "internal_node_id": "0.0-129.0", "trial": 4, "time_elapsed": 874785, "serialpos": 17, "key_press": -1, "wordID": 312, "type": "PRES_VIS", "trial_index": 174}, "uniqueid": "MTK1888:3QL2OFSM97PRVS8ZMKUM28IJNAPNCE", "dateTime": 1516501209973}, {"current_trial": 175, "trialdata": {"rt": -1, "trial_type": "single-stim", "word": "fruit", "stimulus": "<p id=\"stim\">FRUIT</p>", "conditions": [24, 1600, "v", 12000], "internal_node_id": "0.0-130.0", "trial": 4, "time_elapsed": 877466, "serialpos": 18, "key_press": -1, "wordID": 609, "type": "PRES_VIS", "trial_index": 175}, "uniqueid": "MTK1888:3QL2OFSM97PRVS8ZMKUM28IJNAPNCE", "dateTime": 1516501212655}, {"current_trial": 176, "trialdata": {"rt": -1, "trial_type": "single-stim", "word": "lumber", "stimulus": "<p id=\"stim\">LUMBER</p>", "conditions": [24, 1600, "v", 12000], "internal_node_id": "0.0-131.0", "trial": 4, "time_elapsed": 880140, "serialpos": 19, "key_press": -1, "wordID": 847, "type": "PRES_VIS", "trial_index": 176}, "uniqueid": "MTK1888:3QL2OFSM97PRVS8ZMKUM28IJNAPNCE", "dateTime": 1516501215328}, {"current_trial": 177, "trialdata": {"rt": -1, "trial_type": "single-stim", "word": "student", "stimulus": "<p id=\"stim\">STUDENT</p>", "conditions": [24, 1600, "v", 12000], "internal_node_id": "0.0-132.0", "trial": 4, "time_elapsed": 882812, "serialpos": 20, "key_press": -1, "wordID": 1394, "type": "PRES_VIS", "trial_index": 177}, "uniqueid": "MTK1888:3QL2OFSM97PRVS8ZMKUM28IJNAPNCE", "dateTime": 1516501218000}, {"current_trial": 178, "trialdata": {"rt": -1, "trial_type": "single-stim", "word": "fleet", "stimulus": "<p id=\"stim\">FLEET</p>", "conditions": [24, 1600, "v", 12000], "internal_node_id": "0.0-133.0", "trial": 4, "time_elapsed": 885268, "serialpos": 21, "key_press": -1, "wordID": 577, "type": "PRES_VIS", "trial_index": 178}, "uniqueid": "MTK1888:3QL2OFSM97PRVS8ZMKUM28IJNAPNCE", "dateTime": 1516501220456}, {"current_trial": 179, "trialdata": {"rt": -1, "trial_type": "single-stim", "word": "primate", "stimulus": "<p id=\"stim\">PRIMATE</p>", "conditions": [24, 1600, "v", 12000], "internal_node_id": "0.0-134.0", "trial": 4, "time_elapsed": 887776, "serialpos": 22, "key_press": -1, "wordID": 1122, "type": "PRES_VIS", "trial_index": 179}, "uniqueid": "MTK1888:3QL2OFSM97PRVS8ZMKUM28IJNAPNCE", "dateTime": 1516501222964}, {"current_trial": 180, "trialdata": {"rt": -1, "trial_type": "single-stim", "word": "scalpel", "stimulus": "<p id=\"stim\">SCALPEL</p>", "conditions": [24, 1600, "v", 12000], "internal_node_id": "0.0-135.0", "trial": 4, "time_elapsed": 890541, "serialpos": 23, "key_press": -1, "wordID": 1242, "type": "PRES_VIS", "trial_index": 180}, "uniqueid": "MTK1888:3QL2OFSM97PRVS8ZMKUM28IJNAPNCE", "dateTime": 1516501225729}, {"current_trial": 181, "trialdata": {"rt": -1, "trial_type": "single-stim", "stimulus": "", "internal_node_id": "0.0-136.0-0.0", "time_elapsed": 892680, "key_press": -1, "type": "PRE_RECALL_DELAY", "trial_index": 181}, "uniqueid": "MTK1888:3QL2OFSM97PRVS8ZMKUM28IJNAPNCE", "dateTime": 1516501227868}, {"current_trial": 182, "trialdata": {"rt": -1000, "trial_type": "single-audio", "stimulus": "/static/audio/400Hz.wav", "internal_node_id": "0.0-137.0", "time_elapsed": 893199, "key_press": -1, "type": "PRE_RECALL_ALERT", "trial_index": 182}, "uniqueid": "MTK1888:3QL2OFSM97PRVS8ZMKUM28IJNAPNCE", "dateTime": 1516501228387}, {"current_trial": 183, "trialdata": {"rt": [2960, 5381, 10358, 12317, 18581, 20226, 25432, 28683, 30255, 34287, 48311, 54581], "recwords": ["empire", "paper", "suitcase", "lunch", "sword", "glove", "primate", "student", "lumber", "fleet", "primate", "dorm"], "key_times": [694, 1069, 1318, 1609, 1892, 2253, 2960, 3766, 3946, 4065, 4294, 4379, 5381, 6359, 6554, 6692, 6901, 7090, 7767, 7947, 8203, 8427, 8556, 10358, 10779, 10995, 11261, 11501, 11607, 12317, 16729, 17578, 17757, 17896, 18260, 18581, 19018, 19137, 19359, 19516, 19634, 20226, 20880, 21009, 22959, 23930, 24320, 24587, 24784, 25432, 26332, 26556, 27396, 27481, 27681, 27821, 28058, 28165, 28303, 28683, 28932, 29105, 29340, 29430, 29637, 29716, 30255, 33008, 33145, 33374, 33506, 33811, 34287, 45909, 46326, 46576, 46854, 47017, 47204, 47316, 48311, 53707, 53877, 54133, 54265, 54581], "trial_type": "free-recall", "conditions": [24, 1600, "v", 12000], "internal_node_id": "0.0-138.0-0.0", "key_presses": [69, 77, 80, 73, 82, 69, 13, 80, 65, 80, 69, 82, 13, 83, 85, 73, 84, 69, 8, 67, 65, 83, 69, 13, 76, 85, 78, 67, 72, 13, 83, 87, 79, 82, 68, 13, 71, 76, 79, 86, 69, 13, 80, 82, 73, 77, 65, 84, 69, 13, 83, 85, 8, 84, 85, 68, 69, 78, 84, 13, 76, 85, 77, 66, 69, 82, 13, 70, 76, 69, 69, 84, 13, 80, 82, 73, 77, 65, 84, 69, 13, 68, 79, 82, 77, 13], "trial": 4, "time_elapsed": 953210, "type": "FREE_RECALL", "trial_index": 183}, "uniqueid": "MTK1888:3QL2OFSM97PRVS8ZMKUM28IJNAPNCE", "dateTime": 1516501288406}, {"current_trial": 184, "trialdata": {"rt": 7326, "trial_type": "text", "internal_node_id": "0.0-139.0", "time_elapsed": 962546, "key_press": 32, "type": "INSTRUCTIONS", "trial_index": 184}, "uniqueid": "MTK1888:3QL2OFSM97PRVS8ZMKUM28IJNAPNCE", "dateTime": 1516501297735}, {"current_trial": 185, "trialdata": {"rt": [6691, 11638, 17553, 19507, 22863], "trial_type": "math-distractor", "key_times": [6068, 6333, 6691, 10932, 11140, 11638, 17012, 17210, 17553, 19145, 19507, 22307, 22552, 22863], "responses": ["16", "20", "15", "9", "16"], "num2": [5, 9, 6, 3, 2, 8], "num3": [2, 7, 8, 3, 5, 5], "conditions": [12, 1600, "v", 24000], "internal_node_id": "0.0-140.0", "key_presses": [97, 102, 13, 98, 96, 13, 97, 101, 13, 105, 13, 97, 102, 13], "trial": 5, "time_elapsed": 988555, "type": "DISTRACTOR", "trial_index": 185, "num1": [9, 4, 1, 3, 9, 8]}, "uniqueid": "MTK1888:3QL2OFSM97PRVS8ZMKUM28IJNAPNCE", "dateTime": 1516501323743}, {"current_trial": 186, "trialdata": {"rt": -1, "trial_type": "single-stim", "stimulus": "<p id=\"stim\">10</p>", "internal_node_id": "0.0-141.0-0.0", "time_elapsed": 991557, "key_press": -1, "trial_index": 186}, "uniqueid": "MTK1888:3QL2OFSM97PRVS8ZMKUM28IJNAPNCE", "dateTime": 1516501326745}, {"current_trial": 187, "trialdata": {"rt": -1, "trial_type": "single-stim", "stimulus": "<p id=\"stim\">9</p>", "internal_node_id": "0.0-141.0-1.0", "time_elapsed": 992561, "key_press": -1, "trial_index": 187}, "uniqueid": "MTK1888:3QL2OFSM97PRVS8ZMKUM28IJNAPNCE", "dateTime": 1516501327749}, {"current_trial": 188, "trialdata": {"rt": -1, "trial_type": "single-stim", "stimulus": "<p id=\"stim\">8</p>", "internal_node_id": "0.0-141.0-2.0", "time_elapsed": 993563, "key_press": -1, "trial_index": 188}, "uniqueid": "MTK1888:3QL2OFSM97PRVS8ZMKUM28IJNAPNCE", "dateTime": 1516501328752}, {"current_trial": 189, "trialdata": {"rt": -1, "trial_type": "single-stim", "stimulus": "<p id=\"stim\">7</p>", "internal_node_id": "0.0-141.0-3.0", "time_elapsed": 994567, "key_press": -1, "trial_index": 189}, "uniqueid": "MTK1888:3QL2OFSM97PRVS8ZMKUM28IJNAPNCE", "dateTime": 1516501329755}, {"current_trial": 190, "trialdata": {"rt": -1, "trial_type": "single-stim", "stimulus": "<p id=\"stim\">6</p>", "internal_node_id": "0.0-141.0-4.0", "time_elapsed": 995569, "key_press": -1, "trial_index": 190}, "uniqueid": "MTK1888:3QL2OFSM97PRVS8ZMKUM28IJNAPNCE", "dateTime": 1516501330758}, {"current_trial": 191, "trialdata": {"rt": -1, "trial_type": "single-stim", "stimulus": "<p id=\"stim\">5</p>", "internal_node_id": "0.0-141.0-5.0", "time_elapsed": 996573, "key_press": -1, "trial_index": 191}, "uniqueid": "MTK1888:3QL2OFSM97PRVS8ZMKUM28IJNAPNCE", "dateTime": 1516501331761}, {"current_trial": 192, "trialdata": {"rt": -1, "trial_type": "single-stim", "stimulus": "<p id=\"stim\">4</p>", "internal_node_id": "0.0-141.0-6.0", "time_elapsed": 997574, "key_press": -1, "trial_index": 192}, "uniqueid": "MTK1888:3QL2OFSM97PRVS8ZMKUM28IJNAPNCE", "dateTime": 1516501332763}, {"current_trial": 193, "trialdata": {"rt": -1, "trial_type": "single-stim", "stimulus": "<p id=\"stim\">3</p>", "internal_node_id": "0.0-141.0-7.0", "time_elapsed": 998577, "key_press": -1, "trial_index": 193}, "uniqueid": "MTK1888:3QL2OFSM97PRVS8ZMKUM28IJNAPNCE", "dateTime": 1516501333765}, {"current_trial": 194, "trialdata": {"rt": -1, "trial_type": "single-stim", "stimulus": "<p id=\"stim\">2</p>", "internal_node_id": "0.0-141.0-8.0", "time_elapsed": 999579, "key_press": -1, "trial_index": 194}, "uniqueid": "MTK1888:3QL2OFSM97PRVS8ZMKUM28IJNAPNCE", "dateTime": 1516501334767}, {"current_trial": 195, "trialdata": {"rt": -1, "trial_type": "single-stim", "stimulus": "<p id=\"stim\">1</p>", "internal_node_id": "0.0-141.0-9.0", "time_elapsed": 1000582, "key_press": -1, "trial_index": 195}, "uniqueid": "MTK1888:3QL2OFSM97PRVS8ZMKUM28IJNAPNCE", "dateTime": 1516501335770}, {"current_trial": 196, "trialdata": {"rt": -1, "trial_type": "single-stim", "stimulus": "<p id=\"stim\">+</p>", "internal_node_id": "0.0-142.0-0.0", "time_elapsed": 1002084, "key_press": -1, "type": "FIXATION", "trial_index": 196}, "uniqueid": "MTK1888:3QL2OFSM97PRVS8ZMKUM28IJNAPNCE", "dateTime": 1516501337273}, {"current_trial": 197, "trialdata": {"rt": -1, "trial_type": "single-stim", "word": "cafe", "stimulus": "<p id=\"stim\">CAFE</p>", "conditions": [12, 1600, "v", 24000], "internal_node_id": "0.0-143.0", "trial": 5, "time_elapsed": 1003687, "serialpos": 0, "key_press": -1, "wordID": 215, "type": "PRES_VIS", "trial_index": 197}, "uniqueid": "MTK1888:3QL2OFSM97PRVS8ZMKUM28IJNAPNCE", "dateTime": 1516501338875}, {"current_trial": 198, "trialdata": {"rt": -1, "trial_type": "single-stim", "word": "luggage", "stimulus": "<p id=\"stim\">LUGGAGE</p>", "conditions": [12, 1600, "v", 24000], "internal_node_id": "0.0-144.0", "trial": 5, "time_elapsed": 1006211, "serialpos": 1, "key_press": -1, "wordID": 846, "type": "PRES_VIS", "trial_index": 198}, "uniqueid": "MTK1888:3QL2OFSM97PRVS8ZMKUM28IJNAPNCE", "dateTime": 1516501341399}, {"current_trial": 199, "trialdata": {"rt": -1, "trial_type": "single-stim", "word": "gallon", "stimulus": "<p id=\"stim\">GALLON</p>", "conditions": [12, 1600, "v", 24000], "internal_node_id": "0.0-145.0", "trial": 5, "time_elapsed": 1008783, "serialpos": 2, "key_press": -1, "wordID": 617, "type": "PRES_VIS", "trial_index": 199}, "uniqueid": "MTK1888:3QL2OFSM97PRVS8ZMKUM28IJNAPNCE", "dateTime": 1516501343972}, {"current_trial": 200, "trialdata": {"rt": -1, "trial_type": "single-stim", "word": "liver", "stimulus": "<p id=\"stim\">LIVER</p>", "conditions": [12, 1600, "v", 24000], "internal_node_id": "0.0-146.0", "trial": 5, "time_elapsed": 1011410, "serialpos": 3, "key_press": -1, "wordID": 832, "type": "PRES_VIS", "trial_index": 200}, "uniqueid": "MTK1888:3QL2OFSM97PRVS8ZMKUM28IJNAPNCE", "dateTime": 1516501346598}, {"current_trial": 201, "trialdata": {"rt": -1, "trial_type": "single-stim", "word": "spoon", "stimulus": "<p id=\"stim\">SPOON</p>", "conditions": [12, 1600, "v", 24000], "internal_node_id": "0.0-147.0", "trial": 5, "time_elapsed": 1013903, "serialpos": 4, "key_press": -1, "wordID": 1356, "type": "PRES_VIS", "trial_index": 201}, "uniqueid": "MTK1888:3QL2OFSM97PRVS8ZMKUM28IJNAPNCE", "dateTime": 1516501349091}, {"current_trial": 202, "trialdata": {"rt": -1, "trial_type": "single-stim", "word": "braces", "stimulus": "<p id=\"stim\">BRACES</p>", "conditions": [12, 1600, "v", 24000], "internal_node_id": "0.0-148.0", "trial": 5, "time_elapsed": 1016661, "serialpos": 5, "key_press": -1, "wordID": 163, "type": "PRES_VIS", "trial_index": 202}, "uniqueid": "MTK1888:3QL2OFSM97PRVS8ZMKUM28IJNAPNCE", "dateTime": 1516501351850}, {"current_trial": 203, "trialdata": {"rt": -1, "trial_type": "single-stim", "word": "lapel", "stimulus": "<p id=\"stim\">LAPEL</p>", "conditions": [12, 1600, "v", 24000], "internal_node_id": "0.0-149.0", "trial": 5, "time_elapsed": 1019169, "serialpos": 6, "key_press": -1, "wordID": 799, "type": "PRES_VIS", "trial_index": 203}, "uniqueid": "MTK1888:3QL2OFSM97PRVS8ZMKUM28IJNAPNCE", "dateTime": 1516501354358}, {"current_trial": 204, "trialdata": {"rt": -1, "trial_type": "single-stim", "word": "clothes", "stimulus": "<p id=\"stim\">CLOTHES</p>", "conditions": [12, 1600, "v", 24000], "internal_node_id": "0.0-150.0", "trial": 5, "time_elapsed": 1021673, "serialpos": 7, "key_press": -1, "wordID": 326, "type": "PRES_VIS", "trial_index": 204}, "uniqueid": "MTK1888:3QL2OFSM97PRVS8ZMKUM28IJNAPNCE", "dateTime": 1516501356861}, {"current_trial": 205, "trialdata": {"rt": -1, "trial_type": "single-stim", "word": "denim", "stimulus": "<p id=\"stim\">DENIM</p>", "conditions": [12, 1600, "v", 24000], "internal_node_id": "0.0-151.0", "trial": 5, "time_elapsed": 1024114, "serialpos": 8, "key_press": -1, "wordID": 445, "type": "PRES_VIS", "trial_index": 205}, "uniqueid": "MTK1888:3QL2OFSM97PRVS8ZMKUM28IJNAPNCE", "dateTime": 1516501359302}, {"current_trial": 206, "trialdata": {"rt": -1, "trial_type": "single-stim", "word": "barrel", "stimulus": "<p id=\"stim\">BARREL</p>", "conditions": [12, 1600, "v", 24000], "internal_node_id": "0.0-152.0", "trial": 5, "time_elapsed": 1026540, "serialpos": 9, "key_press": -1, "wordID": 90, "type": "PRES_VIS", "trial_index": 206}, "uniqueid": "MTK1888:3QL2OFSM97PRVS8ZMKUM28IJNAPNCE", "dateTime": 1516501361729}, {"current_trial": 207, "trialdata": {"rt": -1, "trial_type": "single-stim", "word": "peanut", "stimulus": "<p id=\"stim\">PEANUT</p>", "conditions": [12, 1600, "v", 24000], "internal_node_id": "0.0-153.0", "trial": 5, "time_elapsed": 1029173, "serialpos": 10, "key_press": -1, "wordID": 1031, "type": "PRES_VIS", "trial_index": 207}, "uniqueid": "MTK1888:3QL2OFSM97PRVS8ZMKUM28IJNAPNCE", "dateTime": 1516501364361}, {"current_trial": 208, "trialdata": {"rt": -1, "trial_type": "single-stim", "word": "whiskers", "stimulus": "<p id=\"stim\">WHISKERS</p>", "conditions": [12, 1600, "v", 24000], "internal_node_id": "0.0-154.0", "trial": 5, "time_elapsed": 1031839, "serialpos": 11, "key_press": -1, "wordID": 1604, "type": "PRES_VIS", "trial_index": 208}, "uniqueid": "MTK1888:3QL2OFSM97PRVS8ZMKUM28IJNAPNCE", "dateTime": 1516501367027}, {"current_trial": 209, "trialdata": {"rt": -1, "trial_type": "single-stim", "stimulus": "", "internal_node_id": "0.0-155.0-0.0", "time_elapsed": 1034082, "key_press": -1, "type": "PRE_RECALL_DELAY", "trial_index": 209}, "uniqueid": "MTK1888:3QL2OFSM97PRVS8ZMKUM28IJNAPNCE", "dateTime": 1516501369270}, {"current_trial": 210, "trialdata": {"rt": -1000, "trial_type": "single-audio", "stimulus": "/static/audio/400Hz.wav", "internal_node_id": "0.0-156.0", "time_elapsed": 1034601, "key_press": -1, "type": "PRE_RECALL_ALERT", "trial_index": 210}, "uniqueid": "MTK1888:3QL2OFSM97PRVS8ZMKUM28IJNAPNCE", "dateTime": 1516501369790}, {"current_trial": 211, "trialdata": {"rt": [4001, 8324, 11056, 15538, 18608, 25433, 43626, 45330, 49095], "recwords": ["cafe", "gallon", "liver", "barrel", "peanut", "whiskey", "lapel", "denim", "clothes"], "key_times": [1401, 1464, 1623, 2172, 2331, 2477, 2729, 2994, 3233, 3519, 4001, 6466, 6778, 6989, 7477, 7709, 7861, 8324, 8615, 8783, 8938, 9149, 9271, 11056, 12102, 12376, 12536, 13667, 14402, 14518, 14776, 14884, 15538, 16054, 16254, 16390, 16530, 16988, 17159, 18608, 23594, 23812, 23970, 24185, 24390, 24757, 25033, 25433, 41669, 42340, 42544, 42944, 43295, 43626, 43827, 44039, 44169, 44383, 44644, 45330, 47388, 47411, 47635, 47770, 47846, 48542, 48776, 49095], "trial_type": "free-recall", "conditions": [12, 1600, "v", 24000], "internal_node_id": "0.0-157.0-0.0", "key_presses": [86, 67, 65, 8, 8, 8, 67, 65, 70, 69, 13, 71, 65, 76, 76, 79, 78, 13, 76, 73, 86, 69, 82, 13, 66, 65, 82, 84, 8, 82, 69, 76, 13, 80, 69, 65, 78, 85, 84, 13, 87, 72, 73, 83, 75, 69, 89, 13, 76, 65, 80, 69, 76, 13, 68, 69, 78, 73, 77, 13, 67, 76, 79, 84, 72, 69, 83, 13], "trial": 5, "time_elapsed": 1094609, "type": "FREE_RECALL", "trial_index": 211}, "uniqueid": "MTK1888:3QL2OFSM97PRVS8ZMKUM28IJNAPNCE", "dateTime": 1516501429806}, {"current_trial": 212, "trialdata": {"rt": 85669, "trial_type": "text", "internal_node_id": "0.0-158.0", "time_elapsed": 1182289, "key_press": 32, "type": "INSTRUCTIONS", "trial_index": 212}, "uniqueid": "MTK1888:3QL2OFSM97PRVS8ZMKUM28IJNAPNCE", "dateTime": 1516501517477}, {"current_trial": 213, "trialdata": {"rt": [2837, 5799, 9234, 11621], "trial_type": "math-distractor", "key_times": [2380, 2837, 5039, 5424, 5799, 8549, 8710, 9234, 11124, 11340, 11621], "responses": ["8", "24", "15", "12"], "num2": [2, 8, 6, 9, 7], "num3": [5, 8, 5, 1, 6], "conditions": [24, 800, "v", 12000], "internal_node_id": "0.0-159.0", "key_presses": [104, 13, 98, 100, 13, 97, 101, 13, 97, 98, 13], "trial": 6, "time_elapsed": 1196308, "type": "DISTRACTOR", "trial_index": 213, "num1": [1, 8, 4, 2, 9]}, "uniqueid": "MTK1888:3QL2OFSM97PRVS8ZMKUM28IJNAPNCE", "dateTime": 1516501531496}, {"current_trial": 214, "trialdata": {"rt": -1, "trial_type": "single-stim", "stimulus": "<p id=\"stim\">10</p>", "internal_node_id": "0.0-160.0-0.0", "time_elapsed": 1199311, "key_press": -1, "trial_index": 214}, "uniqueid": "MTK1888:3QL2OFSM97PRVS8ZMKUM28IJNAPNCE", "dateTime": 1516501534499}, {"current_trial": 215, "trialdata": {"rt": -1, "trial_type": "single-stim", "stimulus": "<p id=\"stim\">9</p>", "internal_node_id": "0.0-160.0-1.0", "time_elapsed": 1200314, "key_press": -1, "trial_index": 215}, "uniqueid": "MTK1888:3QL2OFSM97PRVS8ZMKUM28IJNAPNCE", "dateTime": 1516501535502}, {"current_trial": 216, "trialdata": {"rt": -1, "trial_type": "single-stim", "stimulus": "<p id=\"stim\">8</p>", "internal_node_id": "0.0-160.0-2.0", "time_elapsed": 1201316, "key_press": -1, "trial_index": 216}, "uniqueid": "MTK1888:3QL2OFSM97PRVS8ZMKUM28IJNAPNCE", "dateTime": 1516501536505}, {"current_trial": 217, "trialdata": {"rt": -1, "trial_type": "single-stim", "stimulus": "<p id=\"stim\">7</p>", "internal_node_id": "0.0-160.0-3.0", "time_elapsed": 1202319, "key_press": -1, "trial_index": 217}, "uniqueid": "MTK1888:3QL2OFSM97PRVS8ZMKUM28IJNAPNCE", "dateTime": 1516501537508}, {"current_trial": 218, "trialdata": {"rt": -1, "trial_type": "single-stim", "stimulus": "<p id=\"stim\">6</p>", "internal_node_id": "0.0-160.0-4.0", "time_elapsed": 1203323, "key_press": -1, "trial_index": 218}, "uniqueid": "MTK1888:3QL2OFSM97PRVS8ZMKUM28IJNAPNCE", "dateTime": 1516501538511}, {"current_trial": 219, "trialdata": {"rt": -1, "trial_type": "single-stim", "stimulus": "<p id=\"stim\">5</p>", "internal_node_id": "0.0-160.0-5.0", "time_elapsed": 1204326, "key_press": -1, "trial_index": 219}, "uniqueid": "MTK1888:3QL2OFSM97PRVS8ZMKUM28IJNAPNCE", "dateTime": 1516501539514}, {"current_trial": 220, "trialdata": {"rt": -1, "trial_type": "single-stim", "stimulus": "<p id=\"stim\">4</p>", "internal_node_id": "0.0-160.0-6.0", "time_elapsed": 1205328, "key_press": -1, "trial_index": 220}, "uniqueid": "MTK1888:3QL2OFSM97PRVS8ZMKUM28IJNAPNCE", "dateTime": 1516501540516}, {"current_trial": 221, "trialdata": {"rt": -1, "trial_type": "single-stim", "stimulus": "<p id=\"stim\">3</p>", "internal_node_id": "0.0-160.0-7.0", "time_elapsed": 1206330, "key_press": -1, "trial_index": 221}, "uniqueid": "MTK1888:3QL2OFSM97PRVS8ZMKUM28IJNAPNCE", "dateTime": 1516501541519}, {"current_trial": 222, "trialdata": {"rt": -1, "trial_type": "single-stim", "stimulus": "<p id=\"stim\">2</p>", "internal_node_id": "0.0-160.0-8.0", "time_elapsed": 1207333, "key_press": -1, "trial_index": 222}, "uniqueid": "MTK1888:3QL2OFSM97PRVS8ZMKUM28IJNAPNCE", "dateTime": 1516501542521}, {"current_trial": 223, "trialdata": {"rt": -1, "trial_type": "single-stim", "stimulus": "<p id=\"stim\">1</p>", "internal_node_id": "0.0-160.0-9.0", "time_elapsed": 1208335, "key_press": -1, "trial_index": 223}, "uniqueid": "MTK1888:3QL2OFSM97PRVS8ZMKUM28IJNAPNCE", "dateTime": 1516501543524}, {"current_trial": 224, "trialdata": {"rt": -1, "trial_type": "single-stim", "stimulus": "<p id=\"stim\">+</p>", "internal_node_id": "0.0-161.0-0.0", "time_elapsed": 1209837, "key_press": -1, "type": "FIXATION", "trial_index": 224}, "uniqueid": "MTK1888:3QL2OFSM97PRVS8ZMKUM28IJNAPNCE", "dateTime": 1516501545026}, {"current_trial": 225, "trialdata": {"rt": -1, "trial_type": "single-stim", "word": "creature", "stimulus": "<p id=\"stim\">CREATURE</p>", "conditions": [24, 800, "v", 12000], "internal_node_id": "0.0-162.0", "trial": 6, "time_elapsed": 1210640, "serialpos": 0, "key_press": -1, "wordID": 402, "type": "PRES_VIS", "trial_index": 225}, "uniqueid": "MTK1888:3QL2OFSM97PRVS8ZMKUM28IJNAPNCE", "dateTime": 1516501545829}, {"current_trial": 226, "trialdata": {"rt": -1, "trial_type": "single-stim", "word": "canyon", "stimulus": "<p id=\"stim\">CANYON</p>", "conditions": [24, 800, "v", 12000], "internal_node_id": "0.0-163.0", "trial": 6, "time_elapsed": 1212546, "serialpos": 1, "key_press": -1, "wordID": 234, "type": "PRES_VIS", "trial_index": 226}, "uniqueid": "MTK1888:3QL2OFSM97PRVS8ZMKUM28IJNAPNCE", "dateTime": 1516501547735}, {"current_trial": 227, "trialdata": {"rt": -1, "trial_type": "single-stim", "word": "concert", "stimulus": "<p id=\"stim\">CONCERT</p>", "conditions": [24, 800, "v", 12000], "internal_node_id": "0.0-164.0", "trial": 6, "time_elapsed": 1214520, "serialpos": 2, "key_press": -1, "wordID": 359, "type": "PRES_VIS", "trial_index": 227}, "uniqueid": "MTK1888:3QL2OFSM97PRVS8ZMKUM28IJNAPNCE", "dateTime": 1516501549708}, {"current_trial": 228, "trialdata": {"rt": -1, "trial_type": "single-stim", "word": "scissors", "stimulus": "<p id=\"stim\">SCISSORS</p>", "conditions": [24, 800, "v", 12000], "internal_node_id": "0.0-165.0", "trial": 6, "time_elapsed": 1216299, "serialpos": 3, "key_press": -1, "wordID": 1249, "type": "PRES_VIS", "trial_index": 228}, "uniqueid": "MTK1888:3QL2OFSM97PRVS8ZMKUM28IJNAPNCE", "dateTime": 1516501551487}, {"current_trial": 229, "trialdata": {"rt": -1, "trial_type": "single-stim", "word": "tweezers", "stimulus": "<p id=\"stim\">TWEEZERS</p>", "conditions": [24, 800, "v", 12000], "internal_node_id": "0.0-166.0", "trial": 6, "time_elapsed": 1218244, "serialpos": 4, "key_press": -1, "wordID": 1525, "type": "PRES_VIS", "trial_index": 229}, "uniqueid": "MTK1888:3QL2OFSM97PRVS8ZMKUM28IJNAPNCE", "dateTime": 1516501553433}, {"current_trial": 230, "trialdata": {"rt": -1, "trial_type": "single-stim", "word": "donkey", "stimulus": "<p id=\"stim\">DONKEY</p>", "conditions": [24, 800, "v", 12000], "internal_node_id": "0.0-167.0", "trial": 6, "time_elapsed": 1220051, "serialpos": 5, "key_press": -1, "wordID": 483, "type": "PRES_VIS", "trial_index": 230}, "uniqueid": "MTK1888:3QL2OFSM97PRVS8ZMKUM28IJNAPNCE", "dateTime": 1516501555239}, {"current_trial": 231, "trialdata": {"rt": -1, "trial_type": "single-stim", "word": "valley", "stimulus": "<p id=\"stim\">VALLEY</p>", "conditions": [24, 800, "v", 12000], "internal_node_id": "0.0-168.0", "trial": 6, "time_elapsed": 1221669, "serialpos": 6, "key_press": -1, "wordID": 1544, "type": "PRES_VIS", "trial_index": 231}, "uniqueid": "MTK1888:3QL2OFSM97PRVS8ZMKUM28IJNAPNCE", "dateTime": 1516501556862}, {"current_trial": 232, "trialdata": {"rt": -1, "trial_type": "single-stim", "word": "umpire", "stimulus": "<p id=\"stim\">UMPIRE</p>", "conditions": [24, 800, "v", 12000], "internal_node_id": "0.0-169.0", "trial": 6, "time_elapsed": 1223392, "serialpos": 7, "key_press": -1, "wordID": 1534, "type": "PRES_VIS", "trial_index": 232}, "uniqueid": "MTK1888:3QL2OFSM97PRVS8ZMKUM28IJNAPNCE", "dateTime": 1516501558580}, {"current_trial": 233, "trialdata": {"rt": -1, "trial_type": "single-stim", "word": "softball", "stimulus": "<p id=\"stim\">SOFTBALL</p>", "conditions": [24, 800, "v", 12000], "internal_node_id": "0.0-170.0", "trial": 6, "time_elapsed": 1225284, "serialpos": 8, "key_press": -1, "wordID": 1342, "type": "PRES_VIS", "trial_index": 233}, "uniqueid": "MTK1888:3QL2OFSM97PRVS8ZMKUM28IJNAPNCE", "dateTime": 1516501560473}, {"current_trial": 234, "trialdata": {"rt": -1, "trial_type": "single-stim", "word": "camel", "stimulus": "<p id=\"stim\">CAMEL</p>", "conditions": [24, 800, "v", 12000], "internal_node_id": "0.0-171.0", "trial": 6, "time_elapsed": 1227050, "serialpos": 9, "key_press": -1, "wordID": 222, "type": "PRES_VIS", "trial_index": 234}, "uniqueid": "MTK1888:3QL2OFSM97PRVS8ZMKUM28IJNAPNCE", "dateTime": 1516501562238}, {"current_trial": 235, "trialdata": {"rt": -1, "trial_type": "single-stim", "word": "motel", "stimulus": "<p id=\"stim\">MOTEL</p>", "conditions": [24, 800, "v", 12000], "internal_node_id": "0.0-172.0", "trial": 6, "time_elapsed": 1228762, "serialpos": 10, "key_press": -1, "wordID": 918, "type": "PRES_VIS", "trial_index": 235}, "uniqueid": "MTK1888:3QL2OFSM97PRVS8ZMKUM28IJNAPNCE", "dateTime": 1516501563950}, {"current_trial": 236, "trialdata": {"rt": -1, "trial_type": "single-stim", "word": "patrol", "stimulus": "<p id=\"stim\">PATROL</p>", "conditions": [24, 800, "v", 12000], "internal_node_id": "0.0-173.0", "trial": 6, "time_elapsed": 1230718, "serialpos": 11, "key_press": -1, "wordID": 1026, "type": "PRES_VIS", "trial_index": 236}, "uniqueid": "MTK1888:3QL2OFSM97PRVS8ZMKUM28IJNAPNCE", "dateTime": 1516501565906}, {"current_trial": 237, "trialdata": {"rt": -1, "trial_type": "single-stim", "word": "blueprint", "stimulus": "<p id=\"stim\">BLUEPRINT</p>", "conditions": [24, 800, "v", 12000], "internal_node_id": "0.0-174.0", "trial": 6, "time_elapsed": 1232500, "serialpos": 12, "key_press": -1, "wordID": 141, "type": "PRES_VIS", "trial_index": 237}, "uniqueid": "MTK1888:3QL2OFSM97PRVS8ZMKUM28IJNAPNCE", "dateTime": 1516501567688}, {"current_trial": 238, "trialdata": {"rt": -1, "trial_type": "single-stim", "word": "stone", "stimulus": "<p id=\"stim\">STONE</p>", "conditions": [24, 800, "v", 12000], "internal_node_id": "0.0-175.0", "trial": 6, "time_elapsed": 1234154, "serialpos": 13, "key_press": -1, "wordID": 1384, "type": "PRES_VIS", "trial_index": 238}, "uniqueid": "MTK1888:3QL2OFSM97PRVS8ZMKUM28IJNAPNCE", "dateTime": 1516501569342}, {"current_trial": 239, "trialdata": {"rt": -1, "trial_type": "single-stim", "word": "radish", "stimulus": "<p id=\"stim\">RADISH</p>", "conditions": [24, 800, "v", 12000], "internal_node_id": "0.0-176.0", "trial": 6, "time_elapsed": 1235994, "serialpos": 14, "key_press": -1, "wordID": 1157, "type": "PRES_VIS", "trial_index": 239}, "uniqueid": "MTK1888:3QL2OFSM97PRVS8ZMKUM28IJNAPNCE", "dateTime": 1516501571182}, {"current_trial": 240, "trialdata": {"rt": -1, "trial_type": "single-stim", "word": "salad", "stimulus": "<p id=\"stim\">SALAD</p>", "conditions": [24, 800, "v", 12000], "internal_node_id": "0.0-177.0", "trial": 6, "time_elapsed": 1237987, "serialpos": 15, "key_press": -1, "wordID": 1223, "type": "PRES_VIS", "trial_index": 240}, "uniqueid": "MTK1888:3QL2OFSM97PRVS8ZMKUM28IJNAPNCE", "dateTime": 1516501573176}, {"current_trial": 241, "trialdata": {"rt": -1, "trial_type": "single-stim", "word": "cobra", "stimulus": "<p id=\"stim\">COBRA</p>", "conditions": [24, 800, "v", 12000], "internal_node_id": "0.0-178.0", "trial": 6, "time_elapsed": 1239705, "serialpos": 16, "key_press": -1, "wordID": 335, "type": "PRES_VIS", "trial_index": 241}, "uniqueid": "MTK1888:3QL2OFSM97PRVS8ZMKUM28IJNAPNCE", "dateTime": 1516501574893}, {"current_trial": 242, "trialdata": {"rt": -1, "trial_type": "single-stim", "word": "napkin", "stimulus": "<p id=\"stim\">NAPKIN</p>", "conditions": [24, 800, "v", 12000], "internal_node_id": "0.0-179.0", "trial": 6, "time_elapsed": 1241516, "serialpos": 17, "key_press": -1, "wordID": 936, "type": "PRES_VIS", "trial_index": 242}, "uniqueid": "MTK1888:3QL2OFSM97PRVS8ZMKUM28IJNAPNCE", "dateTime": 1516501576704}, {"current_trial": 243, "trialdata": {"rt": -1, "trial_type": "single-stim", "word": "hound", "stimulus": "<p id=\"stim\">HOUND</p>", "conditions": [24, 800, "v", 12000], "internal_node_id": "0.0-180.0", "trial": 6, "time_elapsed": 1243127, "serialpos": 18, "key_press": -1, "wordID": 723, "type": "PRES_VIS", "trial_index": 243}, "uniqueid": "MTK1888:3QL2OFSM97PRVS8ZMKUM28IJNAPNCE", "dateTime": 1516501578315}, {"current_trial": 244, "trialdata": {"rt": -1, "trial_type": "single-stim", "word": "pigeon", "stimulus": "<p id=\"stim\">PIGEON</p>", "conditions": [24, 800, "v", 12000], "internal_node_id": "0.0-181.0", "trial": 6, "time_elapsed": 1244995, "serialpos": 19, "key_press": -1, "wordID": 1064, "type": "PRES_VIS", "trial_index": 244}, "uniqueid": "MTK1888:3QL2OFSM97PRVS8ZMKUM28IJNAPNCE", "dateTime": 1516501580184}, {"current_trial": 245, "trialdata": {"rt": -1, "trial_type": "single-stim", "word": "flute", "stimulus": "<p id=\"stim\">FLUTE</p>", "conditions": [24, 800, "v", 12000], "internal_node_id": "0.0-182.0", "trial": 6, "time_elapsed": 1246937, "serialpos": 20, "key_press": -1, "wordID": 584, "type": "PRES_VIS", "trial_index": 245}, "uniqueid": "MTK1888:3QL2OFSM97PRVS8ZMKUM28IJNAPNCE", "dateTime": 1516501582125}, {"current_trial": 246, "trialdata": {"rt": -1, "trial_type": "single-stim", "word": "message", "stimulus": "<p id=\"stim\">MESSAGE</p>", "conditions": [24, 800, "v", 12000], "internal_node_id": "0.0-183.0", "trial": 6, "time_elapsed": 1248664, "serialpos": 21, "key_press": -1, "wordID": 887, "type": "PRES_VIS", "trial_index": 246}, "uniqueid": "MTK1888:3QL2OFSM97PRVS8ZMKUM28IJNAPNCE", "dateTime": 1516501583853}, {"current_trial": 247, "trialdata": {"rt": -1, "trial_type": "single-stim", "word": "brick", "stimulus": "<p id=\"stim\">BRICK</p>", "conditions": [24, 800, "v", 12000], "internal_node_id": "0.0-184.0", "trial": 6, "time_elapsed": 1250402, "serialpos": 22, "key_press": -1, "wordID": 171, "type": "PRES_VIS", "trial_index": 247}, "uniqueid": "MTK1888:3QL2OFSM97PRVS8ZMKUM28IJNAPNCE", "dateTime": 1516501585591}, {"current_trial": 248, "trialdata": {"rt": -1, "trial_type": "single-stim", "word": "ketchup", "stimulus": "<p id=\"stim\">KETCHUP</p>", "conditions": [24, 800, "v", 12000], "internal_node_id": "0.0-185.0", "trial": 6, "time_elapsed": 1252026, "serialpos": 23, "key_press": -1, "wordID": 770, "type": "PRES_VIS", "trial_index": 248}, "uniqueid": "MTK1888:3QL2OFSM97PRVS8ZMKUM28IJNAPNCE", "dateTime": 1516501587214}, {"current_trial": 249, "trialdata": {"rt": -1, "trial_type": "single-stim", "stimulus": "", "internal_node_id": "0.0-186.0-0.0", "time_elapsed": 1254414, "key_press": -1, "type": "PRE_RECALL_DELAY", "trial_index": 249}, "uniqueid": "MTK1888:3QL2OFSM97PRVS8ZMKUM28IJNAPNCE", "dateTime": 1516501589603}, {"current_trial": 250, "trialdata": {"rt": -1000, "trial_type": "single-audio", "stimulus": "/static/audio/400Hz.wav", "internal_node_id": "0.0-187.0", "time_elapsed": 1254929, "key_press": -1, "type": "PRE_RECALL_ALERT", "trial_index": 250}, "uniqueid": "MTK1888:3QL2OFSM97PRVS8ZMKUM28IJNAPNCE", "dateTime": 1516501590120}, {"current_trial": 251, "trialdata": {"rt": [3557, 9783, 12100, 16597, 19868, 28758, 32309, 34480, 37648, 59584], "recwords": ["creature", "brick", "napkin", "message", "camel", "canyon", "salad", "radish", "cobra", "vulture"], "key_times": [1792, 2022, 2140, 2292, 2471, 2632, 2766, 2903, 3557, 8304, 8713, 9024, 9243, 9496, 9783, 10292, 10442, 10608, 10975, 11232, 11424, 12100, 13374, 13552, 13837, 14009, 14273, 14390, 14561, 165