{"condition": 0, "counterbalance": 1818, "assignmentId": "3R2PKQ87NXFCQD9Z2TB80WRER4QMIW", "workerId": "MTK1291", "hitId": "3E9ZFLPWOYZLX5A9QY8FMTBSJPWIX6", "currenttrial": 626, "bonus": 0, "data": [{"uniqueid": "MTK1291:3R2PKQ87NXFCQD9Z2TB80WRER4QMIW", "current_trial": 0, "dateTime": 1513535940835, "trialdata": {"rt": 2013, "key_press": 32, "type": "INSTRUCTIONS", "trial_type": "text", "trial_index": 0, "time_elapsed": 2015, "internal_node_id": "0.0-0.0"}}, {"uniqueid": "MTK1291:3R2PKQ87NXFCQD9Z2TB80WRER4QMIW", "current_trial": 1, "dateTime": 1513535954456, "trialdata": {"rt": 13620, "key_press": 32, "type": "INSTRUCTIONS", "trial_type": "text", "trial_index": 1, "time_elapsed": 15637, "internal_node_id": "0.0-1.0"}}, {"uniqueid": "MTK1291:3R2PKQ87NXFCQD9Z2TB80WRER4QMIW", "current_trial": 2, "dateTime": 1513536011765, "trialdata": {"rt": [57303], "responses": ["ocean"], "type": "AUDIO_TEST", "trial_type": "audio-test", "trial_index": 2, "time_elapsed": 72946, "internal_node_id": "0.0-2.0"}}, {"uniqueid": "MTK1291:3R2PKQ87NXFCQD9Z2TB80WRER4QMIW", "current_trial": 3, "dateTime": 1513536018332, "trialdata": {"rt": [6563], "responses": ["crystal"], "type": "AUDIO_TEST", "trial_type": "audio-test", "trial_index": 3, "time_elapsed": 79513, "internal_node_id": "0.0-3.0"}}, {"uniqueid": "MTK1291:3R2PKQ87NXFCQD9Z2TB80WRER4QMIW", "current_trial": 4, "dateTime": 1513536023735, "trialdata": {"rt": [5399], "responses": ["spice"], "type": "AUDIO_TEST", "trial_type": "audio-test", "trial_index": 4, "time_elapsed": 84916, "internal_node_id": "0.0-4.0"}}, {"uniqueid": "MTK1291:3R2PKQ87NXFCQD9Z2TB80WRER4QMIW", "current_trial": 5, "dateTime": 1513536052206, "trialdata": {"rt": 27718, "responses": "{\"Q0\":\"11:00\",\"Q1\":\"9:00\",\"Q2\":\"4\"}", "type": "SLEEP_SURVEY", "trial_type": "survey-text", "trial_index": 5, "time_elapsed": 113387, "internal_node_id": "0.0-5.0"}}, {"uniqueid": "MTK1291:3R2PKQ87NXFCQD9Z2TB80WRER4QMIW", "current_trial": 6, "dateTime": 1513536096236, "trialdata": {"rt": 43029, "key_press": 13, "type": "INSTRUCTIONS", "trial_type": "text", "trial_index": 6, "time_elapsed": 157417, "internal_node_id": "0.0-6.0"}}, {"uniqueid": "MTK1291:3R2PKQ87NXFCQD9Z2TB80WRER4QMIW", "current_trial": 7, "dateTime": 1513536111182, "trialdata": {"rt": 14443, "key_press": 16, "type": "INSTRUCTIONS", "trial_type": "text", "trial_index": 7, "time_elapsed": 172363, "internal_node_id": "0.0-7.0"}}, {"uniqueid": "MTK1291:3R2PKQ87NXFCQD9Z2TB80WRER4QMIW", "current_trial": 8, "dateTime": 1513536124186, "trialdata": {"rt": 12453, "key_press": 16, "type": "INSTRUCTIONS", "trial_type": "text", "trial_index": 8, "time_elapsed": 185367, "internal_node_id": "0.0-8.0"}}, {"uniqueid": "MTK1291:3R2PKQ87NXFCQD9Z2TB80WRER4QMIW", "current_trial": 9, "dateTime": 1513536143191, "trialdata": {"rt": [4298, 7137, 9759, 11960, 14625], "responses": ["12", "14", "13", "12", "14"], "num1": [3, 6, 9, 2, 3, 6], "num2": [8, 2, 3, 1, 4, 3], "num3": [1, 6, 1, 9, 7, 7], "type": "DISTRACTOR", "conditions": [18, 1200, "a", 18000], "trial": 0, "trial_type": "math-distractor", "trial_index": 9, "time_elapsed": 204371, "internal_node_id": "0.0-9.0"}}, {"uniqueid": "MTK1291:3R2PKQ87NXFCQD9Z2TB80WRER4QMIW", "current_trial": 10, "dateTime": 1513536146193, "trialdata": {"rt": -1, "stimulus": "<p id=\"stim\">10</p>", "key_press": -1, "trial_type": "single-stim", "trial_index": 10, "time_elapsed": 207374, "internal_node_id": "0.0-10.0-0.0"}}, {"uniqueid": "MTK1291:3R2PKQ87NXFCQD9Z2TB80WRER4QMIW", "current_trial": 11, "dateTime": 1513536147194, "trialdata": {"rt": -1, "stimulus": "<p id=\"stim\">9</p>", "key_press": -1, "trial_type": "single-stim", "trial_index": 11, "time_elapsed": 208375, "internal_node_id": "0.0-10.0-1.0"}}, {"uniqueid": "MTK1291:3R2PKQ87NXFCQD9Z2TB80WRER4QMIW", "current_trial": 12, "dateTime": 1513536148269, "trialdata": {"rt": -1, "stimulus": "<p id=\"stim\">8</p>", "key_press": -1, "trial_type": "single-stim", "trial_index": 12, "time_elapsed": 209450, "internal_node_id": "0.0-10.0-2.0"}}, {"uniqueid": "MTK1291:3R2PKQ87NXFCQD9Z2TB80WRER4QMIW", "current_trial": 13, "dateTime": 1513536149271, "trialdata": {"rt": -1, "stimulus": "<p id=\"stim\">7</p>", "key_press": -1, "trial_type": "single-stim", "trial_index": 13, "time_elapsed": 210452, "internal_node_id": "0.0-10.0-3.0"}}, {"uniqueid": "MTK1291:3R2PKQ87NXFCQD9Z2TB80WRER4QMIW", "current_trial": 14, "dateTime": 1513536150272, "trialdata": {"rt": -1, "stimulus": "<p id=\"stim\">6</p>", "key_press": -1, "trial_type": "single-stim", "trial_index": 14, "time_elapsed": 211453, "internal_node_id": "0.0-10.0-4.0"}}, {"uniqueid": "MTK1291:3R2PKQ87NXFCQD9Z2TB80WRER4QMIW", "current_trial": 15, "dateTime": 1513536151275, "trialdata": {"rt": -1, "stimulus": "<p id=\"stim\">5</p>", "key_press": -1, "trial_type": "single-stim", "trial_index": 15, "time_elapsed": 212456, "internal_node_id": "0.0-10.0-5.0"}}, {"uniqueid": "MTK1291:3R2PKQ87NXFCQD9Z2TB80WRER4QMIW", "current_trial": 16, "dateTime": 1513536152276, "trialdata": {"rt": -1, "stimulus": "<p id=\"stim\">4</p>", "key_press": -1, "trial_type": "single-stim", "trial_index": 16, "time_elapsed": 213457, "internal_node_id": "0.0-10.0-6.0"}}, {"uniqueid": "MTK1291:3R2PKQ87NXFCQD9Z2TB80WRER4QMIW", "current_trial": 17, "dateTime": 1513536153277, "trialdata": {"rt": -1, "stimulus": "<p id=\"stim\">3</p>", "key_press": -1, "trial_type": "single-stim", "trial_index": 17, "time_elapsed": 214458, "internal_node_id": "0.0-10.0-7.0"}}, {"uniqueid": "MTK1291:3R2PKQ87NXFCQD9Z2TB80WRER4QMIW", "current_trial": 18, "dateTime": 1513536154278, "trialdata": {"rt": -1, "stimulus": "<p id=\"stim\">2</p>", "key_press": -1, "trial_type": "single-stim", "trial_index": 18, "time_elapsed": 215459, "internal_node_id": "0.0-10.0-8.0"}}, {"uniqueid": "MTK1291:3R2PKQ87NXFCQD9Z2TB80WRER4QMIW", "current_trial": 19, "dateTime": 1513536155279, "trialdata": {"rt": -1, "stimulus": "<p id=\"stim\">1</p>", "key_press": -1, "trial_type": "single-stim", "trial_index": 19, "time_elapsed": 216460, "internal_node_id": "0.0-10.0-9.0"}}, {"uniqueid": "MTK1291:3R2PKQ87NXFCQD9Z2TB80WRER4QMIW", "current_trial": 20, "dateTime": 1513536156780, "trialdata": {"rt": -1, "stimulus": "<p id=\"stim\">+</p>", "key_press": -1, "type": "FIXATION", "trial_type": "single-stim", "trial_index": 20, "time_elapsed": 217961, "internal_node_id": "0.0-11.0-0.0"}}, {"uniqueid": "MTK1291:3R2PKQ87NXFCQD9Z2TB80WRER4QMIW", "current_trial": 21, "dateTime": 1513536158957, "trialdata": {"rt": -1000, "stimulus": "/static/audio/wordpool/DUST.wav", "key_press": -1, "type": "PRES_AUD", "word": "dust", "wordID": 507, "conditions": [18, 1200, "a", 18000], "trial": 0, "serialpos": 0, "trial_type": "single-audio", "trial_index": 21, "time_elapsed": 220138, "internal_node_id": "0.0-12.0"}}, {"uniqueid": "MTK1291:3R2PKQ87NXFCQD9Z2TB80WRER4QMIW", "current_trial": 22, "dateTime": 1513536161327, "trialdata": {"rt": -1000, "stimulus": "/static/audio/wordpool/HUSBAND.wav", "key_press": -1, "type": "PRES_AUD", "word": "husband", "wordID": 727, "conditions": [18, 1200, "a", 18000], "trial": 0, "serialpos": 1, "trial_type": "single-audio", "trial_index": 22, "time_elapsed": 222508, "internal_node_id": "0.0-13.0"}}, {"uniqueid": "MTK1291:3R2PKQ87NXFCQD9Z2TB80WRER4QMIW", "current_trial": 23, "dateTime": 1513536163398, "trialdata": {"rt": -1000, "stimulus": "/static/audio/wordpool/BRACES.wav", "key_press": -1, "type": "PRES_AUD", "word": "braces", "wordID": 163, "conditions": [18, 1200, "a", 18000], "trial": 0, "serialpos": 2, "trial_type": "single-audio", "trial_index": 23, "time_elapsed": 224579, "internal_node_id": "0.0-14.0"}}, {"uniqueid": "MTK1291:3R2PKQ87NXFCQD9Z2TB80WRER4QMIW", "current_trial": 24, "dateTime": 1513536165832, "trialdata": {"rt": -1000, "stimulus": "/static/audio/wordpool/DANCER.wav", "key_press": -1, "type": "PRES_AUD", "word": "dancer", "wordID": 436, "conditions": [18, 1200, "a", 18000], "trial": 0, "serialpos": 3, "trial_type": "single-audio", "trial_index": 24, "time_elapsed": 227013, "internal_node_id": "0.0-15.0"}}, {"uniqueid": "MTK1291:3R2PKQ87NXFCQD9Z2TB80WRER4QMIW", "current_trial": 25, "dateTime": 1513536168232, "trialdata": {"rt": -1000, "stimulus": "/static/audio/wordpool/TRUCK.wav", "key_press": -1, "type": "PRES_AUD", "word": "truck", "wordID": 1511, "conditions": [18, 1200, "a", 18000], "trial": 0, "serialpos": 4, "trial_type": "single-audio", "trial_index": 25, "time_elapsed": 229413, "internal_node_id": "0.0-16.0"}}, {"uniqueid": "MTK1291:3R2PKQ87NXFCQD9Z2TB80WRER4QMIW", "current_trial": 26, "dateTime": 1513536170544, "trialdata": {"rt": -1000, "stimulus": "/static/audio/wordpool/PUDDING.wav", "key_press": -1, "type": "PRES_AUD", "word": "pudding", "wordID": 1138, "conditions": [18, 1200, "a", 18000], "trial": 0, "serialpos": 5, "trial_type": "single-audio", "trial_index": 26, "time_elapsed": 231725, "internal_node_id": "0.0-17.0"}}, {"uniqueid": "MTK1291:3R2PKQ87NXFCQD9Z2TB80WRER4QMIW", "current_trial": 27, "dateTime": 1513536172586, "trialdata": {"rt": -1000, "stimulus": "/static/audio/wordpool/RACKET.wav", "key_press": -1, "type": "PRES_AUD", "word": "racket", "wordID": 1154, "conditions": [18, 1200, "a", 18000], "trial": 0, "serialpos": 6, "trial_type": "single-audio", "trial_index": 27, "time_elapsed": 233767, "internal_node_id": "0.0-18.0"}}, {"uniqueid": "MTK1291:3R2PKQ87NXFCQD9Z2TB80WRER4QMIW", "current_trial": 28, "dateTime": 1513536174599, "trialdata": {"rt": -1000, "stimulus": "/static/audio/wordpool/COIN.wav", "key_press": -1, "type": "PRES_AUD", "word": "coin", "wordID": 342, "conditions": [18, 1200, "a", 18000], "trial": 0, "serialpos": 7, "trial_type": "single-audio", "trial_index": 28, "time_elapsed": 235780, "internal_node_id": "0.0-19.0"}}, {"uniqueid": "MTK1291:3R2PKQ87NXFCQD9Z2TB80WRER4QMIW", "current_trial": 29, "dateTime": 1513536176804, "trialdata": {"rt": -1000, "stimulus": "/static/audio/wordpool/SPOOL.wav", "key_press": -1, "type": "PRES_AUD", "word": "spool", "wordID": 1355, "conditions": [18, 1200, "a", 18000], "trial": 0, "serialpos": 8, "trial_type": "single-audio", "trial_index": 29, "time_elapsed": 237985, "internal_node_id": "0.0-20.0"}}, {"uniqueid": "MTK1291:3R2PKQ87NXFCQD9Z2TB80WRER4QMIW", "current_trial": 30, "dateTime": 1513536178883, "trialdata": {"rt": -1000, "stimulus": "/static/audio/wordpool/AGENT.wav", "key_press": -1, "type": "PRES_AUD", "word": "agent", "wordID": 9, "conditions": [18, 1200, "a", 18000], "trial": 0, "serialpos": 9, "trial_type": "single-audio", "trial_index": 30, "time_elapsed": 240064, "internal_node_id": "0.0-21.0"}}, {"uniqueid": "MTK1291:3R2PKQ87NXFCQD9Z2TB80WRER4QMIW", "current_trial": 31, "dateTime": 1513536181223, "trialdata": {"rt": -1000, "stimulus": "/static/audio/wordpool/PLUTO.wav", "key_press": -1, "type": "PRES_AUD", "word": "pluto", "wordID": 1091, "conditions": [18, 1200, "a", 18000], "trial": 0, "serialpos": 10, "trial_type": "single-audio", "trial_index": 31, "time_elapsed": 242404, "internal_node_id": "0.0-22.0"}}, {"uniqueid": "MTK1291:3R2PKQ87NXFCQD9Z2TB80WRER4QMIW", "current_trial": 32, "dateTime": 1513536183382, "trialdata": {"rt": -1000, "stimulus": "/static/audio/wordpool/BRANDY.wav", "key_press": -1, "type": "PRES_AUD", "word": "brandy", "wordID": 168, "conditions": [18, 1200, "a", 18000], "trial": 0, "serialpos": 11, "trial_type": "single-audio", "trial_index": 32, "time_elapsed": 244563, "internal_node_id": "0.0-23.0"}}, {"uniqueid": "MTK1291:3R2PKQ87NXFCQD9Z2TB80WRER4QMIW", "current_trial": 33, "dateTime": 1513536185764, "trialdata": {"rt": -1000, "stimulus": "/static/audio/wordpool/PIZZA.wav", "key_press": -1, "type": "PRES_AUD", "word": "pizza", "wordID": 1078, "conditions": [18, 1200, "a", 18000], "trial": 0, "serialpos": 12, "trial_type": "single-audio", "trial_index": 33, "time_elapsed": 246945, "internal_node_id": "0.0-24.0"}}, {"uniqueid": "MTK1291:3R2PKQ87NXFCQD9Z2TB80WRER4QMIW", "current_trial": 34, "dateTime": 1513536187779, "trialdata": {"rt": -1000, "stimulus": "/static/audio/wordpool/SCARECROW.wav", "key_press": -1, "type": "PRES_AUD", "word": "scarecrow", "wordID": 1244, "conditions": [18, 1200, "a", 18000], "trial": 0, "serialpos": 13, "trial_type": "single-audio", "trial_index": 34, "time_elapsed": 248960, "internal_node_id": "0.0-25.0"}}, {"uniqueid": "MTK1291:3R2PKQ87NXFCQD9Z2TB80WRER4QMIW", "current_trial": 35, "dateTime": 1513536189842, "trialdata": {"rt": -1000, "stimulus": "/static/audio/wordpool/SUMMIT.wav", "key_press": -1, "type": "PRES_AUD", "word": "summit", "wordID": 1404, "conditions": [18, 1200, "a", 18000], "trial": 0, "serialpos": 14, "trial_type": "single-audio", "trial_index": 35, "time_elapsed": 251023, "internal_node_id": "0.0-26.0"}}, {"uniqueid": "MTK1291:3R2PKQ87NXFCQD9Z2TB80WRER4QMIW", "current_trial": 36, "dateTime": 1513536192186, "trialdata": {"rt": -1000, "stimulus": "/static/audio/wordpool/COOKBOOK.wav", "key_press": -1, "type": "PRES_AUD", "word": "cookbook", "wordID": 372, "conditions": [18, 1200, "a", 18000], "trial": 0, "serialpos": 15, "trial_type": "single-audio", "trial_index": 36, "time_elapsed": 253367, "internal_node_id": "0.0-27.0"}}, {"uniqueid": "MTK1291:3R2PKQ87NXFCQD9Z2TB80WRER4QMIW", "current_trial": 37, "dateTime": 1513536194563, "trialdata": {"rt": -1000, "stimulus": "/static/audio/wordpool/ROOSTER.wav", "key_press": -1, "type": "PRES_AUD", "word": "rooster", "wordID": 1208, "conditions": [18, 1200, "a", 18000], "trial": 0, "serialpos": 16, "trial_type": "single-audio", "trial_index": 37, "time_elapsed": 255744, "internal_node_id": "0.0-28.0"}}, {"uniqueid": "MTK1291:3R2PKQ87NXFCQD9Z2TB80WRER4QMIW", "current_trial": 38, "dateTime": 1513536196630, "trialdata": {"rt": -1000, "stimulus": "/static/audio/wordpool/COOK.wav", "key_press": -1, "type": "PRES_AUD", "word": "cook", "wordID": 371, "conditions": [18, 1200, "a", 18000], "trial": 0, "serialpos": 17, "trial_type": "single-audio", "trial_index": 38, "time_elapsed": 257811, "internal_node_id": "0.0-29.0"}}, {"uniqueid": "MTK1291:3R2PKQ87NXFCQD9Z2TB80WRER4QMIW", "current_trial": 39, "dateTime": 1513536197994, "trialdata": {"rt": -1, "stimulus": "", "key_press": -1, "type": "PRE_RECALL_DELAY", "trial_type": "single-stim", "trial_index": 39, "time_elapsed": 259175, "internal_node_id": "0.0-30.0-0.0"}}, {"uniqueid": "MTK1291:3R2PKQ87NXFCQD9Z2TB80WRER4QMIW", "current_trial": 40, "dateTime": 1513536198495, "trialdata": {"rt": -1000, "stimulus": "/static/audio/400Hz.wav", "key_press": -1, "type": "PRE_RECALL_ALERT", "trial_type": "single-audio", "trial_index": 40, "time_elapsed": 259676, "internal_node_id": "0.0-31.0"}}, {"uniqueid": "MTK1291:3R2PKQ87NXFCQD9Z2TB80WRER4QMIW", "current_trial": 41, "dateTime": 1513536258499, "trialdata": {"rt": [2415, 3941, 5242, 8295, 11478, 16476, 21511, 37241], "recwords": ["pizza", "rooster", "cook", "brandy", "summit", "agent", "dusk", "pudding"], "type": "FREE_RECALL", "conditions": [18, 1200, "a", 18000], "trial": 0, "trial_type": "free-recall", "trial_index": 41, "time_elapsed": 319678, "internal_node_id": "0.0-32.0-0.0"}}, {"uniqueid": "MTK1291:3R2PKQ87NXFCQD9Z2TB80WRER4QMIW", "current_trial": 42, "dateTime": 1513536262482, "trialdata": {"rt": 1982, "key_press": 13, "type": "INSTRUCTIONS", "trial_type": "text", "trial_index": 42, "time_elapsed": 323663, "internal_node_id": "0.0-33.0"}}, {"uniqueid": "MTK1291:3R2PKQ87NXFCQD9Z2TB80WRER4QMIW", "current_trial": 43, "dateTime": 1513536282486, "trialdata": {"rt": [10461, 17299], "responses": ["21", "20"], "num1": [8, 5, 3], "num2": [6, 9, 2], "num3": [7, 6, 3], "type": "DISTRACTOR", "conditions": [18, 1200, "v", 18000], "trial": 1, "trial_type": "math-distractor", "trial_index": 43, "time_elapsed": 343667, "internal_node_id": "0.0-34.0"}}, {"uniqueid": "MTK1291:3R2PKQ87NXFCQD9Z2TB80WRER4QMIW", "current_trial": 44, "dateTime": 1513536285488, "trialdata": {"rt": -1, "stimulus": "<p id=\"stim\">10</p>", "key_press": -1, "trial_type": "single-stim", "trial_index": 44, "time_elapsed": 346669, "internal_node_id": "0.0-35.0-0.0"}}, {"uniqueid": "MTK1291:3R2PKQ87NXFCQD9Z2TB80WRER4QMIW", "current_trial": 45, "dateTime": 1513536286489, "trialdata": {"rt": -1, "stimulus": "<p id=\"stim\">9</p>", "key_press": -1, "trial_type": "single-stim", "trial_index": 45, "time_elapsed": 347670, "internal_node_id": "0.0-35.0-1.0"}}, {"uniqueid": "MTK1291:3R2PKQ87NXFCQD9Z2TB80WRER4QMIW", "current_trial": 46, "dateTime": 1513536287490, "trialdata": {"rt": -1, "stimulus": "<p id=\"stim\">8</p>", "key_press": -1, "trial_type": "single-stim", "trial_index": 46, "time_elapsed": 348671, "internal_node_id": "0.0-35.0-2.0"}}, {"uniqueid": "MTK1291:3R2PKQ87NXFCQD9Z2TB80WRER4QMIW", "current_trial": 47, "dateTime": 1513536288538, "trialdata": {"rt": -1, "stimulus": "<p id=\"stim\">7</p>", "key_press": -1, "trial_type": "single-stim", "trial_index": 47, "time_elapsed": 349719, "internal_node_id": "0.0-35.0-3.0"}}, {"uniqueid": "MTK1291:3R2PKQ87NXFCQD9Z2TB80WRER4QMIW", "current_trial": 48, "dateTime": 1513536289539, "trialdata": {"rt": -1, "stimulus": "<p id=\"stim\">6</p>", "key_press": -1, "trial_type": "single-stim", "trial_index": 48, "time_elapsed": 350720, "internal_node_id": "0.0-35.0-4.0"}}, {"uniqueid": "MTK1291:3R2PKQ87NXFCQD9Z2TB80WRER4QMIW", "current_trial": 49, "dateTime": 1513536290540, "trialdata": {"rt": -1, "stimulus": "<p id=\"stim\">5</p>", "key_press": -1, "trial_type": "single-stim", "trial_index": 49, "time_elapsed": 351720, "internal_node_id": "0.0-35.0-5.0"}}, {"uniqueid": "MTK1291:3R2PKQ87NXFCQD9Z2TB80WRER4QMIW", "current_trial": 50, "dateTime": 1513536291541, "trialdata": {"rt": -1, "stimulus": "<p id=\"stim\">4</p>", "key_press": -1, "trial_type": "single-stim", "trial_index": 50, "time_elapsed": 352722, "internal_node_id": "0.0-35.0-6.0"}}, {"uniqueid": "MTK1291:3R2PKQ87NXFCQD9Z2TB80WRER4QMIW", "current_trial": 51, "dateTime": 1513536292543, "trialdata": {"rt": -1, "stimulus": "<p id=\"stim\">3</p>", "key_press": -1, "trial_type": "single-stim", "trial_index": 51, "time_elapsed": 353724, "internal_node_id": "0.0-35.0-7.0"}}, {"uniqueid": "MTK1291:3R2PKQ87NXFCQD9Z2TB80WRER4QMIW", "current_trial": 52, "dateTime": 1513536293545, "trialdata": {"rt": -1, "stimulus": "<p id=\"stim\">2</p>", "key_press": -1, "trial_type": "single-stim", "trial_index": 52, "time_elapsed": 354726, "internal_node_id": "0.0-35.0-8.0"}}, {"uniqueid": "MTK1291:3R2PKQ87NXFCQD9Z2TB80WRER4QMIW", "current_trial": 53, "dateTime": 1513536294545, "trialdata": {"rt": -1, "stimulus": "<p id=\"stim\">1</p>", "key_press": -1, "trial_type": "single-stim", "trial_index": 53, "time_elapsed": 355726, "internal_node_id": "0.0-35.0-9.0"}}, {"uniqueid": "MTK1291:3R2PKQ87NXFCQD9Z2TB80WRER4QMIW", "current_trial": 54, "dateTime": 1513536296046, "trialdata": {"rt": -1, "stimulus": "<p id=\"stim\">+</p>", "key_press": -1, "type": "FIXATION", "trial_type": "single-stim", "trial_index": 54, "time_elapsed": 357227, "internal_node_id": "0.0-36.0-0.0"}}, {"uniqueid": "MTK1291:3R2PKQ87NXFCQD9Z2TB80WRER4QMIW", "current_trial": 55, "dateTime": 1513536297248, "trialdata": {"rt": -1, "stimulus": "<p id=\"stim\">COUSIN</p>", "key_press": -1, "type": "PRES_VIS", "word": "cousin", "wordID": 391, "conditions": [18, 1200, "v", 18000], "trial": 1, "serialpos": 0, "trial_type": "single-stim", "trial_index": 55, "time_elapsed": 358429, "internal_node_id": "0.0-37.0"}}, {"uniqueid": "MTK1291:3R2PKQ87NXFCQD9Z2TB80WRER4QMIW", "current_trial": 56, "dateTime": 1513536299535, "trialdata": {"rt": -1, "stimulus": "<p id=\"stim\">STAMP</p>", "key_press": -1, "type": "PRES_VIS", "word": "stamp", "wordID": 1369, "conditions": [18, 1200, "v", 18000], "trial": 1, "serialpos": 1, "trial_type": "single-stim", "trial_index": 56, "time_elapsed": 360716, "internal_node_id": "0.0-38.0"}}, {"uniqueid": "MTK1291:3R2PKQ87NXFCQD9Z2TB80WRER4QMIW", "current_trial": 57, "dateTime": 1513536301936, "trialdata": {"rt": -1, "stimulus": "<p id=\"stim\">SEAFOOD</p>", "key_press": -1, "type": "PRES_VIS", "word": "seafood", "wordID": 1259, "conditions": [18, 1200, "v", 18000], "trial": 1, "serialpos": 2, "trial_type": "single-stim", "trial_index": 57, "time_elapsed": 363117, "internal_node_id": "0.0-39.0"}}, {"uniqueid": "MTK1291:3R2PKQ87NXFCQD9Z2TB80WRER4QMIW", "current_trial": 58, "dateTime": 1513536304258, "trialdata": {"rt": -1, "stimulus": "<p id=\"stim\">HAND</p>", "key_press": -1, "type": "PRES_VIS", "word": "hand", "wordID": 682, "conditions": [18, 1200, "v", 18000], "trial": 1, "serialpos": 3, "trial_type": "single-stim", "trial_index": 58, "time_elapsed": 365439, "internal_node_id": "0.0-40.0"}}, {"uniqueid": "MTK1291:3R2PKQ87NXFCQD9Z2TB80WRER4QMIW", "current_trial": 59, "dateTime": 1513536306335, "trialdata": {"rt": -1, "stimulus": "<p id=\"stim\">PRIMATE</p>", "key_press": -1, "type": "PRES_VIS", "word": "primate", "wordID": 1122, "conditions": [18, 1200, "v", 18000], "trial": 1, "serialpos": 4, "trial_type": "single-stim", "trial_index": 59, "time_elapsed": 367516, "internal_node_id": "0.0-41.0"}}, {"uniqueid": "MTK1291:3R2PKQ87NXFCQD9Z2TB80WRER4QMIW", "current_trial": 60, "dateTime": 1513536308628, "trialdata": {"rt": -1, "stimulus": "<p id=\"stim\">PLAZA</p>", "key_press": -1, "type": "PRES_VIS", "word": "plaza", "wordID": 1087, "conditions": [18, 1200, "v", 18000], "trial": 1, "serialpos": 5, "trial_type": "single-stim", "trial_index": 60, "time_elapsed": 369809, "internal_node_id": "0.0-42.0"}}, {"uniqueid": "MTK1291:3R2PKQ87NXFCQD9Z2TB80WRER4QMIW", "current_trial": 61, "dateTime": 1513536310716, "trialdata": {"rt": -1, "stimulus": "<p id=\"stim\">HAWK</p>", "key_press": -1, "type": "PRES_VIS", "word": "hawk", "wordID": 691, "conditions": [18, 1200, "v", 18000], "trial": 1, "serialpos": 6, "trial_type": "single-stim", "trial_index": 61, "time_elapsed": 371897, "internal_node_id": "0.0-43.0"}}, {"uniqueid": "MTK1291:3R2PKQ87NXFCQD9Z2TB80WRER4QMIW", "current_trial": 62, "dateTime": 1513536312948, "trialdata": {"rt": -1, "stimulus": "<p id=\"stim\">SALMON</p>", "key_press": -1, "type": "PRES_VIS", "word": "salmon", "wordID": 1226, "conditions": [18, 1200, "v", 18000], "trial": 1, "serialpos": 7, "trial_type": "single-stim", "trial_index": 62, "time_elapsed": 374129, "internal_node_id": "0.0-44.0"}}, {"uniqueid": "MTK1291:3R2PKQ87NXFCQD9Z2TB80WRER4QMIW", "current_trial": 63, "dateTime": 1513536315240, "trialdata": {"rt": -1, "stimulus": "<p id=\"stim\">HOOD</p>", "key_press": -1, "type": "PRES_VIS", "word": "hood", "wordID": 713, "conditions": [18, 1200, "v", 18000], "trial": 1, "serialpos": 8, "trial_type": "single-stim", "trial_index": 63, "time_elapsed": 376421, "internal_node_id": "0.0-45.0"}}, {"uniqueid": "MTK1291:3R2PKQ87NXFCQD9Z2TB80WRER4QMIW", "current_trial": 64, "dateTime": 1513536317452, "trialdata": {"rt": -1, "stimulus": "<p id=\"stim\">CLOCK</p>", "key_press": -1, "type": "PRES_VIS", "word": "clock", "wordID": 324, "conditions": [18, 1200, "v", 18000], "trial": 1, "serialpos": 9, "trial_type": "single-stim", "trial_index": 64, "time_elapsed": 378633, "internal_node_id": "0.0-46.0"}}, {"uniqueid": "MTK1291:3R2PKQ87NXFCQD9Z2TB80WRER4QMIW", "current_trial": 65, "dateTime": 1513536319740, "trialdata": {"rt": -1, "stimulus": "<p id=\"stim\">PUDDLE</p>", "key_press": -1, "type": "PRES_VIS", "word": "puddle", "wordID": 1139, "conditions": [18, 1200, "v", 18000], "trial": 1, "serialpos": 10, "trial_type": "single-stim", "trial_index": 65, "time_elapsed": 380921, "internal_node_id": "0.0-47.0"}}, {"uniqueid": "MTK1291:3R2PKQ87NXFCQD9Z2TB80WRER4QMIW", "current_trial": 66, "dateTime": 1513536321799, "trialdata": {"rt": -1, "stimulus": "<p id=\"stim\">HOOK</p>", "key_press": -1, "type": "PRES_VIS", "word": "hook", "wordID": 714, "conditions": [18, 1200, "v", 18000], "trial": 1, "serialpos": 11, "trial_type": "single-stim", "trial_index": 66, "time_elapsed": 382980, "internal_node_id": "0.0-48.0"}}, {"uniqueid": "MTK1291:3R2PKQ87NXFCQD9Z2TB80WRER4QMIW", "current_trial": 67, "dateTime": 1513536324180, "trialdata": {"rt": -1, "stimulus": "<p id=\"stim\">CRAB</p>", "key_press": -1, "type": "PRES_VIS", "word": "crab", "wordID": 396, "conditions": [18, 1200, "v", 18000], "trial": 1, "serialpos": 12, "trial_type": "single-stim", "trial_index": 67, "time_elapsed": 385360, "internal_node_id": "0.0-49.0"}}, {"uniqueid": "MTK1291:3R2PKQ87NXFCQD9Z2TB80WRER4QMIW", "current_trial": 68, "dateTime": 1513536326332, "trialdata": {"rt": -1, "stimulus": "<p id=\"stim\">HEART</p>", "key_press": -1, "type": "PRES_VIS", "word": "heart", "wordID": 696, "conditions": [18, 1200, "v", 18000], "trial": 1, "serialpos": 13, "trial_type": "single-stim", "trial_index": 68, "time_elapsed": 387513, "internal_node_id": "0.0-50.0"}}, {"uniqueid": "MTK1291:3R2PKQ87NXFCQD9Z2TB80WRER4QMIW", "current_trial": 69, "dateTime": 1513536328534, "trialdata": {"rt": -1, "stimulus": "<p id=\"stim\">FRIEND</p>", "key_press": -1, "type": "PRES_VIS", "word": "friend", "wordID": 605, "conditions": [18, 1200, "v", 18000], "trial": 1, "serialpos": 14, "trial_type": "single-stim", "trial_index": 69, "time_elapsed": 389715, "internal_node_id": "0.0-51.0"}}, {"uniqueid": "MTK1291:3R2PKQ87NXFCQD9Z2TB80WRER4QMIW", "current_trial": 70, "dateTime": 1513536330649, "trialdata": {"rt": -1, "stimulus": "<p id=\"stim\">PREACHER</p>", "key_press": -1, "type": "PRES_VIS", "word": "preacher", "wordID": 1118, "conditions": [18, 1200, "v", 18000], "trial": 1, "serialpos": 15, "trial_type": "single-stim", "trial_index": 70, "time_elapsed": 391830, "internal_node_id": "0.0-52.0"}}, {"uniqueid": "MTK1291:3R2PKQ87NXFCQD9Z2TB80WRER4QMIW", "current_trial": 71, "dateTime": 1513536333044, "trialdata": {"rt": -1, "stimulus": "<p id=\"stim\">PALACE</p>", "key_press": -1, "type": "PRES_VIS", "word": "palace", "wordID": 1005, "conditions": [18, 1200, "v", 18000], "trial": 1, "serialpos": 16, "trial_type": "single-stim", "trial_index": 71, "time_elapsed": 394225, "internal_node_id": "0.0-53.0"}}, {"uniqueid": "MTK1291:3R2PKQ87NXFCQD9Z2TB80WRER4QMIW", "current_trial": 72, "dateTime": 1513536335063, "trialdata": {"rt": -1, "stimulus": "<p id=\"stim\">CAFE</p>", "key_press": -1, "type": "PRES_VIS", "word": "cafe", "wordID": 215, "conditions": [18, 1200, "v", 18000], "trial": 1, "serialpos": 17, "trial_type": "single-stim", "trial_index": 72, "time_elapsed": 396244, "internal_node_id": "0.0-54.0"}}, {"uniqueid": "MTK1291:3R2PKQ87NXFCQD9Z2TB80WRER4QMIW", "current_trial": 73, "dateTime": 1513536337486, "trialdata": {"rt": -1, "stimulus": "", "key_press": -1, "type": "PRE_RECALL_DELAY", "trial_type": "single-stim", "trial_index": 73, "time_elapsed": 398667, "internal_node_id": "0.0-55.0-0.0"}}, {"uniqueid": "MTK1291:3R2PKQ87NXFCQD9Z2TB80WRER4QMIW", "current_trial": 74, "dateTime": 1513536337988, "trialdata": {"rt": -1000, "stimulus": "/static/audio/400Hz.wav", "key_press": -1, "type": "PRE_RECALL_ALERT", "trial_type": "single-audio", "trial_index": 74, "time_elapsed": 399168, "internal_node_id": "0.0-56.0"}}, {"uniqueid": "MTK1291:3R2PKQ87NXFCQD9Z2TB80WRER4QMIW", "current_trial": 75, "dateTime": 1513536397992, "trialdata": {"rt": [2307, 3580, 5072, 7094, 8984, 10738, 15456, 17759, 25203, 39527], "recwords": ["salmon", "crab", "heart", "seafood", "palace", "cafe", "cousin", "friend", "hand", "heart"], "type": "FREE_RECALL", "conditions": [18, 1200, "v", 18000], "trial": 1, "trial_type": "free-recall", "trial_index": 75, "time_elapsed": 459171, "internal_node_id": "0.0-57.0-0.0"}}, {"uniqueid": "MTK1291:3R2PKQ87NXFCQD9Z2TB80WRER4QMIW", "current_trial": 76, "dateTime": 1513536402078, "trialdata": {"rt": 2075, "key_press": 13, "type": "INSTRUCTIONS", "trial_type": "text", "trial_index": 76, "time_elapsed": 463249, "internal_node_id": "0.0-58.0"}}, {"uniqueid": "MTK1291:3R2PKQ87NXFCQD9Z2TB80WRER4QMIW", "current_trial": 77, "dateTime": 1513536415081, "trialdata": {"rt": [3630, 5740, 8893, 11027], "responses": ["18", "11", "16", "13"], "num1": [9, 2, 6, 5, 8], "num2": [7, 8, 2, 5, 7], "num3": [2, 1, 8, 3, 7], "type": "DISTRACTOR", "conditions": [24, 800, "v", 12000], "trial": 2, "trial_type": "math-distractor", "trial_index": 77, "time_elapsed": 476262, "internal_node_id": "0.0-59.0"}}, {"uniqueid": "MTK1291:3R2PKQ87NXFCQD9Z2TB80WRER4QMIW", "current_trial": 78, "dateTime": 1513536418082, "trialdata": {"rt": -1, "stimulus": "<p id=\"stim\">10</p>", "key_press": -1, "trial_type": "single-stim", "trial_index": 78, "time_elapsed": 479263, "internal_node_id": "0.0-60.0-0.0"}}, {"uniqueid": "MTK1291:3R2PKQ87NXFCQD9Z2TB80WRER4QMIW", "current_trial": 79, "dateTime": 1513536419083, "trialdata": {"rt": -1, "stimulus": "<p id=\"stim\">9</p>", "key_press": -1, "trial_type": "single-stim", "trial_index": 79, "time_elapsed": 480264, "internal_node_id": "0.0-60.0-1.0"}}, {"uniqueid": "MTK1291:3R2PKQ87NXFCQD9Z2TB80WRER4QMIW", "current_trial": 80, "dateTime": 1513536420085, "trialdata": {"rt": -1, "stimulus": "<p id=\"stim\">8</p>", "key_press": -1, "trial_type": "single-stim", "trial_index": 80, "time_elapsed": 481266, "internal_node_id": "0.0-60.0-2.0"}}, {"uniqueid": "MTK1291:3R2PKQ87NXFCQD9Z2TB80WRER4QMIW", "current_trial": 81, "dateTime": 1513536421086, "trialdata": {"rt": -1, "stimulus": "<p id=\"stim\">7</p>", "key_press": -1, "trial_type": "single-stim", "trial_index": 81, "time_elapsed": 482267, "internal_node_id": "0.0-60.0-3.0"}}, {"uniqueid": "MTK1291:3R2PKQ87NXFCQD9Z2TB80WRER4QMIW", "current_trial": 82, "dateTime": 1513536422088, "trialdata": {"rt": -1, "stimulus": "<p id=\"stim\">6</p>", "key_press": -1, "trial_type": "single-stim", "trial_index": 82, "time_elapsed": 483269, "internal_node_id": "0.0-60.0-4.0"}}, {"uniqueid": "MTK1291:3R2PKQ87NXFCQD9Z2TB80WRER4QMIW", "current_trial": 83, "dateTime": 1513536423089, "trialdata": {"rt": -1, "stimulus": "<p id=\"stim\">5</p>", "key_press": -1, "trial_type": "single-stim", "trial_index": 83, "time_elapsed": 484270, "internal_node_id": "0.0-60.0-5.0"}}, {"uniqueid": "MTK1291:3R2PKQ87NXFCQD9Z2TB80WRER4QMIW", "current_trial": 84, "dateTime": 1513536424090, "trialdata": {"rt": -1, "stimulus": "<p id=\"stim\">4</p>", "key_press": -1, "trial_type": "single-stim", "trial_index": 84, "time_elapsed": 485271, "internal_node_id": "0.0-60.0-6.0"}}, {"uniqueid": "MTK1291:3R2PKQ87NXFCQD9Z2TB80WRER4QMIW", "current_trial": 85, "dateTime": 1513536425091, "trialdata": {"rt": -1, "stimulus": "<p id=\"stim\">3</p>", "key_press": -1, "trial_type": "single-stim", "trial_index": 85, "time_elapsed": 486272, "internal_node_id": "0.0-60.0-7.0"}}, {"uniqueid": "MTK1291:3R2PKQ87NXFCQD9Z2TB80WRER4QMIW", "current_trial": 86, "dateTime": 1513536426092, "trialdata": {"rt": -1, "stimulus": "<p id=\"stim\">2</p>", "key_press": -1, "trial_type": "single-stim", "trial_index": 86, "time_elapsed": 487273, "internal_node_id": "0.0-60.0-8.0"}}, {"uniqueid": "MTK1291:3R2PKQ87NXFCQD9Z2TB80WRER4QMIW", "current_trial": 87, "dateTime": 1513536427093, "trialdata": {"rt": -1, "stimulus": "<p id=\"stim\">1</p>", "key_press": -1, "trial_type": "single-stim", "trial_index": 87, "time_elapsed": 488274, "internal_node_id": "0.0-60.0-9.0"}}, {"uniqueid": "MTK1291:3R2PKQ87NXFCQD9Z2TB80WRER4QMIW", "current_trial": 88, "dateTime": 1513536428594, "trialdata": {"rt": -1, "stimulus": "<p id=\"stim\">+</p>", "key_press": -1, "type": "FIXATION", "trial_type": "single-stim", "trial_index": 88, "time_elapsed": 489775, "internal_node_id": "0.0-61.0-0.0"}}, {"uniqueid": "MTK1291:3R2PKQ87NXFCQD9Z2TB80WRER4QMIW", "current_trial": 89, "dateTime": 1513536429395, "trialdata": {"rt": -1, "stimulus": "<p id=\"stim\">GIRL</p>", "key_press": -1, "type": "PRES_VIS", "word": "girl", "wordID": 636, "conditions": [24, 800, "v", 12000], "trial": 2, "serialpos": 0, "trial_type": "single-stim", "trial_index": 89, "time_elapsed": 490576, "internal_node_id": "0.0-62.0"}}, {"uniqueid": "MTK1291:3R2PKQ87NXFCQD9Z2TB80WRER4QMIW", "current_trial": 90, "dateTime": 1513536431225, "trialdata": {"rt": -1, "stimulus": "<p id=\"stim\">COUNTY</p>", "key_press": -1, "type": "PRES_VIS", "word": "county", "wordID": 388, "conditions": [24, 800, "v", 12000], "trial": 2, "serialpos": 1, "trial_type": "single-stim", "trial_index": 90, "time_elapsed": 492406, "internal_node_id": "0.0-63.0"}}, {"uniqueid": "MTK1291:3R2PKQ87NXFCQD9Z2TB80WRER4QMIW", "current_trial": 91, "dateTime": 1513536432855, "trialdata": {"rt": -1, "stimulus": "<p id=\"stim\">KNIFE</p>", "key_press": -1, "type": "PRES_VIS", "word": "knife", "wordID": 784, "conditions": [24, 800, "v", 12000], "trial": 2, "serialpos": 2, "trial_type": "single-stim", "trial_index": 91, "time_elapsed": 494036, "internal_node_id": "0.0-64.0"}}, {"uniqueid": "MTK1291:3R2PKQ87NXFCQD9Z2TB80WRER4QMIW", "current_trial": 92, "dateTime": 1513536434756, "trialdata": {"rt": -1, "stimulus": "<p id=\"stim\">BACON</p>", "key_press": -1, "type": "PRES_VIS", "word": "bacon", "wordID": 66, "conditions": [24, 800, "v", 12000], "trial": 2, "serialpos": 3, "trial_type": "single-stim", "trial_index": 92, "time_elapsed": 495937, "internal_node_id": "0.0-65.0"}}, {"uniqueid": "MTK1291:3R2PKQ87NXFCQD9Z2TB80WRER4QMIW", "current_trial": 93, "dateTime": 1513536436538, "trialdata": {"rt": -1, "stimulus": "<p id=\"stim\">OMELET</p>", "key_press": -1, "type": "PRES_VIS", "word": "omelet", "wordID": 975, "conditions": [24, 800, "v", 12000], "trial": 2, "serialpos": 4, "trial_type": "single-stim", "trial_index": 93, "time_elapsed": 497719, "internal_node_id": "0.0-66.0"}}, {"uniqueid": "MTK1291:3R2PKQ87NXFCQD9Z2TB80WRER4QMIW", "current_trial": 94, "dateTime": 1513536438358, "trialdata": {"rt": -1, "stimulus": "<p id=\"stim\">GUITAR</p>", "key_press": -1, "type": "PRES_VIS", "word": "guitar", "wordID": 669, "conditions": [24, 800, "v", 12000], "trial": 2, "serialpos": 5, "trial_type": "single-stim", "trial_index": 94, "time_elapsed": 499539, "internal_node_id": "0.0-67.0"}}, {"uniqueid": "MTK1291:3R2PKQ87NXFCQD9Z2TB80WRER4QMIW", "current_trial": 95, "dateTime": 1513536439961, "trialdata": {"rt": -1, "stimulus": "<p id=\"stim\">BANKER</p>", "key_press": -1, "type": "PRES_VIS", "word": "banker", "wordID": 83, "conditions": [24, 800, "v", 12000], "trial": 2, "serialpos": 6, "trial_type": "single-stim", "trial_index": 95, "time_elapsed": 501142, "internal_node_id": "0.0-68.0"}}, {"uniqueid": "MTK1291:3R2PKQ87NXFCQD9Z2TB80WRER4QMIW", "current_trial": 96, "dateTime": 1513536441784, "trialdata": {"rt": -1, "stimulus": "<p id=\"stim\">FRUIT</p>", "key_press": -1, "type": "PRES_VIS", "word": "fruit", "wordID": 609, "conditions": [24, 800, "v", 12000], "trial": 2, "serialpos": 7, "trial_type": "single-stim", "trial_index": 96, "time_elapsed": 502965, "internal_node_id": "0.0-69.0"}}, {"uniqueid": "MTK1291:3R2PKQ87NXFCQD9Z2TB80WRER4QMIW", "current_trial": 97, "dateTime": 1513536443437, "trialdata": {"rt": -1, "stimulus": "<p id=\"stim\">SHERIFF</p>", "key_press": -1, "type": "PRES_VIS", "word": "sheriff", "wordID": 1283, "conditions": [24, 800, "v", 12000], "trial": 2, "serialpos": 8, "trial_type": "single-stim", "trial_index": 97, "time_elapsed": 504618, "internal_node_id": "0.0-70.0"}}, {"uniqueid": "MTK1291:3R2PKQ87NXFCQD9Z2TB80WRER4QMIW", "current_trial": 98, "dateTime": 1513536445295, "trialdata": {"rt": -1, "stimulus": "<p id=\"stim\">CHEST</p>", "key_press": -1, "type": "PRES_VIS", "word": "chest", "wordID": 294, "conditions": [24, 800, "v", 12000], "trial": 2, "serialpos": 9, "trial_type": "single-stim", "trial_index": 98, "time_elapsed": 506476, "internal_node_id": "0.0-71.0"}}, {"uniqueid": "MTK1291:3R2PKQ87NXFCQD9Z2TB80WRER4QMIW", "current_trial": 99, "dateTime": 1513536447242, "trialdata": {"rt": -1, "stimulus": "<p id=\"stim\">POWDER</p>", "key_press": -1, "type": "PRES_VIS", "word": "powder", "wordID": 1116, "conditions": [24, 800, "v", 12000], "trial": 2, "serialpos": 10, "trial_type": "single-stim", "trial_index": 99, "time_elapsed": 508423, "internal_node_id": "0.0-72.0"}}, {"uniqueid": "MTK1291:3R2PKQ87NXFCQD9Z2TB80WRER4QMIW", "current_trial": 100, "dateTime": 1513536449100, "trialdata": {"rt": -1, "stimulus": "<p id=\"stim\">RAZOR</p>", "key_press": -1, "type": "PRES_VIS", "word": "razor", "wordID": 1170, "conditions": [24, 800, "v", 12000], "trial": 2, "serialpos": 11, "trial_type": "single-stim", "trial_index": 100, "time_elapsed": 510281, "internal_node_id": "0.0-73.0"}}, {"uniqueid": "MTK1291:3R2PKQ87NXFCQD9Z2TB80WRER4QMIW", "current_trial": 101, "dateTime": 1513536450748, "trialdata": {"rt": -1, "stimulus": "<p id=\"stim\">SWIMMER</p>", "key_press": -1, "type": "PRES_VIS", "word": "swimmer", "wordID": 1419, "conditions": [24, 800, "v", 12000], "trial": 2, "serialpos": 12, "trial_type": "single-stim", "trial_index": 101, "time_elapsed": 511929, "internal_node_id": "0.0-74.0"}}, {"uniqueid": "MTK1291:3R2PKQ87NXFCQD9Z2TB80WRER4QMIW", "current_trial": 102, "dateTime": 1513536452694, "trialdata": {"rt": -1, "stimulus": "<p id=\"stim\">PANTHER</p>", "key_press": -1, "type": "PRES_VIS", "word": "panther", "wordID": 1008, "conditions": [24, 800, "v", 12000], "trial": 2, "serialpos": 13, "trial_type": "single-stim", "trial_index": 102, "time_elapsed": 513875, "internal_node_id": "0.0-75.0"}}, {"uniqueid": "MTK1291:3R2PKQ87NXFCQD9Z2TB80WRER4QMIW", "current_trial": 103, "dateTime": 1513536454575, "trialdata": {"rt": -1, "stimulus": "<p id=\"stim\">TORTOISE</p>", "key_press": -1, "type": "PRES_VIS", "word": "tortoise", "wordID": 1485, "conditions": [24, 800, "v", 12000], "trial": 2, "serialpos": 14, "trial_type": "single-stim", "trial_index": 103, "time_elapsed": 515756, "internal_node_id": "0.0-76.0"}}, {"uniqueid": "MTK1291:3R2PKQ87NXFCQD9Z2TB80WRER4QMIW", "current_trial": 104, "dateTime": 1513536456441, "trialdata": {"rt": -1, "stimulus": "<p id=\"stim\">MARKET</p>", "key_press": -1, "type": "PRES_VIS", "word": "market", "wordID": 870, "conditions": [24, 800, "v", 12000], "trial": 2, "serialpos": 15, "trial_type": "single-stim", "trial_index": 104, "time_elapsed": 517622, "internal_node_id": "0.0-77.0"}}, {"uniqueid": "MTK1291:3R2PKQ87NXFCQD9Z2TB80WRER4QMIW", "current_trial": 105, "dateTime": 1513536458251, "trialdata": {"rt": -1, "stimulus": "<p id=\"stim\">POSTAGE</p>", "key_press": -1, "type": "PRES_VIS", "word": "postage", "wordID": 1112, "conditions": [24, 800, "v", 12000], "trial": 2, "serialpos": 16, "trial_type": "single-stim", "trial_index": 105, "time_elapsed": 519432, "internal_node_id": "0.0-78.0"}}, {"uniqueid": "MTK1291:3R2PKQ87NXFCQD9Z2TB80WRER4QMIW", "current_trial": 106, "dateTime": 1513536460158, "trialdata": {"rt": -1, "stimulus": "<p id=\"stim\">THREAD</p>", "key_press": -1, "type": "PRES_VIS", "word": "thread", "wordID": 1459, "conditions": [24, 800, "v", 12000], "trial": 2, "serialpos": 17, "trial_type": "single-stim", "trial_index": 106, "time_elapsed": 521339, "internal_node_id": "0.0-79.0"}}, {"uniqueid": "MTK1291:3R2PKQ87NXFCQD9Z2TB80WRER4QMIW", "current_trial": 107, "dateTime": 1513536462028, "trialdata": {"rt": -1, "stimulus": "<p id=\"stim\">GYMNAST</p>", "key_press": -1, "type": "PRES_VIS", "word": "gymnast", "wordID": 674, "conditions": [24, 800, "v", 12000], "trial": 2, "serialpos": 18, "trial_type": "single-stim", "trial_index": 107, "time_elapsed": 523209, "internal_node_id": "0.0-80.0"}}, {"uniqueid": "MTK1291:3R2PKQ87NXFCQD9Z2TB80WRER4QMIW", "current_trial": 108, "dateTime": 1513536463634, "trialdata": {"rt": -1, "stimulus": "<p id=\"stim\">GLOBE</p>", "key_press": -1, "type": "PRES_VIS", "word": "globe", "wordID": 640, "conditions": [24, 800, "v", 12000], "trial": 2, "serialpos": 19, "trial_type": "single-stim", "trial_index": 108, "time_elapsed": 524815, "internal_node_id": "0.0-81.0"}}, {"uniqueid": "MTK1291:3R2PKQ87NXFCQD9Z2TB80WRER4QMIW", "current_trial": 109, "dateTime": 1513536465385, "trialdata": {"rt": -1, "stimulus": "<p id=\"stim\">BIKE</p>", "key_press": -1, "type": "PRES_VIS", "word": "bike", "wordID": 124, "conditions": [24, 800, "v", 12000], "trial": 2, "serialpos": 20, "trial_type": "single-stim", "trial_index": 109, "time_elapsed": 526566, "internal_node_id": "0.0-82.0"}}, {"uniqueid": "MTK1291:3R2PKQ87NXFCQD9Z2TB80WRER4QMIW", "current_trial": 110, "dateTime": 1513536467060, "trialdata": {"rt": -1, "stimulus": "<p id=\"stim\">TRACTOR</p>", "key_press": -1, "type": "PRES_VIS", "word": "tractor", "wordID": 1492, "conditions": [24, 800, "v", 12000], "trial": 2, "serialpos": 21, "trial_type": "single-stim", "trial_index": 110, "time_elapsed": 528241, "internal_node_id": "0.0-83.0"}}, {"uniqueid": "MTK1291:3R2PKQ87NXFCQD9Z2TB80WRER4QMIW", "current_trial": 111, "dateTime": 1513536468782, "trialdata": {"rt": -1, "stimulus": "<p id=\"stim\">GOBLIN</p>", "key_press": -1, "type": "PRES_VIS", "word": "goblin", "wordID": 644, "conditions": [24, 800, "v", 12000], "trial": 2, "serialpos": 22, "trial_type": "single-stim", "trial_index": 111, "time_elapsed": 529963, "internal_node_id": "0.0-84.0"}}, {"uniqueid": "MTK1291:3R2PKQ87NXFCQD9Z2TB80WRER4QMIW", "current_trial": 112, "dateTime": 1513536470768, "trialdata": {"rt": -1, "stimulus": "<p id=\"stim\">SPACE</p>", "key_press": -1, "type": "PRES_VIS", "word": "space", "wordID": 1344, "conditions": [24, 800, "v", 12000], "trial": 2, "serialpos": 23, "trial_type": "single-stim", "trial_index": 112, "time_elapsed": 531949, "internal_node_id": "0.0-85.0"}}, {"uniqueid": "MTK1291:3R2PKQ87NXFCQD9Z2TB80WRER4QMIW", "current_trial": 113, "dateTime": 1513536473277, "trialdata": {"rt": -1, "stimulus": "", "key_press": -1, "type": "PRE_RECALL_DELAY", "trial_type": "single-stim", "trial_index": 113, "time_elapsed": 534458, "internal_node_id": "0.0-86.0-0.0"}}, {"uniqueid": "MTK1291:3R2PKQ87NXFCQD9Z2TB80WRER4QMIW", "current_trial": 114, "dateTime": 1513536473778, "trialdata": {"rt": -1000, "stimulus": "/static/audio/400Hz.wav", "key_press": -1, "type": "PRE_RECALL_ALERT", "trial_type": "single-audio", "trial_index": 114, "time_elapsed": 534958, "internal_node_id": "0.0-87.0"}}, {"uniqueid": "MTK1291:3R2PKQ87NXFCQD9Z2TB80WRER4QMIW", "current_trial": 115, "dateTime": 1513536533783, "trialdata": {"rt": [2162, 3120, 5092, 7415, 8832, 9778, 11254, 12607, 14103, 15744, 17128], "recwords": ["globe", "bike", "tractor", "goblin", "space", "knife", "bacon", "county", "girl", "guitar", "banker"], "type": "FREE_RECALL", "conditions": [24, 800, "v", 12000], "trial": 2, "trial_type": "free-recall", "trial_index": 115, "time_elapsed": 594961, "internal_node_id": "0.0-88.0-0.0"}}, {"uniqueid": "MTK1291:3R2PKQ87NXFCQD9Z2TB80WRER4QMIW", "current_trial": 116, "dateTime": 1513536537115, "trialdata": {"rt": 1331, "key_press": 13, "type": "INSTRUCTIONS", "trial_type": "text", "trial_index": 116, "time_elapsed": 598296, "internal_node_id": "0.0-89.0"}}, {"uniqueid": "MTK1291:3R2PKQ87NXFCQD9Z2TB80WRER4QMIW", "current_trial": 117, "dateTime": 1513536563117, "trialdata": {"rt": [5419, 7663, 10162, 12531, 15763, 18594, 21388], "responses": ["24", "9", "14", "16", "19", "17", "19"], "num1": [7, 1, 2, 2, 7, 2, 7, 8], "num2": [9, 7, 4, 7, 7, 6, 6, 3], "num3": [8, 1, 8, 7, 5, 9, 6, 3], "type": "DISTRACTOR", "conditions": [12, 1600, "a", 24000], "trial": 3, "trial_type": "math-distractor", "trial_index": 117, "time_elapsed": 624298, "internal_node_id": "0.0-90.0"}}, {"uniqueid": "MTK1291:3R2PKQ87NXFCQD9Z2TB80WRER4QMIW", "current_trial": 118, "dateTime": 1513536566119, "trialdata": {"rt": -1, "stimulus": "<p id=\"stim\">10</p>", "key_press": -1, "trial_type": "single-stim", "trial_index": 118, "time_elapsed": 627300, "internal_node_id": "0.0-91.0-0.0"}}, {"uniqueid": "MTK1291:3R2PKQ87NXFCQD9Z2TB80WRER4QMIW", "current_trial": 119, "dateTime": 1513536567122, "trialdata": {"rt": -1, "stimulus": "<p id=\"stim\">9</p>", "key_press": -1, "trial_type": "single-stim", "trial_index": 119, "time_elapsed": 628303, "internal_node_id": "0.0-91.0-1.0"}}, {"uniqueid": "MTK1291:3R2PKQ87NXFCQD9Z2TB80WRER4QMIW", "current_trial": 120, "dateTime": 1513536568124, "trialdata": {"rt": -1, "stimulus": "<p id=\"stim\">8</p>", "key_press": -1, "trial_type": "single-stim", "trial_index": 120, "time_elapsed": 629304, "internal_node_id": "0.0-91.0-2.0"}}, {"uniqueid": "MTK1291:3R2PKQ87NXFCQD9Z2TB80WRER4QMIW", "current_trial": 121, "dateTime": 1513536569125, "trialdata": {"rt": -1, "stimulus": "<p id=\"stim\">7</p>", "key_press": -1, "trial_type": "single-stim", "trial_index": 121, "time_elapsed": 630305, "internal_node_id": "0.0-91.0-3.0"}}, {"uniqueid": "MTK1291:3R2PKQ87NXFCQD9Z2TB80WRER4QMIW", "current_trial": 122, "dateTime": 1513536570126, "trialdata": {"rt": -1, "stimulus": "<p id=\"stim\">6</p>", "key_press": -1, "trial_type": "single-stim", "trial_index": 122, "time_elapsed": 631307, "internal_node_id": "0.0-91.0-4.0"}}, {"uniqueid": "MTK1291:3R2PKQ87NXFCQD9Z2TB80WRER4QMIW", "current_trial": 123, "dateTime": 1513536571127, "trialdata": {"rt": -1, "stimulus": "<p id=\"stim\">5</p>", "key_press": -1, "trial_type": "single-stim", "trial_index": 123, "time_elapsed": 632308, "internal_node_id": "0.0-91.0-5.0"}}, {"uniqueid": "MTK1291:3R2PKQ87NXFCQD9Z2TB80WRER4QMIW", "current_trial": 124, "dateTime": 1513536572129, "trialdata": {"rt": -1, "stimulus": "<p id=\"stim\">4</p>", "key_press": -1, "trial_type": "single-stim", "trial_index": 124, "time_elapsed": 633310, "internal_node_id": "0.0-91.0-6.0"}}, {"uniqueid": "MTK1291:3R2PKQ87NXFCQD9Z2TB80WRER4QMIW", "current_trial": 125, "dateTime": 1513536573130, "trialdata": {"rt": -1, "stimulus": "<p id=\"stim\">3</p>", "key_press": -1, "trial_type": "single-stim", "trial_index": 125, "time_elapsed": 634311, "internal_node_id": "0.0-91.0-7.0"}}, {"uniqueid": "MTK1291:3R2PKQ87NXFCQD9Z2TB80WRER4QMIW", "current_trial": 126, "dateTime": 1513536574131, "trialdata": {"rt": -1, "stimulus": "<p id=\"stim\">2</p>", "key_press": -1, "trial_type": "single-stim", "trial_index": 126, "time_elapsed": 635312, "internal_node_id": "0.0-91.0-8.0"}}, {"uniqueid": "MTK1291:3R2PKQ87NXFCQD9Z2TB80WRER4QMIW", "current_trial": 127, "dateTime": 1513536575132, "trialdata": {"rt": -1, "stimulus": "<p id=\"stim\">1</p>", "key_press": -1, "trial_type": "single-stim", "trial_index": 127, "time_elapsed": 636313, "internal_node_id": "0.0-91.0-9.0"}}, {"uniqueid": "MTK1291:3R2PKQ87NXFCQD9Z2TB80WRER4QMIW", "current_trial": 128, "dateTime": 1513536576634, "trialdata": {"rt": -1, "stimulus": "<p id=\"stim\">+</p>", "key_press": -1, "type": "FIXATION", "trial_type": "single-stim", "trial_index": 128, "time_elapsed": 637815, "internal_node_id": "0.0-92.0-0.0"}}, {"uniqueid": "MTK1291:3R2PKQ87NXFCQD9Z2TB80WRER4QMIW", "current_trial": 129, "dateTime": 1513536579297, "trialdata": {"rt": -1000, "stimulus": "/static/audio/wordpool/THIEF.wav", "key_press": -1, "type": "PRES_AUD", "word": "thief", "wordID": 1455, "conditions": [12, 1600, "a", 24000], "trial": 3, "serialpos": 0, "trial_type": "single-audio", "trial_index": 129, "time_elapsed": 640478, "internal_node_id": "0.0-93.0"}}, {"uniqueid": "MTK1291:3R2PKQ87NXFCQD9Z2TB80WRER4QMIW", "current_trial": 130, "dateTime": 1513536581932, "trialdata": {"rt": -1000, "stimulus": "/static/audio/wordpool/DOUGHNUT.wav", "key_press": -1, "type": "PRES_AUD", "word": "doughnut", "wordID": 489, "conditions": [12, 1600, "a", 24000], "trial": 3, "serialpos": 1, "trial_type": "single-audio", "trial_index": 130, "time_elapsed": 643113, "internal_node_id": "0.0-94.0"}}, {"uniqueid": "MTK1291:3R2PKQ87NXFCQD9Z2TB80WRER4QMIW", "current_trial": 131, "dateTime": 1513536584344, "trialdata": {"rt": -1000, "stimulus": "/static/audio/wordpool/GUARD.wav", "key_press": -1, "type": "PRES_AUD", "word": "guard", "wordID": 666, "conditions": [12, 1600, "a", 24000], "trial": 3, "serialpos": 2, "trial_type": "single-audio", "trial_index": 131, "time_elapsed": 645523, "internal_node_id": "0.0-95.0"}}, {"uniqueid": "MTK1291:3R2PKQ87NXFCQD9Z2TB80WRER4QMIW", "current_trial": 132, "dateTime": 1513536587003, "trialdata": {"rt": -1000, "stimulus": "/static/audio/wordpool/PARSLEY.wav", "key_press": -1, "type": "PRES_AUD", "word": "parsley", "wordID": 1015, "conditions": [12, 1600, "a", 24000], "trial": 3, "serialpos": 3, "trial_type": "single-audio", "trial_index": 132, "time_elapsed": 648184, "internal_node_id": "0.0-96.0"}}, {"uniqueid": "MTK1291:3R2PKQ87NXFCQD9Z2TB80WRER4QMIW", "current_trial": 133, "dateTime": 1513536589753, "trialdata": {"rt": -1000, "stimulus": "/static/audio/wordpool/FLASK.wav", "key_press": -1, "type": "PRES_AUD", "word": "flask", "wordID": 575, "conditions": [12, 1600, "a", 24000], "trial": 3, "serialpos": 4, "trial_type": "single-audio", "trial_index": 133, "time_elapsed": 650933, "internal_node_id": "0.0-97.0"}}, {"uniqueid": "MTK1291:3R2PKQ87NXFCQD9Z2TB80WRER4QMIW", "current_trial": 134, "dateTime": 1513536592371, "trialdata": {"rt": -1000, "stimulus": "/static/audio/wordpool/SNACK.wav", "key_press": -1, "type": "PRES_AUD", "word": "snack", "wordID": 1330, "conditions": [12, 1600, "a", 24000], "trial": 3, "serialpos": 5, "trial_type": "single-audio", "trial_index": 134, "time_elapsed": 653552, "internal_node_id": "0.0-98.0"}}, {"uniqueid": "MTK1291:3R2PKQ87NXFCQD9Z2TB80WRER4QMIW", "current_trial": 135, "dateTime": 1513536594838, "trialdata": {"rt": -1000, "stimulus": "/static/audio/wordpool/LIZARD.wav", "key_press": -1, "type": "PRES_AUD", "word": "lizard", "wordID": 833, "conditions": [12, 1600, "a", 24000], "trial": 3, "serialpos": 6, "trial_type": "single-audio", "trial_index": 135, "time_elapsed": 656018, "internal_node_id": "0.0-99.0"}}, {"uniqueid": "MTK1291:3R2PKQ87NXFCQD9Z2TB80WRER4QMIW", "current_trial": 136, "dateTime": 1513536597506, "trialdata": {"rt": -1000, "stimulus": "/static/audio/wordpool/POSSUM.wav", "key_press": -1, "type": "PRES_AUD", "word": "possum", "wordID": 1111, "conditions": [12, 1600, "a", 24000], "trial": 3, "serialpos": 7, "trial_type": "single-audio", "trial_index": 136, "time_elapsed": 658687, "internal_node_id": "0.0-100.0"}}, {"uniqueid": "MTK1291:3R2PKQ87NXFCQD9Z2TB80WRER4QMIW", "current_trial": 137, "dateTime": 1513536600283, "trialdata": {"rt": -1000, "stimulus": "/static/audio/wordpool/CANDY.wav", "key_press": -1, "type": "PRES_AUD", "word": "candy", "wordID": 229, "conditions": [12, 1600, "a", 24000], "trial": 3, "serialpos": 8, "trial_type": "single-audio", "trial_index": 137, "time_elapsed": 661464, "internal_node_id": "0.0-101.0"}}, {"uniqueid": "MTK1291:3R2PKQ87NXFCQD9Z2TB80WRER4QMIW", "current_trial": 138, "dateTime": 1513536602719, "trialdata": {"rt": -1000, "stimulus": "/static/audio/wordpool/APRON.wav", "key_press": -1, "type": "PRES_AUD", "word": "apron", "wordID": 34, "conditions": [12, 1600, "a", 24000], "trial": 3, "serialpos": 9, "trial_type": "single-audio", "trial_index": 138, "time_elapsed": 663900, "internal_node_id": "0.0-102.0"}}, {"uniqueid": "MTK1291:3R2PKQ87NXFCQD9Z2TB80WRER4QMIW", "current_trial": 139, "dateTime": 1513536605353, "trialdata": {"rt": -1000, "stimulus": "/static/audio/wordpool/BUCKET.wav", "key_press": -1, "type": "PRES_AUD", "word": "bucket", "wordID": 183, "conditions": [12, 1600, "a", 24000], "trial": 3, "serialpos": 10, "trial_type": "single-audio", "trial_index": 139, "time_elapsed": 666534, "internal_node_id": "0.0-103.0"}}, {"uniqueid": "MTK1291:3R2PKQ87NXFCQD9Z2TB80WRER4QMIW", "current_trial": 140, "dateTime": 1513536607794, "trialdata": {"rt": -1000, "stimulus": "/static/audio/wordpool/SHELTER.wav", "key_press": -1, "type": "PRES_AUD", "word": "shelter", "wordID": 1281, "conditions": [12, 1600, "a", 24000], "trial": 3, "serialpos": 11, "trial_type": "single-audio", "trial_index": 140, "time_elapsed": 668975, "internal_node_id": "0.0-104.0"}}, {"uniqueid": "MTK1291:3R2PKQ87NXFCQD9Z2TB80WRER4QMIW", "current_trial": 141, "dateTime": 1513536609180, "trialdata": {"rt": -1, "stimulus": "", "key_press": -1, "type": "PRE_RECALL_DELAY", "trial_type": "single-stim", "trial_index": 141, "time_elapsed": 670361, "internal_node_id": "0.0-105.0-0.0"}}, {"uniqueid": "MTK1291:3R2PKQ87NXFCQD9Z2TB80WRER4QMIW", "current_trial": 142, "dateTime": 1513536609681, "trialdata": {"rt": -1000, "stimulus": "/static/audio/400Hz.wav", "key_press": -1, "type": "PRE_RECALL_ALERT", "trial_type": "single-audio", "trial_index": 142, "time_elapsed": 670862, "internal_node_id": "0.0-106.0"}}, {"uniqueid": "MTK1291:3R2PKQ87NXFCQD9Z2TB80WRER4QMIW", "current_trial": 143, "dateTime": 1513536669685, "trialdata": {"rt": [3611, 4931, 6668, 9370, 20651, 28047, 31581], "recwords": ["lizard", "candy", "apron", "shelter", "bucket", "snack", "beef"], "type": "FREE_RECALL", "conditions": [12, 1600, "a", 24000], "trial": 3, "trial_type": "free-recall", "trial_index": 143, "time_elapsed": 730864, "internal_node_id": "0.0-107.0-0.0"}}, {"uniqueid": "MTK1291:3R2PKQ87NXFCQD9Z2TB80WRER4QMIW", "current_trial": 144, "dateTime": 1513536673375, "trialdata": {"rt": 1689, "key_press": 13, "type": "INSTRUCTIONS", "trial_type": "text", "trial_index": 144, "time_elapsed": 734556, "internal_node_id": "0.0-108.0"}}, {"uniqueid": "MTK1291:3R2PKQ87NXFCQD9Z2TB80WRER4QMIW", "current_trial": 145, "dateTime": 1513536699377, "trialdata": {"rt": [5334, 9013, 12314, 15771, 18122, 21211, 23603], "responses": ["22", "14", "15", "17", "18", "14", "17"], "num1": [5, 2, 3, 5, 2, 1, 8, 7], "num2": [9, 7, 5, 9, 8, 7, 8, 5], "num3": [8, 5, 7, 3, 8, 6, 1, 7], "type": "DISTRACTOR", "conditions": [24, 1600, "v", 24000], "trial": 4, "trial_type": "math-distractor", "trial_index": 145, "time_elapsed": 760558, "internal_node_id": "0.0-109.0"}}, {"uniqueid": "MTK1291:3R2PKQ87NXFCQD9Z2TB80WRER4QMIW", "current_trial": 146, "dateTime": 1513536702379, "trialdata": {"rt": -1, "stimulus": "<p id=\"stim\">10</p>", "key_press": -1, "trial_type": "single-stim", "trial_index": 146, "time_elapsed": 763560, "internal_node_id": "0.0-110.0-0.0"}}, {"uniqueid": "MTK1291:3R2PKQ87NXFCQD9Z2TB80WRER4QMIW", "current_trial": 147, "dateTime": 1513536703380, "trialdata": {"rt": -1, "stimulus": "<p id=\"stim\">9</p>", "key_press": -1, "trial_type": "single-stim", "trial_index": 147, "time_elapsed": 764561, "internal_node_id": "0.0-110.0-1.0"}}, {"uniqueid": "MTK1291:3R2PKQ87NXFCQD9Z2TB80WRER4QMIW", "current_trial": 148, "dateTime": 1513536704383, "trialdata": {"rt": -1, "stimulus": "<p id=\"stim\">8</p>", "key_press": -1, "trial_type": "single-stim", "trial_index": 148, "time_elapsed": 765563, "internal_node_id": "0.0-110.0-2.0"}}, {"uniqueid": "MTK1291:3R2PKQ87NXFCQD9Z2TB80WRER4QMIW", "current_trial": 149, "dateTime": 1513536705384, "trialdata": {"rt": -1, "stimulus": "<p id=\"stim\">7</p>", "key_press": -1, "trial_type": "single-stim", "trial_index": 149, "time_elapsed": 766565, "internal_node_id": "0.0-110.0-3.0"}}, {"uniqueid": "MTK1291:3R2PKQ87NXFCQD9Z2TB80WRER4QMIW", "current_trial": 150, "dateTime": 1513536706385, "trialdata": {"rt": -1, "stimulus": "<p id=\"stim\">6</p>", "key_press": -1, "trial_type": "single-stim", "trial_index": 150, "time_elapsed": 767566, "internal_node_id": "0.0-110.0-4.0"}}, {"uniqueid": "MTK1291:3R2PKQ87NXFCQD9Z2TB80WRER4QMIW", "current_trial": 151, "dateTime": 1513536707386, "trialdata": {"rt": -1, "stimulus": "<p id=\"stim\">5</p>", "key_press": -1, "trial_type": "single-stim", "trial_index": 151, "time_elapsed": 768567, "internal_node_id": "0.0-110.0-5.0"}}, {"uniqueid": "MTK1291:3R2PKQ87NXFCQD9Z2TB80WRER4QMIW", "current_trial": 152, "dateTime": 1513536708387, "trialdata": {"rt": -1, "stimulus": "<p id=\"stim\">4</p>", "key_press": -1, "trial_type": "single-stim", "trial_index": 152, "time_elapsed": 769568, "internal_node_id": "0.0-110.0-6.0"}}, {"uniqueid": "MTK1291:3R2PKQ87NXFCQD9Z2TB80WRER4QMIW", "current_trial": 153, "dateTime": 1513536709389, "trialdata": {"rt": -1, "stimulus": "<p id=\"stim\">3</p>", "key_press": -1, "trial_type": "single-stim", "trial_index": 153, "time_elapsed": 770570, "internal_node_id": "0.0-110.0-7.0"}}, {"uniqueid": "MTK1291:3R2PKQ87NXFCQD9Z2TB80WRER4QMIW", "current_trial": 154, "dateTime": 1513536710390, "trialdata": {"rt": -1, "stimulus": "<p id=\"stim\">2</p>", "key_press": -1, "trial_type": "single-stim", "trial_index": 154, "time_elapsed": 771571, "internal_node_id": "0.0-110.0-8.0"}}, {"uniqueid": "MTK1291:3R2PKQ87NXFCQD9Z2TB80WRER4QMIW", "current_trial": 155, "dateTime": 1513536711391, "trialdata": {"rt": -1, "stimulus": "<p id=\"stim\">1</p>", "key_press": -1, "trial_type": "single-stim", "trial_index": 155, "time_elapsed": 772572, "internal_node_id": "0.0-110.0-9.0"}}, {"uniqueid": "MTK1291:3R2PKQ87NXFCQD9Z2TB80WRER4QMIW", "current_trial": 156, "dateTime": 1513536712892, "trialdata": {"rt": -1, "stimulus": "<p id=\"stim\">+</p>", "key_press": -1, "type": "FIXATION", "trial_type": "single-stim", "trial_index": 156, "time_elapsed": 774073, "internal_node_id": "0.0-111.0-0.0"}}, {"uniqueid": "MTK1291:3R2PKQ87NXFCQD9Z2TB80WRER4QMIW", "current_trial": 157, "dateTime": 1513536714494, "trialdata": {"rt": -1, "stimulus": "<p id=\"stim\">QUAIL</p>", "key_press": -1, "type": "PRES_VIS", "word": "quail", "wordID": 1146, "conditions": [24, 1600, "v", 24000], "trial": 4, "serialpos": 0, "trial_type": "single-stim", "trial_index": 157, "time_elapsed": 775675, "internal_node_id": "0.0-112.0"}}, {"uniqueid": "MTK1291:3R2PKQ87NXFCQD9Z2TB80WRER4QMIW", "current_trial": 158, "dateTime": 1513536717053, "trialdata": {"rt": -1, "stimulus": "<p id=\"stim\">FIDDLE</p>", "key_press": -1, "type": "PRES_VIS", "word": "fiddle", "wordID": 560, "conditions": [24, 1600, "v", 24000], "trial": 4, "serialpos": 1, "trial_type": "single-stim", "trial_index": 158, "time_elapsed": 778234, "internal_node_id": "0.0-113.0"}}, {"uniqueid": "MTK1291:3R2PKQ87NXFCQD9Z2TB80WRER4QMIW", "current_trial": 159, "dateTime": 1513536719628, "trialdata": {"rt": -1, "stimulus": "<p id=\"stim\">MUFFIN</p>", "key_press": -1, "type": "PRES_VIS", "word": "muffin", "wordID": 928, "conditions": [24, 1600, "v", 24000], "trial": 4, "serialpos": 2, "trial_type": "single-stim", "trial_index": 159, "time_elapsed": 780809, "internal_node_id": "0.0-114.0"}}, {"uniqueid": "MTK1291:3R2PKQ87NXFCQD9Z2TB80WRER4QMIW", "current_trial": 160, "dateTime": 1513536722256, "trialdata": {"rt": -1, "stimulus": "<p id=\"stim\">SUITCASE</p>", "key_press": -1, "type": "PRES_VIS", "word": "suitcase", "wordID": 1402, "conditions": [24, 1600, "v", 24000], "trial": 4, "serialpos": 3, "trial_type": "single-stim", "trial_index": 160, "time_elapsed": 783437, "internal_node_id": "0.0-115.0"}}, {"uniqueid": "MTK1291:3R2PKQ87NXFCQD9Z2TB80WRER4QMIW", "current_trial": 161, "dateTime": 1513536725130, "trialdata": {"rt": -1, "stimulus": "<p id=\"stim\">STAPLE</p>", "key_press": -1, "type": "PRES_VIS", "word": "staple", "wordID": 1370, "conditions": [24, 1600, "v", 24000], "trial": 4, "serialpos": 4, "trial_type": "single-stim", "trial_index": 161, "time_elapsed": 786311, "internal_node_id": "0.0-116.0"}}, {"uniqueid": "MTK1291:3R2PKQ87NXFCQD9Z2TB80WRER4QMIW", "current_trial": 162, "dateTime": 1513536727590, "trialdata": {"rt": -1, "stimulus": "<p id=\"stim\">STATUE</p>", "key_press": -1, "type": "PRES_VIS", "word": "statue", "wordID": 1373, "conditions": [24, 1600, "v", 24000], "trial": 4, "serialpos": 5, "trial_type": "single-stim", "trial_index": 162, "time_elapsed": 788771, "internal_node_id": "0.0-117.0"}}, {"uniqueid": "MTK1291:3R2PKQ87NXFCQD9Z2TB80WRER4QMIW", "current_trial": 163, "dateTime": 1513536730106, "trialdata": {"rt": -1, "stimulus": "<p id=\"stim\">TOMBSTONE</p>", "key_press": -1, "type": "PRES_VIS", "word": "tombstone", "wordID": 1477, "conditions": [24, 1600, "v", 24000], "trial": 4, "serialpos": 6, "trial_type": "single-stim", "trial_index": 163, "time_elapsed": 791286, "internal_node_id": "0.0-118.0"}}, {"uniqueid": "MTK1291:3R2PKQ87NXFCQD9Z2TB80WRER4QMIW", "current_trial": 164, "dateTime": 1513536732569, "trialdata": {"rt": -1, "stimulus": "<p id=\"stim\">SHORTCAKE</p>", "key_press": -1, "type": "PRES_VIS", "word": "shortcake", "wordID": 1291, "conditions": [24, 1600, "v", 24000], "trial": 4, "serialpos": 7, "trial_type": "single-stim", "trial_index": 164, "time_elapsed": 793750, "internal_node_id": "0.0-119.0"}}, {"uniqueid": "MTK1291:3R2PKQ87NXFCQD9Z2TB80WRER4QMIW", "current_trial": 165, "dateTime": 1513536735107, "trialdata": {"rt": -1, "stimulus": "<p id=\"stim\">RADISH</p>", "key_press": -1, "type": "PRES_VIS", "word": "radish", "wordID": 1157, "conditions": [24, 1600, "v", 24000], "trial": 4, "serialpos": 8, "trial_type": "single-stim", "trial_index": 165, "time_elapsed": 796287, "internal_node_id": "0.0-120.0"}}, {"uniqueid": "MTK1291:3R2PKQ87NXFCQD9Z2TB80WRER4QMIW", "current_trial": 166, "dateTime": 1513536737529, "trialdata": {"rt": -1, "stimulus": "<p id=\"stim\">SWITCH</p>", "key_press": -1, "type": "PRES_VIS", "word": "switch", "wordID": 1421, "conditions": [24, 1600, "v", 24000], "trial": 4, "serialpos": 9, "trial_type": "single-stim", "trial_index": 166, "time_elapsed": 798710, "internal_node_id": "0.0-121.0"}}, {"uniqueid": "MTK1291:3R2PKQ87NXFCQD9Z2TB80WRER4QMIW", "current_trial": 167, "dateTime": 1513536740288, "trialdata": {"rt": -1, "stimulus": "<p id=\"stim\">KNAPSACK</p>", "key_press": -1, "type": "PRES_VIS", "word": "knapsack", "wordID": 782, "conditions": [24, 1600, "v", 24000], "trial": 4, "serialpos": 10, "trial_type": "single-stim", "trial_index": 167, "time_elapsed": 801469, "internal_node_id": "0.0-122.0"}}, {"uniqueid": "MTK1291:3R2PKQ87NXFCQD9Z2TB80WRER4QMIW", "current_trial": 168, "dateTime": 1513536743036, "trialdata": {"rt": -1, "stimulus": "<p id=\"stim\">CABBAGE</p>", "key_press": -1, "type": "PRES_VIS", "word": "cabbage", "wordID": 209, "conditions": [24, 1600, "v", 24000], "trial": 4, "serialpos": 11, "trial_type": "single-stim", "trial_index": 168, "time_elapsed": 804217, "internal_node_id": "0.0-123.0"}}, {"uniqueid": "MTK1291:3R2PKQ87NXFCQD9Z2TB80WRER4QMIW", "current_trial": 169, "dateTime": 1513536745847, "trialdata": {"rt": -1, "stimulus": "<p id=\"stim\">RIVER</p>", "key_press": -1, "type": "PRES_VIS", "word": "river", "wordID": 1193, "conditions": [24, 1600, "v", 24000], "trial": 4, "serialpos": 12, "trial_type": "single-stim", "trial_index": 169, "time_elapsed": 807028, "internal_node_id": "0.0-124.0"}}, {"uniqueid": "MTK1291:3R2PKQ87NXFCQD9Z2TB80WRER4QMIW", "current_trial": 170, "dateTime": 1513536748488, "trialdata": {"rt": -1, "stimulus": "<p id=\"stim\">FRANCE</p>", "key_press": -1, "type": "PRES_VIS", "word": "france", "wordID": 600, "conditions": [24, 1600, "v", 24000], "trial": 4, "serialpos": 13, "trial_type": "single-stim", "trial_index": 170, "time_elapsed": 809669, "internal_node_id": "0.0-125.0"}}, {"uniqueid": "MTK1291:3R2PKQ87NXFCQD9Z2TB80WRER4QMIW", "current_trial": 171, "dateTime": 1513536751074, "trialdata": {"rt": -1, "stimulus": "<p id=\"stim\">EUROPE</p>", "key_press": -1, "type": "PRES_VIS", "word": "europe", "wordID": 540, "conditions": [24, 1600, "v", 24000], "trial": 4, "serialpos": 14, "trial_type": "single-stim", "trial_index": 171, "time_elapsed": 812255, "internal_node_id": "0.0-126.0"}}, {"uniqueid": "MTK1291:3R2PKQ87NXFCQD9Z2TB80WRER4QMIW", "current_trial": 172, "dateTime": 1513536753682, "trialdata": {"rt": -1, "stimulus": "<p id=\"stim\">LAKE</p>", "key_press": -1, "type": "PRES_VIS", "word": "lake", "wordID": 795, "conditions": [24, 1600, "v", 24000], "trial": 4, "serialpos": 15, "trial_type": "single-stim", "trial_index": 172, "time_elapsed": 814863, "internal_node_id": "0.0-127.0"}}, {"uniqueid": "MTK1291:3R2PKQ87NXFCQD9Z2TB80WRER4QMIW", "current_trial": 173, "dateTime": 1513536756172, "trialdata": {"rt": -1, "stimulus": "<p id=\"stim\">BEAST</p>", "key_press": -1, "type": "PRES_VIS", "word": "beast", "wordID": 107, "conditions": [24, 1600, "v", 24000], "trial": 4, "serialpos": 16, "trial_type": "single-stim", "trial_index": 173, "time_elapsed": 817353, "internal_node_id": "0.0-128.0"}}, {"uniqueid": "MTK1291:3R2PKQ87NXFCQD9Z2TB80WRER4QMIW", "current_trial": 174, "dateTime": 1513536758935, "trialdata": {"rt": -1, "stimulus": "<p id=\"stim\">COUCH</p>", "key_press": -1, "type": "PRES_VIS", "word": "couch", "wordID": 385, "conditions": [24, 1600, "v", 24000], "trial": 4, "serialpos": 17, "trial_type": "single-stim", "trial_index": 174, "time_elapsed": 820116, "internal_node_id": "0.0-129.0"}}, {"uniqueid": "MTK1291:3R2PKQ87NXFCQD9Z2TB80WRER4QMIW", "current_trial": 175, "dateTime": 1513536761454, "trialdata": {"rt": -1, "stimulus": "<p id=\"stim\">IGLOO</p>", "key_press": -1, "type": "PRES_VIS", "word": "igloo", "wordID": 733, "conditions": [24, 1600, "v", 24000], "trial": 4, "serialpos": 18, "trial_type": "single-stim", "trial_index": 175, "time_elapsed": 822635, "internal_node_id": "0.0-130.0"}}, {"uniqueid": "MTK1291:3R2PKQ87NXFCQD9Z2TB80WRER4QMIW", "current_trial": 176, "dateTime": 1513536764146, "trialdata": {"rt": -1, "stimulus": "<p id=\"stim\">TURNIP</p>", "key_press": -1, "type": "PRES_VIS", "word": "turnip", "wordID": 1520, "conditions": [24, 1600, "v", 24000], "trial": 4, "serialpos": 19, "trial_type": "single-stim", "trial_index": 176, "time_elapsed": 825327, "internal_node_id": "0.0-131.0"}}, {"uniqueid": "MTK1291:3R2PKQ87NXFCQD9Z2TB80WRER4QMIW", "current_trial": 177, "dateTime": 1513536766615, "trialdata": {"rt": -1, "stimulus": "<p id=\"stim\">COLLEGE</p>", "key_press": -1, "type": "PRES_VIS", "word": "college", "wordID": 345, "conditions": [24, 1600, "v", 24000], "trial": 4, "serialpos": 20, "trial_type": "single-stim", "trial_index": 177, "time_elapsed": 827796, "internal_node_id": "0.0-132.0"}}, {"uniqueid": "MTK1291:3R2PKQ87NXFCQD9Z2TB80WRER4QMIW", "current_trial": 178, "dateTime": 1513536769508, "trialdata": {"rt": -1, "stimulus": "<p id=\"stim\">SPOUSE</p>", "key_press": -1, "type": "PRES_VIS", "word": "spouse", "wordID": 1357, "conditions": [24, 1600, "v", 24000], "trial": 4, "serialpos": 21, "trial_type": "single-stim", "trial_index": 178, "time_elapsed": 830689, "internal_node_id": "0.0-133.0"}}, {"uniqueid": "MTK1291:3R2PKQ87NXFCQD9Z2TB80WRER4QMIW", "current_trial": 179, "dateTime": 1513536772307, "trialdata": {"rt": -1, "stimulus": "<p id=\"stim\">LOVER</p>", "key_press": -1, "type": "PRES_VIS", "word": "lover", "wordID": 845, "conditions": [24, 1600, "v", 24000], "trial": 4, "serialpos": 22, "trial_type": "single-stim", "trial_index": 179, "time_elapsed": 833488, "internal_node_id": "0.0-134.0"}}, {"uniqueid": "MTK1291:3R2PKQ87NXFCQD9Z2TB80WRER4QMIW", "current_trial": 180, "dateTime": 1513536774931, "trialdata": {"rt": -1, "stimulus": "<p id=\"stim\">BOYFRIEND</p>", "key_press": -1, "type": "PRES_VIS", "word": "boyfriend", "wordID": 161, "conditions": [24, 1600, "v", 24000], "trial": 4, "serialpos": 23, "trial_type": "single-stim", "trial_index": 180, "time_elapsed": 836112, "internal_node_id": "0.0-135.0"}}, {"uniqueid": "MTK1291:3R2PKQ87NXFCQD9Z2TB80WRER4QMIW", "current_trial": 181, "dateTime": 1513536776993, "trialdata": {"rt": -1, "stimulus": "", "key_press": -1, "type": "PRE_RECALL_DELAY", "trial_type": "single-stim", "trial_index": 181, "time_elapsed": 838174, "internal_node_id": "0.0-136.0-0.0"}}, {"uniqueid": "MTK1291:3R2PKQ87NXFCQD9Z2TB80WRER4QMIW", "current_trial": 182, "dateTime": 1513536777497, "trialdata": {"rt": -1000, "stimulus": "/static/audio/400Hz.wav", "key_press": -1, "type": "PRE_RECALL_ALERT", "trial_type": "single-audio", "trial_index": 182, "time_elapsed": 838678, "internal_node_id": "0.0-137.0"}}, {"uniqueid": "MTK1291:3R2PKQ87NXFCQD9Z2TB80WRER4QMIW", "current_trial": 183, "dateTime": 1513536837502, "trialdata": {"rt": [2131, 3162, 5156, 6583, 7545, 9207, 13942, 16722, 18530, 20001, 22760, 28155, 36463, 55458], "recwords": ["spouse", "lover", "boyfriend", "igloo", "lake", "europe", "couch", "quail", "staple", "statue", "cabbage", "suitcase", "turnip", "beast"], "type": "FREE_RECALL", "conditions": [24, 1600, "v", 24000], "trial": 4, "trial_type": "free-recall", "trial_index": 183, "time_elapsed": 898681, "internal_node_id": "0.0-138.0-0.0"}}, {"uniqueid": "MTK1291:3R2PKQ87NXFCQD9Z2TB80WRER4QMIW", "current_trial": 184, "dateTime": 1513536840890, "trialdata": {"rt": 1386, "key_press": 13, "type": "INSTRUCTIONS", "trial_type": "text", "trial_index": 184, "time_elapsed": 902070, "internal_node_id": "0.0-139.0"}}, {"uniqueid": "MTK1291:3R2PKQ87NXFCQD9Z2TB80WRER4QMIW", "current_trial": 185, "dateTime": 1513536854892, "trialdata": {"rt": [2264, 11644], "responses": ["15", "21"], "num1": [1, 8, 2], "num2": [5, 6, 3], "num3": [9, 7, 9], "type": "DISTRACTOR", "conditions": [24, 1600, "v", 12000], "trial": 5, "trial_type": "math-distractor", "trial_index": 185, "time_elapsed": 916073, "internal_node_id": "0.0-140.0"}}, {"uniqueid": "MTK1291:3R2PKQ87NXFCQD9Z2TB80WRER4QMIW", "current_trial": 186, "dateTime": 1513536857893, "trialdata": {"rt": -1, "stimulus": "<p id=\"stim\">10</p>", "key_press": -1, "trial_type": "single-stim", "trial_index": 186, "time_elapsed": 919074, "internal_node_id": "0.0-141.0-0.0"}}, {"uniqueid": "MTK1291:3R2PKQ87NXFCQD9Z2TB80WRER4QMIW", "current_trial": 187, "dateTime": 1513536858895, "trialdata": {"rt": -1, "stimulus": "<p id=\"stim\">9</p>", "key_press": -1, "trial_type": "single-stim", "trial_index": 187, "time_elapsed": 920076, "internal_node_id": "0.0-141.0-1.0"}}, {"uniqueid": "MTK1291:3R2PKQ87NXFCQD9Z2TB80WRER4QMIW", "current_trial": 188, "dateTime": 1513536859896, "trialdata": {"rt": -1, "stimulus": "<p id=\"stim\">8</p>", "key_press": -1, "trial_type": "single-stim", "trial_index": 188, "time_elapsed": 921077, "internal_node_id": "0.0-141.0-2.0"}}, {"uniqueid": "MTK1291:3R2PKQ87NXFCQD9Z2TB80WRER4QMIW", "current_trial": 189, "dateTime": 1513536860897, "trialdata": {"rt": -1, "stimulus": "<p id=\"stim\">7</p>", "key_press": -1, "trial_type": "single-stim", "trial_index": 189, "time_elapsed": 922078, "internal_node_id": "0.0-141.0-3.0"}}, {"uniqueid": "MTK1291:3R2PKQ87NXFCQD9Z2TB80WRER4QMIW", "current_trial": 190, "dateTime": 1513536861898, "trialdata": {"rt": -1, "stimulus": "<p id=\"stim\">6</p>", "key_press": -1, "trial_type": "single-stim", "trial_index": 190, "time_elapsed": 923079, "internal_node_id": "0.0-141.0-4.0"}}, {"uniqueid": "MTK1291:3R2PKQ87NXFCQD9Z2TB80WRER4QMIW", "current_trial": 191, "dateTime": 1513536862900, "trialdata": {"rt": -1, "stimulus": "<p id=\"stim\">5</p>", "key_press": -1, "trial_type": "single-stim", "trial_index": 191, "time_elapsed": 924081, "internal_node_id": "0.0-141.0-5.0"}}, {"uniqueid": "MTK1291:3R2PKQ87NXFCQD9Z2TB80WRER4QMIW", "current_trial": 192, "dateTime": 1513536863901, "trialdata": {"rt": -1, "stimulus": "<p id=\"stim\">4</p>", "key_press": -1, "trial_type": "single-stim", "trial_index": 192, "time_elapsed": 925082, "internal_node_id": "0.0-141.0-6.0"}}, {"uniqueid": "MTK1291:3R2PKQ87NXFCQD9Z2TB80WRER4QMIW", "current_trial": 193, "dateTime": 1513536864903, "trialdata": {"rt": -1, "stimulus": "<p id=\"stim\">3</p>", "key_press": -1, "trial_type": "single-stim", "trial_index": 193, "time_elapsed": 926084, "internal_node_id": "0.0-141.0-7.0"}}, {"uniqueid": "MTK1291:3R2PKQ87NXFCQD9Z2TB80WRER4QMIW", "current_trial": 194, "dateTime": 1513536865906, "trialdata": {"rt": -1, "stimulus": "<p id=\"stim\">2</p>", "key_press": -1, "trial_type": "single-stim", "trial_index": 194, "time_elapsed": 927085, "internal_node_id": "0.0-141.0-8.0"}}, {"uniqueid": "MTK1291:3R2PKQ87NXFCQD9Z2TB80WRER4QMIW", "current_trial": 195, "dateTime": 1513536866907, "trialdata": {"rt": -1, "stimulus": "<p id=\"stim\">1</p>", "key_press": -1, "trial_type": "single-stim", "trial_index": 195, "time_elapsed": 928088, "internal_node_id": "0.0-141.0-9.0"}}, {"uniqueid": "MTK1291:3R2PKQ87NXFCQD9Z2TB80WRER4QMIW", "current_trial": 196, "dateTime": 1513536868409, "trialdata": {"rt": -1, "stimulus": "<p id=\"stim\">+</p>", "key_press": -1, "type": "FIXATION", "trial_type": "single-stim", "trial_index": 196, "time_elapsed": 929590, "internal_node_id": "0.0-142.0-0.0"}}, {"uniqueid": "MTK1291:3R2PKQ87NXFCQD9Z2TB80WRER4QMIW", "current_trial": 197, "dateTime": 1513536870010, "trialdata": {"rt": -1, "stimulus": "<p id=\"stim\">BABY</p>", "key_press": -1, "type": "PRES_VIS", "word": "baby", "wordID": 63, "conditions": [24, 1600, "v", 12000], "trial": 5, "serialpos": 0, "trial_type": "single-stim", "trial_index": 197, "time_elapsed": 931191, "internal_node_id": "0.0-143.0"}}, {"uniqueid": "MTK1291:3R2PKQ87NXFCQD9Z2TB80WRER4QMIW", "current_trial": 198, "dateTime": 1513536872605, "trialdata": {"rt": -1, "stimulus": "<p id=\"stim\">UNCLE</p>", "key_press": -1, "type": "PRES_VIS", "word": "uncle", "wordID": 1535, "conditions": [24, 1600, "v", 12000], "trial": 5, "serialpos": 1, "trial_type": "single-stim", "trial_index": 198, "time_elapsed": 933785, "internal_node_id": "0.0-144.0"}}, {"uniqueid": "MTK1291:3R2PKQ87NXFCQD9Z2TB80WRER4QMIW", "current_trial": 199, "dateTime": 1513536875262, "trialdata": {"rt": -1, "stimulus": "<p id=\"stim\">SISTER</p>", "key_press": -1, "type": "PRES_VIS", "word": "sister", "wordID": 1311, "conditions": [24, 1600, "v", 12000], "trial": 5, "serialpos": 2, "trial_type": "single-stim", "trial_index": 199, "time_elapsed": 936442, "internal_node_id": "0.0-145.0"}}, {"uniqueid": "MTK1291:3R2PKQ87NXFCQD9Z2TB80WRER4QMIW", "current_trial": 200, "dateTime": 1513536877893, "trialdata": {"rt": -1, "stimulus": "<p id=\"stim\">NOTEBOOK</p>", "key_press": -1, "type": "PRES_VIS", "word": "notebook", "wordID": 958, "conditions": [24, 1600, "v", 12000], "trial": 5, "serialpos": 3, "trial_type": "single-stim", "trial_index": 200, "time_elapsed": 939074, "internal_node_id": "0.0-146.0"}}, {"uniqueid": "MTK1291:3R2PKQ87NXFCQD9Z2TB80WRER4QMIW", "current_trial": 201, "dateTime": 1513536880360, "trialdata": {"rt": -1, "stimulus": "<p id=\"stim\">SCALLOP</p>", "key_press": -1, "type": "PRES_VIS", "word": "scallop", "wordID": 1241, "conditions": [24, 1600, "v", 12000], "trial": 5, "serialpos": 4, "trial_type": "single-stim", "trial_index": 201, "time_elapsed": 941541, "internal_node_id": "0.0-147.0"}}, {"uniqueid": "MTK1291:3R2PKQ87NXFCQD9Z2TB80WRER4QMIW", "current_trial": 202, "dateTime": 1513536883145, "trialdata": {"rt": -1, "stimulus": "<p id=\"stim\">BROOK</p>", "key_press": -1, "type": "PRES_VIS", "word": "brook", "wordID": 176, "conditions": [24, 1600, "v", 12000], "trial": 5, "serialpos": 5, "trial_type": "single-stim", "trial_index": 202, "time_elapsed": 944326, "internal_node_id": "0.0-148.0"}}, {"uniqueid": "MTK1291:3R2PKQ87NXFCQD9Z2TB80WRER4QMIW", "current_trial": 203, "dateTime": 1513536885733, "trialdata": {"rt": -1, "stimulus": "<p id=\"stim\">FIREPLACE</p>", "key_press": -1, "type": "PRES_VIS", "word": "fireplace", "wordID": 569, "conditions": [24, 1600, "v", 12000], "trial": 5, "serialpos": 6, "trial_type": "single-stim", "trial_index": 203, "time_elapsed": 946914, "internal_node_id": "0.0-149.0"}}, {"uniqueid": "MTK1291:3R2PKQ87NXFCQD9Z2TB80WRER4QMIW", "current_trial": 204, "dateTime": 1513536888358, "trialdata": {"rt": -1, "stimulus": "<p id=\"stim\">BLOUSE</p>", "key_press": -1, "type": "PRES_VIS", "word": "blouse", "wordID": 138, "conditions": [24, 1600, "v", 12000], "trial": 5, "serialpos": 7, "trial_type": "single-stim", "trial_index": 204, "time_elapsed": 949539, "internal_node_id": "0.0-150.0"}}, {"uniqueid": "MTK1291:3R2PKQ87NXFCQD9Z2TB80WRER4QMIW", "current_trial": 205, "dateTime": 1513536891123, "trialdata": {"rt": -1, "stimulus": "<p id=\"stim\">CLAM</p>", "key_press": -1, "type": "PRES_VIS", "word": "clam", "wordID": 314, "conditions": [24, 1600, "v", 12000], "trial": 5, "serialpos": 8, "trial_type": "single-stim", "trial_index": 205, "time_elapsed": 952303, "internal_node_id": "0.0-151.0"}}, {"uniqueid": "MTK1291:3R2PKQ87NXFCQD9Z2TB80WRER4QMIW", "current_trial": 206, "dateTime": 1513536893879, "trialdata": {"rt": -1, "stimulus": "<p id=\"stim\">COTTAGE</p>", "key_press": -1, "type": "PRES_VIS", "word": "cottage", "wordID": 383, "conditions": [24, 1600, "v", 12000], "trial": 5, "serialpos": 9, "trial_type": "single-stim", "trial_index": 206, "time_elapsed": 955060, "internal_node_id": "0.0-152.0"}}, {"uniqueid": "MTK1291:3R2PKQ87NXFCQD9Z2TB80WRER4QMIW", "current_trial": 207, "dateTime": 1513536896519, "trialdata": {"rt": -1, "stimulus": "<p id=\"stim\">BOX</p>", "key_press": -1, "type": "PRES_VIS", "word": "box", "wordID": 158, "conditions": [24, 1600, "v", 12000], "trial": 5, "serialpos": 10, "trial_type": "single-stim", "trial_index": 207, "time_elapsed": 957700, "internal_node_id": "0.0-153.0"}}, {"uniqueid": "MTK1291:3R2PKQ87NXFCQD9Z2TB80WRER4QMIW", "current_trial": 208, "dateTime": 1513536898976, "trialdata": {"rt": -1, "stimulus": "<p id=\"stim\">COD</p>", "key_press": -1, "type": "PRES_VIS", "word": "cod", "wordID": 339, "conditions": [24, 1600, "v", 12000], "trial": 5, "serialpos": 11, "trial_type": "single-stim", "trial_index": 208, "time_elapsed": 960157, "internal_node_id": "0.0-154.0"}}, {"uniqueid": "MTK1291:3R2PKQ87NXFCQD9Z2TB80WRER4QMIW", "current_trial": 209, "dateTime": 1513536901590, "trialdata": {"rt": -1, "stimulus": "<p id=\"stim\">ROBIN</p>", "key_press": -1, "type": "PRES_VIS", "word": "robin", "wordID": 1198, "conditions": [24, 1600, "v", 12000], "trial": 5, "serialpos": 12, "trial_type": "single-stim", "trial_index": 209, "time_elapsed": 962771, "internal_node_id": "0.0-155.0"}}, {"uniqueid": "MTK1291:3R2PKQ87NXFCQD9Z2TB80WRER4QMIW", "current_trial": 210, "dateTime": 1513536904335, "trialdata": {"rt": -1, "stimulus": "<p id=\"stim\">SHIRT</p>", "key_press": -1, "type": "PRES_VIS", "word": "shirt", "wordID": 1286, "conditions": [24, 1600, "v", 12000], "trial": 5, "serialpos": 13, "trial_type": "single-stim", "trial_index": 210, "time_elapsed": 965516, "internal_node_id": "0.0-156.0"}}, {"uniqueid": "MTK1291:3R2PKQ87NXFCQD9Z2TB80WRER4QMIW", "current_trial": 211, "dateTime": 1513536906761, "trialdata": {"rt": -1, "stimulus": "<p id=\"stim\">BLADE</p>", "key_press": -1, "type": "PRES_VIS", "word": "blade", "wordID": 133, "conditions": [24, 1600, "v", 12000], "trial": 5, "serialpos": 14, "trial_type": "single-stim", "trial_index": 211, "time_elapsed": 967942, "internal_node_id": "0.0-157.0"}}, {"uniqueid": "MTK1291:3R2PKQ87NXFCQD9Z2TB80WRER4QMIW", "current_trial": 212, "dateTime": 1513536909349, "trialdata": {"rt": -1, "stimulus": "<p id=\"stim\">TROUT</p>", "key_press": -1, "type": "PRES_VIS", "word": "trout", "wordID": 1510, "conditions": [24, 1600, "v", 12000], "trial": 5, "serialpos": 15, "trial_type": "single-stim", "trial_index": 212, "time_elapsed": 970530, "internal_node_id": "0.0-158.0"}}, {"uniqueid": "MTK1291:3R2PKQ87NXFCQD9Z2TB80WRER4QMIW", "current_trial": 213, "dateTime": 1513536911957, "trialdata": {"rt": -1, "stimulus": "<p id=\"stim\">VAGRANT</p>", "key_press": -1, "type": "PRES_VIS", "word": "vagrant", "wordID": 1543, "conditions": [24, 1600, "v", 12000], "trial": 5, "serialpos": 16, "trial_type": "single-stim", "trial_index": 213, "time_elapsed": 973138, "internal_node_id": "0.0-159.0"}}, {"uniqueid": "MTK1291:3R2PKQ87NXFCQD9Z2TB80WRER4QMIW", "current_trial": 214, "dateTime": 1513536914502, "trialdata": {"rt": -1, "stimulus": "<p id=\"stim\">PICTURE</p>", "key_press": -1, "type": "PRES_VIS", "word": "picture", "wordID": 1060, "conditions": [24, 1600, "v", 12000], "trial": 5, "serialpos": 17, "trial_type": "single-stim", "trial_index": 214, "time_elapsed": 975683, "internal_node_id": "0.0-160.0"}}, {"uniqueid": "MTK1291:3R2PKQ87NXFCQD9Z2TB80WRER4QMIW", "current_trial": 215, "dateTime": 1513536917169, "trialdata": {"rt": -1, "stimulus": "<p id=\"stim\">DRESS</p>", "key_press": -1, "type": "PRES_VIS", "word": "dress", "wordID": 494, "conditions": [24, 1600, "v", 12000], "trial": 5, "serialpos": 18, "trial_type": "single-stim", "trial_index": 215, "time_elapsed": 978350, "internal_node_id": "0.0-161.0"}}, {"uniqueid": "MTK1291:3R2PKQ87NXFCQD9Z2TB80WRER4QMIW", "current_trial": 216, "dateTime": 1513536919854, "trialdata": {"rt": -1, "stimulus": "<p id=\"stim\">CLOTHES</p>", "key_press": -1, "type": "PRES_VIS", "word": "clothes", "wordID": 326, "conditions": [24, 1600, "v", 12000], "trial": 5, "serialpos": 19, "trial_type": "single-stim", "trial_index": 216, "time_elapsed": 981035, "internal_node_id": "0.0-162.0"}}, {"uniqueid": "MTK1291:3R2PKQ87NXFCQD9Z2TB80WRER4QMIW", "current_trial": 217, "dateTime": 1513536922452, "trialdata": {"rt": -1, "stimulus": "<p id=\"stim\">BINDER</p>", "key_press": -1, "type": "PRES_VIS", "word": "binder", "wordID": 126, "conditions": [24, 1600, "v", 12000], "trial": 5, "serialpos": 20, "trial_type": "single-stim", "trial_index": 217, "time_elapsed": 983633, "internal_node_id": "0.0-163.0"}}, {"uniqueid": "MTK1291:3R2PKQ87NXFCQD9Z2TB80WRER4QMIW", "current_trial": 218, "dateTime": 1513536924930, "trialdata": {"rt": -1, "stimulus": "<p id=\"stim\">SPONGE</p>", "key_press": -1, "type": "PRES_VIS", "word": "sponge", "wordID": 1354, "conditions": [24, 1600, "v", 12000], "trial": 5, "serialpos": 21, "trial_type": "single-stim", "trial_index": 218, "time_elapsed": 986111, "internal_node_id": "0.0-164.0"}}, {"uniqueid": "MTK1291:3R2PKQ87NXFCQD9Z2TB80WRER4QMIW", "current_trial": 219, "dateTime": 1513536927542, "trialdata": {"rt": -1, "stimulus": "<p id=\"stim\">QUEEN</p>", "key_press": -1, "type": "PRES_VIS", "word": "queen", "wordID": 1148, "conditions": [24, 1600, "v", 12000], "trial": 5, "serialpos": 22, "trial_type": "single-stim", "trial_index": 219, "time_elapsed": 988723, "internal_node_id": "0.0-165.0"}}, {"uniqueid": "MTK1291:3R2PKQ87NXFCQD9Z2TB80WRER4QMIW", "current_trial": 220, "dateTime": 1513536929957, "trialdata": {"rt": -1, "stimulus": "<p id=\"stim\">SCARF</p>", "key_press": -1, "type": "PRES_VIS", "word": "scarf", "wordID": 1245, "conditions": [24, 1600, "v", 12000], "trial": 5, "serialpos": 23, "trial_type": "single-stim", "trial_index": 220, "time_elapsed": 991138, "internal_node_id": "0.0-166.0"}}, {"uniqueid": "MTK1291:3R2PKQ87NXFCQD9Z2TB80WRER4QMIW", "current_trial": 221, "dateTime": 1513536932116, "trialdata": {"rt": -1, "stimulus": "", "key_press": -1, "type": "PRE_RECALL_DELAY", "trial_type": "single-stim", "trial_index": 221, "time_elapsed": 993297, "internal_node_id": "0.0-167.0-0.0"}}, {"uniqueid": "MTK1291:3R2PKQ87NXFCQD9Z2TB80WRER4QMIW", "current_trial": 222, "dateTime": 1513536932617, "trialdata": {"rt": -1000, "stimulus": "/static/audio/400Hz.wav", "key_press": -1, "type": "PRE_RECALL_ALERT", "trial_type": "single-audio", "trial_index": 222, "time_elapsed": 993798, "internal_node_id": "0.0-168.0"}}, {"uniqueid": "MTK1291:3R2PKQ87NXFCQD9Z2TB80WRER4QMIW", "current_trial": 223, "dateTime": 1513536992623, "trialdata": {"rt": [2522, 3803, 5420, 6630, 8547, 9835, 11803, 13964, 17152, 21313, 25991, 30198, 45213, 51601], "recwords": ["sponge", "queen", "scarf", "cod", "cottage", "uncle", "baby", "picture", "vagrant", "queen", "trout", "scallop", "dress", "notebook"], "type": "FREE_RECALL", "conditions": [24, 1600, "v", 12000], "trial": 5, "trial_type": "free-recall", "trial_index": 223, "time_elapsed": 1053801, "internal_node_id": "0.0-169.0-0.0"}}, {"uniqueid": "MTK1291:3R2PKQ87NXFCQD9Z2TB80WRER4QMIW", "current_trial": 224, "dateTime": 1513536995978, "trialdata": {"rt": 1354, "key_press": 13, "type": "INSTRUCTIONS", "trial_type": "text", "trial_index": 224, "time_elapsed": 1057159, "internal_node_id": "0.0-170.0"}}, {"uniqueid": "MTK1291:3R2PKQ87NXFCQD9Z2TB80WRER4QMIW", "current_trial": 225, "dateTime": 1513537009980, "trialdata": {"rt": [3030, 5570, 8276, 9979, 11514], "responses": ["14", "17", "21", "12", "12"], "num1": [5, 7, 9, 3, 2, 9], "num2": [6, 2, 4, 7, 8, 6], "num3": [3, 8, 8, 2, 2, 3], "type": "DISTRACTOR", "conditions": [24, 800, "a", 12000], "trial": 6, "trial_type": "math-distractor", "trial_index": 225, "time_elapsed": 1071161, "internal_node_id": "0.0-171.0"}}, {"uniqueid": "MTK1291:3R2PKQ87NXFCQD9Z2TB80WRER4QMIW", "current_trial": 226, "dateTime": 1513537012982, "trialdata": {"rt": -1, "stimulus": "<p id=\"stim\">10</p>", "key_press": -1, "trial_type": "single-stim", "trial_index": 226, "time_elapsed": 1074163, "internal_node_id": "0.0-172.0-0.0"}}, {"uniqueid": "MTK1291:3R2PKQ87NXFCQD9Z2TB80WRER4QMIW", "current_trial": 227, "dateTime": 1513537013983, "trialdata": {"rt": -1, "stimulus": "<p id=\"stim\">9</p>", "key_press": -1, "trial_type": "single-stim", "trial_index": 227, "time_elapsed": 1075164, "internal_node_id": "0.0-172.0-1.0"}}, {"uniqueid": "MTK1291:3R2PKQ87NXFCQD9Z2TB80WRER4QMIW", "current_trial": 228, "dateTime": 1513537014985, "trialdata": {"rt": -1, "stimulus": "<p id=\"stim\">8</p>", "key_press": -1, "trial_type": "single-stim", "trial_index": 228, "time_elapsed": 1076165, "internal_node_id": "0.0-172.0-2.0"}}, {"uniqueid": "MTK1291:3R2PKQ87NXFCQD9Z2TB80WRER4QMIW", "current_trial": 229, "dateTime": 1513537015986, "trialdata": {"rt": -1, "stimulus": "<p id=\"stim\">7</p>", "key_press": -1, "trial_type": "single-stim", "trial_index": 229, "time_elapsed": 1077167, "internal_node_id": "0.0-172.0-3.0"}}, {"uniqueid": "MTK1291:3R2PKQ87NXFCQD9Z2TB80WRER4QMIW", "current_trial": 230, "dateTime": 1513537016988, "trialdata": {"rt": -1, "stimulus": "<p id=\"stim\">6</p>", "key_press": -1, "trial_type": "single-stim", "trial_index": 230, "time_elapsed": 1078169, "internal_node_id": "0.0-172.0-4.0"}}, {"uniqueid": "MTK1291:3R2PKQ87NXFCQD9Z2TB80WRER4QMIW", "current_trial": 231, "dateTime": 1513537017990, "trialdata": {"rt": -1, "stimulus": "<p id=\"stim\">5</p>", "key_press": -1, "trial_type": "single-stim", "trial_index": 231, "time_elapsed": 1079171, "internal_node_id": "0.0-172.0-5.0"}}, {"uniqueid": "MTK1291:3R2PKQ87NXFCQD9Z2TB80WRER4QMIW", "current_trial": 232, "dateTime": 1513537018991, "trialdata": {"rt": -1, "stimulus": "<p id=\"stim\">4</p>", "key_press": -1, "trial_type": "single-stim", "trial_index": 232, "time_elapsed": 1080172, "internal_node_id": "0.0-172.0-6.0"}}, {"uniqueid": "MTK1291:3R2PKQ87NXFCQD9Z2TB80WRER4QMIW", "current_trial": 233, "dateTime": 1513537019992, "trialdata": {"rt": -1, "stimulus": "<p id=\"stim\">3</p>", "key_press": -1, "trial_type": "single-stim", "trial_index": 233, "time_elapsed": 1081173, "internal_node_id": "0.0-172.0-7.0"}}, {"uniqueid": "MTK1291:3R2PKQ87NXFCQD9Z2TB80WRER4QMIW", "current_trial": 234, "dateTime": 1513537020994, "trialdata": {"rt": -1, "stimulus": "<p id=\"stim\">2</p>", "key_press": -1, "trial_type": "single-stim", "trial_index": 234, "time_elapsed": 1082174, "internal_node_id": "0.0-172.0-8.0"}}, {"uniqueid": "MTK1291:3R2PKQ87NXFCQD9Z2TB80WRER4QMIW", "current_trial": 235, "dateTime": 1513537021995, "trialdata": {"rt": -1, "stimulus": "<p id=\"stim\">1</p>", "key_press": -1, "trial_type": "single-stim", "trial_index": 235, "time_elapsed": 1083175, "internal_node_id": "0.0-172.0-9.0"}}, {"uniqueid": "MTK1291:3R2PKQ87NXFCQD9Z2TB80WRER4QMIW", "current_trial": 236, "dateTime": 1513537023496, "trialdata": {"rt": -1, "stimulus": "<p id=\"stim\">+</p>", "key_press": -1, "type": "FIXATION", "trial_type": "single-stim", "trial_index": 236, "time_elapsed": 1084677, "internal_node_id": "0.0-173.0-0.0"}}, {"uniqueid": "MTK1291:3R2PKQ87NXFCQD9Z2TB80WRER4QMIW", "current_trial": 237, "dateTime": 1513537025266, "trialdata": {"rt": -1000, "stimulus": "/static/audio/wordpool/AUTHOR.wav", "key_press": -1, "type": "PRES_AUD", "word": "author", "wordID": 60, "conditions": [24, 800, "a", 12000], "trial": 6, "serialpos": 0, "trial_type": "single-audio", "trial_index": 237, "time_elapsed": 1086447, "internal_node_id": "0.0-174.0"}}, {"uniqueid": "MTK1291:3R2PKQ87NXFCQD9Z2TB80WRER4QMIW", "current_trial": 238, "dateTime": 1513537026907, "trialdata": {"rt": -1000, "stimulus": "/static/audio/wordpool/SHARK.wav", "key_press": -1, "type": "PRES_AUD", "word": "shark", "wordID": 1274, "conditions": [24, 800, "a", 12000], "trial": 6, "serialpos": 1, "trial_type": "single-audio", "trial_index": 238, "time_elapsed": 1088088, "internal_node_id": "0.0-175.0"}}, {"uniqueid": "MTK1291:3R2PKQ87NXFCQD9Z2TB80WRER4QMIW", "current_trial": 239, "dateTime": 1513537028702, "trialdata": {"rt": -1000, "stimulus": "/static/audio/wordpool/HANDBAG.wav", "key_press": -1, "type": "PRES_AUD", "word": "handbag", "wordID": 683, "conditions": [24, 800, "a", 12000], "trial": 6, "serialpos": 2, "trial_type": "single-audio", "trial_index": 239, "time_elapsed": 1089883, "internal_node_id": "0.0-176.0"}}, {"uniqueid": "MTK1291:3R2PKQ87NXFCQD9Z2TB80WRER4QMIW", "current_trial": 240, "dateTime": 1513537030609, "trialdata": {"rt": -1000, "stimulus": "/static/audio/wordpool/DINER.wav", "key_press": -1, "type": "PRES_AUD", "word": "diner", "wordID": 466, "conditions": [24, 800, "a", 12000], "trial": 6, "serialpos": 3, "trial_type": "single-audio", "trial_index": 240, "time_elapsed": 1091790, "internal_node_id": "0.0-177.0"}}, {"uniqueid": "MTK1291:3R2PKQ87NXFCQD9Z2TB80WRER4QMIW", "current_trial": 241, "dateTime": 1513537032527, "trialdata": {"rt": -1000, "stimulus": "/static/audio/wordpool/OINTMENT.wav", "key_press": -1, "type": "PRES_AUD", "word": "ointment", "wordID": 973, "conditions": [24, 800, "a", 12000], "trial": 6, "serialpos": 4, "trial_type": "single-audio", "trial_index": 241, "time_elapsed": 1093708, "internal_node_id": "0.0-178.0"}}, {"uniqueid": "MTK1291:3R2PKQ87NXFCQD9Z2TB80WRER4QMIW", "current_trial": 242, "dateTime": 1513537034475, "trialdata": {"rt": -1000, "stimulus": "/static/audio/wordpool/LUNCH.wav", "key_press": -1, "type": "PRES_AUD", "word": "lunch", "wordID": 848, "conditions": [24, 800, "a", 12000], "trial": 6, "serialpos": 5, "trial_type": "single-audio", "trial_index": 242, "time_elapsed": 1095656, "internal_node_id": "0.0-179.0"}}, {"uniqueid": "MTK1291:3R2PKQ87NXFCQD9Z2TB80WRER4QMIW", "current_trial": 243, "dateTime": 1513537036376, "trialdata": {"rt": -1000, "stimulus": "/static/audio/wordpool/PEBBLE.wav", "key_press": -1, "type": "PRES_AUD", "word": "pebble", "wordID": 1034, "conditions": [24, 800, "a", 12000], "trial": 6, "serialpos": 6, "trial_type": "single-audio", "trial_index": 243, "time_elapsed": 1097557, "internal_node_id": "0.0-180.0"}}, {"uniqueid": "MTK1291:3R2PKQ87NXFCQD9Z2TB80WRER4QMIW", "current_trial": 244, "dateTime": 1513537038317, "trialdata": {"rt": -1000, "stimulus": "/static/audio/wordpool/TURTLE.wav", "key_press": -1, "type": "PRES_AUD", "word": "turtle", "wordID": 1521, "conditions": [24, 800, "a", 12000], "trial": 6, "serialpos": 7, "trial_type": "single-audio", "trial_index": 244, "time_elapsed": 1099498, "internal_node_id": "0.0-181.0"}}, {"uniqueid": "MTK1291:3R2PKQ87NXFCQD9Z2TB80WRER4QMIW", "current_trial": 245, "dateTime": 1513537040127, "trialdata": {"rt": -1000, "stimulus": "/static/audio/wordpool/RABBIT.wav", "key_press": -1, "type": "PRES_AUD", "word": "rabbit", "wordID": 1151, "conditions": [24, 800, "a", 12000], "trial": 6, "serialpos": 8, "trial_type": "single-audio", "trial_index": 245, "time_elapsed": 1101308, "internal_node_id": "0.0-182.0"}}, {"uniqueid": "MTK1291:3R2PKQ87NXFCQD9Z2TB80WRER4QMIW", "current_trial": 246, "dateTime": 1513537042059, "trialdata": {"rt": -1000, "stimulus": "/static/audio/wordpool/SNAKE.wav", "key_press": -1, "type": "PRES_AUD", "word": "snake", "wordID": 1332, "conditions": [24, 800, "a", 12000], "trial": 6, "serialpos": 9, "trial_type": "single-audio", "trial_index": 246, "time_elapsed": 1103240, "internal_node_id": "0.0-183.0"}}, {"uniqueid": "MTK1291:3R2PKQ87NXFCQD9Z2TB80WRER4QMIW", "current_trial": 247, "dateTime": 1513537043908, "trialdata": {"rt": -1000, "stimulus": "/static/audio/wordpool/PAPER.wav", "key_press": -1, "type": "PRES_AUD", "word": "paper", "wordID": 1010, "conditions": [24, 800, "a", 12000], "trial": 6, "serialpos": 10, "trial_type": "single-audio", "trial_index": 247, "time_elapsed": 1105089, "internal_node_id": "0.0-184.0"}}, {"uniqueid": "MTK1291:3R2PKQ87NXFCQD9Z2TB80WRER4QMIW", "current_trial": 248, "dateTime": 1513537045793, "trialdata": {"rt": -1000, "stimulus": "/static/audio/wordpool/BLUEPRINT.wav", "key_press": -1, "type": "PRES_AUD", "word": "blueprint", "wordID": 141, "conditions": [24, 800, "a", 12000], "trial": 6, "serialpos": 11, "trial_type": "single-audio", "trial_index": 248, "time_elapsed": 1106974, "internal_node_id": "0.0-185.0"}}, {"uniqueid": "MTK1291:3R2PKQ87NXFCQD9Z2TB80WRER4QMIW", "current_trial": 249, "dateTime": 1513537047554, "trialdata": {"rt": -1000, "stimulus": "/static/audio/wordpool/FREEZER.wav", "key_press": -1, "type": "PRES_AUD", "word": "freezer", "wordID": 603, "conditions": [24, 800, "a", 12000], "trial": 6, "serialpos": 12, "trial_type": "single-audio", "trial_index": 249, "time_elapsed": 1108735, "internal_node_id": "0.0-186.0"}}, {"uniqueid": "MTK1291:3R2PKQ87NXFCQD9Z2TB80WRER4QMIW", "current_trial": 250, "dateTime": 1513537049540, "trialdata": {"rt": -1000, "stimulus": "/static/audio/wordpool/CHILD.wav", "key_press": -1, "type": "PRES_AUD", "word": "child", "wordID": 298, "conditions": [24, 800, "a", 12000], "trial": 6, "serialpos": 13, "trial_type": "single-audio", "trial_index": 250, "time_elapsed": 1110721, "internal_node_id": "0.0-187.0"}}, {"uniqueid": "MTK1291:3R2PKQ87NXFCQD9Z2TB80WRER4QMIW", "current_trial": 251, "dateTime": 1513537051246, "trialdata": {"rt": -1000, "stimulus": "/static/audio/wordpool/INFANT.wav", "key_press": -1, "type": "PRES_AUD", "word": "infant", "wordID": 736, "conditions": [24, 800, "a", 12000], "trial": 6, "serialpos": 14, "trial_type": "single-audio", "trial_index": 251, "time_elapsed": 1112427, "internal_node_id": "0.0-188.0"}}, {"uniqueid": "MTK1291:3R2PKQ87NXFCQD9Z2TB80WRER4QMIW", "current_trial": 252, "dateTime": 1513537052915, "trialdata": {"rt": -1000, "stimulus": "/static/audio/wordpool/CROSS.wav", "key_press": -1, "type": "PRES_AUD", "word": "cross", "wordID": 412, "conditions": [24, 800, "a", 12000], "trial": 6, "serialpos": 15, "trial_type": "single-audio", "trial_index": 252, "time_elapsed": 1114096, "internal_node_id": "0.0-189.0"}}, {"uniqueid": "MTK1291:3R2PKQ87NXFCQD9Z2TB80WRER4QMIW", "current_trial": 253, "dateTime": 1513537054669, "trialdata": {"rt": -1000, "stimulus": "/static/audio/wordpool/SEAL.wav", "key_press": -1, "type": "PRES_AUD", "word": "seal", "wordID": 1261, "conditions": [24, 800, "a", 12000], "trial": 6, "serialpos": 16, "trial_type": "single-audio", "trial_index": 253, "time_elapsed": 1115850, "internal_node_id": "0.0-190.0"}}, {"uniqueid": "MTK1291:3R2PKQ87NXFCQD9Z2TB80WRER4QMIW", "current_trial": 254, "dateTime": 1513537056573, "trialdata": {"rt": -1000, "stimulus": "/static/audio/wordpool/ORCHID.wav", "key_press": -1, "type": "PRES_AUD", "word": "orchid", "wordID": 981, "conditions": [24, 800, "a", 12000], "trial": 6, "serialpos": 17, "trial_type": "single-audio", "trial_index": 254, "time_elapsed": 1117754, "internal_node_id": "0.0-191.0"}}, {"uniqueid": "MTK1291:3R2PKQ87NXFCQD9Z2TB80WRER4QMIW", "current_trial": 255, "dateTime": 1513537058283, "trialdata": {"rt": -1000, "stimulus": "/static/audio/wordpool/LETTUCE.wav", "key_press": -1, "type": "PRES_AUD", "word": "lettuce", "wordID": 813, "conditions": [24, 800, "a", 12000], "trial": 6, "serialpos": 18, "trial_type": "single-audio", "trial_index": 255, "time_elapsed": 1119464, "internal_node_id": "0.0-192.0"}}, {"uniqueid": "MTK1291:3R2PKQ87NXFCQD9Z2TB80WRER4QMIW", "current_trial": 256, "dateTime": 1513537060185, "trialdata": {"rt": -1000, "stimulus": "/static/audio/wordpool/PASSAGE.wav", "key_press": -1, "type": "PRES_AUD", "word": "passage", "wordID": 1018, "conditions": [24, 800, "a", 12000], "trial": 6, "serialpos": 19, "trial_type": "single-audio", "trial_index": 256, "time_elapsed": 1121366, "internal_node_id": "0.0-193.0"}}, {"uniqueid": "MTK1291:3R2PKQ87NXFCQD9Z2TB80WRER4QMIW", "current_trial": 257, "dateTime": 1513537061796, "trialdata": {"rt": -1000, "stimulus": "/static/audio/wordpool/TABLET.wav", "key_press": -1, "type": "PRES_AUD", "word": "tablet", "wordID": 1426, "conditions": [24, 800, "a", 12000], "trial": 6, "serialpos": 20, "trial_type": "single-audio", "trial_index": 257, "time_elapsed": 1122977, "internal_node_id": "0.0-194.0"}}, {"uniqueid": "MTK1291:3R2PKQ87NXFCQD9Z2TB80WRER4QMIW", "current_trial": 258, "dateTime": 1513537063400, "trialdata": {"rt": -1000, "stimulus": "/static/audio/wordpool/PERFUME.wav", "key_press": -1, "type": "PRES_AUD", "word": "perfume", "wordID": 1048, "conditions": [24, 800, "a", 12000], "trial": 6, "serialpos": 21, "trial_type": "single-audio", "trial_index": 258, "time_elapsed": 1124581, "internal_node_id": "0.0-195.0"}}, {"uniqueid": "MTK1291:3R2PKQ87NXFCQD9Z2TB80WRER4QMIW", "current_trial": 259, "dateTime": 1513537065148, "trialdata": {"rt": -1000, "stimulus": "/static/audio/wordpool/SALAD.wav", "key_press": -1, "type": "PRES_AUD", "word": "salad", "wordID": 1223, "conditions": [24, 800, "a", 12000], "trial": 6, "serialpos": 22, "trial_type": "single-audio", "trial_index": 259, "time_elapsed": 1126329, "internal_node_id": "0.0-196.0"}}, {"uniqueid": "MTK1291:3R2PKQ87NXFCQD9Z2TB80WRER4QMIW", "current_trial": 260, "dateTime": 1513537066972, "trialdata": {"rt": -1000, "stimulus": "/static/audio/wordpool/NIGHTGOWN.wav", "key_press": -1, "type": "PRES_AUD", "word": "nightgown", "wordID": 952, "conditions": [24, 800, "a", 12000], "trial": 6, "serialpos": 23, "trial_type": "single-audio", "trial_index": 260, "time_elapsed": 1128153, "internal_node_id": "0.0-197.0"}}, {"uniqueid": "MTK1291:3R2PKQ87NXFCQD9Z2TB80WRER4QMIW", "current_trial": 261, "dateTime": 1513537068184, "trialdata": {"rt": -1, "stimulus": "", "key_press": -1, "type": "PRE_RECALL_DELAY", "trial_type": "single-stim", "trial_index": 261, "time_elapsed": 1129365, "internal_node_id": "0.0-198.0-0.0"}}, {"uniqueid": "MTK1291:3R2PKQ87NXFCQD9Z2TB80WRER4QMIW", "current_trial": 262, "dateTime": 1513537068693, "trialdata": {"rt": -1000, "stimulus": "/static/audio/400Hz.wav", "key_press": -1, "type": "PRE_RECALL_ALERT", "trial_type": "single-audio", "trial_index": 262, "time_elapsed": 1129874, "internal_node_id": "0.0-199.0"}}, {"uniqueid": "MTK1291:3R2PKQ87NXFCQD9Z2TB80WRER4QMIW", "current_trial": 263, "dateTime": 1513537128724, "trialdata": {"rt": [2751, 3902, 8164, 10294, 13398, 18477, 20242, 28515, 32474, 37857], "recwords": ["perfume", "salad", "nightgown", "freezer", "infant", "author", "diner", "child", "pebble", "blueprint"], "type": "FREE_RECALL", "conditions": [24, 800, "a", 12000], "trial": 6, "trial_type": "free-recall", "trial_index": 263, "time_elapsed": 1189902, "internal_node_id": "0.0-200.0-0.0"}}, {"uniqueid": "MTK1291:3R2PKQ87NXFCQD9Z2TB80WRER4QMIW", "current_trial": 264, "dateTime": 1513537131983, "trialdata": {"rt": 1259, "key_press": 13, "type": "INSTRUCTIONS", "trial_type": "text", "trial_index": 264, "time_elapsed": 1193164, "internal_node_id": "0.0-201.0"}}, {"uniqueid": "MTK1291:3R2PKQ87NXFCQD9Z2TB80WRER4QMIW", "current_trial": 265, "dateTime": 1513537157987, "trialdata": {"rt": [2453, 4734, 7411, 9430, 12067, 14102, 15774, 19133, 22566], "responses": ["15", "12", "19", "14", "10", "9", "3", "12", "21"], "num1": [9, 1, 3, 7, 2, 6, 1, 4, 7, 1], "num2": [4, 7, 7, 3, 4, 2, 1, 1, 6, 1], "num3": [2, 4, 9, 4, 4, 1, 1, 7, 6, 5], "type": "DISTRACTOR", "conditions": [12, 800, "v", 24000], "trial": 7, "trial_type": "math-distractor", "trial_index": 265, "time_elapsed": 1219168, "internal_node_id": "0.0-202.0"}}, {"uniqueid": "MTK1291:3R2PKQ87NXFCQD9Z2TB80WRER4QMIW", "current_trial": 266, "dateTime": 1513537160991, "trialdata": {"rt": -1, "stimulus": "<p id=\"stim\">10</p>", "key_press": -1, "trial_type": "single-stim", "trial_index": 266, "time_elapsed": 1222172, "internal_node_id": "0.0-203.0-0.0"}}, {"uniqueid": "MTK1291:3R2PKQ87NXFCQD9Z2TB80WRER4QMIW", "current_trial": 267, "dateTime": 1513537161993, "trialdata": {"rt": -1, "stimulus": "<p id=\"stim\">9</p>", "key_press": -1, "trial_type": "single-stim", "trial_index": 267, "time_elapsed": 1223174, "internal_node_id": "0.0-203.0-1.0"}}, {"uniqueid": "MTK1291:3R2PKQ87NXFCQD9Z2TB80WRER4QMIW", "current_trial": 268, "dateTime": 1513537162995, "trialdata": {"rt": -1, "stimulus": "<p id=\"stim\">8</p>", "key_press": -1, "trial_type": "single-stim", "trial_index": 268, "time_elapsed": 1224176, "internal_node_id": "0.0-203.0-2.0"}}, {"uniqueid": "MTK1291:3R2PKQ87NXFCQD9Z2TB80WRER4QMIW", "current_trial": 269, "dateTime": 1513537163996, "trialdata": {"rt": -1, "stimulus": "<p id=\"stim\">7</p>", "key_press": -1, "trial_type": "single-stim", "trial_index": 269, "time_elapsed": 1225177, "internal_node_id": "0.0-20