{"assignmentId": "378XPAWRUDKBOC0A5QL3R5WEZSHIA0", "workerId": "MTK1439", "questiondata": {"avail_screen_height": 768, "color_depth": 24, "screen_width": 1360, "pixel_depth": 24, "avail_screen_width": 1360, "screen_height": 768}, "bonus": 0, "hitId": "3BPP3MA3TCREH6RYGWF0QKIDKBRLE2", "counterbalance": 1250, "useragent": "Mozilla/5.0 (Windows NT 6.0; WOW64; rv:47.0) Gecko/20100101 Firefox/47.0", "eventdata": [{"eventtype": "initialized", "interval": 0, "value": null, "timestamp": 1515881634086}, {"eventtype": "window_resize", "interval": 0, "value": [1342, 703], "timestamp": 1515881634086}, {"eventtype": "focus", "interval": 26071, "value": "off", "timestamp": 1515881660157}, {"eventtype": "focus", "interval": 12780, "value": "on", "timestamp": 1515881672937}, {"eventtype": "focus", "interval": 83, "value": "off", "timestamp": 1515881673020}, {"eventtype": "focus", "interval": 651572, "value": "on", "timestamp": 1515882324592}, {"eventtype": "focus", "interval": 2962, "value": "off", "timestamp": 1515882327554}, {"eventtype": "focus", "interval": 2263, "value": "on", "timestamp": 1515882329817}, {"eventtype": "focus", "interval": 32697, "value": "off", "timestamp": 1515882362514}, {"eventtype": "focus", "interval": 5046, "value": "on", "timestamp": 1515882367560}, {"eventtype": "focus", "interval": 39619, "value": "off", "timestamp": 1515882407179}, {"eventtype": "focus", "interval": 18323, "value": "on", "timestamp": 1515882425502}, {"eventtype": "focus", "interval": 334932, "value": "off", "timestamp": 1515882760434}, {"eventtype": "focus", "interval": 2084, "value": "on", "timestamp": 1515882762518}, {"eventtype": "focus", "interval": 276692, "value": "off", "timestamp": 1515883039210}, {"eventtype": "focus", "interval": 1276, "value": "on", "timestamp": 1515883040486}, {"eventtype": "focus", "interval": 239406, "value": "off", "timestamp": 1515883279892}, {"eventtype": "focus", "interval": 11787, "value": "on", "timestamp": 1515883291679}, {"eventtype": "focus", "interval": 483060, "value": "off", "timestamp": 1515883774739}, {"eventtype": "focus", "interval": 6362, "value": "on", "timestamp": 1515883781101}, {"eventtype": "focus", "interval": 207813, "value": "off", "timestamp": 1515883988914}, {"eventtype": "focus", "interval": 8178, "value": "on", "timestamp": 1515883997092}, {"eventtype": "focus", "interval": 18125, "value": "off", "timestamp": 1515884015217}, {"eventtype": "focus", "interval": 9959, "value": "on", "timestamp": 1515884025176}, {"eventtype": "focus", "interval": 715503, "value": "off", "timestamp": 1515884740679}, {"eventtype": "focus", "interval": 14174, "value": "on", "timestamp": 1515884754853}, {"eventtype": "focus", "interval": 85597, "value": "off", "timestamp": 1515884840450}, {"eventtype": "focus", "interval": 30526, "value": "on", "timestamp": 1515884870976}, {"eventtype": "focus", "interval": 1729, "value": "off", "timestamp": 1515884872705}, {"eventtype": "focus", "interval": 10705, "value": "on", "timestamp": 1515884883410}, {"eventtype": "focus", "interval": 2836, "value": "off", "timestamp": 1515884886246}, {"eventtype": "focus", "interval": 3508, "value": "on", "timestamp": 1515884889754}], "data": [{"current_trial": 0, "trialdata": {"rt": 1718, "trial_type": "text", "internal_node_id": "0.0-0.0", "time_elapsed": 1722, "key_press": 32, "type": "INSTRUCTIONS", "trial_index": 0}, "uniqueid": "MTK1439:378XPAWRUDKBOC0A5QL3R5WEZSHIA0", "dateTime": 1515881636338}, {"current_trial": 1, "trialdata": {"rt": 20428, "trial_type": "text", "internal_node_id": "0.0-1.0", "time_elapsed": 22153, "key_press": 32, "type": "INSTRUCTIONS", "trial_index": 1}, "uniqueid": "MTK1439:378XPAWRUDKBOC0A5QL3R5WEZSHIA0", "dateTime": 1515881656769}, {"current_trial": 2, "trialdata": {"rt": [678915], "trial_type": "audio-test", "responses": ["ocean"], "internal_node_id": "0.0-2.0", "time_elapsed": 701105, "type": "AUDIO_TEST", "trial_index": 2}, "uniqueid": "MTK1439:378XPAWRUDKBOC0A5QL3R5WEZSHIA0", "dateTime": 1515882335722}, {"current_trial": 3, "trialdata": {"rt": [8600], "trial_type": "audio-test", "responses": ["crystal"], "internal_node_id": "0.0-3.0", "time_elapsed": 709728, "type": "AUDIO_TEST", "trial_index": 3}, "uniqueid": "MTK1439:378XPAWRUDKBOC0A5QL3R5WEZSHIA0", "dateTime": 1515882344343}, {"current_trial": 4, "trialdata": {"rt": [12088], "trial_type": "audio-test", "responses": ["spice"], "internal_node_id": "0.0-4.0", "time_elapsed": 721834, "type": "AUDIO_TEST", "trial_index": 4}, "uniqueid": "MTK1439:378XPAWRUDKBOC0A5QL3R5WEZSHIA0", "dateTime": 1515882356449}, {"current_trial": 5, "trialdata": {"rt": 32803, "trial_type": "survey-text", "responses": "{\"Q0\":\"8 AM\",\"Q1\":\"2:30 PM\",\"Q2\":\"5\"}", "internal_node_id": "0.0-5.0", "time_elapsed": 755392, "type": "SLEEP_SURVEY", "trial_index": 5}, "uniqueid": "MTK1439:378XPAWRUDKBOC0A5QL3R5WEZSHIA0", "dateTime": 1515882390007}, {"current_trial": 6, "trialdata": {"rt": 3374, "trial_type": "text", "internal_node_id": "0.0-6.0", "time_elapsed": 759766, "key_press": 38, "type": "INSTRUCTIONS", "trial_index": 6}, "uniqueid": "MTK1439:378XPAWRUDKBOC0A5QL3R5WEZSHIA0", "dateTime": 1515882394381}, {"current_trial": 7, "trialdata": {"rt": 53895, "trial_type": "text", "internal_node_id": "0.0-7.0", "time_elapsed": 814216, "key_press": 32, "type": "INSTRUCTIONS", "trial_index": 7}, "uniqueid": "MTK1439:378XPAWRUDKBOC0A5QL3R5WEZSHIA0", "dateTime": 1515882448833}, {"current_trial": 8, "trialdata": {"rt": 11864, "trial_type": "text", "internal_node_id": "0.0-8.0", "time_elapsed": 826584, "key_press": 32, "type": "INSTRUCTIONS", "trial_index": 8}, "uniqueid": "MTK1439:378XPAWRUDKBOC0A5QL3R5WEZSHIA0", "dateTime": 1515882461199}, {"current_trial": 9, "trialdata": {"rt": [3212, 6034, 8515, 10036, 11612, 14468, 15908, 17404], "trial_type": "math-distractor", "key_times": [2701, 2797, 3212, 5604, 5751, 6034, 7925, 8020, 8515, 9591, 9812, 10036, 11118, 11268, 11612, 14100, 14244, 14468, 15548, 15724, 15908, 16996, 17236, 17404], "responses": ["16", "20", "18", "12", "11", "22", "12", "14"], "num2": [2, 7, 4, 5, 3, 8, 3, 6, 3], "num3": [8, 6, 6, 2, 1, 8, 2, 1, 4], "conditions": [18, 1200, "v", 18000], "internal_node_id": "0.0-9.0", "key_presses": [49, 54, 13, 50, 48, 13, 49, 56, 13, 49, 50, 13, 49, 49, 13, 50, 50, 13, 49, 50, 13, 49, 52, 13], "trial": 0, "time_elapsed": 845595, "type": "DISTRACTOR", "trial_index": 9, "num1": [6, 7, 8, 5, 7, 6, 7, 7, 7]}, "uniqueid": "MTK1439:378XPAWRUDKBOC0A5QL3R5WEZSHIA0", "dateTime": 1515882480210}, {"current_trial": 10, "trialdata": {"rt": -1, "trial_type": "single-stim", "stimulus": "<p id=\"stim\">10</p>", "internal_node_id": "0.0-10.0-0.0", "time_elapsed": 848598, "key_press": -1, "trial_index": 10}, "uniqueid": "MTK1439:378XPAWRUDKBOC0A5QL3R5WEZSHIA0", "dateTime": 1515882483213}, {"current_trial": 11, "trialdata": {"rt": -1, "trial_type": "single-stim", "stimulus": "<p id=\"stim\">9</p>", "internal_node_id": "0.0-10.0-1.0", "time_elapsed": 849600, "key_press": -1, "trial_index": 11}, "uniqueid": "MTK1439:378XPAWRUDKBOC0A5QL3R5WEZSHIA0", "dateTime": 1515882484215}, {"current_trial": 12, "trialdata": {"rt": -1, "trial_type": "single-stim", "stimulus": "<p id=\"stim\">8</p>", "internal_node_id": "0.0-10.0-2.0", "time_elapsed": 850602, "key_press": -1, "trial_index": 12}, "uniqueid": "MTK1439:378XPAWRUDKBOC0A5QL3R5WEZSHIA0", "dateTime": 1515882485217}, {"current_trial": 13, "trialdata": {"rt": -1, "trial_type": "single-stim", "stimulus": "<p id=\"stim\">7</p>", "internal_node_id": "0.0-10.0-3.0", "time_elapsed": 851604, "key_press": -1, "trial_index": 13}, "uniqueid": "MTK1439:378XPAWRUDKBOC0A5QL3R5WEZSHIA0", "dateTime": 1515882486219}, {"current_trial": 14, "trialdata": {"rt": -1, "trial_type": "single-stim", "stimulus": "<p id=\"stim\">6</p>", "internal_node_id": "0.0-10.0-4.0", "time_elapsed": 852606, "key_press": -1, "trial_index": 14}, "uniqueid": "MTK1439:378XPAWRUDKBOC0A5QL3R5WEZSHIA0", "dateTime": 1515882487221}, {"current_trial": 15, "trialdata": {"rt": -1, "trial_type": "single-stim", "stimulus": "<p id=\"stim\">5</p>", "internal_node_id": "0.0-10.0-5.0", "time_elapsed": 853607, "key_press": -1, "trial_index": 15}, "uniqueid": "MTK1439:378XPAWRUDKBOC0A5QL3R5WEZSHIA0", "dateTime": 1515882488222}, {"current_trial": 16, "trialdata": {"rt": -1, "trial_type": "single-stim", "stimulus": "<p id=\"stim\">4</p>", "internal_node_id": "0.0-10.0-6.0", "time_elapsed": 854608, "key_press": -1, "trial_index": 16}, "uniqueid": "MTK1439:378XPAWRUDKBOC0A5QL3R5WEZSHIA0", "dateTime": 1515882489223}, {"current_trial": 17, "trialdata": {"rt": -1, "trial_type": "single-stim", "stimulus": "<p id=\"stim\">3</p>", "internal_node_id": "0.0-10.0-7.0", "time_elapsed": 855610, "key_press": -1, "trial_index": 17}, "uniqueid": "MTK1439:378XPAWRUDKBOC0A5QL3R5WEZSHIA0", "dateTime": 1515882490226}, {"current_trial": 18, "trialdata": {"rt": -1, "trial_type": "single-stim", "stimulus": "<p id=\"stim\">2</p>", "internal_node_id": "0.0-10.0-8.0", "time_elapsed": 856660, "key_press": -1, "trial_index": 18}, "uniqueid": "MTK1439:378XPAWRUDKBOC0A5QL3R5WEZSHIA0", "dateTime": 1515882491276}, {"current_trial": 19, "trialdata": {"rt": -1, "trial_type": "single-stim", "stimulus": "<p id=\"stim\">1</p>", "internal_node_id": "0.0-10.0-9.0", "time_elapsed": 857709, "key_press": -1, "trial_index": 19}, "uniqueid": "MTK1439:378XPAWRUDKBOC0A5QL3R5WEZSHIA0", "dateTime": 1515882492325}, {"current_trial": 20, "trialdata": {"rt": -1, "trial_type": "single-stim", "stimulus": "<p id=\"stim\">+</p>", "internal_node_id": "0.0-11.0-0.0", "time_elapsed": 859325, "key_press": -1, "type": "FIXATION", "trial_index": 20}, "uniqueid": "MTK1439:378XPAWRUDKBOC0A5QL3R5WEZSHIA0", "dateTime": 1515882493941}, {"current_trial": 21, "trialdata": {"rt": -1, "trial_type": "single-stim", "word": "plaza", "stimulus": "<p id=\"stim\">PLAZA</p>", "conditions": [18, 1200, "v", 18000], "internal_node_id": "0.0-12.0", "trial": 0, "time_elapsed": 860528, "serialpos": 0, "key_press": -1, "wordID": 1087, "type": "PRES_VIS", "trial_index": 21}, "uniqueid": "MTK1439:378XPAWRUDKBOC0A5QL3R5WEZSHIA0", "dateTime": 1515882495143}, {"current_trial": 22, "trialdata": {"rt": -1, "trial_type": "single-stim", "word": "postage", "stimulus": "<p id=\"stim\">POSTAGE</p>", "conditions": [18, 1200, "v", 18000], "internal_node_id": "0.0-13.0", "trial": 0, "time_elapsed": 862908, "serialpos": 1, "key_press": -1, "wordID": 1112, "type": "PRES_VIS", "trial_index": 22}, "uniqueid": "MTK1439:378XPAWRUDKBOC0A5QL3R5WEZSHIA0", "dateTime": 1515882497523}, {"current_trial": 23, "trialdata": {"rt": -1, "trial_type": "single-stim", "word": "sunset", "stimulus": "<p id=\"stim\">SUNSET</p>", "conditions": [18, 1200, "v", 18000], "internal_node_id": "0.0-14.0", "trial": 0, "time_elapsed": 865123, "serialpos": 2, "key_press": -1, "wordID": 1407, "type": "PRES_VIS", "trial_index": 23}, "uniqueid": "MTK1439:378XPAWRUDKBOC0A5QL3R5WEZSHIA0", "dateTime": 1515882499738}, {"current_trial": 24, "trialdata": {"rt": -1, "trial_type": "single-stim", "word": "permit", "stimulus": "<p id=\"stim\">PERMIT</p>", "conditions": [18, 1200, "v", 18000], "internal_node_id": "0.0-15.0", "trial": 0, "time_elapsed": 867412, "serialpos": 3, "key_press": -1, "wordID": 1050, "type": "PRES_VIS", "trial_index": 24}, "uniqueid": "MTK1439:378XPAWRUDKBOC0A5QL3R5WEZSHIA0", "dateTime": 1515882502028}, {"current_trial": 25, "trialdata": {"rt": -1, "trial_type": "single-stim", "word": "outdoors", "stimulus": "<p id=\"stim\">OUTDOORS</p>", "conditions": [18, 1200, "v", 18000], "internal_node_id": "0.0-16.0", "trial": 0, "time_elapsed": 869667, "serialpos": 4, "key_press": -1, "wordID": 986, "type": "PRES_VIS", "trial_index": 25}, "uniqueid": "MTK1439:378XPAWRUDKBOC0A5QL3R5WEZSHIA0", "dateTime": 1515882504283}, {"current_trial": 26, "trialdata": {"rt": -1, "trial_type": "single-stim", "word": "binder", "stimulus": "<p id=\"stim\">BINDER</p>", "conditions": [18, 1200, "v", 18000], "internal_node_id": "0.0-17.0", "trial": 0, "time_elapsed": 871846, "serialpos": 5, "key_press": -1, "wordID": 126, "type": "PRES_VIS", "trial_index": 26}, "uniqueid": "MTK1439:378XPAWRUDKBOC0A5QL3R5WEZSHIA0", "dateTime": 1515882506461}, {"current_trial": 27, "trialdata": {"rt": -1, "trial_type": "single-stim", "word": "xerox", "stimulus": "<p id=\"stim\">XEROX</p>", "conditions": [18, 1200, "v", 18000], "internal_node_id": "0.0-18.0", "trial": 0, "time_elapsed": 873965, "serialpos": 6, "key_press": -1, "wordID": 1627, "type": "PRES_VIS", "trial_index": 27}, "uniqueid": "MTK1439:378XPAWRUDKBOC0A5QL3R5WEZSHIA0", "dateTime": 1515882508580}, {"current_trial": 28, "trialdata": {"rt": -1, "trial_type": "single-stim", "word": "swimmer", "stimulus": "<p id=\"stim\">SWIMMER</p>", "conditions": [18, 1200, "v", 18000], "internal_node_id": "0.0-19.0", "trial": 0, "time_elapsed": 876130, "serialpos": 7, "key_press": -1, "wordID": 1419, "type": "PRES_VIS", "trial_index": 28}, "uniqueid": "MTK1439:378XPAWRUDKBOC0A5QL3R5WEZSHIA0", "dateTime": 1515882510745}, {"current_trial": 29, "trialdata": {"rt": -1, "trial_type": "single-stim", "word": "mummy", "stimulus": "<p id=\"stim\">MUMMY</p>", "conditions": [18, 1200, "v", 18000], "internal_node_id": "0.0-20.0", "trial": 0, "time_elapsed": 878390, "serialpos": 8, "key_press": -1, "wordID": 931, "type": "PRES_VIS", "trial_index": 29}, "uniqueid": "MTK1439:378XPAWRUDKBOC0A5QL3R5WEZSHIA0", "dateTime": 1515882513005}, {"current_trial": 30, "trialdata": {"rt": -1, "trial_type": "single-stim", "word": "guitar", "stimulus": "<p id=\"stim\">GUITAR</p>", "conditions": [18, 1200, "v", 18000], "internal_node_id": "0.0-21.0", "trial": 0, "time_elapsed": 880442, "serialpos": 9, "key_press": -1, "wordID": 669, "type": "PRES_VIS", "trial_index": 30}, "uniqueid": "MTK1439:378XPAWRUDKBOC0A5QL3R5WEZSHIA0", "dateTime": 1515882515058}, {"current_trial": 31, "trialdata": {"rt": -1, "trial_type": "single-stim", "word": "gangster", "stimulus": "<p id=\"stim\">GANGSTER</p>", "conditions": [18, 1200, "v", 18000], "internal_node_id": "0.0-22.0", "trial": 0, "time_elapsed": 882599, "serialpos": 10, "key_press": -1, "wordID": 619, "type": "PRES_VIS", "trial_index": 31}, "uniqueid": "MTK1439:378XPAWRUDKBOC0A5QL3R5WEZSHIA0", "dateTime": 1515882517214}, {"current_trial": 32, "trialdata": {"rt": -1, "trial_type": "single-stim", "word": "puppy", "stimulus": "<p id=\"stim\">PUPPY</p>", "conditions": [18, 1200, "v", 18000], "internal_node_id": "0.0-23.0", "trial": 0, "time_elapsed": 884748, "serialpos": 11, "key_press": -1, "wordID": 1143, "type": "PRES_VIS", "trial_index": 32}, "uniqueid": "MTK1439:378XPAWRUDKBOC0A5QL3R5WEZSHIA0", "dateTime": 1515882519364}, {"current_trial": 33, "trialdata": {"rt": -1, "trial_type": "single-stim", "word": "crib", "stimulus": "<p id=\"stim\">CRIB</p>", "conditions": [18, 1200, "v", 18000], "internal_node_id": "0.0-24.0", "trial": 0, "time_elapsed": 887138, "serialpos": 12, "key_press": -1, "wordID": 406, "type": "PRES_VIS", "trial_index": 33}, "uniqueid": "MTK1439:378XPAWRUDKBOC0A5QL3R5WEZSHIA0", "dateTime": 1515882521753}, {"current_trial": 34, "trialdata": {"rt": -1, "trial_type": "single-stim", "word": "shortcake", "stimulus": "<p id=\"stim\">SHORTCAKE</p>", "conditions": [18, 1200, "v", 18000], "internal_node_id": "0.0-25.0", "trial": 0, "time_elapsed": 889436, "serialpos": 13, "key_press": -1, "wordID": 1291, "type": "PRES_VIS", "trial_index": 34}, "uniqueid": "MTK1439:378XPAWRUDKBOC0A5QL3R5WEZSHIA0", "dateTime": 1515882524051}, {"current_trial": 35, "trialdata": {"rt": -1, "trial_type": "single-stim", "word": "sculpture", "stimulus": "<p id=\"stim\">SCULPTURE</p>", "conditions": [18, 1200, "v", 18000], "internal_node_id": "0.0-26.0", "trial": 0, "time_elapsed": 891650, "serialpos": 14, "key_press": -1, "wordID": 1257, "type": "PRES_VIS", "trial_index": 35}, "uniqueid": "MTK1439:378XPAWRUDKBOC0A5QL3R5WEZSHIA0", "dateTime": 1515882526265}, {"current_trial": 36, "trialdata": {"rt": -1, "trial_type": "single-stim", "word": "canal", "stimulus": "<p id=\"stim\">CANAL</p>", "conditions": [18, 1200, "v", 18000], "internal_node_id": "0.0-27.0", "trial": 0, "time_elapsed": 893817, "serialpos": 15, "key_press": -1, "wordID": 225, "type": "PRES_VIS", "trial_index": 36}, "uniqueid": "MTK1439:378XPAWRUDKBOC0A5QL3R5WEZSHIA0", "dateTime": 1515882528432}, {"current_trial": 37, "trialdata": {"rt": -1, "trial_type": "single-stim", "word": "liver", "stimulus": "<p id=\"stim\">LIVER</p>", "conditions": [18, 1200, "v", 18000], "internal_node_id": "0.0-28.0", "trial": 0, "time_elapsed": 896072, "serialpos": 16, "key_press": -1, "wordID": 832, "type": "PRES_VIS", "trial_index": 37}, "uniqueid": "MTK1439:378XPAWRUDKBOC0A5QL3R5WEZSHIA0", "dateTime": 1515882530687}, {"current_trial": 38, "trialdata": {"rt": -1, "trial_type": "single-stim", "word": "sword", "stimulus": "<p id=\"stim\">SWORD</p>", "conditions": [18, 1200, "v", 18000], "internal_node_id": "0.0-29.0", "trial": 0, "time_elapsed": 898360, "serialpos": 17, "key_press": -1, "wordID": 1422, "type": "PRES_VIS", "trial_index": 38}, "uniqueid": "MTK1439:378XPAWRUDKBOC0A5QL3R5WEZSHIA0", "dateTime": 1515882532975}, {"current_trial": 39, "trialdata": {"rt": -1, "trial_type": "single-stim", "stimulus": "", "internal_node_id": "0.0-30.0-0.0", "time_elapsed": 900528, "key_press": -1, "type": "PRE_RECALL_DELAY", "trial_index": 39}, "uniqueid": "MTK1439:378XPAWRUDKBOC0A5QL3R5WEZSHIA0", "dateTime": 1515882535144}, {"current_trial": 40, "trialdata": {"rt": -1000, "trial_type": "single-audio", "stimulus": "/static/audio/400Hz.wav", "internal_node_id": "0.0-31.0", "time_elapsed": 901032, "key_press": -1, "type": "PRE_RECALL_ALERT", "trial_index": 40}, "uniqueid": "MTK1439:378XPAWRUDKBOC0A5QL3R5WEZSHIA0", "dateTime": 1515882535647}, {"current_trial": 41, "trialdata": {"rt": [3744, 6264, 9408, 11480, 15015, 24882, 29368, 31472, 38497], "recwords": ["liver", "sword", "puppy", "guitar", "postage", "mummy", "liver", "sword", ""], "key_times": [1993, 2096, 2185, 2400, 3408, 3744, 5420, 5608, 5720, 5793, 5986, 6264, 7011, 7064, 7312, 7448, 7637, 7774, 8640, 8760, 9088, 9408, 10280, 10360, 10464, 10687, 10776, 10856, 11480, 13760, 13931, 13990, 14096, 14224, 14648, 14792, 15015, 23707, 23904, 24209, 24320, 24544, 24882, 28721, 28887, 28937, 29147, 29230, 29368, 30798, 30944, 31049, 31160, 31320, 31472, 38497, 56021, 56345, 56568, 57096, 57164, 59424, 59642, 59844, 59928], "trial_type": "free-recall", "conditions": [18, 1200, "v", 18000], "internal_node_id": "0.0-32.0-0.0", "key_presses": [76, 73, 86, 69, 82, 32, 83, 87, 79, 82, 68, 13, 80, 85, 80, 80, 69, 82, 8, 8, 89, 13, 71, 85, 73, 84, 65, 82, 13, 80, 79, 83, 84, 65, 71, 69, 13, 77, 85, 77, 77, 89, 13, 76, 73, 86, 69, 82, 13, 83, 87, 79, 82, 68, 13, 13, 80, 82, 73, 8, 69, 8, 8, 69, 82], "trial": 0, "time_elapsed": 961040, "type": "FREE_RECALL", "trial_index": 41}, "uniqueid": "MTK1439:378XPAWRUDKBOC0A5QL3R5WEZSHIA0", "dateTime": 1515882595663}, {"current_trial": 42, "trialdata": {"rt": 4189, "trial_type": "text", "internal_node_id": "0.0-33.0", "time_elapsed": 967272, "key_press": 32, "type": "INSTRUCTIONS", "trial_index": 42}, "uniqueid": "MTK1439:378XPAWRUDKBOC0A5QL3R5WEZSHIA0", "dateTime": 1515882601887}, {"current_trial": 43, "trialdata": {"rt": [3240, 5078, 6858, 9480, 11017, 14128, 17008], "trial_type": "math-distractor", "key_times": [2737, 2980, 3240, 4612, 4778, 5078, 6383, 6672, 6858, 8940, 9304, 9480, 10808, 11017, 13758, 13840, 14128, 16592, 16736, 17008], "responses": ["10", "18", "14", "23", "5", "20", "18"], "num2": [1, 8, 3, 7, 3, 4, 7, 9], "num3": [1, 3, 4, 7, 1, 7, 2, 5], "conditions": [18, 1200, "v", 18000], "internal_node_id": "0.0-34.0", "key_presses": [49, 48, 13, 49, 56, 13, 49, 52, 13, 50, 51, 13, 53, 13, 50, 48, 13, 49, 56, 13], "trial": 1, "time_elapsed": 987350, "type": "DISTRACTOR", "trial_index": 43, "num1": [8, 7, 7, 9, 1, 9, 9, 5]}, "uniqueid": "MTK1439:378XPAWRUDKBOC0A5QL3R5WEZSHIA0", "dateTime": 1515882621965}, {"current_trial": 44, "trialdata": {"rt": -1, "trial_type": "single-stim", "stimulus": "<p id=\"stim\">10</p>", "internal_node_id": "0.0-35.0-0.0", "time_elapsed": 990353, "key_press": -1, "trial_index": 44}, "uniqueid": "MTK1439:378XPAWRUDKBOC0A5QL3R5WEZSHIA0", "dateTime": 1515882624968}, {"current_trial": 45, "trialdata": {"rt": -1, "trial_type": "single-stim", "stimulus": "<p id=\"stim\">9</p>", "internal_node_id": "0.0-35.0-1.0", "time_elapsed": 991434, "key_press": -1, "trial_index": 45}, "uniqueid": "MTK1439:378XPAWRUDKBOC0A5QL3R5WEZSHIA0", "dateTime": 1515882626050}, {"current_trial": 46, "trialdata": {"rt": -1, "trial_type": "single-stim", "stimulus": "<p id=\"stim\">8</p>", "internal_node_id": "0.0-35.0-2.0", "time_elapsed": 992437, "key_press": -1, "trial_index": 46}, "uniqueid": "MTK1439:378XPAWRUDKBOC0A5QL3R5WEZSHIA0", "dateTime": 1515882627052}, {"current_trial": 47, "trialdata": {"rt": -1, "trial_type": "single-stim", "stimulus": "<p id=\"stim\">7</p>", "internal_node_id": "0.0-35.0-3.0", "time_elapsed": 993439, "key_press": -1, "trial_index": 47}, "uniqueid": "MTK1439:378XPAWRUDKBOC0A5QL3R5WEZSHIA0", "dateTime": 1515882628054}, {"current_trial": 48, "trialdata": {"rt": -1, "trial_type": "single-stim", "stimulus": "<p id=\"stim\">6</p>", "internal_node_id": "0.0-35.0-4.0", "time_elapsed": 994441, "key_press": -1, "trial_index": 48}, "uniqueid": "MTK1439:378XPAWRUDKBOC0A5QL3R5WEZSHIA0", "dateTime": 1515882629056}, {"current_trial": 49, "trialdata": {"rt": -1, "trial_type": "single-stim", "stimulus": "<p id=\"stim\">5</p>", "internal_node_id": "0.0-35.0-5.0", "time_elapsed": 995443, "key_press": -1, "trial_index": 49}, "uniqueid": "MTK1439:378XPAWRUDKBOC0A5QL3R5WEZSHIA0", "dateTime": 1515882630058}, {"current_trial": 50, "trialdata": {"rt": -1, "trial_type": "single-stim", "stimulus": "<p id=\"stim\">4</p>", "internal_node_id": "0.0-35.0-6.0", "time_elapsed": 996444, "key_press": -1, "trial_index": 50}, "uniqueid": "MTK1439:378XPAWRUDKBOC0A5QL3R5WEZSHIA0", "dateTime": 1515882631059}, {"current_trial": 51, "trialdata": {"rt": -1, "trial_type": "single-stim", "stimulus": "<p id=\"stim\">3</p>", "internal_node_id": "0.0-35.0-7.0", "time_elapsed": 997482, "key_press": -1, "trial_index": 51}, "uniqueid": "MTK1439:378XPAWRUDKBOC0A5QL3R5WEZSHIA0", "dateTime": 1515882632098}, {"current_trial": 52, "trialdata": {"rt": -1, "trial_type": "single-stim", "stimulus": "<p id=\"stim\">2</p>", "internal_node_id": "0.0-35.0-8.0", "time_elapsed": 998498, "key_press": -1, "trial_index": 52}, "uniqueid": "MTK1439:378XPAWRUDKBOC0A5QL3R5WEZSHIA0", "dateTime": 1515882633114}, {"current_trial": 53, "trialdata": {"rt": -1, "trial_type": "single-stim", "stimulus": "<p id=\"stim\">1</p>", "internal_node_id": "0.0-35.0-9.0", "time_elapsed": 999616, "key_press": -1, "trial_index": 53}, "uniqueid": "MTK1439:378XPAWRUDKBOC0A5QL3R5WEZSHIA0", "dateTime": 1515882634232}, {"current_trial": 54, "trialdata": {"rt": -1, "trial_type": "single-stim", "stimulus": "<p id=\"stim\">+</p>", "internal_node_id": "0.0-36.0-0.0", "time_elapsed": 1001141, "key_press": -1, "type": "FIXATION", "trial_index": 54}, "uniqueid": "MTK1439:378XPAWRUDKBOC0A5QL3R5WEZSHIA0", "dateTime": 1515882635757}, {"current_trial": 55, "trialdata": {"rt": -1, "trial_type": "single-stim", "word": "fruit", "stimulus": "<p id=\"stim\">FRUIT</p>", "conditions": [18, 1200, "v", 18000], "internal_node_id": "0.0-37.0", "trial": 1, "time_elapsed": 1002488, "serialpos": 0, "key_press": -1, "wordID": 609, "type": "PRES_VIS", "trial_index": 55}, "uniqueid": "MTK1439:378XPAWRUDKBOC0A5QL3R5WEZSHIA0", "dateTime": 1515882637103}, {"current_trial": 56, "trialdata": {"rt": -1, "trial_type": "single-stim", "word": "table", "stimulus": "<p id=\"stim\">TABLE</p>", "conditions": [18, 1200, "v", 18000], "internal_node_id": "0.0-38.0", "trial": 1, "time_elapsed": 1004704, "serialpos": 1, "key_press": -1, "wordID": 1425, "type": "PRES_VIS", "trial_index": 56}, "uniqueid": "MTK1439:378XPAWRUDKBOC0A5QL3R5WEZSHIA0", "dateTime": 1515882639319}, {"current_trial": 57, "trialdata": {"rt": -1, "trial_type": "single-stim", "word": "ghetto", "stimulus": "<p id=\"stim\">GHETTO</p>", "conditions": [18, 1200, "v", 18000], "internal_node_id": "0.0-39.0", "trial": 1, "time_elapsed": 1006869, "serialpos": 2, "key_press": -1, "wordID": 632, "type": "PRES_VIS", "trial_index": 57}, "uniqueid": "MTK1439:378XPAWRUDKBOC0A5QL3R5WEZSHIA0", "dateTime": 1515882641484}, {"current_trial": 58, "trialdata": {"rt": -1, "trial_type": "single-stim", "word": "canyon", "stimulus": "<p id=\"stim\">CANYON</p>", "conditions": [18, 1200, "v", 18000], "internal_node_id": "0.0-40.0", "trial": 1, "time_elapsed": 1008982, "serialpos": 3, "key_press": -1, "wordID": 234, "type": "PRES_VIS", "trial_index": 58}, "uniqueid": "MTK1439:378XPAWRUDKBOC0A5QL3R5WEZSHIA0", "dateTime": 1515882643597}, {"current_trial": 59, "trialdata": {"rt": -1, "trial_type": "single-stim", "word": "jury", "stimulus": "<p id=\"stim\">JURY</p>", "conditions": [18, 1200, "v", 18000], "internal_node_id": "0.0-41.0", "trial": 1, "time_elapsed": 1011379, "serialpos": 4, "key_press": -1, "wordID": 765, "type": "PRES_VIS", "trial_index": 59}, "uniqueid": "MTK1439:378XPAWRUDKBOC0A5QL3R5WEZSHIA0", "dateTime": 1515882645995}, {"current_trial": 60, "trialdata": {"rt": -1, "trial_type": "single-stim", "word": "author", "stimulus": "<p id=\"stim\">AUTHOR</p>", "conditions": [18, 1200, "v", 18000], "internal_node_id": "0.0-42.0", "trial": 1, "time_elapsed": 1013417, "serialpos": 5, "key_press": -1, "wordID": 60, "type": "PRES_VIS", "trial_index": 60}, "uniqueid": "MTK1439:378XPAWRUDKBOC0A5QL3R5WEZSHIA0", "dateTime": 1515882648032}, {"current_trial": 61, "trialdata": {"rt": -1, "trial_type": "single-stim", "word": "missile", "stimulus": "<p id=\"stim\">MISSILE</p>", "conditions": [18, 1200, "v", 18000], "internal_node_id": "0.0-43.0", "trial": 1, "time_elapsed": 1015552, "serialpos": 6, "key_press": -1, "wordID": 899, "type": "PRES_VIS", "trial_index": 61}, "uniqueid": "MTK1439:378XPAWRUDKBOC0A5QL3R5WEZSHIA0", "dateTime": 1515882650167}, {"current_trial": 62, "trialdata": {"rt": -1, "trial_type": "single-stim", "word": "sheriff", "stimulus": "<p id=\"stim\">SHERIFF</p>", "conditions": [18, 1200, "v", 18000], "internal_node_id": "0.0-44.0", "trial": 1, "time_elapsed": 1017871, "serialpos": 7, "key_press": -1, "wordID": 1283, "type": "PRES_VIS", "trial_index": 62}, "uniqueid": "MTK1439:378XPAWRUDKBOC0A5QL3R5WEZSHIA0", "dateTime": 1515882652486}, {"current_trial": 63, "trialdata": {"rt": -1, "trial_type": "single-stim", "word": "hatchet", "stimulus": "<p id=\"stim\">HATCHET</p>", "conditions": [18, 1200, "v", 18000], "internal_node_id": "0.0-45.0", "trial": 1, "time_elapsed": 1020243, "serialpos": 8, "key_press": -1, "wordID": 690, "type": "PRES_VIS", "trial_index": 63}, "uniqueid": "MTK1439:378XPAWRUDKBOC0A5QL3R5WEZSHIA0", "dateTime": 1515882654858}, {"current_trial": 64, "trialdata": {"rt": -1, "trial_type": "single-stim", "word": "flipper", "stimulus": "<p id=\"stim\">FLIPPER</p>", "conditions": [18, 1200, "v", 18000], "internal_node_id": "0.0-46.0", "trial": 1, "time_elapsed": 1022607, "serialpos": 9, "key_press": -1, "wordID": 579, "type": "PRES_VIS", "trial_index": 64}, "uniqueid": "MTK1439:378XPAWRUDKBOC0A5QL3R5WEZSHIA0", "dateTime": 1515882657222}, {"current_trial": 65, "trialdata": {"rt": -1, "trial_type": "single-stim", "word": "whistle", "stimulus": "<p id=\"stim\">WHISTLE</p>", "conditions": [18, 1200, "v", 18000], "internal_node_id": "0.0-47.0", "trial": 1, "time_elapsed": 1024928, "serialpos": 10, "key_press": -1, "wordID": 1605, "type": "PRES_VIS", "trial_index": 65}, "uniqueid": "MTK1439:378XPAWRUDKBOC0A5QL3R5WEZSHIA0", "dateTime": 1515882659544}, {"current_trial": 66, "trialdata": {"rt": -1, "trial_type": "single-stim", "word": "creature", "stimulus": "<p id=\"stim\">CREATURE</p>", "conditions": [18, 1200, "v", 18000], "internal_node_id": "0.0-48.0", "trial": 1, "time_elapsed": 1027028, "serialpos": 11, "key_press": -1, "wordID": 402, "type": "PRES_VIS", "trial_index": 66}, "uniqueid": "MTK1439:378XPAWRUDKBOC0A5QL3R5WEZSHIA0", "dateTime": 1515882661643}, {"current_trial": 67, "trialdata": {"rt": -1, "trial_type": "single-stim", "word": "pimple", "stimulus": "<p id=\"stim\">PIMPLE</p>", "conditions": [18, 1200, "v", 18000], "internal_node_id": "0.0-49.0", "trial": 1, "time_elapsed": 1029452, "serialpos": 12, "key_press": -1, "wordID": 1070, "type": "PRES_VIS", "trial_index": 67}, "uniqueid": "MTK1439:378XPAWRUDKBOC0A5QL3R5WEZSHIA0", "dateTime": 1515882664067}, {"current_trial": 68, "trialdata": {"rt": -1, "trial_type": "single-stim", "word": "compass", "stimulus": "<p id=\"stim\">COMPASS</p>", "conditions": [18, 1200, "v", 18000], "internal_node_id": "0.0-50.0", "trial": 1, "time_elapsed": 1031608, "serialpos": 13, "key_press": -1, "wordID": 357, "type": "PRES_VIS", "trial_index": 68}, "uniqueid": "MTK1439:378XPAWRUDKBOC0A5QL3R5WEZSHIA0", "dateTime": 1515882666223}, {"current_trial": 69, "trialdata": {"rt": -1, "trial_type": "single-stim", "word": "blade", "stimulus": "<p id=\"stim\">BLADE</p>", "conditions": [18, 1200, "v", 18000], "internal_node_id": "0.0-51.0", "trial": 1, "time_elapsed": 1033888, "serialpos": 14, "key_press": -1, "wordID": 133, "type": "PRES_VIS", "trial_index": 69}, "uniqueid": "MTK1439:378XPAWRUDKBOC0A5QL3R5WEZSHIA0", "dateTime": 1515882668503}, {"current_trial": 70, "trialdata": {"rt": -1, "trial_type": "single-stim", "word": "rod", "stimulus": "<p id=\"stim\">ROD</p>", "conditions": [18, 1200, "v", 18000], "internal_node_id": "0.0-52.0", "trial": 1, "time_elapsed": 1035924, "serialpos": 15, "key_press": -1, "wordID": 1202, "type": "PRES_VIS", "trial_index": 70}, "uniqueid": "MTK1439:378XPAWRUDKBOC0A5QL3R5WEZSHIA0", "dateTime": 1515882670539}, {"current_trial": 71, "trialdata": {"rt": -1, "trial_type": "single-stim", "word": "eagle", "stimulus": "<p id=\"stim\">EAGLE</p>", "conditions": [18, 1200, "v", 18000], "internal_node_id": "0.0-53.0", "trial": 1, "time_elapsed": 1038025, "serialpos": 16, "key_press": -1, "wordID": 511, "type": "PRES_VIS", "trial_index": 71}, "uniqueid": "MTK1439:378XPAWRUDKBOC0A5QL3R5WEZSHIA0", "dateTime": 1515882672640}, {"current_trial": 72, "trialdata": {"rt": -1, "trial_type": "single-stim", "word": "raft", "stimulus": "<p id=\"stim\">RAFT</p>", "conditions": [18, 1200, "v", 18000], "internal_node_id": "0.0-54.0", "trial": 1, "time_elapsed": 1040299, "serialpos": 17, "key_press": -1, "wordID": 1158, "type": "PRES_VIS", "trial_index": 72}, "uniqueid": "MTK1439:378XPAWRUDKBOC0A5QL3R5WEZSHIA0", "dateTime": 1515882674915}, {"current_trial": 73, "trialdata": {"rt": -1, "trial_type": "single-stim", "stimulus": "", "internal_node_id": "0.0-55.0-0.0", "time_elapsed": 1042707, "key_press": -1, "type": "PRE_RECALL_DELAY", "trial_index": 73}, "uniqueid": "MTK1439:378XPAWRUDKBOC0A5QL3R5WEZSHIA0", "dateTime": 1515882677322}, {"current_trial": 74, "trialdata": {"rt": -1000, "trial_type": "single-audio", "stimulus": "/static/audio/400Hz.wav", "internal_node_id": "0.0-56.0", "time_elapsed": 1043209, "key_press": -1, "type": "PRE_RECALL_ALERT", "trial_index": 74}, "uniqueid": "MTK1439:378XPAWRUDKBOC0A5QL3R5WEZSHIA0", "dateTime": 1515882677824}, {"current_trial": 75, "trialdata": {"rt": [3208, 5031, 6440, 8072, 9902, 13544, 28584, 30469, 32768, 38106, 43160, 58200], "recwords": ["pimple", "compass", "blade", "rod", "sherrif", "preacher", "flipper", "ghetto", "rod", "hatchet", "sherrif", "man"], "key_times": [2185, 2384, 2521, 2712, 2944, 3072, 3208, 3688, 3776, 3849, 4025, 4120, 4648, 4802, 5031, 5405, 5411, 5583, 5736, 5968, 6440, 6752, 6856, 6938, 7112, 7687, 8072, 8472, 8552, 8680, 8896, 9051, 9144, 9295, 9902, 12555, 12616, 12712, 12840, 13084, 13162, 13288, 13328, 13544, 27313, 27416, 27508, 27772, 27864, 28088, 28112, 28584, 29472, 29600, 29825, 29968, 30072, 30160, 30469, 32416, 32496, 32635, 32768, 36950, 37001, 37308, 37550, 37632, 37787, 37880, 38106, 42048, 42232, 42292, 42520, 42624, 42760, 42893, 43160, 57649, 57844, 57928, 58200], "trial_type": "free-recall", "conditions": [18, 1200, "v", 18000], "internal_node_id": "0.0-57.0-0.0", "key_presses": [80, 73, 77, 80, 76, 69, 13, 67, 79, 77, 80, 65, 83, 83, 13, 66, 76, 65, 68, 69, 13, 82, 79, 68, 69, 8, 13, 83, 72, 69, 82, 82, 73, 70, 13, 80, 82, 69, 65, 67, 72, 69, 82, 13, 70, 76, 73, 80, 80, 69, 82, 13, 71, 72, 69, 84, 84, 79, 13, 82, 79, 68, 13, 72, 65, 84, 67, 72, 69, 84, 13, 83, 72, 69, 82, 82, 73, 70, 13, 77, 65, 78, 13], "trial": 1, "time_elapsed": 1103217, "type": "FREE_RECALL", "trial_index": 75}, "uniqueid": "MTK1439:378XPAWRUDKBOC0A5QL3R5WEZSHIA0", "dateTime": 1515882737840}, {"current_trial": 76, "trialdata": {"rt": 2329, "trial_type": "text", "internal_node_id": "0.0-58.0", "time_elapsed": 1107556, "key_press": 32, "type": "INSTRUCTIONS", "trial_index": 76}, "uniqueid": "MTK1439:378XPAWRUDKBOC0A5QL3R5WEZSHIA0", "dateTime": 1515882742172}, {"current_trial": 77, "trialdata": {"rt": [4302, 6533, 8067, 9435, 11480], "trial_type": "math-distractor", "key_times": [3963, 4083, 4302, 5899, 6259, 6533, 7779, 8067, 9252, 9435, 10823, 11195, 11480], "responses": ["21", "13", "6", "9", "14"], "num2": [7, 6, 1, 6, 3, 4], "num3": [9, 6, 1, 1, 9, 4], "conditions": [24, 1600, "v", 12000], "internal_node_id": "0.0-59.0", "key_presses": [50, 49, 13, 49, 51, 13, 54, 13, 57, 13, 49, 52, 13], "trial": 2, "time_elapsed": 1120685, "type": "DISTRACTOR", "trial_index": 77, "num1": [5, 1, 4, 2, 2, 3]}, "uniqueid": "MTK1439:378XPAWRUDKBOC0A5QL3R5WEZSHIA0", "dateTime": 1515882755300}, {"current_trial": 78, "trialdata": {"rt": -1, "trial_type": "single-stim", "stimulus": "<p id=\"stim\">10</p>", "internal_node_id": "0.0-60.0-0.0", "time_elapsed": 1123691, "key_press": -1, "trial_index": 78}, "uniqueid": "MTK1439:378XPAWRUDKBOC0A5QL3R5WEZSHIA0", "dateTime": 1515882758306}, {"current_trial": 79, "trialdata": {"rt": -1, "trial_type": "single-stim", "stimulus": "<p id=\"stim\">9</p>", "internal_node_id": "0.0-60.0-1.0", "time_elapsed": 1124693, "key_press": -1, "trial_index": 79}, "uniqueid": "MTK1439:378XPAWRUDKBOC0A5QL3R5WEZSHIA0", "dateTime": 1515882759308}, {"current_trial": 80, "trialdata": {"rt": -1, "trial_type": "single-stim", "stimulus": "<p id=\"stim\">8</p>", "internal_node_id": "0.0-60.0-2.0", "time_elapsed": 1125735, "key_press": -1, "trial_index": 80}, "uniqueid": "MTK1439:378XPAWRUDKBOC0A5QL3R5WEZSHIA0", "dateTime": 1515882760350}, {"current_trial": 81, "trialdata": {"rt": -1, "trial_type": "single-stim", "stimulus": "<p id=\"stim\">7</p>", "internal_node_id": "0.0-60.0-3.0", "time_elapsed": 1126737, "key_press": -1, "trial_index": 81}, "uniqueid": "MTK1439:378XPAWRUDKBOC0A5QL3R5WEZSHIA0", "dateTime": 1515882761352}, {"current_trial": 82, "trialdata": {"rt": -1, "trial_type": "single-stim", "stimulus": "<p id=\"stim\">6</p>", "internal_node_id": "0.0-60.0-4.0", "time_elapsed": 1127739, "key_press": -1, "trial_index": 82}, "uniqueid": "MTK1439:378XPAWRUDKBOC0A5QL3R5WEZSHIA0", "dateTime": 1515882762354}, {"current_trial": 83, "trialdata": {"rt": -1, "trial_type": "single-stim", "stimulus": "<p id=\"stim\">5</p>", "internal_node_id": "0.0-60.0-5.0", "time_elapsed": 1128757, "key_press": -1, "trial_index": 83}, "uniqueid": "MTK1439:378XPAWRUDKBOC0A5QL3R5WEZSHIA0", "dateTime": 1515882763372}, {"current_trial": 84, "trialdata": {"rt": -1, "trial_type": "single-stim", "stimulus": "<p id=\"stim\">4</p>", "internal_node_id": "0.0-60.0-6.0", "time_elapsed": 1129831, "key_press": -1, "trial_index": 84}, "uniqueid": "MTK1439:378XPAWRUDKBOC0A5QL3R5WEZSHIA0", "dateTime": 1515882764446}, {"current_trial": 85, "trialdata": {"rt": -1, "trial_type": "single-stim", "stimulus": "<p id=\"stim\">3</p>", "internal_node_id": "0.0-60.0-7.0", "time_elapsed": 1130962, "key_press": -1, "trial_index": 85}, "uniqueid": "MTK1439:378XPAWRUDKBOC0A5QL3R5WEZSHIA0", "dateTime": 1515882765577}, {"current_trial": 86, "trialdata": {"rt": -1, "trial_type": "single-stim", "stimulus": "<p id=\"stim\">2</p>", "internal_node_id": "0.0-60.0-8.0", "time_elapsed": 1132048, "key_press": -1, "trial_index": 86}, "uniqueid": "MTK1439:378XPAWRUDKBOC0A5QL3R5WEZSHIA0", "dateTime": 1515882766663}, {"current_trial": 87, "trialdata": {"rt": -1, "trial_type": "single-stim", "stimulus": "<p id=\"stim\">1</p>", "internal_node_id": "0.0-60.0-9.0", "time_elapsed": 1133117, "key_press": -1, "trial_index": 87}, "uniqueid": "MTK1439:378XPAWRUDKBOC0A5QL3R5WEZSHIA0", "dateTime": 1515882767732}, {"current_trial": 88, "trialdata": {"rt": -1, "trial_type": "single-stim", "stimulus": "<p id=\"stim\">+</p>", "internal_node_id": "0.0-61.0-0.0", "time_elapsed": 1134720, "key_press": -1, "type": "FIXATION", "trial_index": 88}, "uniqueid": "MTK1439:378XPAWRUDKBOC0A5QL3R5WEZSHIA0", "dateTime": 1515882769335}, {"current_trial": 89, "trialdata": {"rt": -1, "trial_type": "single-stim", "word": "icing", "stimulus": "<p id=\"stim\">ICING</p>", "conditions": [24, 1600, "v", 12000], "internal_node_id": "0.0-62.0", "trial": 2, "time_elapsed": 1136346, "serialpos": 0, "key_press": -1, "wordID": 731, "type": "PRES_VIS", "trial_index": 89}, "uniqueid": "MTK1439:378XPAWRUDKBOC0A5QL3R5WEZSHIA0", "dateTime": 1515882770961}, {"current_trial": 90, "trialdata": {"rt": -1, "trial_type": "single-stim", "word": "penguin", "stimulus": "<p id=\"stim\">PENGUIN</p>", "conditions": [24, 1600, "v", 12000], "internal_node_id": "0.0-63.0", "trial": 2, "time_elapsed": 1139111, "serialpos": 1, "key_press": -1, "wordID": 1043, "type": "PRES_VIS", "trial_index": 90}, "uniqueid": "MTK1439:378XPAWRUDKBOC0A5QL3R5WEZSHIA0", "dateTime": 1515882773726}, {"current_trial": 91, "trialdata": {"rt": -1, "trial_type": "single-stim", "word": "salt", "stimulus": "<p id=\"stim\">SALT</p>", "conditions": [24, 1600, "v", 12000], "internal_node_id": "0.0-64.0", "trial": 2, "time_elapsed": 1141521, "serialpos": 2, "key_press": -1, "wordID": 1228, "type": "PRES_VIS", "trial_index": 91}, "uniqueid": "MTK1439:378XPAWRUDKBOC0A5QL3R5WEZSHIA0", "dateTime": 1515882776136}, {"current_trial": 92, "trialdata": {"rt": -1, "trial_type": "single-stim", "word": "money", "stimulus": "<p id=\"stim\">MONEY</p>", "conditions": [24, 1600, "v", 12000], "internal_node_id": "0.0-65.0", "trial": 2, "time_elapsed": 1144250, "serialpos": 3, "key_press": -1, "wordID": 907, "type": "PRES_VIS", "trial_index": 92}, "uniqueid": "MTK1439:378XPAWRUDKBOC0A5QL3R5WEZSHIA0", "dateTime": 1515882778865}, {"current_trial": 93, "trialdata": {"rt": -1, "trial_type": "single-stim", "word": "inmate", "stimulus": "<p id=\"stim\">INMATE</p>", "conditions": [24, 1600, "v", 12000], "internal_node_id": "0.0-66.0", "trial": 2, "time_elapsed": 1146729, "serialpos": 4, "key_press": -1, "wordID": 737, "type": "PRES_VIS", "trial_index": 93}, "uniqueid": "MTK1439:378XPAWRUDKBOC0A5QL3R5WEZSHIA0", "dateTime": 1515882781344}, {"current_trial": 94, "trialdata": {"rt": -1, "trial_type": "single-stim", "word": "dandruff", "stimulus": "<p id=\"stim\">DANDRUFF</p>", "conditions": [24, 1600, "v", 12000], "internal_node_id": "0.0-67.0", "trial": 2, "time_elapsed": 1149299, "serialpos": 5, "key_press": -1, "wordID": 438, "type": "PRES_VIS", "trial_index": 94}, "uniqueid": "MTK1439:378XPAWRUDKBOC0A5QL3R5WEZSHIA0", "dateTime": 1515882783915}, {"current_trial": 95, "trialdata": {"rt": -1, "trial_type": "single-stim", "word": "lightning", "stimulus": "<p id=\"stim\">LIGHTNING</p>", "conditions": [24, 1600, "v", 12000], "internal_node_id": "0.0-68.0", "trial": 2, "time_elapsed": 1152032, "serialpos": 6, "key_press": -1, "wordID": 819, "type": "PRES_VIS", "trial_index": 95}, "uniqueid": "MTK1439:378XPAWRUDKBOC0A5QL3R5WEZSHIA0", "dateTime": 1515882786648}, {"current_trial": 96, "trialdata": {"rt": -1, "trial_type": "single-stim", "word": "cyclone", "stimulus": "<p id=\"stim\">CYCLONE</p>", "conditions": [24, 1600, "v", 12000], "internal_node_id": "0.0-69.0", "trial": 2, "time_elapsed": 1154856, "serialpos": 7, "key_press": -1, "wordID": 430, "type": "PRES_VIS", "trial_index": 96}, "uniqueid": "MTK1439:378XPAWRUDKBOC0A5QL3R5WEZSHIA0", "dateTime": 1515882789471}, {"current_trial": 97, "trialdata": {"rt": -1, "trial_type": "single-stim", "word": "jello", "stimulus": "<p id=\"stim\">JELLO</p>", "conditions": [24, 1600, "v", 12000], "internal_node_id": "0.0-70.0", "trial": 2, "time_elapsed": 1157305, "serialpos": 8, "key_press": -1, "wordID": 753, "type": "PRES_VIS", "trial_index": 97}, "uniqueid": "MTK1439:378XPAWRUDKBOC0A5QL3R5WEZSHIA0", "dateTime": 1515882791920}, {"current_trial": 98, "trialdata": {"rt": -1, "trial_type": "single-stim", "word": "girl", "stimulus": "<p id=\"stim\">GIRL</p>", "conditions": [24, 1600, "v", 12000], "internal_node_id": "0.0-71.0", "trial": 2, "time_elapsed": 1160203, "serialpos": 9, "key_press": -1, "wordID": 636, "type": "PRES_VIS", "trial_index": 98}, "uniqueid": "MTK1439:378XPAWRUDKBOC0A5QL3R5WEZSHIA0", "dateTime": 1515882794818}, {"current_trial": 99, "trialdata": {"rt": -1, "trial_type": "single-stim", "word": "woman", "stimulus": "<p id=\"stim\">WOMAN</p>", "conditions": [24, 1600, "v", 12000], "internal_node_id": "0.0-72.0", "trial": 2, "time_elapsed": 1162854, "serialpos": 10, "key_press": -1, "wordID": 1619, "type": "PRES_VIS", "trial_index": 99}, "uniqueid": "MTK1439:378XPAWRUDKBOC0A5QL3R5WEZSHIA0", "dateTime": 1515882797470}, {"current_trial": 100, "trialdata": {"rt": -1, "trial_type": "single-stim", "word": "lizard", "stimulus": "<p id=\"stim\">LIZARD</p>", "conditions": [24, 1600, "v", 12000], "internal_node_id": "0.0-73.0", "trial": 2, "time_elapsed": 1165257, "serialpos": 11, "key_press": -1, "wordID": 833, "type": "PRES_VIS", "trial_index": 100}, "uniqueid": "MTK1439:378XPAWRUDKBOC0A5QL3R5WEZSHIA0", "dateTime": 1515882799872}, {"current_trial": 101, "trialdata": {"rt": -1, "trial_type": "single-stim", "word": "shorts", "stimulus": "<p id=\"stim\">SHORTS</p>", "conditions": [24, 1600, "v", 12000], "internal_node_id": "0.0-74.0", "trial": 2, "time_elapsed": 1167981, "serialpos": 12, "key_press": -1, "wordID": 1292, "type": "PRES_VIS", "trial_index": 101}, "uniqueid": "MTK1439:378XPAWRUDKBOC0A5QL3R5WEZSHIA0", "dateTime": 1515882802596}, {"current_trial": 102, "trialdata": {"rt": -1, "trial_type": "single-stim", "word": "london", "stimulus": "<p id=\"stim\">LONDON</p>", "conditions": [24, 1600, "v", 12000], "internal_node_id": "0.0-75.0", "trial": 2, "time_elapsed": 1170765, "serialpos": 13, "key_press": -1, "wordID": 842, "type": "PRES_VIS", "trial_index": 102}, "uniqueid": "MTK1439:378XPAWRUDKBOC0A5QL3R5WEZSHIA0", "dateTime": 1515882805380}, {"current_trial": 103, "trialdata": {"rt": -1, "trial_type": "single-stim", "word": "viking", "stimulus": "<p id=\"stim\">VIKING</p>", "conditions": [24, 1600, "v", 12000], "internal_node_id": "0.0-76.0", "trial": 2, "time_elapsed": 1173484, "serialpos": 14, "key_press": -1, "wordID": 1564, "type": "PRES_VIS", "trial_index": 103}, "uniqueid": "MTK1439:378XPAWRUDKBOC0A5QL3R5WEZSHIA0", "dateTime": 1515882808100}, {"current_trial": 104, "trialdata": {"rt": -1, "trial_type": "single-stim", "word": "basement", "stimulus": "<p id=\"stim\">BASEMENT</p>", "conditions": [24, 1600, "v", 12000], "internal_node_id": "0.0-77.0", "trial": 2, "time_elapsed": 1176361, "serialpos": 15, "key_press": -1, "wordID": 93, "type": "PRES_VIS", "trial_index": 104}, "uniqueid": "MTK1439:378XPAWRUDKBOC0A5QL3R5WEZSHIA0", "dateTime": 1515882810976}, {"current_trial": 105, "trialdata": {"rt": -1, "trial_type": "single-stim", "word": "honey", "stimulus": "<p id=\"stim\">HONEY</p>", "conditions": [24, 1600, "v", 12000], "internal_node_id": "0.0-78.0", "trial": 2, "time_elapsed": 1179155, "serialpos": 16, "key_press": -1, "wordID": 712, "type": "PRES_VIS", "trial_index": 105}, "uniqueid": "MTK1439:378XPAWRUDKBOC0A5QL3R5WEZSHIA0", "dateTime": 1515882813771}, {"current_trial": 106, "trialdata": {"rt": -1, "trial_type": "single-stim", "word": "omelet", "stimulus": "<p id=\"stim\">OMELET</p>", "conditions": [24, 1600, "v", 12000], "internal_node_id": "0.0-79.0", "trial": 2, "time_elapsed": 1181936, "serialpos": 17, "key_press": -1, "wordID": 975, "type": "PRES_VIS", "trial_index": 106}, "uniqueid": "MTK1439:378XPAWRUDKBOC0A5QL3R5WEZSHIA0", "dateTime": 1515882816552}, {"current_trial": 107, "trialdata": {"rt": -1, "trial_type": "single-stim", "word": "scarecrow", "stimulus": "<p id=\"stim\">SCARECROW</p>", "conditions": [24, 1600, "v", 12000], "internal_node_id": "0.0-80.0", "trial": 2, "time_elapsed": 1184440, "serialpos": 18, "key_press": -1, "wordID": 1244, "type": "PRES_VIS", "trial_index": 107}, "uniqueid": "MTK1439:378XPAWRUDKBOC0A5QL3R5WEZSHIA0", "dateTime": 1515882819056}, {"current_trial": 108, "trialdata": {"rt": -1, "trial_type": "single-stim", "word": "robin", "stimulus": "<p id=\"stim\">ROBIN</p>", "conditions": [24, 1600, "v", 12000], "internal_node_id": "0.0-81.0", "trial": 2, "time_elapsed": 1187208, "serialpos": 19, "key_press": -1, "wordID": 1198, "type": "PRES_VIS", "trial_index": 108}, "uniqueid": "MTK1439:378XPAWRUDKBOC0A5QL3R5WEZSHIA0", "dateTime": 1515882821824}, {"current_trial": 109, "trialdata": {"rt": -1, "trial_type": "single-stim", "word": "princess", "stimulus": "<p id=\"stim\">PRINCESS</p>", "conditions": [24, 1600, "v", 12000], "internal_node_id": "0.0-82.0", "trial": 2, "time_elapsed": 1189876, "serialpos": 20, "key_press": -1, "wordID": 1124, "type": "PRES_VIS", "trial_index": 109}, "uniqueid": "MTK1439:378XPAWRUDKBOC0A5QL3R5WEZSHIA0", "dateTime": 1515882824492}, {"current_trial": 110, "trialdata": {"rt": -1, "trial_type": "single-stim", "word": "queen", "stimulus": "<p id=\"stim\">QUEEN</p>", "conditions": [24, 1600, "v", 12000], "internal_node_id": "0.0-83.0", "trial": 2, "time_elapsed": 1192656, "serialpos": 21, "key_press": -1, "wordID": 1148, "type": "PRES_VIS", "trial_index": 110}, "uniqueid": "MTK1439:378XPAWRUDKBOC0A5QL3R5WEZSHIA0", "dateTime": 1515882827272}, {"current_trial": 111, "trialdata": {"rt": -1, "trial_type": "single-stim", "word": "clam", "stimulus": "<p id=\"stim\">CLAM</p>", "conditions": [24, 1600, "v", 12000], "internal_node_id": "0.0-84.0", "trial": 2, "time_elapsed": 1195368, "serialpos": 22, "key_press": -1, "wordID": 314, "type": "PRES_VIS", "trial_index": 111}, "uniqueid": "MTK1439:378XPAWRUDKBOC0A5QL3R5WEZSHIA0", "dateTime": 1515882829983}, {"current_trial": 112, "trialdata": {"rt": -1, "trial_type": "single-stim", "word": "custard", "stimulus": "<p id=\"stim\">CUSTARD</p>", "conditions": [24, 1600, "v", 12000], "internal_node_id": "0.0-85.0", "trial": 2, "time_elapsed": 1197948, "serialpos": 23, "key_press": -1, "wordID": 428, "type": "PRES_VIS", "trial_index": 112}, "uniqueid": "MTK1439:378XPAWRUDKBOC0A5QL3R5WEZSHIA0", "dateTime": 1515882832563}, {"current_trial": 113, "trialdata": {"rt": -1, "trial_type": "single-stim", "stimulus": "", "internal_node_id": "0.0-86.0-0.0", "time_elapsed": 1200327, "key_press": -1, "type": "PRE_RECALL_DELAY", "trial_index": 113}, "uniqueid": "MTK1439:378XPAWRUDKBOC0A5QL3R5WEZSHIA0", "dateTime": 1515882834943}, {"current_trial": 114, "trialdata": {"rt": -1000, "trial_type": "single-audio", "stimulus": "/static/audio/400Hz.wav", "internal_node_id": "0.0-87.0", "time_elapsed": 1200830, "key_press": -1, "type": "PRE_RECALL_ALERT", "trial_index": 114}, "uniqueid": "MTK1439:378XPAWRUDKBOC0A5QL3R5WEZSHIA0", "dateTime": 1515882835445}, {"current_trial": 115, "trialdata": {"rt": [3347, 4827, 6251, 9923, 11147, 15876, 17652, 29459, 35635, 36963, 41772, 55517], "recwords": ["custard", "queen", "clam", "woman", "girl", "icing", "salt", "viking", "scarecrow", "robin", "custard", "money"], "key_times": [2204, 2339, 2510, 2627, 2792, 2907, 3051, 3347, 4020, 4124, 4332, 4459, 4604, 4827, 5432, 5434, 5459, 5684, 6251, 9209, 9268, 9447, 9555, 9683, 9923, 10507, 10603, 10723, 10787, 11147, 15084, 15187, 15394, 15483, 15523, 15876, 17087, 17211, 17291, 17467, 17652, 28140, 28211, 28450, 28627, 28699, 28795, 29459, 33667, 33845, 33995, 34131, 34507, 34978, 35139, 35258, 35416, 35635, 36271, 36272, 36387, 36523, 36636, 36963, 40667, 40800, 40883, 41051, 41147, 41235, 41587, 41772, 54692, 54860, 54923, 55090, 55203, 55517], "trial_type": "free-recall", "conditions": [24, 1600, "v", 12000], "internal_node_id": "0.0-88.0-0.0", "key_presses": [67, 85, 83, 84, 65, 82, 68, 13, 81, 85, 69, 69, 78, 13, 67, 76, 65, 77, 13, 87, 79, 77, 65, 78, 13, 71, 73, 82, 76, 13, 73, 67, 73, 78, 71, 13, 83, 65, 76, 84, 13, 86, 73, 75, 73, 78, 71, 13, 83, 67, 65, 82, 69, 67, 82, 79, 87, 13, 82, 79, 66, 73, 78, 13, 67, 85, 83, 84, 65, 82, 68, 13, 77, 79, 78, 69, 89, 13], "trial": 2, "time_elapsed": 1260837, "type": "FREE_RECALL", "trial_index": 115}, "uniqueid": "MTK1439:378XPAWRUDKBOC0A5QL3R5WEZSHIA0", "dateTime": 1515882895461}, {"current_trial": 116, "trialdata": {"rt": 2634, "trial_type": "text", "internal_node_id": "0.0-89.0", "time_elapsed": 1265519, "key_press": 32, "type": "INSTRUCTIONS", "trial_index": 116}, "uniqueid": "MTK1439:378XPAWRUDKBOC0A5QL3R5WEZSHIA0", "dateTime": 1515882900135}, {"current_trial": 117, "trialdata": {"rt": [1944, 3935, 5461, 7792, 9266, 10640, 12000], "trial_type": "math-distractor", "key_times": [1576, 1779, 1944, 3512, 3656, 3935, 5007, 5120, 5461, 7161, 7416, 7792, 8904, 9096, 9266, 10216, 10397, 10640, 11672, 11891, 12000], "responses": ["14", "17", "16", "17", "13", "16", "14"], "num2": [6, 2, 8, 9, 7, 7, 2, 4], "num3": [6, 8, 6, 1, 5, 6, 3, 3], "conditions": [24, 800, "v", 12000], "internal_node_id": "0.0-90.0", "key_presses": [49, 52, 13, 49, 55, 13, 49, 54, 13, 49, 55, 13, 49, 51, 13, 49, 54, 13, 49, 52, 13], "trial": 3, "time_elapsed": 1279531, "type": "DISTRACTOR", "trial_index": 117, "num1": [2, 7, 2, 7, 1, 3, 9, 7]}, "uniqueid": "MTK1439:378XPAWRUDKBOC0A5QL3R5WEZSHIA0", "dateTime": 1515882914147}, {"current_trial": 118, "trialdata": {"rt": -1, "trial_type": "single-stim", "stimulus": "<p id=\"stim\">10</p>", "internal_node_id": "0.0-91.0-0.0", "time_elapsed": 1282684, "key_press": -1, "trial_index": 118}, "uniqueid": "MTK1439:378XPAWRUDKBOC0A5QL3R5WEZSHIA0", "dateTime": 1515882917299}, {"current_trial": 119, "trialdata": {"rt": -1, "trial_type": "single-stim", "stimulus": "<p id=\"stim\">9</p>", "internal_node_id": "0.0-91.0-1.0", "time_elapsed": 1283744, "key_press": -1, "trial_index": 119}, "uniqueid": "MTK1439:378XPAWRUDKBOC0A5QL3R5WEZSHIA0", "dateTime": 1515882918360}, {"current_trial": 120, "trialdata": {"rt": -1, "trial_type": "single-stim", "stimulus": "<p id=\"stim\">8</p>", "internal_node_id": "0.0-91.0-2.0", "time_elapsed": 1284747, "key_press": -1, "trial_index": 120}, "uniqueid": "MTK1439:378XPAWRUDKBOC0A5QL3R5WEZSHIA0", "dateTime": 1515882919362}, {"current_trial": 121, "trialdata": {"rt": -1, "trial_type": "single-stim", "stimulus": "<p id=\"stim\">7</p>", "internal_node_id": "0.0-91.0-3.0", "time_elapsed": 1285750, "key_press": -1, "trial_index": 121}, "uniqueid": "MTK1439:378XPAWRUDKBOC0A5QL3R5WEZSHIA0", "dateTime": 1515882920366}, {"current_trial": 122, "trialdata": {"rt": -1, "trial_type": "single-stim", "stimulus": "<p id=\"stim\">6</p>", "internal_node_id": "0.0-91.0-4.0", "time_elapsed": 1286863, "key_press": -1, "trial_index": 122}, "uniqueid": "MTK1439:378XPAWRUDKBOC0A5QL3R5WEZSHIA0", "dateTime": 1515882921479}, {"current_trial": 123, "trialdata": {"rt": -1, "trial_type": "single-stim", "stimulus": "<p id=\"stim\">5</p>", "internal_node_id": "0.0-91.0-5.0", "time_elapsed": 1287866, "key_press": -1, "trial_index": 123}, "uniqueid": "MTK1439:378XPAWRUDKBOC0A5QL3R5WEZSHIA0", "dateTime": 1515882922481}, {"current_trial": 124, "trialdata": {"rt": -1, "trial_type": "single-stim", "stimulus": "<p id=\"stim\">4</p>", "internal_node_id": "0.0-91.0-6.0", "time_elapsed": 1288880, "key_press": -1, "trial_index": 124}, "uniqueid": "MTK1439:378XPAWRUDKBOC0A5QL3R5WEZSHIA0", "dateTime": 1515882923496}, {"current_trial": 125, "trialdata": {"rt": -1, "trial_type": "single-stim", "stimulus": "<p id=\"stim\">3</p>", "internal_node_id": "0.0-91.0-7.0", "time_elapsed": 1289883, "key_press": -1, "trial_index": 125}, "uniqueid": "MTK1439:378XPAWRUDKBOC0A5QL3R5WEZSHIA0", "dateTime": 1515882924498}, {"current_trial": 126, "trialdata": {"rt": -1, "trial_type": "single-stim", "stimulus": "<p id=\"stim\">2</p>", "internal_node_id": "0.0-91.0-8.0", "time_elapsed": 1290910, "key_press": -1, "trial_index": 126}, "uniqueid": "MTK1439:378XPAWRUDKBOC0A5QL3R5WEZSHIA0", "dateTime": 1515882925526}, {"current_trial": 127, "trialdata": {"rt": -1, "trial_type": "single-stim", "stimulus": "<p id=\"stim\">1</p>", "internal_node_id": "0.0-91.0-9.0", "time_elapsed": 1291984, "key_press": -1, "trial_index": 127}, "uniqueid": "MTK1439:378XPAWRUDKBOC0A5QL3R5WEZSHIA0", "dateTime": 1515882926599}, {"current_trial": 128, "trialdata": {"rt": -1, "trial_type": "single-stim", "stimulus": "<p id=\"stim\">+</p>", "internal_node_id": "0.0-92.0-0.0", "time_elapsed": 1293486, "key_press": -1, "type": "FIXATION", "trial_index": 128}, "uniqueid": "MTK1439:378XPAWRUDKBOC0A5QL3R5WEZSHIA0", "dateTime": 1515882928101}, {"current_trial": 129, "trialdata": {"rt": -1, "trial_type": "single-stim", "word": "denim", "stimulus": "<p id=\"stim\">DENIM</p>", "conditions": [24, 800, "v", 12000], "internal_node_id": "0.0-93.0", "trial": 3, "time_elapsed": 1294288, "serialpos": 0, "key_press": -1, "wordID": 445, "type": "PRES_VIS", "trial_index": 129}, "uniqueid": "MTK1439:378XPAWRUDKBOC0A5QL3R5WEZSHIA0", "dateTime": 1515882928903}, {"current_trial": 130, "trialdata": {"rt": -1, "trial_type": "single-stim", "word": "shelter", "stimulus": "<p id=\"stim\">SHELTER</p>", "conditions": [24, 800, "v", 12000], "internal_node_id": "0.0-94.0", "trial": 3, "time_elapsed": 1296041, "serialpos": 1, "key_press": -1, "wordID": 1281, "type": "PRES_VIS", "trial_index": 130}, "uniqueid": "MTK1439:378XPAWRUDKBOC0A5QL3R5WEZSHIA0", "dateTime": 1515882930656}, {"current_trial": 131, "trialdata": {"rt": -1, "trial_type": "single-stim", "word": "pocket", "stimulus": "<p id=\"stim\">POCKET</p>", "conditions": [24, 800, "v", 12000], "internal_node_id": "0.0-95.0", "trial": 3, "time_elapsed": 1297961, "serialpos": 2, "key_press": -1, "wordID": 1092, "type": "PRES_VIS", "trial_index": 131}, "uniqueid": "MTK1439:378XPAWRUDKBOC0A5QL3R5WEZSHIA0", "dateTime": 1515882932576}, {"current_trial": 132, "trialdata": {"rt": -1, "trial_type": "single-stim", "word": "package", "stimulus": "<p id=\"stim\">PACKAGE</p>", "conditions": [24, 800, "v", 12000], "internal_node_id": "0.0-96.0", "trial": 3, "time_elapsed": 1299693, "serialpos": 3, "key_press": -1, "wordID": 996, "type": "PRES_VIS", "trial_index": 132}, "uniqueid": "MTK1439:378XPAWRUDKBOC0A5QL3R5WEZSHIA0", "dateTime": 1515882934309}, {"current_trial": 133, "trialdata": {"rt": -1, "trial_type": "single-stim", "word": "patient", "stimulus": "<p id=\"stim\">PATIENT</p>", "conditions": [24, 800, "v", 12000], "internal_node_id": "0.0-97.0", "trial": 3, "time_elapsed": 1301718, "serialpos": 4, "key_press": -1, "wordID": 1023, "type": "PRES_VIS", "trial_index": 133}, "uniqueid": "MTK1439:378XPAWRUDKBOC0A5QL3R5WEZSHIA0", "dateTime": 1515882936333}, {"current_trial": 134, "trialdata": {"rt": -1, "trial_type": "single-stim", "word": "freckle", "stimulus": "<p id=\"stim\">FRECKLE</p>", "conditions": [24, 800, "v", 12000], "internal_node_id": "0.0-98.0", "trial": 3, "time_elapsed": 1303633, "serialpos": 5, "key_press": -1, "wordID": 601, "type": "PRES_VIS", "trial_index": 134}, "uniqueid": "MTK1439:378XPAWRUDKBOC0A5QL3R5WEZSHIA0", "dateTime": 1515882938248}, {"current_trial": 135, "trialdata": {"rt": -1, "trial_type": "single-stim", "word": "barrel", "stimulus": "<p id=\"stim\">BARREL</p>", "conditions": [24, 800, "v", 12000], "internal_node_id": "0.0-99.0", "trial": 3, "time_elapsed": 1305386, "serialpos": 6, "key_press": -1, "wordID": 90, "type": "PRES_VIS", "trial_index": 135}, "uniqueid": "MTK1439:378XPAWRUDKBOC0A5QL3R5WEZSHIA0", "dateTime": 1515882940002}, {"current_trial": 136, "trialdata": {"rt": -1, "trial_type": "single-stim", "word": "gallon", "stimulus": "<p id=\"stim\">GALLON</p>", "conditions": [24, 800, "v", 12000], "internal_node_id": "0.0-100.0", "trial": 3, "time_elapsed": 1307046, "serialpos": 7, "key_press": -1, "wordID": 617, "type": "PRES_VIS", "trial_index": 136}, "uniqueid": "MTK1439:378XPAWRUDKBOC0A5QL3R5WEZSHIA0", "dateTime": 1515882941661}, {"current_trial": 137, "trialdata": {"rt": -1, "trial_type": "single-stim", "word": "nurse", "stimulus": "<p id=\"stim\">NURSE</p>", "conditions": [24, 800, "v", 12000], "internal_node_id": "0.0-101.0", "trial": 3, "time_elapsed": 1308799, "serialpos": 8, "key_press": -1, "wordID": 962, "type": "PRES_VIS", "trial_index": 137}, "uniqueid": "MTK1439:378XPAWRUDKBOC0A5QL3R5WEZSHIA0", "dateTime": 1515882943414}, {"current_trial": 138, "trialdata": {"rt": -1, "trial_type": "single-stim", "word": "brother", "stimulus": "<p id=\"stim\">BROTHER</p>", "conditions": [24, 800, "v", 12000], "internal_node_id": "0.0-102.0", "trial": 3, "time_elapsed": 1310441, "serialpos": 9, "key_press": -1, "wordID": 178, "type": "PRES_VIS", "trial_index": 138}, "uniqueid": "MTK1439:378XPAWRUDKBOC0A5QL3R5WEZSHIA0", "dateTime": 1515882945057}, {"current_trial": 139, "trialdata": {"rt": -1, "trial_type": "single-stim", "word": "chipmunk", "stimulus": "<p id=\"stim\">CHIPMUNK</p>", "conditions": [24, 800, "v", 12000], "internal_node_id": "0.0-103.0", "trial": 3, "time_elapsed": 1312305, "serialpos": 10, "key_press": -1, "wordID": 303, "type": "PRES_VIS", "trial_index": 139}, "uniqueid": "MTK1439:378XPAWRUDKBOC0A5QL3R5WEZSHIA0", "dateTime": 1515882946920}, {"current_trial": 140, "trialdata": {"rt": -1, "trial_type": "single-stim", "word": "ointment", "stimulus": "<p id=\"stim\">OINTMENT</p>", "conditions": [24, 800, "v", 12000], "internal_node_id": "0.0-104.0", "trial": 3, "time_elapsed": 1313998, "serialpos": 11, "key_press": -1, "wordID": 973, "type": "PRES_VIS", "trial_index": 140}, "uniqueid": "MTK1439:378XPAWRUDKBOC0A5QL3R5WEZSHIA0", "dateTime": 1515882948613}, {"current_trial": 141, "trialdata": {"rt": -1, "trial_type": "single-stim", "word": "dresser", "stimulus": "<p id=\"stim\">DRESSER</p>", "conditions": [24, 800, "v", 12000], "internal_node_id": "0.0-105.0", "trial": 3, "time_elapsed": 1315657, "serialpos": 12, "key_press": -1, "wordID": 495, "type": "PRES_VIS", "trial_index": 141}, "uniqueid": "MTK1439:378XPAWRUDKBOC0A5QL3R5WEZSHIA0", "dateTime": 1515882950272}, {"current_trial": 142, "trialdata": {"rt": -1, "trial_type": "single-stim", "word": "dentist", "stimulus": "<p id=\"stim\">DENTIST</p>", "conditions": [24, 800, "v", 12000], "internal_node_id": "0.0-106.0", "trial": 3, "time_elapsed": 1317657, "serialpos": 13, "key_press": -1, "wordID": 446, "type": "PRES_VIS", "trial_index": 142}, "uniqueid": "MTK1439:378XPAWRUDKBOC0A5QL3R5WEZSHIA0", "dateTime": 1515882952272}, {"current_trial": 143, "trialdata": {"rt": -1, "trial_type": "single-stim", "word": "backbone", "stimulus": "<p id=\"stim\">BACKBONE</p>", "conditions": [24, 800, "v", 12000], "internal_node_id": "0.0-107.0", "trial": 3, "time_elapsed": 1319441, "serialpos": 14, "key_press": -1, "wordID": 65, "type": "PRES_VIS", "trial_index": 143}, "uniqueid": "MTK1439:378XPAWRUDKBOC0A5QL3R5WEZSHIA0", "dateTime": 1515882954056}, {"current_trial": 144, "trialdata": {"rt": -1, "trial_type": "single-stim", "word": "cupboard", "stimulus": "<p id=\"stim\">CUPBOARD</p>", "conditions": [24, 800, "v", 12000], "internal_node_id": "0.0-108.0", "trial": 3, "time_elapsed": 1321454, "serialpos": 15, "key_press": -1, "wordID": 424, "type": "PRES_VIS", "trial_index": 144}, "uniqueid": "MTK1439:378XPAWRUDKBOC0A5QL3R5WEZSHIA0", "dateTime": 1515882956069}, {"current_trial": 145, "trialdata": {"rt": -1, "trial_type": "single-stim", "word": "knapsack", "stimulus": "<p id=\"stim\">KNAPSACK</p>", "conditions": [24, 800, "v", 12000], "internal_node_id": "0.0-109.0", "trial": 3, "time_elapsed": 1323213, "serialpos": 16, "key_press": -1, "wordID": 782, "type": "PRES_VIS", "trial_index": 145}, "uniqueid": "MTK1439:378XPAWRUDKBOC0A5QL3R5WEZSHIA0", "dateTime": 1515882957828}, {"current_trial": 146, "trialdata": {"rt": -1, "trial_type": "single-stim", "word": "briefcase", "stimulus": "<p id=\"stim\">BRIEFCASE</p>", "conditions": [24, 800, "v", 12000], "internal_node_id": "0.0-110.0", "trial": 3, "time_elapsed": 1324853, "serialpos": 17, "key_press": -1, "wordID": 174, "type": "PRES_VIS", "trial_index": 146}, "uniqueid": "MTK1439:378XPAWRUDKBOC0A5QL3R5WEZSHIA0", "dateTime": 1515882959469}, {"current_trial": 147, "trialdata": {"rt": -1, "trial_type": "single-stim", "word": "judge", "stimulus": "<p id=\"stim\">JUDGE</p>", "conditions": [24, 800, "v", 12000], "internal_node_id": "0.0-111.0", "trial": 3, "time_elapsed": 1326838, "serialpos": 18, "key_press": -1, "wordID": 760, "type": "PRES_VIS", "trial_index": 147}, "uniqueid": "MTK1439:378XPAWRUDKBOC0A5QL3R5WEZSHIA0", "dateTime": 1515882961454}, {"current_trial": 148, "trialdata": {"rt": -1, "trial_type": "single-stim", "word": "donkey", "stimulus": "<p id=\"stim\">DONKEY</p>", "conditions": [24, 800, "v", 12000], "internal_node_id": "0.0-112.0", "trial": 3, "time_elapsed": 1328587, "serialpos": 19, "key_press": -1, "wordID": 483, "type": "PRES_VIS", "trial_index": 148}, "uniqueid": "MTK1439:378XPAWRUDKBOC0A5QL3R5WEZSHIA0", "dateTime": 1515882963203}, {"current_trial": 149, "trialdata": {"rt": -1, "trial_type": "single-stim", "word": "couch", "stimulus": "<p id=\"stim\">COUCH</p>", "conditions": [24, 800, "v", 12000], "internal_node_id": "0.0-113.0", "trial": 3, "time_elapsed": 1330289, "serialpos": 20, "key_press": -1, "wordID": 385, "type": "PRES_VIS", "trial_index": 149}, "uniqueid": "MTK1439:378XPAWRUDKBOC0A5QL3R5WEZSHIA0", "dateTime": 1515882964905}, {"current_trial": 150, "trialdata": {"rt": -1, "trial_type": "single-stim", "word": "record", "stimulus": "<p id=\"stim\">RECORD</p>", "conditions": [24, 800, "v", 12000], "internal_node_id": "0.0-114.0", "trial": 3, "time_elapsed": 1332327, "serialpos": 21, "key_press": -1, "wordID": 1175, "type": "PRES_VIS", "trial_index": 150}, "uniqueid": "MTK1439:378XPAWRUDKBOC0A5QL3R5WEZSHIA0", "dateTime": 1515882966942}, {"current_trial": 151, "trialdata": {"rt": -1, "trial_type": "single-stim", "word": "knife", "stimulus": "<p id=\"stim\">KNIFE</p>", "conditions": [24, 800, "v", 12000], "internal_node_id": "0.0-115.0", "trial": 3, "time_elapsed": 1333981, "serialpos": 22, "key_press": -1, "wordID": 784, "type": "PRES_VIS", "trial_index": 151}, "uniqueid": "MTK1439:378XPAWRUDKBOC0A5QL3R5WEZSHIA0", "dateTime": 1515882968596}, {"current_trial": 152, "trialdata": {"rt": -1, "trial_type": "single-stim", "word": "cobra", "stimulus": "<p id=\"stim\">COBRA</p>", "conditions": [24, 800, "v", 12000], "internal_node_id": "0.0-116.0", "trial": 3, "time_elapsed": 1335943, "serialpos": 23, "key_press": -1, "wordID": 335, "type": "PRES_VIS", "trial_index": 152}, "uniqueid": "MTK1439:378XPAWRUDKBOC0A5QL3R5WEZSHIA0", "dateTime": 1515882970558}, {"current_trial": 153, "trialdata": {"rt": -1, "trial_type": "single-stim", "stimulus": "", "internal_node_id": "0.0-117.0-0.0", "time_elapsed": 1338341, "key_press": -1, "type": "PRE_RECALL_DELAY", "trial_index": 153}, "uniqueid": "MTK1439:378XPAWRUDKBOC0A5QL3R5WEZSHIA0", "dateTime": 1515882972957}, {"current_trial": 154, "trialdata": {"rt": -1000, "trial_type": "single-audio", "stimulus": "/static/audio/400Hz.wav", "internal_node_id": "0.0-118.0", "time_elapsed": 1338845, "key_press": -1, "type": "PRE_RECALL_ALERT", "trial_index": 154}, "uniqueid": "MTK1439:378XPAWRUDKBOC0A5QL3R5WEZSHIA0", "dateTime": 1515882973460}, {"current_trial": 155, "trialdata": {"rt": [3379, 4763, 5852, 7346, 31563, 38795, 41175, 47547], "recwords": ["cobra", "donkey", "judge", "record", "shelf", "judge", "record", "desk"], "key_times": [2016, 2107, 2700, 2955, 3067, 3379, 3692, 3779, 3883, 4072, 4364, 4443, 4763, 5091, 5361, 5426, 5489, 5603, 5852, 6350, 6421, 6603, 6732, 6868, 6947, 7346, 30924, 31036, 31172, 31291, 31379, 31563, 38131, 38323, 38460, 38515, 38660, 38795, 40139, 40419, 40619, 40723, 40870, 41072, 41175, 46939, 47158, 47267, 47331, 47547], "trial_type": "free-recall", "conditions": [24, 800, "v", 12000], "internal_node_id": "0.0-119.0-0.0", "key_presses": [67, 79, 66, 82, 65, 13, 68, 79, 78, 75, 69, 89, 13, 74, 85, 68, 71, 69, 13, 82, 69, 67, 79, 82, 68, 13, 83, 72, 69, 76, 70, 13, 74, 85, 68, 71, 69, 13, 82, 69, 67, 79, 82, 68, 13, 68, 69, 83, 75, 13], "trial": 3, "time_elapsed": 1398853, "type": "FREE_RECALL", "trial_index": 155}, "uniqueid": "MTK1439:378XPAWRUDKBOC0A5QL3R5WEZSHIA0", "dateTime": 1515883033477}, {"current_trial": 156, "trialdata": {"rt": 2175, "trial_type": "text", "internal_node_id": "0.0-120.0", "time_elapsed": 1403041, "key_press": 32, "type": "INSTRUCTIONS", "trial_index": 156}, "uniqueid": "MTK1439:378XPAWRUDKBOC0A5QL3R5WEZSHIA0", "dateTime": 1515883037656}, {"current_trial": 157, "trialdata": {"rt": [3353, 5392, 7128, 8584, 10205], "trial_type": "math-distractor", "key_times": [2985, 3197, 3353, 4839, 5106, 5392, 6747, 6842, 7128, 8203, 8297, 8584, 9791, 9857, 10205, 11641], "responses": ["12", "19", "16", "10", "10"], "num2": [5, 3, 4, 1, 4, 3], "num3": [2, 8, 9, 5, 3, 4], "conditions": [12, 800, "v", 12000], "internal_node_id": "0.0-121.0", "key_presses": [49, 50, 13, 49, 57, 13, 49, 54, 13, 49, 48, 13, 49, 48, 13, 49], "trial": 4, "time_elapsed": 1417075, "type": "DISTRACTOR", "trial_index": 157, "num1": [5, 8, 3, 4, 3, 6]}, "uniqueid": "MTK1439:378XPAWRUDKBOC0A5QL3R5WEZSHIA0", "dateTime": 1515883051691}, {"current_trial": 158, "trialdata": {"rt": -1, "trial_type": "single-stim", "stimulus": "<p id=\"stim\">10</p>", "internal_node_id": "0.0-122.0-0.0", "time_elapsed": 1420126, "key_press": -1, "trial_index": 158}, "uniqueid": "MTK1439:378XPAWRUDKBOC0A5QL3R5WEZSHIA0", "dateTime": 1515883054742}, {"current_trial": 159, "trialdata": {"rt": -1, "trial_type": "single-stim", "stimulus": "<p id=\"stim\">9</p>", "internal_node_id": "0.0-122.0-1.0", "time_elapsed": 1421129, "key_press": -1, "trial_index": 159}, "uniqueid": "MTK1439:378XPAWRUDKBOC0A5QL3R5WEZSHIA0", "dateTime": 1515883055745}, {"current_trial": 160, "trialdata": {"rt": -1, "trial_type": "single-stim", "stimulus": "<p id=\"stim\">8</p>", "internal_node_id": "0.0-122.0-2.0", "time_elapsed": 1422132, "key_press": -1, "trial_index": 160}, "uniqueid": "MTK1439:378XPAWRUDKBOC0A5QL3R5WEZSHIA0", "dateTime": 1515883056747}, {"current_trial": 161, "trialdata": {"rt": -1, "trial_type": "single-stim", "stimulus": "<p id=\"stim\">7</p>", "internal_node_id": "0.0-122.0-3.0", "time_elapsed": 1423134, "key_press": -1, "trial_index": 161}, "uniqueid": "MTK1439:378XPAWRUDKBOC0A5QL3R5WEZSHIA0", "dateTime": 1515883057749}, {"current_trial": 162, "trialdata": {"rt": -1, "trial_type": "single-stim", "stimulus": "<p id=\"stim\">6</p>", "internal_node_id": "0.0-122.0-4.0", "time_elapsed": 1424135, "key_press": -1, "trial_index": 162}, "uniqueid": "MTK1439:378XPAWRUDKBOC0A5QL3R5WEZSHIA0", "dateTime": 1515883058751}, {"current_trial": 163, "trialdata": {"rt": -1, "trial_type": "single-stim", "stimulus": "<p id=\"stim\">5</p>", "internal_node_id": "0.0-122.0-5.0", "time_elapsed": 1425167, "key_press": -1, "trial_index": 163}, "uniqueid": "MTK1439:378XPAWRUDKBOC0A5QL3R5WEZSHIA0", "dateTime": 1515883059782}, {"current_trial": 164, "trialdata": {"rt": -1, "trial_type": "single-stim", "stimulus": "<p id=\"stim\">4</p>", "internal_node_id": "0.0-122.0-6.0", "time_elapsed": 1426240, "key_press": -1, "trial_index": 164}, "uniqueid": "MTK1439:378XPAWRUDKBOC0A5QL3R5WEZSHIA0", "dateTime": 1515883060855}, {"current_trial": 165, "trialdata": {"rt": -1, "trial_type": "single-stim", "stimulus": "<p id=\"stim\">3</p>", "internal_node_id": "0.0-122.0-7.0", "time_elapsed": 1427242, "key_press": -1, "trial_index": 165}, "uniqueid": "MTK1439:378XPAWRUDKBOC0A5QL3R5WEZSHIA0", "dateTime": 1515883061857}, {"current_trial": 166, "trialdata": {"rt": -1, "trial_type": "single-stim", "stimulus": "<p id=\"stim\">2</p>", "internal_node_id": "0.0-122.0-8.0", "time_elapsed": 1428334, "key_press": -1, "trial_index": 166}, "uniqueid": "MTK1439:378XPAWRUDKBOC0A5QL3R5WEZSHIA0", "dateTime": 1515883062950}, {"current_trial": 167, "trialdata": {"rt": -1, "trial_type": "single-stim", "stimulus": "<p id=\"stim\">1</p>", "internal_node_id": "0.0-122.0-9.0", "time_elapsed": 1429420, "key_press": -1, "trial_index": 167}, "uniqueid": "MTK1439:378XPAWRUDKBOC0A5QL3R5WEZSHIA0", "dateTime": 1515883064036}, {"current_trial": 168, "trialdata": {"rt": -1, "trial_type": "single-stim", "stimulus": "<p id=\"stim\">+</p>", "internal_node_id": "0.0-123.0-0.0", "time_elapsed": 1430923, "key_press": -1, "type": "FIXATION", "trial_index": 168}, "uniqueid": "MTK1439:378XPAWRUDKBOC0A5QL3R5WEZSHIA0", "dateTime": 1515883065538}, {"current_trial": 169, "trialdata": {"rt": -1, "trial_type": "single-stim", "word": "wife", "stimulus": "<p id=\"stim\">WIFE</p>", "conditions": [12, 800, "v", 12000], "internal_node_id": "0.0-124.0", "trial": 4, "time_elapsed": 1431724, "serialpos": 0, "key_press": -1, "wordID": 1608, "type": "PRES_VIS", "trial_index": 169}, "uniqueid": "MTK1439:378XPAWRUDKBOC0A5QL3R5WEZSHIA0", "dateTime": 1515883066340}, {"current_trial": 170, "trialdata": {"rt": -1, "trial_type": "single-stim", "word": "bison", "stimulus": "<p id=\"stim\">BISON</p>", "conditions": [12, 800, "v", 12000], "internal_node_id": "0.0-125.0", "trial": 4, "time_elapsed": 1433625, "serialpos": 1, "key_press": -1, "wordID": 130, "type": "PRES_VIS", "trial_index": 170}, "uniqueid": "MTK1439:378XPAWRUDKBOC0A5QL3R5WEZSHIA0", "dateTime": 1515883068241}, {"current_trial": 171, "trialdata": {"rt": -1, "trial_type": "single-stim", "word": "cattle", "stimulus": "<p id=\"stim\">CATTLE</p>", "conditions": [12, 800, "v", 12000], "internal_node_id": "0.0-126.0", "trial": 4, "time_elapsed": 1435414, "serialpos": 2, "key_press": -1, "wordID": 260, "type": "PRES_VIS", "trial_index": 171}, "uniqueid": "MTK1439:378XPAWRUDKBOC0A5QL3R5WEZSHIA0", "dateTime": 1515883070030}, {"current_trial": 172, "trialdata": {"rt": -1, "trial_type": "single-stim", "word": "ketchup", "stimulus": "<p id=\"stim\">KETCHUP</p>", "conditions": [12, 800, "v", 12000], "internal_node_id": "0.0-127.0", "trial": 4, "time_elapsed": 1437424, "serialpos": 3, "key_press": -1, "wordID": 770, "type": "PRES_VIS", "trial_index": 172}, "uniqueid": "MTK1439:378XPAWRUDKBOC0A5QL3R5WEZSHIA0", "dateTime": 1515883072039}, {"current_trial": 173, "trialdata": {"rt": -1, "trial_type": "single-stim", "word": "perfume", "stimulus": "<p id=\"stim\">PERFUME</p>", "conditions": [12, 800, "v", 12000], "internal_node_id": "0.0-128.0", "trial": 4, "time_elapsed": 1439207, "serialpos": 4, "key_press": -1, "wordID": 1048, "type": "PRES_VIS", "trial_index": 173}, "uniqueid": "MTK1439:378XPAWRUDKBOC0A5QL3R5WEZSHIA0", "dateTime": 1515883073822}, {"current_trial": 174, "trialdata": {"rt": -1, "trial_type": "single-stim", "word": "cocktail", "stimulus": "<p id=\"stim\">COCKTAIL</p>", "conditions": [12, 800, "v", 12000], "internal_node_id": "0.0-129.0", "trial": 4, "time_elapsed": 1441194, "serialpos": 5, "key_press": -1, "wordID": 337, "type": "PRES_VIS", "trial_index": 174}, "uniqueid": "MTK1439:378XPAWRUDKBOC0A5QL3R5WEZSHIA0", "dateTime": 1515883075810}, {"current_trial": 175, "trialdata": {"rt": -1, "trial_type": "single-stim", "word": "boyfriend", "stimulus": "<p id=\"stim\">BOYFRIEND</p>", "conditions": [12, 800, "v", 12000], "internal_node_id": "0.0-130.0", "trial": 4, "time_elapsed": 1442925, "serialpos": 6, "key_press": -1, "wordID": 161, "type": "PRES_VIS", "trial_index": 175}, "uniqueid": "MTK1439:378XPAWRUDKBOC0A5QL3R5WEZSHIA0", "dateTime": 1515883077540}, {"current_trial": 176, "trialdata": {"rt": -1, "trial_type": "single-stim", "word": "taxi", "stimulus": "<p id=\"stim\">TAXI</p>", "conditions": [12, 800, "v", 12000], "internal_node_id": "0.0-131.0", "trial": 4, "time_elapsed": 1444581, "serialpos": 7, "key_press": -1, "wordID": 1437, "type": "PRES_VIS", "trial_index": 176}, "uniqueid": "MTK1439:378XPAWRUDKBOC0A5QL3R5WEZSHIA0", "dateTime": 1515883079197}, {"current_trial": 177, "trialdata": {"rt": -1, "trial_type": "single-stim", "word": "whiskers", "stimulus": "<p id=\"stim\">WHISKERS</p>", "conditions": [12, 800, "v", 12000], "internal_node_id": "0.0-132.0", "trial": 4, "time_elapsed": 1446454, "serialpos": 8, "key_press": -1, "wordID": 1604, "type": "PRES_VIS", "trial_index": 177}, "uniqueid": "MTK1439:378XPAWRUDKBOC0A5QL3R5WEZSHIA0", "dateTime": 1515883081069}, {"current_trial": 178, "trialdata": {"rt": -1, "trial_type": "single-stim", "word": "mildew", "stimulus": "<p id=\"stim\">MILDEW</p>", "conditions": [12, 800, "v", 12000], "internal_node_id": "0.0-133.0", "trial": 4, "time_elapsed": 1448386, "serialpos": 9, "key_press": -1, "wordID": 892, "type": "PRES_VIS", "trial_index": 178}, "uniqueid": "MTK1439:378XPAWRUDKBOC0A5QL3R5WEZSHIA0", "dateTime": 1515883083001}, {"current_trial": 179, "trialdata": {"rt": -1, "trial_type": "single-stim", "word": "igloo", "stimulus": "<p id=\"stim\">IGLOO</p>", "conditions": [12, 800, "v", 12000], "internal_node_id": "0.0-134.0", "trial": 4, "time_elapsed": 1450118, "serialpos": 10, "key_press": -1, "wordID": 733, "type": "PRES_VIS", "trial_index": 179}, "uniqueid": "MTK1439:378XPAWRUDKBOC0A5QL3R5WEZSHIA0", "dateTime": 1515883084734}, {"current_trial": 180, "trialdata": {"rt": -1, "trial_type": "single-stim", "word": "pigeon", "stimulus": "<p id=\"stim\">PIGEON</p>", "conditions": [12, 800, "v", 12000], "internal_node_id": "0.0-135.0", "trial": 4, "time_elapsed": 1452117, "serialpos": 11, "key_press": -1, "wordID": 1064, "type": "PRES_VIS", "trial_index": 180}, "uniqueid": "MTK1439:378XPAWRUDKBOC0A5QL3R5WEZSHIA0", "dateTime": 1515883086733}, {"current_trial": 181, "trialdata": {"rt": -1, "trial_type": "single-stim", "stimulus": "", "internal_node_id": "0.0-136.0-0.0", "time_elapsed": 1454334, "key_press": -1, "type": "PRE_RECALL_DELAY", "trial_index": 181}, "uniqueid": "MTK1439:378XPAWRUDKBOC0A5QL3R5WEZSHIA0", "dateTime": 1515883088950}, {"current_trial": 182, "trialdata": {"rt": -1000, "trial_type": "single-audio", "stimulus": "/static/audio/400Hz.wav", "internal_node_id": "0.0-137.0", "time_elapsed": 1454837, "key_press": -1, "type": "PRE_RECALL_ALERT", "trial_index": 182}, "uniqueid": "MTK1439:378XPAWRUDKBOC0A5QL3R5WEZSHIA0", "dateTime": 1515883089452}, {"current_trial": 183, "trialdata": {"rt": [4237, 5661, 6829, 8493, 10718, 13786, 17725, 34462], "recwords": ["pigeon", "bison", "wife", "igloo", "wife", "boyfriend", "package", "bison"], "key_times": [2413, 2665, 3014, 3245, 3357, 3597, 3861, 3965, 4237, 4981, 5125, 5277, 5333, 5413, 5661, 5909, 5997, 6117, 6325, 6829, 7157, 7293, 7437, 7677, 7805, 8493, 9909, 9998, 10061, 10269, 10718, 12609, 12669, 12797, 12974, 13173, 13253, 13349, 13422, 13585, 13786, 16429, 16533, 16949, 17078, 17189, 17352, 17501, 17725, 33742, 33855, 34025, 34101, 34150, 34462], "trial_type": "free-recall", "conditions": [12, 800, "v", 12000], "internal_node_id": "0.0-138.0-0.0", "key_presses": [80, 71, 8, 73, 71, 69, 79, 78, 13, 66, 73, 83, 79, 78, 13, 87, 73, 70, 69, 13, 73, 71, 76, 79, 79, 13, 87, 73, 70, 69, 13, 66, 79, 89, 70, 82, 73, 69, 78, 68, 13, 80, 65, 67, 75, 65, 71, 69, 13, 66, 73, 83, 79, 78, 13], "trial": 4, "time_elapsed": 1514843, "type": "FREE_RECALL", "trial_index": 183}, "uniqueid": "MTK1439:378XPAWRUDKBOC0A5QL3R5WEZSHIA0", "dateTime": 1515883149468}, {"current_trial": 184, "trialdata": {"rt": 657, "trial_type": "text", "internal_node_id": "0.0-139.0", "time_elapsed": 1517512, "key_press": 32, "type": "INSTRUCTIONS", "trial_index": 184}, "uniqueid": "MTK1439:378XPAWRUDKBOC0A5QL3R5WEZSHIA0", "dateTime": 1515883152128}, {"current_trial": 185, "trialdata": {"rt": [1915, 3775, 5395, 6747, 10059, 12475, 15043, 16974, 18515, 20982, 22523], "trial_type": "math-distractor", "key_times": [1560, 1624, 1915, 1939, 3328, 3611, 3775, 4971, 5132, 5395, 6379, 6507, 6747, 9635, 9903, 10059, 12170, 12275, 12475, 13947, 14327, 14395, 14688, 15043, 16643, 16787, 16974, 18107, 18227, 18515, 20635, 20771, 20982, 22244, 22260, 22523, 23836], "responses": ["16", "13", "17", "18", "24", "11", "21", "21", "10", "22", "18"], "num2": [3, 3, 7, 3, 7, 9, 9, 9, 7, 8, 7, 5], "num3": [6, 4, 7, 8, 8, 1, 5, 9, 2, 5, 9, 1], "conditions": [12, 1600, "v", 24000], "internal_node_id": "0.0-140.0", "key_presses": [49, 54, 13, 16, 49, 51, 13, 49, 55, 13, 49, 56, 13, 50, 52, 13, 49, 49, 13, 49, 8, 50, 49, 13, 50, 49, 13, 49, 48, 13, 50, 50, 13, 49, 56, 13, 56], "trial": 5, "time_elapsed": 1543629, "type": "DISTRACTOR", "trial_index": 185, "num1": [7, 6, 3, 7, 9, 1, 7, 4, 1, 9, 2, 2]}, "uniqueid": "MTK1439:378XPAWRUDKBOC0A5QL3R5WEZSHIA0", "dateTime": 1515883178244}, {"current_trial": 186, "trialdata": {"rt": -1, "trial_type": "single-stim", "stimulus": "<p id=\"stim\">10</p>", "internal_node_id": "0.0-141.0-0.0", "time_elapsed": 1546632, "key_press": -1, "trial_index": 186}, "uniqueid": "MTK1439:378XPAWRUDKBOC0A5QL3R5WEZSHIA0", "dateTime": 1515883181247}, {"current_trial": 187, "trialdata": {"rt": -1, "trial_type": "single-stim", "stimulus": "<p id=\"stim\">9</p>", "internal_node_id": "0.0-141.0-1.0", "time_elapsed": 1547634, "key_press": -1, "trial_index": 187}, "uniqueid": "MTK1439:378XPAWRUDKBOC0A5QL3R5WEZSHIA0", "dateTime": 1515883182249}, {"current_trial": 188, "trialdata": {"rt": -1, "trial_type": "single-stim", "stimulus": "<p id=\"stim\">8</p>", "internal_node_id": "0.0-141.0-2.0", "time_elapsed": 1548636, "key_press": -1, "trial_index": 188}, "uniqueid": "MTK1439:378XPAWRUDKBOC0A5QL3R5WEZSHIA0", "dateTime": 1515883183251}, {"current_trial": 189, "trialdata": {"rt": -1, "trial_type": "single-stim", "stimulus": "<p id=\"stim\">7</p>", "internal_node_id": "0.0-141.0-3.0", "time_elapsed": 1549638, "key_press": -1, "trial_index": 189}, "uniqueid": "MTK1439:378XPAWRUDKBOC0A5QL3R5WEZSHIA0", "dateTime": 1515883184253}, {"current_trial": 190, "trialdata": {"rt": -1, "trial_type": "single-stim", "stimulus": "<p id=\"stim\">6</p>", "internal_node_id": "0.0-141.0-4.0", "time_elapsed": 1550704, "key_press": -1, "trial_index": 190}, "uniqueid": "MTK1439:378XPAWRUDKBOC0A5QL3R5WEZSHIA0", "dateTime": 1515883185319}, {"current_trial": 191, "trialdata": {"rt": -1, "trial_type": "single-stim", "stimulus": "<p id=\"stim\">5</p>", "internal_node_id": "0.0-141.0-5.0", "time_elapsed": 1551819, "key_press": -1, "trial_index": 191}, "uniqueid": "MTK1439:378XPAWRUDKBOC0A5QL3R5WEZSHIA0", "dateTime": 1515883186435}, {"current_trial": 192, "trialdata": {"rt": -1, "trial_type": "single-stim", "stimulus": "<p id=\"stim\">4</p>", "internal_node_id": "0.0-141.0-6.0", "time_elapsed": 1552968, "key_press": -1, "trial_index": 192}, "uniqueid": "MTK1439:378XPAWRUDKBOC0A5QL3R5WEZSHIA0", "dateTime": 1515883187584}, {"current_trial": 193, "trialdata": {"rt": -1, "trial_type": "single-stim", "stimulus": "<p id=\"stim\">3</p>", "internal_node_id": "0.0-141.0-7.0", "time_elapsed": 1554080, "key_press": -1, "trial_index": 193}, "uniqueid": "MTK1439:378XPAWRUDKBOC0A5QL3R5WEZSHIA0", "dateTime": 1515883188696}, {"current_trial": 194, "trialdata": {"rt": -1, "trial_type": "single-stim", "stimulus": "<p id=\"stim\">2</p>", "internal_node_id": "0.0-141.0-8.0", "time_elapsed": 1555200, "key_press": -1, "trial_index": 194}, "uniqueid": "MTK1439:378XPAWRUDKBOC0A5QL3R5WEZSHIA0", "dateTime": 1515883189816}, {"current_trial": 195, "trialdata": {"rt": -1, "trial_type": "single-stim", "stimulus": "<p id=\"stim\">1</p>", "internal_node_id": "0.0-141.0-9.0", "time_elapsed": 1556203, "key_press": -1, "trial_index": 195}, "uniqueid": "MTK1439:378XPAWRUDKBOC0A5QL3R5WEZSHIA0", "dateTime": 1515883190818}, {"current_trial": 196, "trialdata": {"rt": -1, "trial_type": "single-stim", "stimulus": "<p id=\"stim\">+</p>", "internal_node_id": "0.0-142.0-0.0", "time_elapsed": 1557750, "key_press": -1, "type": "FIXATION", "trial_index": 196}, "uniqueid": "MTK1439:378XPAWRUDKBOC0A5QL3R5WEZSHIA0", "dateTime": 1515883192366}, {"current_trial": 197, "trialdata": {"rt": -1, "trial_type": "single-stim", "word": "cookbook", "stimulus": "<p id=\"stim\">COOKBOOK</p>", "conditions": [12, 1600, "v", 24000], "internal_node_id": "0.0-143.0", "trial": 5, "time_elapsed": 1559353, "serialpos": 0, "key_press": -1, "wordID": 372, "type": "PRES_VIS", "trial_index": 197}, "uniqueid": "MTK1439:378XPAWRUDKBOC0A5QL3R5WEZSHIA0", "dateTime": 1515883193968}, {"current_trial": 198, "trialdata": {"rt": -1, "trial_type": "single-stim", "word": "kitchen", "stimulus": "<p id=\"stim\">KITCHEN</p>", "conditions": [12, 1600, "v", 24000], "internal_node_id": "0.0-144.0", "trial": 5, "time_elapsed": 1561922, "serialpos": 1, "key_press": -1, "wordID": 777, "type": "PRES_VIS", "trial_index": 198}, "uniqueid": "MTK1439:378XPAWRUDKBOC0A5QL3R5WEZSHIA0", "dateTime": 1515883196538}, {"current_trial": 199, "trialdata": {"rt": -1, "trial_type": "single-stim", "word": "bouquet", "stimulus": "<p id=\"stim\">BOUQUET</p>", "conditions": [12, 1600, "v", 24000], "internal_node_id": "0.0-145.0", "trial": 5, "time_elapsed": 1564347, "serialpos": 2, "key_press": -1, "wordID": 156, "type": "PRES_VIS", "trial_index": 199}, "uniqueid": "MTK1439:378XPAWRUDKBOC0A5QL3R5WEZSHIA0", "dateTime": 1515883198962}, {"current_trial": 200, "trialdata": {"rt": -1, "trial_type": "single-stim", "word": "climber", "stimulus": "<p id=\"stim\">CLIMBER</p>", "conditions": [12, 1600, "v", 24000], "internal_node_id": "0.0-146.0", "trial": 5, "time_elapsed": 1566868, "serialpos": 3, "key_press": -1, "wordID": 322, "type": "PRES_VIS", "trial_index": 200}, "uniqueid": "MTK1439:378XPAWRUDKBOC0A5QL3R5WEZSHIA0", "dateTime": 1515883201483}, {"current_trial": 201, "trialdata": {"rt": -1, "trial_type": "single-stim", "word": "hiker", "stimulus": "<p id=\"stim\">HIKER</p>", "conditions": [12, 1600, "v", 24000], "internal_node_id": "0.0-147.0", "trial": 5, "time_elapsed": 1569722, "serialpos": 4, "key_press": -1, "wordID": 707, "type": "PRES_VIS", "trial_index": 201}, "uniqueid": "MTK1439:378XPAWRUDKBOC0A5QL3R5WEZSHIA0", "dateTime": 1515883204337}, {"current_trial": 202, "trialdata": {"rt": -1, "trial_type": "single-stim", "word": "husband", "stimulus": "<p id=\"stim\">HUSBAND</p>", "conditions": [12, 1600, "v", 24000], "internal_node_id": "0.0-148.0", "trial": 5, "time_elapsed": 1572391, "serialpos": 5, "key_press": -1, "wordID": 727, "type": "PRES_VIS", "trial_index": 202}, "uniqueid": "MTK1439:378XPAWRUDKBOC0A5QL3R5WEZSHIA0", "dateTime": 1515883207007}, {"current_trial": 203, "trialdata": {"rt": -1, "trial_type": "single-stim", "word": "brook", "stimulus": "<p id=\"stim\">BROOK</p>", "conditions": [12, 1600, "v", 24000], "internal_node_id": "0.0-149.0", "trial": 5, "time_elapsed": 1574814, "serialpos": 6, "key_press": -1, "wordID": 176, "type": "PRES_VIS", "trial_index": 203}, "uniqueid": "MTK1439:378XPAWRUDKBOC0A5QL3R5WEZSHIA0", "dateTime": 1515883209429}, {"current_trial": 204, "trialdata": {"rt": -1, "trial_type": "single-stim", "word": "tutu", "stimulus": "<p id=\"stim\">TUTU</p>", "conditions": [12, 1600, "v", 24000], "internal_node_id": "0.0-150.0", "trial": 5, "time_elapsed": 1577466, "serialpos": 7, "key_press": -1, "wordID": 1523, "type": "PRES_VIS", "trial_index": 204}, "uniqueid": "MTK1439:378XPAWRUDKBOC0A5QL3R5WEZSHIA0", "dateTime": 1515883212082}, {"current_trial": 205, "trialdata": {"rt": -1, "trial_type": "single-stim", "word": "shelf", "stimulus": "<p id=\"stim\">SHELF</p>", "conditions": [12, 1600, "v", 24000], "internal_node_id": "0.0-151.0", "trial": 5, "time_elapsed": 1580185, "serialpos": 8, "key_press": -1, "wordID": 1279, "type": "PRES_VIS", "trial_index": 205}, "uniqueid": "MTK1439:378XPAWRUDKBOC0A5QL3R5WEZSHIA0", "dateTime": 1515883214801}, {"current_trial": 206, "trialdata": {"rt": -1, "trial_type": "single-stim", "word": "stove", "stimulus": "<p id=\"stim\">STOVE</p>", "conditions": [12, 1600, "v", 24000], "internal_node_id": "0.0-152.0", "trial": 5, "time_elapsed": 1582966, "serialpos": 9, "key_press": -1, "wordID": 1387, "type": "PRES_VIS", "trial_index": 206}, "uniqueid": "MTK1439:378XPAWRUDKBOC0A5QL3R5WEZSHIA0", "dateTime": 1515883217581}, {"current_trial": 207, "trialdata": {"rt": -1, "trial_type": "single-stim", "word": "hedge", "stimulus": "<p id=\"stim\">HEDGE</p>", "conditions": [12, 1600, "v", 24000], "internal_node_id": "0.0-153.0", "trial": 5, "time_elapsed": 1585491, "serialpos": 10, "key_press": -1, "wordID": 698, "type": "PRES_VIS", "trial_index": 207}, "uniqueid": "MTK1439:378XPAWRUDKBOC0A5QL3R5WEZSHIA0", "dateTime": 1515883220107}, {"current_trial": 208, "trialdata": {"rt": -1, "trial_type": "single-stim", "word": "window", "stimulus": "<p id=\"stim\">WINDOW</p>", "conditions": [12, 1600, "v", 24000], "internal_node_id": "0.0-154.0", "trial": 5, "time_elapsed": 1588017, "serialpos": 11, "key_press": -1, "wordID": 1610, "type": "PRES_VIS", "trial_index": 208}, "uniqueid": "MTK1439:378XPAWRUDKBOC0A5QL3R5WEZSHIA0", "dateTime": 1515883222633}, {"current_trial": 209, "trialdata": {"rt": -1, "trial_type": "single-stim", "stimulus": "", "internal_node_id": "0.0-155.0-0.0", "time_elapsed": 1590184, "key_press": -1, "type": "PRE_RECALL_DELAY", "trial_index": 209}, "uniqueid": "MTK1439:378XPAWRUDKBOC0A5QL3R5WEZSHIA0", "dateTime": 1515883224800}, {"current_trial": 210, "trialdata": {"rt": -1000, "trial_type": "single-audio", "stimulus": "/static/audio/400Hz.wav", "internal_node_id": "0.0-156.0", "time_elapsed": 1590744, "key_press": -1, "type": "PRE_RECALL_ALERT", "trial_index": 210}, "uniqueid": "MTK1439:378XPAWRUDKBOC0A5QL3R5WEZSHIA0", "dateTime": 1515883225359}, {"current_trial": 211, "trialdata": {"rt": [2378, 3458, 5525, 7088, 9298, 11538, 13018, 15994, 29464, 34610, 38700, 42609, 48453], "recwords": ["shelf", "window", "cookbook", "kitchen", "stove", "climber", "hiker", "hedge", "wife", "husband", "bouquet", "shelf", "package"], "key_times": [1323, 1722, 1875, 2010, 2143, 2378, 2684, 2748, 2818, 2947, 3083, 3249, 3458, 3912, 4042, 4162, 4359, 4762, 4954, 5085, 5210, 5525, 5874, 6010, 6138, 6378, 6482, 6633, 6818, 7088, 7434, 7578, 7681, 7747, 7812, 8562, 8714, 8850, 8986, 9298, 10198, 10290, 10370, 10586, 10951, 11066, 11122, 11538, 11874, 12124, 12298, 12703, 12766, 13018, 15227, 15306, 15506, 15666, 15770, 15994, 28891, 29002, 29050, 29210, 29464, 32963, 33185, 33256, 33498, 34013, 34058, 34219, 34373, 34492, 34610, 36946, 37126, 37195, 37434, 37788, 37826, 38042, 38234, 38413, 38700, 42011, 42098, 42243, 42306, 42426, 42609, 47530, 47634, 47842, 47953, 48042, 48146, 48298, 48453], "trial_type": "free-recall", "conditions": [12, 1600, "v", 24000], "internal_node_id": "0.0-157.0-0.0", "key_presses": [83, 72, 69, 76, 70, 13, 87, 73, 78, 68, 79, 87, 13, 67, 79, 79, 75, 66, 79, 79, 75, 13, 75, 73, 84, 67, 72, 69, 78, 13, 83, 84, 79, 78, 69, 8, 8, 86, 69, 13, 67, 76, 73, 77, 66, 69, 82, 13, 72, 73, 75, 69, 82, 13, 72, 69, 68, 71, 69, 13, 87, 73, 70, 69, 13, 72, 85, 83, 65, 8, 66, 65, 78, 68, 13, 66, 79, 85, 71, 8, 81, 85, 69, 84, 13, 83, 72, 69, 76, 70, 13, 80, 65, 67, 75, 65, 71, 69, 13], "trial": 5, "time_elapsed": 1650749, "type": "FREE_RECALL", "trial_index": 211}, "uniqueid": "MTK1439:378XPAWRUDKBOC0A5QL3R5WEZSHIA0", "dateTime": 1515883285374}, {"current_trial": 212, "trialdata": {"rt": 6949, "trial_type": "text", "internal_node_id": "0.0-158.0", "time_elapsed": 1659711, "key_press": 32, "type": "INSTRUCTIONS", "trial_index": 212}, "uniqueid": "MTK1439:378XPAWRUDKBOC0A5QL3R5WEZSHIA0", "dateTime": 1515883294327}, {"current_trial": 213, "trialdata": {"rt": [1847, 3323, 4767, 6167, 7819, 9191, 10903, 12559, 13847, 15446, 17143, 18687, 20767, 22831], "trial_type": "math-distractor", "key_times": [1519, 1679, 1847, 3031, 3199, 3323, 4495, 4767, 5839, 5895, 6167, 7511, 7691, 7819, 8799, 8927, 9191, 10511, 10615, 10903, 12185, 12367, 12559, 13527, 13623, 13847, 15127, 15263, 15446, 16863, 16999, 17143, 18415, 18543, 18687, 20375, 20558, 20767, 22551, 22697, 22831], "responses": ["14", "12", "7", "10", "15", "17", "10", "13", "18", "22", "21", "21", "20", "12"], "num2": [5, 3, 3, 7, 7, 1, 2, 1, 9, 9, 9, 7, 8, 6, 7], "num3": [4, 4, 1, 1, 5, 7, 7, 3, 8, 5, 6, 9, 5, 4, 8], "conditions": [24, 1600, "v", 24000], "internal_node_id": "0.0-159.0", "key_presses": [49, 52, 13, 49, 50, 13, 55, 13, 49, 48, 13, 49, 53, 13, 49, 55, 13, 49, 48, 13, 49, 51, 13, 49, 56, 13, 50, 50, 13, 50, 49, 13, 50, 49, 13, 50, 48, 13, 49, 50, 13], "trial": 6, "time_elapsed": 1685753, "type": "DISTRACTOR", "trial_index": 213, "num1": [5, 5, 3, 2, 3, 9, 1, 9, 1, 8, 6, 5, 7, 2, 9]}, "uniqueid": "MTK1439:378XPAWRUDKBOC0A5QL3R5WEZSHIA0", "dateTime": 1515883320368}, {"current_trial": 214, "trialdata": {"rt": -1, "trial_type": "single-stim", "stimulus": "<p id=\"stim\">10</p>", "internal_node_id": "0.0-160.0-0.0", "time_elapsed": 1688755, "key_press": -1, "trial_index": 214}, "uniqueid": "MTK1439:378XPAWRUDKBOC0A5QL3R5WEZSHIA0", "dateTime": 1515883323371}, {"current_trial": 215, "trialdata": {"rt": -1, "trial_type": "single-stim", "stimulus": "<p id=\"stim\">9</p>", "internal_node_id": "0.0-160.0-1.0", "time_elapsed": 1689757, "key_press": -1, "trial_index": 215}, "uniqueid": "MTK1439:378XPAWRUDKBOC0A5QL3R5WEZSHIA0", "dateTime": 1515883324372}, {"current_trial": 216, "trialdata": {"rt": -1, "trial_type": "single-stim", "stimulus": "<p id=\"stim\">8</p>", "internal_node_id": "0.0-160.0-2.0", "time_elapsed": 1690759, "key_press": -1, "trial_index": 216}, "uniqueid": "MTK1439:378XPAWRUDKBOC0A5QL3R5WEZSHIA0", "dateTime": 1515883325374}, {"current_trial": 217, "trialdata": {"rt": -1, "trial_type": "single-stim", "stimulus": "<p id=\"stim\">7</p>", "internal_node_id": "0.0-160.0-3.0", "time_elapsed": 1691761, "key_press": -1, "trial_index": 217}, "uniqueid": "MTK1439:378XPAWRUDKBOC0A5QL3R5WEZSHIA0", "dateTime": 1515883326376}, {"current_trial": 218, "trialdata": {"rt": -1, "trial_type": "single-stim", "stimulus": "<p id=\"stim\">6</p>", "internal_node_id": "0.0-160.0-4.0", "time_elapsed": 1692763, "key_press": -1, "trial_index": 218}, "uniqueid": "MTK1439:378XPAWRUDKBOC0A5QL3R5WEZSHIA0", "dateTime": 1515883327378}, {"current_trial": 219, "trialdata": {"rt": -1, "trial_type": "single-stim", "stimulus": "<p id=\"stim\">5</p>", "internal_node_id": "0.0-160.0-5.0", "time_elapsed": 1693801, "key_press": -1, "trial_index": 219}, "uniqueid": "MTK1439:378XPAWRUDKBOC0A5QL3R5WEZSHIA0", "dateTime": 1515883328416}, {"current_trial": 220, "trialdata": {"rt": -1, "trial_type": "single-stim", "stimulus": "<p id=\"stim\">4</p>", "internal_node_id": "0.0-160.0-6.0", "time_elapsed": 1694908, "key_press": -1, "trial_index": 220}, "uniqueid": "MTK1439:378XPAWRUDKBOC0A5QL3R5WEZSHIA0", "dateTime": 1515883329524}, {"current_trial": 221, "trialdata": {"rt": -1, "trial_type": "single-stim", "stimulus": "<p id=\"stim\">3</p>", "internal_node_id": "0.0-160.0-7.0", "time_elapsed": 1696018, "key_press": -1, "trial_index": 221}, "uniqueid": "MTK1439:378XPAWRUDKBOC0A5QL3R5WEZSHIA0", "dateTime": 1515883330634}, {"current_trial": 222, "trialdata": {"rt": -1, "trial_type": "single-stim", "stimulus": "<p id=\"stim\">2</p>", "internal_node_id": "0.0-160.0-8.0", "time_elapsed": 1697130, "key_press": -1, "trial_index": 222}, "uniqueid": "MTK1439:378XPAWRUDKBOC0A5QL3R5WEZSHIA0", "dateTime": 1515883331746}, {"current_trial": 223, "trialdata": {"rt": -1, "trial_type": "single-stim", "stimulus": "<p id=\"stim\">1</p>", "internal_node_id": "0.0-160.0-9.0", "time_elapsed": 1698271, "key_press": -1, "trial_index": 223}, "uniqueid": "MTK1439:378XPAWRUDKBOC0A5QL3R5WEZSHIA0", "dateTime": 1515883332887}, {"current_trial": 224, "trialdata": {"rt": -1, "trial_type": "single-stim", "stimulus": "<p id=\"stim\">+</p>", "internal_node_id": "0.0-161.0-0.0", "time_elapsed": 1699775, "key_press": -1, "type": "FIXATION", "trial_index": 224}, "uniqueid": "MTK1439:378XPAWRUDKBOC0A5QL3R5WEZSHIA0", "dateTime": 1515883334390}, {"current_trial": 225, "trialdata": {"rt": -1, "trial_type": "single-stim", "word": "cloud", "stimulus": "<p id=\"stim\">CLOUD</p>", "conditions": [24, 1600, "v", 24000], "internal_node_id": "0.0-162.0", "trial": 6, "time_elapsed": 1701377, "serialpos": 0, "key_press": -1, "wordID": 327, "type": "PRES_VIS", "trial_index": 225}, "uniqueid": "MTK1439:378XPAWRUDKBOC0A5QL3R5WEZSHIA0", "dateTime": 1515883335993}, {"current_trial": 226, "trialdata": {"rt": -1, "trial_type": "single-stim", "word": "globe", "stimulus": "<p id=\"stim\">GLOBE</p>", "conditions": [24, 1600, "v", 24000], "internal_node_id": "0.0-163.0", "trial": 6, "time_elapsed": 1704034, "serialpos": 1, "key_press": -1, "wordID": 640, "type": "PRES_VIS", "trial_index": 226}, "uniqueid": "MTK1439:378XPAWRUDKBOC0A5QL3R5WEZSHIA0", "dateTime": 1515883338649}, {"current_trial": 227, "trialdata": {"rt": -1, "trial_type": "single-stim", "word": "pluto", "stimulus": "<p id=\"stim\">PLUTO</p>", "conditions": [24, 1600, "v", 24000], "internal_node_id": "0.0-164.0", "trial": 6, "time_elapsed": 1706841, "serialpos": 2, "key_press": -1, "wordID": 1091, "type": "PRES_VIS", "trial_index": 227}, "uniqueid": "MTK1439:378XPAWRUDKBOC0A5QL3R5WEZSHIA0", "dateTime": 1515883341456}, {"current_trial": 228, "trialdata": {"rt": -1, "trial_type": "single-stim", "word": "curtain", "stimulus": "<p id=\"stim\">CURTAIN</p>", "conditions": [24, 1600, "v", 24000], "internal_node_id": "0.0-165.0", "trial": 6, "time_elapsed": 1709507, "serialpos": 3, "key_press": -1, "wordID": 426, "type": "PRES_VIS", "trial_index": 228}, "uniqueid": "MTK1439:378XPAWRUDKBOC0A5QL3R5WEZSHIA0", "dateTime": 1515883344122}, {"current_trial": 229, "trialdata": {"rt": -1, "trial_type": "single-stim", "word": "turtle", "stimulus": "<p id=\"stim\">TURTLE</p>", "conditions": [24, 1600, "v", 24000], "internal_node_id": "0.0-166.0", "trial": 6, "time_elapsed": 1712229, "serialpos": 4, "key_press": -1, "wordID": 1521, "type": "PRES_VIS", "trial_index": 229}, "uniqueid": "MTK1439:378XPAWRUDKBOC0A5QL3R5WEZSHIA0", "dateTime": 1515883346844}, {"current_trial": 230, "trialdata": {"rt": -1, "trial_type": "single-stim", "word": "france", "stimulus": "<p id=\"stim\">FRANCE</p>", "conditions": [24, 1600, "v", 24000], "internal_node_id": "0.0-167.0", "trial": 6, "time_elapsed": 1714757, "serialpos": 5, "key_press": -1, "wordID": 600, "type": "PRES_VIS", "trial_index": 230}, "uniqueid": "MTK1439:378XPAWRUDKBOC0A5QL3R5WEZSHIA0", "dateTime": 1515883349372}, {"current_trial": 231, "trialdata": {"rt": -1, "trial_type": "single-stim", "word": "japan", "stimulus": "<p id=\"stim\">JAPAN</p>", "conditions": [24, 1600, "v", 24000], "internal_node_id": "0.0-168.0", "trial": 6, "time_elapsed": 1717346, "serialpos": 6, "key_press": -1, "wordID": 748, "type": "PRES_VIS", "trial_index": 231}, "uniqueid": "MTK1439:378XPAWRUDKBOC0A5QL3R5WEZSHIA0", "dateTime": 1515883351961}, {"current_trial": 232, "trialdata": {"rt": -1, "trial_type": "single-stim", "word": "helmet", "stimulus": "<p id=\"stim\">HELMET</p>", "conditions": [24, 1600, "v", 24000], "internal_node_id": "0.0-169.0", "trial": 6, "time_elapsed": 1720116, "serialpos": 7, "key_press": -1, "wordID": 701, "type": "PRES_VIS", "trial_index": 232}, "uniqueid": "MTK1439:378XPAWRUDKBOC0A5QL3R5WEZSHIA0", "dateTime": 1515883354732}, {"current_trial": 233, "trialdata": {"rt": -1, "trial_type": "single-stim", "word": "actress", "stimulus": "<p id=\"stim\">ACTRESS</p>", "conditions": [24, 1600, "v", 24000], "internal_node_id": "0.0-170.0", "trial": 6, "time_elapsed": 1722904, "serialpos": 8, "key_press": -1, "wordID": 5, "type": "PRES_VIS", "trial_index": 233}, "uniqueid": "MTK1439:378XPAWRUDKBOC0A5QL3R5WEZSHIA0", "dateTime": 1515883357521}, {"current_trial": 234, "trialdata": {"rt": -1, "trial_type": "single-stim", "word": "quarter", "stimulus": "<p id=\"stim\">QUARTER</p>", "conditions": [24, 1600, "v", 24000], "internal_node_id": "0.0-171.0", "trial": 6, "time_elapsed": 1725529, "serialpos": 9, "key_press": -1, "wordID": 1147, "type": "PRES_VIS", "trial_index": 234}, "uniqueid": "MTK1439:378XPAWRUDKBOC0A5QL3R5WEZSHIA0", "dateTime": 1515883360145}, {"current_trial": 235, "trialdata": {"rt": -1, "trial_type": "single-stim", "word": "mammal", "stimulus": "<p id=\"stim\">MAMMAL</p>", "conditions": [24, 1600, "v", 24000], "internal_node_id": "0.0-172.0", "trial": 6, "time_elapsed": 1728364, "serialpos": 10, "key_press": -1, "wordID": 860, "type": "PRES_VIS", "trial_index": 235}, "uniqueid": "MTK1439:378XPAWRUDKBOC0A5QL3R5WEZSHIA0", "dateTime": 1515883362980}, {"current_trial": 236, "trialdata": {"rt": -1, "trial_type": "single-stim", "word": "lava", "stimulus": "<p id=\"stim\">LAVA</p>", "conditions": [24, 1600, "v", 24000], "internal_node_id": "0.0-173.0", "trial": 6, "time_elapsed": 1730895, "serialpos": 11, "key_press": -1, "wordID": 803, "type": "PRES_VIS", "trial_index": 236}, "uniqueid": "MTK1439:378XPAWRUDKBOC0A5QL3R5WEZSHIA0", "dateTime": 1515883365510}, {"current_trial": 237, "trialdata": {"rt": -1, "trial_type": "single-stim", "word": "tombstone", "stimulus": "<p id=\"stim\">TOMBSTONE</p>", "conditions": [24, 1600, "v", 24000], "internal_node_id": "0.0-174.0", "trial": 6, "time_elapsed": 1733378, "serialpos": 12, "key_press": -1, "wordID": 1477, "type": "PRES_VIS", "trial_index": 237}, "uniqueid": "MTK1439:378XPAWRUDKBOC0A5QL3R5WEZSHIA0", "dateTime": 1515883367993}, {"current_trial": 238, "trialdata": {"rt": -1, "trial_type": "single-stim", "word": "casket", "stimulus": "<p id=\"stim\">CASKET</p>", "conditions": [24, 1600, "v", 24000], "internal_node_id": "0.0-175.0", "trial": 6, "time_elapsed": 1736066, "serialpos": 13, "key_press": -1, "wordID": 254, "type": "PRES_VIS", "trial_index": 238}, "uniqueid": "MTK1439:378XPAWRUDKBOC0A5QL3R5WEZSHIA0", "dateTime": 1515883370681}, {"current_trial": 239, "trialdata": {"rt": -1, "trial_type": "single-stim", "word": "motel", "stimulus": "<p id=\"stim\">MOTEL</p>", "conditions": [24, 1600, "v", 24000], "internal_node_id": "0.0-176.0", "trial": 6, "time_elapsed": 1738779, "serialpos": 14, "key_press": -1, "wordID": 918, "type": "PRES_VIS", "trial_index": 239}, "uniqueid": "MTK1439:378XPAWRUDKBOC0A5QL3R5WEZSHIA0", "dateTime": 1515883373395}, {"current_trial": 240, "trialdata": {"rt": -1, "trial_type": "single-stim", "word": "radish", "stimulus": "<p id=\"stim\">RADISH</p>", "conditions": [24, 1600, "v", 24000], "internal_node_id": "0.0-177.0", "trial": 6, "time_elapsed": 1741646, "serialpos": 15, "key_press": -1, "wordID": 1157, "type": "PRES_VIS", "trial_index": 240}, "uniqueid": "MTK1439:378XPAWRUDKBOC0A5QL3R5WEZSHIA0", "dateTime": 1515883376262}, {"current_trial": 241, "trialdata": {"rt": -1, "trial_type": "single-stim", "word": "oyster", "stimulus": "<p id=\"stim\">OYSTER</p>", "conditions": [24, 1600, "v", 24000], "internal_node_id": "0.0-178.0", "trial": 6, "time_elapsed": 1744369, "serialpos": 16, "key_press": -1, "wordID": 994, "type": "PRES_VIS", "trial_index": 241}, "uniqueid": "MTK1439:378XPAWRUDKBOC0A5QL3R5WEZSHIA0", "dateTime": 1515883378985}, {"current_trial": 242, "trialdata": {"rt": -1, "trial_type": "single-stim", "word": "snail", "stimulus": "<p id=\"stim\">SNAIL</p>", "conditions": [24, 1600, "v", 24000], "internal_node_id": "0.0-179.0", "trial": 6, "time_elapsed": 1747213, "serialpos": 17, "key_press": -1, "wordID": 1331, "type": "PRES_VIS", "trial_index": 242}, "uniqueid": "MTK1439:378XPAWRUDKBOC0A5QL3R5WEZSHIA0", "dateTime": 1515883381828}, {"current_trial": 243, "trialdata": {"rt": -1, "trial_type": "single-stim", "word": "teacher", "stimulus": "<p id=\"stim\">TEACHER</p>", "conditions": [24, 1600, "v", 24000], "internal_node_id": "0.0-180.0", "trial": 6, "time_elapsed": 1749917, "serialpos": 18, "key_press": -1, "wordID": 1439, "type": "PRES_VIS", "trial_index": 243}, "uniqueid": "MTK1439:378XPAWRUDKBOC0A5QL3R5WEZSHIA0", "dateTime": 1515883384533}, {"current_trial": 244, "trialdata": {"rt": -1, "trial_type": "single-stim", "word": "egypt", "stimulus": "<p id=\"stim\">EGYPT</p>", "conditions": [24, 1600, "v", 24000], "internal_node_id": "0.0-181.0", "trial": 6, "time_elapsed": 1752748, "serialpos": 19, "key_press": -1, "wordID": 518, "type": "PRES_VIS", "trial_index": 244