{"condition": 0, "counterbalance": 2015, "assignmentId": "3YGXWBAF71O59KYT4FFQ3ZCJS6G4C8", "workerId": "MTK1267", "hitId": "3CIS7GGG65QH0WESPA71H7EWXEWEUP", "currenttrial": 626, "bonus": 0, "data": [{"uniqueid": "MTK1267:3YGXWBAF71O59KYT4FFQ3ZCJS6G4C8", "current_trial": 0, "dateTime": 1513482643425, "trialdata": {"rt": 7704, "key_press": 32, "type": "INSTRUCTIONS", "trial_type": "text", "trial_index": 0, "time_elapsed": 7712, "internal_node_id": "0.0-0.0"}}, {"uniqueid": "MTK1267:3YGXWBAF71O59KYT4FFQ3ZCJS6G4C8", "current_trial": 1, "dateTime": 1513482657263, "trialdata": {"rt": 13834, "key_press": 32, "type": "INSTRUCTIONS", "trial_type": "text", "trial_index": 1, "time_elapsed": 21551, "internal_node_id": "0.0-1.0"}}, {"uniqueid": "MTK1267:3YGXWBAF71O59KYT4FFQ3ZCJS6G4C8", "current_trial": 2, "dateTime": 1513482671046, "trialdata": {"rt": [13761], "responses": ["ocean"], "type": "AUDIO_TEST", "trial_type": "audio-test", "trial_index": 2, "time_elapsed": 35335, "internal_node_id": "0.0-2.0"}}, {"uniqueid": "MTK1267:3YGXWBAF71O59KYT4FFQ3ZCJS6G4C8", "current_trial": 3, "dateTime": 1513482678800, "trialdata": {"rt": [7737], "responses": ["crystal"], "type": "AUDIO_TEST", "trial_type": "audio-test", "trial_index": 3, "time_elapsed": 43089, "internal_node_id": "0.0-3.0"}}, {"uniqueid": "MTK1267:3YGXWBAF71O59KYT4FFQ3ZCJS6G4C8", "current_trial": 4, "dateTime": 1513482684014, "trialdata": {"rt": [5201], "responses": ["spice"], "type": "AUDIO_TEST", "trial_type": "audio-test", "trial_index": 4, "time_elapsed": 48303, "internal_node_id": "0.0-4.0"}}, {"uniqueid": "MTK1267:3YGXWBAF71O59KYT4FFQ3ZCJS6G4C8", "current_trial": 5, "dateTime": 1513482725749, "trialdata": {"rt": 40976, "responses": "{\"Q0\":\"12 pm\",\"Q1\":\"6 pm\",\"Q2\":\"4\"}", "type": "SLEEP_SURVEY", "trial_type": "survey-text", "trial_index": 5, "time_elapsed": 90038, "internal_node_id": "0.0-5.0"}}, {"uniqueid": "MTK1267:3YGXWBAF71O59KYT4FFQ3ZCJS6G4C8", "current_trial": 6, "dateTime": 1513482749439, "trialdata": {"rt": 22688, "key_press": 32, "type": "INSTRUCTIONS", "trial_type": "text", "trial_index": 6, "time_elapsed": 113728, "internal_node_id": "0.0-6.0"}}, {"uniqueid": "MTK1267:3YGXWBAF71O59KYT4FFQ3ZCJS6G4C8", "current_trial": 7, "dateTime": 1513482761336, "trialdata": {"rt": 11395, "key_press": 32, "type": "INSTRUCTIONS", "trial_type": "text", "trial_index": 7, "time_elapsed": 125625, "internal_node_id": "0.0-7.0"}}, {"uniqueid": "MTK1267:3YGXWBAF71O59KYT4FFQ3ZCJS6G4C8", "current_trial": 8, "dateTime": 1513482771629, "trialdata": {"rt": 9790, "key_press": 32, "type": "INSTRUCTIONS", "trial_type": "text", "trial_index": 8, "time_elapsed": 135917, "internal_node_id": "0.0-8.0"}}, {"uniqueid": "MTK1267:3YGXWBAF71O59KYT4FFQ3ZCJS6G4C8", "current_trial": 9, "dateTime": 1513482790637, "trialdata": {"rt": [8159, 12692, 17946], "responses": ["15", "18", "20"], "num1": [2, 7, 4, 8], "num2": [8, 6, 9, 9], "num3": [5, 5, 7, 7], "type": "DISTRACTOR", "conditions": [18, 1200, "v", 18000], "trial": 0, "trial_type": "math-distractor", "trial_index": 9, "time_elapsed": 154926, "internal_node_id": "0.0-9.0"}}, {"uniqueid": "MTK1267:3YGXWBAF71O59KYT4FFQ3ZCJS6G4C8", "current_trial": 10, "dateTime": 1513482793642, "trialdata": {"rt": -1, "stimulus": "<p id=\"stim\">10</p>", "key_press": -1, "trial_type": "single-stim", "trial_index": 10, "time_elapsed": 157931, "internal_node_id": "0.0-10.0-0.0"}}, {"uniqueid": "MTK1267:3YGXWBAF71O59KYT4FFQ3ZCJS6G4C8", "current_trial": 11, "dateTime": 1513482794645, "trialdata": {"rt": -1, "stimulus": "<p id=\"stim\">9</p>", "key_press": -1, "trial_type": "single-stim", "trial_index": 11, "time_elapsed": 158934, "internal_node_id": "0.0-10.0-1.0"}}, {"uniqueid": "MTK1267:3YGXWBAF71O59KYT4FFQ3ZCJS6G4C8", "current_trial": 12, "dateTime": 1513482795648, "trialdata": {"rt": -1, "stimulus": "<p id=\"stim\">8</p>", "key_press": -1, "trial_type": "single-stim", "trial_index": 12, "time_elapsed": 159937, "internal_node_id": "0.0-10.0-2.0"}}, {"uniqueid": "MTK1267:3YGXWBAF71O59KYT4FFQ3ZCJS6G4C8", "current_trial": 13, "dateTime": 1513482796650, "trialdata": {"rt": -1, "stimulus": "<p id=\"stim\">7</p>", "key_press": -1, "trial_type": "single-stim", "trial_index": 13, "time_elapsed": 160939, "internal_node_id": "0.0-10.0-3.0"}}, {"uniqueid": "MTK1267:3YGXWBAF71O59KYT4FFQ3ZCJS6G4C8", "current_trial": 14, "dateTime": 1513482797652, "trialdata": {"rt": -1, "stimulus": "<p id=\"stim\">6</p>", "key_press": -1, "trial_type": "single-stim", "trial_index": 14, "time_elapsed": 161941, "internal_node_id": "0.0-10.0-4.0"}}, {"uniqueid": "MTK1267:3YGXWBAF71O59KYT4FFQ3ZCJS6G4C8", "current_trial": 15, "dateTime": 1513482798655, "trialdata": {"rt": -1, "stimulus": "<p id=\"stim\">5</p>", "key_press": -1, "trial_type": "single-stim", "trial_index": 15, "time_elapsed": 162944, "internal_node_id": "0.0-10.0-5.0"}}, {"uniqueid": "MTK1267:3YGXWBAF71O59KYT4FFQ3ZCJS6G4C8", "current_trial": 16, "dateTime": 1513482799657, "trialdata": {"rt": -1, "stimulus": "<p id=\"stim\">4</p>", "key_press": -1, "trial_type": "single-stim", "trial_index": 16, "time_elapsed": 163946, "internal_node_id": "0.0-10.0-6.0"}}, {"uniqueid": "MTK1267:3YGXWBAF71O59KYT4FFQ3ZCJS6G4C8", "current_trial": 17, "dateTime": 1513482800661, "trialdata": {"rt": -1, "stimulus": "<p id=\"stim\">3</p>", "key_press": -1, "trial_type": "single-stim", "trial_index": 17, "time_elapsed": 164950, "internal_node_id": "0.0-10.0-7.0"}}, {"uniqueid": "MTK1267:3YGXWBAF71O59KYT4FFQ3ZCJS6G4C8", "current_trial": 18, "dateTime": 1513482801663, "trialdata": {"rt": -1, "stimulus": "<p id=\"stim\">2</p>", "key_press": -1, "trial_type": "single-stim", "trial_index": 18, "time_elapsed": 165952, "internal_node_id": "0.0-10.0-8.0"}}, {"uniqueid": "MTK1267:3YGXWBAF71O59KYT4FFQ3ZCJS6G4C8", "current_trial": 19, "dateTime": 1513482802665, "trialdata": {"rt": -1, "stimulus": "<p id=\"stim\">1</p>", "key_press": -1, "trial_type": "single-stim", "trial_index": 19, "time_elapsed": 166954, "internal_node_id": "0.0-10.0-9.0"}}, {"uniqueid": "MTK1267:3YGXWBAF71O59KYT4FFQ3ZCJS6G4C8", "current_trial": 20, "dateTime": 1513482804167, "trialdata": {"rt": -1, "stimulus": "<p id=\"stim\">+</p>", "key_press": -1, "type": "FIXATION", "trial_type": "single-stim", "trial_index": 20, "time_elapsed": 168456, "internal_node_id": "0.0-11.0-0.0"}}, {"uniqueid": "MTK1267:3YGXWBAF71O59KYT4FFQ3ZCJS6G4C8", "current_trial": 21, "dateTime": 1513482805369, "trialdata": {"rt": -1, "stimulus": "<p id=\"stim\">CHILD</p>", "key_press": -1, "type": "PRES_VIS", "word": "child", "wordID": 298, "conditions": [18, 1200, "v", 18000], "trial": 0, "serialpos": 0, "trial_type": "single-stim", "trial_index": 21, "time_elapsed": 169658, "internal_node_id": "0.0-12.0"}}, {"uniqueid": "MTK1267:3YGXWBAF71O59KYT4FFQ3ZCJS6G4C8", "current_trial": 22, "dateTime": 1513482807595, "trialdata": {"rt": -1, "stimulus": "<p id=\"stim\">TUBA</p>", "key_press": -1, "type": "PRES_VIS", "word": "tuba", "wordID": 1514, "conditions": [18, 1200, "v", 18000], "trial": 0, "serialpos": 1, "trial_type": "single-stim", "trial_index": 22, "time_elapsed": 171884, "internal_node_id": "0.0-13.0"}}, {"uniqueid": "MTK1267:3YGXWBAF71O59KYT4FFQ3ZCJS6G4C8", "current_trial": 23, "dateTime": 1513482809832, "trialdata": {"rt": -1, "stimulus": "<p id=\"stim\">PROTON</p>", "key_press": -1, "type": "PRES_VIS", "word": "proton", "wordID": 1131, "conditions": [18, 1200, "v", 18000], "trial": 0, "serialpos": 2, "trial_type": "single-stim", "trial_index": 23, "time_elapsed": 174121, "internal_node_id": "0.0-14.0"}}, {"uniqueid": "MTK1267:3YGXWBAF71O59KYT4FFQ3ZCJS6G4C8", "current_trial": 24, "dateTime": 1513482811852, "trialdata": {"rt": -1, "stimulus": "<p id=\"stim\">OX</p>", "key_press": -1, "type": "PRES_VIS", "word": "ox", "wordID": 993, "conditions": [18, 1200, "v", 18000], "trial": 0, "serialpos": 3, "trial_type": "single-stim", "trial_index": 24, "time_elapsed": 176141, "internal_node_id": "0.0-15.0"}}, {"uniqueid": "MTK1267:3YGXWBAF71O59KYT4FFQ3ZCJS6G4C8", "current_trial": 25, "dateTime": 1513482814103, "trialdata": {"rt": -1, "stimulus": "<p id=\"stim\">BREAST</p>", "key_press": -1, "type": "PRES_VIS", "word": "breast", "wordID": 170, "conditions": [18, 1200, "v", 18000], "trial": 0, "serialpos": 4, "trial_type": "single-stim", "trial_index": 25, "time_elapsed": 178392, "internal_node_id": "0.0-16.0"}}, {"uniqueid": "MTK1267:3YGXWBAF71O59KYT4FFQ3ZCJS6G4C8", "current_trial": 26, "dateTime": 1513482816207, "trialdata": {"rt": -1, "stimulus": "<p id=\"stim\">MARSH</p>", "key_press": -1, "type": "PRES_VIS", "word": "marsh", "wordID": 873, "conditions": [18, 1200, "v", 18000], "trial": 0, "serialpos": 5, "trial_type": "single-stim", "trial_index": 26, "time_elapsed": 180495, "internal_node_id": "0.0-17.0"}}, {"uniqueid": "MTK1267:3YGXWBAF71O59KYT4FFQ3ZCJS6G4C8", "current_trial": 27, "dateTime": 1513482818570, "trialdata": {"rt": -1, "stimulus": "<p id=\"stim\">COUCH</p>", "key_press": -1, "type": "PRES_VIS", "word": "couch", "wordID": 385, "conditions": [18, 1200, "v", 18000], "trial": 0, "serialpos": 6, "trial_type": "single-stim", "trial_index": 27, "time_elapsed": 182859, "internal_node_id": "0.0-18.0"}}, {"uniqueid": "MTK1267:3YGXWBAF71O59KYT4FFQ3ZCJS6G4C8", "current_trial": 28, "dateTime": 1513482820700, "trialdata": {"rt": -1, "stimulus": "<p id=\"stim\">CABBAGE</p>", "key_press": -1, "type": "PRES_VIS", "word": "cabbage", "wordID": 209, "conditions": [18, 1200, "v", 18000], "trial": 0, "serialpos": 7, "trial_type": "single-stim", "trial_index": 28, "time_elapsed": 184989, "internal_node_id": "0.0-19.0"}}, {"uniqueid": "MTK1267:3YGXWBAF71O59KYT4FFQ3ZCJS6G4C8", "current_trial": 29, "dateTime": 1513482822857, "trialdata": {"rt": -1, "stimulus": "<p id=\"stim\">SEAGULL</p>", "key_press": -1, "type": "PRES_VIS", "word": "seagull", "wordID": 1260, "conditions": [18, 1200, "v", 18000], "trial": 0, "serialpos": 8, "trial_type": "single-stim", "trial_index": 29, "time_elapsed": 187146, "internal_node_id": "0.0-20.0"}}, {"uniqueid": "MTK1267:3YGXWBAF71O59KYT4FFQ3ZCJS6G4C8", "current_trial": 30, "dateTime": 1513482824908, "trialdata": {"rt": -1, "stimulus": "<p id=\"stim\">SALAD</p>", "key_press": -1, "type": "PRES_VIS", "word": "salad", "wordID": 1223, "conditions": [18, 1200, "v", 18000], "trial": 0, "serialpos": 9, "trial_type": "single-stim", "trial_index": 30, "time_elapsed": 189197, "internal_node_id": "0.0-21.0"}}, {"uniqueid": "MTK1267:3YGXWBAF71O59KYT4FFQ3ZCJS6G4C8", "current_trial": 31, "dateTime": 1513482826994, "trialdata": {"rt": -1, "stimulus": "<p id=\"stim\">TUNNEL</p>", "key_press": -1, "type": "PRES_VIS", "word": "tunnel", "wordID": 1518, "conditions": [18, 1200, "v", 18000], "trial": 0, "serialpos": 10, "trial_type": "single-stim", "trial_index": 31, "time_elapsed": 191283, "internal_node_id": "0.0-22.0"}}, {"uniqueid": "MTK1267:3YGXWBAF71O59KYT4FFQ3ZCJS6G4C8", "current_trial": 32, "dateTime": 1513482829383, "trialdata": {"rt": -1, "stimulus": "<p id=\"stim\">GHETTO</p>", "key_press": -1, "type": "PRES_VIS", "word": "ghetto", "wordID": 632, "conditions": [18, 1200, "v", 18000], "trial": 0, "serialpos": 11, "trial_type": "single-stim", "trial_index": 32, "time_elapsed": 193672, "internal_node_id": "0.0-23.0"}}, {"uniqueid": "MTK1267:3YGXWBAF71O59KYT4FFQ3ZCJS6G4C8", "current_trial": 33, "dateTime": 1513482831498, "trialdata": {"rt": -1, "stimulus": "<p id=\"stim\">SUNRISE</p>", "key_press": -1, "type": "PRES_VIS", "word": "sunrise", "wordID": 1406, "conditions": [18, 1200, "v", 18000], "trial": 0, "serialpos": 12, "trial_type": "single-stim", "trial_index": 33, "time_elapsed": 195787, "internal_node_id": "0.0-24.0"}}, {"uniqueid": "MTK1267:3YGXWBAF71O59KYT4FFQ3ZCJS6G4C8", "current_trial": 34, "dateTime": 1513482833740, "trialdata": {"rt": -1, "stimulus": "<p id=\"stim\">DASHBOARD</p>", "key_press": -1, "type": "PRES_VIS", "word": "dashboard", "wordID": 440, "conditions": [18, 1200, "v", 18000], "trial": 0, "serialpos": 13, "trial_type": "single-stim", "trial_index": 34, "time_elapsed": 198028, "internal_node_id": "0.0-25.0"}}, {"uniqueid": "MTK1267:3YGXWBAF71O59KYT4FFQ3ZCJS6G4C8", "current_trial": 35, "dateTime": 1513482836081, "trialdata": {"rt": -1, "stimulus": "<p id=\"stim\">TORTOISE</p>", "key_press": -1, "type": "PRES_VIS", "word": "tortoise", "wordID": 1485, "conditions": [18, 1200, "v", 18000], "trial": 0, "serialpos": 14, "trial_type": "single-stim", "trial_index": 35, "time_elapsed": 200370, "internal_node_id": "0.0-26.0"}}, {"uniqueid": "MTK1267:3YGXWBAF71O59KYT4FFQ3ZCJS6G4C8", "current_trial": 36, "dateTime": 1513482838135, "trialdata": {"rt": -1, "stimulus": "<p id=\"stim\">SEAL</p>", "key_press": -1, "type": "PRES_VIS", "word": "seal", "wordID": 1261, "conditions": [18, 1200, "v", 18000], "trial": 0, "serialpos": 15, "trial_type": "single-stim", "trial_index": 36, "time_elapsed": 202424, "internal_node_id": "0.0-27.0"}}, {"uniqueid": "MTK1267:3YGXWBAF71O59KYT4FFQ3ZCJS6G4C8", "current_trial": 37, "dateTime": 1513482840509, "trialdata": {"rt": -1, "stimulus": "<p id=\"stim\">POISON</p>", "key_press": -1, "type": "PRES_VIS", "word": "poison", "wordID": 1095, "conditions": [18, 1200, "v", 18000], "trial": 0, "serialpos": 16, "trial_type": "single-stim", "trial_index": 37, "time_elapsed": 204797, "internal_node_id": "0.0-28.0"}}, {"uniqueid": "MTK1267:3YGXWBAF71O59KYT4FFQ3ZCJS6G4C8", "current_trial": 38, "dateTime": 1513482842856, "trialdata": {"rt": -1, "stimulus": "<p id=\"stim\">PEACH</p>", "key_press": -1, "type": "PRES_VIS", "word": "peach", "wordID": 1030, "conditions": [18, 1200, "v", 18000], "trial": 0, "serialpos": 17, "trial_type": "single-stim", "trial_index": 38, "time_elapsed": 207144, "internal_node_id": "0.0-29.0"}}, {"uniqueid": "MTK1267:3YGXWBAF71O59KYT4FFQ3ZCJS6G4C8", "current_trial": 39, "dateTime": 1513482845002, "trialdata": {"rt": -1, "stimulus": "", "key_press": -1, "type": "PRE_RECALL_DELAY", "trial_type": "single-stim", "trial_index": 39, "time_elapsed": 209291, "internal_node_id": "0.0-30.0-0.0"}}, {"uniqueid": "MTK1267:3YGXWBAF71O59KYT4FFQ3ZCJS6G4C8", "current_trial": 40, "dateTime": 1513482845516, "trialdata": {"rt": -1000, "stimulus": "/static/audio/400Hz.wav", "key_press": -1, "type": "PRE_RECALL_ALERT", "trial_type": "single-audio", "trial_index": 40, "time_elapsed": 209805, "internal_node_id": "0.0-31.0"}}, {"uniqueid": "MTK1267:3YGXWBAF71O59KYT4FFQ3ZCJS6G4C8", "current_trial": 41, "dateTime": 1513482905527, "trialdata": {"rt": [2559, 3973, 5667, 7984, 10470, 13319, 51968], "recwords": ["child", "tuba", "cabbage", "tortoise", "dashboard", "tunnel", ""], "type": "FREE_RECALL", "conditions": [18, 1200, "v", 18000], "trial": 0, "trial_type": "free-recall", "trial_index": 41, "time_elapsed": 269811, "internal_node_id": "0.0-32.0-0.0"}}, {"uniqueid": "MTK1267:3YGXWBAF71O59KYT4FFQ3ZCJS6G4C8", "current_trial": 42, "dateTime": 1513482908779, "trialdata": {"rt": 1249, "key_press": 32, "type": "INSTRUCTIONS", "trial_type": "text", "trial_index": 42, "time_elapsed": 273067, "internal_node_id": "0.0-33.0"}}, {"uniqueid": "MTK1267:3YGXWBAF71O59KYT4FFQ3ZCJS6G4C8", "current_trial": 43, "dateTime": 1513482928785, "trialdata": {"rt": [4783, 15241], "responses": ["14", "20"], "num1": [5, 4, 6], "num2": [7, 8, 8], "num3": [2, 8, 9], "type": "DISTRACTOR", "conditions": [18, 1200, "a", 18000], "trial": 1, "trial_type": "math-distractor", "trial_index": 43, "time_elapsed": 293074, "internal_node_id": "0.0-34.0"}}, {"uniqueid": "MTK1267:3YGXWBAF71O59KYT4FFQ3ZCJS6G4C8", "current_trial": 44, "dateTime": 1513482931788, "trialdata": {"rt": -1, "stimulus": "<p id=\"stim\">10</p>", "key_press": -1, "trial_type": "single-stim", "trial_index": 44, "time_elapsed": 296077, "internal_node_id": "0.0-35.0-0.0"}}, {"uniqueid": "MTK1267:3YGXWBAF71O59KYT4FFQ3ZCJS6G4C8", "current_trial": 45, "dateTime": 1513482932790, "trialdata": {"rt": -1, "stimulus": "<p id=\"stim\">9</p>", "key_press": -1, "trial_type": "single-stim", "trial_index": 45, "time_elapsed": 297079, "internal_node_id": "0.0-35.0-1.0"}}, {"uniqueid": "MTK1267:3YGXWBAF71O59KYT4FFQ3ZCJS6G4C8", "current_trial": 46, "dateTime": 1513482933793, "trialdata": {"rt": -1, "stimulus": "<p id=\"stim\">8</p>", "key_press": -1, "trial_type": "single-stim", "trial_index": 46, "time_elapsed": 298082, "internal_node_id": "0.0-35.0-2.0"}}, {"uniqueid": "MTK1267:3YGXWBAF71O59KYT4FFQ3ZCJS6G4C8", "current_trial": 47, "dateTime": 1513482934796, "trialdata": {"rt": -1, "stimulus": "<p id=\"stim\">7</p>", "key_press": -1, "trial_type": "single-stim", "trial_index": 47, "time_elapsed": 299084, "internal_node_id": "0.0-35.0-3.0"}}, {"uniqueid": "MTK1267:3YGXWBAF71O59KYT4FFQ3ZCJS6G4C8", "current_trial": 48, "dateTime": 1513482935797, "trialdata": {"rt": -1, "stimulus": "<p id=\"stim\">6</p>", "key_press": -1, "trial_type": "single-stim", "trial_index": 48, "time_elapsed": 300086, "internal_node_id": "0.0-35.0-4.0"}}, {"uniqueid": "MTK1267:3YGXWBAF71O59KYT4FFQ3ZCJS6G4C8", "current_trial": 49, "dateTime": 1513482936800, "trialdata": {"rt": -1, "stimulus": "<p id=\"stim\">5</p>", "key_press": -1, "trial_type": "single-stim", "trial_index": 49, "time_elapsed": 301088, "internal_node_id": "0.0-35.0-5.0"}}, {"uniqueid": "MTK1267:3YGXWBAF71O59KYT4FFQ3ZCJS6G4C8", "current_trial": 50, "dateTime": 1513482937802, "trialdata": {"rt": -1, "stimulus": "<p id=\"stim\">4</p>", "key_press": -1, "trial_type": "single-stim", "trial_index": 50, "time_elapsed": 302091, "internal_node_id": "0.0-35.0-6.0"}}, {"uniqueid": "MTK1267:3YGXWBAF71O59KYT4FFQ3ZCJS6G4C8", "current_trial": 51, "dateTime": 1513482938804, "trialdata": {"rt": -1, "stimulus": "<p id=\"stim\">3</p>", "key_press": -1, "trial_type": "single-stim", "trial_index": 51, "time_elapsed": 303092, "internal_node_id": "0.0-35.0-7.0"}}, {"uniqueid": "MTK1267:3YGXWBAF71O59KYT4FFQ3ZCJS6G4C8", "current_trial": 52, "dateTime": 1513482939805, "trialdata": {"rt": -1, "stimulus": "<p id=\"stim\">2</p>", "key_press": -1, "trial_type": "single-stim", "trial_index": 52, "time_elapsed": 304094, "internal_node_id": "0.0-35.0-8.0"}}, {"uniqueid": "MTK1267:3YGXWBAF71O59KYT4FFQ3ZCJS6G4C8", "current_trial": 53, "dateTime": 1513482940808, "trialdata": {"rt": -1, "stimulus": "<p id=\"stim\">1</p>", "key_press": -1, "trial_type": "single-stim", "trial_index": 53, "time_elapsed": 305097, "internal_node_id": "0.0-35.0-9.0"}}, {"uniqueid": "MTK1267:3YGXWBAF71O59KYT4FFQ3ZCJS6G4C8", "current_trial": 54, "dateTime": 1513482942311, "trialdata": {"rt": -1, "stimulus": "<p id=\"stim\">+</p>", "key_press": -1, "type": "FIXATION", "trial_type": "single-stim", "trial_index": 54, "time_elapsed": 306600, "internal_node_id": "0.0-36.0-0.0"}}, {"uniqueid": "MTK1267:3YGXWBAF71O59KYT4FFQ3ZCJS6G4C8", "current_trial": 55, "dateTime": 1513482944469, "trialdata": {"rt": -1000, "stimulus": "/static/audio/wordpool/LODGE.wav", "key_press": -1, "type": "PRES_AUD", "word": "lodge", "wordID": 838, "conditions": [18, 1200, "a", 18000], "trial": 1, "serialpos": 0, "trial_type": "single-audio", "trial_index": 55, "time_elapsed": 308758, "internal_node_id": "0.0-37.0"}}, {"uniqueid": "MTK1267:3YGXWBAF71O59KYT4FFQ3ZCJS6G4C8", "current_trial": 56, "dateTime": 1513482946825, "trialdata": {"rt": -1000, "stimulus": "/static/audio/wordpool/RADISH.wav", "key_press": -1, "type": "PRES_AUD", "word": "radish", "wordID": 1157, "conditions": [18, 1200, "a", 18000], "trial": 1, "serialpos": 1, "trial_type": "single-audio", "trial_index": 56, "time_elapsed": 311114, "internal_node_id": "0.0-38.0"}}, {"uniqueid": "MTK1267:3YGXWBAF71O59KYT4FFQ3ZCJS6G4C8", "current_trial": 57, "dateTime": 1513482949054, "trialdata": {"rt": -1000, "stimulus": "/static/audio/wordpool/OZONE.wav", "key_press": -1, "type": "PRES_AUD", "word": "ozone", "wordID": 995, "conditions": [18, 1200, "a", 18000], "trial": 1, "serialpos": 2, "trial_type": "single-audio", "trial_index": 57, "time_elapsed": 313343, "internal_node_id": "0.0-39.0"}}, {"uniqueid": "MTK1267:3YGXWBAF71O59KYT4FFQ3ZCJS6G4C8", "current_trial": 58, "dateTime": 1513482951435, "trialdata": {"rt": -1000, "stimulus": "/static/audio/wordpool/HOOK.wav", "key_press": -1, "type": "PRES_AUD", "word": "hook", "wordID": 714, "conditions": [18, 1200, "a", 18000], "trial": 1, "serialpos": 3, "trial_type": "single-audio", "trial_index": 58, "time_elapsed": 315724, "internal_node_id": "0.0-40.0"}}, {"uniqueid": "MTK1267:3YGXWBAF71O59KYT4FFQ3ZCJS6G4C8", "current_trial": 59, "dateTime": 1513482953724, "trialdata": {"rt": -1000, "stimulus": "/static/audio/wordpool/HOUND.wav", "key_press": -1, "type": "PRES_AUD", "word": "hound", "wordID": 723, "conditions": [18, 1200, "a", 18000], "trial": 1, "serialpos": 4, "trial_type": "single-audio", "trial_index": 59, "time_elapsed": 318013, "internal_node_id": "0.0-41.0"}}, {"uniqueid": "MTK1267:3YGXWBAF71O59KYT4FFQ3ZCJS6G4C8", "current_trial": 60, "dateTime": 1513482956022, "trialdata": {"rt": -1000, "stimulus": "/static/audio/wordpool/STICKER.wav", "key_press": -1, "type": "PRES_AUD", "word": "sticker", "wordID": 1381, "conditions": [18, 1200, "a", 18000], "trial": 1, "serialpos": 5, "trial_type": "single-audio", "trial_index": 60, "time_elapsed": 320310, "internal_node_id": "0.0-42.0"}}, {"uniqueid": "MTK1267:3YGXWBAF71O59KYT4FFQ3ZCJS6G4C8", "current_trial": 61, "dateTime": 1513482958371, "trialdata": {"rt": -1000, "stimulus": "/static/audio/wordpool/TRANSPLANT.wav", "key_press": -1, "type": "PRES_AUD", "word": "transplant", "wordID": 1495, "conditions": [18, 1200, "a", 18000], "trial": 1, "serialpos": 6, "trial_type": "single-audio", "trial_index": 61, "time_elapsed": 322660, "internal_node_id": "0.0-43.0"}}, {"uniqueid": "MTK1267:3YGXWBAF71O59KYT4FFQ3ZCJS6G4C8", "current_trial": 62, "dateTime": 1513482960392, "trialdata": {"rt": -1000, "stimulus": "/static/audio/wordpool/STREAM.wav", "key_press": -1, "type": "PRES_AUD", "word": "stream", "wordID": 1391, "conditions": [18, 1200, "a", 18000], "trial": 1, "serialpos": 7, "trial_type": "single-audio", "trial_index": 62, "time_elapsed": 324681, "internal_node_id": "0.0-44.0"}}, {"uniqueid": "MTK1267:3YGXWBAF71O59KYT4FFQ3ZCJS6G4C8", "current_trial": 63, "dateTime": 1513482962678, "trialdata": {"rt": -1000, "stimulus": "/static/audio/wordpool/TRUCK.wav", "key_press": -1, "type": "PRES_AUD", "word": "truck", "wordID": 1511, "conditions": [18, 1200, "a", 18000], "trial": 1, "serialpos": 8, "trial_type": "single-audio", "trial_index": 63, "time_elapsed": 326967, "internal_node_id": "0.0-45.0"}}, {"uniqueid": "MTK1267:3YGXWBAF71O59KYT4FFQ3ZCJS6G4C8", "current_trial": 64, "dateTime": 1513482965062, "trialdata": {"rt": -1000, "stimulus": "/static/audio/wordpool/PAPER.wav", "key_press": -1, "type": "PRES_AUD", "word": "paper", "wordID": 1010, "conditions": [18, 1200, "a", 18000], "trial": 1, "serialpos": 9, "trial_type": "single-audio", "trial_index": 64, "time_elapsed": 329351, "internal_node_id": "0.0-46.0"}}, {"uniqueid": "MTK1267:3YGXWBAF71O59KYT4FFQ3ZCJS6G4C8", "current_trial": 65, "dateTime": 1513482967125, "trialdata": {"rt": -1000, "stimulus": "/static/audio/wordpool/COTTAGE.wav", "key_press": -1, "type": "PRES_AUD", "word": "cottage", "wordID": 383, "conditions": [18, 1200, "a", 18000], "trial": 1, "serialpos": 10, "trial_type": "single-audio", "trial_index": 65, "time_elapsed": 331414, "internal_node_id": "0.0-47.0"}}, {"uniqueid": "MTK1267:3YGXWBAF71O59KYT4FFQ3ZCJS6G4C8", "current_trial": 66, "dateTime": 1513482969296, "trialdata": {"rt": -1000, "stimulus": "/static/audio/wordpool/SEAFOOD.wav", "key_press": -1, "type": "PRES_AUD", "word": "seafood", "wordID": 1259, "conditions": [18, 1200, "a", 18000], "trial": 1, "serialpos": 11, "trial_type": "single-audio", "trial_index": 66, "time_elapsed": 333585, "internal_node_id": "0.0-48.0"}}, {"uniqueid": "MTK1267:3YGXWBAF71O59KYT4FFQ3ZCJS6G4C8", "current_trial": 67, "dateTime": 1513482971311, "trialdata": {"rt": -1000, "stimulus": "/static/audio/wordpool/ARMY.wav", "key_press": -1, "type": "PRES_AUD", "word": "army", "wordID": 38, "conditions": [18, 1200, "a", 18000], "trial": 1, "serialpos": 12, "trial_type": "single-audio", "trial_index": 67, "time_elapsed": 335599, "internal_node_id": "0.0-49.0"}}, {"uniqueid": "MTK1267:3YGXWBAF71O59KYT4FFQ3ZCJS6G4C8", "current_trial": 68, "dateTime": 1513482973585, "trialdata": {"rt": -1000, "stimulus": "/static/audio/wordpool/BELLY.wav", "key_press": -1, "type": "PRES_AUD", "word": "belly", "wordID": 118, "conditions": [18, 1200, "a", 18000], "trial": 1, "serialpos": 13, "trial_type": "single-audio", "trial_index": 68, "time_elapsed": 337869, "internal_node_id": "0.0-50.0"}}, {"uniqueid": "MTK1267:3YGXWBAF71O59KYT4FFQ3ZCJS6G4C8", "current_trial": 69, "dateTime": 1513482975854, "trialdata": {"rt": -1000, "stimulus": "/static/audio/wordpool/WIDOW.wav", "key_press": -1, "type": "PRES_AUD", "word": "widow", "wordID": 1607, "conditions": [18, 1200, "a", 18000], "trial": 1, "serialpos": 14, "trial_type": "single-audio", "trial_index": 69, "time_elapsed": 340142, "internal_node_id": "0.0-51.0"}}, {"uniqueid": "MTK1267:3YGXWBAF71O59KYT4FFQ3ZCJS6G4C8", "current_trial": 70, "dateTime": 1513482977858, "trialdata": {"rt": -1000, "stimulus": "/static/audio/wordpool/ICEBERG.wav", "key_press": -1, "type": "PRES_AUD", "word": "iceberg", "wordID": 730, "conditions": [18, 1200, "a", 18000], "trial": 1, "serialpos": 15, "trial_type": "single-audio", "trial_index": 70, "time_elapsed": 342144, "internal_node_id": "0.0-52.0"}}, {"uniqueid": "MTK1267:3YGXWBAF71O59KYT4FFQ3ZCJS6G4C8", "current_trial": 71, "dateTime": 1513482979941, "trialdata": {"rt": -1000, "stimulus": "/static/audio/wordpool/WHISTLE.wav", "key_press": -1, "type": "PRES_AUD", "word": "whistle", "wordID": 1605, "conditions": [18, 1200, "a", 18000], "trial": 1, "serialpos": 16, "trial_type": "single-audio", "trial_index": 71, "time_elapsed": 344229, "internal_node_id": "0.0-53.0"}}, {"uniqueid": "MTK1267:3YGXWBAF71O59KYT4FFQ3ZCJS6G4C8", "current_trial": 72, "dateTime": 1513482982141, "trialdata": {"rt": -1000, "stimulus": "/static/audio/wordpool/JUNGLE.wav", "key_press": -1, "type": "PRES_AUD", "word": "jungle", "wordID": 763, "conditions": [18, 1200, "a", 18000], "trial": 1, "serialpos": 17, "trial_type": "single-audio", "trial_index": 72, "time_elapsed": 346430, "internal_node_id": "0.0-54.0"}}, {"uniqueid": "MTK1267:3YGXWBAF71O59KYT4FFQ3ZCJS6G4C8", "current_trial": 73, "dateTime": 1513482983493, "trialdata": {"rt": -1, "stimulus": "", "key_press": -1, "type": "PRE_RECALL_DELAY", "trial_type": "single-stim", "trial_index": 73, "time_elapsed": 347782, "internal_node_id": "0.0-55.0-0.0"}}, {"uniqueid": "MTK1267:3YGXWBAF71O59KYT4FFQ3ZCJS6G4C8", "current_trial": 74, "dateTime": 1513482983996, "trialdata": {"rt": -1000, "stimulus": "/static/audio/400Hz.wav", "key_press": -1, "type": "PRE_RECALL_ALERT", "trial_type": "single-audio", "trial_index": 74, "time_elapsed": 348285, "internal_node_id": "0.0-56.0"}}, {"uniqueid": "MTK1267:3YGXWBAF71O59KYT4FFQ3ZCJS6G4C8", "current_trial": 75, "dateTime": 1513483044011, "trialdata": {"rt": [3510, 5665, 7691, 10950, 12875, 17047], "recwords": ["jungle", "whistle", "iceberg", "belly", "truck", "radish"], "type": "FREE_RECALL", "conditions": [18, 1200, "a", 18000], "trial": 1, "trial_type": "free-recall", "trial_index": 75, "time_elapsed": 408292, "internal_node_id": "0.0-57.0-0.0"}}, {"uniqueid": "MTK1267:3YGXWBAF71O59KYT4FFQ3ZCJS6G4C8", "current_trial": 76, "dateTime": 1513483123428, "trialdata": {"rt": 77406, "key_press": 32, "type": "INSTRUCTIONS", "trial_type": "text", "trial_index": 76, "time_elapsed": 487708, "internal_node_id": "0.0-58.0"}}, {"uniqueid": "MTK1267:3YGXWBAF71O59KYT4FFQ3ZCJS6G4C8", "current_trial": 77, "dateTime": 1513483136435, "trialdata": {"rt": [11526], "responses": ["26"], "num1": [9, 1], "num2": [9, 5], "num3": [8, 7], "type": "DISTRACTOR", "conditions": [12, 800, "v", 12000], "trial": 2, "trial_type": "math-distractor", "trial_index": 77, "time_elapsed": 500724, "internal_node_id": "0.0-59.0"}}, {"uniqueid": "MTK1267:3YGXWBAF71O59KYT4FFQ3ZCJS6G4C8", "current_trial": 78, "dateTime": 1513483139439, "trialdata": {"rt": -1, "stimulus": "<p id=\"stim\">10</p>", "key_press": -1, "trial_type": "single-stim", "trial_index": 78, "time_elapsed": 503727, "internal_node_id": "0.0-60.0-0.0"}}, {"uniqueid": "MTK1267:3YGXWBAF71O59KYT4FFQ3ZCJS6G4C8", "current_trial": 79, "dateTime": 1513483140441, "trialdata": {"rt": -1, "stimulus": "<p id=\"stim\">9</p>", "key_press": -1, "trial_type": "single-stim", "trial_index": 79, "time_elapsed": 504729, "internal_node_id": "0.0-60.0-1.0"}}, {"uniqueid": "MTK1267:3YGXWBAF71O59KYT4FFQ3ZCJS6G4C8", "current_trial": 80, "dateTime": 1513483141443, "trialdata": {"rt": -1, "stimulus": "<p id=\"stim\">8</p>", "key_press": -1, "trial_type": "single-stim", "trial_index": 80, "time_elapsed": 505732, "internal_node_id": "0.0-60.0-2.0"}}, {"uniqueid": "MTK1267:3YGXWBAF71O59KYT4FFQ3ZCJS6G4C8", "current_trial": 81, "dateTime": 1513483142449, "trialdata": {"rt": -1, "stimulus": "<p id=\"stim\">7</p>", "key_press": -1, "trial_type": "single-stim", "trial_index": 81, "time_elapsed": 506734, "internal_node_id": "0.0-60.0-3.0"}}, {"uniqueid": "MTK1267:3YGXWBAF71O59KYT4FFQ3ZCJS6G4C8", "current_trial": 82, "dateTime": 1513483143452, "trialdata": {"rt": -1, "stimulus": "<p id=\"stim\">6</p>", "key_press": -1, "trial_type": "single-stim", "trial_index": 82, "time_elapsed": 507740, "internal_node_id": "0.0-60.0-4.0"}}, {"uniqueid": "MTK1267:3YGXWBAF71O59KYT4FFQ3ZCJS6G4C8", "current_trial": 83, "dateTime": 1513483144454, "trialdata": {"rt": -1, "stimulus": "<p id=\"stim\">5</p>", "key_press": -1, "trial_type": "single-stim", "trial_index": 83, "time_elapsed": 508743, "internal_node_id": "0.0-60.0-5.0"}}, {"uniqueid": "MTK1267:3YGXWBAF71O59KYT4FFQ3ZCJS6G4C8", "current_trial": 84, "dateTime": 1513483145457, "trialdata": {"rt": -1, "stimulus": "<p id=\"stim\">4</p>", "key_press": -1, "trial_type": "single-stim", "trial_index": 84, "time_elapsed": 509746, "internal_node_id": "0.0-60.0-6.0"}}, {"uniqueid": "MTK1267:3YGXWBAF71O59KYT4FFQ3ZCJS6G4C8", "current_trial": 85, "dateTime": 1513483146459, "trialdata": {"rt": -1, "stimulus": "<p id=\"stim\">3</p>", "key_press": -1, "trial_type": "single-stim", "trial_index": 85, "time_elapsed": 510748, "internal_node_id": "0.0-60.0-7.0"}}, {"uniqueid": "MTK1267:3YGXWBAF71O59KYT4FFQ3ZCJS6G4C8", "current_trial": 86, "dateTime": 1513483147461, "trialdata": {"rt": -1, "stimulus": "<p id=\"stim\">2</p>", "key_press": -1, "trial_type": "single-stim", "trial_index": 86, "time_elapsed": 511750, "internal_node_id": "0.0-60.0-8.0"}}, {"uniqueid": "MTK1267:3YGXWBAF71O59KYT4FFQ3ZCJS6G4C8", "current_trial": 87, "dateTime": 1513483148463, "trialdata": {"rt": -1, "stimulus": "<p id=\"stim\">1</p>", "key_press": -1, "trial_type": "single-stim", "trial_index": 87, "time_elapsed": 512752, "internal_node_id": "0.0-60.0-9.0"}}, {"uniqueid": "MTK1267:3YGXWBAF71O59KYT4FFQ3ZCJS6G4C8", "current_trial": 88, "dateTime": 1513483149965, "trialdata": {"rt": -1, "stimulus": "<p id=\"stim\">+</p>", "key_press": -1, "type": "FIXATION", "trial_type": "single-stim", "trial_index": 88, "time_elapsed": 514253, "internal_node_id": "0.0-61.0-0.0"}}, {"uniqueid": "MTK1267:3YGXWBAF71O59KYT4FFQ3ZCJS6G4C8", "current_trial": 89, "dateTime": 1513483150766, "trialdata": {"rt": -1, "stimulus": "<p id=\"stim\">SCALPEL</p>", "key_press": -1, "type": "PRES_VIS", "word": "scalpel", "wordID": 1242, "conditions": [12, 800, "v", 12000], "trial": 2, "serialpos": 0, "trial_type": "single-stim", "trial_index": 89, "time_elapsed": 515055, "internal_node_id": "0.0-62.0"}}, {"uniqueid": "MTK1267:3YGXWBAF71O59KYT4FFQ3ZCJS6G4C8", "current_trial": 90, "dateTime": 1513483152765, "trialdata": {"rt": -1, "stimulus": "<p id=\"stim\">SCOTCH</p>", "key_press": -1, "type": "PRES_VIS", "word": "scotch", "wordID": 1250, "conditions": [12, 800, "v", 12000], "trial": 2, "serialpos": 1, "trial_type": "single-stim", "trial_index": 90, "time_elapsed": 517054, "internal_node_id": "0.0-63.0"}}, {"uniqueid": "MTK1267:3YGXWBAF71O59KYT4FFQ3ZCJS6G4C8", "current_trial": 91, "dateTime": 1513483154519, "trialdata": {"rt": -1, "stimulus": "<p id=\"stim\">SUITCASE</p>", "key_press": -1, "type": "PRES_VIS", "word": "suitcase", "wordID": 1402, "conditions": [12, 800, "v", 12000], "trial": 2, "serialpos": 2, "trial_type": "single-stim", "trial_index": 91, "time_elapsed": 518808, "internal_node_id": "0.0-64.0"}}, {"uniqueid": "MTK1267:3YGXWBAF71O59KYT4FFQ3ZCJS6G4C8", "current_trial": 92, "dateTime": 1513483156355, "trialdata": {"rt": -1, "stimulus": "<p id=\"stim\">LUGGAGE</p>", "key_press": -1, "type": "PRES_VIS", "word": "luggage", "wordID": 846, "conditions": [12, 800, "v", 12000], "trial": 2, "serialpos": 3, "trial_type": "single-stim", "trial_index": 92, "time_elapsed": 520644, "internal_node_id": "0.0-65.0"}}, {"uniqueid": "MTK1267:3YGXWBAF71O59KYT4FFQ3ZCJS6G4C8", "current_trial": 93, "dateTime": 1513483158059, "trialdata": {"rt": -1, "stimulus": "<p id=\"stim\">DRINK</p>", "key_press": -1, "type": "PRES_VIS", "word": "drink", "wordID": 497, "conditions": [12, 800, "v", 12000], "trial": 2, "serialpos": 4, "trial_type": "single-stim", "trial_index": 93, "time_elapsed": 522347, "internal_node_id": "0.0-66.0"}}, {"uniqueid": "MTK1267:3YGXWBAF71O59KYT4FFQ3ZCJS6G4C8", "current_trial": 94, "dateTime": 1513483159807, "trialdata": {"rt": -1, "stimulus": "<p id=\"stim\">SNACK</p>", "key_press": -1, "type": "PRES_VIS", "word": "snack", "wordID": 1330, "conditions": [12, 800, "v", 12000], "trial": 2, "serialpos": 5, "trial_type": "single-stim", "trial_index": 94, "time_elapsed": 524095, "internal_node_id": "0.0-67.0"}}, {"uniqueid": "MTK1267:3YGXWBAF71O59KYT4FFQ3ZCJS6G4C8", "current_trial": 95, "dateTime": 1513483161425, "trialdata": {"rt": -1, "stimulus": "<p id=\"stim\">RAZOR</p>", "key_press": -1, "type": "PRES_VIS", "word": "razor", "wordID": 1170, "conditions": [12, 800, "v", 12000], "trial": 2, "serialpos": 6, "trial_type": "single-stim", "trial_index": 95, "time_elapsed": 525713, "internal_node_id": "0.0-68.0"}}, {"uniqueid": "MTK1267:3YGXWBAF71O59KYT4FFQ3ZCJS6G4C8", "current_trial": 96, "dateTime": 1513483163178, "trialdata": {"rt": -1, "stimulus": "<p id=\"stim\">ULCER</p>", "key_press": -1, "type": "PRES_VIS", "word": "ulcer", "wordID": 1532, "conditions": [12, 800, "v", 12000], "trial": 2, "serialpos": 7, "trial_type": "single-stim", "trial_index": 96, "time_elapsed": 527466, "internal_node_id": "0.0-69.0"}}, {"uniqueid": "MTK1267:3YGXWBAF71O59KYT4FFQ3ZCJS6G4C8", "current_trial": 97, "dateTime": 1513483164967, "trialdata": {"rt": -1, "stimulus": "<p id=\"stim\">CHAMPAGNE</p>", "key_press": -1, "type": "PRES_VIS", "word": "champagne", "wordID": 277, "conditions": [12, 800, "v", 12000], "trial": 2, "serialpos": 8, "trial_type": "single-stim", "trial_index": 97, "time_elapsed": 529256, "internal_node_id": "0.0-70.0"}}, {"uniqueid": "MTK1267:3YGXWBAF71O59KYT4FFQ3ZCJS6G4C8", "current_trial": 98, "dateTime": 1513483166599, "trialdata": {"rt": -1, "stimulus": "<p id=\"stim\">KLEENEX</p>", "key_press": -1, "type": "PRES_VIS", "word": "kleenex", "wordID": 781, "conditions": [12, 800, "v", 12000], "trial": 2, "serialpos": 9, "trial_type": "single-stim", "trial_index": 98, "time_elapsed": 530887, "internal_node_id": "0.0-71.0"}}, {"uniqueid": "MTK1267:3YGXWBAF71O59KYT4FFQ3ZCJS6G4C8", "current_trial": 99, "dateTime": 1513483168479, "trialdata": {"rt": -1, "stimulus": "<p id=\"stim\">DUST</p>", "key_press": -1, "type": "PRES_VIS", "word": "dust", "wordID": 507, "conditions": [12, 800, "v", 12000], "trial": 2, "serialpos": 10, "trial_type": "single-stim", "trial_index": 99, "time_elapsed": 532768, "internal_node_id": "0.0-72.0"}}, {"uniqueid": "MTK1267:3YGXWBAF71O59KYT4FFQ3ZCJS6G4C8", "current_trial": 100, "dateTime": 1513483170288, "trialdata": {"rt": -1, "stimulus": "<p id=\"stim\">POWDER</p>", "key_press": -1, "type": "PRES_VIS", "word": "powder", "wordID": 1116, "conditions": [12, 800, "v", 12000], "trial": 2, "serialpos": 11, "trial_type": "single-stim", "trial_index": 100, "time_elapsed": 534577, "internal_node_id": "0.0-73.0"}}, {"uniqueid": "MTK1267:3YGXWBAF71O59KYT4FFQ3ZCJS6G4C8", "current_trial": 101, "dateTime": 1513483172541, "trialdata": {"rt": -1, "stimulus": "", "key_press": -1, "type": "PRE_RECALL_DELAY", "trial_type": "single-stim", "trial_index": 101, "time_elapsed": 536830, "internal_node_id": "0.0-74.0-0.0"}}, {"uniqueid": "MTK1267:3YGXWBAF71O59KYT4FFQ3ZCJS6G4C8", "current_trial": 102, "dateTime": 1513483173043, "trialdata": {"rt": -1000, "stimulus": "/static/audio/400Hz.wav", "key_press": -1, "type": "PRE_RECALL_ALERT", "trial_type": "single-audio", "trial_index": 102, "time_elapsed": 537332, "internal_node_id": "0.0-75.0"}}, {"uniqueid": "MTK1267:3YGXWBAF71O59KYT4FFQ3ZCJS6G4C8", "current_trial": 103, "dateTime": 1513483233050, "trialdata": {"rt": [2119, 4103, 5697, 7671, 18242, 22510, 28823], "recwords": ["drink", "kleenex", "luggage", "suitcase", "drink", "scalpel", "snack"], "type": "FREE_RECALL", "conditions": [12, 800, "v", 12000], "trial": 2, "trial_type": "free-recall", "trial_index": 103, "time_elapsed": 597336, "internal_node_id": "0.0-76.0-0.0"}}, {"uniqueid": "MTK1267:3YGXWBAF71O59KYT4FFQ3ZCJS6G4C8", "current_trial": 104, "dateTime": 1513483236138, "trialdata": {"rt": 1086, "key_press": 32, "type": "INSTRUCTIONS", "trial_type": "text", "trial_index": 104, "time_elapsed": 600427, "internal_node_id": "0.0-77.0"}}, {"uniqueid": "MTK1267:3YGXWBAF71O59KYT4FFQ3ZCJS6G4C8", "current_trial": 105, "dateTime": 1513483262145, "trialdata": {"rt": [2163, 6491, 10830, 15118, 20740], "responses": ["15", "12", "14", "16", "20"], "num1": [5, 6, 4, 4, 9, 5], "num2": [9, 5, 2, 7, 5, 7], "num3": [1, 1, 8, 5, 6, 6], "type": "DISTRACTOR", "conditions": [24, 800, "v", 24000], "trial": 3, "trial_type": "math-distractor", "trial_index": 105, "time_elapsed": 626433, "internal_node_id": "0.0-78.0"}}, {"uniqueid": "MTK1267:3YGXWBAF71O59KYT4FFQ3ZCJS6G4C8", "current_trial": 106, "dateTime": 1513483265148, "trialdata": {"rt": -1, "stimulus": "<p id=\"stim\">10</p>", "key_press": -1, "trial_type": "single-stim", "trial_index": 106, "time_elapsed": 629437, "internal_node_id": "0.0-79.0-0.0"}}, {"uniqueid": "MTK1267:3YGXWBAF71O59KYT4FFQ3ZCJS6G4C8", "current_trial": 107, "dateTime": 1513483266150, "trialdata": {"rt": -1, "stimulus": "<p id=\"stim\">9</p>", "key_press": -1, "trial_type": "single-stim", "trial_index": 107, "time_elapsed": 630439, "internal_node_id": "0.0-79.0-1.0"}}, {"uniqueid": "MTK1267:3YGXWBAF71O59KYT4FFQ3ZCJS6G4C8", "current_trial": 108, "dateTime": 1513483267152, "trialdata": {"rt": -1, "stimulus": "<p id=\"stim\">8</p>", "key_press": -1, "trial_type": "single-stim", "trial_index": 108, "time_elapsed": 631441, "internal_node_id": "0.0-79.0-2.0"}}, {"uniqueid": "MTK1267:3YGXWBAF71O59KYT4FFQ3ZCJS6G4C8", "current_trial": 109, "dateTime": 1513483268154, "trialdata": {"rt": -1, "stimulus": "<p id=\"stim\">7</p>", "key_press": -1, "trial_type": "single-stim", "trial_index": 109, "time_elapsed": 632443, "internal_node_id": "0.0-79.0-3.0"}}, {"uniqueid": "MTK1267:3YGXWBAF71O59KYT4FFQ3ZCJS6G4C8", "current_trial": 110, "dateTime": 1513483269156, "trialdata": {"rt": -1, "stimulus": "<p id=\"stim\">6</p>", "key_press": -1, "trial_type": "single-stim", "trial_index": 110, "time_elapsed": 633445, "internal_node_id": "0.0-79.0-4.0"}}, {"uniqueid": "MTK1267:3YGXWBAF71O59KYT4FFQ3ZCJS6G4C8", "current_trial": 111, "dateTime": 1513483270158, "trialdata": {"rt": -1, "stimulus": "<p id=\"stim\">5</p>", "key_press": -1, "trial_type": "single-stim", "trial_index": 111, "time_elapsed": 634447, "internal_node_id": "0.0-79.0-5.0"}}, {"uniqueid": "MTK1267:3YGXWBAF71O59KYT4FFQ3ZCJS6G4C8", "current_trial": 112, "dateTime": 1513483271160, "trialdata": {"rt": -1, "stimulus": "<p id=\"stim\">4</p>", "key_press": -1, "trial_type": "single-stim", "trial_index": 112, "time_elapsed": 635449, "internal_node_id": "0.0-79.0-6.0"}}, {"uniqueid": "MTK1267:3YGXWBAF71O59KYT4FFQ3ZCJS6G4C8", "current_trial": 113, "dateTime": 1513483272162, "trialdata": {"rt": -1, "stimulus": "<p id=\"stim\">3</p>", "key_press": -1, "trial_type": "single-stim", "trial_index": 113, "time_elapsed": 636451, "internal_node_id": "0.0-79.0-7.0"}}, {"uniqueid": "MTK1267:3YGXWBAF71O59KYT4FFQ3ZCJS6G4C8", "current_trial": 114, "dateTime": 1513483273164, "trialdata": {"rt": -1, "stimulus": "<p id=\"stim\">2</p>", "key_press": -1, "trial_type": "single-stim", "trial_index": 114, "time_elapsed": 637453, "internal_node_id": "0.0-79.0-8.0"}}, {"uniqueid": "MTK1267:3YGXWBAF71O59KYT4FFQ3ZCJS6G4C8", "current_trial": 115, "dateTime": 1513483274166, "trialdata": {"rt": -1, "stimulus": "<p id=\"stim\">1</p>", "key_press": -1, "trial_type": "single-stim", "trial_index": 115, "time_elapsed": 638455, "internal_node_id": "0.0-79.0-9.0"}}, {"uniqueid": "MTK1267:3YGXWBAF71O59KYT4FFQ3ZCJS6G4C8", "current_trial": 116, "dateTime": 1513483275668, "trialdata": {"rt": -1, "stimulus": "<p id=\"stim\">+</p>", "key_press": -1, "type": "FIXATION", "trial_type": "single-stim", "trial_index": 116, "time_elapsed": 639957, "internal_node_id": "0.0-80.0-0.0"}}, {"uniqueid": "MTK1267:3YGXWBAF71O59KYT4FFQ3ZCJS6G4C8", "current_trial": 117, "dateTime": 1513483276470, "trialdata": {"rt": -1, "stimulus": "<p id=\"stim\">LIZARD</p>", "key_press": -1, "type": "PRES_VIS", "word": "lizard", "wordID": 833, "conditions": [24, 800, "v", 24000], "trial": 3, "serialpos": 0, "trial_type": "single-stim", "trial_index": 117, "time_elapsed": 640759, "internal_node_id": "0.0-81.0"}}, {"uniqueid": "MTK1267:3YGXWBAF71O59KYT4FFQ3ZCJS6G4C8", "current_trial": 118, "dateTime": 1513483278229, "trialdata": {"rt": -1, "stimulus": "<p id=\"stim\">COBRA</p>", "key_press": -1, "type": "PRES_VIS", "word": "cobra", "wordID": 335, "conditions": [24, 800, "v", 24000], "trial": 3, "serialpos": 1, "trial_type": "single-stim", "trial_index": 118, "time_elapsed": 642518, "internal_node_id": "0.0-82.0"}}, {"uniqueid": "MTK1267:3YGXWBAF71O59KYT4FFQ3ZCJS6G4C8", "current_trial": 119, "dateTime": 1513483280090, "trialdata": {"rt": -1, "stimulus": "<p id=\"stim\">BARREL</p>", "key_press": -1, "type": "PRES_VIS", "word": "barrel", "wordID": 90, "conditions": [24, 800, "v", 24000], "trial": 3, "serialpos": 2, "trial_type": "single-stim", "trial_index": 119, "time_elapsed": 644379, "internal_node_id": "0.0-83.0"}}, {"uniqueid": "MTK1267:3YGXWBAF71O59KYT4FFQ3ZCJS6G4C8", "current_trial": 120, "dateTime": 1513483281909, "trialdata": {"rt": -1, "stimulus": "<p id=\"stim\">MAPLE</p>", "key_press": -1, "type": "PRES_VIS", "word": "maple", "wordID": 865, "conditions": [24, 800, "v", 24000], "trial": 3, "serialpos": 3, "trial_type": "single-stim", "trial_index": 120, "time_elapsed": 646198, "internal_node_id": "0.0-84.0"}}, {"uniqueid": "MTK1267:3YGXWBAF71O59KYT4FFQ3ZCJS6G4C8", "current_trial": 121, "dateTime": 1513483283602, "trialdata": {"rt": -1, "stimulus": "<p id=\"stim\">SNAIL</p>", "key_press": -1, "type": "PRES_VIS", "word": "snail", "wordID": 1331, "conditions": [24, 800, "v", 24000], "trial": 3, "serialpos": 4, "trial_type": "single-stim", "trial_index": 121, "time_elapsed": 647890, "internal_node_id": "0.0-85.0"}}, {"uniqueid": "MTK1267:3YGXWBAF71O59KYT4FFQ3ZCJS6G4C8", "current_trial": 122, "dateTime": 1513483285254, "trialdata": {"rt": -1, "stimulus": "<p id=\"stim\">BABY</p>", "key_press": -1, "type": "PRES_VIS", "word": "baby", "wordID": 63, "conditions": [24, 800, "v", 24000], "trial": 3, "serialpos": 5, "trial_type": "single-stim", "trial_index": 122, "time_elapsed": 649542, "internal_node_id": "0.0-86.0"}}, {"uniqueid": "MTK1267:3YGXWBAF71O59KYT4FFQ3ZCJS6G4C8", "current_trial": 123, "dateTime": 1513483287011, "trialdata": {"rt": -1, "stimulus": "<p id=\"stim\">WAGON</p>", "key_press": -1, "type": "PRES_VIS", "word": "wagon", "wordID": 1577, "conditions": [24, 800, "v", 24000], "trial": 3, "serialpos": 6, "trial_type": "single-stim", "trial_index": 123, "time_elapsed": 651299, "internal_node_id": "0.0-87.0"}}, {"uniqueid": "MTK1267:3YGXWBAF71O59KYT4FFQ3ZCJS6G4C8", "current_trial": 124, "dateTime": 1513483288771, "trialdata": {"rt": -1, "stimulus": "<p id=\"stim\">DRESSER</p>", "key_press": -1, "type": "PRES_VIS", "word": "dresser", "wordID": 495, "conditions": [24, 800, "v", 24000], "trial": 3, "serialpos": 7, "trial_type": "single-stim", "trial_index": 124, "time_elapsed": 653060, "internal_node_id": "0.0-88.0"}}, {"uniqueid": "MTK1267:3YGXWBAF71O59KYT4FFQ3ZCJS6G4C8", "current_trial": 125, "dateTime": 1513483290736, "trialdata": {"rt": -1, "stimulus": "<p id=\"stim\">PREACHER</p>", "key_press": -1, "type": "PRES_VIS", "word": "preacher", "wordID": 1118, "conditions": [24, 800, "v", 24000], "trial": 3, "serialpos": 8, "trial_type": "single-stim", "trial_index": 125, "time_elapsed": 655025, "internal_node_id": "0.0-89.0"}}, {"uniqueid": "MTK1267:3YGXWBAF71O59KYT4FFQ3ZCJS6G4C8", "current_trial": 126, "dateTime": 1513483292624, "trialdata": {"rt": -1, "stimulus": "<p id=\"stim\">DRAGON</p>", "key_press": -1, "type": "PRES_VIS", "word": "dragon", "wordID": 491, "conditions": [24, 800, "v", 24000], "trial": 3, "serialpos": 9, "trial_type": "single-stim", "trial_index": 126, "time_elapsed": 656913, "internal_node_id": "0.0-90.0"}}, {"uniqueid": "MTK1267:3YGXWBAF71O59KYT4FFQ3ZCJS6G4C8", "current_trial": 127, "dateTime": 1513483294240, "trialdata": {"rt": -1, "stimulus": "<p id=\"stim\">TRACTOR</p>", "key_press": -1, "type": "PRES_VIS", "word": "tractor", "wordID": 1492, "conditions": [24, 800, "v", 24000], "trial": 3, "serialpos": 10, "trial_type": "single-stim", "trial_index": 127, "time_elapsed": 658529, "internal_node_id": "0.0-91.0"}}, {"uniqueid": "MTK1267:3YGXWBAF71O59KYT4FFQ3ZCJS6G4C8", "current_trial": 128, "dateTime": 1513483296093, "trialdata": {"rt": -1, "stimulus": "<p id=\"stim\">ANTLER</p>", "key_press": -1, "type": "PRES_VIS", "word": "antler", "wordID": 28, "conditions": [24, 800, "v", 24000], "trial": 3, "serialpos": 11, "trial_type": "single-stim", "trial_index": 128, "time_elapsed": 660381, "internal_node_id": "0.0-92.0"}}, {"uniqueid": "MTK1267:3YGXWBAF71O59KYT4FFQ3ZCJS6G4C8", "current_trial": 129, "dateTime": 1513483298000, "trialdata": {"rt": -1, "stimulus": "<p id=\"stim\">PICNIC</p>", "key_press": -1, "type": "PRES_VIS", "word": "picnic", "wordID": 1059, "conditions": [24, 800, "v", 24000], "trial": 3, "serialpos": 12, "trial_type": "single-stim", "trial_index": 129, "time_elapsed": 662289, "internal_node_id": "0.0-93.0"}}, {"uniqueid": "MTK1267:3YGXWBAF71O59KYT4FFQ3ZCJS6G4C8", "current_trial": 130, "dateTime": 1513483299858, "trialdata": {"rt": -1, "stimulus": "<p id=\"stim\">CATCHER</p>", "key_press": -1, "type": "PRES_VIS", "word": "catcher", "wordID": 257, "conditions": [24, 800, "v", 24000], "trial": 3, "serialpos": 13, "trial_type": "single-stim", "trial_index": 130, "time_elapsed": 664147, "internal_node_id": "0.0-94.0"}}, {"uniqueid": "MTK1267:3YGXWBAF71O59KYT4FFQ3ZCJS6G4C8", "current_trial": 131, "dateTime": 1513483301853, "trialdata": {"rt": -1, "stimulus": "<p id=\"stim\">BASEMENT</p>", "key_press": -1, "type": "PRES_VIS", "word": "basement", "wordID": 93, "conditions": [24, 800, "v", 24000], "trial": 3, "serialpos": 14, "trial_type": "single-stim", "trial_index": 131, "time_elapsed": 666142, "internal_node_id": "0.0-95.0"}}, {"uniqueid": "MTK1267:3YGXWBAF71O59KYT4FFQ3ZCJS6G4C8", "current_trial": 132, "dateTime": 1513483303630, "trialdata": {"rt": -1, "stimulus": "<p id=\"stim\">DRIVER</p>", "key_press": -1, "type": "PRES_VIS", "word": "driver", "wordID": 498, "conditions": [24, 800, "v", 24000], "trial": 3, "serialpos": 15, "trial_type": "single-stim", "trial_index": 132, "time_elapsed": 667919, "internal_node_id": "0.0-96.0"}}, {"uniqueid": "MTK1267:3YGXWBAF71O59KYT4FFQ3ZCJS6G4C8", "current_trial": 133, "dateTime": 1513483305350, "trialdata": {"rt": -1, "stimulus": "<p id=\"stim\">COCKTAIL</p>", "key_press": -1, "type": "PRES_VIS", "word": "cocktail", "wordID": 337, "conditions": [24, 800, "v", 24000], "trial": 3, "serialpos": 16, "trial_type": "single-stim", "trial_index": 133, "time_elapsed": 669639, "internal_node_id": "0.0-97.0"}}, {"uniqueid": "MTK1267:3YGXWBAF71O59KYT4FFQ3ZCJS6G4C8", "current_trial": 134, "dateTime": 1513483307170, "trialdata": {"rt": -1, "stimulus": "<p id=\"stim\">GLASS</p>", "key_press": -1, "type": "PRES_VIS", "word": "glass", "wordID": 638, "conditions": [24, 800, "v", 24000], "trial": 3, "serialpos": 17, "trial_type": "single-stim", "trial_index": 134, "time_elapsed": 671459, "internal_node_id": "0.0-98.0"}}, {"uniqueid": "MTK1267:3YGXWBAF71O59KYT4FFQ3ZCJS6G4C8", "current_trial": 135, "dateTime": 1513483308989, "trialdata": {"rt": -1, "stimulus": "<p id=\"stim\">CRATER</p>", "key_press": -1, "type": "PRES_VIS", "word": "crater", "wordID": 399, "conditions": [24, 800, "v", 24000], "trial": 3, "serialpos": 18, "trial_type": "single-stim", "trial_index": 135, "time_elapsed": 673278, "internal_node_id": "0.0-99.0"}}, {"uniqueid": "MTK1267:3YGXWBAF71O59KYT4FFQ3ZCJS6G4C8", "current_trial": 136, "dateTime": 1513483310908, "trialdata": {"rt": -1, "stimulus": "<p id=\"stim\">LAVA</p>", "key_press": -1, "type": "PRES_VIS", "word": "lava", "wordID": 803, "conditions": [24, 800, "v", 24000], "trial": 3, "serialpos": 19, "trial_type": "single-stim", "trial_index": 136, "time_elapsed": 675197, "internal_node_id": "0.0-100.0"}}, {"uniqueid": "MTK1267:3YGXWBAF71O59KYT4FFQ3ZCJS6G4C8", "current_trial": 137, "dateTime": 1513483312836, "trialdata": {"rt": -1, "stimulus": "<p id=\"stim\">RUST</p>", "key_press": -1, "type": "PRES_VIS", "word": "rust", "wordID": 1218, "conditions": [24, 800, "v", 24000], "trial": 3, "serialpos": 20, "trial_type": "single-stim", "trial_index": 137, "time_elapsed": 677125, "internal_node_id": "0.0-101.0"}}, {"uniqueid": "MTK1267:3YGXWBAF71O59KYT4FFQ3ZCJS6G4C8", "current_trial": 138, "dateTime": 1513483314588, "trialdata": {"rt": -1, "stimulus": "<p id=\"stim\">CELLAR</p>", "key_press": -1, "type": "PRES_VIS", "word": "cellar", "wordID": 266, "conditions": [24, 800, "v", 24000], "trial": 3, "serialpos": 21, "trial_type": "single-stim", "trial_index": 138, "time_elapsed": 678877, "internal_node_id": "0.0-102.0"}}, {"uniqueid": "MTK1267:3YGXWBAF71O59KYT4FFQ3ZCJS6G4C8", "current_trial": 139, "dateTime": 1513483316454, "trialdata": {"rt": -1, "stimulus": "<p id=\"stim\">PARROT</p>", "key_press": -1, "type": "PRES_VIS", "word": "parrot", "wordID": 1014, "conditions": [24, 800, "v", 24000], "trial": 3, "serialpos": 22, "trial_type": "single-stim", "trial_index": 139, "time_elapsed": 680742, "internal_node_id": "0.0-103.0"}}, {"uniqueid": "MTK1267:3YGXWBAF71O59KYT4FFQ3ZCJS6G4C8", "current_trial": 140, "dateTime": 1513483318315, "trialdata": {"rt": -1, "stimulus": "<p id=\"stim\">FRAME</p>", "key_press": -1, "type": "PRES_VIS", "word": "frame", "wordID": 599, "conditions": [24, 800, "v", 24000], "trial": 3, "serialpos": 23, "trial_type": "single-stim", "trial_index": 140, "time_elapsed": 682604, "internal_node_id": "0.0-104.0"}}, {"uniqueid": "MTK1267:3YGXWBAF71O59KYT4FFQ3ZCJS6G4C8", "current_trial": 141, "dateTime": 1513483320339, "trialdata": {"rt": -1, "stimulus": "", "key_press": -1, "type": "PRE_RECALL_DELAY", "trial_type": "single-stim", "trial_index": 141, "time_elapsed": 684628, "internal_node_id": "0.0-105.0-0.0"}}, {"uniqueid": "MTK1267:3YGXWBAF71O59KYT4FFQ3ZCJS6G4C8", "current_trial": 142, "dateTime": 1513483320840, "trialdata": {"rt": -1000, "stimulus": "/static/audio/400Hz.wav", "key_press": -1, "type": "PRE_RECALL_ALERT", "trial_type": "single-audio", "trial_index": 142, "time_elapsed": 685129, "internal_node_id": "0.0-106.0"}}, {"uniqueid": "MTK1267:3YGXWBAF71O59KYT4FFQ3ZCJS6G4C8", "current_trial": 143, "dateTime": 1513483380846, "trialdata": {"rt": [3355, 4548, 5870, 7573, 8635, 9827, 21836, 28928, 29950], "recwords": ["basement", "cellar", "dragon", "lizard", "snail", "snake", "frame", "lava", "rust"], "type": "FREE_RECALL", "conditions": [24, 800, "v", 24000], "trial": 3, "trial_type": "free-recall", "trial_index": 143, "time_elapsed": 745132, "internal_node_id": "0.0-107.0-0.0"}}, {"uniqueid": "MTK1267:3YGXWBAF71O59KYT4FFQ3ZCJS6G4C8", "current_trial": 144, "dateTime": 1513483409541, "trialdata": {"rt": 26695, "key_press": 32, "type": "INSTRUCTIONS", "trial_type": "text", "trial_index": 144, "time_elapsed": 773830, "internal_node_id": "0.0-108.0"}}, {"uniqueid": "MTK1267:3YGXWBAF71O59KYT4FFQ3ZCJS6G4C8", "current_trial": 145, "dateTime": 1513483435547, "trialdata": {"rt": [10288, 17600, 21038, 23371], "responses": ["22", "19", "9", "10"], "num1": [7, 7, 1, 2, 7], "num2": [6, 5, 5, 1, 5], "num3": [9, 7, 3, 7, 7], "type": "DISTRACTOR", "conditions": [24, 800, "a", 24000], "trial": 4, "trial_type": "math-distractor", "trial_index": 145, "time_elapsed": 799836, "internal_node_id": "0.0-109.0"}}, {"uniqueid": "MTK1267:3YGXWBAF71O59KYT4FFQ3ZCJS6G4C8", "current_trial": 146, "dateTime": 1513483438551, "trialdata": {"rt": -1, "stimulus": "<p id=\"stim\">10</p>", "key_press": -1, "trial_type": "single-stim", "trial_index": 146, "time_elapsed": 802840, "internal_node_id": "0.0-110.0-0.0"}}, {"uniqueid": "MTK1267:3YGXWBAF71O59KYT4FFQ3ZCJS6G4C8", "current_trial": 147, "dateTime": 1513483439552, "trialdata": {"rt": -1, "stimulus": "<p id=\"stim\">9</p>", "key_press": -1, "trial_type": "single-stim", "trial_index": 147, "time_elapsed": 803841, "internal_node_id": "0.0-110.0-1.0"}}, {"uniqueid": "MTK1267:3YGXWBAF71O59KYT4FFQ3ZCJS6G4C8", "current_trial": 148, "dateTime": 1513483440553, "trialdata": {"rt": -1, "stimulus": "<p id=\"stim\">8</p>", "key_press": -1, "trial_type": "single-stim", "trial_index": 148, "time_elapsed": 804842, "internal_node_id": "0.0-110.0-2.0"}}, {"uniqueid": "MTK1267:3YGXWBAF71O59KYT4FFQ3ZCJS6G4C8", "current_trial": 149, "dateTime": 1513483441555, "trialdata": {"rt": -1, "stimulus": "<p id=\"stim\">7</p>", "key_press": -1, "trial_type": "single-stim", "trial_index": 149, "time_elapsed": 805844, "internal_node_id": "0.0-110.0-3.0"}}, {"uniqueid": "MTK1267:3YGXWBAF71O59KYT4FFQ3ZCJS6G4C8", "current_trial": 150, "dateTime": 1513483442557, "trialdata": {"rt": -1, "stimulus": "<p id=\"stim\">6</p>", "key_press": -1, "trial_type": "single-stim", "trial_index": 150, "time_elapsed": 806846, "internal_node_id": "0.0-110.0-4.0"}}, {"uniqueid": "MTK1267:3YGXWBAF71O59KYT4FFQ3ZCJS6G4C8", "current_trial": 151, "dateTime": 1513483443558, "trialdata": {"rt": -1, "stimulus": "<p id=\"stim\">5</p>", "key_press": -1, "trial_type": "single-stim", "trial_index": 151, "time_elapsed": 807847, "internal_node_id": "0.0-110.0-5.0"}}, {"uniqueid": "MTK1267:3YGXWBAF71O59KYT4FFQ3ZCJS6G4C8", "current_trial": 152, "dateTime": 1513483444560, "trialdata": {"rt": -1, "stimulus": "<p id=\"stim\">4</p>", "key_press": -1, "trial_type": "single-stim", "trial_index": 152, "time_elapsed": 808849, "internal_node_id": "0.0-110.0-6.0"}}, {"uniqueid": "MTK1267:3YGXWBAF71O59KYT4FFQ3ZCJS6G4C8", "current_trial": 153, "dateTime": 1513483445563, "trialdata": {"rt": -1, "stimulus": "<p id=\"stim\">3</p>", "key_press": -1, "trial_type": "single-stim", "trial_index": 153, "time_elapsed": 809851, "internal_node_id": "0.0-110.0-7.0"}}, {"uniqueid": "MTK1267:3YGXWBAF71O59KYT4FFQ3ZCJS6G4C8", "current_trial": 154, "dateTime": 1513483446565, "trialdata": {"rt": -1, "stimulus": "<p id=\"stim\">2</p>", "key_press": -1, "trial_type": "single-stim", "trial_index": 154, "time_elapsed": 810854, "internal_node_id": "0.0-110.0-8.0"}}, {"uniqueid": "MTK1267:3YGXWBAF71O59KYT4FFQ3ZCJS6G4C8", "current_trial": 155, "dateTime": 1513483447566, "trialdata": {"rt": -1, "stimulus": "<p id=\"stim\">1</p>", "key_press": -1, "trial_type": "single-stim", "trial_index": 155, "time_elapsed": 811855, "internal_node_id": "0.0-110.0-9.0"}}, {"uniqueid": "MTK1267:3YGXWBAF71O59KYT4FFQ3ZCJS6G4C8", "current_trial": 156, "dateTime": 1513483449068, "trialdata": {"rt": -1, "stimulus": "<p id=\"stim\">+</p>", "key_press": -1, "type": "FIXATION", "trial_type": "single-stim", "trial_index": 156, "time_elapsed": 813357, "internal_node_id": "0.0-111.0-0.0"}}, {"uniqueid": "MTK1267:3YGXWBAF71O59KYT4FFQ3ZCJS6G4C8", "current_trial": 157, "dateTime": 1513483450931, "trialdata": {"rt": -1000, "stimulus": "/static/audio/wordpool/LONDON.wav", "key_press": -1, "type": "PRES_AUD", "word": "london", "wordID": 842, "conditions": [24, 800, "a", 24000], "trial": 4, "serialpos": 0, "trial_type": "single-audio", "trial_index": 157, "time_elapsed": 815220, "internal_node_id": "0.0-112.0"}}, {"uniqueid": "MTK1267:3YGXWBAF71O59KYT4FFQ3ZCJS6G4C8", "current_trial": 158, "dateTime": 1513483452639, "trialdata": {"rt": 1318.6666666665587, "stimulus": "/static/audio/wordpool/FLUTE.wav", "key_press": 175, "type": "PRES_AUD", "word": "flute", "wordID": 584, "conditions": [24, 800, "a", 24000], "trial": 4, "serialpos": 1, "trial_type": "single-audio", "trial_index": 158, "time_elapsed": 816927, "internal_node_id": "0.0-113.0"}}, {"uniqueid": "MTK1267:3YGXWBAF71O59KYT4FFQ3ZCJS6G4C8", "current_trial": 159, "dateTime": 1513483454492, "trialdata": {"rt": -1000, "stimulus": "/static/audio/wordpool/HARP.wav", "key_press": -1, "type": "PRES_AUD", "word": "harp", "wordID": 688, "conditions": [24, 800, "a", 24000], "trial": 4, "serialpos": 2, "trial_type": "single-audio", "trial_index": 159, "time_elapsed": 818780, "internal_node_id": "0.0-114.0"}}, {"uniqueid": "MTK1267:3YGXWBAF71O59KYT4FFQ3ZCJS6G4C8", "current_trial": 160, "dateTime": 1513483456444, "trialdata": {"rt": 1179.99999999995, "stimulus": "/static/audio/wordpool/SLUG.wav", "key_press": 175, "type": "PRES_AUD", "word": "slug", "wordID": 1328, "conditions": [24, 800, "a", 24000], "trial": 4, "serialpos": 3, "trial_type": "single-audio", "trial_index": 160, "time_elapsed": 820733, "internal_node_id": "0.0-115.0"}}, {"uniqueid": "MTK1267:3YGXWBAF71O59KYT4FFQ3ZCJS6G4C8", "current_trial": 161, "dateTime": 1513483458122, "trialdata": {"rt": 89.33333333322935, "stimulus": "/static/audio/wordpool/BLADE.wav", "key_press": 175, "type": "PRES_AUD", "word": "blade", "wordID": 133, "conditions": [24, 800, "a", 24000], "trial": 4, "serialpos": 4, "trial_type": "single-audio", "trial_index": 161, "time_elapsed": 822410, "internal_node_id": "0.0-116.0"}}, {"uniqueid": "MTK1267:3YGXWBAF71O59KYT4FFQ3ZCJS6G4C8", "current_trial": 162, "dateTime": 1513483459841, "trialdata": {"rt": -1000, "stimulus": "/static/audio/wordpool/APPLE.wav", "key_press": -1, "type": "PRES_AUD", "word": "apple", "wordID": 32, "conditions": [24, 800, "a", 24000], "trial": 4, "serialpos": 5, "trial_type": "single-audio", "trial_index": 162, "time_elapsed": 824130, "internal_node_id": "0.0-117.0"}}, {"uniqueid": "MTK1267:3YGXWBAF71O59KYT4FFQ3ZCJS6G4C8", "current_trial": 163, "dateTime": 1513483461473, "trialdata": {"rt": -1000, "stimulus": "/static/audio/wordpool/PLAID.wav", "key_press": -1, "type": "PRES_AUD", "word": "plaid", "wordID": 1079, "conditions": [24, 800, "a", 24000], "trial": 4, "serialpos": 6, "trial_type": "single-audio", "trial_index": 163, "time_elapsed": 825760, "internal_node_id": "0.0-118.0"}}, {"uniqueid": "MTK1267:3YGXWBAF71O59KYT4FFQ3ZCJS6G4C8", "current_trial": 164, "dateTime": 1513483463083, "trialdata": {"rt": -1000, "stimulus": "/static/audio/wordpool/MATTRESS.wav", "key_press": -1, "type": "PRES_AUD", "word": "mattress", "wordID": 878, "conditions": [24, 800, "a", 24000], "trial": 4, "serialpos": 7, "trial_type": "single-audio", "trial_index": 164, "time_elapsed": 827372, "internal_node_id": "0.0-119.0"}}, {"uniqueid": "MTK1267:3YGXWBAF71O59KYT4FFQ3ZCJS6G4C8", "current_trial": 165, "dateTime": 1513483464927, "trialdata": {"rt": -1000, "stimulus": "/static/audio/wordpool/YARN.wav", "key_press": -1, "type": "PRES_AUD", "word": "yarn", "wordID": 1630, "conditions": [24, 800, "a", 24000], "trial": 4, "serialpos": 8, "trial_type": "single-audio", "trial_index": 165, "time_elapsed": 829216, "internal_node_id": "0.0-120.0"}}, {"uniqueid": "MTK1267:3YGXWBAF71O59KYT4FFQ3ZCJS6G4C8", "current_trial": 166, "dateTime": 1513483466916, "trialdata": {"rt": -1000, "stimulus": "/static/audio/wordpool/BRIEFCASE.wav", "key_press": -1, "type": "PRES_AUD", "word": "briefcase", "wordID": 174, "conditions": [24, 800, "a", 24000], "trial": 4, "serialpos": 9, "trial_type": "single-audio", "trial_index": 166, "time_elapsed": 831205, "internal_node_id": "0.0-121.0"}}, {"uniqueid": "MTK1267:3YGXWBAF71O59KYT4FFQ3ZCJS6G4C8", "current_trial": 167, "dateTime": 1513483468875, "trialdata": {"rt": -1000, "stimulus": "/static/audio/wordpool/GRAPE.wav", "key_press": -1, "type": "PRES_AUD", "word": "grape", "wordID": 653, "conditions": [24, 800, "a", 24000], "trial": 4, "serialpos": 10, "trial_type": "single-audio", "trial_index": 167, "time_elapsed": 833164, "internal_node_id": "0.0-122.0"}}, {"uniqueid": "MTK1267:3YGXWBAF71O59KYT4FFQ3ZCJS6G4C8", "current_trial": 168, "dateTime": 1513483470664, "trialdata": {"rt": -1000, "stimulus": "/static/audio/wordpool/TYPIST.wav", "key_press": -1, "type": "PRES_AUD", "word": "typist", "wordID": 1531, "conditions": [24, 800, "a", 24000], "trial": 4, "serialpos": 11, "trial_type": "single-audio", "trial_index": 168, "time_elapsed": 834953, "internal_node_id": "0.0-123.0"}}, {"uniqueid": "MTK1267:3YGXWBAF71O59KYT4FFQ3ZCJS6G4C8", "current_trial": 169, "dateTime": 1513483472664, "trialdata": {"rt": -1000, "stimulus": "/static/audio/wordpool/MAILBOX.wav", "key_press": -1, "type": "PRES_AUD", "word": "mailbox", "wordID": 856, "conditions": [24, 800, "a", 24000], "trial": 4, "serialpos": 12, "trial_type": "single-audio", "trial_index": 169, "time_elapsed": 836952, "internal_node_id": "0.0-124.0"}}, {"uniqueid": "MTK1267:3YGXWBAF71O59KYT4FFQ3ZCJS6G4C8", "current_trial": 170, "dateTime": 1513483474660, "trialdata": {"rt": -1000, "stimulus": "/static/audio/wordpool/BRANCH.wav", "key_press": -1, "type": "PRES_AUD", "word": "branch", "wordID": 167, "conditions": [24, 800, "a", 24000], "trial": 4, "serialpos": 13, "trial_type": "single-audio", "trial_index": 170, "time_elapsed": 838949, "internal_node_id": "0.0-125.0"}}, {"uniqueid": "MTK1267:3YGXWBAF71O59KYT4FFQ3ZCJS6G4C8", "current_trial": 171, "dateTime": 1513483476502, "trialdata": {"rt": -1000, "stimulus": "/static/audio/wordpool/KEEPER.wav", "key_press": -1, "type": "PRES_AUD", "word": "keeper", "wordID": 768, "conditions": [24, 800, "a", 24000], "trial": 4, "serialpos": 14, "trial_type": "single-audio", "trial_index": 171, "time_elapsed": 840790, "internal_node_id": "0.0-126.0"}}, {"uniqueid": "MTK1267:3YGXWBAF71O59KYT4FFQ3ZCJS6G4C8", "current_trial": 172, "dateTime": 1513483478290, "trialdata": {"rt": -1000, "stimulus": "/static/audio/wordpool/CIGAR.wav", "key_press": -1, "type": "PRES_AUD", "word": "cigar", "wordID": 307, "conditions": [24, 800, "a", 24000], "trial": 4, "serialpos": 15, "trial_type": "single-audio", "trial_index": 172, "time_elapsed": 842579, "internal_node_id": "0.0-127.0"}}, {"uniqueid": "MTK1267:3YGXWBAF71O59KYT4FFQ3ZCJS6G4C8", "current_trial": 173, "dateTime": 1513483480263, "trialdata": {"rt": -1000, "stimulus": "/static/audio/wordpool/COSTUME.wav", "key_press": -1, "type": "PRES_AUD", "word": "costume", "wordID": 382, "conditions": [24, 800, "a", 24000], "trial": 4, "serialpos": 16, "trial_type": "single-audio", "trial_index": 173, "time_elapsed": 844551, "internal_node_id": "0.0-128.0"}}, {"uniqueid": "MTK1267:3YGXWBAF71O59KYT4FFQ3ZCJS6G4C8", "current_trial": 174, "dateTime": 1513483482227, "trialdata": {"rt": -1000, "stimulus": "/static/audio/wordpool/CHURCH.wav", "key_press": -1, "type": "PRES_AUD", "word": "church", "wordID": 306, "conditions": [24, 800, "a", 24000], "trial": 4, "serialpos": 17, "trial_type": "single-audio", "trial_index": 174, "time_elapsed": 846516, "internal_node_id": "0.0-129.0"}}, {"uniqueid": "MTK1267:3YGXWBAF71O59KYT4FFQ3ZCJS6G4C8", "current_trial": 175, "dateTime": 1513483484027, "trialdata": {"rt": -1000, "stimulus": "/static/audio/wordpool/CHAPEL.wav", "key_press": -1, "type": "PRES_AUD", "word": "chapel", "wordID": 279, "conditions": [24, 800, "a", 24000], "trial": 4, "serialpos": 18, "trial_type": "single-audio", "trial_index": 175, "time_elapsed": 848315, "internal_node_id": "0.0-130.0"}}, {"uniqueid": "MTK1267:3YGXWBAF71O59KYT4FFQ3ZCJS6G4C8", "current_trial": 176, "dateTime": 1513483486002, "trialdata": {"rt": -1000, "stimulus": "/static/audio/wordpool/WARDROBE.wav", "key_press": -1, "type": "PRES_AUD", "word": "wardrobe", "wordID": 1586, "conditions": [24, 800, "a", 24000], "trial": 4, "serialpos": 19, "trial_type": "single-audio", "trial_index": 176, "time_elapsed": 850291, "internal_node_id": "0.0-131.0"}}, {"uniqueid": "MTK1267:3YGXWBAF71O59KYT4FFQ3ZCJS6G4C8", "current_trial": 177, "dateTime": 1513483487876, "trialdata": {"rt": -1000, "stimulus": "/static/audio/wordpool/ELBOW.wav", "key_press": -1, "type": "PRES_AUD", "word": "elbow", "wordID": 519, "conditions": [24, 800, "a", 24000], "trial": 4, "serialpos": 20, "trial_type": "single-audio", "trial_index": 177, "time_elapsed": 852165, "internal_node_id": "0.0-132.0"}}, {"uniqueid": "MTK1267:3YGXWBAF71O59KYT4FFQ3ZCJS6G4C8", "current_trial": 178, "dateTime": 1513483489559, "trialdata": {"rt": -1000, "stimulus": "/static/audio/wordpool/PISTON.wav", "key_press": -1, "type": "PRES_AUD", "word": "piston", "wordID": 1075, "conditions": [24, 800, "a", 24000], "trial": 4, "serialpos": 21, "trial_type": "single-audio", "trial_index": 178, "time_elapsed": 853848, "internal_node_id": "0.0-133.0"}}, {"uniqueid": "MTK1267:3YGXWBAF71O59KYT4FFQ3ZCJS6G4C8", "current_trial": 179, "dateTime": 1513483491330, "trialdata": {"rt": -1000, "stimulus": "/static/audio/wordpool/TRENCH.wav", "key_press": -1, "type": "PRES_AUD", "word": "trench", "wordID": 1502, "conditions": [24, 800, "a", 24000], "trial": 4, "serialpos": 22, "trial_type": "single-audio", "trial_index": 179, "time_elapsed": 855619, "internal_node_id": "0.0-134.0"}}, {"uniqueid": "MTK1267:3YGXWBAF71O59KYT4FFQ3ZCJS6G4C8", "current_trial": 180, "dateTime": 1513483493281, "trialdata": {"rt": -1000, "stimulus": "/static/audio/wordpool/DIVER.wav", "key_press": -1, "type": "PRES_AUD", "word": "diver", "wordID": 475, "conditions": [24, 800, "a", 24000], "trial": 4, "serialpos": 23, "trial_type": "single-audio", "trial_index": 180, "time_elapsed": 857570, "internal_node_id": "0.0-135.0"}}, {"uniqueid": "MTK1267:3YGXWBAF71O59KYT4FFQ3ZCJS6G4C8", "current_trial": 181, "dateTime": 1513483494567, "trialdata": {"rt": -1, "stimulus": "", "key_press": -1, "type": "PRE_RECALL_DELAY", "trial_type": "single-stim", "trial_index": 181, "time_elapsed": 858856, "internal_node_id": "0.0-136.0-0.0"}}, {"uniqueid": "MTK1267:3YGXWBAF71O59KYT4FFQ3ZCJS6G4C8", "current_trial": 182, "dateTime": 1513483495069, "trialdata": {"rt": -1000, "stimulus": "/static/audio/400Hz.wav", "key_press": -1, "type": "PRE_RECALL_ALERT", "trial_type": "single-audio", "trial_index": 182, "time_elapsed": 859358, "internal_node_id": "0.0-137.0"}}, {"uniqueid": "MTK1267:3YGXWBAF71O59KYT4FFQ3ZCJS6G4C8", "current_trial": 183, "dateTime": 1513483555075, "trialdata": {"rt": [2134, 3977, 8034, 9698], "recwords": ["church", "chapel", "diver", "trench"], "type": "FREE_RECALL", "conditions": [24, 800, "a", 24000], "trial": 4, "trial_type": "free-recall", "trial_index": 183, "time_elapsed": 919361, "internal_node_id": "0.0-138.0-0.0"}}, {"uniqueid": "MTK1267:3YGXWBAF71O59KYT4FFQ3ZCJS6G4C8", "current_trial": 184, "dateTime": 1513483557930, "trialdata": {"rt": 853, "key_press": 32, "type": "INSTRUCTIONS", "trial_type": "text", "trial_index": 184, "time_elapsed": 922219, "internal_node_id": "0.0-139.0"}}, {"uniqueid": "MTK1267:3YGXWBAF71O59KYT4FFQ3ZCJS6G4C8", "current_trial": 185, "dateTime": 1513483571937, "trialdata": {"rt": [2985, 5690], "responses": ["11", "11"], "num1": [2, 5, 9], "num2": [8, 1, 3], "num3": [1, 5, 6], "type": "DISTRACTOR", "conditions": [24, 800, "a", 12000], "trial": 5, "trial_type": "math-distractor", "trial_index": 185, "time_elapsed": 936226, "internal_node_id": "0.0-140.0"}}, {"uniqueid": "MTK1267:3YGXWBAF71O59KYT4FFQ3ZCJS6G4C8", "current_trial": 186, "dateTime": 1513483574940, "trialdata": {"rt": -1, "stimulus": "<p id=\"stim\">10</p>", "key_press": -1, "trial_type": "single-stim", "trial_index": 186, "time_elapsed": 939229, "internal_node_id": "0.0-141.0-0.0"}}, {"uniqueid": "MTK1267:3YGXWBAF71O59KYT4FFQ3ZCJS6G4C8", "current_trial": 187, "dateTime": 1513483575942, "trialdata": {"rt": -1, "stimulus": "<p id=\"stim\">9</p>", "key_press": -1, "trial_type": "single-stim", "trial_index": 187, "time_elapsed": 940231, "internal_node_id": "0.0-141.0-1.0"}}, {"uniqueid": "MTK1267:3YGXWBAF71O59KYT4FFQ3ZCJS6G4C8", "current_trial": 188, "dateTime": 1513483576944, "trialdata": {"rt": -1, "stimulus": "<p id=\"stim\">8</p>", "key_press": -1, "trial_type": "single-stim", "trial_index": 188, "time_elapsed": 941233, "internal_node_id": "0.0-141.0-2.0"}}, {"uniqueid": "MTK1267:3YGXWBAF71O59KYT4FFQ3ZCJS6G4C8", "current_trial": 189, "dateTime": 1513483577946, "trialdata": {"rt": -1, "stimulus": "<p id=\"stim\">7</p>", "key_press": -1, "trial_type": "single-stim", "trial_index": 189, "time_elapsed": 942235, "internal_node_id": "0.0-141.0-3.0"}}, {"uniqueid": "MTK1267:3YGXWBAF71O59KYT4FFQ3ZCJS6G4C8", "current_trial": 190, "dateTime": 1513483578948, "trialdata": {"rt": -1, "stimulus": "<p id=\"stim\">6</p>", "key_press": -1, "trial_type": "single-stim", "trial_index": 190, "time_elapsed": 943237, "internal_node_id": "0.0-141.0-4.0"}}, {"uniqueid": "MTK1267:3YGXWBAF71O59KYT4FFQ3ZCJS6G4C8", "current_trial": 191, "dateTime": 1513483579950, "trialdata": {"rt": -1, "stimulus": "<p id=\"stim\">5</p>", "key_press": -1, "trial_type": "single-stim", "trial_index": 191, "time_elapsed": 944239, "internal_node_id": "0.0-141.0-5.0"}}, {"uniqueid": "MTK1267:3YGXWBAF71O59KYT4FFQ3ZCJS6G4C8", "current_trial": 192, "dateTime": 1513483580952, "trialdata": {"rt": -1, "stimulus": "<p id=\"stim\">4</p>", "key_press": -1, "trial_type": "single-stim", "trial_index": 192, "time_elapsed": 945241, "internal_node_id": "0.0-141.0-6.0"}}, {"uniqueid": "MTK1267:3YGXWBAF71O59KYT4FFQ3ZCJS6G4C8", "current_trial": 193, "dateTime": 1513483581956, "trialdata": {"rt": -1, "stimulus": "<p id=\"stim\">3</p>", "key_press": -1, "trial_type": "single-stim", "trial_index": 193, "time_elapsed": 946245, "internal_node_id": "0.0-141.0-7.0"}}, {"uniqueid": "MTK1267:3YGXWBAF71O59KYT4FFQ3ZCJS6G4C8", "current_trial": 194, "dateTime": 1513483582958, "trialdata": {"rt": -1, "stimulus": "<p id=\"stim\">2</p>", "key_press": -1, "trial_type": "single-stim", "trial_index": 194, "time_elapsed": 947247, "internal_node_id": "0.0-141.0-8.0"}}, {"uniqueid": "MTK1267:3YGXWBAF71O59KYT4FFQ3ZCJS6G4C8", "current_trial": 195, "dateTime": 1513483583961, "trialdata": {"rt": -1, "stimulus": "<p id=\"stim\">1</p>", "key_press": -1, "trial_type": "single-stim", "trial_index": 195, "time_elapsed": 948249, "internal_node_id": "0.0-141.0-9.0"}}, {"uniqueid": "MTK1267:3YGXWBAF71O59KYT4FFQ3ZCJS6G4C8", "current_trial": 196, "dateTime": 1513483585463, "trialdata": {"rt": -1, "stimulus": "<p id=\"stim\">+</p>", "key_press": -1, "type": "FIXATION", "trial_type": "single-stim", "trial_index": 196, "time_elapsed": 949752, "internal_node_id": "0.0-142.0-0.0"}}, {"uniqueid": "MTK1267:3YGXWBAF71O59KYT4FFQ3ZCJS6G4C8", "current_trial": 197, "dateTime": 1513483587149, "trialdata": {"rt": -1000, "stimulus": "/static/audio/wordpool/PRINCESS.wav", "key_press": -1, "type": "PRES_AUD", "word": "princess", "wordID": 1124, "conditions": [24, 800, "a", 12000], "trial": 5, "serialpos": 0, "trial_type": "single-audio", "trial_index": 197, "time_elapsed": 951438, "internal_node_id": "0.0-143.0"}}, {"uniqueid": "MTK1267:3YGXWBAF71O59KYT4FFQ3ZCJS6G4C8", "current_trial": 198, "dateTime": 1513483588885, "trialdata": {"rt": -1000, "stimulus": "/static/audio/wordpool/QUARTER.wav", "key_press": -1, "type": "PRES_AUD", "word": "quarter", "wordID": 1147, "conditions": [24, 800, "a", 12000], "trial": 5, "serialpos": 1, "trial_type": "single-audio", "trial_index": 198, "time_elapsed": 953174, "internal_node_id": "0.0-144.0"}}, {"uniqueid": "MTK1267:3YGXWBAF71O59KYT4FFQ3ZCJS6G4C8", "current_trial": 199, "dateTime": 1513483590709, "trialdata": {"rt": -1000, "stimulus": "/static/audio/wordpool/TURKEY.wav", "key_press": -1, "type": "PRES_AUD", "word": "turkey", "wordID": 1519, "conditions": [24, 800, "a", 12000], "trial": 5, "serialpos": 2, "trial_type": "single-audio", "trial_index": 199, "time_elapsed": 954998, "internal_node_id": "0.0-145.0"}}, {"uniqueid": "MTK1267:3YGXWBAF71O59KYT4FFQ3ZCJS6G4C8", "current_trial": 200, "dateTime": 1513483592448, "trialdata": {"rt": -1000, "stimulus": "/static/audio/wordpool/TURNIP.wav", "key_press": -1, "type": "PRES_AUD", "word": "turnip", "wordID": 1520, "conditions": [24, 800, "a", 12000], "trial": 5, "serialpos": 3, "trial_type": "single-audio", "trial_index": 200, "time_elapsed": 956737, "internal_node_id": "0.0-146.0"}}, {"uniqueid": "MTK1267:3YGXWBAF71O59KYT4FFQ3ZCJS6G4C8", "current_trial": 201, "dateTime": 1513483594408, "trialdata": {"rt": -1000, "stimulus": "/static/audio/wordpool/SAUSAGE.wav", "key_press": -1, "type": "PRES_AUD", "word": "sausage", "wordID": 1237, "conditions": [24, 800, "a", 12000], "trial": 5, "serialpos": 4, "trial_type": "single-audio", "trial_index": 201, "time_elapsed": 958697, "internal_node_id": "0.0-147.0"}}, {"uniqueid": "MTK1267:3YGXWBAF71O59KYT4FFQ3ZCJS6G4C8", "current_trial": 202, "dateTime": 1513483596174, "trialdata": {"rt": -1000, "stimulus": "/static/audio/wordpool/CHIPMUNK.wav", "key_press": -1, "type": "PRES_AUD", "word": "chipmunk", "wordID": 303, "conditions": [24, 800, "a", 12000], "trial": 5, "serialpos": 5, "trial_type": "single-audio", "trial_index": 202, "time_elapsed": 960462, "internal_node_id": "0.0-148.0"}}, {"uniqueid": "MTK1267:3YGXWBAF71O59KYT4FFQ3ZCJS6G4C8", "current_trial": 203, "dateTime": 1513483598151, "trialdata": {"rt": -1000, "stimulus": "/static/audio/wordpool/BEAVER.wav", "key_press": -1, "type": "PRES_AUD", "word": "beaver", "wordID": 108, "conditions": [24, 800, "a", 12000], "trial": 5, "serialpos": 6, "trial_type": "single-audio", "trial_index": 203, "time_elapsed": 962440, "internal_node_id": "0.0-149.0"}}, {"uniqueid": "MTK1267:3YGXWBAF71O59KYT4FFQ3ZCJS6G4C8", "current_trial": 204, "dateTime": 1513483599860, "trialdata": {"rt": -1000, "stimulus": "/static/audio/wordpool/SADDLE.wav", "key_press": -1, "type": "PRES_AUD", "word": "saddle", "wordID": 1220, "conditions": [24, 800, "a", 12000], "trial": 5, "serialpos": 7, "trial_type": "single-audio", "trial_index": 204, "time_elapsed": 964149, "internal_node_id": "0.0-150.0"}}, {"uniqueid": "MTK1267:3YGXWBAF71O59KYT4FFQ3ZCJS6G4C8", "current_trial": 205, "dateTime": 1513483601578, "trialdata": {"rt": -1000, "stimulus": "/static/audio/wordpool/CARROT.wav", "key_press": -1, "type": "PRES_AUD", "word": "carrot", "wordID": 248, "conditions": [24, 800, "a", 12000], "trial": 5, "serialpos": 8, "trial_type": "single-audio", "trial_index": 205, "time_elapsed": 965867, "internal_node_id": "0.0-151.0"}}, {"uniqueid": "MTK1267:3YGXWBAF71O59KYT4FFQ3ZCJS6G4C8", "current_trial": 206, "dateTime": 1513483603375, "trialdata": {"rt": -1000, "stimulus": "/static/audio/wordpool/GIRL.wav", "key_press": -1, "type": "PRES_AUD", "word": "girl", "wordID": 636, "conditions": [24, 800, "a", 12000], "trial": 5, "serialpos": 9, "trial_type": "single-audio", "trial_index": 206, "time_elapsed": 967664, "internal_node_id": "0.0-152.0"}}, {"uniqueid": "MTK1267:3YGXWBAF71O59KYT4FFQ3ZCJS6G4C8", "current_trial": 207, "dateTime": 1513483605041, "trialdata": {"rt": -1000, "stimulus": "/static/audio/wordpool/WAITRESS.wav", "key_press": -1, "type": "PRES_AUD", "word": "waitress", "wordID": 1580, "conditions": [24, 800, "a", 12000], "trial": 5, "serialpos": 10, "trial_type": "single-audio", "trial_index": 207, "time_elapsed": 969329, "internal_node_id": "0.0-153.0"}}, {"uniqueid": "MTK1267:3YGXWBAF71O59KYT4FFQ3ZCJS6G4C8", "current_trial": 208, "dateTime": 1513483606924, "trialdata": {"rt": -1000, "stimulus": "/static/audio/wordpool/COD.wav", "key_press": -1, "type": "PRES_AUD", "word": "cod", "wordID": 339, "conditions": [24, 800, "a", 12000], "trial": 5, "serialpos": 11, "trial_type": "single-audio", "trial_index": 208, "time_elapsed": 971213, "internal_node_id": "0.0-154.0"}}, {"uniqueid": "MTK1267:3YGXWBAF71O59KYT4FFQ3ZCJS6G4C8", "current_trial": 209, "dateTime": 1513483608880, "trialdata": {"rt": -1000, "stimulus": "/static/audio/wordpool/EXPERT.wav", "key_press": -1, "type": "PRES_AUD", "word": "expert", "wordID": 542, "conditions": [24, 800, "a", 12000], "trial": 5, "serialpos": 12, "trial_type": "single-audio", "trial_index": 209, "time_elapsed": 973169, "internal_node_id": "0.0-155.0"}}, {"uniqueid": "MTK1267:3YGXWBAF71O59KYT4FFQ3ZCJS6G4C8", "current_trial": 210, "dateTime": 1513483610523, "trialdata": {"rt": -1000, "stimulus": "/static/audio/wordpool/KNIFE.wav", "key_press": -1, "type": "PRES_AUD", "word": "knife", "wordID": 784, "conditions": [24, 800, "a", 12000], "trial": 5, "serialpos": 13, "trial_type": "single-audio", "trial_index": 210, "time_elapsed": 974812, "internal_node_id": "0.0-156.0"}}, {"uniqueid": "MTK1267:3YGXWBAF71O59KYT4FFQ3ZCJS6G4C8", "current_trial": 211, "dateTime": 1513483612515, "trialdata": {"rt": -1000, "stimulus": "/static/audio/wordpool/CRAB.wav", "key_press": -1, "type": "PRES_AUD", "word": "crab", "wordID": 396, "conditions": [24, 800, "a", 12000], "trial": 5, "serialpos": 14, "trial_type": "single-audio", "trial_index": 211, "time_elapsed": 976804, "internal_node_id": "0.0-157.0"}}, {"uniqueid": "MTK1267:3YGXWBAF71O59KYT4FFQ3ZCJS6G4C8", "current_trial": 212, "dateTime": 1513483614120, "trialdata": {"rt": -1000, "stimulus": "/static/audio/wordpool/STALLION.wav", "key_press": -1, "type": "PRES_AUD", "word": "stallion", "wordID": 1368, "conditions": [24, 800, "a", 12000], "trial": 5, "serialpos": 15, "trial_type": "single-audio", "trial_index": 212, "time_elapsed": 978409, "internal_node_id": "0.0-158.0"}}, {"uniqueid": "MTK1267:3YGXWBAF71O59KYT4FFQ3ZCJS6G4C8", "current_trial": 213, "dateTime": 1513483615784, "trialdata": {"rt": -1000, "stimulus": "/static/audio/wordpool/RABBIT.wav", "key_press": -1, "type": "PRES_AUD", "word": "rabbit", "wordID": 1151, "conditions": [24, 800, "a", 12000], "trial": 5, "serialpos": 16, "trial_type": "single-audio", "trial_index": 213, "time_elapsed": 980072, "internal_node_id": "0.0-159.0"}}, {"uniqueid": "MTK1267:3YGXWBAF71O59KYT4FFQ3ZCJS6G4C8", "current_trial": 214, "dateTime": 1513483617769, "trialdata": {"rt": -1000, "stimulus": "/static/audio/wordpool/WOMAN.wav", "key_press": -1, "type": "PRES_AUD", "word": "woman", "wordID": 1619, "conditions": [24, 800, "a", 12000], "trial": 5, "serialpos": 17, "trial_type": "single-audio", "trial_index": 214, "time_elapsed": 982058, "internal_node_id": "0.0-160.0"}}, {"uniqueid": "MTK1267:3YGXWBAF71O59KYT4FFQ3ZCJS6G4C8", "current_trial": 215, "dateTime": 1513483619702, "trialdata": {"rt": -1000, "stimulus": "/static/audio/wordpool/COMPASS.wav", "key_press": -1, "type": "PRES_AUD", "word": "compass", "wordID": 357, "conditions": [24, 800, "a", 12000], "trial": 5, "serialpos": 18, "trial_type": "single-audio", "trial_index": 215, "time_elapsed": 983991, "internal_node_id": "0.0-161.0"}}, {"uniqueid": "MTK1267:3YGXWBAF71O59KYT4FFQ3ZCJS6G4C8", "current_trial": 216, "dateTime": 1513483621446, "trialdata": {"rt": -1000, "stimulus": "/static/audio/wordpool/CUSTARD.wav", "key_press": -1, "type": "PRES_AUD", "word": "custard", "wordID": 428, "conditions": [24, 800, "a", 12000], "trial": 5, "serialpos": 19, "trial_type": "single-audio", "trial_index": 216, "time_elapsed": 985734, "internal_node_id": "0.0-162.0"}}, {"uniqueid": "MTK1267:3YGXWBAF71O59KYT4FFQ3ZCJS6G4C8", "current_trial": 217, "dateTime": 1513483623130, "trialdata": {"rt": -1000, "stimulus": "/static/audio/wordpool/PASTRY.wav", "key_press": -1, "type": "PRES_AUD", "word": "pastry", "wordID": 1021, "conditions": [24, 800, "a", 12000], "trial": 5, "serialpos": 20, "trial_type": "single-audio", "trial_index": 217, "time_elapsed": 987419, "internal_node_id": "0.0-163.0"}}, {"uniqueid": "MTK1267:3YGXWBAF71O59KYT4FFQ3ZCJS6G4C8", "current_trial": 218, "dateTime": 1513483624788, "trialdata": {"rt": -1000, "stimulus": "/static/audio/wordpool/OYSTER.wav", "key_press": -1, "type": "PRES_AUD", "word": "oyster", "wordID": 994, "conditions": [24, 800, "a", 12000], "trial": 5, "serialpos": 21, "trial_type": "single-audio", "trial_index": 218, "time_elapsed": 989076, "internal_node_id": "0.0-164.0"}}, {"uniqueid": "MTK1267:3YGXWBAF71O59KYT4FFQ3ZCJS6G4C8", "current_trial": 219, "dateTime": 1513483626467, "trialdata": {"rt": -1000, "stimulus": "/static/audio/wordpool/LASER.wav", "key_press": -1, "type": "PRES_AUD", "word": "laser", "wordID": 800, "conditions": [24, 800, "a", 12000], "trial": 5, "serialpos": 22, "trial_type": "single-audio", "trial_index": 219, "time_elapsed": 990756, "internal_node_id": "0.0-165.0"}}, {"uniqueid": "MTK1267:3YGXWBAF71O59KYT4FFQ3ZCJS6G4C8", "current_trial": 220, "dateTime": 1513483628315, "trialdata": {"rt": -1000, "stimulus": "/static/audio/wordpool/LOFT.wav", "key_press": -1, "type": "PRES_AUD", "word": "loft", "wordID": 839, "conditions": [24, 800, "a", 12000], "trial": 5, "serialpos": 23, "trial_type": "single-audio", "trial_index": 220, "time_elapsed": 992604, "internal_node_id": "0.0-166.0"}}, {"uniqueid": "MTK1267:3YGXWBAF71O59KYT4FFQ3ZCJS6G4C8", "current_trial": 221, "dateTime": 1513483629637, "trialdata": {"rt": -1, "stimulus": "", "key_press": -1, "type": "PRE_RECALL_DELAY", "trial_type": "single-stim", "trial_index": 221, "time_elapsed": 993926, "internal_node_id": "0.0-167.0-0.0"}}, {"uniqueid": "MTK1267:3YGXWBAF71O59KYT4FFQ3ZCJS6G4C8", "current_trial": 222, "dateTime": 1513483630139, "trialdata": {"rt": -1000, "stimulus": "/static/audio/400Hz.wav", "key_press": -1, "type": "PRE_RECALL_ALERT", "trial_type": "single-audio", "trial_index": 222, "time_elapsed": 994428, "internal_node_id": "0.0-168.0"}}, {"uniqueid": "MTK1267:3YGXWBAF71O59KYT4FFQ3ZCJS6G4C8", "current_trial": 223, "dateTime": 1513483690154, "trialdata": {"rt": [2628, 3951, 5705, 6968, 34510], "recwords": ["laser", "loft", "custard", "pastry", "princess"], "type": "FREE_RECALL", "conditions": [24, 800, "a", 12000], "trial": 5, "trial_type": "free-recall", "trial_index": 223, "time_elapsed": 1054432, "internal_node_id": "0.0-169.0-0.0"}}, {"uniqueid": "MTK1267:3YGXWBAF71O59KYT4FFQ3ZCJS6G4C8", "current_trial": 224, "dateTime": 1513483732589, "trialdata": {"rt": 40434, "key_press": 32, "type": "INSTRUCTIONS", "trial_type": "text", "trial_index": 224, "time_elapsed": 1096878, "internal_node_id": "0.0-170.0"}}, {"uniqueid": "MTK1267:3YGXWBAF71O59KYT4FFQ3ZCJS6G4C8", "current_trial": 225, "dateTime": 1513483746596, "trialdata": {"rt": [7475, 9430, 11594], "responses": ["21", "11", "14"], "num1": [5, 1, 1, 7], "num2": [8, 6, 9, 1], "num3": [8, 4, 4, 2], "type": "DISTRACTOR", "conditions": [24, 1600, "v", 12000], "trial": 6, "trial_type": "math-distractor", "trial_index": 225, "time_elapsed": 1110885, "internal_node_id": "0.0-171.0"}}, {"uniqueid": "MTK1267:3YGXWBAF71O59KYT4FFQ3ZCJS6G4C8", "current_trial": 226, "dateTime": 1513483749599, "trialdata": {"rt": -1, "stimulus": "<p id=\"stim\">10</p>", "key_press": -1, "trial_type": "single-stim", "trial_index": 226, "time_elapsed": 1113888, "internal_node_id": "0.0-172.0-0.0"}}, {"uniqueid": "MTK1267:3YGXWBAF71O59KYT4FFQ3ZCJS6G4C8", "current_trial": 227, "dateTime": 1513483750601, "trialdata": {"rt": -1, "stimulus": "<p id=\"stim\">9</p>", "key_press": -1, "trial_type": "single-stim", "trial_index": 227, "time_elapsed": 1114890, "internal_node_id": "0.0-172.0-1.0"}}, {"uniqueid": "MTK1267:3YGXWBAF71O59KYT4FFQ3ZCJS6G4C8", "current_trial": 228, "dateTime": 1513483751603, "trialdata": {"rt": -1, "stimulus": "<p id=\"stim\">8</p>", "key_press": -1, "trial_type": "single-stim", "trial_index": 228, "time_elapsed": 1115892, "internal_node_id": "0.0-172.0-2.0"}}, {"uniqueid": "MTK1267:3YGXWBAF71O59KYT4FFQ3ZCJS6G4C8", "current_trial": 229, "dateTime": 1513483752605, "trialdata": {"rt": -1, "stimulus": "<p id=\"stim\">7</p>", "key_press": -1, "trial_type": "single-stim", "trial_index": 229, "time_elapsed": 1116894, "internal_node_id": "0.0-172.0-3.0"}}, {"uniqueid": "MTK1267:3YGXWBAF71O59KYT4FFQ3ZCJS6G4C8", "current_trial": 230, "dateTime": 1513483753607, "trialdata": {"rt": -1, "stimulus": "<p id=\"stim\">6</p>", "key_press": -1, "trial_type": "single-stim", "trial_index": 230, "time_elapsed": 1117896, "internal_node_id": "0.0-172.0-4.0"}}, {"uniqueid": "MTK1267:3YGXWBAF71O59KYT4FFQ3ZCJS6G4C8", "current_trial": 231, "dateTime": 1513483754610, "trialdata": {"rt": -1, "stimulus": "<p id=\"stim\">5</p>", "key_press": -1, "trial_type": "single-stim", "trial_index": 231, "time_elapsed": 1118898, "internal_node_id": "0.0-172.0-5.0"}}, {"uniqueid": "MTK1267:3YGXWBAF71O59KYT4FFQ3ZCJS6G4C8", "current_trial": 232, "dateTime": 1513483755612, "trialdata": {"rt": -1, "stimulus": "<p id=\"stim\">4</p>", "key_press": -1, "trial_type": "single-stim", "trial_index": 232, "time_elapsed": 1119901, "internal_node_id": "0.0-172.0-6.0"}}, {"uniqueid": "MTK1267:3YGXWBAF71O59KYT4FFQ3ZCJS6G4C8", "current_trial": 233, "dateTime": 1513483756614, "trialdata": {"rt": -1, "stimulus": "<p id=\"stim\">3</p>", "key_press": -1, "trial_type": "single-stim", "trial_index": 233, "time_elapsed": 1120903, "internal_node_id": "0.0-172.0-7.0"}}, {"uniqueid": "MTK1267:3YGXWBAF71O59KYT4FFQ3ZCJS6G4C8", "current_trial": 234, "dateTime": 1513483757617, "trialdata": {"rt": -1, "stimulus": "<p id=\"stim\">2</p>", "key_press": -1, "trial_type": "single-stim", "trial_index": 234, "time_elapsed": 1121905, "internal_node_id": "0.0-172.0-8.0"}}, {"uniqueid": "MTK1267:3YGXWBAF71O59KYT4FFQ3ZCJS6G4C8", "current_trial": 235, "dateTime": 1513483758620, "trialdata": {"rt": -1, "stimulus": "<p id=\"stim\">1</p>", "key_press": -1, "trial_type": "single-stim", "trial_index": 235, "time_elapsed": 1122909, "internal_node_id": "0.0-172.0-9.0"}}, {"uniqueid": "MTK1267:3YGXWBAF71O59KYT4FFQ3ZCJS6G4C8", "current_trial": 236, "dateTime": 1513483760122, "trialdata": {"rt": -1, "stimulus": "<p id=\"stim\">+</p>", "key_press": -1, "type": "FIXATION", "trial_type": "single-stim", "trial_index": 236, "time_elapsed": 1124410, "internal_node_id": "0.0-173.0-0.0"}}, {"uniqueid": "MTK1267:3YGXWBAF71O59KYT4FFQ3ZCJS6G4C8", "current_trial": 237, "dateTime": 1513483761724, "trialdata": {"rt": -1, "stimulus": "<p id=\"stim\">DRESS</p>", "key_press": -1, "type": "PRES_VIS", "word": "dress", "wordID": 494, "conditions": [24, 1600, "v", 12000], "trial": 6, "serialpos": 0, "trial_type": "single-stim", "trial_index": 237, "time_elapsed": 1126013, "internal_node_id": "0.0-174.0"}}, {"uniqueid": "MTK1267:3YGXWBAF71O59KYT4FFQ3ZCJS6G4C8", "current_trial": 238, "dateTime": 1513483764427, "trialdata": {"rt": -1, "stimulus": "<p id=\"stim\">PECAN</p>", "key_press": -1, "type": "PRES_VIS", "word": "pecan", "wordID": 1035, "conditions": [24, 1600, "v", 12000], "trial": 6, "serialpos": 1, "trial_type": "single-stim", "trial_index": 238, "time_elapsed": 1128715, "internal_node_id": "0.0-175.0"}}, {"uniqueid": "MTK1267:3YGXWBAF71O59KYT4FFQ3ZCJS6G4C8", "current_trial": 239, "dateTime": 1513483766996, "trialdata": {"rt": -1, "stimulus": "<p id=\"stim\">WRENCH</p>", "key_press": -1, "type": "PRES_VIS", "word": "wrench", "wordID": 1624, "conditions": [24, 1600, "v", 12000], "trial": 6, "serialpos": 2, "trial_type": "single-stim", "trial_index": 239, "time_elapsed": 1131285, "internal_node_id": "0.0-176.0"}}, {"uniqueid": "MTK1267:3YGXWBAF71O59KYT4FFQ3ZCJS6G4C8", "current_trial": 240, "dateTime": 1513483769752, "trialdata": {"rt": -1, "stimulus": "<p id=\"stim\">BOX</p>", "key_press": -1, "type": "PRES_VIS", "word": "box", "wordID": 158, "conditions": [24, 1600, "v", 12000], "trial": 6, "serialpos": 3, "trial_type": "single-stim", "trial_index": 240, "time_elapsed": 1134040, "internal_node_id": "0.0-177.0"}}, {"uniqueid": "MTK1267:3YGXWBAF71O59KYT4FFQ3ZCJS6G4C8", "current_trial": 241, "dateTime": 1513483772526, "trialdata": {"rt": -1, "stimulus": "<p id=\"stim\">AIRPORT</p>", "key_press": -1, "type": "PRES_VIS", "word": "airport", "wordID": 12, "conditions": [24, 1600, "v", 12000], "trial": 6, "serialpos": 4, "trial_type": "single-stim", "trial_index": 241, "time_elapsed": 1136815, "internal_node_id": "0.0-178.0"}}, {"uniqueid": "MTK1267:3YGXWBAF71O59KYT4FFQ3ZCJS6G4C8", "current_trial": 242, "dateTime": 1513483775111, "trialdata": {"rt": -1, "stimulus": "<p id=\"stim\">TROMBONE</p>", "key_press": -1, "type": "PRES_VIS", "word": "trombone", "wordID": 1507, "conditions": [24, 1600, "v", 12000], "trial": 6, "serialpos": 5, "trial_type": "single-stim", "trial_index": 242, "time_elapsed": 1139400, "internal_node_id": "0.0-179.0"}}, {"uniqueid": "MTK1267:3YGXWBAF71O59KYT4FFQ3ZCJS6G4C8", "current_trial": 243, "dateTime": 1513483777653, "trialdata": {"rt": -1, "stimulus": "<p id=\"stim\">JELLY</p>", "key_press": -1, "type": "PRES_VIS", "word": "jelly", "wordID": 754, "conditions": [24, 1600, "v", 12000], "trial": 6, "serialpos": 6, "trial_type": "single-stim", "trial_index": 243, "time_elapsed": 1141942, "internal_node_id": "0.0-180.0"}}, {"uniqueid": "MTK1267:3YGXWBAF71O59KYT4FFQ3ZCJS6G4C8", "current_trial": 244, "dateTime": 1513483780109, "trialdata": {"rt": -1, "stimulus": "<p id=\"stim\">PEANUT</p>", "key_press": -1, "type": "PRES_VIS", "word": "peanut", "wordID": 1031, "conditions": [24, 1600, "v", 12000], "trial": 6, "serialpos": 7, "trial_type": "single-stim", "trial_index": 244, "time_elapsed": 1144398, "internal_node_id": "0.0-181.0"}}, {"uniqueid": "MTK1267:3YGXWBAF71O59KYT4FFQ3ZCJS6G4C8", "current_trial": 245, "dateTime": 1513483782538, "trialdata": {"rt": -1, "stimulus": "<p id=\"stim\">INFANT</p>", "key_press": -1, "type": "PRES_VIS", "word": "infant", "wordID": 736, "conditions": [24, 1600, "v", 12000], "trial": 6, "serialpos": 8, "trial_type": "single-stim", "trial_index": 245, "time_elapsed": 1146827, "internal_node_id": "0.0-182.0"}}, {"uniqueid": "MTK1267:3YGXWBAF71O59KYT4FFQ3ZCJS6G4C8", "current_trial": 246, "dateTime": 1513483785065, "trialdata": {"rt": -1, "stimulus": "<p id=\"stim\">CRIB</p>", "key_press": -1, "type": "PRES_VIS", "word": "crib", "wordID": 406, "conditions": [24, 1600, "v", 12000], "trial": 6, "serialpos": 9, "trial_type": "single-stim", "trial_index": 246, "time_elapsed": 1149354, "internal_node_id": "0.0-183.0"}}, {"uniqueid": "MTK1267:3YGXWBAF71O59KYT4FFQ3ZCJS6G4C8", "current_trial": 247, "dateTime": 1513483787838, "trialdata": {"rt": -1, "stimulus": "<p id=\"stim\">SUBWAY</p>", "key_press": -1, "type": "PRES_VIS", "word": "subway", "wordID": 1399, "conditions": [24, 1600, "v", 12000], "trial": 6, "serialpos": 10, "trial_type": "single-stim", "trial_index": 247, "time_elapsed": 1152126, "internal_node_id": "0.0-184.0"}}, {"uniqueid": "MTK1267:3YGXWBAF71O59KYT4FFQ3ZCJS6G4C8", "current_trial": 248, "dateTime": 1513483790555, "trialdata": {"rt": -1, "stimulus": "<p id=\"stim\">SKETCH</p>", "key_press": -1, "type": "PRES_VIS", "word": "sketch", "wordID": 1314, "conditions": [24, 1600, "v", 12000], "trial": 6, "serialpos": 11, "trial_type": "single-stim", "trial_index": 248, "time_elapsed": 1154844, "internal_node_id": "0.0-185.0"}}, {"uniqueid": "MTK1267:3YGXWBAF71O59KYT4FFQ3ZCJS6G4C8", "current_trial": 249, "dateTime": 1513483793054, "trialdata": {"rt": -1, "stimulus": "<p id=\"stim\">SPACE</p>", "key_press": -1, "type": "PRES_VIS", "word": "space", "wordID": 1344, "conditions": [24, 1600, "v", 12000], "trial": 6, "serialpos": 12, "trial_type": "single-stim", "trial_index": 249, "time_elapsed": 1157343, "internal_node_id": "0.0-186.0"}}, {"uniqueid": "MTK1267:3YGXWBAF71O59KYT4FFQ3ZCJS6G4C8", "current_trial": 250, "dateTime": 1513483795831, "trialdata": {"rt": -1, "stimulus": "<p id=\"stim\">CASHEW</p>", "key_press": -1, "type": "PRES_VIS", "word": "cashew", "wordID": 252, "conditions": [24, 1600, "v", 12000], "trial": 6, "serialpos": 13, "trial_type": "single-stim", "trial_index": 250, "time_elapsed": 1160120, "internal_node_id": "0.0-187.0"}}, {"uniqueid": "MTK1267:3YGXWBAF71O59KYT4FFQ3ZCJS6G4C8", "current_trial": 251, "dateTime": 1513483798467, "trialdata": {"rt": -1, "stimulus": "<p id=\"stim\">ISLAND</p>", "key_press": -1, "type": "PRES_VIS", "word": "island", "wordID": 744, "conditions": [24, 1600, "v", 12000], "trial": 6, "serialpos": 14, "trial_type": "single-stim", "trial_index": 251, "time_elapsed": 1162756, "internal_node_id": "0.0-188.0"}}, {"uniqueid": "MTK1267:3YGXWBAF71O59KYT4FFQ3ZCJS6G4C8", "current_trial": 252, "dateTime": 1513483801239, "trialdata": {"rt": -1, "stimulus": "<p id=\"stim\">BODY</p>", "key_press": -1, "type": "PRES_VIS", "word": "body", "wordID": 144, "conditions": [24, 1600, "v", 12000], "trial": 6, "serialpos": 15, "trial_type": "single-stim", "trial_index": 252, "time_elapsed": 1165528, "internal_node_id": "0.0-189.0"}}, {"uniqueid": "MTK1267:3YGXWBAF71O59KYT4FFQ3ZCJS6G4C8", "current_trial": 253, "dateTime": 1513483803744, "trialdata": {"rt": -1, "stimulus": "<p id=\"stim\">FRAGRANCE</p>", "key_press": -1, "type": "PRES_VIS", "word": "fragrance", "wordID": 598, "conditions": [24, 1600, "v", 12000], "trial": 6, "serialpos": 16, "trial_type": "single-stim", "trial_index": 253, "time_elapsed": 1168033, "internal_node_id": "0.0-190.0"}}, {"uniqueid": "MTK1267:3YGXWBAF71O59KYT4FFQ3ZCJS6G4C8", "current_trial": 254, "dateTime": 1513483806321, "trialdata": {"rt": -1, "stimulus": "<p id=\"stim\">PERFUME</p>", "key_press": -1, "type": "PRES_VIS", "word": "perfume", "wordID": 1048, "conditions": [24, 1600, "v", 12000], "trial": 6, "serialpos": 17, "trial_type": "single-stim", "trial_index": 254, "time_elapsed": 1170609, "internal_node_id": "0.0-191.0"}}, {"uniqueid": "MTK1267:3YGXWBAF71O59KYT4FFQ3ZCJS6G4C8", "current_trial": 255, "dateTime": 1513483808856, "trialdata": {"rt": -1, "stimulus": "<p id=\"stim\">PATROL</p>", "key_press": -1, "type": "PRES_VIS", "word": "patrol", "wordID": 1026, "conditions": [24, 1600, "v", 12000], "trial": 6, "serialpos": 18, "trial_type": "single-stim", "trial_index": 255, "time_elapsed": 1173145, "internal_node_id": "0.0-192.0"}}, {"uniqueid": "MTK1267:3YGXWBAF71O59KYT4FFQ3ZCJS6G4C8", "current_trial": 256, "dateTime": 1513483811529, "trialdata": {"rt": -1, "stimulus": "<p id=\"stim\">APRON</p>", "key_press": -1, "type": "PRES_VIS", "word": "apron", "wordID": 34, "conditions": [24, 1600, "v", 12000], "trial": 6, "serialpos": 19, "trial_type": "single-stim", "trial_index": 256, "time_elapsed": 1175818, "internal_node_id": "0.0-193.0"}}, {"uniqueid": "MTK1267:3YGXWBAF71O59KYT4FFQ3ZCJS6G4C8", "current_trial": 257, "dateTime": 1513483814041, "trialdata": {"rt": -1, "stimulus": "<p id=\"stim\">PUDDING</p>", "key_press": -1, "type": "PRES_VIS", "word": "pudding", "wordID": 1138, "conditions": [24, 1600, "v", 12000], "trial": 6, "serialpos": 20, "trial_type": "single-stim", "trial_index": 257, "time_elapsed": 1178330, "internal_node_id": "0.0-194.0"}}, {"uniqueid": "MTK1267:3YGXWBAF71O59KYT4FFQ3ZCJS6G4C8", "current_trial": 258, "dateTime": 1513483816656, "trialdata": {"rt": -1, "stimulus": "<p id=\"stim\">WRIST</p>", "key_press": -1, "type": "PRES_VIS", "word": "wrist", "wordID": 1625, "conditions": [24, 1600, "v", 12000], "trial": 6, "serialpos": 21, "trial_type": "single-stim", "trial_index": 258, "time_elapsed": 1180945, "internal_node_id": "0.0-195.0"}}, {"uniqueid": "MTK1267:3YGXWBAF71O59KYT4FFQ3ZCJS6G4C8", "current_trial": 259, "dateTime": 1513483819142, "trialdata": {"rt": -1, "stimulus": "<p id=\"stim\">ROCKET</p>", "key_press": -1, "type": "PRES_VIS", "word": "rocket", "wordID": 1201, "conditions": [24, 1600, "v", 12000], "trial": 6, "serialpos": 22, "trial_type": "single-stim", "trial_index": 259, "time_elapsed": 1183431, "internal_node_id": "0.0-196.0"}}, {"uniqueid": "MTK1267:3YGXWBAF71O59KYT4FFQ3ZCJS6G4C8", "current_trial": 260, "dateTime": 1513483821888, "trialdata": {"rt": -1, "stimulus": "<p id=\"stim\">POLICE</p>", "key_press": -1, "type": "PRES_VIS", "word": "police", "wordID": 1097, "conditions": [24, 1600, "v", 12000], "trial": 6, "serialpos": 23, "trial_type": "single-stim", "trial_index": 260, "time_elapsed": 1186176, "internal_node_id": "0.0-197.0"}}, {"uniqueid": "MTK1267:3YGXWBAF71O59KYT4FFQ3ZCJS6G4C8", "current_trial": 261, "dateTime": 1513483824152, "trialdata": {"rt": -1, "stimulus": "", "key_press": -1, "type": "PRE_RECALL_DELAY", "trial_type": "single-stim", "trial_index": 261, "time_elapsed": 1188440, "internal_node_id": "0.0-198.0-0.0"}}, {"uniqueid": "MTK1267:3YGXWBAF71O59KYT4FFQ3ZCJS6G4C8", "current_trial": 262, "dateTime": 1513483824653, "trialdata": {"rt": -1000, "stimulus": "/static/audio/400Hz.wav", "key_press": -1, "type": "PRE_RECALL_ALERT", "trial_type": "single-audio", "trial_index": 262, "time_elapsed": 1188942, "internal_node_id": "0.0-199.0"}}, {"uniqueid": "MTK1267:3YGXWBAF71O59KYT4FFQ3ZCJS6G4C8", "current_trial": 263, "dateTime": 1513483884668, "trialdata": {"rt": [1978, 3861, 5473, 6555, 7828, 9100, 15460, 16773, 37016, 43678, 45633], "recwords": ["police", "patrol", "jelly", "peanut", "cashew", "pecan", "airport", "subway", "trombone", "fragrance", "perfume"], "type": "FREE_RECALL", "conditions": [24, 1600, "v", 12000], "trial": 6, "trial_type": "free-recall", "trial_index": 263, "time_elapsed": 1248949, "internal_node_id": "0.0-200.0-0.0"}}, {"uniqueid": "MTK1267:3YGXWBAF71O59KYT4FFQ3ZCJS6G4C8", "current_trial": 264, "dateTime": 1513483887050, "trialdata": {"rt": 380, "key_press": 32, "type": "INSTRUCTIONS", "trial_type": "text", "trial_index": 264, "time_elapsed": 1251339, "internal_node_id": "0.0-201.0"}}, {"uniqueid": "MTK1267:3YGXWBAF71O59KYT4FFQ3ZCJS6G4C8", "current_trial": 265, "dateTime": 1513483913054, "trialdata": {"rt": [3023, 10127, 13893, 17400, 19253, 22468], "responses": ["7", "18", "12", "16", "12", "18"], "num1": [4, 4, 5, 5, 2, 9, 1], "num2": [2, 9, 1, 7, 8, 2, 6], "num3": [1, 5, 6, 4, 2, 7, 2], "type": "DISTRACTOR", "conditions": [12, 1600, "v", 24000], "trial": 7, "trial_type": "math-distractor", "trial_index": 265, "time_elapsed": 1277343, "internal_node_id": "0.0-202.0"}}, {"uniqueid": "MTK1267:3YGXWBAF71O59KYT4FFQ3ZCJS6G4C8", "current_trial": 266, "dateTime": 1513483916062, "trialdata": {"rt": -1, "stimulus": "<p id=\"stim\">10</p>", "key_press": -1, "trial_type": "single-stim", "trial_index": 266, "time_elapsed": 1280351, "internal_node_id": "0.0-203.0-0.0"}}, {"uniqueid": "MTK1267:3YGXWBAF71O59KYT4FFQ3ZCJS6G4C8", "current_trial": 267, "dateTime": 1513483917064, "trialdata": {"rt": -1, "stimulus": "<p id=\"stim\">9</p>", "key_press": -1, "trial_type": "single-stim", "trial_index": 267, "time_elapsed": 1281353, "internal_node_id": "0.0-203.0-1.0"}}, {"uniqueid": "MTK1267:3YGXWBAF71O59KYT4FFQ3ZCJS6G4C8", "current_trial": 268, "dateTime": 1513483918077, "trialdata": {"rt": -1, "stimulus": "<p id=\"stim\">8</p>", "key_press": -1, "trial_type": "single-stim", "trial_index": 268, "time_elapsed": 1282366, "internal_node_id": "0.0-203.0-2.0"}}, {"uniqueid": "MTK1267:3YGXWBAF71O59KYT4FFQ3ZCJS6G4C8", "current_trial": 269, "dateTime": 1513483919082, "trialdata": {"rt": -1, "stimulus": "<p id=\"stim\">7</p>", "key_press": -1, "trial_type": "single-stim", "trial_index": 269, "time_elapsed": 1283371, "internal_node_id": "0.0-203.0-3.0"}}, {"uniqueid": "MTK1267:3YGXWBAF71O59KYT4FFQ3ZCJS6G4C8", "current_trial": 270, "dateTime": 1513483920085, "trialdata": {"rt": -1, "stimulus": "<p id=\"stim\">6</p>", "key_press": -1, "trial_type": "single-stim", "trial_index": 270, "time_elapsed": 1284373, "internal_node_id": "0.0-203.0-4.0"}}, {"uniqueid": "MTK1267:3YGXWBAF71O59KYT4FFQ3ZCJS6G4C8", "current_trial": 271, "dateTime": 1513483921087, "trialdata": {"rt": -1, "stimulus": "<p id=\"stim\">5</p>", "key_press": -1, "trial_type": "single-stim", "trial_index": 271, "time_elapsed": 1285376, "internal_node_i