{"assignmentId": "3GD6L00D3T41Q7D1UMQ28XASEMRM1O", "workerId": "MTK1870", "questiondata": {"origin": "United States", "strat-rehearsal": "5", "marital": "Single", "education": "High school diploma", "ethnicity": "Not Hispanic", "color_depth": 24, "distracted": "Yes", "wrote-notes": "No", "strat-other": "", "screen_width": 1360, "avail_screen_width": 1360, "avail_screen_height": 728, "strat-image": "57", "language": "English", "gender": "Male", "age": "30", "gender_other": "", "race": ["White"], "strat-categorize": "85", "pixel_depth": 24, "strat-spatial": "6", "strat-story": "7", "race_other": "", "screen_height": 768}, "bonus": 0, "hitId": "3HY86PZXPYP1RZNUNMXH659ZNFL1EW", "counterbalance": 803, "useragent": "Mozilla/5.0 (Windows NT 10.0; Win64; x64) AppleWebKit/537.36 (KHTML, like Gecko) Chrome/63.0.3239.132 Safari/537.36", "eventdata": [{"eventtype": "initialized", "interval": 0, "value": null, "timestamp": 1516482311616}, {"eventtype": "window_resize", "interval": 0, "value": [1360, 677], "timestamp": 1516482311616}, {"eventtype": "focus", "interval": 26725, "value": "off", "timestamp": 1516482338341}, {"eventtype": "focus", "interval": 4573, "value": "on", "timestamp": 1516482342914}, {"eventtype": "focus", "interval": 33616, "value": "off", "timestamp": 1516482376530}, {"eventtype": "focus", "interval": 0, "value": "on", "timestamp": 1516482376530}, {"eventtype": "focus", "interval": 3073405, "value": "off", "timestamp": 1516485449935}, {"eventtype": "focus", "interval": 4030, "value": "on", "timestamp": 1516485453965}, {"eventtype": "focus", "interval": 342, "value": "off", "timestamp": 1516485454307}, {"eventtype": "focus", "interval": 5052, "value": "on", "timestamp": 1516485459359}, {"eventtype": "focus", "interval": 1, "value": "off", "timestamp": 1516485459360}, {"eventtype": "focus", "interval": 16, "value": "on", "timestamp": 1516485459376}, {"eventtype": "focus", "interval": 4, "value": "off", "timestamp": 1516485459380}, {"eventtype": "focus", "interval": 7094, "value": "on", "timestamp": 1516485466474}], "data": [{"current_trial": 0, "trialdata": {"rt": 2875, "trial_type": "text", "internal_node_id": "0.0-0.0", "time_elapsed": 2877, "key_press": 13, "type": "INSTRUCTIONS", "trial_index": 0}, "uniqueid": "MTK1870:3GD6L00D3T41Q7D1UMQ28XASEMRM1O", "dateTime": 1516482336540}, {"current_trial": 1, "trialdata": {"rt": 1638, "trial_type": "text", "internal_node_id": "0.0-1.0", "time_elapsed": 4517, "key_press": 18, "type": "INSTRUCTIONS", "trial_index": 1}, "uniqueid": "MTK1870:3GD6L00D3T41Q7D1UMQ28XASEMRM1O", "dateTime": 1516482338180}, {"current_trial": 2, "trialdata": {"rt": [26861], "trial_type": "audio-test", "responses": ["ocean"], "internal_node_id": "0.0-2.0", "time_elapsed": 31412, "type": "AUDIO_TEST", "trial_index": 2}, "uniqueid": "MTK1870:3GD6L00D3T41Q7D1UMQ28XASEMRM1O", "dateTime": 1516482365075}, {"current_trial": 3, "trialdata": {"rt": [5915], "trial_type": "audio-test", "responses": ["crystal"], "internal_node_id": "0.0-3.0", "time_elapsed": 37331, "type": "AUDIO_TEST", "trial_index": 3}, "uniqueid": "MTK1870:3GD6L00D3T41Q7D1UMQ28XASEMRM1O", "dateTime": 1516482370994}, {"current_trial": 4, "trialdata": {"rt": [2494, 9381], "trial_type": "audio-test", "responses": ["", "spice"], "internal_node_id": "0.0-4.0", "time_elapsed": 46715, "type": "AUDIO_TEST", "trial_index": 4}, "uniqueid": "MTK1870:3GD6L00D3T41Q7D1UMQ28XASEMRM1O", "dateTime": 1516482380378}, {"current_trial": 5, "trialdata": {"rt": 45361, "trial_type": "survey-text", "responses": "{\"Q0\":\"1 am\",\"Q1\":\"8 am\",\"Q2\":\"5\"}", "internal_node_id": "0.0-5.0", "time_elapsed": 92829, "type": "SLEEP_SURVEY", "trial_index": 5}, "uniqueid": "MTK1870:3GD6L00D3T41Q7D1UMQ28XASEMRM1O", "dateTime": 1516482426492}, {"current_trial": 6, "trialdata": {"rt": 38915, "trial_type": "text", "internal_node_id": "0.0-6.0", "time_elapsed": 132744, "key_press": 13, "type": "INSTRUCTIONS", "trial_index": 6}, "uniqueid": "MTK1870:3GD6L00D3T41Q7D1UMQ28XASEMRM1O", "dateTime": 1516482466407}, {"current_trial": 7, "trialdata": {"rt": 36356, "trial_type": "text", "internal_node_id": "0.0-7.0", "time_elapsed": 169601, "key_press": 32, "type": "INSTRUCTIONS", "trial_index": 7}, "uniqueid": "MTK1870:3GD6L00D3T41Q7D1UMQ28XASEMRM1O", "dateTime": 1516482503264}, {"current_trial": 8, "trialdata": {"rt": 16392, "trial_type": "text", "internal_node_id": "0.0-8.0", "time_elapsed": 186496, "key_press": 32, "type": "INSTRUCTIONS", "trial_index": 8}, "uniqueid": "MTK1870:3GD6L00D3T41Q7D1UMQ28XASEMRM1O", "dateTime": 1516482520159}, {"current_trial": 9, "trialdata": {"rt": [6132, 13004, 16387], "trial_type": "math-distractor", "key_times": [5045, 5140, 6132, 12213, 12388, 13004, 16003, 16092, 16387], "responses": ["13", "22", "12"], "num2": [1, 8, 2, 1], "num3": [8, 5, 6, 1], "conditions": [18, 1200, "a", 18000], "internal_node_id": "0.0-9.0", "key_presses": [49, 51, 13, 50, 50, 13, 49, 50, 13], "trial": 0, "time_elapsed": 205501, "type": "DISTRACTOR", "trial_index": 9, "num1": [4, 9, 4, 6]}, "uniqueid": "MTK1870:3GD6L00D3T41Q7D1UMQ28XASEMRM1O", "dateTime": 1516482539164}, {"current_trial": 10, "trialdata": {"rt": -1, "trial_type": "single-stim", "stimulus": "<p id=\"stim\">10</p>", "internal_node_id": "0.0-10.0-0.0", "time_elapsed": 208503, "key_press": -1, "trial_index": 10}, "uniqueid": "MTK1870:3GD6L00D3T41Q7D1UMQ28XASEMRM1O", "dateTime": 1516482542166}, {"current_trial": 11, "trialdata": {"rt": -1, "trial_type": "single-stim", "stimulus": "<p id=\"stim\">9</p>", "internal_node_id": "0.0-10.0-1.0", "time_elapsed": 209503, "key_press": -1, "trial_index": 11}, "uniqueid": "MTK1870:3GD6L00D3T41Q7D1UMQ28XASEMRM1O", "dateTime": 1516482543166}, {"current_trial": 12, "trialdata": {"rt": -1, "trial_type": "single-stim", "stimulus": "<p id=\"stim\">8</p>", "internal_node_id": "0.0-10.0-2.0", "time_elapsed": 210503, "key_press": -1, "trial_index": 12}, "uniqueid": "MTK1870:3GD6L00D3T41Q7D1UMQ28XASEMRM1O", "dateTime": 1516482544166}, {"current_trial": 13, "trialdata": {"rt": -1, "trial_type": "single-stim", "stimulus": "<p id=\"stim\">7</p>", "internal_node_id": "0.0-10.0-3.0", "time_elapsed": 211504, "key_press": -1, "trial_index": 13}, "uniqueid": "MTK1870:3GD6L00D3T41Q7D1UMQ28XASEMRM1O", "dateTime": 1516482545167}, {"current_trial": 14, "trialdata": {"rt": -1, "trial_type": "single-stim", "stimulus": "<p id=\"stim\">6</p>", "internal_node_id": "0.0-10.0-4.0", "time_elapsed": 212505, "key_press": -1, "trial_index": 14}, "uniqueid": "MTK1870:3GD6L00D3T41Q7D1UMQ28XASEMRM1O", "dateTime": 1516482546168}, {"current_trial": 15, "trialdata": {"rt": -1, "trial_type": "single-stim", "stimulus": "<p id=\"stim\">5</p>", "internal_node_id": "0.0-10.0-5.0", "time_elapsed": 213507, "key_press": -1, "trial_index": 15}, "uniqueid": "MTK1870:3GD6L00D3T41Q7D1UMQ28XASEMRM1O", "dateTime": 1516482547170}, {"current_trial": 16, "trialdata": {"rt": -1, "trial_type": "single-stim", "stimulus": "<p id=\"stim\">4</p>", "internal_node_id": "0.0-10.0-6.0", "time_elapsed": 214508, "key_press": -1, "trial_index": 16}, "uniqueid": "MTK1870:3GD6L00D3T41Q7D1UMQ28XASEMRM1O", "dateTime": 1516482548172}, {"current_trial": 17, "trialdata": {"rt": -1, "trial_type": "single-stim", "stimulus": "<p id=\"stim\">3</p>", "internal_node_id": "0.0-10.0-7.0", "time_elapsed": 215510, "key_press": -1, "trial_index": 17}, "uniqueid": "MTK1870:3GD6L00D3T41Q7D1UMQ28XASEMRM1O", "dateTime": 1516482549173}, {"current_trial": 18, "trialdata": {"rt": -1, "trial_type": "single-stim", "stimulus": "<p id=\"stim\">2</p>", "internal_node_id": "0.0-10.0-8.0", "time_elapsed": 216511, "key_press": -1, "trial_index": 18}, "uniqueid": "MTK1870:3GD6L00D3T41Q7D1UMQ28XASEMRM1O", "dateTime": 1516482550174}, {"current_trial": 19, "trialdata": {"rt": -1, "trial_type": "single-stim", "stimulus": "<p id=\"stim\">1</p>", "internal_node_id": "0.0-10.0-9.0", "time_elapsed": 217512, "key_press": -1, "trial_index": 19}, "uniqueid": "MTK1870:3GD6L00D3T41Q7D1UMQ28XASEMRM1O", "dateTime": 1516482551175}, {"current_trial": 20, "trialdata": {"rt": -1, "trial_type": "single-stim", "stimulus": "<p id=\"stim\">+</p>", "internal_node_id": "0.0-11.0-0.0", "time_elapsed": 219014, "key_press": -1, "type": "FIXATION", "trial_index": 20}, "uniqueid": "MTK1870:3GD6L00D3T41Q7D1UMQ28XASEMRM1O", "dateTime": 1516482552677}, {"current_trial": 21, "trialdata": {"rt": -1000, "trial_type": "single-audio", "word": "poison", "stimulus": "/static/audio/wordpool/POISON.wav", "conditions": [18, 1200, "a", 18000], "internal_node_id": "0.0-12.0", "trial": 0, "time_elapsed": 221172, "serialpos": 0, "key_press": -1, "wordID": 1095, "type": "PRES_AUD", "trial_index": 21}, "uniqueid": "MTK1870:3GD6L00D3T41Q7D1UMQ28XASEMRM1O", "dateTime": 1516482554836}, {"current_trial": 22, "trialdata": {"rt": -1000, "trial_type": "single-audio", "word": "braces", "stimulus": "/static/audio/wordpool/BRACES.wav", "conditions": [18, 1200, "a", 18000], "internal_node_id": "0.0-13.0", "trial": 0, "time_elapsed": 223439, "serialpos": 1, "key_press": -1, "wordID": 163, "type": "PRES_AUD", "trial_index": 22}, "uniqueid": "MTK1870:3GD6L00D3T41Q7D1UMQ28XASEMRM1O", "dateTime": 1516482557102}, {"current_trial": 23, "trialdata": {"rt": -30.666666666661513, "trial_type": "single-audio", "word": "drink", "stimulus": "/static/audio/wordpool/DRINK.wav", "conditions": [18, 1200, "a", 18000], "internal_node_id": "0.0-14.0", "trial": 0, "time_elapsed": 225467, "serialpos": 2, "key_press": 175, "wordID": 497, "type": "PRES_AUD", "trial_index": 23}, "uniqueid": "MTK1870:3GD6L00D3T41Q7D1UMQ28XASEMRM1O", "dateTime": 1516482559130}, {"current_trial": 24, "trialdata": {"rt": -1000, "trial_type": "single-audio", "word": "lava", "stimulus": "/static/audio/wordpool/LAVA.wav", "conditions": [18, 1200, "a", 18000], "internal_node_id": "0.0-15.0", "trial": 0, "time_elapsed": 227804, "serialpos": 3, "key_press": -1, "wordID": 803, "type": "PRES_AUD", "trial_index": 24}, "uniqueid": "MTK1870:3GD6L00D3T41Q7D1UMQ28XASEMRM1O", "dateTime": 1516482561467}, {"current_trial": 25, "trialdata": {"rt": -1000, "trial_type": "single-audio", "word": "puppy", "stimulus": "/static/audio/wordpool/PUPPY.wav", "conditions": [18, 1200, "a", 18000], "internal_node_id": "0.0-16.0", "trial": 0, "time_elapsed": 229992, "serialpos": 4, "key_press": -1, "wordID": 1143, "type": "PRES_AUD", "trial_index": 25}, "uniqueid": "MTK1870:3GD6L00D3T41Q7D1UMQ28XASEMRM1O", "dateTime": 1516482563656}, {"current_trial": 26, "trialdata": {"rt": -1000, "trial_type": "single-audio", "word": "stallion", "stimulus": "/static/audio/wordpool/STALLION.wav", "conditions": [18, 1200, "a", 18000], "internal_node_id": "0.0-17.0", "trial": 0, "time_elapsed": 232096, "serialpos": 5, "key_press": -1, "wordID": 1368, "type": "PRES_AUD", "trial_index": 26}, "uniqueid": "MTK1870:3GD6L00D3T41Q7D1UMQ28XASEMRM1O", "dateTime": 1516482565759}, {"current_trial": 27, "trialdata": {"rt": -1000, "trial_type": "single-audio", "word": "cashew", "stimulus": "/static/audio/wordpool/CASHEW.wav", "conditions": [18, 1200, "a", 18000], "internal_node_id": "0.0-18.0", "trial": 0, "time_elapsed": 234440, "serialpos": 6, "key_press": -1, "wordID": 252, "type": "PRES_AUD", "trial_index": 27}, "uniqueid": "MTK1870:3GD6L00D3T41Q7D1UMQ28XASEMRM1O", "dateTime": 1516482568104}, {"current_trial": 28, "trialdata": {"rt": -1000, "trial_type": "single-audio", "word": "grape", "stimulus": "/static/audio/wordpool/GRAPE.wav", "conditions": [18, 1200, "a", 18000], "internal_node_id": "0.0-19.0", "trial": 0, "time_elapsed": 236516, "serialpos": 7, "key_press": -1, "wordID": 653, "type": "PRES_AUD", "trial_index": 28}, "uniqueid": "MTK1870:3GD6L00D3T41Q7D1UMQ28XASEMRM1O", "dateTime": 1516482570179}, {"current_trial": 29, "trialdata": {"rt": -1000, "trial_type": "single-audio", "word": "zipper", "stimulus": "/static/audio/wordpool/ZIPPER.wav", "conditions": [18, 1200, "a", 18000], "internal_node_id": "0.0-20.0", "trial": 0, "time_elapsed": 238703, "serialpos": 8, "key_press": -1, "wordID": 1635, "type": "PRES_AUD", "trial_index": 29}, "uniqueid": "MTK1870:3GD6L00D3T41Q7D1UMQ28XASEMRM1O", "dateTime": 1516482572366}, {"current_trial": 30, "trialdata": {"rt": -1000, "trial_type": "single-audio", "word": "robot", "stimulus": "/static/audio/wordpool/ROBOT.wav", "conditions": [18, 1200, "a", 18000], "internal_node_id": "0.0-21.0", "trial": 0, "time_elapsed": 240797, "serialpos": 9, "key_press": -1, "wordID": 1199, "type": "PRES_AUD", "trial_index": 30}, "uniqueid": "MTK1870:3GD6L00D3T41Q7D1UMQ28XASEMRM1O", "dateTime": 1516482574461}, {"current_trial": 31, "trialdata": {"rt": -1000, "trial_type": "single-audio", "word": "survey", "stimulus": "/static/audio/wordpool/SURVEY.wav", "conditions": [18, 1200, "a", 18000], "internal_node_id": "0.0-22.0", "trial": 0, "time_elapsed": 243143, "serialpos": 10, "key_press": -1, "wordID": 1413, "type": "PRES_AUD", "trial_index": 31}, "uniqueid": "MTK1870:3GD6L00D3T41Q7D1UMQ28XASEMRM1O", "dateTime": 1516482576806}, {"current_trial": 32, "trialdata": {"rt": -1000, "trial_type": "single-audio", "word": "foot", "stimulus": "/static/audio/wordpool/FOOT.wav", "conditions": [18, 1200, "a", 18000], "internal_node_id": "0.0-23.0", "trial": 0, "time_elapsed": 245544, "serialpos": 11, "key_press": -1, "wordID": 589, "type": "PRES_AUD", "trial_index": 32}, "uniqueid": "MTK1870:3GD6L00D3T41Q7D1UMQ28XASEMRM1O", "dateTime": 1516482579207}, {"current_trial": 33, "trialdata": {"rt": -1000, "trial_type": "single-audio", "word": "icing", "stimulus": "/static/audio/wordpool/ICING.wav", "conditions": [18, 1200, "a", 18000], "internal_node_id": "0.0-24.0", "trial": 0, "time_elapsed": 247918, "serialpos": 12, "key_press": -1, "wordID": 731, "type": "PRES_AUD", "trial_index": 33}, "uniqueid": "MTK1870:3GD6L00D3T41Q7D1UMQ28XASEMRM1O", "dateTime": 1516482581581}, {"current_trial": 34, "trialdata": {"rt": -1000, "trial_type": "single-audio", "word": "egypt", "stimulus": "/static/audio/wordpool/EGYPT.wav", "conditions": [18, 1200, "a", 18000], "internal_node_id": "0.0-25.0", "trial": 0, "time_elapsed": 249974, "serialpos": 13, "key_press": -1, "wordID": 518, "type": "PRES_AUD", "trial_index": 34}, "uniqueid": "MTK1870:3GD6L00D3T41Q7D1UMQ28XASEMRM1O", "dateTime": 1516482583637}, {"current_trial": 35, "trialdata": {"rt": -1000, "trial_type": "single-audio", "word": "wrist", "stimulus": "/static/audio/wordpool/WRIST.wav", "conditions": [18, 1200, "a", 18000], "internal_node_id": "0.0-26.0", "trial": 0, "time_elapsed": 252284, "serialpos": 14, "key_press": -1, "wordID": 1625, "type": "PRES_AUD", "trial_index": 35}, "uniqueid": "MTK1870:3GD6L00D3T41Q7D1UMQ28XASEMRM1O", "dateTime": 1516482585947}, {"current_trial": 36, "trialdata": {"rt": -1000, "trial_type": "single-audio", "word": "umpire", "stimulus": "/static/audio/wordpool/UMPIRE.wav", "conditions": [18, 1200, "a", 18000], "internal_node_id": "0.0-27.0", "trial": 0, "time_elapsed": 254427, "serialpos": 15, "key_press": -1, "wordID": 1534, "type": "PRES_AUD", "trial_index": 36}, "uniqueid": "MTK1870:3GD6L00D3T41Q7D1UMQ28XASEMRM1O", "dateTime": 1516482588090}, {"current_trial": 37, "trialdata": {"rt": -1000, "trial_type": "single-audio", "word": "gymnast", "stimulus": "/static/audio/wordpool/GYMNAST.wav", "conditions": [18, 1200, "a", 18000], "internal_node_id": "0.0-28.0", "trial": 0, "time_elapsed": 256703, "serialpos": 16, "key_press": -1, "wordID": 674, "type": "PRES_AUD", "trial_index": 37}, "uniqueid": "MTK1870:3GD6L00D3T41Q7D1UMQ28XASEMRM1O", "dateTime": 1516482590366}, {"current_trial": 38, "trialdata": {"rt": -1000, "trial_type": "single-audio", "word": "hatchet", "stimulus": "/static/audio/wordpool/HATCHET.wav", "conditions": [18, 1200, "a", 18000], "internal_node_id": "0.0-29.0", "trial": 0, "time_elapsed": 258720, "serialpos": 17, "key_press": -1, "wordID": 690, "type": "PRES_AUD", "trial_index": 38}, "uniqueid": "MTK1870:3GD6L00D3T41Q7D1UMQ28XASEMRM1O", "dateTime": 1516482592384}, {"current_trial": 39, "trialdata": {"rt": -1, "trial_type": "single-stim", "stimulus": "", "internal_node_id": "0.0-30.0-0.0", "time_elapsed": 260096, "key_press": -1, "type": "PRE_RECALL_DELAY", "trial_index": 39}, "uniqueid": "MTK1870:3GD6L00D3T41Q7D1UMQ28XASEMRM1O", "dateTime": 1516482593759}, {"current_trial": 40, "trialdata": {"rt": 158.66666666664742, "trial_type": "single-audio", "stimulus": "/static/audio/400Hz.wav", "internal_node_id": "0.0-31.0", "time_elapsed": 260599, "key_press": 175, "type": "PRE_RECALL_ALERT", "trial_index": 40}, "uniqueid": "MTK1870:3GD6L00D3T41Q7D1UMQ28XASEMRM1O", "dateTime": 1516482594262}, {"current_trial": 41, "trialdata": {"rt": [3245, 6797, 8333, 10413, 19468, 30956, 45396], "recwords": ["lava", "survey", "hatchet", "wrist", "umpire", "dog", "test"], "key_times": [57, 2422, 2557, 2741, 2829, 3245, 4941, 5341, 5533, 5781, 5885, 6053, 6797, 7445, 7549, 7629, 7853, 7965, 8069, 8173, 8333, 9717, 9814, 9957, 10053, 10133, 10413, 15989, 16221, 17109, 17365, 17373, 17453, 17821, 17981, 18165, 18685, 18773, 18853, 19468, 29629, 30444, 30644, 30956, 44845, 44964, 45068, 45180, 45396, 59285, 59451, 59588, 59723, 59867], "trial_type": "free-recall", "conditions": [18, 1200, "a", 18000], "internal_node_id": "0.0-32.0-0.0", "key_presses": [175, 76, 65, 86, 65, 13, 83, 85, 82, 86, 69, 89, 13, 72, 65, 84, 67, 72, 69, 84, 13, 87, 82, 73, 83, 84, 13, 85, 77, 80, 85, 73, 82, 8, 8, 8, 73, 82, 69, 13, 68, 79, 71, 13, 84, 69, 83, 84, 13, 66, 65, 83, 69, 66], "trial": 0, "time_elapsed": 320603, "type": "FREE_RECALL", "trial_index": 41}, "uniqueid": "MTK1870:3GD6L00D3T41Q7D1UMQ28XASEMRM1O", "dateTime": 1516482654270}, {"current_trial": 42, "trialdata": {"rt": 5166, "trial_type": "text", "internal_node_id": "0.0-33.0", "time_elapsed": 327773, "key_press": 70, "type": "INSTRUCTIONS", "trial_index": 42}, "uniqueid": "MTK1870:3GD6L00D3T41Q7D1UMQ28XASEMRM1O", "dateTime": 1516482661436}, {"current_trial": 43, "trialdata": {"rt": [7262, 15069], "trial_type": "math-distractor", "key_times": [4023, 4117, 7262, 13110, 13254, 15069], "responses": ["24", "19"], "num2": [6, 9, 7], "num3": [8, 9, 2], "conditions": [18, 1200, "a", 18000], "internal_node_id": "0.0-34.0", "key_presses": [50, 52, 13, 49, 57, 13], "trial": 1, "time_elapsed": 347776, "type": "DISTRACTOR", "trial_index": 43, "num1": [9, 2, 5]}, "uniqueid": "MTK1870:3GD6L00D3T41Q7D1UMQ28XASEMRM1O", "dateTime": 1516482681439}, {"current_trial": 44, "trialdata": {"rt": -1, "trial_type": "single-stim", "stimulus": "<p id=\"stim\">10</p>", "internal_node_id": "0.0-35.0-0.0", "time_elapsed": 350776, "key_press": -1, "trial_index": 44}, "uniqueid": "MTK1870:3GD6L00D3T41Q7D1UMQ28XASEMRM1O", "dateTime": 1516482684440}, {"current_trial": 45, "trialdata": {"rt": 177, "trial_type": "single-stim", "stimulus": "<p id=\"stim\">9</p>", "internal_node_id": "0.0-35.0-1.0", "time_elapsed": 351777, "key_press": 175, "trial_index": 45}, "uniqueid": "MTK1870:3GD6L00D3T41Q7D1UMQ28XASEMRM1O", "dateTime": 1516482685440}, {"current_trial": 46, "trialdata": {"rt": -1, "trial_type": "single-stim", "stimulus": "<p id=\"stim\">8</p>", "internal_node_id": "0.0-35.0-2.0", "time_elapsed": 352779, "key_press": -1, "trial_index": 46}, "uniqueid": "MTK1870:3GD6L00D3T41Q7D1UMQ28XASEMRM1O", "dateTime": 1516482686443}, {"current_trial": 47, "trialdata": {"rt": -1, "trial_type": "single-stim", "stimulus": "<p id=\"stim\">7</p>", "internal_node_id": "0.0-35.0-3.0", "time_elapsed": 353781, "key_press": -1, "trial_index": 47}, "uniqueid": "MTK1870:3GD6L00D3T41Q7D1UMQ28XASEMRM1O", "dateTime": 1516482687444}, {"current_trial": 48, "trialdata": {"rt": -1, "trial_type": "single-stim", "stimulus": "<p id=\"stim\">6</p>", "internal_node_id": "0.0-35.0-4.0", "time_elapsed": 354782, "key_press": -1, "trial_index": 48}, "uniqueid": "MTK1870:3GD6L00D3T41Q7D1UMQ28XASEMRM1O", "dateTime": 1516482688445}, {"current_trial": 49, "trialdata": {"rt": -1, "trial_type": "single-stim", "stimulus": "<p id=\"stim\">5</p>", "internal_node_id": "0.0-35.0-5.0", "time_elapsed": 355783, "key_press": -1, "trial_index": 49}, "uniqueid": "MTK1870:3GD6L00D3T41Q7D1UMQ28XASEMRM1O", "dateTime": 1516482689446}, {"current_trial": 50, "trialdata": {"rt": -1, "trial_type": "single-stim", "stimulus": "<p id=\"stim\">4</p>", "internal_node_id": "0.0-35.0-6.0", "time_elapsed": 356786, "key_press": -1, "trial_index": 50}, "uniqueid": "MTK1870:3GD6L00D3T41Q7D1UMQ28XASEMRM1O", "dateTime": 1516482690449}, {"current_trial": 51, "trialdata": {"rt": -1, "trial_type": "single-stim", "stimulus": "<p id=\"stim\">3</p>", "internal_node_id": "0.0-35.0-7.0", "time_elapsed": 357786, "key_press": -1, "trial_index": 51}, "uniqueid": "MTK1870:3GD6L00D3T41Q7D1UMQ28XASEMRM1O", "dateTime": 1516482691449}, {"current_trial": 52, "trialdata": {"rt": -1, "trial_type": "single-stim", "stimulus": "<p id=\"stim\">2</p>", "internal_node_id": "0.0-35.0-8.0", "time_elapsed": 358787, "key_press": -1, "trial_index": 52}, "uniqueid": "MTK1870:3GD6L00D3T41Q7D1UMQ28XASEMRM1O", "dateTime": 1516482692451}, {"current_trial": 53, "trialdata": {"rt": -1, "trial_type": "single-stim", "stimulus": "<p id=\"stim\">1</p>", "internal_node_id": "0.0-35.0-9.0", "time_elapsed": 359788, "key_press": -1, "trial_index": 53}, "uniqueid": "MTK1870:3GD6L00D3T41Q7D1UMQ28XASEMRM1O", "dateTime": 1516482693451}, {"current_trial": 54, "trialdata": {"rt": -1, "trial_type": "single-stim", "stimulus": "<p id=\"stim\">+</p>", "internal_node_id": "0.0-36.0-0.0", "time_elapsed": 361290, "key_press": -1, "type": "FIXATION", "trial_index": 54}, "uniqueid": "MTK1870:3GD6L00D3T41Q7D1UMQ28XASEMRM1O", "dateTime": 1516482694953}, {"current_trial": 55, "trialdata": {"rt": -1000, "trial_type": "single-audio", "word": "pecan", "stimulus": "/static/audio/wordpool/PECAN.wav", "conditions": [18, 1200, "a", 18000], "internal_node_id": "0.0-37.0", "trial": 1, "time_elapsed": 363394, "serialpos": 0, "key_press": -1, "wordID": 1035, "type": "PRES_AUD", "trial_index": 55}, "uniqueid": "MTK1870:3GD6L00D3T41Q7D1UMQ28XASEMRM1O", "dateTime": 1516482697058}, {"current_trial": 56, "trialdata": {"rt": -1000, "trial_type": "single-audio", "word": "bullet", "stimulus": "/static/audio/wordpool/BULLET.wav", "conditions": [18, 1200, "a", 18000], "internal_node_id": "0.0-38.0", "trial": 1, "time_elapsed": 365803, "serialpos": 1, "key_press": -1, "wordID": 193, "type": "PRES_AUD", "trial_index": 56}, "uniqueid": "MTK1870:3GD6L00D3T41Q7D1UMQ28XASEMRM1O", "dateTime": 1516482699466}, {"current_trial": 57, "trialdata": {"rt": -1000, "trial_type": "single-audio", "word": "rooster", "stimulus": "/static/audio/wordpool/ROOSTER.wav", "conditions": [18, 1200, "a", 18000], "internal_node_id": "0.0-39.0", "trial": 1, "time_elapsed": 368111, "serialpos": 2, "key_press": -1, "wordID": 1208, "type": "PRES_AUD", "trial_index": 57}, "uniqueid": "MTK1870:3GD6L00D3T41Q7D1UMQ28XASEMRM1O", "dateTime": 1516482701774}, {"current_trial": 58, "trialdata": {"rt": -1000, "trial_type": "single-audio", "word": "canyon", "stimulus": "/static/audio/wordpool/CANYON.wav", "conditions": [18, 1200, "a", 18000], "internal_node_id": "0.0-40.0", "trial": 1, "time_elapsed": 370434, "serialpos": 3, "key_press": -1, "wordID": 234, "type": "PRES_AUD", "trial_index": 58}, "uniqueid": "MTK1870:3GD6L00D3T41Q7D1UMQ28XASEMRM1O", "dateTime": 1516482704097}, {"current_trial": 59, "trialdata": {"rt": -1000, "trial_type": "single-audio", "word": "kleenex", "stimulus": "/static/audio/wordpool/KLEENEX.wav", "conditions": [18, 1200, "a", 18000], "internal_node_id": "0.0-41.0", "trial": 1, "time_elapsed": 372443, "serialpos": 4, "key_press": -1, "wordID": 781, "type": "PRES_AUD", "trial_index": 59}, "uniqueid": "MTK1870:3GD6L00D3T41Q7D1UMQ28XASEMRM1O", "dateTime": 1516482706106}, {"current_trial": 60, "trialdata": {"rt": -1000, "trial_type": "single-audio", "word": "grave", "stimulus": "/static/audio/wordpool/GRAVE.wav", "conditions": [18, 1200, "a", 18000], "internal_node_id": "0.0-42.0", "trial": 1, "time_elapsed": 374772, "serialpos": 5, "key_press": -1, "wordID": 657, "type": "PRES_AUD", "trial_index": 60}, "uniqueid": "MTK1870:3GD6L00D3T41Q7D1UMQ28XASEMRM1O", "dateTime": 1516482708435}, {"current_trial": 61, "trialdata": {"rt": -1000, "trial_type": "single-audio", "word": "pliers", "stimulus": "/static/audio/wordpool/PLIERS.wav", "conditions": [18, 1200, "a", 18000], "internal_node_id": "0.0-43.0", "trial": 1, "time_elapsed": 377036, "serialpos": 6, "key_press": -1, "wordID": 1088, "type": "PRES_AUD", "trial_index": 61}, "uniqueid": "MTK1870:3GD6L00D3T41Q7D1UMQ28XASEMRM1O", "dateTime": 1516482710699}, {"current_trial": 62, "trialdata": {"rt": -1000, "trial_type": "single-audio", "word": "carriage", "stimulus": "/static/audio/wordpool/CARRIAGE.wav", "conditions": [18, 1200, "a", 18000], "internal_node_id": "0.0-44.0", "trial": 1, "time_elapsed": 379130, "serialpos": 7, "key_press": -1, "wordID": 247, "type": "PRES_AUD", "trial_index": 62}, "uniqueid": "MTK1870:3GD6L00D3T41Q7D1UMQ28XASEMRM1O", "dateTime": 1516482712793}, {"current_trial": 63, "trialdata": {"rt": 1331.9999999999936, "trial_type": "single-audio", "word": "scarecrow", "stimulus": "/static/audio/wordpool/SCARECROW.wav", "conditions": [18, 1200, "a", 18000], "internal_node_id": "0.0-45.0", "trial": 1, "time_elapsed": 381191, "serialpos": 8, "key_press": 175, "wordID": 1244, "type": "PRES_AUD", "trial_index": 63}, "uniqueid": "MTK1870:3GD6L00D3T41Q7D1UMQ28XASEMRM1O", "dateTime": 1516482714854}, {"current_trial": 64, "trialdata": {"rt": -1000, "trial_type": "single-audio", "word": "finger", "stimulus": "/static/audio/wordpool/FINGER.wav", "conditions": [18, 1200, "a", 18000], "internal_node_id": "0.0-46.0", "trial": 1, "time_elapsed": 383365, "serialpos": 9, "key_press": -1, "wordID": 566, "type": "PRES_AUD", "trial_index": 64}, "uniqueid": "MTK1870:3GD6L00D3T41Q7D1UMQ28XASEMRM1O", "dateTime": 1516482717028}, {"current_trial": 65, "trialdata": {"rt": -1000, "trial_type": "single-audio", "word": "skillet", "stimulus": "/static/audio/wordpool/SKILLET.wav", "conditions": [18, 1200, "a", 18000], "internal_node_id": "0.0-47.0", "trial": 1, "time_elapsed": 385465, "serialpos": 10, "key_press": -1, "wordID": 1316, "type": "PRES_AUD", "trial_index": 65}, "uniqueid": "MTK1870:3GD6L00D3T41Q7D1UMQ28XASEMRM1O", "dateTime": 1516482719129}, {"current_trial": 66, "trialdata": {"rt": -1000, "trial_type": "single-audio", "word": "scalpel", "stimulus": "/static/audio/wordpool/SCALPEL.wav", "conditions": [18, 1200, "a", 18000], "internal_node_id": "0.0-48.0", "trial": 1, "time_elapsed": 387768, "serialpos": 11, "key_press": -1, "wordID": 1242, "type": "PRES_AUD", "trial_index": 66}, "uniqueid": "MTK1870:3GD6L00D3T41Q7D1UMQ28XASEMRM1O", "dateTime": 1516482721432}, {"current_trial": 67, "trialdata": {"rt": -1000, "trial_type": "single-audio", "word": "leopard", "stimulus": "/static/audio/wordpool/LEOPARD.wav", "conditions": [18, 1200, "a", 18000], "internal_node_id": "0.0-49.0", "trial": 1, "time_elapsed": 390160, "serialpos": 12, "key_press": -1, "wordID": 811, "type": "PRES_AUD", "trial_index": 67}, "uniqueid": "MTK1870:3GD6L00D3T41Q7D1UMQ28XASEMRM1O", "dateTime": 1516482723823}, {"current_trial": 68, "trialdata": {"rt": -1000, "trial_type": "single-audio", "word": "summit", "stimulus": "/static/audio/wordpool/SUMMIT.wav", "conditions": [18, 1200, "a", 18000], "internal_node_id": "0.0-50.0", "trial": 1, "time_elapsed": 392183, "serialpos": 13, "key_press": -1, "wordID": 1404, "type": "PRES_AUD", "trial_index": 68}, "uniqueid": "MTK1870:3GD6L00D3T41Q7D1UMQ28XASEMRM1O", "dateTime": 1516482725851}, {"current_trial": 69, "trialdata": {"rt": -1000, "trial_type": "single-audio", "word": "lover", "stimulus": "/static/audio/wordpool/LOVER.wav", "conditions": [18, 1200, "a", 18000], "internal_node_id": "0.0-51.0", "trial": 1, "time_elapsed": 394323, "serialpos": 14, "key_press": -1, "wordID": 845, "type": "PRES_AUD", "trial_index": 69}, "uniqueid": "MTK1870:3GD6L00D3T41Q7D1UMQ28XASEMRM1O", "dateTime": 1516482727986}, {"current_trial": 70, "trialdata": {"rt": -1000, "trial_type": "single-audio", "word": "trench", "stimulus": "/static/audio/wordpool/TRENCH.wav", "conditions": [18, 1200, "a", 18000], "internal_node_id": "0.0-52.0", "trial": 1, "time_elapsed": 396710, "serialpos": 15, "key_press": -1, "wordID": 1502, "type": "PRES_AUD", "trial_index": 70}, "uniqueid": "MTK1870:3GD6L00D3T41Q7D1UMQ28XASEMRM1O", "dateTime": 1516482730373}, {"current_trial": 71, "trialdata": {"rt": -1000, "trial_type": "single-audio", "word": "washer", "stimulus": "/static/audio/wordpool/WASHER.wav", "conditions": [18, 1200, "a", 18000], "internal_node_id": "0.0-53.0", "trial": 1, "time_elapsed": 398744, "serialpos": 16, "key_press": -1, "wordID": 1591, "type": "PRES_AUD", "trial_index": 71}, "uniqueid": "MTK1870:3GD6L00D3T41Q7D1UMQ28XASEMRM1O", "dateTime": 1516482732408}, {"current_trial": 72, "trialdata": {"rt": -1000, "trial_type": "single-audio", "word": "fireplace", "stimulus": "/static/audio/wordpool/FIREPLACE.wav", "conditions": [18, 1200, "a", 18000], "internal_node_id": "0.0-54.0", "trial": 1, "time_elapsed": 400894, "serialpos": 17, "key_press": -1, "wordID": 569, "type": "PRES_AUD", "trial_index": 72}, "uniqueid": "MTK1870:3GD6L00D3T41Q7D1UMQ28XASEMRM1O", "dateTime": 1516482734558}, {"current_trial": 73, "trialdata": {"rt": -1, "trial_type": "single-stim", "stimulus": "", "internal_node_id": "0.0-55.0-0.0", "time_elapsed": 402214, "key_press": -1, "type": "PRE_RECALL_DELAY", "trial_index": 73}, "uniqueid": "MTK1870:3GD6L00D3T41Q7D1UMQ28XASEMRM1O", "dateTime": 1516482735877}, {"current_trial": 74, "trialdata": {"rt": -1000, "trial_type": "single-audio", "stimulus": "/static/audio/400Hz.wav", "internal_node_id": "0.0-56.0", "time_elapsed": 402715, "key_press": -1, "type": "PRE_RECALL_ALERT", "trial_index": 74}, "uniqueid": "MTK1870:3GD6L00D3T41Q7D1UMQ28XASEMRM1O", "dateTime": 1516482736378}, {"current_trial": 75, "trialdata": {"rt": [3550, 5190, 7918, 27654, 29094, 46501], "recwords": ["trench", "fireplace", "pican", "ocean", "trench", "bullet"], "key_times": [1272, 1495, 1583, 1743, 1927, 2022, 3550, 4247, 4359, 4446, 4518, 4678, 4799, 4887, 4990, 5086, 5190, 7255, 7430, 7519, 7583, 7678, 7918, 26767, 26918, 27038, 27126, 27254, 27654, 28175, 28382, 28470, 28590, 28758, 28838, 29094, 45751, 45853, 46062, 46198, 46245, 46333, 46501], "trial_type": "free-recall", "conditions": [18, 1200, "a", 18000], "internal_node_id": "0.0-57.0-0.0", "key_presses": [84, 82, 69, 78, 67, 72, 13, 70, 73, 82, 69, 80, 76, 65, 67, 69, 13, 80, 73, 67, 65, 78, 13, 79, 67, 69, 65, 78, 13, 84, 82, 69, 78, 67, 72, 13, 66, 85, 76, 76, 69, 84, 13], "trial": 1, "time_elapsed": 462718, "type": "FREE_RECALL", "trial_index": 75}, "uniqueid": "MTK1870:3GD6L00D3T41Q7D1UMQ28XASEMRM1O", "dateTime": 1516482796384}, {"current_trial": 76, "trialdata": {"rt": 2250, "trial_type": "text", "internal_node_id": "0.0-58.0", "time_elapsed": 466972, "key_press": 32, "type": "INSTRUCTIONS", "trial_index": 76}, "uniqueid": "MTK1870:3GD6L00D3T41Q7D1UMQ28XASEMRM1O", "dateTime": 1516482800635}, {"current_trial": 77, "trialdata": {"rt": [4451, 7555, 11699], "trial_type": "math-distractor", "key_times": [3164, 3252, 4451, 7228, 7555, 11405, 11500, 11699], "responses": ["16", "8", "15"], "num2": [3, 1, 4, 5], "num3": [6, 5, 6, 1], "conditions": [12, 800, "a", 12000], "internal_node_id": "0.0-59.0", "key_presses": [49, 54, 13, 56, 13, 49, 53, 13], "trial": 2, "time_elapsed": 479976, "type": "DISTRACTOR", "trial_index": 77, "num1": [7, 2, 5, 1]}, "uniqueid": "MTK1870:3GD6L00D3T41Q7D1UMQ28XASEMRM1O", "dateTime": 1516482813639}, {"current_trial": 78, "trialdata": {"rt": -1, "trial_type": "single-stim", "stimulus": "<p id=\"stim\">10</p>", "internal_node_id": "0.0-60.0-0.0", "time_elapsed": 482976, "key_press": -1, "trial_index": 78}, "uniqueid": "MTK1870:3GD6L00D3T41Q7D1UMQ28XASEMRM1O", "dateTime": 1516482816639}, {"current_trial": 79, "trialdata": {"rt": -1, "trial_type": "single-stim", "stimulus": "<p id=\"stim\">9</p>", "internal_node_id": "0.0-60.0-1.0", "time_elapsed": 483978, "key_press": -1, "trial_index": 79}, "uniqueid": "MTK1870:3GD6L00D3T41Q7D1UMQ28XASEMRM1O", "dateTime": 1516482817641}, {"current_trial": 80, "trialdata": {"rt": -1, "trial_type": "single-stim", "stimulus": "<p id=\"stim\">8</p>", "internal_node_id": "0.0-60.0-2.0", "time_elapsed": 484979, "key_press": -1, "trial_index": 80}, "uniqueid": "MTK1870:3GD6L00D3T41Q7D1UMQ28XASEMRM1O", "dateTime": 1516482818642}, {"current_trial": 81, "trialdata": {"rt": -1, "trial_type": "single-stim", "stimulus": "<p id=\"stim\">7</p>", "internal_node_id": "0.0-60.0-3.0", "time_elapsed": 485981, "key_press": -1, "trial_index": 81}, "uniqueid": "MTK1870:3GD6L00D3T41Q7D1UMQ28XASEMRM1O", "dateTime": 1516482819644}, {"current_trial": 82, "trialdata": {"rt": -1, "trial_type": "single-stim", "stimulus": "<p id=\"stim\">6</p>", "internal_node_id": "0.0-60.0-4.0", "time_elapsed": 486982, "key_press": -1, "trial_index": 82}, "uniqueid": "MTK1870:3GD6L00D3T41Q7D1UMQ28XASEMRM1O", "dateTime": 1516482820645}, {"current_trial": 83, "trialdata": {"rt": -1, "trial_type": "single-stim", "stimulus": "<p id=\"stim\">5</p>", "internal_node_id": "0.0-60.0-5.0", "time_elapsed": 487982, "key_press": -1, "trial_index": 83}, "uniqueid": "MTK1870:3GD6L00D3T41Q7D1UMQ28XASEMRM1O", "dateTime": 1516482821645}, {"current_trial": 84, "trialdata": {"rt": -1, "trial_type": "single-stim", "stimulus": "<p id=\"stim\">4</p>", "internal_node_id": "0.0-60.0-6.0", "time_elapsed": 488983, "key_press": -1, "trial_index": 84}, "uniqueid": "MTK1870:3GD6L00D3T41Q7D1UMQ28XASEMRM1O", "dateTime": 1516482822646}, {"current_trial": 85, "trialdata": {"rt": -1, "trial_type": "single-stim", "stimulus": "<p id=\"stim\">3</p>", "internal_node_id": "0.0-60.0-7.0", "time_elapsed": 489985, "key_press": -1, "trial_index": 85}, "uniqueid": "MTK1870:3GD6L00D3T41Q7D1UMQ28XASEMRM1O", "dateTime": 1516482823648}, {"current_trial": 86, "trialdata": {"rt": -1, "trial_type": "single-stim", "stimulus": "<p id=\"stim\">2</p>", "internal_node_id": "0.0-60.0-8.0", "time_elapsed": 490985, "key_press": -1, "trial_index": 86}, "uniqueid": "MTK1870:3GD6L00D3T41Q7D1UMQ28XASEMRM1O", "dateTime": 1516482824648}, {"current_trial": 87, "trialdata": {"rt": -1, "trial_type": "single-stim", "stimulus": "<p id=\"stim\">1</p>", "internal_node_id": "0.0-60.0-9.0", "time_elapsed": 491986, "key_press": -1, "trial_index": 87}, "uniqueid": "MTK1870:3GD6L00D3T41Q7D1UMQ28XASEMRM1O", "dateTime": 1516482825649}, {"current_trial": 88, "trialdata": {"rt": -1, "trial_type": "single-stim", "stimulus": "<p id=\"stim\">+</p>", "internal_node_id": "0.0-61.0-0.0", "time_elapsed": 493488, "key_press": -1, "type": "FIXATION", "trial_index": 88}, "uniqueid": "MTK1870:3GD6L00D3T41Q7D1UMQ28XASEMRM1O", "dateTime": 1516482827151}, {"current_trial": 89, "trialdata": {"rt": -1000, "trial_type": "single-audio", "word": "blade", "stimulus": "/static/audio/wordpool/BLADE.wav", "conditions": [12, 800, "a", 12000], "internal_node_id": "0.0-62.0", "trial": 2, "time_elapsed": 495270, "serialpos": 0, "key_press": -1, "wordID": 133, "type": "PRES_AUD", "trial_index": 89}, "uniqueid": "MTK1870:3GD6L00D3T41Q7D1UMQ28XASEMRM1O", "dateTime": 1516482828934}, {"current_trial": 90, "trialdata": {"rt": -1000, "trial_type": "single-audio", "word": "gazelle", "stimulus": "/static/audio/wordpool/GAZELLE.wav", "conditions": [12, 800, "a", 12000], "internal_node_id": "0.0-63.0", "trial": 2, "time_elapsed": 496924, "serialpos": 1, "key_press": -1, "wordID": 627, "type": "PRES_AUD", "trial_index": 90}, "uniqueid": "MTK1870:3GD6L00D3T41Q7D1UMQ28XASEMRM1O", "dateTime": 1516482830588}, {"current_trial": 91, "trialdata": {"rt": -1000, "trial_type": "single-audio", "word": "actor", "stimulus": "/static/audio/wordpool/ACTOR.wav", "conditions": [12, 800, "a", 12000], "internal_node_id": "0.0-64.0", "trial": 2, "time_elapsed": 498733, "serialpos": 2, "key_press": -1, "wordID": 4, "type": "PRES_AUD", "trial_index": 91}, "uniqueid": "MTK1870:3GD6L00D3T41Q7D1UMQ28XASEMRM1O", "dateTime": 1516482832397}, {"current_trial": 92, "trialdata": {"rt": -1000, "trial_type": "single-audio", "word": "flower", "stimulus": "/static/audio/wordpool/FLOWER.wav", "conditions": [12, 800, "a", 12000], "internal_node_id": "0.0-65.0", "trial": 2, "time_elapsed": 500688, "serialpos": 3, "key_press": -1, "wordID": 583, "type": "PRES_AUD", "trial_index": 92}, "uniqueid": "MTK1870:3GD6L00D3T41Q7D1UMQ28XASEMRM1O", "dateTime": 1516482834351}, {"current_trial": 93, "trialdata": {"rt": -1000, "trial_type": "single-audio", "word": "flute", "stimulus": "/static/audio/wordpool/FLUTE.wav", "conditions": [12, 800, "a", 12000], "internal_node_id": "0.0-66.0", "trial": 2, "time_elapsed": 502384, "serialpos": 4, "key_press": -1, "wordID": 584, "type": "PRES_AUD", "trial_index": 93}, "uniqueid": "MTK1870:3GD6L00D3T41Q7D1UMQ28XASEMRM1O", "dateTime": 1516482836047}, {"current_trial": 94, "trialdata": {"rt": -1000, "trial_type": "single-audio", "word": "garden", "stimulus": "/static/audio/wordpool/GARDEN.wav", "conditions": [12, 800, "a", 12000], "internal_node_id": "0.0-67.0", "trial": 2, "time_elapsed": 504000, "serialpos": 5, "key_press": -1, "wordID": 622, "type": "PRES_AUD", "trial_index": 94}, "uniqueid": "MTK1870:3GD6L00D3T41Q7D1UMQ28XASEMRM1O", "dateTime": 1516482837663}, {"current_trial": 95, "trialdata": {"rt": -1000, "trial_type": "single-audio", "word": "orchid", "stimulus": "/static/audio/wordpool/ORCHID.wav", "conditions": [12, 800, "a", 12000], "internal_node_id": "0.0-68.0", "trial": 2, "time_elapsed": 505832, "serialpos": 6, "key_press": -1, "wordID": 981, "type": "PRES_AUD", "trial_index": 95}, "uniqueid": "MTK1870:3GD6L00D3T41Q7D1UMQ28XASEMRM1O", "dateTime": 1516482839495}, {"current_trial": 96, "trialdata": {"rt": -1000, "trial_type": "single-audio", "word": "blueprint", "stimulus": "/static/audio/wordpool/BLUEPRINT.wav", "conditions": [12, 800, "a", 12000], "internal_node_id": "0.0-69.0", "trial": 2, "time_elapsed": 507596, "serialpos": 7, "key_press": -1, "wordID": 141, "type": "PRES_AUD", "trial_index": 96}, "uniqueid": "MTK1870:3GD6L00D3T41Q7D1UMQ28XASEMRM1O", "dateTime": 1516482841259}, {"current_trial": 97, "trialdata": {"rt": -1000, "trial_type": "single-audio", "word": "compass", "stimulus": "/static/audio/wordpool/COMPASS.wav", "conditions": [12, 800, "a", 12000], "internal_node_id": "0.0-70.0", "trial": 2, "time_elapsed": 509373, "serialpos": 8, "key_press": -1, "wordID": 357, "type": "PRES_AUD", "trial_index": 97}, "uniqueid": "MTK1870:3GD6L00D3T41Q7D1UMQ28XASEMRM1O", "dateTime": 1516482843037}, {"current_trial": 98, "trialdata": {"rt": -1000, "trial_type": "single-audio", "word": "film", "stimulus": "/static/audio/wordpool/FILM.wav", "conditions": [12, 800, "a", 12000], "internal_node_id": "0.0-71.0", "trial": 2, "time_elapsed": 511051, "serialpos": 9, "key_press": -1, "wordID": 564, "type": "PRES_AUD", "trial_index": 98}, "uniqueid": "MTK1870:3GD6L00D3T41Q7D1UMQ28XASEMRM1O", "dateTime": 1516482844714}, {"current_trial": 99, "trialdata": {"rt": -1000, "trial_type": "single-audio", "word": "chapel", "stimulus": "/static/audio/wordpool/CHAPEL.wav", "conditions": [12, 800, "a", 12000], "internal_node_id": "0.0-72.0", "trial": 2, "time_elapsed": 512709, "serialpos": 10, "key_press": -1, "wordID": 279, "type": "PRES_AUD", "trial_index": 99}, "uniqueid": "MTK1870:3GD6L00D3T41Q7D1UMQ28XASEMRM1O", "dateTime": 1516482846373}, {"current_trial": 100, "trialdata": {"rt": -1000, "trial_type": "single-audio", "word": "nomad", "stimulus": "/static/audio/wordpool/NOMAD.wav", "conditions": [12, 800, "a", 12000], "internal_node_id": "0.0-73.0", "trial": 2, "time_elapsed": 514487, "serialpos": 11, "key_press": -1, "wordID": 954, "type": "PRES_AUD", "trial_index": 100}, "uniqueid": "MTK1870:3GD6L00D3T41Q7D1UMQ28XASEMRM1O", "dateTime": 1516482848150}, {"current_trial": 101, "trialdata": {"rt": -1, "trial_type": "single-stim", "stimulus": "", "internal_node_id": "0.0-74.0-0.0", "time_elapsed": 515872, "key_press": -1, "type": "PRE_RECALL_DELAY", "trial_index": 101}, "uniqueid": "MTK1870:3GD6L00D3T41Q7D1UMQ28XASEMRM1O", "dateTime": 1516482849535}, {"current_trial": 102, "trialdata": {"rt": -1000, "trial_type": "single-audio", "stimulus": "/static/audio/400Hz.wav", "internal_node_id": "0.0-75.0", "time_elapsed": 516376, "key_press": -1, "type": "PRE_RECALL_ALERT", "trial_index": 102}, "uniqueid": "MTK1870:3GD6L00D3T41Q7D1UMQ28XASEMRM1O", "dateTime": 1516482850039}, {"current_trial": 103, "trialdata": {"rt": [5255, 10007, 11759, 14631, 29230, 31150, 42638, 46494], "recwords": ["gazelle", "nomad", "chapel", "flower", "house", "flower", "garden", "boat"], "key_times": [2848, 2927, 3248, 3391, 4551, 4711, 4807, 5255, 9175, 9399, 9615, 9751, 9839, 10007, 10687, 10831, 10983, 11207, 11383, 11487, 11759, 13816, 13983, 14167, 14231, 14327, 14487, 14631, 28280, 28575, 28743, 28975, 29047, 29230, 30255, 30359, 30574, 30646, 30734, 30895, 31150, 39976, 40087, 40279, 40510, 40623, 40742, 42638, 44839, 44966, 45119, 45247, 46494], "trial_type": "free-recall", "conditions": [12, 800, "a", 12000], "internal_node_id": "0.0-76.0-0.0", "key_presses": [71, 65, 90, 69, 76, 76, 69, 13, 78, 79, 77, 65, 68, 13, 67, 72, 65, 80, 69, 76, 13, 70, 76, 79, 87, 69, 82, 13, 72, 79, 85, 83, 69, 13, 70, 76, 79, 87, 69, 82, 13, 71, 65, 82, 68, 69, 78, 13, 66, 79, 65, 84, 13], "trial": 2, "time_elapsed": 576379, "type": "FREE_RECALL", "trial_index": 103}, "uniqueid": "MTK1870:3GD6L00D3T41Q7D1UMQ28XASEMRM1O", "dateTime": 1516482910046}, {"current_trial": 104, "trialdata": {"rt": 1745, "trial_type": "text", "internal_node_id": "0.0-77.0", "time_elapsed": 580128, "key_press": 13, "type": "INSTRUCTIONS", "trial_index": 104}, "uniqueid": "MTK1870:3GD6L00D3T41Q7D1UMQ28XASEMRM1O", "dateTime": 1516482913791}, {"current_trial": 105, "trialdata": {"rt": [3013, 6840, 10270], "trial_type": "math-distractor", "key_times": [1910, 1974, 3013, 5366, 5454, 6840, 10031, 10118, 10270], "responses": ["12", "10", "15"], "num2": [2, 3, 8, 7], "num3": [2, 1, 5, 4], "conditions": [12, 1600, "a", 12000], "internal_node_id": "0.0-78.0", "key_presses": [49, 50, 13, 49, 48, 13, 49, 53, 13], "trial": 3, "time_elapsed": 594130, "type": "DISTRACTOR", "trial_index": 105, "num1": [8, 6, 2, 1]}, "uniqueid": "MTK1870:3GD6L00D3T41Q7D1UMQ28XASEMRM1O", "dateTime": 1516482927794}, {"current_trial": 106, "trialdata": {"rt": -1, "trial_type": "single-stim", "stimulus": "<p id=\"stim\">10</p>", "internal_node_id": "0.0-79.0-0.0", "time_elapsed": 597132, "key_press": -1, "trial_index": 106}, "uniqueid": "MTK1870:3GD6L00D3T41Q7D1UMQ28XASEMRM1O", "dateTime": 1516482930795}, {"current_trial": 107, "trialdata": {"rt": -1, "trial_type": "single-stim", "stimulus": "<p id=\"stim\">9</p>", "internal_node_id": "0.0-79.0-1.0", "time_elapsed": 598133, "key_press": -1, "trial_index": 107}, "uniqueid": "MTK1870:3GD6L00D3T41Q7D1UMQ28XASEMRM1O", "dateTime": 1516482931796}, {"current_trial": 108, "trialdata": {"rt": -1, "trial_type": "single-stim", "stimulus": "<p id=\"stim\">8</p>", "internal_node_id": "0.0-79.0-2.0", "time_elapsed": 599133, "key_press": -1, "trial_index": 108}, "uniqueid": "MTK1870:3GD6L00D3T41Q7D1UMQ28XASEMRM1O", "dateTime": 1516482932796}, {"current_trial": 109, "trialdata": {"rt": -1, "trial_type": "single-stim", "stimulus": "<p id=\"stim\">7</p>", "internal_node_id": "0.0-79.0-3.0", "time_elapsed": 600134, "key_press": -1, "trial_index": 109}, "uniqueid": "MTK1870:3GD6L00D3T41Q7D1UMQ28XASEMRM1O", "dateTime": 1516482933797}, {"current_trial": 110, "trialdata": {"rt": -1, "trial_type": "single-stim", "stimulus": "<p id=\"stim\">6</p>", "internal_node_id": "0.0-79.0-4.0", "time_elapsed": 601135, "key_press": -1, "trial_index": 110}, "uniqueid": "MTK1870:3GD6L00D3T41Q7D1UMQ28XASEMRM1O", "dateTime": 1516482934798}, {"current_trial": 111, "trialdata": {"rt": -1, "trial_type": "single-stim", "stimulus": "<p id=\"stim\">5</p>", "internal_node_id": "0.0-79.0-5.0", "time_elapsed": 602135, "key_press": -1, "trial_index": 111}, "uniqueid": "MTK1870:3GD6L00D3T41Q7D1UMQ28XASEMRM1O", "dateTime": 1516482935798}, {"current_trial": 112, "trialdata": {"rt": -1, "trial_type": "single-stim", "stimulus": "<p id=\"stim\">4</p>", "internal_node_id": "0.0-79.0-6.0", "time_elapsed": 603136, "key_press": -1, "trial_index": 112}, "uniqueid": "MTK1870:3GD6L00D3T41Q7D1UMQ28XASEMRM1O", "dateTime": 1516482936799}, {"current_trial": 113, "trialdata": {"rt": -1, "trial_type": "single-stim", "stimulus": "<p id=\"stim\">3</p>", "internal_node_id": "0.0-79.0-7.0", "time_elapsed": 604137, "key_press": -1, "trial_index": 113}, "uniqueid": "MTK1870:3GD6L00D3T41Q7D1UMQ28XASEMRM1O", "dateTime": 1516482937800}, {"current_trial": 114, "trialdata": {"rt": -1, "trial_type": "single-stim", "stimulus": "<p id=\"stim\">2</p>", "internal_node_id": "0.0-79.0-8.0", "time_elapsed": 605137, "key_press": -1, "trial_index": 114}, "uniqueid": "MTK1870:3GD6L00D3T41Q7D1UMQ28XASEMRM1O", "dateTime": 1516482938800}, {"current_trial": 115, "trialdata": {"rt": -1, "trial_type": "single-stim", "stimulus": "<p id=\"stim\">1</p>", "internal_node_id": "0.0-79.0-9.0", "time_elapsed": 606138, "key_press": -1, "trial_index": 115}, "uniqueid": "MTK1870:3GD6L00D3T41Q7D1UMQ28XASEMRM1O", "dateTime": 1516482939801}, {"current_trial": 116, "trialdata": {"rt": -1, "trial_type": "single-stim", "stimulus": "<p id=\"stim\">+</p>", "internal_node_id": "0.0-80.0-0.0", "time_elapsed": 607640, "key_press": -1, "type": "FIXATION", "trial_index": 116}, "uniqueid": "MTK1870:3GD6L00D3T41Q7D1UMQ28XASEMRM1O", "dateTime": 1516482941303}, {"current_trial": 117, "trialdata": {"rt": -1000, "trial_type": "single-audio", "word": "clothes", "stimulus": "/static/audio/wordpool/CLOTHES.wav", "conditions": [12, 1600, "a", 12000], "internal_node_id": "0.0-81.0", "trial": 3, "time_elapsed": 610159, "serialpos": 0, "key_press": -1, "wordID": 326, "type": "PRES_AUD", "trial_index": 117}, "uniqueid": "MTK1870:3GD6L00D3T41Q7D1UMQ28XASEMRM1O", "dateTime": 1516482943822}, {"current_trial": 118, "trialdata": {"rt": -1000, "trial_type": "single-audio", "word": "arm", "stimulus": "/static/audio/wordpool/ARM.wav", "conditions": [12, 1600, "a", 12000], "internal_node_id": "0.0-82.0", "trial": 3, "time_elapsed": 612754, "serialpos": 1, "key_press": -1, "wordID": 37, "type": "PRES_AUD", "trial_index": 118}, "uniqueid": "MTK1870:3GD6L00D3T41Q7D1UMQ28XASEMRM1O", "dateTime": 1516482946417}, {"current_trial": 119, "trialdata": {"rt": -1000, "trial_type": "single-audio", "word": "mammal", "stimulus": "/static/audio/wordpool/MAMMAL.wav", "conditions": [12, 1600, "a", 12000], "internal_node_id": "0.0-83.0", "trial": 3, "time_elapsed": 615392, "serialpos": 2, "key_press": -1, "wordID": 860, "type": "PRES_AUD", "trial_index": 119}, "uniqueid": "MTK1870:3GD6L00D3T41Q7D1UMQ28XASEMRM1O", "dateTime": 1516482949055}, {"current_trial": 120, "trialdata": {"rt": -1000, "trial_type": "single-audio", "word": "primate", "stimulus": "/static/audio/wordpool/PRIMATE.wav", "conditions": [12, 1600, "a", 12000], "internal_node_id": "0.0-84.0", "trial": 3, "time_elapsed": 618098, "serialpos": 3, "key_press": -1, "wordID": 1122, "type": "PRES_AUD", "trial_index": 120}, "uniqueid": "MTK1870:3GD6L00D3T41Q7D1UMQ28XASEMRM1O", "dateTime": 1516482951761}, {"current_trial": 121, "trialdata": {"rt": -1000, "trial_type": "single-audio", "word": "daughter", "stimulus": "/static/audio/wordpool/DAUGHTER.wav", "conditions": [12, 1600, "a", 12000], "internal_node_id": "0.0-85.0", "trial": 3, "time_elapsed": 620593, "serialpos": 4, "key_press": -1, "wordID": 441, "type": "PRES_AUD", "trial_index": 121}, "uniqueid": "MTK1870:3GD6L00D3T41Q7D1UMQ28XASEMRM1O", "dateTime": 1516482954256}, {"current_trial": 122, "trialdata": {"rt": -1000, "trial_type": "single-audio", "word": "proton", "stimulus": "/static/audio/wordpool/PROTON.wav", "conditions": [12, 1600, "a", 12000], "internal_node_id": "0.0-86.0", "trial": 3, "time_elapsed": 623219, "serialpos": 5, "key_press": -1, "wordID": 1131, "type": "PRES_AUD", "trial_index": 122}, "uniqueid": "MTK1870:3GD6L00D3T41Q7D1UMQ28XASEMRM1O", "dateTime": 1516482956883}, {"current_trial": 123, "trialdata": {"rt": -1000, "trial_type": "single-audio", "word": "breast", "stimulus": "/static/audio/wordpool/BREAST.wav", "conditions": [12, 1600, "a", 12000], "internal_node_id": "0.0-87.0", "trial": 3, "time_elapsed": 625710, "serialpos": 6, "key_press": -1, "wordID": 170, "type": "PRES_AUD", "trial_index": 123}, "uniqueid": "MTK1870:3GD6L00D3T41Q7D1UMQ28XASEMRM1O", "dateTime": 1516482959373}, {"current_trial": 124, "trialdata": {"rt": -1000, "trial_type": "single-audio", "word": "soda", "stimulus": "/static/audio/wordpool/SODA.wav", "conditions": [12, 1600, "a", 12000], "internal_node_id": "0.0-88.0", "trial": 3, "time_elapsed": 628269, "serialpos": 7, "key_press": -1, "wordID": 1340, "type": "PRES_AUD", "trial_index": 124}, "uniqueid": "MTK1870:3GD6L00D3T41Q7D1UMQ28XASEMRM1O", "dateTime": 1516482961933}, {"current_trial": 125, "trialdata": {"rt": -1000, "trial_type": "single-audio", "word": "snake", "stimulus": "/static/audio/wordpool/SNAKE.wav", "conditions": [12, 1600, "a", 12000], "internal_node_id": "0.0-89.0", "trial": 3, "time_elapsed": 630875, "serialpos": 8, "key_press": -1, "wordID": 1332, "type": "PRES_AUD", "trial_index": 125}, "uniqueid": "MTK1870:3GD6L00D3T41Q7D1UMQ28XASEMRM1O", "dateTime": 1516482964538}, {"current_trial": 126, "trialdata": {"rt": -1000, "trial_type": "single-audio", "word": "cocoon", "stimulus": "/static/audio/wordpool/COCOON.wav", "conditions": [12, 1600, "a", 12000], "internal_node_id": "0.0-90.0", "trial": 3, "time_elapsed": 633348, "serialpos": 9, "key_press": -1, "wordID": 338, "type": "PRES_AUD", "trial_index": 126}, "uniqueid": "MTK1870:3GD6L00D3T41Q7D1UMQ28XASEMRM1O", "dateTime": 1516482967011}, {"current_trial": 127, "trialdata": {"rt": -1000, "trial_type": "single-audio", "word": "coffee", "stimulus": "/static/audio/wordpool/COFFEE.wav", "conditions": [12, 1600, "a", 12000], "internal_node_id": "0.0-91.0", "trial": 3, "time_elapsed": 635858, "serialpos": 10, "key_press": -1, "wordID": 340, "type": "PRES_AUD", "trial_index": 127}, "uniqueid": "MTK1870:3GD6L00D3T41Q7D1UMQ28XASEMRM1O", "dateTime": 1516482969521}, {"current_trial": 128, "trialdata": {"rt": -1000, "trial_type": "single-audio", "word": "onion", "stimulus": "/static/audio/wordpool/ONION.wav", "conditions": [12, 1600, "a", 12000], "internal_node_id": "0.0-92.0", "trial": 3, "time_elapsed": 638440, "serialpos": 11, "key_press": -1, "wordID": 976, "type": "PRES_AUD", "trial_index": 128}, "uniqueid": "MTK1870:3GD6L00D3T41Q7D1UMQ28XASEMRM1O", "dateTime": 1516482972103}, {"current_trial": 129, "trialdata": {"rt": -1, "trial_type": "single-stim", "stimulus": "", "internal_node_id": "0.0-93.0-0.0", "time_elapsed": 639804, "key_press": -1, "type": "PRE_RECALL_DELAY", "trial_index": 129}, "uniqueid": "MTK1870:3GD6L00D3T41Q7D1UMQ28XASEMRM1O", "dateTime": 1516482973467}, {"current_trial": 130, "trialdata": {"rt": -1000, "trial_type": "single-audio", "stimulus": "/static/audio/400Hz.wav", "internal_node_id": "0.0-94.0", "time_elapsed": 640312, "key_press": -1, "type": "PRE_RECALL_ALERT", "trial_index": 130}, "uniqueid": "MTK1870:3GD6L00D3T41Q7D1UMQ28XASEMRM1O", "dateTime": 1516482973975}, {"current_trial": 131, "trialdata": {"rt": [5613, 10268, 23780, 29732, 37827, 38924, 59411], "recwords": ["clothes", "onion", "breast", "soda", "primate", "mammal", "snake"], "key_times": [4582, 4653, 4869, 4949, 5117, 5173, 5365, 5613, 9093, 9317, 9501, 9741, 9885, 10268, 22741, 23013, 23085, 23188, 23358, 23477, 23780, 28437, 28589, 29164, 29549, 29732, 36293, 36685, 36820, 37068, 37212, 37420, 37500, 37827, 38187, 38300, 38420, 38556, 38644, 38748, 38924, 58709, 58843, 58963, 59116, 59227, 59411], "trial_type": "free-recall", "conditions": [12, 1600, "a", 12000], "internal_node_id": "0.0-95.0-0.0", "key_presses": [67, 76, 79, 84, 72, 69, 83, 13, 79, 78, 73, 79, 78, 13, 66, 82, 69, 65, 83, 84, 13, 83, 79, 68, 65, 13, 80, 82, 73, 77, 65, 84, 69, 13, 77, 65, 77, 77, 65, 76, 13, 83, 78, 65, 75, 69, 13], "trial": 3, "time_elapsed": 700316, "type": "FREE_RECALL", "trial_index": 131}, "uniqueid": "MTK1870:3GD6L00D3T41Q7D1UMQ28XASEMRM1O", "dateTime": 1516483033983}, {"current_trial": 132, "trialdata": {"rt": 2573, "trial_type": "text", "internal_node_id": "0.0-96.0", "time_elapsed": 704894, "key_press": 13, "type": "INSTRUCTIONS", "trial_index": 132}, "uniqueid": "MTK1870:3GD6L00D3T41Q7D1UMQ28XASEMRM1O", "dateTime": 1516483038557}, {"current_trial": 133, "trialdata": {"rt": [7253, 11077], "trial_type": "math-distractor", "key_times": [3943, 4398, 7253, 10286, 10629, 11077], "responses": ["19", "18"], "num2": [7, 6, 3], "num3": [5, 4, 2], "conditions": [12, 1600, "a", 12000], "internal_node_id": "0.0-97.0", "key_presses": [49, 57, 13, 49, 56, 13], "trial": 4, "time_elapsed": 718897, "type": "DISTRACTOR", "trial_index": 133, "num1": [7, 8, 8]}, "uniqueid": "MTK1870:3GD6L00D3T41Q7D1UMQ28XASEMRM1O", "dateTime": 1516483052560}, {"current_trial": 134, "trialdata": {"rt": -1, "trial_type": "single-stim", "stimulus": "<p id=\"stim\">10</p>", "internal_node_id": "0.0-98.0-0.0", "time_elapsed": 721897, "key_press": -1, "trial_index": 134}, "uniqueid": "MTK1870:3GD6L00D3T41Q7D1UMQ28XASEMRM1O", "dateTime": 1516483055560}, {"current_trial": 135, "trialdata": {"rt": -1, "trial_type": "single-stim", "stimulus": "<p id=\"stim\">9</p>", "internal_node_id": "0.0-98.0-1.0", "time_elapsed": 722898, "key_press": -1, "trial_index": 135}, "uniqueid": "MTK1870:3GD6L00D3T41Q7D1UMQ28XASEMRM1O", "dateTime": 1516483056562}, {"current_trial": 136, "trialdata": {"rt": -1, "trial_type": "single-stim", "stimulus": "<p id=\"stim\">8</p>", "internal_node_id": "0.0-98.0-2.0", "time_elapsed": 723900, "key_press": -1, "trial_index": 136}, "uniqueid": "MTK1870:3GD6L00D3T41Q7D1UMQ28XASEMRM1O", "dateTime": 1516483057563}, {"current_trial": 137, "trialdata": {"rt": -1, "trial_type": "single-stim", "stimulus": "<p id=\"stim\">7</p>", "internal_node_id": "0.0-98.0-3.0", "time_elapsed": 724901, "key_press": -1, "trial_index": 137}, "uniqueid": "MTK1870:3GD6L00D3T41Q7D1UMQ28XASEMRM1O", "dateTime": 1516483058564}, {"current_trial": 138, "trialdata": {"rt": -1, "trial_type": "single-stim", "stimulus": "<p id=\"stim\">6</p>", "internal_node_id": "0.0-98.0-4.0", "time_elapsed": 725901, "key_press": -1, "trial_index": 138}, "uniqueid": "MTK1870:3GD6L00D3T41Q7D1UMQ28XASEMRM1O", "dateTime": 1516483059565}, {"current_trial": 139, "trialdata": {"rt": -1, "trial_type": "single-stim", "stimulus": "<p id=\"stim\">5</p>", "internal_node_id": "0.0-98.0-5.0", "time_elapsed": 726914, "key_press": -1, "trial_index": 139}, "uniqueid": "MTK1870:3GD6L00D3T41Q7D1UMQ28XASEMRM1O", "dateTime": 1516483060577}, {"current_trial": 140, "trialdata": {"rt": -1, "trial_type": "single-stim", "stimulus": "<p id=\"stim\">4</p>", "internal_node_id": "0.0-98.0-6.0", "time_elapsed": 727916, "key_press": -1, "trial_index": 140}, "uniqueid": "MTK1870:3GD6L00D3T41Q7D1UMQ28XASEMRM1O", "dateTime": 1516483061579}, {"current_trial": 141, "trialdata": {"rt": -1, "trial_type": "single-stim", "stimulus": "<p id=\"stim\">3</p>", "internal_node_id": "0.0-98.0-7.0", "time_elapsed": 728918, "key_press": -1, "trial_index": 141}, "uniqueid": "MTK1870:3GD6L00D3T41Q7D1UMQ28XASEMRM1O", "dateTime": 1516483062581}, {"current_trial": 142, "trialdata": {"rt": -1, "trial_type": "single-stim", "stimulus": "<p id=\"stim\">2</p>", "internal_node_id": "0.0-98.0-8.0", "time_elapsed": 729919, "key_press": -1, "trial_index": 142}, "uniqueid": "MTK1870:3GD6L00D3T41Q7D1UMQ28XASEMRM1O", "dateTime": 1516483063582}, {"current_trial": 143, "trialdata": {"rt": -1, "trial_type": "single-stim", "stimulus": "<p id=\"stim\">1</p>", "internal_node_id": "0.0-98.0-9.0", "time_elapsed": 730920, "key_press": -1, "trial_index": 143}, "uniqueid": "MTK1870:3GD6L00D3T41Q7D1UMQ28XASEMRM1O", "dateTime": 1516483064583}, {"current_trial": 144, "trialdata": {"rt": -1, "trial_type": "single-stim", "stimulus": "<p id=\"stim\">+</p>", "internal_node_id": "0.0-99.0-0.0", "time_elapsed": 732422, "key_press": -1, "type": "FIXATION", "trial_index": 144}, "uniqueid": "MTK1870:3GD6L00D3T41Q7D1UMQ28XASEMRM1O", "dateTime": 1516483066085}, {"current_trial": 145, "trialdata": {"rt": -1000, "trial_type": "single-audio", "word": "world", "stimulus": "/static/audio/wordpool/WORLD.wav", "conditions": [12, 1600, "a", 12000], "internal_node_id": "0.0-100.0", "trial": 4, "time_elapsed": 735226, "serialpos": 0, "key_press": -1, "wordID": 1621, "type": "PRES_AUD", "trial_index": 145}, "uniqueid": "MTK1870:3GD6L00D3T41Q7D1UMQ28XASEMRM1O", "dateTime": 1516483068889}, {"current_trial": 146, "trialdata": {"rt": -1000, "trial_type": "single-audio", "word": "bacon", "stimulus": "/static/audio/wordpool/BACON.wav", "conditions": [12, 1600, "a", 12000], "internal_node_id": "0.0-101.0", "trial": 4, "time_elapsed": 737893, "serialpos": 1, "key_press": -1, "wordID": 66, "type": "PRES_AUD", "trial_index": 146}, "uniqueid": "MTK1870:3GD6L00D3T41Q7D1UMQ28XASEMRM1O", "dateTime": 1516483071556}, {"current_trial": 147, "trialdata": {"rt": -1000, "trial_type": "single-audio", "word": "pork", "stimulus": "/static/audio/wordpool/PORK.wav", "conditions": [12, 1600, "a", 12000], "internal_node_id": "0.0-102.0", "trial": 4, "time_elapsed": 740577, "serialpos": 2, "key_press": -1, "wordID": 1107, "type": "PRES_AUD", "trial_index": 147}, "uniqueid": "MTK1870:3GD6L00D3T41Q7D1UMQ28XASEMRM1O", "dateTime": 1516483074241}, {"current_trial": 148, "trialdata": {"rt": -1000, "trial_type": "single-audio", "word": "waitress", "stimulus": "/static/audio/wordpool/WAITRESS.wav", "conditions": [12, 1600, "a", 12000], "internal_node_id": "0.0-103.0", "trial": 4, "time_elapsed": 743067, "serialpos": 3, "key_press": -1, "wordID": 1580, "type": "PRES_AUD", "trial_index": 148}, "uniqueid": "MTK1870:3GD6L00D3T41Q7D1UMQ28XASEMRM1O", "dateTime": 1516483076731}, {"current_trial": 149, "trialdata": {"rt": -1000, "trial_type": "single-audio", "word": "country", "stimulus": "/static/audio/wordpool/COUNTRY.wav", "conditions": [12, 1600, "a", 12000], "internal_node_id": "0.0-104.0", "trial": 4, "time_elapsed": 745589, "serialpos": 4, "key_press": -1, "wordID": 387, "type": "PRES_AUD", "trial_index": 149}, "uniqueid": "MTK1870:3GD6L00D3T41Q7D1UMQ28XASEMRM1O", "dateTime": 1516483079252}, {"current_trial": 150, "trialdata": {"rt": -1000, "trial_type": "single-audio", "word": "laser", "stimulus": "/static/audio/wordpool/LASER.wav", "conditions": [12, 1600, "a", 12000], "internal_node_id": "0.0-105.0", "trial": 4, "time_elapsed": 748127, "serialpos": 5, "key_press": -1, "wordID": 800, "type": "PRES_AUD", "trial_index": 150}, "uniqueid": "MTK1870:3GD6L00D3T41Q7D1UMQ28XASEMRM1O", "dateTime": 1516483081791}, {"current_trial": 151, "trialdata": {"rt": -1000, "trial_type": "single-audio", "word": "toaster", "stimulus": "/static/audio/wordpool/TOASTER.wav", "conditions": [12, 1600, "a", 12000], "internal_node_id": "0.0-106.0", "trial": 4, "time_elapsed": 750752, "serialpos": 6, "key_press": -1, "wordID": 1471, "type": "PRES_AUD", "trial_index": 151}, "uniqueid": "MTK1870:3GD6L00D3T41Q7D1UMQ28XASEMRM1O", "dateTime": 1516483084415}, {"current_trial": 152, "trialdata": {"rt": -1000, "trial_type": "single-audio", "word": "sword", "stimulus": "/static/audio/wordpool/SWORD.wav", "conditions": [12, 1600, "a", 12000], "internal_node_id": "0.0-107.0", "trial": 4, "time_elapsed": 753177, "serialpos": 7, "key_press": -1, "wordID": 1422, "type": "PRES_AUD", "trial_index": 152}, "uniqueid": "MTK1870:3GD6L00D3T41Q7D1UMQ28XASEMRM1O", "dateTime": 1516483086841}, {"current_trial": 153, "trialdata": {"rt": -1000, "trial_type": "single-audio", "word": "palace", "stimulus": "/static/audio/wordpool/PALACE.wav", "conditions": [12, 1600, "a", 12000], "internal_node_id": "0.0-108.0", "trial": 4, "time_elapsed": 755825, "serialpos": 8, "key_press": -1, "wordID": 1005, "type": "PRES_AUD", "trial_index": 153}, "uniqueid": "MTK1870:3GD6L00D3T41Q7D1UMQ28XASEMRM1O", "dateTime": 1516483089488}, {"current_trial": 154, "trialdata": {"rt": -1000, "trial_type": "single-audio", "word": "paper", "stimulus": "/static/audio/wordpool/PAPER.wav", "conditions": [12, 1600, "a", 12000], "internal_node_id": "0.0-109.0", "trial": 4, "time_elapsed": 758514, "serialpos": 9, "key_press": -1, "wordID": 1010, "type": "PRES_AUD", "trial_index": 154}, "uniqueid": "MTK1870:3GD6L00D3T41Q7D1UMQ28XASEMRM1O", "dateTime": 1516483092177}, {"current_trial": 155, "trialdata": {"rt": -1000, "trial_type": "single-audio", "word": "cook", "stimulus": "/static/audio/wordpool/COOK.wav", "conditions": [12, 1600, "a", 12000], "internal_node_id": "0.0-110.0", "trial": 4, "time_elapsed": 760929, "serialpos": 10, "key_press": -1, "wordID": 371, "type": "PRES_AUD", "trial_index": 155}, "uniqueid": "MTK1870:3GD6L00D3T41Q7D1UMQ28XASEMRM1O", "dateTime": 1516483094593}, {"current_trial": 156, "trialdata": {"rt": -1000, "trial_type": "single-audio", "word": "panther", "stimulus": "/static/audio/wordpool/PANTHER.wav", "conditions": [12, 1600, "a", 12000], "internal_node_id": "0.0-111.0", "trial": 4, "time_elapsed": 763458, "serialpos": 11, "key_press": -1, "wordID": 1008, "type": "PRES_AUD", "trial_index": 156}, "uniqueid": "MTK1870:3GD6L00D3T41Q7D1UMQ28XASEMRM1O", "dateTime": 1516483097121}, {"current_trial": 157, "trialdata": {"rt": -1, "trial_type": "single-stim", "stimulus": "", "internal_node_id": "0.0-112.0-0.0", "time_elapsed": 764824, "key_press": -1, "type": "PRE_RECALL_DELAY", "trial_index": 157}, "uniqueid": "MTK1870:3GD6L00D3T41Q7D1UMQ28XASEMRM1O", "dateTime": 1516483098488}, {"current_trial": 158, "trialdata": {"rt": -1000, "trial_type": "single-audio", "stimulus": "/static/audio/400Hz.wav", "internal_node_id": "0.0-113.0", "time_elapsed": 765326, "key_press": -1, "type": "PRE_RECALL_ALERT", "trial_index": 158}, "uniqueid": "MTK1870:3GD6L00D3T41Q7D1UMQ28XASEMRM1O", "dateTime": 1516483098989}, {"current_trial": 159, "trialdata": {"rt": [7652, 8916, 9788, 23308, 24660, 42931, 58603], "recwords": ["panther", "cook", "soda", "world", "bacon", "sword", "waiter"], "key_times": [6070, 6213, 6365, 6501, 6636, 6837, 7220, 7356, 7461, 7652, 8252, 8365, 8517, 8700, 8916, 9285, 9428, 9557, 9620, 9788, 22325, 22574, 22692, 22850, 22932, 23308, 23652, 23740, 24140, 24228, 24428, 24660, 41981, 42131, 42340, 42452, 42660, 42931, 55869, 55947, 56123, 56259, 56412, 56499, 58603], "trial_type": "free-recall", "conditions": [12, 1600, "a", 12000], "internal_node_id": "0.0-114.0-0.0", "key_presses": [80, 65, 78, 84, 72, 82, 8, 69, 82, 13, 67, 79, 79, 75, 13, 83, 79, 68, 65, 13, 87, 79, 82, 76, 68, 13, 66, 65, 67, 79, 78, 13, 83, 87, 79, 82, 68, 13, 87, 65, 73, 84, 69, 82, 13], "trial": 4, "time_elapsed": 825329, "type": "FREE_RECALL", "trial_index": 159}, "uniqueid": "MTK1870:3GD6L00D3T41Q7D1UMQ28XASEMRM1O", "dateTime": 1516483158999}, {"current_trial": 160, "trialdata": {"rt": 2314, "trial_type": "text", "internal_node_id": "0.0-115.0", "time_elapsed": 829651, "key_press": 13, "type": "INSTRUCTIONS", "trial_index": 160}, "uniqueid": "MTK1870:3GD6L00D3T41Q7D1UMQ28XASEMRM1O", "dateTime": 1516483163314}, {"current_trial": 161, "trialdata": {"rt": [4277, 7469, 10325], "trial_type": "math-distractor", "key_times": [3423, 3518, 4277, 7158, 7246, 7469, 10046, 10102, 10325], "responses": ["18", "13", "12"], "num2": [8, 6, 5, 1], "num3": [2, 2, 4, 2], "conditions": [24, 1600, "a", 12000], "internal_node_id": "0.0-116.0", "key_presses": [49, 56, 13, 49, 51, 13, 49, 50, 13], "trial": 5, "time_elapsed": 843655, "type": "DISTRACTOR", "trial_index": 161, "num1": [7, 5, 3, 2]}, "uniqueid": "MTK1870:3GD6L00D3T41Q7D1UMQ28XASEMRM1O", "dateTime": 1516483177318}, {"current_trial": 162, "trialdata": {"rt": -1, "trial_type": "single-stim", "stimulus": "<p id=\"stim\">10</p>", "internal_node_id": "0.0-117.0-0.0", "time_elapsed": 846656, "key_press": -1, "trial_index": 162}, "uniqueid": "MTK1870:3GD6L00D3T41Q7D1UMQ28XASEMRM1O", "dateTime": 1516483180319}, {"current_trial": 163, "trialdata": {"rt": -1, "trial_type": "single-stim", "stimulus": "<p id=\"stim\">9</p>", "internal_node_id": "0.0-117.0-1.0", "time_elapsed": 847656, "key_press": -1, "trial_index": 163}, "uniqueid": "MTK1870:3GD6L00D3T41Q7D1UMQ28XASEMRM1O", "dateTime": 1516483181319}, {"current_trial": 164, "trialdata": {"rt": -1, "trial_type": "single-stim", "stimulus": "<p id=\"stim\">8</p>", "internal_node_id": "0.0-117.0-2.0", "time_elapsed": 848658, "key_press": -1, "trial_index": 164}, "uniqueid": "MTK1870:3GD6L00D3T41Q7D1UMQ28XASEMRM1O", "dateTime": 1516483182321}, {"current_trial": 165, "trialdata": {"rt": -1, "trial_type": "single-stim", "stimulus": "<p id=\"stim\">7</p>", "internal_node_id": "0.0-117.0-3.0", "time_elapsed": 849658, "key_press": -1, "trial_index": 165}, "uniqueid": "MTK1870:3GD6L00D3T41Q7D1UMQ28XASEMRM1O", "dateTime": 1516483183321}, {"current_trial": 166, "trialdata": {"rt": -1, "trial_type": "single-stim", "stimulus": "<p id=\"stim\">6</p>", "internal_node_id": "0.0-117.0-4.0", "time_elapsed": 850659, "key_press": -1, "trial_index": 166}, "uniqueid": "MTK1870:3GD6L00D3T41Q7D1UMQ28XASEMRM1O", "dateTime": 1516483184322}, {"current_trial": 167, "trialdata": {"rt": -1, "trial_type": "single-stim", "stimulus": "<p id=\"stim\">5</p>", "internal_node_id": "0.0-117.0-5.0", "time_elapsed": 851660, "key_press": -1, "trial_index": 167}, "uniqueid": "MTK1870:3GD6L00D3T41Q7D1UMQ28XASEMRM1O", "dateTime": 1516483185323}, {"current_trial": 168, "trialdata": {"rt": -1, "trial_type": "single-stim", "stimulus": "<p id=\"stim\">4</p>", "internal_node_id": "0.0-117.0-6.0", "time_elapsed": 852661, "key_press": -1, "trial_index": 168}, "uniqueid": "MTK1870:3GD6L00D3T41Q7D1UMQ28XASEMRM1O", "dateTime": 1516483186324}, {"current_trial": 169, "trialdata": {"rt": -1, "trial_type": "single-stim", "stimulus": "<p id=\"stim\">3</p>", "internal_node_id": "0.0-117.0-7.0", "time_elapsed": 853662, "key_press": -1, "trial_index": 169}, "uniqueid": "MTK1870:3GD6L00D3T41Q7D1UMQ28XASEMRM1O", "dateTime": 1516483187325}, {"current_trial": 170, "trialdata": {"rt": -1, "trial_type": "single-stim", "stimulus": "<p id=\"stim\">2</p>", "internal_node_id": "0.0-117.0-8.0", "time_elapsed": 854663, "key_press": -1, "trial_index": 170}, "uniqueid": "MTK1870:3GD6L00D3T41Q7D1UMQ28XASEMRM1O", "dateTime": 1516483188326}, {"current_trial": 171, "trialdata": {"rt": -1, "trial_type": "single-stim", "stimulus": "<p id=\"stim\">1</p>", "internal_node_id": "0.0-117.0-9.0", "time_elapsed": 855665, "key_press": -1, "trial_index": 171}, "uniqueid": "MTK1870:3GD6L00D3T41Q7D1UMQ28XASEMRM1O", "dateTime": 1516483189328}, {"current_trial": 172, "trialdata": {"rt": -1, "trial_type": "single-stim", "stimulus": "<p id=\"stim\">+</p>", "internal_node_id": "0.0-118.0-0.0", "time_elapsed": 857167, "key_press": -1, "type": "FIXATION", "trial_index": 172}, "uniqueid": "MTK1870:3GD6L00D3T41Q7D1UMQ28XASEMRM1O", "dateTime": 1516483190830}, {"current_trial": 173, "trialdata": {"rt": -1000, "trial_type": "single-audio", "word": "mailbox", "stimulus": "/static/audio/wordpool/MAILBOX.wav", "conditions": [24, 1600, "a", 12000], "internal_node_id": "0.0-119.0", "trial": 5, "time_elapsed": 859585, "serialpos": 0, "key_press": -1, "wordID": 856, "type": "PRES_AUD", "trial_index": 173}, "uniqueid": "MTK1870:3GD6L00D3T41Q7D1UMQ28XASEMRM1O", "dateTime": 1516483193248}, {"current_trial": 174, "trialdata": {"rt": -1000, "trial_type": "single-audio", "word": "lodge", "stimulus": "/static/audio/wordpool/LODGE.wav", "conditions": [24, 1600, "a", 12000], "internal_node_id": "0.0-120.0", "trial": 5, "time_elapsed": 862377, "serialpos": 1, "key_press": -1, "wordID": 838, "type": "PRES_AUD", "trial_index": 174}, "uniqueid": "MTK1870:3GD6L00D3T41Q7D1UMQ28XASEMRM1O", "dateTime": 1516483196040}, {"current_trial": 175, "trialdata": {"rt": -1000, "trial_type": "single-audio", "word": "grill", "stimulus": "/static/audio/wordpool/GRILL.wav", "conditions": [24, 1600, "a", 12000], "internal_node_id": "0.0-121.0", "trial": 5, "time_elapsed": 864873, "serialpos": 2, "key_press": -1, "wordID": 660, "type": "PRES_AUD", "trial_index": 175}, "uniqueid": "MTK1870:3GD6L00D3T41Q7D1UMQ28XASEMRM1O", "dateTime": 1516483198536}, {"current_trial": 176, "trialdata": {"rt": -1000, "trial_type": "single-audio", "word": "lunch", "stimulus": "/static/audio/wordpool/LUNCH.wav", "conditions": [24, 1600, "a", 12000], "internal_node_id": "0.0-122.0", "trial": 5, "time_elapsed": 867360, "serialpos": 3, "key_press": -1, "wordID": 848, "type": "PRES_AUD", "trial_index": 176}, "uniqueid": "MTK1870:3GD6L00D3T41Q7D1UMQ28XASEMRM1O", "dateTime": 1516483201023}, {"current_trial": 177, "trialdata": {"rt": -1000, "trial_type": "single-audio", "word": "award", "stimulus": "/static/audio/wordpool/AWARD.wav", "conditions": [24, 1600, "a", 12000], "internal_node_id": "0.0-123.0", "trial": 5, "time_elapsed": 869802, "serialpos": 4, "key_press": -1, "wordID": 62, "type": "PRES_AUD", "trial_index": 177}, "uniqueid": "MTK1870:3GD6L00D3T41Q7D1UMQ28XASEMRM1O", "dateTime": 1516483203465}, {"current_trial": 178, "trialdata": {"rt": -1000, "trial_type": "single-audio", "word": "cafe", "stimulus": "/static/audio/wordpool/CAFE.wav", "conditions": [24, 1600, "a", 12000], "internal_node_id": "0.0-124.0", "trial": 5, "time_elapsed": 872392, "serialpos": 5, "key_press": -1, "wordID": 215, "type": "PRES_AUD", "trial_index": 178}, "uniqueid": "MTK1870:3GD6L00D3T41Q7D1UMQ28XASEMRM1O", "dateTime": 1516483206055}, {"current_trial": 179, "trialdata": {"rt": -1000, "trial_type": "single-audio", "word": "diner", "stimulus": "/static/audio/wordpool/DINER.wav", "conditions": [24, 1600, "a", 12000], "internal_node_id": "0.0-125.0", "trial": 5, "time_elapsed": 875066, "serialpos": 6, "key_press": -1, "wordID": 466, "type": "PRES_AUD", "trial_index": 179}, "uniqueid": "MTK1870:3GD6L00D3T41Q7D1UMQ28XASEMRM1O", "dateTime": 1516483208729}, {"current_trial": 180, "trialdata": {"rt": -1000, "trial_type": "single-audio", "word": "mailman", "stimulus": "/static/audio/wordpool/MAILMAN.wav", "conditions": [24, 1600, "a", 12000], "internal_node_id": "0.0-126.0", "trial": 5, "time_elapsed": 877802, "serialpos": 7, "key_press": -1, "wordID": 857, "type": "PRES_AUD", "trial_index": 180}, "uniqueid": "MTK1870:3GD6L00D3T41Q7D1UMQ28XASEMRM1O", "dateTime": 1516483211465}, {"current_trial": 181, "trialdata": {"rt": -1000, "trial_type": "single-audio", "word": "convict", "stimulus": "/static/audio/wordpool/CONVICT.wav", "conditions": [24, 1600, "a", 12000], "internal_node_id": "0.0-127.0", "trial": 5, "time_elapsed": 880456, "serialpos": 8, "key_press": -1, "wordID": 370, "type": "PRES_AUD", "trial_index": 181}, "uniqueid": "MTK1870:3GD6L00D3T41Q7D1UMQ28XASEMRM1O", "dateTime": 1516483214119}, {"current_trial": 182, "trialdata": {"rt": -1000, "trial_type": "single-audio", "word": "iceberg", "stimulus": "/static/audio/wordpool/ICEBERG.wav", "conditions": [24, 1600, "a", 12000], "internal_node_id": "0.0-128.0", "trial": 5, "time_elapsed": 883148, "serialpos": 9, "key_press": -1, "wordID": 730, "type": "PRES_AUD", "trial_index": 182}, "uniqueid": "MTK1870:3GD6L00D3T41Q7D1UMQ28XASEMRM1O", "dateTime": 1516483216811}, {"current_trial": 183, "trialdata": {"rt": -1000, "trial_type": "single-audio", "word": "wardrobe", "stimulus": "/static/audio/wordpool/WARDROBE.wav", "conditions": [24, 1600, "a", 12000], "internal_node_id": "0.0-129.0", "trial": 5, "time_elapsed": 885881, "serialpos": 10, "key_press": -1, "wordID": 1586, "type": "PRES_AUD", "trial_index": 183}, "uniqueid": "MTK1870:3GD6L00D3T41Q7D1UMQ28XASEMRM1O", "dateTime": 1516483219546}, {"current_trial": 184, "trialdata": {"rt": -1000, "trial_type": "single-audio", "word": "keeper", "stimulus": "/static/audio/wordpool/KEEPER.wav", "conditions": [24, 1600, "a", 12000], "internal_node_id": "0.0-130.0", "trial": 5, "time_elapsed": 888411, "serialpos": 11, "key_press": -1, "wordID": 768, "type": "PRES_AUD", "trial_index": 184}, "uniqueid": "MTK1870:3GD6L00D3T41Q7D1UMQ28XASEMRM1O", "dateTime": 1516483222075}, {"current_trial": 185, "trialdata": {"rt": -1000, "trial_type": "single-audio", "word": "blender", "stimulus": "/static/audio/wordpool/BLENDER.wav", "conditions": [24, 1600, "a", 12000], "internal_node_id": "0.0-131.0", "trial": 5, "time_elapsed": 891159, "serialpos": 12, "key_press": -1, "wordID": 135, "type": "PRES_AUD", "trial_index": 185}, "uniqueid": "MTK1870:3GD6L00D3T41Q7D1UMQ28XASEMRM1O", "dateTime": 1516483224822}, {"current_trial": 186, "trialdata": {"rt": -1000, "trial_type": "single-audio", "word": "loft", "stimulus": "/static/audio/wordpool/LOFT.wav", "conditions": [24, 1600, "a", 12000], "internal_node_id": "0.0-132.0", "trial": 5, "time_elapsed": 893940, "serialpos": 13, "key_press": -1, "wordID": 839, "type": "PRES_AUD", "trial_index": 186}, "uniqueid": "MTK1870:3GD6L00D3T41Q7D1UMQ28XASEMRM1O", "dateTime": 1516483227603}, {"current_trial": 187, "trialdata": {"rt": -1000, "trial_type": "single-audio", "word": "sculpture", "stimulus": "/static/audio/wordpool/SCULPTURE.wav", "conditions": [24, 1600, "a", 12000], "internal_node_id": "0.0-133.0", "trial": 5, "time_elapsed": 896362, "serialpos": 14, "key_press": -1, "wordID": 1257, "type": "PRES_AUD", "trial_index": 187}, "uniqueid": "MTK1870:3GD6L00D3T41Q7D1UMQ28XASEMRM1O", "dateTime": 1516483230025}, {"current_trial": 188, "trialdata": {"rt": -1000, "trial_type": "single-audio", "word": "statue", "stimulus": "/static/audio/wordpool/STATUE.wav", "conditions": [24, 1600, "a", 12000], "internal_node_id": "0.0-134.0", "trial": 5, "time_elapsed": 898872, "serialpos": 15, "key_press": -1, "wordID": 1373, "type": "PRES_AUD", "trial_index": 188}, "uniqueid": "MTK1870:3GD6L00D3T41Q7D1UMQ28XASEMRM1O", "dateTime": 1516483232536}, {"current_trial": 189, "trialdata": {"rt": -1000, "trial_type": "single-audio", "word": "sheriff", "stimulus": "/static/audio/wordpool/SHERIFF.wav", "conditions": [24, 1600, "a", 12000], "internal_node_id": "0.0-135.0", "trial": 5, "time_elapsed": 901644, "serialpos": 16, "key_press": -1, "wordID": 1283, "type": "PRES_AUD", "trial_index": 189}, "uniqueid": "MTK1870:3GD6L00D3T41Q7D1UMQ28XASEMRM1O", "dateTime": 1516483235308}, {"current_trial": 190, "trialdata": {"rt": -1000, "trial_type": "single-audio", "word": "cowboy", "stimulus": "/static/audio/wordpool/COWBOY.wav", "conditions": [24, 1600, "a", 12000], "internal_node_id": "0.0-136.0", "trial": 5, "time_elapsed": 904372, "serialpos": 17, "key_press": -1, "wordID": 394, "type": "PRES_AUD", "trial_index": 190}, "uniqueid": "MTK1870:3GD6L00D3T41Q7D1UMQ28XASEMRM1O", "dateTime": 1516483238035}, {"current_trial": 191, "trialdata": {"rt": -1000, "trial_type": "single-audio", "word": "outlaw", "stimulus": "/static/audio/wordpool/OUTLAW.wav", "conditions": [24, 1600, "a", 12000], "internal_node_id": "0.0-137.0", "trial": 5, "time_elapsed": 907166, "serialpos": 18, "key_press": -1, "wordID": 988, "type": "PRES_AUD", "trial_index": 191}, "uniqueid": "MTK1870:3GD6L00D3T41Q7D1UMQ28XASEMRM1O", "dateTime": 1516483240829}, {"current_trial": 192, "trialdata": {"rt": -1000, "trial_type": "single-audio", "word": "rebel", "stimulus": "/static/audio/wordpool/REBEL.wav", "conditions": [24, 1600, "a", 12000], "internal_node_id": "0.0-138.0", "trial": 5, "time_elapsed": 909751, "serialpos": 19, "key_press": -1, "wordID": 1171, "type": "PRES_AUD", "trial_index": 192}, "uniqueid": "MTK1870:3GD6L00D3T41Q7D1UMQ28XASEMRM1O", "dateTime": 1516483243414}, {"current_trial": 193, "trialdata": {"rt": -1000, "trial_type": "single-audio", "word": "burglar", "stimulus": "/static/audio/wordpool/BURGLAR.wav", "conditions": [24, 1600, "a", 12000], "internal_node_id": "0.0-139.0", "trial": 5, "time_elapsed": 912374, "serialpos": 20, "key_press": -1, "wordID": 199, "type": "PRES_AUD", "trial_index": 193}, "uniqueid": "MTK1870:3GD6L00D3T41Q7D1UMQ28XASEMRM1O", "dateTime": 1516483246037}, {"current_trial": 194, "trialdata": {"rt": -1000, "trial_type": "single-audio", "word": "pimple", "stimulus": "/static/audio/wordpool/PIMPLE.wav", "conditions": [24, 1600, "a", 12000], "internal_node_id": "0.0-140.0", "trial": 5, "time_elapsed": 915114, "serialpos": 21, "key_press": -1, "wordID": 1070, "type": "PRES_AUD", "trial_index": 194}, "uniqueid": "MTK1870:3GD6L00D3T41Q7D1UMQ28XASEMRM1O", "dateTime": 1516483248777}, {"current_trial": 195, "trialdata": {"rt": -1000, "trial_type": "single-audio", "word": "county", "stimulus": "/static/audio/wordpool/COUNTY.wav", "conditions": [24, 1600, "a", 12000], "internal_node_id": "0.0-141.0", "trial": 5, "time_elapsed": 917707, "serialpos": 22, "key_press": -1, "wordID": 388, "type": "PRES_AUD", "trial_index": 195}, "uniqueid": "MTK1870:3GD6L00D3T41Q7D1UMQ28XASEMRM1O", "dateTime": 1516483251370}, {"current_trial": 196, "trialdata": {"rt": -1000, "trial_type": "single-audio", "word": "perch", "stimulus": "/static/audio/wordpool/PERCH.wav", "conditions": [24, 1600, "a", 12000], "internal_node_id": "0.0-142.0", "trial": 5, "time_elapsed": 920423, "serialpos": 23, "key_press": -1, "wordID": 1047, "type": "PRES_AUD", "trial_index": 196}, "uniqueid": "MTK1870:3GD6L00D3T41Q7D1UMQ28XASEMRM1O", "dateTime": 1516483254087}, {"current_trial": 197, "trialdata": {"rt": -1, "trial_type": "single-stim", "stimulus": "", "internal_node_id": "0.0-143.0-0.0", "time_elapsed": 921662, "key_press": -1, "type": "PRE_RECALL_DELAY", "trial_index": 197}, "uniqueid": "MTK1870:3GD6L00D3T41Q7D1UMQ28XASEMRM1O", "dateTime": 1516483255325}, {"current_trial": 198, "trialdata": {"rt": -1000, "trial_type": "single-audio", "stimulus": "/static/audio/400Hz.wav", "internal_node_id": "0.0-144.0", "time_elapsed": 922162, "key_press": -1, "type": "PRE_RECALL_ALERT", "trial_index": 198}, "uniqueid": "MTK1870:3GD6L00D3T41Q7D1UMQ28XASEMRM1O", "dateTime": 1516483255826}, {"current_trial": 199, "trialdata": {"rt": [3157, 5829, 10725, 13173, 16221, 21117, 26493, 33077, 39029, 46692, 50093, 59348], "recwords": ["country", "perch", "mailbox", "sheriff", "cowboy", "outlaw", "mailbox", "sword", "coffee", "loft", "cabin", "lunch"], "key_times": [1903, 2030, 2253, 2462, 2661, 2750, 2870, 3157, 4229, 5094, 5205, 5437, 5518, 5829, 9134, 9278, 9374, 9606, 9854, 10038, 10269, 10725, 11086, 11254, 11413, 11541, 11766, 11942, 12286, 13173, 13518, 13733, 13909, 14446, 14597, 14782, 15365, 15613, 16221, 19893, 20125, 20221, 20525, 20685, 20773, 21117, 25439, 25541, 25637, 25829, 25941, 26088, 26317, 26493, 32341, 32468, 32620, 32709, 32893, 33077, 37702, 37925, 38149, 38317, 38461, 38597, 39029, 44053, 44157, 44365, 44460, 45044, 45545, 45578, 45611, 45644, 45676, 45710, 45744, 45775, 45808, 45841, 46012, 46221, 46341, 46517, 46692, 47766, 47860, 48093, 48245, 48348, 50093, 58109, 58396, 58612, 58821, 58892, 59348], "trial_type": "free-recall", "conditions": [24, 1600, "a", 12000], "internal_node_id": "0.0-145.0-0.0", "key_presses": [67, 79, 85, 78, 84, 82, 89, 13, 80, 69, 82, 67, 72, 13, 77, 65, 73, 76, 66, 79, 88, 13, 83, 72, 69, 82, 73, 70, 70, 13, 67, 79, 87, 66, 79, 84, 8, 89, 13, 79, 85, 84, 76, 65, 87, 13, 77, 65, 73, 76, 66, 79, 88, 13, 83, 87, 79, 82, 68, 13, 67, 79, 70, 70, 69, 69, 13, 67, 65, 66, 73, 8, 8, 8, 8, 8, 8, 8, 8, 8, 8, 8, 76, 79, 70, 84, 13, 67, 65, 66, 73, 78, 13, 76, 85, 78, 67, 72, 13], "trial": 5, "time_elapsed": 982166, "type": "FREE_RECALL", "trial_index": 199}, "uniqueid": "MTK1870:3GD6L00D3T41Q7D1UMQ28XASEMRM1O", "dateTime": 1516483315836}, {"current_trial": 200, "trialdata": {"rt": 8698, "trial_type": "text", "internal_node_id": "0.0-146.0", "time_elapsed": 992873, "key_press": 13, "type": "INSTRUCTIONS", "trial_index": 200}, "uniqueid": "MTK1870:3GD6L00D3T41Q7D1UMQ28XASEMRM1O", "dateTime": 1516483326536}, {"current_trial": 201, "trialdata": {"rt": [3830, 6342, 10406], "trial_type": "math-distractor", "key_times": [3375, 3430, 3830, 6038, 6126, 6342, 9959, 10269, 10406], "responses": ["14", "12", "17"], "num2": [4, 1, 7, 1], "num3": [7, 5, 4, 6], "conditions": [24, 800, "a", 12000], "internal_node_id": "0.0-147.0", "key_presses": [49, 52, 13, 49, 50, 13, 49, 55, 13], "trial": 6, "time_elapsed": 1006877, "type": "DISTRACTOR", "trial_index": 201, "num1": [4, 7, 6, 4]}, "uniqueid": "MTK1870:3GD6L00D3T41Q7D1UMQ28XASEMRM1O", "dateTime": 1516483340541}, {"current_trial": 202, "trialdata": {"rt": -1, "trial_type": "single-stim", "stimulus": "<p id=\"stim\">10</p>", "internal_node_id": "0.0-148.0-0.0", "time_elapsed": 1009879, "key_press": -1, "trial_index": 202}, "uniqueid": "MTK1870:3GD6L00D3T41Q7D1UMQ28XASEMRM1O", "dateTime": 1516483343542}, {"current_trial": 203, "trialdata": {"rt": -1, "trial_type": "single-stim", "stimulus": "<p id=\"stim\">9</p>", "internal_node_id": "0.0-148.0-1.0", "time_elapsed": 1010881, "key_press": -1, "trial_index": 203}, "uniqueid": "MTK1870:3GD6L00D3T41Q7D1UMQ28XASEMRM1O", "dateTime": 1516483344544}, {"current_trial": 204, "trialdata": {"rt": -1, "trial_type": "single-stim", "stimulus": "<p id=\"stim\">8</p>", "internal_node_id": "0.0-148.0-2.0", "time_elapsed": 1011883, "key_press": -1, "trial_index": 204}, "uniqueid": "MTK1870:3GD6L00D3T41Q7D1UMQ28XASEMRM1O", "dateTime": 1516483345547}, {"current_trial": 205, "trialdata": {"rt": -1, "trial_type": "single-stim", "stimulus": "<p id=\"stim\">7</p>", "internal_node_id": "0.0-148.0-3.0", "time_elapsed": 1012884, "key_press": -1, "trial_index": 205}, "uniqueid": "MTK1870:3GD6L00D3T41Q7D1UMQ28XASEMRM1O", "dateTime": 1516483346548}, {"current_trial": 206, "trialdata": {"rt": -1, "trial_type": "single-stim", "stimulus": "<p id=\"stim\">6</p>", "internal_node_id": "0.0-148.0-4.0", "time_elapsed": 1013886, "key_press": -1, "trial_index": 206}, "uniqueid": "MTK1870:3GD6L00D3T41Q7D1UMQ28XASEMRM1O", "dateTime": 1516483347549}, {"current_trial": 207, "trialdata": {"rt": -1, "trial_type": "single-stim", "stimulus": "<p id=\"stim\">5</p>", "internal_node_id": "0.0-148.0-5.0", "time_elapsed": 1014887, "key_press": -1, "trial_index": 207}, "uniqueid": "MTK1870:3GD6L00D3T41Q7D1UMQ28XASEMRM1O", "dateTime": 1516483348551}, {"current_trial": 208, "trialdata": {"rt": -1, "trial_type": "single-stim", "stimulus": "<p id=\"stim\">4</p>", "internal_node_id": "0.0-148.0-6.0", "time_elapsed": 1015889, "key_press": -1, "trial_index": 208}, "uniqueid": "MTK1870:3GD6L00D3T41Q7D1UMQ28XASEMRM1O", "dateTime": 1516483349552}, {"current_trial": 209, "trialdata": {"rt": -1, "trial_type": "single-stim", "stimulus": "<p id=\"stim\">3</p>", "internal_node_id": "0.0-148.0-7.0", "time_elapsed": 1016890, "key_press": -1, "trial_index": 209}, "uniqueid": "MTK1870:3GD6L00D3T41Q7D1UMQ28XASEMRM1O", "dateTime": 1516483350553}, {"current_trial": 210, "trialdata": {"rt": -1, "trial_type": "single-stim", "stimulus": "<p id=\"stim\">2</p>", "internal_node_id": "0.0-148.0-8.0", "time_elapsed": 1017890, "key_press": -1, "trial_index": 210}, "uniqueid": "MTK1870:3GD6L00D3T41Q7D1UMQ28XASEMRM1O", "dateTime": 1516483351553}, {"current_trial": 211, "trialdata": {"rt": -1, "trial_type": "single-stim", "stimulus": "<p id=\"stim\">1</p>", "internal_node_id": "0.0-148.0-9.0", "time_elapsed": 1018891, "key_press": -1, "trial_index": 211}, "uniqueid": "MTK1870:3GD6L00D3T41Q7D1UMQ28XASEMRM1O", "dateTime": 1516483352554}, {"current_trial": 212, "trialdata": {"rt": -1, "trial_type": "single-stim", "stimulus": "<p id=\"stim\">+</p>", "internal_node_id": "0.0-149.0-0.0", "time_elapsed": 1020392, "key_press": -1, "type": "FIXATION", "trial_index": 212}, "uniqueid": "MTK1870:3GD6L00D3T41Q7D1UMQ28XASEMRM1O", "dateTime": 1516483354055}, {"current_trial": 213, "trialdata": {"rt": -1000, "trial_type": "single-audio", "word": "fleet", "stimulus": "/static/audio/wordpool/FLEET.wav", "conditions": [24, 800, "a", 12000], "internal_node_id": "0.0-150.0", "trial": 6, "time_elapsed": 1022253, "serialpos": 0, "key_press": -1, "wordID": 577, "type": "PRES_AUD", "trial_index": 213}, "uniqueid": "MTK1870:3GD6L00D3T41Q7D1UMQ28XASEMRM1O", "dateTime": 1516483355916}, {"current_trial": 214, "trialdata": {"rt": -1000, "trial_type": "single-audio", "word": "queen", "stimulus": "/static/audio/wordpool/QUEEN.wav", "conditions": [24, 800, "a", 12000], "internal_node_id": "0.0-151.0", "trial": 6, "time_elapsed": 1024082, "serialpos": 1, "key_press": -1, "wordID": 1148, "type": "PRES_AUD", "trial_index": 214}, "uniqueid": "MTK1870:3GD6L00D3T41Q7D1UMQ28XASEMRM1O", "dateTime": 1516483357745}, {"current_trial": 215, "trialdata": {"rt": -1000, "trial_type": "single-audio", "word": "slope", "stimulus": "/static/audio/wordpool/SLOPE.wav", "conditions": [24, 800, "a", 12000], "internal_node_id": "0.0-152.0", "trial": 6, "time_elapsed": 1026034, "serialpos": 2, "key_press": -1, "wordID": 1327, "type": "PRES_AUD", "trial_index": 215}, "uniqueid": "MTK1870:3GD6L00D3T41Q7D1UMQ28XASEMRM1O", "dateTime": 1516483359698}, {"current_trial": 216, "trialdata": {"rt": -1000, "trial_type": "single-audio", "word": "tile", "stimulus": "/static/audio/wordpool/TILE.wav", "conditions": [24, 800, "a", 12000], "internal_node_id": "0.0-153.0", "trial": 6, "time_elapsed": 1027961, "serialpos": 3, "key_press": -1, "wordID": 1467, "type": "PRES_AUD", "trial_index": 216}, "uniqueid": "MTK1870:3GD6L00D3T41Q7D1UMQ28XASEMRM1O", "dateTime": 1516483361624}, {"current_trial": 217, "trialdata": {"rt": -1000, "trial_type": "single-audio", "word": "brick", "stimulus": "/static/audio/wordpool/BRICK.wav", "conditions": [24, 800, "a", 12000], "internal_node_id": "0.0-154.0", "trial": 6, "time_elapsed": 1029823, "serialpos": 4, "key_press": -1, "wordID": 171, "type": "PRES_AUD", "trial_index": 217}, "uniqueid": "MTK1870:3GD6L00D3T41Q7D1UMQ28XASEMRM1O", "dateTime": 1516483363486}, {"current_trial": 218, "trialdata": {"rt": -1000, "trial_type": "single-audio", "word": "church", "stimulus": "/static/audio/wordpool/CHURCH.wav", "conditions": [24, 800, "a", 12000], "internal_node_id": "0.0-155.0", "trial": 6, "time_elapsed": 1031831, "serialpos": 5, "key_press": -1, "wordID": 306, "type": "PRES_AUD", "trial_index": 218}, "uniqueid": "MTK1870:3GD6L00D3T41Q7D1UMQ28XASEMRM1O", "dateTime": 1516483365494}, {"current_trial": 219, "trialdata": {"rt": -1000, "trial_type": "single-audio", "word": "mattress", "stimulus": "/static/audio/wordpool/MATTRESS.wav", "conditions": [24, 800, "a", 12000], "internal_node_id": "0.0-156.0", "trial": 6, "time_elapsed": 1033690, "serialpos": 6, "key_press": -1, "wordID": 878, "type": "PRES_AUD", "trial_index": 219}, "uniqueid": "MTK1870:3GD6L00D3T41Q7D1UMQ28XASEMRM1O", "dateTime": 1516483367353}, {"current_trial": 220, "trialdata": {"rt": -1000, "trial_type": "single-audio", "word": "cellar", "stimulus": "/static/audio/wordpool/CELLAR.wav", "conditions": [24, 800, "a", 12000], "internal_node_id": "0.0-157.0", "trial": 6, "time_elapsed": 1035548, "serialpos": 7, "key_press": -1, "wordID": 266, "type": "PRES_AUD", "trial_index": 220}, "uniqueid": "MTK1870:3GD6L00D3T41Q7D1UMQ28XASEMRM1O", "dateTime": 1516483369212}, {"current_trial": 221, "trialdata": {"rt": -1000, "trial_type": "single-audio", "word": "sunset", "stimulus": "/static/audio/wordpool/SUNSET.wav", "conditions": [24, 800, "a", 12000], "internal_node_id": "0.0-158.0", "trial": 6, "time_elapsed": 1037562, "serialpos": 8, "key_press": -1, "wordID": 1407, "type": "PRES_AUD", "trial_index": 221}, "uniqueid": "MTK1870:3GD6L00D3T41Q7D1UMQ28XASEMRM1O", "dateTime": 1516483371225}, {"current_trial": 222, "trialdata": {"rt": -1000, "trial_type": "single-audio", "word": "temple", "stimulus": "/static/audio/wordpool/TEMPLE.wav", "conditions": [24, 800, "a", 12000], "internal_node_id": "0.0-159.0", "trial": 6, "time_elapsed": 1039365, "serialpos": 9, "key_press": -1, "wordID": 1447, "type": "PRES_AUD", "trial_index": 222}, "uniqueid": "MTK1870:3GD6L00D3T41Q7D1UMQ28XASEMRM1O", "dateTime": 1516483373028}, {"current_trial": 223, "trialdata": {"rt": -1000, "trial_type": "single-audio", "word": "dashboard", "stimulus": "/static/audio/wordpool/DASHBOARD.wav", "conditions": [24, 800, "a", 12000], "internal_node_id": "0.0-160.0", "trial": 6, "time_elapsed": 1041353, "serialpos": 10, "key_press": -1, "wordID": 440, "type": "PRES_AUD", "trial_index": 223}, "uniqueid": "MTK1870:3GD6L00D3T41Q7D1UMQ28XASEMRM1O", "dateTime": 1516483375016}, {"current_trial": 224, "trialdata": {"rt": -1000, "trial_type": "single-audio", "word": "sunrise", "stimulus": "/static/audio/wordpool/SUNRISE.wav", "conditions": [24, 800, "a", 12000], "internal_node_id": "0.0-161.0", "trial": 6, "time_elapsed": 1043095, "serialpos": 11, "key_press": -1, "wordID": 1406, "type": "PRES_AUD", "trial_index": 224}, "uniqueid": "MTK1870:3GD6L00D3T41Q7D1UMQ28XASEMRM1O", "dateTime": 1516483376758}, {"current_trial": 225, "trialdata": {"rt": -1000, "trial_type": "single-audio", "word": "badge", "stimulus": "/static/audio/wordpool/BADGE.wav", "conditions": [24, 800, "a", 12000], "internal_node_id": "0.0-162.0", "trial": 6, "time_elapsed": 1045066, "serialpos": 12, "key_press": -1, "wordID": 67, "type": "PRES_AUD", "trial_index": 225}, "uniqueid": "MTK1870:3GD6L00D3T41Q7D1UMQ28XASEMRM1O", "dateTime": 1516483378729}, {"current_trial": 226, "trialdata": {"rt": -1000, "trial_type": "single-audio", "word": "eagle", "stimulus": "/static/audio/wordpool/EAGLE.wav", "conditions": [24, 800, "a", 12000], "internal_node_id": "0.0-163.0", "trial": 6, "time_elapsed": 1046965, "serialpos": 13, "key_press": -1, "wordID": 511, "type": "PRES_AUD", "trial_index": 226}, "uniqueid": "MTK1870:3GD6L00D3T41Q7D1UMQ28XASEMRM1O", "dateTime": 1516483380628}, {"current_trial": 227, "trialdata": {"rt": -1000, "trial_type": "single-audio", "word": "peanut", "stimulus": "/static/audio/wordpool/PEANUT.wav", "conditions": [24, 800, "a", 12000], "internal_node_id": "0.0-164.0", "trial": 6, "time_elapsed": 1048703, "serialpos": 14, "key_press": -1, "wordID": 1031, "type": "PRES_AUD", "trial_index": 227}, "uniqueid": "MTK1870:3GD6L00D3T41Q7D1UMQ28XASEMRM1O", "dateTime": 1516483382366}, {"current_trial": 228, "trialdata": {"rt": -1000, "trial_type": "single-audio", "word": "infant", "stimulus": "/static/audio/wordpool/INFANT.wav", "conditions": [24, 800, "a", 12000], "internal_node_id": "0.0-165.0", "trial": 6, "time_elapsed": 1050533, "serialpos": 15, "key_press": -1, "wordID": 736, "type": "PRES_AUD", "trial_index": 228}, "uniqueid": "MTK1870:3GD6L00D3T41Q7D1UMQ28XASEMRM1O", "dateTime": 1516483384196}, {"current_trial": 229, "trialdata": {"rt": -1000, "trial_type": "single-audio", "word": "champagne", "stimulus": "/static/audio/wordpool/CHAMPAGNE.wav", "conditions": [24, 800, "a", 12000], "internal_node_id": "0.0-166.0", "trial": 6, "time_elapsed": 1052531, "serialpos": 16, "key_press": -1, "wordID": 277, "type": "PRES_AUD", "trial_index": 229}, "uniqueid": "MTK1870:3GD6L00D3T41Q7D1UMQ28XASEMRM1O", "dateTime": 1516483386195}, {"current_trial": 230, "trialdata": {"rt": -1000, "trial_type": "single-audio", "word": "outdoors", "stimulus": "/static/audio/wordpool/OUTDOORS.wav", "conditions": [24, 800, "a", 12000], "internal_node_id": "0.0-167.0", "trial": 6, "time_elapsed": 1054375, "serialpos": 17, "key_press": -1, "wordID": 986, "type": "PRES_AUD", "trial_index": 230}, "uniqueid": "MTK1870:3GD6L00D3T41Q7D1UMQ28XASEMRM1O", "dateTime": 1516483388039}, {"current_trial": 231, "trialdata": {"rt": -1000, "trial_type": "single-audio", "word": "office", "stimulus": "/static/audio/wordpool/OFFICE.wav", "conditions": [24, 800, "a", 12000], "internal_node_id": "0.0-168.0", "trial": 6, "time_elapsed": 1056344, "serialpos": 18, "key_press": -1, "wordID": 971, "type": "PRES_AUD", "trial_index": 231}, "uniqueid": "MTK1870:3GD6L00D3T41Q7D1UMQ28XASEMRM1O", "dateTime": 1516483390008}, {"current_trial": 232, "trialdata": {"rt": -1000, "trial_type": "single-audio", "word": "sphinx", "stimulus": "/static/audio/wordpool/SPHINX.wav", "conditions": [24, 800, "a", 12000], "internal_node_id": "0.0-169.0", "trial": 6, "time_elapsed": 1058299, "serialpos": 19, "key_press": -1, "wordID": 1348, "type": "PRES_AUD", "trial_index": 232}, "uniqueid": "MTK1870:3GD6L00D3T41Q7D1UMQ28XASEMRM1O", "dateTime": 1516483391962}, {"current_trial": 233, "trialdata": {"rt": -1000, "trial_type": "single-audio", "word": "rabbit", "stimulus": "/static/audio/wordpool/RABBIT.wav", "conditions": [24, 800, "a", 12000], "internal_node_id": "0.0-170.0", "trial": 6, "time_elapsed": 1060030, "serialpos": 20, "key_press": -1, "wordID": 1151, "type": "PRES_AUD", "trial_index": 233}, "uniqueid": "MTK1870:3GD6L00D3T41Q7D1UMQ28XASEMRM1O", "dateTime": 1516483393693}, {"current_trial": 234, "trialdata": {"rt": -1000, "trial_type": "single-audio", "word": "picture", "stimulus": "/static/audio/wordpool/PICTURE.wav", "conditions": [24, 800, "a", 12000], "internal_node_id": "0.0-171.0", "trial": 6, "time_elapsed": 1061867, "serialpos": 21, "key_press": -1, "wordID": 1060, "type": "PRES_AUD", "trial_index": 234}, "uniqueid": "MTK1870:3GD6L00D3T41Q7D1UMQ28XASEMRM1O", "dateTime": 1516483395530}, {"current_trial": 235, "trialdata": {"rt": -1000, "trial_type": "single-audio", "word": "portrait", "stimulus": "/static/audio/wordpool/PORTRAIT.wav", "conditions": [24, 800, "a", 12000], "internal_node_id": "0.0-172.0", "trial": 6, "time_elapsed": 1063524, "serialpos": 22, "key_press": -1, "wordID": 1110, "type": "PRES_AUD", "trial_index": 235}, "uniqueid": "MTK1870:3GD6L00D3T41Q7D1UMQ28XASEMRM1O", "dateTime": 1516483397187}, {"current_trial": 236, "trialdata": {"rt": -1000, "trial_type": "single-audio", "word": "sticker", "stimulus": "/static/audio/wordpool/STICKER.wav", "conditions": [24, 800, "a", 12000], "internal_node_id": "0.0-173.0", "trial": 6, "time_elapsed": 1065351, "serialpos": 23, "key_press": -1, "wordID": 1381, "type": "PRES_AUD", "trial_index": 236}, "uniqueid": "MTK1870:3GD6L00D3T41Q7D1UMQ28XASEMRM1O", "dateTime": 1516483399014}, {"current_trial": 237, "trialdata": {"rt": -1, "trial_type": "single-stim", "stimulus": "", "internal_node_id": "0.0-174.0-0.0", "time_elapsed": 1066582, "key_press": -1, "type": "PRE_RECALL_DELAY", "trial_index": 237}, "uniqueid": "MTK1870:3GD6L00D3T41Q7D1UMQ28XASEMRM1O", "dateTime": 1516483400245}, {"current_trial": 238, "trialdata": {"rt": -1000, "trial_type": "single-audio", "stimulus": "/static/audio/400Hz.wav", "internal_node_id": "0.0-175.0", "time_elapsed": 1067085, "key_press": -1, "type": "PRE_RECALL_ALERT", "trial_index": 238}, "uniqueid": "MTK1870:3GD6L00D3T41Q7D1UMQ28XASEMRM1O", "dateTime": 1516483400748}, {"current_trial": 239, "trialdata": {"rt": [5152, 7791, 9391, 12575, 14815, 20503, 34294, 37990, 58679], "recwords": ["queen", "portrait", "sticker", "rabbit", "mailman", "fleet", "sunset", "cottage", "temple"], "key_times": [1209, 1408, 2040, 2224, 4304, 4416, 4528, 4671, 4768, 5152, 5688, 5872, 6104, 6696, 6936, 7040, 7184, 7328, 7791, 8496, 8576, 8744, 8920, 9016, 9160, 9272, 9391, 11449, 11616, 11888, 12040, 12175, 12304, 12575, 13744, 13896, 13976, 14168, 14384, 14480, 14584, 14815, 19504, 19711, 19783, 19944, 20040, 20503, 33201, 33319, 33519, 33623, 33879, 34008, 34294, 36927, 37111, 37295, 37455, 37543, 37679, 37855, 37990, 57584, 57678, 57775, 58031, 58159, 58335, 58679], "trial_type": "free-recall", "conditions": [24, 800, "a", 12000], "internal_node_id": "0.0-176.0-0.0", "key_presses": [80, 79, 8, 8, 81, 85, 69, 69, 78, 13, 80, 79, 82, 84, 82, 65, 73, 84, 13, 83, 84, 73, 67, 75, 69, 82, 13, 82, 65, 66, 66, 73, 84, 13, 77, 65, 73, 76, 77, 65, 78, 13, 70, 76, 69, 69, 84, 13, 83, 85, 78, 83, 69, 84, 13, 67, 79, 84, 84, 65, 71, 69, 13, 84, 69, 77, 80, 76, 69, 13], "trial": 6, "time_elapsed": 1127089, "type": "FREE_RECALL", "trial_index": 239}, "uniqueid": "MTK1870:3GD6L00D3T41Q7D1UMQ28XASEMRM1O", "dateTime": 1516483460758}, {"current_trial": 240, "trialdata": {"rt": 8870, "trial_type": "text", "internal_node_id": "0.0-177.0", "time_elapsed": 1137966, "key_press": 13, "type": "INSTRUCTIONS", "trial_index": 240}, "uniqueid": "MTK1870:3GD6L00D3T41Q7D1UMQ28XASEMRM1O", "dateTime": 1516483471629}, {"current_trial": 241, "trialdata": {"rt": [4245, 7676, 10317, 13685, 17965], "trial_type": "math-distractor", "key_times": [2877, 2934, 4245, 7421, 7509, 7676, 9990, 10061, 10317, 13292, 13549, 13685, 17349, 17508, 17965, 23290, 23804], "responses": ["12", "13", "14", "17", "24"], "num2": [2, 3, 2, 8, 6, 9], "num3": [1, 7, 6, 1, 7, 8], "conditions": [24, 1600, "a", 24000], "internal_node_id": "0.0-178.0", "key_presses": [49, 50, 13, 49, 51, 13, 49, 52, 13, 49, 55, 13, 50, 52, 13, 50, 53], "trial": 7, "time_elapsed": 1163969, "type": "DISTRACTOR", "trial_index": 241, "num1": [9, 3, 6, 7, 9, 8]}, "uniqueid": "MTK1870:3GD6L00D3T41Q7D1UMQ28XASEMRM1O", "dateTime": 1516483497632}, {"current_trial": 242, "trialdata": {"rt": -1, "trial_type": "single-stim", "stimulus": "<p id=\"stim\">10</p>", "internal_node_id": "0.0-179.0-0.0", "time_elapsed": 1166970, "key_press": -1, "trial_index": 242}, "uniqueid": "MTK1870:3GD6L00D3T41Q7D1UMQ28XASEMRM1O", "dateTime": 1516483500633}, {"current_trial": 243, "trialdata": {"rt": -1, "trial_type": "single-stim", "stimulus": "<p id=\"stim\">9</p>", "internal_node_id": "0.0-179.0-1.0", "time_elapsed": 1167971, "key_press": -1, "trial_index": 243}, "uniqueid": "MTK1870:3GD6L00D3T41Q7D1UMQ28XASEMRM1O", "dateTime": 1516483501634}, {"current_trial": 244, "trialdata": {"rt": -1, "trial_type": "single-stim", "stimulus": "<p id=\"stim\">8</p>", "internal_node_id": "0.0-179.0-2.0", "time_elapsed": 1168972, "key_press": -1, "trial_index": 244}, "uniqueid": "MTK1870:3GD6L00D3T41Q7D1UMQ28XASEMRM1O", "dateTime": 1516483502635}, {"current_trial": 245, "trialdata": {"rt": -1, "trial_type": "single-stim", "stimulus": "<p id=\"stim\">7</p>", "internal_node_id": "0.0-179.0-3.0", "time_elapsed": 1169973, "key_press": -1, "trial_index": 245}, "uniqueid": "MTK1870:3GD6L00D3T41Q7D1UMQ28XASEMRM1O", "dateTime": 1516483503636}, {"current_trial": 246, "trialdata": {"rt": -1, "trial_type": "single-stim", "stimulus": "<p id=\"stim\">6</p>", "internal_node_id": "0.0-179.0-4.0", "time_elapsed": 1170974, "key_press": -1, "trial_index": 246}, "uniqueid": "MTK1870:3GD6L00D3T41Q7D1UMQ28XASEMRM1O", "dateTime": 1516483504637}, {"current_trial": 247, "trialdata": {"rt": -1, "trial_type": "single-stim", "stimulus": "<p id=\"stim\">5</p>", "internal_node_id": "0.0-179.0-5.0", "time_elapsed": 1171975, "key_press": -1, "trial_index": 247}, "uniqueid": "MTK1870:3GD6L00D3T41Q7D1UMQ28XASEMRM1O", "dateTime": 1516483505638}, {"current_trial": 248, "trialdata": {"rt": -1, "trial_type": "single-stim", "stimulus": "<p id=\"stim\">4</p>", "internal_node_id": "0.0-179.0-6.0", "time_elapsed": 1172977, "key_press": -1, "trial_index": 248}, "uniqueid": "MTK1870:3GD6L00D3T41Q7D1UMQ28XASEMRM1O", "dateTime": 1516483506640}, {"current_trial": 249, "trialdata": {"rt": -1, "trial_type": "single-stim", "stimulus": "<p id=\"stim\">3</p>", "internal_node_id": "0.0-179.0-7.0", "time_elapsed": 1173979, "key_press": -1, "trial_index": 249}, "uniqueid": "MTK1870:3GD6L00D3T41Q7D1UMQ28XASEMRM1O", "dateTime": 1516483507642}, {"current_trial": 250, "trialdata": {"rt": -1, "trial_type": "single-stim", "stimulus": "<p id=\"stim\">2</p>", "internal_node_id": "0.0-179.0-8.0", "time_elapsed": 1174979, "key_press": -1, "trial_index": 250}, "uniqueid": "MTK1870:3GD6L00D3T41Q7D1UMQ28XASEMRM1O", "dateTime": 1516483508643}, {"current_trial": 251, "trialdata": {"rt": -1, "trial_type": "single-stim", "stimulus": "<p id=\"stim\">1</p>", "internal_node_id": "0.0-179.0-9.0", "time_elapsed": 1175980, "key_press": -1, "trial_index": 251}, "uniqueid": "MTK1870:3GD6L00D3T41Q7D1UMQ28XASEMRM1O", "dateTime": 1516483509643}, {"current_trial": 252, "trialdata": {"rt": -1, "trial_type": "single-stim", "stimulus": "<p id=\"stim\">+</p>", "internal_node_id": "0.0-180.0-0.0", "time_elapsed": 1177481, "key_press": -1, "type": "FIXATION", "trial_index": 252}, "uniqueid": "MTK1870:3GD6L00D3T41Q7D1UMQ28XASEMRM1O", "dateTime": 1516483511144}, {"current_trial": 253, "trialdata": {"rt": -1000, "trial_type": "single-audio", "word": "typist", "stimulus": "/static/audio/wordpool/TYPIST.wav", 