{"condition": 0, "counterbalance": 1216, "assignmentId": "3KXIR214I5NSB26R7MQKRM3XG3K24Q", "workerId": "MTK1029", "hitId": "3OJX0UFJ0ZE050NBHZRFPTDL5DIU9O", "currenttrial": 626, "bonus": 0, "data": [{"uniqueid": "MTK1029:3KXIR214I5NSB26R7MQKRM3XG3K24Q", "current_trial": 0, "dateTime": 1513008350181, "trialdata": {"rt": 4035, "key_press": 32, "type": "INSTRUCTIONS", "trial_type": "text", "trial_index": 0, "time_elapsed": 4037, "internal_node_id": "0.0-0.0"}}, {"uniqueid": "MTK1029:3KXIR214I5NSB26R7MQKRM3XG3K24Q", "current_trial": 1, "dateTime": 1513008366026, "trialdata": {"rt": 15843, "key_press": 32, "type": "INSTRUCTIONS", "trial_type": "text", "trial_index": 1, "time_elapsed": 19883, "internal_node_id": "0.0-1.0"}}, {"uniqueid": "MTK1029:3KXIR214I5NSB26R7MQKRM3XG3K24Q", "current_trial": 2, "dateTime": 1513008377635, "trialdata": {"rt": [11597], "responses": ["ocean"], "type": "AUDIO_TEST", "trial_type": "audio-test", "trial_index": 2, "time_elapsed": 31492, "internal_node_id": "0.0-2.0"}}, {"uniqueid": "MTK1029:3KXIR214I5NSB26R7MQKRM3XG3K24Q", "current_trial": 3, "dateTime": 1513008384107, "trialdata": {"rt": [6467], "responses": ["crystal"], "type": "AUDIO_TEST", "trial_type": "audio-test", "trial_index": 3, "time_elapsed": 37963, "internal_node_id": "0.0-3.0"}}, {"uniqueid": "MTK1029:3KXIR214I5NSB26R7MQKRM3XG3K24Q", "current_trial": 4, "dateTime": 1513008389010, "trialdata": {"rt": [4899], "responses": ["spice"], "type": "AUDIO_TEST", "trial_type": "audio-test", "trial_index": 4, "time_elapsed": 42867, "internal_node_id": "0.0-4.0"}}, {"uniqueid": "MTK1029:3KXIR214I5NSB26R7MQKRM3XG3K24Q", "current_trial": 5, "dateTime": 1513008444148, "trialdata": {"rt": 54383, "responses": "{\"Q0\":\"1030\",\"Q1\":\"600\",\"Q2\":\"4\"}", "type": "SLEEP_SURVEY", "trial_type": "survey-text", "trial_index": 5, "time_elapsed": 98005, "internal_node_id": "0.0-5.0"}}, {"uniqueid": "MTK1029:3KXIR214I5NSB26R7MQKRM3XG3K24Q", "current_trial": 6, "dateTime": 1513008472964, "trialdata": {"rt": 27815, "key_press": 32, "type": "INSTRUCTIONS", "trial_type": "text", "trial_index": 6, "time_elapsed": 126821, "internal_node_id": "0.0-6.0"}}, {"uniqueid": "MTK1029:3KXIR214I5NSB26R7MQKRM3XG3K24Q", "current_trial": 7, "dateTime": 1513008502603, "trialdata": {"rt": 29136, "key_press": 32, "type": "INSTRUCTIONS", "trial_type": "text", "trial_index": 7, "time_elapsed": 156460, "internal_node_id": "0.0-7.0"}}, {"uniqueid": "MTK1029:3KXIR214I5NSB26R7MQKRM3XG3K24Q", "current_trial": 8, "dateTime": 1513008512246, "trialdata": {"rt": 9139, "key_press": 32, "type": "INSTRUCTIONS", "trial_type": "text", "trial_index": 8, "time_elapsed": 166103, "internal_node_id": "0.0-8.0"}}, {"uniqueid": "MTK1029:3KXIR214I5NSB26R7MQKRM3XG3K24Q", "current_trial": 9, "dateTime": 1513008531256, "trialdata": {"rt": [3168, 8206, 10654, 12830], "responses": ["16", "20", "17", "10"], "num1": [2, 8, 1, 1, 7], "num2": [5, 7, 7, 4, 9], "num3": [9, 5, 9, 5, 8], "type": "DISTRACTOR", "conditions": [18, 1200, "a", 18000], "trial": 0, "trial_type": "math-distractor", "trial_index": 9, "time_elapsed": 185113, "internal_node_id": "0.0-9.0"}}, {"uniqueid": "MTK1029:3KXIR214I5NSB26R7MQKRM3XG3K24Q", "current_trial": 10, "dateTime": 1513008534261, "trialdata": {"rt": -1, "stimulus": "<p id=\"stim\">10</p>", "key_press": -1, "trial_type": "single-stim", "trial_index": 10, "time_elapsed": 188118, "internal_node_id": "0.0-10.0-0.0"}}, {"uniqueid": "MTK1029:3KXIR214I5NSB26R7MQKRM3XG3K24Q", "current_trial": 11, "dateTime": 1513008535262, "trialdata": {"rt": -1, "stimulus": "<p id=\"stim\">9</p>", "key_press": -1, "trial_type": "single-stim", "trial_index": 11, "time_elapsed": 189119, "internal_node_id": "0.0-10.0-1.0"}}, {"uniqueid": "MTK1029:3KXIR214I5NSB26R7MQKRM3XG3K24Q", "current_trial": 12, "dateTime": 1513008536264, "trialdata": {"rt": -1, "stimulus": "<p id=\"stim\">8</p>", "key_press": -1, "trial_type": "single-stim", "trial_index": 12, "time_elapsed": 190121, "internal_node_id": "0.0-10.0-2.0"}}, {"uniqueid": "MTK1029:3KXIR214I5NSB26R7MQKRM3XG3K24Q", "current_trial": 13, "dateTime": 1513008537269, "trialdata": {"rt": -1, "stimulus": "<p id=\"stim\">7</p>", "key_press": -1, "trial_type": "single-stim", "trial_index": 13, "time_elapsed": 191125, "internal_node_id": "0.0-10.0-3.0"}}, {"uniqueid": "MTK1029:3KXIR214I5NSB26R7MQKRM3XG3K24Q", "current_trial": 14, "dateTime": 1513008538272, "trialdata": {"rt": -1, "stimulus": "<p id=\"stim\">6</p>", "key_press": -1, "trial_type": "single-stim", "trial_index": 14, "time_elapsed": 192129, "internal_node_id": "0.0-10.0-4.0"}}, {"uniqueid": "MTK1029:3KXIR214I5NSB26R7MQKRM3XG3K24Q", "current_trial": 15, "dateTime": 1513008539277, "trialdata": {"rt": -1, "stimulus": "<p id=\"stim\">5</p>", "key_press": -1, "trial_type": "single-stim", "trial_index": 15, "time_elapsed": 193133, "internal_node_id": "0.0-10.0-5.0"}}, {"uniqueid": "MTK1029:3KXIR214I5NSB26R7MQKRM3XG3K24Q", "current_trial": 16, "dateTime": 1513008540281, "trialdata": {"rt": -1, "stimulus": "<p id=\"stim\">4</p>", "key_press": -1, "trial_type": "single-stim", "trial_index": 16, "time_elapsed": 194138, "internal_node_id": "0.0-10.0-6.0"}}, {"uniqueid": "MTK1029:3KXIR214I5NSB26R7MQKRM3XG3K24Q", "current_trial": 17, "dateTime": 1513008541283, "trialdata": {"rt": -1, "stimulus": "<p id=\"stim\">3</p>", "key_press": -1, "trial_type": "single-stim", "trial_index": 17, "time_elapsed": 195140, "internal_node_id": "0.0-10.0-7.0"}}, {"uniqueid": "MTK1029:3KXIR214I5NSB26R7MQKRM3XG3K24Q", "current_trial": 18, "dateTime": 1513008542289, "trialdata": {"rt": -1, "stimulus": "<p id=\"stim\">2</p>", "key_press": -1, "trial_type": "single-stim", "trial_index": 18, "time_elapsed": 196146, "internal_node_id": "0.0-10.0-8.0"}}, {"uniqueid": "MTK1029:3KXIR214I5NSB26R7MQKRM3XG3K24Q", "current_trial": 19, "dateTime": 1513008543292, "trialdata": {"rt": -1, "stimulus": "<p id=\"stim\">1</p>", "key_press": -1, "trial_type": "single-stim", "trial_index": 19, "time_elapsed": 197149, "internal_node_id": "0.0-10.0-9.0"}}, {"uniqueid": "MTK1029:3KXIR214I5NSB26R7MQKRM3XG3K24Q", "current_trial": 20, "dateTime": 1513008544796, "trialdata": {"rt": -1, "stimulus": "<p id=\"stim\">+</p>", "key_press": -1, "type": "FIXATION", "trial_type": "single-stim", "trial_index": 20, "time_elapsed": 198653, "internal_node_id": "0.0-11.0-0.0"}}, {"uniqueid": "MTK1029:3KXIR214I5NSB26R7MQKRM3XG3K24Q", "current_trial": 21, "dateTime": 1513008546918, "trialdata": {"rt": -1000, "stimulus": "/static/audio/wordpool/FLOWER.wav", "key_press": -1, "type": "PRES_AUD", "word": "flower", "wordID": 583, "conditions": [18, 1200, "a", 18000], "trial": 0, "serialpos": 0, "trial_type": "single-audio", "trial_index": 21, "time_elapsed": 200775, "internal_node_id": "0.0-12.0"}}, {"uniqueid": "MTK1029:3KXIR214I5NSB26R7MQKRM3XG3K24Q", "current_trial": 22, "dateTime": 1513008549240, "trialdata": {"rt": -1000, "stimulus": "/static/audio/wordpool/FREEZER.wav", "key_press": -1, "type": "PRES_AUD", "word": "freezer", "wordID": 603, "conditions": [18, 1200, "a", 18000], "trial": 0, "serialpos": 1, "trial_type": "single-audio", "trial_index": 22, "time_elapsed": 203096, "internal_node_id": "0.0-13.0"}}, {"uniqueid": "MTK1029:3KXIR214I5NSB26R7MQKRM3XG3K24Q", "current_trial": 23, "dateTime": 1513008551254, "trialdata": {"rt": -1000, "stimulus": "/static/audio/wordpool/HORNET.wav", "key_press": -1, "type": "PRES_AUD", "word": "hornet", "wordID": 717, "conditions": [18, 1200, "a", 18000], "trial": 0, "serialpos": 2, "trial_type": "single-audio", "trial_index": 23, "time_elapsed": 205111, "internal_node_id": "0.0-14.0"}}, {"uniqueid": "MTK1029:3KXIR214I5NSB26R7MQKRM3XG3K24Q", "current_trial": 24, "dateTime": 1513008553472, "trialdata": {"rt": -1000, "stimulus": "/static/audio/wordpool/CHEMIST.wav", "key_press": -1, "type": "PRES_AUD", "word": "chemist", "wordID": 291, "conditions": [18, 1200, "a", 18000], "trial": 0, "serialpos": 3, "trial_type": "single-audio", "trial_index": 24, "time_elapsed": 207328, "internal_node_id": "0.0-15.0"}}, {"uniqueid": "MTK1029:3KXIR214I5NSB26R7MQKRM3XG3K24Q", "current_trial": 25, "dateTime": 1513008555503, "trialdata": {"rt": -1000, "stimulus": "/static/audio/wordpool/HATCHET.wav", "key_press": -1, "type": "PRES_AUD", "word": "hatchet", "wordID": 690, "conditions": [18, 1200, "a", 18000], "trial": 0, "serialpos": 4, "trial_type": "single-audio", "trial_index": 25, "time_elapsed": 209360, "internal_node_id": "0.0-16.0"}}, {"uniqueid": "MTK1029:3KXIR214I5NSB26R7MQKRM3XG3K24Q", "current_trial": 26, "dateTime": 1513008557639, "trialdata": {"rt": -1000, "stimulus": "/static/audio/wordpool/ORANGE.wav", "key_press": -1, "type": "PRES_AUD", "word": "orange", "wordID": 979, "conditions": [18, 1200, "a", 18000], "trial": 0, "serialpos": 5, "trial_type": "single-audio", "trial_index": 26, "time_elapsed": 211496, "internal_node_id": "0.0-17.0"}}, {"uniqueid": "MTK1029:3KXIR214I5NSB26R7MQKRM3XG3K24Q", "current_trial": 27, "dateTime": 1513008559723, "trialdata": {"rt": -1000, "stimulus": "/static/audio/wordpool/SHORTCAKE.wav", "key_press": -1, "type": "PRES_AUD", "word": "shortcake", "wordID": 1291, "conditions": [18, 1200, "a", 18000], "trial": 0, "serialpos": 6, "trial_type": "single-audio", "trial_index": 27, "time_elapsed": 213580, "internal_node_id": "0.0-18.0"}}, {"uniqueid": "MTK1029:3KXIR214I5NSB26R7MQKRM3XG3K24Q", "current_trial": 28, "dateTime": 1513008562033, "trialdata": {"rt": -1000, "stimulus": "/static/audio/wordpool/DENTIST.wav", "key_press": -1, "type": "PRES_AUD", "word": "dentist", "wordID": 446, "conditions": [18, 1200, "a", 18000], "trial": 0, "serialpos": 7, "trial_type": "single-audio", "trial_index": 28, "time_elapsed": 215890, "internal_node_id": "0.0-19.0"}}, {"uniqueid": "MTK1029:3KXIR214I5NSB26R7MQKRM3XG3K24Q", "current_trial": 29, "dateTime": 1513008564146, "trialdata": {"rt": -1000, "stimulus": "/static/audio/wordpool/SKILLET.wav", "key_press": -1, "type": "PRES_AUD", "word": "skillet", "wordID": 1316, "conditions": [18, 1200, "a", 18000], "trial": 0, "serialpos": 8, "trial_type": "single-audio", "trial_index": 29, "time_elapsed": 218003, "internal_node_id": "0.0-20.0"}}, {"uniqueid": "MTK1029:3KXIR214I5NSB26R7MQKRM3XG3K24Q", "current_trial": 30, "dateTime": 1513008566346, "trialdata": {"rt": -1000, "stimulus": "/static/audio/wordpool/CHILD.wav", "key_press": -1, "type": "PRES_AUD", "word": "child", "wordID": 298, "conditions": [18, 1200, "a", 18000], "trial": 0, "serialpos": 9, "trial_type": "single-audio", "trial_index": 30, "time_elapsed": 220203, "internal_node_id": "0.0-21.0"}}, {"uniqueid": "MTK1029:3KXIR214I5NSB26R7MQKRM3XG3K24Q", "current_trial": 31, "dateTime": 1513008568459, "trialdata": {"rt": -1000, "stimulus": "/static/audio/wordpool/KLEENEX.wav", "key_press": -1, "type": "PRES_AUD", "word": "kleenex", "wordID": 781, "conditions": [18, 1200, "a", 18000], "trial": 0, "serialpos": 10, "trial_type": "single-audio", "trial_index": 31, "time_elapsed": 222316, "internal_node_id": "0.0-22.0"}}, {"uniqueid": "MTK1029:3KXIR214I5NSB26R7MQKRM3XG3K24Q", "current_trial": 32, "dateTime": 1513008570752, "trialdata": {"rt": -1000, "stimulus": "/static/audio/wordpool/PIMPLE.wav", "key_press": -1, "type": "PRES_AUD", "word": "pimple", "wordID": 1070, "conditions": [18, 1200, "a", 18000], "trial": 0, "serialpos": 11, "trial_type": "single-audio", "trial_index": 32, "time_elapsed": 224609, "internal_node_id": "0.0-23.0"}}, {"uniqueid": "MTK1029:3KXIR214I5NSB26R7MQKRM3XG3K24Q", "current_trial": 33, "dateTime": 1513008573068, "trialdata": {"rt": -1000, "stimulus": "/static/audio/wordpool/APPLE.wav", "key_press": -1, "type": "PRES_AUD", "word": "apple", "wordID": 32, "conditions": [18, 1200, "a", 18000], "trial": 0, "serialpos": 12, "trial_type": "single-audio", "trial_index": 33, "time_elapsed": 226925, "internal_node_id": "0.0-24.0"}}, {"uniqueid": "MTK1029:3KXIR214I5NSB26R7MQKRM3XG3K24Q", "current_trial": 34, "dateTime": 1513008575170, "trialdata": {"rt": -1000, "stimulus": "/static/audio/wordpool/FIDDLE.wav", "key_press": -1, "type": "PRES_AUD", "word": "fiddle", "wordID": 560, "conditions": [18, 1200, "a", 18000], "trial": 0, "serialpos": 13, "trial_type": "single-audio", "trial_index": 34, "time_elapsed": 229026, "internal_node_id": "0.0-25.0"}}, {"uniqueid": "MTK1029:3KXIR214I5NSB26R7MQKRM3XG3K24Q", "current_trial": 35, "dateTime": 1513008577509, "trialdata": {"rt": -1000, "stimulus": "/static/audio/wordpool/BLENDER.wav", "key_press": -1, "type": "PRES_AUD", "word": "blender", "wordID": 135, "conditions": [18, 1200, "a", 18000], "trial": 0, "serialpos": 14, "trial_type": "single-audio", "trial_index": 35, "time_elapsed": 231366, "internal_node_id": "0.0-26.0"}}, {"uniqueid": "MTK1029:3KXIR214I5NSB26R7MQKRM3XG3K24Q", "current_trial": 36, "dateTime": 1513008579883, "trialdata": {"rt": -1000, "stimulus": "/static/audio/wordpool/CLOTHES.wav", "key_press": -1, "type": "PRES_AUD", "word": "clothes", "wordID": 326, "conditions": [18, 1200, "a", 18000], "trial": 0, "serialpos": 15, "trial_type": "single-audio", "trial_index": 36, "time_elapsed": 233740, "internal_node_id": "0.0-27.0"}}, {"uniqueid": "MTK1029:3KXIR214I5NSB26R7MQKRM3XG3K24Q", "current_trial": 37, "dateTime": 1513008582025, "trialdata": {"rt": -1000, "stimulus": "/static/audio/wordpool/CAPTIVE.wav", "key_press": -1, "type": "PRES_AUD", "word": "captive", "wordID": 239, "conditions": [18, 1200, "a", 18000], "trial": 0, "serialpos": 16, "trial_type": "single-audio", "trial_index": 37, "time_elapsed": 235881, "internal_node_id": "0.0-28.0"}}, {"uniqueid": "MTK1029:3KXIR214I5NSB26R7MQKRM3XG3K24Q", "current_trial": 38, "dateTime": 1513008584318, "trialdata": {"rt": -1000, "stimulus": "/static/audio/wordpool/MISSILE.wav", "key_press": -1, "type": "PRES_AUD", "word": "missile", "wordID": 899, "conditions": [18, 1200, "a", 18000], "trial": 0, "serialpos": 17, "trial_type": "single-audio", "trial_index": 38, "time_elapsed": 238175, "internal_node_id": "0.0-29.0"}}, {"uniqueid": "MTK1029:3KXIR214I5NSB26R7MQKRM3XG3K24Q", "current_trial": 39, "dateTime": 1513008585601, "trialdata": {"rt": -1, "stimulus": "", "key_press": -1, "type": "PRE_RECALL_DELAY", "trial_type": "single-stim", "trial_index": 39, "time_elapsed": 239458, "internal_node_id": "0.0-30.0-0.0"}}, {"uniqueid": "MTK1029:3KXIR214I5NSB26R7MQKRM3XG3K24Q", "current_trial": 40, "dateTime": 1513008586103, "trialdata": {"rt": -1000, "stimulus": "/static/audio/400Hz.wav", "key_press": -1, "type": "PRE_RECALL_ALERT", "trial_type": "single-audio", "trial_index": 40, "time_elapsed": 239959, "internal_node_id": "0.0-31.0"}}, {"uniqueid": "MTK1029:3KXIR214I5NSB26R7MQKRM3XG3K24Q", "current_trial": 41, "dateTime": 1513008646109, "trialdata": {"rt": [3807, 5119, 6871, 8456, 9351, 11920, 18662, 20231, 30726, 38147, 53640], "recwords": ["missile", "captive", "chemist", "flour", "child", "hatchet", "orange", "bag", "dentist", "flower", "airplane"], "type": "FREE_RECALL", "conditions": [18, 1200, "a", 18000], "trial": 0, "trial_type": "free-recall", "trial_index": 41, "time_elapsed": 299963, "internal_node_id": "0.0-32.0-0.0"}}, {"uniqueid": "MTK1029:3KXIR214I5NSB26R7MQKRM3XG3K24Q", "current_trial": 42, "dateTime": 1513008656752, "trialdata": {"rt": 8638, "key_press": 32, "type": "INSTRUCTIONS", "trial_type": "text", "trial_index": 42, "time_elapsed": 310609, "internal_node_id": "0.0-33.0"}}, {"uniqueid": "MTK1029:3KXIR214I5NSB26R7MQKRM3XG3K24Q", "current_trial": 43, "dateTime": 1513008676756, "trialdata": {"rt": [2376, 6600, 8584, 10503, 12511, 14503, 16647], "responses": ["10", "23", "17", "8", "18", "13", "12"], "num1": [4, 7, 5, 1, 6, 4, 6, 5], "num2": [1, 8, 4, 4, 8, 3, 5, 1], "num3": [5, 8, 8, 3, 4, 6, 1, 4], "type": "DISTRACTOR", "conditions": [18, 1200, "v", 18000], "trial": 1, "trial_type": "math-distractor", "trial_index": 43, "time_elapsed": 330613, "internal_node_id": "0.0-34.0"}}, {"uniqueid": "MTK1029:3KXIR214I5NSB26R7MQKRM3XG3K24Q", "current_trial": 44, "dateTime": 1513008679760, "trialdata": {"rt": -1, "stimulus": "<p id=\"stim\">10</p>", "key_press": -1, "trial_type": "single-stim", "trial_index": 44, "time_elapsed": 333617, "internal_node_id": "0.0-35.0-0.0"}}, {"uniqueid": "MTK1029:3KXIR214I5NSB26R7MQKRM3XG3K24Q", "current_trial": 45, "dateTime": 1513008680766, "trialdata": {"rt": -1, "stimulus": "<p id=\"stim\">9</p>", "key_press": -1, "trial_type": "single-stim", "trial_index": 45, "time_elapsed": 334623, "internal_node_id": "0.0-35.0-1.0"}}, {"uniqueid": "MTK1029:3KXIR214I5NSB26R7MQKRM3XG3K24Q", "current_trial": 46, "dateTime": 1513008681770, "trialdata": {"rt": -1, "stimulus": "<p id=\"stim\">8</p>", "key_press": -1, "trial_type": "single-stim", "trial_index": 46, "time_elapsed": 335627, "internal_node_id": "0.0-35.0-2.0"}}, {"uniqueid": "MTK1029:3KXIR214I5NSB26R7MQKRM3XG3K24Q", "current_trial": 47, "dateTime": 1513008682774, "trialdata": {"rt": -1, "stimulus": "<p id=\"stim\">7</p>", "key_press": -1, "trial_type": "single-stim", "trial_index": 47, "time_elapsed": 336631, "internal_node_id": "0.0-35.0-3.0"}}, {"uniqueid": "MTK1029:3KXIR214I5NSB26R7MQKRM3XG3K24Q", "current_trial": 48, "dateTime": 1513008683778, "trialdata": {"rt": -1, "stimulus": "<p id=\"stim\">6</p>", "key_press": -1, "trial_type": "single-stim", "trial_index": 48, "time_elapsed": 337635, "internal_node_id": "0.0-35.0-4.0"}}, {"uniqueid": "MTK1029:3KXIR214I5NSB26R7MQKRM3XG3K24Q", "current_trial": 49, "dateTime": 1513008684782, "trialdata": {"rt": -1, "stimulus": "<p id=\"stim\">5</p>", "key_press": -1, "trial_type": "single-stim", "trial_index": 49, "time_elapsed": 338639, "internal_node_id": "0.0-35.0-5.0"}}, {"uniqueid": "MTK1029:3KXIR214I5NSB26R7MQKRM3XG3K24Q", "current_trial": 50, "dateTime": 1513008685787, "trialdata": {"rt": -1, "stimulus": "<p id=\"stim\">4</p>", "key_press": -1, "trial_type": "single-stim", "trial_index": 50, "time_elapsed": 339643, "internal_node_id": "0.0-35.0-6.0"}}, {"uniqueid": "MTK1029:3KXIR214I5NSB26R7MQKRM3XG3K24Q", "current_trial": 51, "dateTime": 1513008686790, "trialdata": {"rt": -1, "stimulus": "<p id=\"stim\">3</p>", "key_press": -1, "trial_type": "single-stim", "trial_index": 51, "time_elapsed": 340647, "internal_node_id": "0.0-35.0-7.0"}}, {"uniqueid": "MTK1029:3KXIR214I5NSB26R7MQKRM3XG3K24Q", "current_trial": 52, "dateTime": 1513008687795, "trialdata": {"rt": -1, "stimulus": "<p id=\"stim\">2</p>", "key_press": -1, "trial_type": "single-stim", "trial_index": 52, "time_elapsed": 341652, "internal_node_id": "0.0-35.0-8.0"}}, {"uniqueid": "MTK1029:3KXIR214I5NSB26R7MQKRM3XG3K24Q", "current_trial": 53, "dateTime": 1513008688799, "trialdata": {"rt": -1, "stimulus": "<p id=\"stim\">1</p>", "key_press": -1, "trial_type": "single-stim", "trial_index": 53, "time_elapsed": 342656, "internal_node_id": "0.0-35.0-9.0"}}, {"uniqueid": "MTK1029:3KXIR214I5NSB26R7MQKRM3XG3K24Q", "current_trial": 54, "dateTime": 1513008690302, "trialdata": {"rt": -1, "stimulus": "<p id=\"stim\">+</p>", "key_press": -1, "type": "FIXATION", "trial_type": "single-stim", "trial_index": 54, "time_elapsed": 344158, "internal_node_id": "0.0-36.0-0.0"}}, {"uniqueid": "MTK1029:3KXIR214I5NSB26R7MQKRM3XG3K24Q", "current_trial": 55, "dateTime": 1513008691504, "trialdata": {"rt": -1, "stimulus": "<p id=\"stim\">BALLOON</p>", "key_press": -1, "type": "PRES_VIS", "word": "balloon", "wordID": 74, "conditions": [18, 1200, "v", 18000], "trial": 1, "serialpos": 0, "trial_type": "single-stim", "trial_index": 55, "time_elapsed": 345360, "internal_node_id": "0.0-37.0"}}, {"uniqueid": "MTK1029:3KXIR214I5NSB26R7MQKRM3XG3K24Q", "current_trial": 56, "dateTime": 1513008693825, "trialdata": {"rt": -1, "stimulus": "<p id=\"stim\">BLUEPRINT</p>", "key_press": -1, "type": "PRES_VIS", "word": "blueprint", "wordID": 141, "conditions": [18, 1200, "v", 18000], "trial": 1, "serialpos": 1, "trial_type": "single-stim", "trial_index": 56, "time_elapsed": 347682, "internal_node_id": "0.0-38.0"}}, {"uniqueid": "MTK1029:3KXIR214I5NSB26R7MQKRM3XG3K24Q", "current_trial": 57, "dateTime": 1513008696175, "trialdata": {"rt": -1, "stimulus": "<p id=\"stim\">PISTOL</p>", "key_press": -1, "type": "PRES_VIS", "word": "pistol", "wordID": 1074, "conditions": [18, 1200, "v", 18000], "trial": 1, "serialpos": 2, "trial_type": "single-stim", "trial_index": 57, "time_elapsed": 350032, "internal_node_id": "0.0-39.0"}}, {"uniqueid": "MTK1029:3KXIR214I5NSB26R7MQKRM3XG3K24Q", "current_trial": 58, "dateTime": 1513008698509, "trialdata": {"rt": -1, "stimulus": "<p id=\"stim\">STATUE</p>", "key_press": -1, "type": "PRES_VIS", "word": "statue", "wordID": 1373, "conditions": [18, 1200, "v", 18000], "trial": 1, "serialpos": 3, "trial_type": "single-stim", "trial_index": 58, "time_elapsed": 352365, "internal_node_id": "0.0-40.0"}}, {"uniqueid": "MTK1029:3KXIR214I5NSB26R7MQKRM3XG3K24Q", "current_trial": 59, "dateTime": 1513008700557, "trialdata": {"rt": -1, "stimulus": "<p id=\"stim\">BRANDY</p>", "key_press": -1, "type": "PRES_VIS", "word": "brandy", "wordID": 168, "conditions": [18, 1200, "v", 18000], "trial": 1, "serialpos": 4, "trial_type": "single-stim", "trial_index": 59, "time_elapsed": 354414, "internal_node_id": "0.0-41.0"}}, {"uniqueid": "MTK1029:3KXIR214I5NSB26R7MQKRM3XG3K24Q", "current_trial": 60, "dateTime": 1513008702850, "trialdata": {"rt": -1, "stimulus": "<p id=\"stim\">PERCH</p>", "key_press": -1, "type": "PRES_VIS", "word": "perch", "wordID": 1047, "conditions": [18, 1200, "v", 18000], "trial": 1, "serialpos": 5, "trial_type": "single-stim", "trial_index": 60, "time_elapsed": 356707, "internal_node_id": "0.0-42.0"}}, {"uniqueid": "MTK1029:3KXIR214I5NSB26R7MQKRM3XG3K24Q", "current_trial": 61, "dateTime": 1513008704863, "trialdata": {"rt": -1, "stimulus": "<p id=\"stim\">FRAME</p>", "key_press": -1, "type": "PRES_VIS", "word": "frame", "wordID": 599, "conditions": [18, 1200, "v", 18000], "trial": 1, "serialpos": 6, "trial_type": "single-stim", "trial_index": 61, "time_elapsed": 358720, "internal_node_id": "0.0-43.0"}}, {"uniqueid": "MTK1029:3KXIR214I5NSB26R7MQKRM3XG3K24Q", "current_trial": 62, "dateTime": 1513008707133, "trialdata": {"rt": -1, "stimulus": "<p id=\"stim\">SLIDE</p>", "key_press": -1, "type": "PRES_VIS", "word": "slide", "wordID": 1325, "conditions": [18, 1200, "v", 18000], "trial": 1, "serialpos": 7, "trial_type": "single-stim", "trial_index": 62, "time_elapsed": 360990, "internal_node_id": "0.0-44.0"}}, {"uniqueid": "MTK1029:3KXIR214I5NSB26R7MQKRM3XG3K24Q", "current_trial": 63, "dateTime": 1513008709286, "trialdata": {"rt": -1, "stimulus": "<p id=\"stim\">SPACE</p>", "key_press": -1, "type": "PRES_VIS", "word": "space", "wordID": 1344, "conditions": [18, 1200, "v", 18000], "trial": 1, "serialpos": 8, "trial_type": "single-stim", "trial_index": 63, "time_elapsed": 363143, "internal_node_id": "0.0-45.0"}}, {"uniqueid": "MTK1029:3KXIR214I5NSB26R7MQKRM3XG3K24Q", "current_trial": 64, "dateTime": 1513008711637, "trialdata": {"rt": -1, "stimulus": "<p id=\"stim\">SPOOL</p>", "key_press": -1, "type": "PRES_VIS", "word": "spool", "wordID": 1355, "conditions": [18, 1200, "v", 18000], "trial": 1, "serialpos": 9, "trial_type": "single-stim", "trial_index": 64, "time_elapsed": 365494, "internal_node_id": "0.0-46.0"}}, {"uniqueid": "MTK1029:3KXIR214I5NSB26R7MQKRM3XG3K24Q", "current_trial": 65, "dateTime": 1513008714010, "trialdata": {"rt": -1, "stimulus": "<p id=\"stim\">SUNRISE</p>", "key_press": -1, "type": "PRES_VIS", "word": "sunrise", "wordID": 1406, "conditions": [18, 1200, "v", 18000], "trial": 1, "serialpos": 10, "trial_type": "single-stim", "trial_index": 65, "time_elapsed": 367867, "internal_node_id": "0.0-47.0"}}, {"uniqueid": "MTK1029:3KXIR214I5NSB26R7MQKRM3XG3K24Q", "current_trial": 66, "dateTime": 1513008716280, "trialdata": {"rt": -1, "stimulus": "<p id=\"stim\">SCALLOP</p>", "key_press": -1, "type": "PRES_VIS", "word": "scallop", "wordID": 1241, "conditions": [18, 1200, "v", 18000], "trial": 1, "serialpos": 11, "trial_type": "single-stim", "trial_index": 66, "time_elapsed": 370137, "internal_node_id": "0.0-48.0"}}, {"uniqueid": "MTK1029:3KXIR214I5NSB26R7MQKRM3XG3K24Q", "current_trial": 67, "dateTime": 1513008718630, "trialdata": {"rt": -1, "stimulus": "<p id=\"stim\">REBEL</p>", "key_press": -1, "type": "PRES_VIS", "word": "rebel", "wordID": 1171, "conditions": [18, 1200, "v", 18000], "trial": 1, "serialpos": 12, "trial_type": "single-stim", "trial_index": 67, "time_elapsed": 372487, "internal_node_id": "0.0-49.0"}}, {"uniqueid": "MTK1029:3KXIR214I5NSB26R7MQKRM3XG3K24Q", "current_trial": 68, "dateTime": 1513008720936, "trialdata": {"rt": -1, "stimulus": "<p id=\"stim\">COCKTAIL</p>", "key_press": -1, "type": "PRES_VIS", "word": "cocktail", "wordID": 337, "conditions": [18, 1200, "v", 18000], "trial": 1, "serialpos": 13, "trial_type": "single-stim", "trial_index": 68, "time_elapsed": 374791, "internal_node_id": "0.0-50.0"}}, {"uniqueid": "MTK1029:3KXIR214I5NSB26R7MQKRM3XG3K24Q", "current_trial": 69, "dateTime": 1513008723210, "trialdata": {"rt": -1, "stimulus": "<p id=\"stim\">FLASK</p>", "key_press": -1, "type": "PRES_VIS", "word": "flask", "wordID": 575, "conditions": [18, 1200, "v", 18000], "trial": 1, "serialpos": 14, "trial_type": "single-stim", "trial_index": 69, "time_elapsed": 377066, "internal_node_id": "0.0-51.0"}}, {"uniqueid": "MTK1029:3KXIR214I5NSB26R7MQKRM3XG3K24Q", "current_trial": 70, "dateTime": 1513008725450, "trialdata": {"rt": -1, "stimulus": "<p id=\"stim\">BANJO</p>", "key_press": -1, "type": "PRES_VIS", "word": "banjo", "wordID": 81, "conditions": [18, 1200, "v", 18000], "trial": 1, "serialpos": 15, "trial_type": "single-stim", "trial_index": 70, "time_elapsed": 379307, "internal_node_id": "0.0-52.0"}}, {"uniqueid": "MTK1029:3KXIR214I5NSB26R7MQKRM3XG3K24Q", "current_trial": 71, "dateTime": 1513008727533, "trialdata": {"rt": -1, "stimulus": "<p id=\"stim\">MUFFIN</p>", "key_press": -1, "type": "PRES_VIS", "word": "muffin", "wordID": 928, "conditions": [18, 1200, "v", 18000], "trial": 1, "serialpos": 16, "trial_type": "single-stim", "trial_index": 71, "time_elapsed": 381390, "internal_node_id": "0.0-53.0"}}, {"uniqueid": "MTK1029:3KXIR214I5NSB26R7MQKRM3XG3K24Q", "current_trial": 72, "dateTime": 1513008729588, "trialdata": {"rt": -1, "stimulus": "<p id=\"stim\">BLOCKADE</p>", "key_press": -1, "type": "PRES_VIS", "word": "blockade", "wordID": 136, "conditions": [18, 1200, "v", 18000], "trial": 1, "serialpos": 17, "trial_type": "single-stim", "trial_index": 72, "time_elapsed": 383445, "internal_node_id": "0.0-54.0"}}, {"uniqueid": "MTK1029:3KXIR214I5NSB26R7MQKRM3XG3K24Q", "current_trial": 73, "dateTime": 1513008731816, "trialdata": {"rt": -1, "stimulus": "", "key_press": -1, "type": "PRE_RECALL_DELAY", "trial_type": "single-stim", "trial_index": 73, "time_elapsed": 385673, "internal_node_id": "0.0-55.0-0.0"}}, {"uniqueid": "MTK1029:3KXIR214I5NSB26R7MQKRM3XG3K24Q", "current_trial": 74, "dateTime": 1513008732318, "trialdata": {"rt": -1000, "stimulus": "/static/audio/400Hz.wav", "key_press": -1, "type": "PRE_RECALL_ALERT", "trial_type": "single-audio", "trial_index": 74, "time_elapsed": 386175, "internal_node_id": "0.0-56.0"}}, {"uniqueid": "MTK1029:3KXIR214I5NSB26R7MQKRM3XG3K24Q", "current_trial": 75, "dateTime": 1513008792323, "trialdata": {"rt": [4839, 10166, 15822, 22094, 30124, 32908, 41729, 43609, 45969, 53314], "recwords": ["blockade", "skillet", "balloon", "blueprint", "pistol", "statue", "frame", "perch", "brandy", "scallop"], "type": "FREE_RECALL", "conditions": [18, 1200, "v", 18000], "trial": 1, "trial_type": "free-recall", "trial_index": 75, "time_elapsed": 446178, "internal_node_id": "0.0-57.0-0.0"}}, {"uniqueid": "MTK1029:3KXIR214I5NSB26R7MQKRM3XG3K24Q", "current_trial": 76, "dateTime": 1513008803209, "trialdata": {"rt": 8876, "key_press": 32, "type": "INSTRUCTIONS", "trial_type": "text", "trial_index": 76, "time_elapsed": 457062, "internal_node_id": "0.0-58.0"}}, {"uniqueid": "MTK1029:3KXIR214I5NSB26R7MQKRM3XG3K24Q", "current_trial": 77, "dateTime": 1513008816216, "trialdata": {"rt": [2847, 4791, 7015, 8663, 10615], "responses": ["15", "10", "10", "11", "9"], "num1": [2, 1, 2, 8, 5, 4], "num2": [4, 6, 1, 2, 2, 7], "num3": [9, 3, 7, 1, 2, 6], "type": "DISTRACTOR", "conditions": [12, 1600, "v", 12000], "trial": 2, "trial_type": "math-distractor", "trial_index": 77, "time_elapsed": 470073, "internal_node_id": "0.0-59.0"}}, {"uniqueid": "MTK1029:3KXIR214I5NSB26R7MQKRM3XG3K24Q", "current_trial": 78, "dateTime": 1513008819222, "trialdata": {"rt": -1, "stimulus": "<p id=\"stim\">10</p>", "key_press": -1, "trial_type": "single-stim", "trial_index": 78, "time_elapsed": 473079, "internal_node_id": "0.0-60.0-0.0"}}, {"uniqueid": "MTK1029:3KXIR214I5NSB26R7MQKRM3XG3K24Q", "current_trial": 79, "dateTime": 1513008820226, "trialdata": {"rt": -1, "stimulus": "<p id=\"stim\">9</p>", "key_press": -1, "trial_type": "single-stim", "trial_index": 79, "time_elapsed": 474083, "internal_node_id": "0.0-60.0-1.0"}}, {"uniqueid": "MTK1029:3KXIR214I5NSB26R7MQKRM3XG3K24Q", "current_trial": 80, "dateTime": 1513008821230, "trialdata": {"rt": -1, "stimulus": "<p id=\"stim\">8</p>", "key_press": -1, "trial_type": "single-stim", "trial_index": 80, "time_elapsed": 475087, "internal_node_id": "0.0-60.0-2.0"}}, {"uniqueid": "MTK1029:3KXIR214I5NSB26R7MQKRM3XG3K24Q", "current_trial": 81, "dateTime": 1513008822234, "trialdata": {"rt": -1, "stimulus": "<p id=\"stim\">7</p>", "key_press": -1, "trial_type": "single-stim", "trial_index": 81, "time_elapsed": 476091, "internal_node_id": "0.0-60.0-3.0"}}, {"uniqueid": "MTK1029:3KXIR214I5NSB26R7MQKRM3XG3K24Q", "current_trial": 82, "dateTime": 1513008823238, "trialdata": {"rt": -1, "stimulus": "<p id=\"stim\">6</p>", "key_press": -1, "trial_type": "single-stim", "trial_index": 82, "time_elapsed": 477095, "internal_node_id": "0.0-60.0-4.0"}}, {"uniqueid": "MTK1029:3KXIR214I5NSB26R7MQKRM3XG3K24Q", "current_trial": 83, "dateTime": 1513008824242, "trialdata": {"rt": -1, "stimulus": "<p id=\"stim\">5</p>", "key_press": -1, "trial_type": "single-stim", "trial_index": 83, "time_elapsed": 478099, "internal_node_id": "0.0-60.0-5.0"}}, {"uniqueid": "MTK1029:3KXIR214I5NSB26R7MQKRM3XG3K24Q", "current_trial": 84, "dateTime": 1513008825246, "trialdata": {"rt": -1, "stimulus": "<p id=\"stim\">4</p>", "key_press": -1, "trial_type": "single-stim", "trial_index": 84, "time_elapsed": 479103, "internal_node_id": "0.0-60.0-6.0"}}, {"uniqueid": "MTK1029:3KXIR214I5NSB26R7MQKRM3XG3K24Q", "current_trial": 85, "dateTime": 1513008826250, "trialdata": {"rt": -1, "stimulus": "<p id=\"stim\">3</p>", "key_press": -1, "trial_type": "single-stim", "trial_index": 85, "time_elapsed": 480107, "internal_node_id": "0.0-60.0-7.0"}}, {"uniqueid": "MTK1029:3KXIR214I5NSB26R7MQKRM3XG3K24Q", "current_trial": 86, "dateTime": 1513008827254, "trialdata": {"rt": -1, "stimulus": "<p id=\"stim\">2</p>", "key_press": -1, "trial_type": "single-stim", "trial_index": 86, "time_elapsed": 481111, "internal_node_id": "0.0-60.0-8.0"}}, {"uniqueid": "MTK1029:3KXIR214I5NSB26R7MQKRM3XG3K24Q", "current_trial": 87, "dateTime": 1513008828258, "trialdata": {"rt": -1, "stimulus": "<p id=\"stim\">1</p>", "key_press": -1, "trial_type": "single-stim", "trial_index": 87, "time_elapsed": 482115, "internal_node_id": "0.0-60.0-9.0"}}, {"uniqueid": "MTK1029:3KXIR214I5NSB26R7MQKRM3XG3K24Q", "current_trial": 88, "dateTime": 1513008829761, "trialdata": {"rt": -1, "stimulus": "<p id=\"stim\">+</p>", "key_press": -1, "type": "FIXATION", "trial_type": "single-stim", "trial_index": 88, "time_elapsed": 483618, "internal_node_id": "0.0-61.0-0.0"}}, {"uniqueid": "MTK1029:3KXIR214I5NSB26R7MQKRM3XG3K24Q", "current_trial": 89, "dateTime": 1513008831363, "trialdata": {"rt": -1, "stimulus": "<p id=\"stim\">BUG</p>", "key_press": -1, "type": "PRES_VIS", "word": "bug", "wordID": 186, "conditions": [12, 1600, "v", 12000], "trial": 2, "serialpos": 0, "trial_type": "single-stim", "trial_index": 89, "time_elapsed": 485220, "internal_node_id": "0.0-62.0"}}, {"uniqueid": "MTK1029:3KXIR214I5NSB26R7MQKRM3XG3K24Q", "current_trial": 90, "dateTime": 1513008833929, "trialdata": {"rt": -1, "stimulus": "<p id=\"stim\">SHELTER</p>", "key_press": -1, "type": "PRES_VIS", "word": "shelter", "wordID": 1281, "conditions": [12, 1600, "v", 12000], "trial": 2, "serialpos": 1, "trial_type": "single-stim", "trial_index": 90, "time_elapsed": 487785, "internal_node_id": "0.0-63.0"}}, {"uniqueid": "MTK1029:3KXIR214I5NSB26R7MQKRM3XG3K24Q", "current_trial": 91, "dateTime": 1513008836407, "trialdata": {"rt": -1, "stimulus": "<p id=\"stim\">BASEMENT</p>", "key_press": -1, "type": "PRES_VIS", "word": "basement", "wordID": 93, "conditions": [12, 1600, "v", 12000], "trial": 2, "serialpos": 2, "trial_type": "single-stim", "trial_index": 91, "time_elapsed": 490264, "internal_node_id": "0.0-64.0"}}, {"uniqueid": "MTK1029:3KXIR214I5NSB26R7MQKRM3XG3K24Q", "current_trial": 92, "dateTime": 1513008838815, "trialdata": {"rt": -1, "stimulus": "<p id=\"stim\">PRIMATE</p>", "key_press": -1, "type": "PRES_VIS", "word": "primate", "wordID": 1122, "conditions": [12, 1600, "v", 12000], "trial": 2, "serialpos": 3, "trial_type": "single-stim", "trial_index": 92, "time_elapsed": 492672, "internal_node_id": "0.0-65.0"}}, {"uniqueid": "MTK1029:3KXIR214I5NSB26R7MQKRM3XG3K24Q", "current_trial": 93, "dateTime": 1513008841358, "trialdata": {"rt": -1, "stimulus": "<p id=\"stim\">FILM</p>", "key_press": -1, "type": "PRES_VIS", "word": "film", "wordID": 564, "conditions": [12, 1600, "v", 12000], "trial": 2, "serialpos": 4, "trial_type": "single-stim", "trial_index": 93, "time_elapsed": 495214, "internal_node_id": "0.0-66.0"}}, {"uniqueid": "MTK1029:3KXIR214I5NSB26R7MQKRM3XG3K24Q", "current_trial": 94, "dateTime": 1513008844027, "trialdata": {"rt": -1, "stimulus": "<p id=\"stim\">CHIPMUNK</p>", "key_press": -1, "type": "PRES_VIS", "word": "chipmunk", "wordID": 303, "conditions": [12, 1600, "v", 12000], "trial": 2, "serialpos": 5, "trial_type": "single-stim", "trial_index": 94, "time_elapsed": 497884, "internal_node_id": "0.0-67.0"}}, {"uniqueid": "MTK1029:3KXIR214I5NSB26R7MQKRM3XG3K24Q", "current_trial": 95, "dateTime": 1513008846669, "trialdata": {"rt": -1, "stimulus": "<p id=\"stim\">RECORD</p>", "key_press": -1, "type": "PRES_VIS", "word": "record", "wordID": 1175, "conditions": [12, 1600, "v", 12000], "trial": 2, "serialpos": 6, "trial_type": "single-stim", "trial_index": 95, "time_elapsed": 500525, "internal_node_id": "0.0-68.0"}}, {"uniqueid": "MTK1029:3KXIR214I5NSB26R7MQKRM3XG3K24Q", "current_trial": 96, "dateTime": 1513008849355, "trialdata": {"rt": -1, "stimulus": "<p id=\"stim\">PISTON</p>", "key_press": -1, "type": "PRES_VIS", "word": "piston", "wordID": 1075, "conditions": [12, 1600, "v", 12000], "trial": 2, "serialpos": 7, "trial_type": "single-stim", "trial_index": 96, "time_elapsed": 503212, "internal_node_id": "0.0-69.0"}}, {"uniqueid": "MTK1029:3KXIR214I5NSB26R7MQKRM3XG3K24Q", "current_trial": 97, "dateTime": 1513008852147, "trialdata": {"rt": -1, "stimulus": "<p id=\"stim\">VALVE</p>", "key_press": -1, "type": "PRES_VIS", "word": "valve", "wordID": 1545, "conditions": [12, 1600, "v", 12000], "trial": 2, "serialpos": 8, "trial_type": "single-stim", "trial_index": 97, "time_elapsed": 506004, "internal_node_id": "0.0-70.0"}}, {"uniqueid": "MTK1029:3KXIR214I5NSB26R7MQKRM3XG3K24Q", "current_trial": 98, "dateTime": 1513008854555, "trialdata": {"rt": -1, "stimulus": "<p id=\"stim\">VIRUS</p>", "key_press": -1, "type": "PRES_VIS", "word": "virus", "wordID": 1571, "conditions": [12, 1600, "v", 12000], "trial": 2, "serialpos": 9, "trial_type": "single-stim", "trial_index": 98, "time_elapsed": 508412, "internal_node_id": "0.0-71.0"}}, {"uniqueid": "MTK1029:3KXIR214I5NSB26R7MQKRM3XG3K24Q", "current_trial": 99, "dateTime": 1513008857335, "trialdata": {"rt": -1, "stimulus": "<p id=\"stim\">WHISTLE</p>", "key_press": -1, "type": "PRES_VIS", "word": "whistle", "wordID": 1605, "conditions": [12, 1600, "v", 12000], "trial": 2, "serialpos": 10, "trial_type": "single-stim", "trial_index": 99, "time_elapsed": 511192, "internal_node_id": "0.0-72.0"}}, {"uniqueid": "MTK1029:3KXIR214I5NSB26R7MQKRM3XG3K24Q", "current_trial": 100, "dateTime": 1513008859906, "trialdata": {"rt": -1, "stimulus": "<p id=\"stim\">QUARTER</p>", "key_press": -1, "type": "PRES_VIS", "word": "quarter", "wordID": 1147, "conditions": [12, 1600, "v", 12000], "trial": 2, "serialpos": 11, "trial_type": "single-stim", "trial_index": 100, "time_elapsed": 513763, "internal_node_id": "0.0-73.0"}}, {"uniqueid": "MTK1029:3KXIR214I5NSB26R7MQKRM3XG3K24Q", "current_trial": 101, "dateTime": 1513008862154, "trialdata": {"rt": -1, "stimulus": "", "key_press": -1, "type": "PRE_RECALL_DELAY", "trial_type": "single-stim", "trial_index": 101, "time_elapsed": 516011, "internal_node_id": "0.0-74.0-0.0"}}, {"uniqueid": "MTK1029:3KXIR214I5NSB26R7MQKRM3XG3K24Q", "current_trial": 102, "dateTime": 1513008862655, "trialdata": {"rt": -1000, "stimulus": "/static/audio/400Hz.wav", "key_press": -1, "type": "PRE_RECALL_ALERT", "trial_type": "single-audio", "trial_index": 102, "time_elapsed": 516512, "internal_node_id": "0.0-75.0"}}, {"uniqueid": "MTK1029:3KXIR214I5NSB26R7MQKRM3XG3K24Q", "current_trial": 103, "dateTime": 1513008922662, "trialdata": {"rt": [3374, 4726, 6318, 8358, 9326, 14677, 16501, 19021, 20325, 26765, 28445], "recwords": ["valve", "virus", "whistle", "quarter", "piston", "bug", "shelter", "film", "primate", "chipmunk", "record"], "type": "FREE_RECALL", "conditions": [12, 1600, "v", 12000], "trial": 2, "trial_type": "free-recall", "trial_index": 103, "time_elapsed": 576517, "internal_node_id": "0.0-76.0-0.0"}}, {"uniqueid": "MTK1029:3KXIR214I5NSB26R7MQKRM3XG3K24Q", "current_trial": 104, "dateTime": 1513008926343, "trialdata": {"rt": 1676, "key_press": 32, "type": "INSTRUCTIONS", "trial_type": "text", "trial_index": 104, "time_elapsed": 580200, "internal_node_id": "0.0-77.0"}}, {"uniqueid": "MTK1029:3KXIR214I5NSB26R7MQKRM3XG3K24Q", "current_trial": 105, "dateTime": 1513008952352, "trialdata": {"rt": [3438, 6749, 11101, 12885, 14597, 16653, 18317, 19493, 22653], "responses": ["10", "17", "21", "12", "19", "11", "11", "12", "24"], "num1": [3, 3, 8, 7, 6, 6, 2, 5, 9, 8], "num2": [2, 8, 7, 1, 9, 3, 7, 5, 9, 5], "num3": [5, 6, 6, 4, 4, 2, 2, 2, 6, 4], "type": "DISTRACTOR", "conditions": [12, 800, "v", 24000], "trial": 3, "trial_type": "math-distractor", "trial_index": 105, "time_elapsed": 606209, "internal_node_id": "0.0-78.0"}}, {"uniqueid": "MTK1029:3KXIR214I5NSB26R7MQKRM3XG3K24Q", "current_trial": 106, "dateTime": 1513008955358, "trialdata": {"rt": -1, "stimulus": "<p id=\"stim\">10</p>", "key_press": -1, "trial_type": "single-stim", "trial_index": 106, "time_elapsed": 609215, "internal_node_id": "0.0-79.0-0.0"}}, {"uniqueid": "MTK1029:3KXIR214I5NSB26R7MQKRM3XG3K24Q", "current_trial": 107, "dateTime": 1513008956362, "trialdata": {"rt": -1, "stimulus": "<p id=\"stim\">9</p>", "key_press": -1, "trial_type": "single-stim", "trial_index": 107, "time_elapsed": 610219, "internal_node_id": "0.0-79.0-1.0"}}, {"uniqueid": "MTK1029:3KXIR214I5NSB26R7MQKRM3XG3K24Q", "current_trial": 108, "dateTime": 1513008957368, "trialdata": {"rt": -1, "stimulus": "<p id=\"stim\">8</p>", "key_press": -1, "trial_type": "single-stim", "trial_index": 108, "time_elapsed": 611225, "internal_node_id": "0.0-79.0-2.0"}}, {"uniqueid": "MTK1029:3KXIR214I5NSB26R7MQKRM3XG3K24Q", "current_trial": 109, "dateTime": 1513008958370, "trialdata": {"rt": -1, "stimulus": "<p id=\"stim\">7</p>", "key_press": -1, "trial_type": "single-stim", "trial_index": 109, "time_elapsed": 612227, "internal_node_id": "0.0-79.0-3.0"}}, {"uniqueid": "MTK1029:3KXIR214I5NSB26R7MQKRM3XG3K24Q", "current_trial": 110, "dateTime": 1513008959374, "trialdata": {"rt": -1, "stimulus": "<p id=\"stim\">6</p>", "key_press": -1, "trial_type": "single-stim", "trial_index": 110, "time_elapsed": 613231, "internal_node_id": "0.0-79.0-4.0"}}, {"uniqueid": "MTK1029:3KXIR214I5NSB26R7MQKRM3XG3K24Q", "current_trial": 111, "dateTime": 1513008960378, "trialdata": {"rt": -1, "stimulus": "<p id=\"stim\">5</p>", "key_press": -1, "trial_type": "single-stim", "trial_index": 111, "time_elapsed": 614235, "internal_node_id": "0.0-79.0-5.0"}}, {"uniqueid": "MTK1029:3KXIR214I5NSB26R7MQKRM3XG3K24Q", "current_trial": 112, "dateTime": 1513008961383, "trialdata": {"rt": -1, "stimulus": "<p id=\"stim\">4</p>", "key_press": -1, "trial_type": "single-stim", "trial_index": 112, "time_elapsed": 615240, "internal_node_id": "0.0-79.0-6.0"}}, {"uniqueid": "MTK1029:3KXIR214I5NSB26R7MQKRM3XG3K24Q", "current_trial": 113, "dateTime": 1513008962387, "trialdata": {"rt": -1, "stimulus": "<p id=\"stim\">3</p>", "key_press": -1, "trial_type": "single-stim", "trial_index": 113, "time_elapsed": 616244, "internal_node_id": "0.0-79.0-7.0"}}, {"uniqueid": "MTK1029:3KXIR214I5NSB26R7MQKRM3XG3K24Q", "current_trial": 114, "dateTime": 1513008963391, "trialdata": {"rt": -1, "stimulus": "<p id=\"stim\">2</p>", "key_press": -1, "trial_type": "single-stim", "trial_index": 114, "time_elapsed": 617248, "internal_node_id": "0.0-79.0-8.0"}}, {"uniqueid": "MTK1029:3KXIR214I5NSB26R7MQKRM3XG3K24Q", "current_trial": 115, "dateTime": 1513008964395, "trialdata": {"rt": -1, "stimulus": "<p id=\"stim\">1</p>", "key_press": -1, "trial_type": "single-stim", "trial_index": 115, "time_elapsed": 618252, "internal_node_id": "0.0-79.0-9.0"}}, {"uniqueid": "MTK1029:3KXIR214I5NSB26R7MQKRM3XG3K24Q", "current_trial": 116, "dateTime": 1513008965898, "trialdata": {"rt": -1, "stimulus": "<p id=\"stim\">+</p>", "key_press": -1, "type": "FIXATION", "trial_type": "single-stim", "trial_index": 116, "time_elapsed": 619755, "internal_node_id": "0.0-80.0-0.0"}}, {"uniqueid": "MTK1029:3KXIR214I5NSB26R7MQKRM3XG3K24Q", "current_trial": 117, "dateTime": 1513008966699, "trialdata": {"rt": -1, "stimulus": "<p id=\"stim\">PUPPY</p>", "key_press": -1, "type": "PRES_VIS", "word": "puppy", "wordID": 1143, "conditions": [12, 800, "v", 24000], "trial": 3, "serialpos": 0, "trial_type": "single-stim", "trial_index": 117, "time_elapsed": 620556, "internal_node_id": "0.0-81.0"}}, {"uniqueid": "MTK1029:3KXIR214I5NSB26R7MQKRM3XG3K24Q", "current_trial": 118, "dateTime": 1513008968632, "trialdata": {"rt": -1, "stimulus": "<p id=\"stim\">LUNCH</p>", "key_press": -1, "type": "PRES_VIS", "word": "lunch", "wordID": 848, "conditions": [12, 800, "v", 24000], "trial": 3, "serialpos": 1, "trial_type": "single-stim", "trial_index": 118, "time_elapsed": 622488, "internal_node_id": "0.0-82.0"}}, {"uniqueid": "MTK1029:3KXIR214I5NSB26R7MQKRM3XG3K24Q", "current_trial": 119, "dateTime": 1513008970408, "trialdata": {"rt": -1, "stimulus": "<p id=\"stim\">LABEL</p>", "key_press": -1, "type": "PRES_VIS", "word": "label", "wordID": 789, "conditions": [12, 800, "v", 24000], "trial": 3, "serialpos": 2, "trial_type": "single-stim", "trial_index": 119, "time_elapsed": 624265, "internal_node_id": "0.0-83.0"}}, {"uniqueid": "MTK1029:3KXIR214I5NSB26R7MQKRM3XG3K24Q", "current_trial": 120, "dateTime": 1513008972387, "trialdata": {"rt": -1, "stimulus": "<p id=\"stim\">PERFUME</p>", "key_press": -1, "type": "PRES_VIS", "word": "perfume", "wordID": 1048, "conditions": [12, 800, "v", 24000], "trial": 3, "serialpos": 3, "trial_type": "single-stim", "trial_index": 120, "time_elapsed": 626243, "internal_node_id": "0.0-84.0"}}, {"uniqueid": "MTK1029:3KXIR214I5NSB26R7MQKRM3XG3K24Q", "current_trial": 121, "dateTime": 1513008974267, "trialdata": {"rt": -1, "stimulus": "<p id=\"stim\">FRAGRANCE</p>", "key_press": -1, "type": "PRES_VIS", "word": "fragrance", "wordID": 598, "conditions": [12, 800, "v", 24000], "trial": 3, "serialpos": 4, "trial_type": "single-stim", "trial_index": 121, "time_elapsed": 628124, "internal_node_id": "0.0-85.0"}}, {"uniqueid": "MTK1029:3KXIR214I5NSB26R7MQKRM3XG3K24Q", "current_trial": 122, "dateTime": 1513008976060, "trialdata": {"rt": -1, "stimulus": "<p id=\"stim\">BABY</p>", "key_press": -1, "type": "PRES_VIS", "word": "baby", "wordID": 63, "conditions": [12, 800, "v", 24000], "trial": 3, "serialpos": 5, "trial_type": "single-stim", "trial_index": 122, "time_elapsed": 629917, "internal_node_id": "0.0-86.0"}}, {"uniqueid": "MTK1029:3KXIR214I5NSB26R7MQKRM3XG3K24Q", "current_trial": 123, "dateTime": 1513008977999, "trialdata": {"rt": -1, "stimulus": "<p id=\"stim\">SHRUB</p>", "key_press": -1, "type": "PRES_VIS", "word": "shrub", "wordID": 1298, "conditions": [12, 800, "v", 24000], "trial": 3, "serialpos": 6, "trial_type": "single-stim", "trial_index": 123, "time_elapsed": 631856, "internal_node_id": "0.0-87.0"}}, {"uniqueid": "MTK1029:3KXIR214I5NSB26R7MQKRM3XG3K24Q", "current_trial": 124, "dateTime": 1513008979728, "trialdata": {"rt": -1, "stimulus": "<p id=\"stim\">CRATER</p>", "key_press": -1, "type": "PRES_VIS", "word": "crater", "wordID": 399, "conditions": [12, 800, "v", 24000], "trial": 3, "serialpos": 7, "trial_type": "single-stim", "trial_index": 124, "time_elapsed": 633585, "internal_node_id": "0.0-88.0"}}, {"uniqueid": "MTK1029:3KXIR214I5NSB26R7MQKRM3XG3K24Q", "current_trial": 125, "dateTime": 1513008981621, "trialdata": {"rt": -1, "stimulus": "<p id=\"stim\">SAUSAGE</p>", "key_press": -1, "type": "PRES_VIS", "word": "sausage", "wordID": 1237, "conditions": [12, 800, "v", 24000], "trial": 3, "serialpos": 8, "trial_type": "single-stim", "trial_index": 125, "time_elapsed": 635477, "internal_node_id": "0.0-89.0"}}, {"uniqueid": "MTK1029:3KXIR214I5NSB26R7MQKRM3XG3K24Q", "current_trial": 126, "dateTime": 1513008983298, "trialdata": {"rt": -1, "stimulus": "<p id=\"stim\">CURTAIN</p>", "key_press": -1, "type": "PRES_VIS", "word": "curtain", "wordID": 426, "conditions": [12, 800, "v", 24000], "trial": 3, "serialpos": 9, "trial_type": "single-stim", "trial_index": 126, "time_elapsed": 637155, "internal_node_id": "0.0-90.0"}}, {"uniqueid": "MTK1029:3KXIR214I5NSB26R7MQKRM3XG3K24Q", "current_trial": 127, "dateTime": 1513008985283, "trialdata": {"rt": -1, "stimulus": "<p id=\"stim\">CUSTARD</p>", "key_press": -1, "type": "PRES_VIS", "word": "custard", "wordID": 428, "conditions": [12, 800, "v", 24000], "trial": 3, "serialpos": 10, "trial_type": "single-stim", "trial_index": 127, "time_elapsed": 639140, "internal_node_id": "0.0-91.0"}}, {"uniqueid": "MTK1029:3KXIR214I5NSB26R7MQKRM3XG3K24Q", "current_trial": 128, "dateTime": 1513008987082, "trialdata": {"rt": -1, "stimulus": "<p id=\"stim\">LUMBER</p>", "key_press": -1, "type": "PRES_VIS", "word": "lumber", "wordID": 847, "conditions": [12, 800, "v", 24000], "trial": 3, "serialpos": 11, "trial_type": "single-stim", "trial_index": 128, "time_elapsed": 640939, "internal_node_id": "0.0-92.0"}}, {"uniqueid": "MTK1029:3KXIR214I5NSB26R7MQKRM3XG3K24Q", "current_trial": 129, "dateTime": 1513008989589, "trialdata": {"rt": -1, "stimulus": "", "key_press": -1, "type": "PRE_RECALL_DELAY", "trial_type": "single-stim", "trial_index": 129, "time_elapsed": 643446, "internal_node_id": "0.0-93.0-0.0"}}, {"uniqueid": "MTK1029:3KXIR214I5NSB26R7MQKRM3XG3K24Q", "current_trial": 130, "dateTime": 1513008990090, "trialdata": {"rt": -1000, "stimulus": "/static/audio/400Hz.wav", "key_press": -1, "type": "PRE_RECALL_ALERT", "trial_type": "single-audio", "trial_index": 130, "time_elapsed": 643947, "internal_node_id": "0.0-94.0"}}, {"uniqueid": "MTK1029:3KXIR214I5NSB26R7MQKRM3XG3K24Q", "current_trial": 131, "dateTime": 1513009050092, "trialdata": {"rt": [12353, 13273, 14721, 16305, 17097, 20145, 21737, 25992, 28376, 31904, 37128, 41024], "recwords": ["sausage", "label", "perfume", "fragrance", "baby", "shrub", "crater", "curtain", "lumber", "custard", "puppy", "lunch"], "type": "FREE_RECALL", "conditions": [12, 800, "v", 24000], "trial": 3, "trial_type": "free-recall", "trial_index": 131, "time_elapsed": 703947, "internal_node_id": "0.0-95.0-0.0"}}, {"uniqueid": "MTK1029:3KXIR214I5NSB26R7MQKRM3XG3K24Q", "current_trial": 132, "dateTime": 1513009053340, "trialdata": {"rt": 1245, "key_press": 32, "type": "INSTRUCTIONS", "trial_type": "text", "trial_index": 132, "time_elapsed": 707197, "internal_node_id": "0.0-96.0"}}, {"uniqueid": "MTK1029:3KXIR214I5NSB26R7MQKRM3XG3K24Q", "current_trial": 133, "dateTime": 1513009067348, "trialdata": {"rt": [2531, 6035, 8084, 10187, 11611], "responses": ["20", "15", "14", "12", "13"], "num1": [4, 7, 6, 6, 3, 6], "num2": [8, 1, 2, 1, 6, 8], "num3": [8, 7, 5, 5, 4, 9], "type": "DISTRACTOR", "conditions": [12, 800, "a", 12000], "trial": 4, "trial_type": "math-distractor", "trial_index": 133, "time_elapsed": 721205, "internal_node_id": "0.0-97.0"}}, {"uniqueid": "MTK1029:3KXIR214I5NSB26R7MQKRM3XG3K24Q", "current_trial": 134, "dateTime": 1513009070354, "trialdata": {"rt": -1, "stimulus": "<p id=\"stim\">10</p>", "key_press": -1, "trial_type": "single-stim", "trial_index": 134, "time_elapsed": 724211, "internal_node_id": "0.0-98.0-0.0"}}, {"uniqueid": "MTK1029:3KXIR214I5NSB26R7MQKRM3XG3K24Q", "current_trial": 135, "dateTime": 1513009071359, "trialdata": {"rt": -1, "stimulus": "<p id=\"stim\">9</p>", "key_press": -1, "trial_type": "single-stim", "trial_index": 135, "time_elapsed": 725215, "internal_node_id": "0.0-98.0-1.0"}}, {"uniqueid": "MTK1029:3KXIR214I5NSB26R7MQKRM3XG3K24Q", "current_trial": 136, "dateTime": 1513009072363, "trialdata": {"rt": -1, "stimulus": "<p id=\"stim\">8</p>", "key_press": -1, "trial_type": "single-stim", "trial_index": 136, "time_elapsed": 726219, "internal_node_id": "0.0-98.0-2.0"}}, {"uniqueid": "MTK1029:3KXIR214I5NSB26R7MQKRM3XG3K24Q", "current_trial": 137, "dateTime": 1513009073366, "trialdata": {"rt": -1, "stimulus": "<p id=\"stim\">7</p>", "key_press": -1, "trial_type": "single-stim", "trial_index": 137, "time_elapsed": 727223, "internal_node_id": "0.0-98.0-3.0"}}, {"uniqueid": "MTK1029:3KXIR214I5NSB26R7MQKRM3XG3K24Q", "current_trial": 138, "dateTime": 1513009074371, "trialdata": {"rt": -1, "stimulus": "<p id=\"stim\">6</p>", "key_press": -1, "trial_type": "single-stim", "trial_index": 138, "time_elapsed": 728228, "internal_node_id": "0.0-98.0-4.0"}}, {"uniqueid": "MTK1029:3KXIR214I5NSB26R7MQKRM3XG3K24Q", "current_trial": 139, "dateTime": 1513009075375, "trialdata": {"rt": -1, "stimulus": "<p id=\"stim\">5</p>", "key_press": -1, "trial_type": "single-stim", "trial_index": 139, "time_elapsed": 729232, "internal_node_id": "0.0-98.0-5.0"}}, {"uniqueid": "MTK1029:3KXIR214I5NSB26R7MQKRM3XG3K24Q", "current_trial": 140, "dateTime": 1513009076379, "trialdata": {"rt": -1, "stimulus": "<p id=\"stim\">4</p>", "key_press": -1, "trial_type": "single-stim", "trial_index": 140, "time_elapsed": 730236, "internal_node_id": "0.0-98.0-6.0"}}, {"uniqueid": "MTK1029:3KXIR214I5NSB26R7MQKRM3XG3K24Q", "current_trial": 141, "dateTime": 1513009077383, "trialdata": {"rt": -1, "stimulus": "<p id=\"stim\">3</p>", "key_press": -1, "trial_type": "single-stim", "trial_index": 141, "time_elapsed": 731240, "internal_node_id": "0.0-98.0-7.0"}}, {"uniqueid": "MTK1029:3KXIR214I5NSB26R7MQKRM3XG3K24Q", "current_trial": 142, "dateTime": 1513009078387, "trialdata": {"rt": -1, "stimulus": "<p id=\"stim\">2</p>", "key_press": -1, "trial_type": "single-stim", "trial_index": 142, "time_elapsed": 732244, "internal_node_id": "0.0-98.0-8.0"}}, {"uniqueid": "MTK1029:3KXIR214I5NSB26R7MQKRM3XG3K24Q", "current_trial": 143, "dateTime": 1513009079391, "trialdata": {"rt": -1, "stimulus": "<p id=\"stim\">1</p>", "key_press": -1, "trial_type": "single-stim", "trial_index": 143, "time_elapsed": 733248, "internal_node_id": "0.0-98.0-9.0"}}, {"uniqueid": "MTK1029:3KXIR214I5NSB26R7MQKRM3XG3K24Q", "current_trial": 144, "dateTime": 1513009080894, "trialdata": {"rt": -1, "stimulus": "<p id=\"stim\">+</p>", "key_press": -1, "type": "FIXATION", "trial_type": "single-stim", "trial_index": 144, "time_elapsed": 734751, "internal_node_id": "0.0-99.0-0.0"}}, {"uniqueid": "MTK1029:3KXIR214I5NSB26R7MQKRM3XG3K24Q", "current_trial": 145, "dateTime": 1513009082740, "trialdata": {"rt": -1000, "stimulus": "/static/audio/wordpool/MUMMY.wav", "key_press": -1, "type": "PRES_AUD", "word": "mummy", "wordID": 931, "conditions": [12, 800, "a", 12000], "trial": 4, "serialpos": 0, "trial_type": "single-audio", "trial_index": 145, "time_elapsed": 736597, "internal_node_id": "0.0-100.0"}}, {"uniqueid": "MTK1029:3KXIR214I5NSB26R7MQKRM3XG3K24Q", "current_trial": 146, "dateTime": 1513009084446, "trialdata": {"rt": -1000, "stimulus": "/static/audio/wordpool/BURGLAR.wav", "key_press": -1, "type": "PRES_AUD", "word": "burglar", "wordID": 199, "conditions": [12, 800, "a", 12000], "trial": 4, "serialpos": 1, "trial_type": "single-audio", "trial_index": 146, "time_elapsed": 738303, "internal_node_id": "0.0-101.0"}}, {"uniqueid": "MTK1029:3KXIR214I5NSB26R7MQKRM3XG3K24Q", "current_trial": 147, "dateTime": 1513009086054, "trialdata": {"rt": -1000, "stimulus": "/static/audio/wordpool/AGENT.wav", "key_press": -1, "type": "PRES_AUD", "word": "agent", "wordID": 9, "conditions": [12, 800, "a", 12000], "trial": 4, "serialpos": 2, "trial_type": "single-audio", "trial_index": 147, "time_elapsed": 739911, "internal_node_id": "0.0-102.0"}}, {"uniqueid": "MTK1029:3KXIR214I5NSB26R7MQKRM3XG3K24Q", "current_trial": 148, "dateTime": 1513009087703, "trialdata": {"rt": -1000, "stimulus": "/static/audio/wordpool/ICEBERG.wav", "key_press": -1, "type": "PRES_AUD", "word": "iceberg", "wordID": 730, "conditions": [12, 800, "a", 12000], "trial": 4, "serialpos": 3, "trial_type": "single-audio", "trial_index": 148, "time_elapsed": 741560, "internal_node_id": "0.0-103.0"}}, {"uniqueid": "MTK1029:3KXIR214I5NSB26R7MQKRM3XG3K24Q", "current_trial": 149, "dateTime": 1513009089485, "trialdata": {"rt": -1000, "stimulus": "/static/audio/wordpool/BEAST.wav", "key_press": -1, "type": "PRES_AUD", "word": "beast", "wordID": 107, "conditions": [12, 800, "a", 12000], "trial": 4, "serialpos": 4, "trial_type": "single-audio", "trial_index": 149, "time_elapsed": 743342, "internal_node_id": "0.0-104.0"}}, {"uniqueid": "MTK1029:3KXIR214I5NSB26R7MQKRM3XG3K24Q", "current_trial": 150, "dateTime": 1513009091372, "trialdata": {"rt": -1000, "stimulus": "/static/audio/wordpool/BISON.wav", "key_press": -1, "type": "PRES_AUD", "word": "bison", "wordID": 130, "conditions": [12, 800, "a", 12000], "trial": 4, "serialpos": 5, "trial_type": "single-audio", "trial_index": 150, "time_elapsed": 745228, "internal_node_id": "0.0-105.0"}}, {"uniqueid": "MTK1029:3KXIR214I5NSB26R7MQKRM3XG3K24Q", "current_trial": 151, "dateTime": 1513009092991, "trialdata": {"rt": -1000, "stimulus": "/static/audio/wordpool/SALMON.wav", "key_press": -1, "type": "PRES_AUD", "word": "salmon", "wordID": 1226, "conditions": [12, 800, "a", 12000], "trial": 4, "serialpos": 6, "trial_type": "single-audio", "trial_index": 151, "time_elapsed": 746848, "internal_node_id": "0.0-106.0"}}, {"uniqueid": "MTK1029:3KXIR214I5NSB26R7MQKRM3XG3K24Q", "current_trial": 152, "dateTime": 1513009094890, "trialdata": {"rt": -1000, "stimulus": "/static/audio/wordpool/TROUT.wav", "key_press": -1, "type": "PRES_AUD", "word": "trout", "wordID": 1510, "conditions": [12, 800, "a", 12000], "trial": 4, "serialpos": 7, "trial_type": "single-audio", "trial_index": 152, "time_elapsed": 748746, "internal_node_id": "0.0-107.0"}}, {"uniqueid": "MTK1029:3KXIR214I5NSB26R7MQKRM3XG3K24Q", "current_trial": 153, "dateTime": 1513009096615, "trialdata": {"rt": -1000, "stimulus": "/static/audio/wordpool/LION.wav", "key_press": -1, "type": "PRES_AUD", "word": "lion", "wordID": 826, "conditions": [12, 800, "a", 12000], "trial": 4, "serialpos": 8, "trial_type": "single-audio", "trial_index": 153, "time_elapsed": 750472, "internal_node_id": "0.0-108.0"}}, {"uniqueid": "MTK1029:3KXIR214I5NSB26R7MQKRM3XG3K24Q", "current_trial": 154, "dateTime": 1513009098410, "trialdata": {"rt": -1000, "stimulus": "/static/audio/wordpool/BOUQUET.wav", "key_press": -1, "type": "PRES_AUD", "word": "bouquet", "wordID": 156, "conditions": [12, 800, "a", 12000], "trial": 4, "serialpos": 9, "trial_type": "single-audio", "trial_index": 154, "time_elapsed": 752267, "internal_node_id": "0.0-109.0"}}, {"uniqueid": "MTK1029:3KXIR214I5NSB26R7MQKRM3XG3K24Q", "current_trial": 155, "dateTime": 1513009100392, "trialdata": {"rt": -1000, "stimulus": "/static/audio/wordpool/PARSLEY.wav", "key_press": -1, "type": "PRES_AUD", "word": "parsley", "wordID": 1015, "conditions": [12, 800, "a", 12000], "trial": 4, "serialpos": 10, "trial_type": "single-audio", "trial_index": 155, "time_elapsed": 754249, "internal_node_id": "0.0-110.0"}}, {"uniqueid": "MTK1029:3KXIR214I5NSB26R7MQKRM3XG3K24Q", "current_trial": 156, "dateTime": 1513009102261, "trialdata": {"rt": -1000, "stimulus": "/static/audio/wordpool/MONSTER.wav", "key_press": -1, "type": "PRES_AUD", "word": "monster", "wordID": 911, "conditions": [12, 800, "a", 12000], "trial": 4, "serialpos": 11, "trial_type": "single-audio", "trial_index": 156, "time_elapsed": 756118, "internal_node_id": "0.0-111.0"}}, {"uniqueid": "MTK1029:3KXIR214I5NSB26R7MQKRM3XG3K24Q", "current_trial": 157, "dateTime": 1513009103532, "trialdata": {"rt": -1, "stimulus": "", "key_press": -1, "type": "PRE_RECALL_DELAY", "trial_type": "single-stim", "trial_index": 157, "time_elapsed": 757389, "internal_node_id": "0.0-112.0-0.0"}}, {"uniqueid": "MTK1029:3KXIR214I5NSB26R7MQKRM3XG3K24Q", "current_trial": 158, "dateTime": 1513009104033, "trialdata": {"rt": -1000, "stimulus": "/static/audio/400Hz.wav", "key_press": -1, "type": "PRE_RECALL_ALERT", "trial_type": "single-audio", "trial_index": 158, "time_elapsed": 757890, "internal_node_id": "0.0-113.0"}}, {"uniqueid": "MTK1029:3KXIR214I5NSB26R7MQKRM3XG3K24Q", "current_trial": 159, "dateTime": 1513009164040, "trialdata": {"rt": [8040, 15520, 20048, 29287, 30343, 32719, 34103, 40623, 42103, 43655, 49425, 52689], "recwords": ["monster", "parsley", "mommy", "burglar", "agent", "beast", "iceberg", "salmon", "trout", "lion", "bison", "monster"], "type": "FREE_RECALL", "conditions": [12, 800, "a", 12000], "trial": 4, "trial_type": "free-recall", "trial_index": 159, "time_elapsed": 817895, "internal_node_id": "0.0-114.0-0.0"}}, {"uniqueid": "MTK1029:3KXIR214I5NSB26R7MQKRM3XG3K24Q", "current_trial": 160, "dateTime": 1513009168168, "trialdata": {"rt": 2122, "key_press": 32, "type": "INSTRUCTIONS", "trial_type": "text", "trial_index": 160, "time_elapsed": 822025, "internal_node_id": "0.0-115.0"}}, {"uniqueid": "MTK1029:3KXIR214I5NSB26R7MQKRM3XG3K24Q", "current_trial": 161, "dateTime": 1513009194177, "trialdata": {"rt": [3044, 5756, 8627, 10980, 12548, 14668, 18540, 20515, 22251], "responses": ["11", "17", "16", "11", "9", "10", "20", "18", "12"], "num1": [3, 6, 9, 3, 4, 3, 7, 1, 4, 9], "num2": [3, 5, 5, 5, 4, 3, 5, 9, 6, 5], "num3": [5, 6, 2, 3, 1, 4, 8, 8, 2, 2], "type": "DISTRACTOR", "conditions": [12, 1600, "a", 24000], "trial": 5, "trial_type": "math-distractor", "trial_index": 161, "time_elapsed": 848034, "internal_node_id": "0.0-116.0"}}, {"uniqueid": "MTK1029:3KXIR214I5NSB26R7MQKRM3XG3K24Q", "current_trial": 162, "dateTime": 1513009197184, "trialdata": {"rt": -1, "stimulus": "<p id=\"stim\">10</p>", "key_press": -1, "trial_type": "single-stim", "trial_index": 162, "time_elapsed": 851040, "internal_node_id": "0.0-117.0-0.0"}}, {"uniqueid": "MTK1029:3KXIR214I5NSB26R7MQKRM3XG3K24Q", "current_trial": 163, "dateTime": 1513009198187, "trialdata": {"rt": -1, "stimulus": "<p id=\"stim\">9</p>", "key_press": -1, "trial_type": "single-stim", "trial_index": 163, "time_elapsed": 852044, "internal_node_id": "0.0-117.0-1.0"}}, {"uniqueid": "MTK1029:3KXIR214I5NSB26R7MQKRM3XG3K24Q", "current_trial": 164, "dateTime": 1513009199192, "trialdata": {"rt": -1, "stimulus": "<p id=\"stim\">8</p>", "key_press": -1, "trial_type": "single-stim", "trial_index": 164, "time_elapsed": 853048, "internal_node_id": "0.0-117.0-2.0"}}, {"uniqueid": "MTK1029:3KXIR214I5NSB26R7MQKRM3XG3K24Q", "current_trial": 165, "dateTime": 1513009200197, "trialdata": {"rt": -1, "stimulus": "<p id=\"stim\">7</p>", "key_press": -1, "trial_type": "single-stim", "trial_index": 165, "time_elapsed": 854054, "internal_node_id": "0.0-117.0-3.0"}}, {"uniqueid": "MTK1029:3KXIR214I5NSB26R7MQKRM3XG3K24Q", "current_trial": 166, "dateTime": 1513009201200, "trialdata": {"rt": -1, "stimulus": "<p id=\"stim\">6</p>", "key_press": -1, "trial_type": "single-stim", "trial_index": 166, "time_elapsed": 855057, "internal_node_id": "0.0-117.0-4.0"}}, {"uniqueid": "MTK1029:3KXIR214I5NSB26R7MQKRM3XG3K24Q", "current_trial": 167, "dateTime": 1513009202204, "trialdata": {"rt": -1, "stimulus": "<p id=\"stim\">5</p>", "key_press": -1, "trial_type": "single-stim", "trial_index": 167, "time_elapsed": 856061, "internal_node_id": "0.0-117.0-5.0"}}, {"uniqueid": "MTK1029:3KXIR214I5NSB26R7MQKRM3XG3K24Q", "current_trial": 168, "dateTime": 1513009203208, "trialdata": {"rt": -1, "stimulus": "<p id=\"stim\">4</p>", "key_press": -1, "trial_type": "single-stim", "trial_index": 168, "time_elapsed": 857065, "internal_node_id": "0.0-117.0-6.0"}}, {"uniqueid": "MTK1029:3KXIR214I5NSB26R7MQKRM3XG3K24Q", "current_trial": 169, "dateTime": 1513009204212, "trialdata": {"rt": -1, "stimulus": "<p id=\"stim\">3</p>", "key_press": -1, "trial_type": "single-stim", "trial_index": 169, "time_elapsed": 858069, "internal_node_id": "0.0-117.0-7.0"}}, {"uniqueid": "MTK1029:3KXIR214I5NSB26R7MQKRM3XG3K24Q", "current_trial": 170, "dateTime": 1513009205216, "trialdata": {"rt": -1, "stimulus": "<p id=\"stim\">2</p>", "key_press": -1, "trial_type": "single-stim", "trial_index": 170, "time_elapsed": 859073, "internal_node_id": "0.0-117.0-8.0"}}, {"uniqueid": "MTK1029:3KXIR214I5NSB26R7MQKRM3XG3K24Q", "current_trial": 171, "dateTime": 1513009206220, "trialdata": {"rt": -1, "stimulus": "<p id=\"stim\">1</p>", "key_press": -1, "trial_type": "single-stim", "trial_index": 171, "time_elapsed": 860077, "internal_node_id": "0.0-117.0-9.0"}}, {"uniqueid": "MTK1029:3KXIR214I5NSB26R7MQKRM3XG3K24Q", "current_trial": 172, "dateTime": 1513009207723, "trialdata": {"rt": -1, "stimulus": "<p id=\"stim\">+</p>", "key_press": -1, "type": "FIXATION", "trial_type": "single-stim", "trial_index": 172, "time_elapsed": 861580, "internal_node_id": "0.0-118.0-0.0"}}, {"uniqueid": "MTK1029:3KXIR214I5NSB26R7MQKRM3XG3K24Q", "current_trial": 173, "dateTime": 1513009210346, "trialdata": {"rt": -1000, "stimulus": "/static/audio/wordpool/FRUIT.wav", "key_press": -1, "type": "PRES_AUD", "word": "fruit", "wordID": 609, "conditions": [12, 1600, "a", 24000], "trial": 5, "serialpos": 0, "trial_type": "single-audio", "trial_index": 173, "time_elapsed": 864203, "internal_node_id": "0.0-119.0"}}, {"uniqueid": "MTK1029:3KXIR214I5NSB26R7MQKRM3XG3K24Q", "current_trial": 174, "dateTime": 1513009212825, "trialdata": {"rt": -1000, "stimulus": "/static/audio/wordpool/CITRUS.wav", "key_press": -1, "type": "PRES_AUD", "word": "citrus", "wordID": 312, "conditions": [12, 1600, "a", 24000], "trial": 5, "serialpos": 1, "trial_type": "single-audio", "trial_index": 174, "time_elapsed": 866681, "internal_node_id": "0.0-120.0"}}, {"uniqueid": "MTK1029:3KXIR214I5NSB26R7MQKRM3XG3K24Q", "current_trial": 175, "dateTime": 1513009215245, "trialdata": {"rt": -1000, "stimulus": "/static/audio/wordpool/CLIMBER.wav", "key_press": -1, "type": "PRES_AUD", "word": "climber", "wordID": 322, "conditions": [12, 1600, "a", 24000], "trial": 5, "serialpos": 2, "trial_type": "single-audio", "trial_index": 175, "time_elapsed": 869102, "internal_node_id": "0.0-121.0"}}, {"uniqueid": "MTK1029:3KXIR214I5NSB26R7MQKRM3XG3K24Q", "current_trial": 176, "dateTime": 1513009217747, "trialdata": {"rt": -1000, "stimulus": "/static/audio/wordpool/COSTUME.wav", "key_press": -1, "type": "PRES_AUD", "word": "costume", "wordID": 382, "conditions": [12, 1600, "a", 24000], "trial": 5, "serialpos": 3, "trial_type": "single-audio", "trial_index": 176, "time_elapsed": 871604, "internal_node_id": "0.0-122.0"}}, {"uniqueid": "MTK1029:3KXIR214I5NSB26R7MQKRM3XG3K24Q", "current_trial": 177, "dateTime": 1513009220481, "trialdata": {"rt": -1000, "stimulus": "/static/audio/wordpool/COWBOY.wav", "key_press": -1, "type": "PRES_AUD", "word": "cowboy", "wordID": 394, "conditions": [12, 1600, "a", 24000], "trial": 5, "serialpos": 4, "trial_type": "single-audio", "trial_index": 177, "time_elapsed": 874338, "internal_node_id": "0.0-123.0"}}, {"uniqueid": "MTK1029:3KXIR214I5NSB26R7MQKRM3XG3K24Q", "current_trial": 178, "dateTime": 1513009223110, "trialdata": {"rt": -1000, "stimulus": "/static/audio/wordpool/GIRL.wav", "key_press": -1, "type": "PRES_AUD", "word": "girl", "wordID": 636, "conditions": [12, 1600, "a", 24000], "trial": 5, "serialpos": 5, "trial_type": "single-audio", "trial_index": 178, "time_elapsed": 876967, "internal_node_id": "0.0-124.0"}}, {"uniqueid": "MTK1029:3KXIR214I5NSB26R7MQKRM3XG3K24Q", "current_trial": 179, "dateTime": 1513009225630, "trialdata": {"rt": -1000, "stimulus": "/static/audio/wordpool/PICTURE.wav", "key_press": -1, "type": "PRES_AUD", "word": "picture", "wordID": 1060, "conditions": [12, 1600, "a", 24000], "trial": 5, "serialpos": 6, "trial_type": "single-audio", "trial_index": 179, "time_elapsed": 879487, "internal_node_id": "0.0-125.0"}}, {"uniqueid": "MTK1029:3KXIR214I5NSB26R7MQKRM3XG3K24Q", "current_trial": 180, "dateTime": 1513009228312, "trialdata": {"rt": -1000, "stimulus": "/static/audio/wordpool/HIGHWAY.wav", "key_press": -1, "type": "PRES_AUD", "word": "highway", "wordID": 706, "conditions": [12, 1600, "a", 24000], "trial": 5, "serialpos": 7, "trial_type": "single-audio", "trial_index": 180, "time_elapsed": 882168, "internal_node_id": "0.0-126.0"}}, {"uniqueid": "MTK1029:3KXIR214I5NSB26R7MQKRM3XG3K24Q", "current_trial": 181, "dateTime": 1513009230837, "trialdata": {"rt": -1000, "stimulus": "/static/audio/wordpool/TILE.wav", "key_press": -1, "type": "PRES_AUD", "word": "tile", "wordID": 1467, "conditions": [12, 1600, "a", 24000], "trial": 5, "serialpos": 8, "trial_type": "single-audio", "trial_index": 181, "time_elapsed": 884694, "internal_node_id": "0.0-127.0"}}, {"uniqueid": "MTK1029:3KXIR214I5NSB26R7MQKRM3XG3K24Q", "current_trial": 182, "dateTime": 1513009233507, "trialdata": {"rt": -1000, "stimulus": "/static/audio/wordpool/PACKAGE.wav", "key_press": -1, "type": "PRES_AUD", "word": "package", "wordID": 996, "conditions": [12, 1600, "a", 24000], "trial": 5, "serialpos": 9, "trial_type": "single-audio", "trial_index": 182, "time_elapsed": 887364, "internal_node_id": "0.0-128.0"}}, {"uniqueid": "MTK1029:3KXIR214I5NSB26R7MQKRM3XG3K24Q", "current_trial": 183, "dateTime": 1513009236183, "trialdata": {"rt": -1000, "stimulus": "/static/audio/wordpool/CIGAR.wav", "key_press": -1, "type": "PRES_AUD", "word": "cigar", "wordID": 307, "conditions": [12, 1600, "a", 24000], "trial": 5, "serialpos": 10, "trial_type": "single-audio", "trial_index": 183, "time_elapsed": 890040, "internal_node_id": "0.0-129.0"}}, {"uniqueid": "MTK1029:3KXIR214I5NSB26R7MQKRM3XG3K24Q", "current_trial": 184, "dateTime": 1513009238685, "trialdata": {"rt": -1000, "stimulus": "/static/audio/wordpool/PORTRAIT.wav", "key_press": -1, "type": "PRES_AUD", "word": "portrait", "wordID": 1110, "conditions": [12, 1600, "a", 24000], "trial": 5, "serialpos": 11, "trial_type": "single-audio", "trial_index": 184, "time_elapsed": 892542, "internal_node_id": "0.0-130.0"}}, {"uniqueid": "MTK1029:3KXIR214I5NSB26R7MQKRM3XG3K24Q", "current_trial": 185, "dateTime": 1513009240037, "trialdata": {"rt": -1, "stimulus": "", "key_press": -1, "type": "PRE_RECALL_DELAY", "trial_type": "single-stim", "trial_index": 185, "time_elapsed": 893894, "internal_node_id": "0.0-131.0-0.0"}}, {"uniqueid": "MTK1029:3KXIR214I5NSB26R7MQKRM3XG3K24Q", "current_trial": 186, "dateTime": 1513009240539, "trialdata": {"rt": -1000, "stimulus": "/static/audio/400Hz.wav", "key_press": -1, "type": "PRE_RECALL_ALERT", "trial_type": "single-audio", "trial_index": 186, "time_elapsed": 894395, "internal_node_id": "0.0-132.0"}}, {"uniqueid": "MTK1029:3KXIR214I5NSB26R7MQKRM3XG3K24Q", "current_trial": 187, "dateTime": 1513009300545, "trialdata": {"rt": [1991, 3367, 7271, 9407, 12047, 16135, 18695, 20743, 22606, 23438, 28948, 34020, 36860], "recwords": ["portrait", "cigar", "package", "girl", "fruit", "citrus", "climber", "costume", "cowboy", "girl", "picture", "tile", "highway"], "type": "FREE_RECALL", "conditions": [12, 1600, "a", 24000], "trial": 5, "trial_type": "free-recall", "trial_index": 187, "time_elapsed": 954399, "internal_node_id": "0.0-133.0-0.0"}}, {"uniqueid": "MTK1029:3KXIR214I5NSB26R7MQKRM3XG3K24Q", "current_trial": 188, "dateTime": 1513009303503, "trialdata": {"rt": 954, "key_press": 32, "type": "INSTRUCTIONS", "trial_type": "text", "trial_index": 188, "time_elapsed": 957359, "internal_node_id": "0.0-134.0"}}, {"uniqueid": "MTK1029:3KXIR214I5NSB26R7MQKRM3XG3K24Q", "current_trial": 189, "dateTime": 1513009329509, "trialdata": {"rt": [3810, 6682, 9338, 11754, 15481, 17409, 20017, 22121, 23681], "responses": ["15", "15", "20", "17", "20", "17", "19", "12", "12"], "num1": [6, 3, 9, 2, 7, 4, 4, 1, 1, 3], "num2": [8, 6, 7, 9, 8, 5, 8, 3, 2, 7], "num3": [7, 6, 4, 6, 5, 8, 7, 8, 9, 4], "type": "DISTRACTOR", "conditions": [12, 1600, "v", 24000], "trial": 6, "trial_type": "math-distractor", "trial_index": 189, "time_elapsed": 983366, "internal_node_id": "0.0-135.0"}}, {"uniqueid": "MTK1029:3KXIR214I5NSB26R7MQKRM3XG3K24Q", "current_trial": 190, "dateTime": 1513009332516, "trialdata": {"rt": -1, "stimulus": "<p id=\"stim\">10</p>", "key_press": -1, "trial_type": "single-stim", "trial_index": 190, "time_elapsed": 986373, "internal_node_id": "0.0-136.0-0.0"}}, {"uniqueid": "MTK1029:3KXIR214I5NSB26R7MQKRM3XG3K24Q", "current_trial": 191, "dateTime": 1513009333520, "trialdata": {"rt": -1, "stimulus": "<p id=\"stim\">9</p>", "key_press": -1, "trial_type": "single-stim", "trial_index": 191, "time_elapsed": 987377, "internal_node_id": "0.0-136.0-1.0"}}, {"uniqueid": "MTK1029:3KXIR214I5NSB26R7MQKRM3XG3K24Q", "current_trial": 192, "dateTime": 1513009334524, "trialdata": {"rt": -1, "stimulus": "<p id=\"stim\">8</p>", "key_press": -1, "trial_type": "single-stim", "trial_index": 192, "time_elapsed": 988381, "internal_node_id": "0.0-136.0-2.0"}}, {"uniqueid": "MTK1029:3KXIR214I5NSB26R7MQKRM3XG3K24Q", "current_trial": 193, "dateTime": 1513009335528, "trialdata": {"rt": -1, "stimulus": "<p id=\"stim\">7</p>", "key_press": -1, "trial_type": "single-stim", "trial_index": 193, "time_elapsed": 989385, "internal_node_id": "0.0-136.0-3.0"}}, {"uniqueid": "MTK1029:3KXIR214I5NSB26R7MQKRM3XG3K24Q", "current_trial": 194, "dateTime": 1513009336532, "trialdata": {"rt": -1, "stimulus": "<p id=\"stim\">6</p>", "key_press": -1, "trial_type": "single-stim", "trial_index": 194, "time_elapsed": 990389, "internal_node_id": "0.0-136.0-4.0"}}, {"uniqueid": "MTK1029:3KXIR214I5NSB26R7MQKRM3XG3K24Q", "current_trial": 195, "dateTime": 1513009337536, "trialdata": {"rt": -1, "stimulus": "<p id=\"stim\">5</p>", "key_press": -1, "trial_type": "single-stim", "trial_index": 195, "time_elapsed": 991393, "internal_node_id": "0.0-136.0-5.0"}}, {"uniqueid": "MTK1029:3KXIR214I5NSB26R7MQKRM3XG3K24Q", "current_trial": 196, "dateTime": 1513009338540, "trialdata": {"rt": -1, "stimulus": "<p id=\"stim\">4</p>", "key_press": -1, "trial_type": "single-stim", "trial_index": 196, "time_elapsed": 992397, "internal_node_id": "0.0-136.0-6.0"}}, {"uniqueid": "MTK1029:3KXIR214I5NSB26R7MQKRM3XG3K24Q", "current_trial": 197, "dateTime": 1513009339546, "trialdata": {"rt": -1, "stimulus": "<p id=\"stim\">3</p>", "key_press": -1, "trial_type": "single-stim", "trial_index": 197, "time_elapsed": 993402, "internal_node_id": "0.0-136.0-7.0"}}, {"uniqueid": "MTK1029:3KXIR214I5NSB26R7MQKRM3XG3K24Q", "current_trial": 198, "dateTime": 1513009340548, "trialdata": {"rt": -1, "stimulus": "<p id=\"stim\">2</p>", "key_press": -1, "trial_type": "single-stim", "trial_index": 198, "time_elapsed": 994405, "internal_node_id": "0.0-136.0-8.0"}}, {"uniqueid": "MTK1029:3KXIR214I5NSB26R7MQKRM3XG3K24Q", "current_trial": 199, "dateTime": 1513009341553, "trialdata": {"rt": -1, "stimulus": "<p id=\"stim\">1</p>", "key_press": -1, "trial_type": "single-stim", "trial_index": 199, "time_elapsed": 995409, "internal_node_id": "0.0-136.0-9.0"}}, {"uniqueid": "MTK1029:3KXIR214I5NSB26R7MQKRM3XG3K24Q", "current_trial": 200, "dateTime": 1513009343055, "trialdata": {"rt": -1, "stimulus": "<p id=\"stim\">+</p>", "key_press": -1, "type": "FIXATION", "trial_type": "single-stim", "trial_index": 200, "time_elapsed": 996912, "internal_node_id": "0.0-137.0-0.0"}}, {"uniqueid": "MTK1029:3KXIR214I5NSB26R7MQKRM3XG3K24Q", "current_trial": 201, "dateTime": 1513009344657, "trialdata": {"rt": -1, "stimulus": "<p id=\"stim\">INMATE</p>", "key_press": -1, "type": "PRES_VIS", "word": "inmate", "wordID": 737, "conditions": [12, 1600, "v", 24000], "trial": 6, "serialpos": 0, "trial_type": "single-stim", "trial_index": 201, "time_elapsed": 998514, "internal_node_id": "0.0-138.0"}}, {"uniqueid": "MTK1029:3KXIR214I5NSB26R7MQKRM3XG3K24Q", "current_trial": 202, "dateTime": 1513009347408, "trialdata": {"rt": -1, "stimulus": "<p id=\"stim\">GARDEN</p>", "key_press": -1, "type": "PRES_VIS", "word": "garden", "wordID": 622, "conditions": [12, 1600, "v", 24000], "trial": 6, "serialpos": 1, "trial_type": "single-stim", "trial_index": 202, "time_elapsed": 1001265, "internal_node_id": "0.0-139.0"}}, {"uniqueid": "MTK1029:3KXIR214I5NSB26R7MQKRM3XG3K24Q", "current_trial": 203, "dateTime": 1513009350049, "trialdata": {"rt": -1, "stimulus": "<p id=\"stim\">ORCHID</p>", "key_press": -1, "type": "PRES_VIS", "word": "orchid", "wordID": 981, "conditions": [12, 1600, "v", 24000], "trial": 6, "serialpos": 2, "trial_type": "single-stim", "trial_index": 203, "time_elapsed": 1003906, "internal_node_id": "0.0-140.0"}}, {"uniqueid": "MTK1029:3KXIR214I5NSB26R7MQKRM3XG3K24Q", "current_trial": 204, "dateTime": 1513009352504, "trialdata": {"rt": -1, "stimulus": "<p id=\"stim\">DRESSER</p>", "key_press": -1, "type": "PRES_VIS", "word": "dresser", "wordID": 495, "conditions": [12, 1600, "v", 24000], "trial": 6, "serialpos": 3, "trial_type": "single-stim", "trial_index": 204, "time_elapsed": 1006361, "internal_node_id": "0.0-141.0"}}, {"uniqueid": "MTK1029:3KXIR214I5NSB26R7MQKRM3XG3K24Q", "current_trial": 205, "dateTime": 1513009355209, "trialdata": {"rt": -1, "stimulus": "<p id=\"stim\">VALLEY</p>", "key_press": -1, "type": "PRES_VIS", "word": "valley", "wordID": 1544, "conditions": [12, 1600, "v", 24000], "trial": 6, "serialpos": 4, "trial_type": "single-stim", "trial_index": 205, "time_elapsed": 1009066, "internal_node_id": "0.0-142.0"}}, {"uniqueid": "MTK1029:3KXIR214I5NSB26R7MQKRM3XG3K24Q", "current_trial": 206, "dateTime": 1513009357768, "trialdata": {"rt": -1, "stimulus": "<p id=\"stim\">TART</p>", "key_press": -1, "type": "PRES_VIS", "word": "tart", "wordID": 1435, "conditions": [12, 1600, "v", 24000], "trial": 6, "serialpos": 5, "trial_type": "single-stim", "trial_index": 206, "time_elapsed": 1011625, "internal_node_id": "0.0-143.0"}}, {"uniqueid": "MTK1029:3KXIR214I5NSB26R7MQKRM3XG3K24Q", "current_trial": 207, "dateTime": 1513009360182, "trialdata": {"rt": -1, "stimulus": "<p id=\"stim\">GAZELLE</p>", "key_press": -1, "type": "PRES_VIS", "word": "gazelle", "wordID": 627, "conditions": [12, 1600, "v", 24000], "trial": 6, "serialpos": 6, "trial_type": "single-stim", "trial_index": 207, "time_elapsed": 1014039, "internal_node_id": "0.0-144.0"}}, {"uniqueid": "MTK1029:3KXIR214I5NSB26R7MQKRM3XG3K24Q", "current_trial": 208, "dateTime": 1513009362846, "trialdata": {"rt": -1, "stimulus": "<p id=\"stim\">SIBLING</p>", "key_press": -1, "type": "PRES_VIS", "word": "sibling", "wordID": 1300, "conditions": [12, 1600, "v", 24000], "trial": 6, "serialpos": 7, "trial_type": "single-stim", "trial_index": 208, "time_elapsed": 1016703, "internal_node_id": "0.0-145.0"}}, {"uniqueid": "MTK1029:3KXIR214I5NSB26R7MQKRM3XG3K24Q", "current_trial": 209, "dateTime": 1513009365557, "trialdata": {"rt": -1, "stimulus": "<p id=\"stim\">RABBIT</p>", "key_press": -1, "type": "PRES_VIS", "word": "rabbit", "wordID": 1151, "conditions": [12, 1600, "v", 24000], "trial": 6, "serialpos": 8, "trial_type": "single-stim", "trial_index": 209, "time_elapsed": 1019414, "internal_node_id": "0.0-146.0"}}, {"uniqueid": "MTK1029:3KXIR214I5NSB26R7MQKRM3XG3K24Q", "current_trial": 210, "dateTime": 1513009368308, "trialdata": {"rt": -1, "stimulus": "<p id=\"stim\">PEACH</p>", "key_press": -1, "type": "PRES_VIS", "word": "peach", "wordID": 1030, "conditions": [12, 1600, "v", 24000], "trial": 6, "serialpos": 9, "trial_type": "single-stim", "trial_index": 210, "time_elapsed": 1022165, "internal_node_id": "0.0-147.0"}}, {"uniqueid": "MTK1029:3KXIR214I5NSB26R7MQKRM3XG3K24Q", "current_trial": 211, "dateTime": 1513009370775, "trialdata": {"rt": -1, "stimulus": "<p id=\"stim\">SCOTCH</p>", "key_press": -1, "type": "PRES_VIS", "word": "scotch", "wordID": 1250, "conditions": [12, 1600, "v", 24000], "trial": 6, "serialpos": 10, "trial_type": "single-stim", "trial_index": 211, "time_elapsed": 1024631, "internal_node_id": "0.0-148.0"}}, {"uniqueid": "MTK1029:3KXIR214I5NSB26R7MQKRM3XG3K24Q", "current_trial": 212, "dateTime": 1513009373444, "trialdata": {"rt": -1, "stimulus": "<p id=\"stim\">SPIDER</p>", "key_press": -1, "type": "PRES_VIS", "word": "spider", "wordID": 1350, "conditions": [12, 1600, "v", 24000], "trial": 6, "serialpos": 11, "trial_type": "single-stim", "trial_index": 212, "time_elapsed": 1027301, "internal_node_id": "0.0-149.0"}}, {"uniqueid": "MTK1029:3KXIR214I5NSB26R7MQKRM3XG3K24Q", "current_trial": 213, "dateTime": 1513009375731, "trialdata": {"rt": -1, "stimulus": "", "key_press": -1, "type": "PRE_RECALL_DELAY", "trial_type": "single-stim", "trial_index": 213, "time_elapsed": 1029588, "internal_node_id": "0.0-150.0-0.0"}}, {"uniqueid": "MTK1029:3KXIR214I5NSB26R7MQKRM3XG3K24Q", "current_trial": 214, "dateTime": 1513009376232, "trialdata": {"rt": -1000, "stimulus": "/static/audio/400Hz.wav", "key_press": -1, "type": "PRE_RECALL_ALERT", "trial_type": "single-audio", "trial_index": 214, "time_elapsed": 1030089, "internal_node_id": "0.0-151.0"}}, {"uniqueid": "MTK1029:3KXIR214I5NSB26R7MQKRM3XG3K24Q", "current_trial": 215, "dateTime": 1513009436238, "trialdata": {"rt": [4085, 6892, 8844, 11316, 12772, 14924, 16484, 18404, 22500, 23972, 30255, 37281], "recwords": ["sibling", "speech", "garden", "orchid", "inmate", "dresser", "valley", "tart", "gazelle", "sibling", "peach", "spider"], "type": "FREE_RECALL", "conditions": [12, 1600, "v", 24000], "trial": 6, "trial_type": "free-recall", "trial_index": 215, "time_elapsed": 1090093, "internal_node_id": "0.0-152.0-0.0"}}, {"uniqueid": "MTK1029:3KXIR214I5NSB26R7MQKRM3XG3K24Q", "current_trial": 216, "dateTime": 1513009443098, "trialdata": {"rt": 4855, "key_press": 32, "type": "INSTRUCTIONS", "trial_type": "text", "trial_index": 216, "time_elapsed": 1096955, "internal_node_id": "0.0-153.0"}}, {"uniqueid": "MTK1029:3KXIR214I5NSB26R7MQKRM3XG3K24Q", "current_trial": 217, "dateTime": 1513009457107, "trialdata": {"rt": [1886, 3807, 5591, 7767, 10574], "responses": ["14", "8", "17", "10", "19"], "num1": [1, 4, 2, 2, 7, 5], "num2": [5, 3, 9, 1, 6, 4], "num3": [8, 1, 7, 7, 6, 7], "type": "DISTRACTOR", "conditions": [12, 1600, "a", 12000], "trial": 7, "trial_type": "math-distractor", "trial_index": 217, "time_elapsed": 1110964, "internal_node_id": "0.0-154.0"}}, {"uniqueid": "MTK1029:3KXIR214I5NSB26R7MQKRM3XG3K24Q", "current_trial": 218, "dateTime": 1513009460113, "trialdata": {"rt": -1, "stimulus": "<p id=\"stim\">10</p>", "key_press": -1, "trial_type": "single-stim", "trial_index": 218, "time_elapsed": 1113970, "internal_node_id": "0.0-155.0-0.0"}}, {"uniqueid": "MTK1029:3KXIR214I5NSB26R7MQKRM3XG3K24Q", "current_trial": 219, "dateTime": 1513009461117, "trialdata": {"rt": -1, "stimulus": "<p id=\"stim\">9</p>", "key_press": -1, "trial_type": "single-stim", "trial_index": 219, "time_elapsed": 1114974, "internal_node_id": "0.0-155.0-1.0"}}, {"uniqueid": "MTK1029:3KXIR214I5NSB26R7MQKRM3XG3K24Q", "current_trial": 220, "dateTime": 1513009462118, "trialdata": {"rt": -1, "stimulus": "<p id=\"stim\">8</p>", "key_press": -1, "trial_type": "single-stim", "trial_index": 220, "time_elapsed": 1115975, "internal_node_id": "0.0-155.0-2.0"}}, {"uniqueid": "MTK1029:3KXIR214I5NSB26R7MQKRM3XG3K24Q", "current_trial": 221, "dateTime": 1513009463119, "trialdata": {"rt": -1, "stimulus": "<p id=\"stim\">7</p>", "key_press": -1, "trial_type": "single-stim", "trial_index": 221, "time_elapsed": 1116976, "internal_node_id": "0.0-155.0-3.0"}}, {"uniqueid": "MTK1029:3KXIR214I5NSB26R7MQKRM3XG3K24Q", "current_trial": 222, "dateTime": 1513009464122, "trialdata": {"rt": -1, "stimulus": "<p id=\"stim\">6</p>", "key_press": -1, "trial_type": "single-stim", "trial_index": 222, "time_elapsed": 1117978, "internal_node_id": "0.0-155.0-4.0"}}, {"uniqueid": "MTK1029:3KXIR214I5NSB26R7MQKRM3XG3K24Q", "current_trial": 223, "dateTime": 1513009465127, "trialdata": {"rt": -1, "stimulus": "<p id=\"stim\">5</p>", "key_press": -1, "trial_type": "single-stim", "trial_index": 223, "time_elapsed": 1118984, "internal_node_id": "0.0-155.0-5.0"}}, {"uniqueid": "MTK1029:3KXIR214I5NSB26R7MQKRM3XG3K24Q", "current_trial": 224, "dateTime": 1513009466131, "trialdata": {"rt": -1, "stimulus": "<p id=\"stim\">4</p>", "key_press": -1, "trial_type": "single-stim", "trial_index": 224, "time_elapsed": 1119988, "internal_node_id": "0.0-155.0-6.0"}}, {"uniqueid": "MTK1029:3KXIR214I5NSB26R7MQKRM3XG3K24Q", "current_trial": 225, "dateTime": 1513009467137, "trialdata": {"rt": -1, "stimulus": "<p id=\"stim\">3</p>", "key_press": -1, "trial_type": "single-stim", "trial_index": 225, "time_elapsed": 1120992, "internal_node_id": "0.0-155.0-7.0"}}, {"uniqueid": "MTK1029:3KXIR214I5NSB26R7MQKRM3XG3K24Q", "current_trial": 226, "dateTime": 1513009468139, "trialdata": {"rt": -1, "stimulus": "<p id=\"stim\">2</p>", "key_press": -1, "trial_type": "single-stim", "trial_index": 226, "time_elapsed": 1121996, "internal_node_id": "0.0-155.0-8.0"}}, {"uniqueid": "MTK1029:3KXIR214I5NSB26R7MQKRM3XG3K24Q", "current_trial": 227, "dateTime": 1513009469144, "trialdata": {"rt": -1, "stimulus": "<p id=\"stim\">1</p>", "key_press": -1, "trial_type": "single-stim", "trial_index": 227, "time_elapsed": 1123000, "internal_node_id": "0.0-155.0-9.0"}}, {"uniqueid": "MTK1029:3KXIR214I5NSB26R7MQKRM3XG3K24Q", "current_trial": 228, "dateTime": 1513009470647, "trialdata": {"rt": -1, "stimulus": "<p id=\"stim\">+</p>", "key_press": -1, "type": "FIXATION", "trial_type": "single-stim", "trial_index": 228, "time_elapsed": 1124504, "internal_node_id": "0.0-156.0-0.0"}}, {"uniqueid": "MTK1029:3KXIR214I5NSB26R7MQKRM3XG3K24Q", "current_trial": 229, "dateTime": 1513009473094, "trialdata": {"rt": -1000, "stimulus": "/static/audio/wordpool/RIFLE.wav", "key_press": -1, "type": "PRES_AUD", "word": "rifle", "wordID": 1191, "conditions": [12, 1600, "a", 12000], "trial": 7, "serialpos": 0, "trial_type": "single-audio", "trial_index": 229, "time_elapsed": 1126951, "internal_node_id": "0.0-157.0"}}, {"uniqueid": "MTK1029:3KXIR214I5NSB26R7MQKRM3XG3K24Q", "current_trial": 230, "dateTime": 1513009475862, "trialdata": {"rt": -1000, "stimulus": "/static/audio/wordpool/SNACK.wav", "key_press": -1, "type": "PRES_AUD", "word": "snack", "wordID": 1330, "conditions": [12, 1600, "a", 12000], "trial": 7, "serialpos": 1, "trial_type": "single-audio", "trial_index": 230, "time_elapsed": 1129719, "internal_node_id": "0.0-158.0"}}, {"uniqueid": "MTK1029:3KXIR214I5NSB26R7MQKRM3XG3K24Q", "current_trial": 231, "dateTime": 1513009478300, "trialdata": {"rt": -1000, "stimulus": "/static/audio/wordpool/ROBIN.wav", "key_press": -1, "type": "PRES_AUD", "word": "robin", "wordID": 1198, "conditions": [12, 1600, "a", 12000], "trial": 7, "serialpos": 2, "trial_type": "single-audio", "trial_index": 231, "time_elapsed": 1132157, "internal_node_id": "0.0-159.0"}}, {"uniqueid": "MTK1029:3KXIR214I5NSB26R7MQKRM3XG3K24Q", "current_trial": 232, "dateTime": 1513009481028, "trialdata": {"rt": -1000, "stimulus": "/static/audio/wordpool/PENGUIN.wav", "key_press": -1, "type": "PRES_AUD", "word": "penguin", "wordID": 1043, "conditions": [12, 1600, "a", 12000], "trial": 7, "serialpos": 3, "trial_type": "single-audio", "trial_index": 232, "time_elapsed": 1134885, "internal_node_id": "0.0-160.0"}}, {"uniqueid": "MTK1029:3KXIR214I5NSB26R7MQKRM3XG3K24Q", "current_trial": 233, "dateTime": 1513009483461, "trialdata": {"rt": -1000, "stimulus": "/static/audio/wordpool/BEAKER.wav", "key_press": -1, "type": "PRES_AUD", "word": "beaker", "wordID": 103, "conditions": [12, 1600, "a", 12000], "trial": 7, "serialpos": 4, "trial_type": "single-audio", "trial_index": 233, "time_elapsed": 1137318, "internal_node_id": "0.0-161.0"}}, {"uniqueid": "MTK1029:3KXIR214I5NSB26R7MQKRM3XG3K24Q", "current_trial": 234, "dateTime": 1513009486143, "trialdata": {"rt": -1000, "stimulus": "/static/audio/wordpool/COUNTY.wav", "key_press": -1, "type": "PRES_AUD", "word": "county", "wordID": 388, "conditions": [12, 1600, "a", 12000], "trial": 7, "serialpos": 5, "trial_type": "single-audio", "trial_index": 234, "time_elapsed": 1140000, "internal_node_id": "0.0-162.0"}}, {"uniqueid": "MTK1029:3KXIR214I5NSB26R7MQKRM3XG3K24Q", "current_trial": 235, "dateTime": 1513009488727, "trialdata": {"rt": -1000, "stimulus": "/static/audio/wordpool/CANDY.wav", "key_press": -1, "type": "PRES_AUD", "word": "candy", "wordID": 229, "conditions": [12, 1600, "a", 12000], "trial": 7, "serialpos": 6, "trial_type": "single-audio", "trial_index": 235, "time_elapsed": 1142583, "internal_node_id": "0.0-163.0"}}, {"uniqueid": "MTK1029:3KXIR214I5NSB26R7MQKRM3XG3K24Q", "current_trial": 236, "dateTime": 1513009491323, "trialdata": {"rt": -1000, "stimulus": "/static/audio/wordpool/HOOD.wav", "key_press": -1, "type": "PRES_AUD", "word": "hood", "wordID": 713, "conditions": [12, 1600, "a", 12000], "trial": 7, "serialpos": 7, "trial_type": "single-audio", "trial_index": 236, "time_elapsed": 1145179, "internal_node_id": "0.0-164.0"}}, {"uniqueid": "MTK1029:3KXIR214I5NSB26R7MQKRM3XG3K24Q", "current_trial": 237, "dateTime": 1513009494118, "trialdata": {"rt": -1000, "stimulus": "/static/audio/wordpool/STAR.wav", "key_press": -1, "type": "PRES_AUD", "word": "star", "wordID": 1372, "conditions": [12, 1600, "a", 12000], "trial": 7, "serialpos": 8, "trial_type": "single-audio", "trial_index": 237, "time_elapsed": 1147975, "internal_node_id": "0.0-165.0"}}, {"uniqueid": "MTK1029:3KXIR214I5NSB26R7MQKRM3XG3K24Q", "current_trial": 238, "dateTime": 1513009496797, "trialdata": {"rt": -1000, "stimulus": "/static/audio/wordpool/DIVER.wav", "key_press": -1, "type": "PRES_AUD", "word": "diver", "wordID": 475, "conditions": [12, 1600, "a", 12000], "trial": 7, "serialpos": 9, "trial_type": "single-audio", "trial_index": 238, "time_elapsed": 1150654, "internal_node_id": "0.0-166.0"}}, {"uniqueid": "MTK1029:3KXIR214I5NSB26R7MQKRM3XG3K24Q", "current_trial": 239, "dateTime": 1513009499293, "trialdata": {"rt": -1000, "stimulus": "/static/audio/wordpool/SCISSORS.wav", "key_press": -1, "type": "PRES_AUD", "word": "scissors", "wordID": 1249, "conditions": [12, 1600, "a", 12000], "trial": 7, "serialpos": 10, "trial_type": "single-audio", "trial_index": 239, "time_elapsed": 1153150, "internal_node_id": "0.0-167.0"}}, {"uniqueid": "MTK1029:3KXIR214I5NSB26R7MQKRM3XG3K24Q", "current_trial": 240, "dateTime": 1513009501881, "trialdata": {"rt": -1000, "stimulus": "/static/audio/wordpool/RAZOR.wav", "key_press": -1, "type": "PRES_AUD", "word": "razor", "wordID": 1170, "conditions": [12, 1600, "a", 12000], "trial": 7, "serialpos": 11, "trial_type": "single-audio", "trial_index": 240, "time_elapsed": 1155738, "internal_node_id": "0.0-168.0"}}, {"uniqueid": "MTK1029:3KXIR214I5NSB26R7MQKRM3XG3K24Q", "current_trial": 241, "dateTime": 1513009503244, "trialdata": {"rt": -1, "stimulus": "", "key_press": -1, "type": "PRE_RECALL_DELAY", "trial_type": "single-stim", "trial_index": 241, "time_elapsed": 1157101, "internal_node_id": "0.0-169.0-0.0"}}, {"uniqueid": "MTK1029:3KXIR214I5NSB26R7MQKRM3XG3K24Q", "current_trial": 242, "dateTime": 1513009503745, "trialdata": {"rt": -1000, "stimulus": "/static/audio/400Hz.wav", "key_press": -1, "type": "PRE_RECALL_ALERT", "trial_type": "single-audio", "trial_index": 242, "time_elapsed": 1157602, "internal_node_id": "0.0-170.0"}}, {"uniqueid": "MTK1029:3KXIR214I5NSB26R7MQKRM3XG3K24Q", "current_trial": 243, "dateTime": 1513009563753, "trialdata": {"rt": [6832, 8864, 12384, 15808, 18552, 20632, 23792, 25432, 30656, 31544, 32999, 35719], "recwords": ["razor", "scissors", "rifle", "snack", "robin", "penguin", "beaker", "county", "candy", "hood", "star", "diver"], "type": "FREE_RECALL", "conditions": [12, 1600, "a", 12000], "trial": 7, "trial_type": "free-recall", "trial_index": 243, "time_elapsed": 1217606, "internal_node_id": "0.0-171.0-0.0"}}, {"uniqueid": "MTK1029:3KXIR214I5NSB26R7MQKRM3XG3K24Q", "current_trial": 244, "dateTime": 1513009569881, "trialdata": {"rt": 4123, "key_press": 32, "type": "INSTRUCTIONS", "trial_type": "text", "trial_index": 244, "time_elapsed": 1223737, "internal_node_id": "0.0-172.0"}}, {"uniqueid": "MTK1029:3KXIR214I5NSB26R7MQKRM3XG3K24Q", "current_trial": 245, "dateTime": 1513009595888, "trialdata": {"rt": [1991, 4303, 6079, 9143, 10903, 12574, 14383, 16702, 18719, 21454, 22750], "responses": ["19", "12", "20", "25", "13", "12", "9", "11", "11", "17", "11"], "num1": [4, 9, 9, 8, 8, 1, 3, 3, 2, 5, 1, 3], "num2": [6, 2, 9, 7, 3, 9, 1, 2, 3, 6, 4, 3], "num3": [9, 1, 2, 8, 2, 2, 5, 6, 6, 6, 6, 1], "type": "DISTRACTOR", "conditions": [24, 800, "a", 24000], "trial": 8, "trial_type": "math-distractor", "trial_index": 245, "time_elapsed": 1249744, "internal_node_id": "0.0-173.0"}}, {"uniqueid": "MTK1029:3KXIR214I5NSB26R7MQKRM3XG3K24Q", "current_trial": 246, "dateTime": 1513009598897, "trialdata": {"rt": -1, "stimulus": "<p id=\"stim\">10</p>", "key_press": -1, "trial_type": "single-stim", "trial_index": 246, "time_elapsed": 1252754, "internal_node_id": "0.0-174.0-0.0"}}, {"uniqueid": "MTK1029:3KXIR214I5NSB26R7MQKRM3XG3K24Q", "current_trial": 247, "dateTime": 1513009599901, "trialdata": {"rt": -1, "stimulus": "<p id=\"stim\">9</p>", "key_press": -1, "trial_type": "single-stim", "trial_index": 247, "time_elapsed": 1253758, "internal_node_id": "0.0-174.0-1.0"}}, {"uniqueid": "MTK1029:3KXIR214I5NSB26R7MQKRM3XG3K24Q", "current_trial": 248, "dateTime": 1513009600905, "trialdata": {"rt": -1, "stimulus": "<p id=\"stim\">8</p>", "key_press": -1, "trial_type": "single-stim", "trial_index": 248, "time_elapsed": 1254762, "internal_node_id": "0.0-174.0-2.0"}}, {"uniqueid": "MTK1029:3KXIR214I5NSB26R7MQKRM3XG3K24Q", "current_trial": 249, "dateTime": 1513009601909, "trialdata": {"rt": -1, "stimulus": "<p id=\"stim\">7</p>", "key_press": -1, "trial_type": "single-stim", "trial_index": 249, "time_elapsed": 1255766, "internal_node_id": "0.0-174.0-3.0"}}, {"uniqueid": "MTK1029:3KXIR214I5NSB26R7MQKRM3XG3K24Q", "current_trial": 250, "dateTime": 1513009602913, "trialdata": {"rt": -1, "stimulus": "<p id=\"stim\">6</p>", "key_press": -1, "trial_type": "single-stim", "trial_index": 250, "time_elapsed": 1256770, "internal_node_id": "0.0-174.0-4.0"}}, {"uniqueid": "MTK1029:3KXIR214I5NSB26R7MQKRM3XG3K24Q", "current_trial": 251, "dateTime": 1513009603917, "trialdata": {"rt": -1, "stimulus": "<p id=\"stim\">5</p>", "key_press": -1, "trial_type": "single-stim", "trial_index": 251, "time_elapsed": 1257774, "internal_node_id": "0.0-174.0-5.0"}}, {"uniqueid": "MTK1029:3KXIR214I5NSB26R7MQKRM3XG3K24Q", "current_trial": 252, "dateTime": 1513009604921, "trialdata": {"rt": -1, "stimulus": "<p id=\"stim\">4</p>", "key_press": -1, "trial_type": "single-stim", "trial_index": 252, "time_elapsed": 1258778, "internal_node_id": "0.0-174.0-6.0"}}, {"uniqueid": "MTK1029:3KXIR214I5NSB26R7MQKRM3XG3K24Q", "current_trial": 253, "dateTime": 1513009605925, "trialdata": {"rt": -1, "stimulus": "<p id=\"stim\">3</p>", "key_press": -1, "trial_type": "single-stim", "trial_index": 253, "time_elapsed": 1259782, "internal_node_id": "0.0-174.0-7.0"}}, {"uniqueid": "MTK1029:3KXIR214I5NSB26R7MQKRM3XG3K24Q", "current_trial": 254, "dateTime": 1513009606929, "trialdata": {"rt": -1, "stimulus": "<p id=\"stim\">2</p>", "key_press": -1, "trial_type": "single-stim", "trial_index": 254, "time_elapsed": 1260786, "internal_node_id": "0.0-174.0-8.0"}}, {"uniqueid": "MTK1029:3KXIR214I5NSB26R7MQKRM3XG3K24Q", "current_trial": 255, "dateTime": 1513009607934, "trialdata": {"rt": -1, "stimulus": "<p id=\"stim\">1</p>", "key_press": -1, "trial_type": "single-stim", "trial_index": 255, "time_elapsed": 1261790, "internal_node_id": "0.0-174.0-9.0"}}, {"uniqueid": "MTK1029:3KXIR214I5NSB26R7MQKRM3XG3K24Q", "current_trial": 256, "dateTime": 1513009609437, "trialdata": {"rt": -1, "stimulus": "<p id=\"stim\">+</p>", "key_press": -1, "type": "FIXATION", "trial_type": "single-stim", "trial_index": 256, "time_elapsed": 1263294, "internal_node_id": "0.0-175.0-0.0"}}, {"uniqueid": "MTK1029:3KXIR214I5NSB26R7MQKRM3XG3K24Q", "current_trial": 257, "dateTime": 1513009611330, "trialdata": {"rt": -1000, "stimulus": "/static/audio/wordpool/COOK.wav", "key_press": -1, "type": "PRES_AUD", "word": "cook", "wordID": 371, "conditions": [24, 800, "a", 24000], "trial": 8, "serialpos": 0, "trial_type": "single-audio", "trial_index": 257, "time_elapsed": 1265187, "internal_node_id": "0.0-176.0"}}, {"uniqueid": "MTK1029:3KXIR214I5NSB26R7MQKRM3XG3K24Q", "current_trial": 258, "dateTime": 1513009612950, "trialdata": {"rt": -1000, "stimulus": "/static/audio/wordpool/ISLAND.wav", "key_press": -1, "type": "PRES_AUD", "word": "island", "wordID": 744, "conditions": [24, 800, "a", 24000], "trial": 8, "serialpos": 1, "trial_type": "single-audio", "trial_index": 258, "time_elapsed": 1266806, "internal_node_id": "0.0-177.0"}}, {"uniqueid": "MTK1029:3KXIR214I5NSB26R7MQKRM3XG3K24Q", "current_trial": 259, "dateTime": 1513009614772, "trialdata": {"rt": -1000, "stimulus": "/static/audio/wordpool/BUNNY.wav", "key_press": -1, "type": "PRES_AUD", "word": "bunny", "wordID": 197, "conditions": [24, 800, "a", 24000], "trial": 8, "serialpos": 2, "trial_type": "single-audio", "trial_index": 259, "time_elapsed": 1268629, "internal_node_id": "0.0-178.0"}}, {"uniqueid": "MTK1029:3KXIR214I5NSB26R7MQKRM3XG3K24Q", "current_trial": 260, "dateTime": 1513009616717, "trialdata": {"rt": -1000, "stimulus": "/static/audio/wordpool/WORLD.wav", "key_press": -1, "type": "PRES_AUD", "word": "world", "wordID": 1621, "conditions": [24, 800, "a", 24000], "trial": 8, "serialpos": 3, "trial_type": "single-audio", "trial_index": 260, "time_elapsed": 1270574, "internal_node_id": "0.0-179.0"}}, {"uniqueid": "MTK1029:3KXIR214I5NSB26R7MQKRM3XG3K24Q", "current_trial": 261, "dateTime": 1513009618690, "trialdata": {"rt": -1000, "stimulus": "/static/audio/wordpool/KITCHEN.wav", "key_press": -1, "type": "PRES_AUD", "word": "kitchen", "wordID": 777, "conditions": [24, 800, "a", 24000], "trial": 8, "serialpos": 4, "trial_type": "single-audio", "trial_index": 261, "time_elapsed": 1272547, "internal_node_id": "0.0-180.0"}}, {"uniqueid": "MTK1029:3KXIR214I5NSB26R7MQKRM3XG3K24Q", "current_trial": 262, "dateTime": 1513009620421, "trialdata": {"rt": -1000, "stimulus": "/static/audio/wordpool/SEAGULL.wav", "key_press": -1, "type": "PRES_AUD", "word": "seagull", "wordID": 1260, "conditions": [24, 800, "a", 24000], "trial": 8, "serialpos": 5, "trial_type": "single-audio", "trial_index": 262, "time_elapsed": 1274277, "internal_node_id": "0.0-181.0"}}, {"uniqueid": "MTK1029:3KXIR214I5NSB26R7MQKRM3XG3K24Q", "current_trial": 263, "dateTime": 1513009622327, "trialdata": {"rt": -1000, "stimulus": "/static/audio/wordpool/SNAKE.wav", "key_press": -1, "type": "PRES_AUD", "word": "snake", "wordID": 1332, "conditions": [24, 800, "a", 24000], "trial": 8, "serialpos": 6, "trial_type": "single-audio", "trial_index": 263, "time_elapsed": 1276184, "internal_node_id": "0.0-182.0"}}, {"uniqueid": "MTK1029:3KXIR214I5NSB26R7MQKRM3XG3K24Q", "current_trial": 264, "dateTime": 1513009624002, "trialdata": {"rt": -1000, "stimulus": "/static/audio/wordpool/TRUCK.wav", "key_press": -1, "type": "PRES_AUD", "word": "truck", "wordID": 1511, "conditions": [24, 800, "a", 24000], "trial": 8, "serialpos": 7, "trial_type": "single-audio", "trial_index": 264, "time_elapsed": 1277859, "internal_node_id": "0.0-183.0"}}, {"uniqueid": "MTK1029:3KXIR214I5NSB26R7MQKRM3XG3K24Q", "current_trial": 265, "dateTime": 1513009625616, "trialdata": {"rt": -1000, "stimulus": "/static/audio/wordpool/JELLY.wav", "key_press": -1, "type": "PRES_AUD", "word": "jelly", "wordID": 754, "conditions": [24, 800, "a", 24000], "trial": 8, "serialpos": 8, "trial_type": "single-audio", "trial_index": 265, "time_elapsed": 1279472, "internal_node_id": "0.0-184.0"}}, {"uniqueid": "MTK1029:3KXIR214I5NSB26R7MQKRM3XG3K24Q", "current_trial": 266, "dateTime": 1513009627270, "trialdata": {"rt": -1000, "stimulus": "/static/audio/wordpool/JELLO.wav", "key_press": -1, "type": "PRES_AUD", "word": "jello", "wordID": 753, "conditions": [24, 800, "a", 24000], "trial": 8, "serialpos": 9, "trial_type": "single-audio", "trial_index": 266, "time_elapsed": 1281127, "internal_node_id": "0.0-185.0"}}, {"uniqueid": "MTK1029:3KXIR214I5NSB26R7MQKRM3XG3K24Q", "current_trial": 267, "dateTime": 1513009628982, "trialdata": {"rt": -1000, "stimulus": "/static/audio/wordpool/CABIN.wav", "key_press": -1, "type": "PRES_AUD", "word": "cabin", "wordID": 210, "conditions": [24, 800, "a", 24000], "trial": 8, "serialpos": 10, "trial_type": "single-audio", "trial_index": 267, "time_elapsed": 1282839, "internal_node_id": "0.0-186.0"}}, {"uniqueid": "MTK1029:3KXIR214I5NSB26R7MQKRM3XG3K24Q", "current_trial": 268, "dateTime": 1513009630823, "trialdata": {"rt": -1000, "stimulus": "/static/audio/wordpool/PEANUT.wav", "key_press": -1, "type": "PRES_AUD", "word": "peanut", "wordID": 1031, "conditions": [24, 800, "a", 24000], "trial": 8, "serialpos": 11, "trial_type": "single-audio", "trial_index": 268, "time_elapsed": 1284680, "internal_node_id": "0.0-187.0"}}, {"uniqueid": "MTK1029:3KXIR214I5NSB26R7MQKRM3XG3K24Q", "current_trial": 269, "dateTime": 1513009632720, "trialdata": {"rt": -1000, "stimulus": "/static/audio/wordpool/SUITCASE.wav", "key_press": -1, "type": "PRES_AUD", "word": "suitcase", "wordID": 1402, "conditions": [24, 800, "a", 24000], "trial": 8, "serialpos": 12, "trial_type": "single-audio", "trial_index": 269, "time_elapsed": 1286577, "internal_node_id": "0.0-188.0"}}, {"uniqueid": "MTK1029:3KXIR214I5NSB26R7MQKRM3XG3K24Q", "current_trial": 270, "dateTime": 1513009634353, "trialdata": {"rt": -1000, "stimulus": "/static/audio/wordpool/FOX.wav", "key_press": -1, "type": "PRES_AUD", "word": "fox", "wordID": 597, "conditions": [24, 800, "a", 24000], "trial": 8, "serialpos": 13, "trial_type": "single-audio", "trial_index": 270, "time_elapsed": 1288209, "internal_node_id": "0.0-189.0"}}, {"uniqueid": "MTK1029:3KXIR214I5NSB26R7MQKRM3XG3K24Q", "current_trial": 271, "dateTime": 1513009636071, "trialdata": {"rt": -1000, "stimulus": "/static/audio/wordpool/CABBAGE.wav", "key_press": -1, "type": "PRES_AUD", "word": "cabbage", "wordID": 209, "conditions": [24, 800, "a", 24000], "trial": 8, "serialpos": 14, "trial_type": "single-audio", "trial_index": 271, "time_elapsed": 1289927, "internal_node_id": "0.0-190.0"}}, {"uniqueid": "MTK1029:3KXIR214I5NSB26R7MQKRM3XG3K24Q", "current_trial": 272, "dateTime": 1513009637782, "trialdata": {"rt": -1000, "stimulus": "/static/audio/wordpool/TURKEY.wav", "key_press": -1, "type": "PRES_AUD", "word": "turkey", "wordID": 1519, "conditions": [24, 800, "a", 24000], "trial": 8, "serialpos": 15, "trial_type": "single-audio", "trial_index": 272, "time_elapsed": 1291639, "internal_node_id": "0.0-191.0"}}, {"uniqueid": "MTK1029:3KXIR214I5NSB26R7MQKRM3XG3K24Q", "current_trial": 273, "dateTime": 1513009639594, "trialdata": {"rt": -1000, "stimulus": "/static/audio/wordpool/BACON.wav", "key_press": -1, "type": "PRES_AUD", "word": "bacon", "wordID": 66, "conditions": [24, 800, "a", 24000], "trial": 8, "ser