{"assignmentId": "3YOH7BII0AEMMVTWGOXB08P4CZXKVQ", "workerId": "MTK1351", "questiondata": {"origin": "United States", "strat-rehearsal": "75", "marital": "Single", "education": "Some college", "ethnicity": "Not Hispanic", "color_depth": 24, "distracted": "No", "wrote-notes": "No", "strat-other": "I closed my eyes and kept repeating the words over but as they continued to come the words I was repeating got lost.", "screen_width": 1920, "avail_screen_width": 1920, "avail_screen_height": 1080, "strat-image": "16", "language": "English", "gender": "Male", "age": "57", "gender_other": "", "race": ["White"], "strat-categorize": "34", "pixel_depth": 24, "strat-spatial": "0", "strat-story": "3", "race_other": "", "screen_height": 1080}, "bonus": 0, "hitId": "3ZLW647WAL256MPTH6GZSXF7NKH236", "counterbalance": 2912, "useragent": "Mozilla/5.0 (X11; CrOS x86_64 10032.86.0) AppleWebKit/537.36 (KHTML, like Gecko) Chrome/63.0.3239.140 Safari/537.36", "eventdata": [{"eventtype": "initialized", "interval": 0, "value": null, "timestamp": 1515790919233}, {"eventtype": "window_resize", "interval": 1, "value": [1536, 813], "timestamp": 1515790919234}, {"eventtype": "focus", "interval": 11845, "value": "off", "timestamp": 1515790931079}, {"eventtype": "focus", "interval": 18468, "value": "on", "timestamp": 1515790949547}, {"eventtype": "focus", "interval": 268773, "value": "off", "timestamp": 1515791218320}, {"eventtype": "focus", "interval": 24788, "value": "on", "timestamp": 1515791243108}, {"eventtype": "focus", "interval": 14603, "value": "off", "timestamp": 1515791257711}, {"eventtype": "focus", "interval": 39406, "value": "on", "timestamp": 1515791297117}, {"eventtype": "focus", "interval": 3200014, "value": "off", "timestamp": 1515794497131}, {"eventtype": "focus", "interval": 16782, "value": "on", "timestamp": 1515794513913}], "data": [{"current_trial": 0, "trialdata": {"rt": 19712, "trial_type": "text", "internal_node_id": "0.0-0.0", "time_elapsed": 19715, "key_press": 74, "type": "INSTRUCTIONS", "trial_index": 0}, "uniqueid": "MTK1351:3YOH7BII0AEMMVTWGOXB08P4CZXKVQ", "dateTime": 1515790955690}, {"current_trial": 1, "trialdata": {"rt": 32919, "trial_type": "text", "internal_node_id": "0.0-1.0", "time_elapsed": 52641, "key_press": 75, "type": "INSTRUCTIONS", "trial_index": 1}, "uniqueid": "MTK1351:3YOH7BII0AEMMVTWGOXB08P4CZXKVQ", "dateTime": 1515790988614}, {"current_trial": 2, "trialdata": {"rt": [12982], "trial_type": "audio-test", "responses": ["ocean"], "internal_node_id": "0.0-2.0", "time_elapsed": 65651, "type": "AUDIO_TEST", "trial_index": 2}, "uniqueid": "MTK1351:3YOH7BII0AEMMVTWGOXB08P4CZXKVQ", "dateTime": 1515791001624}, {"current_trial": 3, "trialdata": {"rt": [9298], "trial_type": "audio-test", "responses": ["crystal"], "internal_node_id": "0.0-3.0", "time_elapsed": 74958, "type": "AUDIO_TEST", "trial_index": 3}, "uniqueid": "MTK1351:3YOH7BII0AEMMVTWGOXB08P4CZXKVQ", "dateTime": 1515791010931}, {"current_trial": 4, "trialdata": {"rt": [6521], "trial_type": "audio-test", "responses": ["spice"], "internal_node_id": "0.0-4.0", "time_elapsed": 81487, "type": "AUDIO_TEST", "trial_index": 4}, "uniqueid": "MTK1351:3YOH7BII0AEMMVTWGOXB08P4CZXKVQ", "dateTime": 1515791017460}, {"current_trial": 5, "trialdata": {"rt": 42573, "trial_type": "survey-text", "responses": "{\"Q0\":\"1:20am\",\"Q1\":\"7:00am\",\"Q2\":\"5\"}", "internal_node_id": "0.0-5.0", "time_elapsed": 124815, "type": "SLEEP_SURVEY", "trial_index": 5}, "uniqueid": "MTK1351:3YOH7BII0AEMMVTWGOXB08P4CZXKVQ", "dateTime": 1515791060788}, {"current_trial": 6, "trialdata": {"rt": 81618, "trial_type": "text", "internal_node_id": "0.0-6.0", "time_elapsed": 207434, "key_press": 75, "type": "INSTRUCTIONS", "trial_index": 6}, "uniqueid": "MTK1351:3YOH7BII0AEMMVTWGOXB08P4CZXKVQ", "dateTime": 1515791143408}, {"current_trial": 7, "trialdata": {"rt": 63004, "trial_type": "text", "internal_node_id": "0.0-7.0", "time_elapsed": 270940, "key_press": 75, "type": "INSTRUCTIONS", "trial_index": 7}, "uniqueid": "MTK1351:3YOH7BII0AEMMVTWGOXB08P4CZXKVQ", "dateTime": 1515791206913}, {"current_trial": 8, "trialdata": {"rt": 97248, "trial_type": "text", "internal_node_id": "0.0-8.0", "time_elapsed": 368690, "key_press": 75, "type": "INSTRUCTIONS", "trial_index": 8}, "uniqueid": "MTK1351:3YOH7BII0AEMMVTWGOXB08P4CZXKVQ", "dateTime": 1515791304664}, {"current_trial": 9, "trialdata": {"rt": [5504, 8689, 13838, 15876], "trial_type": "math-distractor", "key_times": [2913, 2997, 5504, 8357, 8441, 8689, 12771, 12870, 13283, 13564, 13838, 15658, 15736, 15876, 17585, 17797], "responses": ["20", "17", "20", "12"], "num2": [8, 8, 8, 9, 8], "num3": [9, 2, 7, 1, 4], "conditions": [18, 1200, "a", 18000], "internal_node_id": "0.0-9.0", "key_presses": [50, 48, 13, 49, 55, 13, 50, 57, 8, 48, 13, 49, 50, 13, 49, 52], "trial": 0, "time_elapsed": 387713, "type": "DISTRACTOR", "trial_index": 9, "num1": [3, 7, 5, 2, 2]}, "uniqueid": "MTK1351:3YOH7BII0AEMMVTWGOXB08P4CZXKVQ", "dateTime": 1515791323687}, {"current_trial": 10, "trialdata": {"rt": -1, "trial_type": "single-stim", "stimulus": "<p id=\"stim\">10</p>", "internal_node_id": "0.0-10.0-0.0", "time_elapsed": 390717, "key_press": -1, "trial_index": 10}, "uniqueid": "MTK1351:3YOH7BII0AEMMVTWGOXB08P4CZXKVQ", "dateTime": 1515791326690}, {"current_trial": 11, "trialdata": {"rt": -1, "trial_type": "single-stim", "stimulus": "<p id=\"stim\">9</p>", "internal_node_id": "0.0-10.0-1.0", "time_elapsed": 391719, "key_press": -1, "trial_index": 11}, "uniqueid": "MTK1351:3YOH7BII0AEMMVTWGOXB08P4CZXKVQ", "dateTime": 1515791327692}, {"current_trial": 12, "trialdata": {"rt": -1, "trial_type": "single-stim", "stimulus": "<p id=\"stim\">8</p>", "internal_node_id": "0.0-10.0-2.0", "time_elapsed": 392721, "key_press": -1, "trial_index": 12}, "uniqueid": "MTK1351:3YOH7BII0AEMMVTWGOXB08P4CZXKVQ", "dateTime": 1515791328694}, {"current_trial": 13, "trialdata": {"rt": -1, "trial_type": "single-stim", "stimulus": "<p id=\"stim\">7</p>", "internal_node_id": "0.0-10.0-3.0", "time_elapsed": 393722, "key_press": -1, "trial_index": 13}, "uniqueid": "MTK1351:3YOH7BII0AEMMVTWGOXB08P4CZXKVQ", "dateTime": 1515791329695}, {"current_trial": 14, "trialdata": {"rt": -1, "trial_type": "single-stim", "stimulus": "<p id=\"stim\">6</p>", "internal_node_id": "0.0-10.0-4.0", "time_elapsed": 394724, "key_press": -1, "trial_index": 14}, "uniqueid": "MTK1351:3YOH7BII0AEMMVTWGOXB08P4CZXKVQ", "dateTime": 1515791330697}, {"current_trial": 15, "trialdata": {"rt": -1, "trial_type": "single-stim", "stimulus": "<p id=\"stim\">5</p>", "internal_node_id": "0.0-10.0-5.0", "time_elapsed": 395725, "key_press": -1, "trial_index": 15}, "uniqueid": "MTK1351:3YOH7BII0AEMMVTWGOXB08P4CZXKVQ", "dateTime": 1515791331700}, {"current_trial": 16, "trialdata": {"rt": -1, "trial_type": "single-stim", "stimulus": "<p id=\"stim\">4</p>", "internal_node_id": "0.0-10.0-6.0", "time_elapsed": 396728, "key_press": -1, "trial_index": 16}, "uniqueid": "MTK1351:3YOH7BII0AEMMVTWGOXB08P4CZXKVQ", "dateTime": 1515791332701}, {"current_trial": 17, "trialdata": {"rt": -1, "trial_type": "single-stim", "stimulus": "<p id=\"stim\">3</p>", "internal_node_id": "0.0-10.0-7.0", "time_elapsed": 397730, "key_press": -1, "trial_index": 17}, "uniqueid": "MTK1351:3YOH7BII0AEMMVTWGOXB08P4CZXKVQ", "dateTime": 1515791333703}, {"current_trial": 18, "trialdata": {"rt": -1, "trial_type": "single-stim", "stimulus": "<p id=\"stim\">2</p>", "internal_node_id": "0.0-10.0-8.0", "time_elapsed": 398731, "key_press": -1, "trial_index": 18}, "uniqueid": "MTK1351:3YOH7BII0AEMMVTWGOXB08P4CZXKVQ", "dateTime": 1515791334704}, {"current_trial": 19, "trialdata": {"rt": -1, "trial_type": "single-stim", "stimulus": "<p id=\"stim\">1</p>", "internal_node_id": "0.0-10.0-9.0", "time_elapsed": 399732, "key_press": -1, "trial_index": 19}, "uniqueid": "MTK1351:3YOH7BII0AEMMVTWGOXB08P4CZXKVQ", "dateTime": 1515791335705}, {"current_trial": 20, "trialdata": {"rt": -1, "trial_type": "single-stim", "stimulus": "<p id=\"stim\">+</p>", "internal_node_id": "0.0-11.0-0.0", "time_elapsed": 401234, "key_press": -1, "type": "FIXATION", "trial_index": 20}, "uniqueid": "MTK1351:3YOH7BII0AEMMVTWGOXB08P4CZXKVQ", "dateTime": 1515791337208}, {"current_trial": 21, "trialdata": {"rt": -1000, "trial_type": "single-audio", "word": "swamp", "stimulus": "/static/audio/wordpool/SWAMP.wav", "conditions": [18, 1200, "a", 18000], "internal_node_id": "0.0-12.0", "trial": 0, "time_elapsed": 403600, "serialpos": 0, "key_press": -1, "wordID": 1415, "type": "PRES_AUD", "trial_index": 21}, "uniqueid": "MTK1351:3YOH7BII0AEMMVTWGOXB08P4CZXKVQ", "dateTime": 1515791339574}, {"current_trial": 22, "trialdata": {"rt": -1000, "trial_type": "single-audio", "word": "river", "stimulus": "/static/audio/wordpool/RIVER.wav", "conditions": [18, 1200, "a", 18000], "internal_node_id": "0.0-13.0", "trial": 0, "time_elapsed": 405933, "serialpos": 1, "key_press": -1, "wordID": 1193, "type": "PRES_AUD", "trial_index": 22}, "uniqueid": "MTK1351:3YOH7BII0AEMMVTWGOXB08P4CZXKVQ", "dateTime": 1515791341906}, {"current_trial": 23, "trialdata": {"rt": -1000, "trial_type": "single-audio", "word": "fox", "stimulus": "/static/audio/wordpool/FOX.wav", "conditions": [18, 1200, "a", 18000], "internal_node_id": "0.0-14.0", "trial": 0, "time_elapsed": 408066, "serialpos": 2, "key_press": -1, "wordID": 597, "type": "PRES_AUD", "trial_index": 23}, "uniqueid": "MTK1351:3YOH7BII0AEMMVTWGOXB08P4CZXKVQ", "dateTime": 1515791344039}, {"current_trial": 24, "trialdata": {"rt": -1000, "trial_type": "single-audio", "word": "film", "stimulus": "/static/audio/wordpool/FILM.wav", "conditions": [18, 1200, "a", 18000], "internal_node_id": "0.0-15.0", "trial": 0, "time_elapsed": 410333, "serialpos": 3, "key_press": -1, "wordID": 564, "type": "PRES_AUD", "trial_index": 24}, "uniqueid": "MTK1351:3YOH7BII0AEMMVTWGOXB08P4CZXKVQ", "dateTime": 1515791346307}, {"current_trial": 25, "trialdata": {"rt": -1000, "trial_type": "single-audio", "word": "tweezers", "stimulus": "/static/audio/wordpool/TWEEZERS.wav", "conditions": [18, 1200, "a", 18000], "internal_node_id": "0.0-16.0", "trial": 0, "time_elapsed": 412605, "serialpos": 4, "key_press": -1, "wordID": 1525, "type": "PRES_AUD", "trial_index": 25}, "uniqueid": "MTK1351:3YOH7BII0AEMMVTWGOXB08P4CZXKVQ", "dateTime": 1515791348578}, {"current_trial": 26, "trialdata": {"rt": -1000, "trial_type": "single-audio", "word": "county", "stimulus": "/static/audio/wordpool/COUNTY.wav", "conditions": [18, 1200, "a", 18000], "internal_node_id": "0.0-17.0", "trial": 0, "time_elapsed": 414735, "serialpos": 5, "key_press": -1, "wordID": 388, "type": "PRES_AUD", "trial_index": 26}, "uniqueid": "MTK1351:3YOH7BII0AEMMVTWGOXB08P4CZXKVQ", "dateTime": 1515791350708}, {"current_trial": 27, "trialdata": {"rt": -1000, "trial_type": "single-audio", "word": "mildew", "stimulus": "/static/audio/wordpool/MILDEW.wav", "conditions": [18, 1200, "a", 18000], "internal_node_id": "0.0-18.0", "trial": 0, "time_elapsed": 416956, "serialpos": 6, "key_press": -1, "wordID": 892, "type": "PRES_AUD", "trial_index": 27}, "uniqueid": "MTK1351:3YOH7BII0AEMMVTWGOXB08P4CZXKVQ", "dateTime": 1515791352929}, {"current_trial": 28, "trialdata": {"rt": -1000, "trial_type": "single-audio", "word": "termite", "stimulus": "/static/audio/wordpool/TERMITE.wav", "conditions": [18, 1200, "a", 18000], "internal_node_id": "0.0-19.0", "trial": 0, "time_elapsed": 419191, "serialpos": 7, "key_press": -1, "wordID": 1450, "type": "PRES_AUD", "trial_index": 28}, "uniqueid": "MTK1351:3YOH7BII0AEMMVTWGOXB08P4CZXKVQ", "dateTime": 1515791355165}, {"current_trial": 29, "trialdata": {"rt": -1000, "trial_type": "single-audio", "word": "laser", "stimulus": "/static/audio/wordpool/LASER.wav", "conditions": [18, 1200, "a", 18000], "internal_node_id": "0.0-20.0", "trial": 0, "time_elapsed": 421403, "serialpos": 8, "key_press": -1, "wordID": 800, "type": "PRES_AUD", "trial_index": 29}, "uniqueid": "MTK1351:3YOH7BII0AEMMVTWGOXB08P4CZXKVQ", "dateTime": 1515791357376}, {"current_trial": 30, "trialdata": {"rt": -1000, "trial_type": "single-audio", "word": "quail", "stimulus": "/static/audio/wordpool/QUAIL.wav", "conditions": [18, 1200, "a", 18000], "internal_node_id": "0.0-21.0", "trial": 0, "time_elapsed": 423477, "serialpos": 9, "key_press": -1, "wordID": 1146, "type": "PRES_AUD", "trial_index": 30}, "uniqueid": "MTK1351:3YOH7BII0AEMMVTWGOXB08P4CZXKVQ", "dateTime": 1515791359450}, {"current_trial": 31, "trialdata": {"rt": -1000, "trial_type": "single-audio", "word": "mailbox", "stimulus": "/static/audio/wordpool/MAILBOX.wav", "conditions": [18, 1200, "a", 18000], "internal_node_id": "0.0-22.0", "trial": 0, "time_elapsed": 425605, "serialpos": 10, "key_press": -1, "wordID": 856, "type": "PRES_AUD", "trial_index": 31}, "uniqueid": "MTK1351:3YOH7BII0AEMMVTWGOXB08P4CZXKVQ", "dateTime": 1515791361579}, {"current_trial": 32, "trialdata": {"rt": -1000, "trial_type": "single-audio", "word": "mars", "stimulus": "/static/audio/wordpool/MARS.wav", "conditions": [18, 1200, "a", 18000], "internal_node_id": "0.0-23.0", "trial": 0, "time_elapsed": 427723, "serialpos": 11, "key_press": -1, "wordID": 872, "type": "PRES_AUD", "trial_index": 32}, "uniqueid": "MTK1351:3YOH7BII0AEMMVTWGOXB08P4CZXKVQ", "dateTime": 1515791363696}, {"current_trial": 33, "trialdata": {"rt": -1000, "trial_type": "single-audio", "word": "crater", "stimulus": "/static/audio/wordpool/CRATER.wav", "conditions": [18, 1200, "a", 18000], "internal_node_id": "0.0-24.0", "trial": 0, "time_elapsed": 429818, "serialpos": 12, "key_press": -1, "wordID": 399, "type": "PRES_AUD", "trial_index": 33}, "uniqueid": "MTK1351:3YOH7BII0AEMMVTWGOXB08P4CZXKVQ", "dateTime": 1515791365791}, {"current_trial": 34, "trialdata": {"rt": -1000, "trial_type": "single-audio", "word": "coffee", "stimulus": "/static/audio/wordpool/COFFEE.wav", "conditions": [18, 1200, "a", 18000], "internal_node_id": "0.0-25.0", "trial": 0, "time_elapsed": 431834, "serialpos": 13, "key_press": -1, "wordID": 340, "type": "PRES_AUD", "trial_index": 34}, "uniqueid": "MTK1351:3YOH7BII0AEMMVTWGOXB08P4CZXKVQ", "dateTime": 1515791367807}, {"current_trial": 35, "trialdata": {"rt": -1000, "trial_type": "single-audio", "word": "hatchet", "stimulus": "/static/audio/wordpool/HATCHET.wav", "conditions": [18, 1200, "a", 18000], "internal_node_id": "0.0-26.0", "trial": 0, "time_elapsed": 433898, "serialpos": 14, "key_press": -1, "wordID": 690, "type": "PRES_AUD", "trial_index": 35}, "uniqueid": "MTK1351:3YOH7BII0AEMMVTWGOXB08P4CZXKVQ", "dateTime": 1515791369872}, {"current_trial": 36, "trialdata": {"rt": -1000, "trial_type": "single-audio", "word": "donor", "stimulus": "/static/audio/wordpool/DONOR.wav", "conditions": [18, 1200, "a", 18000], "internal_node_id": "0.0-27.0", "trial": 0, "time_elapsed": 436155, "serialpos": 15, "key_press": -1, "wordID": 484, "type": "PRES_AUD", "trial_index": 36}, "uniqueid": "MTK1351:3YOH7BII0AEMMVTWGOXB08P4CZXKVQ", "dateTime": 1515791372129}, {"current_trial": 37, "trialdata": {"rt": -1000, "trial_type": "single-audio", "word": "beaver", "stimulus": "/static/audio/wordpool/BEAVER.wav", "conditions": [18, 1200, "a", 18000], "internal_node_id": "0.0-28.0", "trial": 0, "time_elapsed": 438390, "serialpos": 16, "key_press": -1, "wordID": 108, "type": "PRES_AUD", "trial_index": 37}, "uniqueid": "MTK1351:3YOH7BII0AEMMVTWGOXB08P4CZXKVQ", "dateTime": 1515791374363}, {"current_trial": 38, "trialdata": {"rt": -1000, "trial_type": "single-audio", "word": "robber", "stimulus": "/static/audio/wordpool/ROBBER.wav", "conditions": [18, 1200, "a", 18000], "internal_node_id": "0.0-29.0", "trial": 0, "time_elapsed": 440573, "serialpos": 17, "key_press": -1, "wordID": 1196, "type": "PRES_AUD", "trial_index": 38}, "uniqueid": "MTK1351:3YOH7BII0AEMMVTWGOXB08P4CZXKVQ", "dateTime": 1515791376546}, {"current_trial": 39, "trialdata": {"rt": -1, "trial_type": "single-stim", "stimulus": "", "internal_node_id": "0.0-30.0-0.0", "time_elapsed": 441947, "key_press": -1, "type": "PRE_RECALL_DELAY", "trial_index": 39}, "uniqueid": "MTK1351:3YOH7BII0AEMMVTWGOXB08P4CZXKVQ", "dateTime": 1515791377920}, {"current_trial": 40, "trialdata": {"rt": -1000, "trial_type": "single-audio", "stimulus": "/static/audio/400Hz.wav", "internal_node_id": "0.0-31.0", "time_elapsed": 442448, "key_press": -1, "type": "PRE_RECALL_ALERT", "trial_index": 40}, "uniqueid": "MTK1351:3YOH7BII0AEMMVTWGOXB08P4CZXKVQ", "dateTime": 1515791378422}, {"current_trial": 41, "trialdata": {"rt": [2224, 4302, 8519, 10361, 14619, 22315, 29930, 45851, 51419], "recwords": ["fox", "swamp", "crater", "evil", "river", "doner", "mars", "water", "coffee"], "key_times": [1731, 1846, 2058, 2224, 2848, 3062, 3236, 3448, 3935, 4302, 5051, 5266, 5268, 5405, 5677, 5985, 6149, 6307, 6478, 7034, 7406, 7791, 7913, 8033, 8257, 8340, 8519, 9585, 9781, 9888, 10083, 10361, 13930, 14031, 14159, 14379, 14454, 14619, 21611, 21680, 21842, 22038, 22123, 22315, 29217, 29367, 29539, 29809, 29930, 44927, 45189, 45343, 45574, 45693, 45851, 50175, 50259, 50464, 50686, 50967, 51214, 51419], "trial_type": "free-recall", "conditions": [18, 1200, "a", 18000], "internal_node_id": "0.0-32.0-0.0", "key_presses": [70, 79, 88, 13, 83, 87, 65, 77, 80, 13, 67, 82, 70, 65, 84, 8, 8, 8, 8, 82, 84, 8, 65, 84, 69, 82, 13, 69, 86, 73, 76, 13, 82, 73, 86, 69, 82, 13, 68, 79, 78, 69, 82, 13, 77, 65, 82, 83, 13, 87, 65, 84, 69, 82, 13, 67, 79, 70, 70, 69, 69, 13], "trial": 0, "time_elapsed": 502456, "type": "FREE_RECALL", "trial_index": 41}, "uniqueid": "MTK1351:3YOH7BII0AEMMVTWGOXB08P4CZXKVQ", "dateTime": 1515791438433}, {"current_trial": 42, "trialdata": {"rt": 2062, "trial_type": "text", "internal_node_id": "0.0-33.0", "time_elapsed": 506523, "key_press": 75, "type": "INSTRUCTIONS", "trial_index": 42}, "uniqueid": "MTK1351:3YOH7BII0AEMMVTWGOXB08P4CZXKVQ", "dateTime": 1515791442496}, {"current_trial": 43, "trialdata": {"rt": [3310, 6421, 8683, 13474, 16546], "trial_type": "math-distractor", "key_times": [1803, 2670, 3310, 6104, 6252, 6421, 8345, 8500, 8683, 11091, 11349, 11705, 12274, 12885, 13173, 13474, 16209, 16345, 16546], "responses": ["16", "13", "21", "18", "21"], "num2": [2, 6, 6, 5, 5, 9], "num3": [6, 4, 9, 4, 7, 5], "conditions": [18, 1200, "a", 18000], "internal_node_id": "0.0-34.0", "key_presses": [49, 54, 13, 49, 51, 13, 50, 49, 13, 49, 55, 8, 57, 8, 56, 13, 50, 49, 13], "trial": 1, "time_elapsed": 526527, "type": "DISTRACTOR", "trial_index": 43, "num1": [8, 3, 6, 9, 9, 8]}, "uniqueid": "MTK1351:3YOH7BII0AEMMVTWGOXB08P4CZXKVQ", "dateTime": 1515791462501}, {"current_trial": 44, "trialdata": {"rt": -1, "trial_type": "single-stim", "stimulus": "<p id=\"stim\">10</p>", "internal_node_id": "0.0-35.0-0.0", "time_elapsed": 529529, "key_press": -1, "trial_index": 44}, "uniqueid": "MTK1351:3YOH7BII0AEMMVTWGOXB08P4CZXKVQ", "dateTime": 1515791465503}, {"current_trial": 45, "trialdata": {"rt": -1, "trial_type": "single-stim", "stimulus": "<p id=\"stim\">9</p>", "internal_node_id": "0.0-35.0-1.0", "time_elapsed": 530531, "key_press": -1, "trial_index": 45}, "uniqueid": "MTK1351:3YOH7BII0AEMMVTWGOXB08P4CZXKVQ", "dateTime": 1515791466504}, {"current_trial": 46, "trialdata": {"rt": -1, "trial_type": "single-stim", "stimulus": "<p id=\"stim\">8</p>", "internal_node_id": "0.0-35.0-2.0", "time_elapsed": 531532, "key_press": -1, "trial_index": 46}, "uniqueid": "MTK1351:3YOH7BII0AEMMVTWGOXB08P4CZXKVQ", "dateTime": 1515791467506}, {"current_trial": 47, "trialdata": {"rt": -1, "trial_type": "single-stim", "stimulus": "<p id=\"stim\">7</p>", "internal_node_id": "0.0-35.0-3.0", "time_elapsed": 532534, "key_press": -1, "trial_index": 47}, "uniqueid": "MTK1351:3YOH7BII0AEMMVTWGOXB08P4CZXKVQ", "dateTime": 1515791468507}, {"current_trial": 48, "trialdata": {"rt": -1, "trial_type": "single-stim", "stimulus": "<p id=\"stim\">6</p>", "internal_node_id": "0.0-35.0-4.0", "time_elapsed": 533536, "key_press": -1, "trial_index": 48}, "uniqueid": "MTK1351:3YOH7BII0AEMMVTWGOXB08P4CZXKVQ", "dateTime": 1515791469509}, {"current_trial": 49, "trialdata": {"rt": -1, "trial_type": "single-stim", "stimulus": "<p id=\"stim\">5</p>", "internal_node_id": "0.0-35.0-5.0", "time_elapsed": 534537, "key_press": -1, "trial_index": 49}, "uniqueid": "MTK1351:3YOH7BII0AEMMVTWGOXB08P4CZXKVQ", "dateTime": 1515791470510}, {"current_trial": 50, "trialdata": {"rt": -1, "trial_type": "single-stim", "stimulus": "<p id=\"stim\">4</p>", "internal_node_id": "0.0-35.0-6.0", "time_elapsed": 535539, "key_press": -1, "trial_index": 50}, "uniqueid": "MTK1351:3YOH7BII0AEMMVTWGOXB08P4CZXKVQ", "dateTime": 1515791471512}, {"current_trial": 51, "trialdata": {"rt": -1, "trial_type": "single-stim", "stimulus": "<p id=\"stim\">3</p>", "internal_node_id": "0.0-35.0-7.0", "time_elapsed": 536540, "key_press": -1, "trial_index": 51}, "uniqueid": "MTK1351:3YOH7BII0AEMMVTWGOXB08P4CZXKVQ", "dateTime": 1515791472513}, {"current_trial": 52, "trialdata": {"rt": -1, "trial_type": "single-stim", "stimulus": "<p id=\"stim\">2</p>", "internal_node_id": "0.0-35.0-8.0", "time_elapsed": 537542, "key_press": -1, "trial_index": 52}, "uniqueid": "MTK1351:3YOH7BII0AEMMVTWGOXB08P4CZXKVQ", "dateTime": 1515791473515}, {"current_trial": 53, "trialdata": {"rt": -1, "trial_type": "single-stim", "stimulus": "<p id=\"stim\">1</p>", "internal_node_id": "0.0-35.0-9.0", "time_elapsed": 538543, "key_press": -1, "trial_index": 53}, "uniqueid": "MTK1351:3YOH7BII0AEMMVTWGOXB08P4CZXKVQ", "dateTime": 1515791474516}, {"current_trial": 54, "trialdata": {"rt": -1, "trial_type": "single-stim", "stimulus": "<p id=\"stim\">+</p>", "internal_node_id": "0.0-36.0-0.0", "time_elapsed": 540045, "key_press": -1, "type": "FIXATION", "trial_index": 54}, "uniqueid": "MTK1351:3YOH7BII0AEMMVTWGOXB08P4CZXKVQ", "dateTime": 1515791476018}, {"current_trial": 55, "trialdata": {"rt": -1000, "trial_type": "single-audio", "word": "lily", "stimulus": "/static/audio/wordpool/LILY.wav", "conditions": [18, 1200, "a", 18000], "internal_node_id": "0.0-37.0", "trial": 1, "time_elapsed": 542412, "serialpos": 0, "key_press": -1, "wordID": 820, "type": "PRES_AUD", "trial_index": 55}, "uniqueid": "MTK1351:3YOH7BII0AEMMVTWGOXB08P4CZXKVQ", "dateTime": 1515791478385}, {"current_trial": 56, "trialdata": {"rt": -1000, "trial_type": "single-audio", "word": "human", "stimulus": "/static/audio/wordpool/HUMAN.wav", "conditions": [18, 1200, "a", 18000], "internal_node_id": "0.0-38.0", "trial": 1, "time_elapsed": 544800, "serialpos": 1, "key_press": -1, "wordID": 725, "type": "PRES_AUD", "trial_index": 56}, "uniqueid": "MTK1351:3YOH7BII0AEMMVTWGOXB08P4CZXKVQ", "dateTime": 1515791480773}, {"current_trial": 57, "trialdata": {"rt": -1000, "trial_type": "single-audio", "word": "blueprint", "stimulus": "/static/audio/wordpool/BLUEPRINT.wav", "conditions": [18, 1200, "a", 18000], "internal_node_id": "0.0-39.0", "trial": 1, "time_elapsed": 546878, "serialpos": 2, "key_press": -1, "wordID": 141, "type": "PRES_AUD", "trial_index": 57}, "uniqueid": "MTK1351:3YOH7BII0AEMMVTWGOXB08P4CZXKVQ", "dateTime": 1515791482851}, {"current_trial": 58, "trialdata": {"rt": -1000, "trial_type": "single-audio", "word": "worker", "stimulus": "/static/audio/wordpool/WORKER.wav", "conditions": [18, 1200, "a", 18000], "internal_node_id": "0.0-40.0", "trial": 1, "time_elapsed": 549123, "serialpos": 3, "key_press": -1, "wordID": 1620, "type": "PRES_AUD", "trial_index": 58}, "uniqueid": "MTK1351:3YOH7BII0AEMMVTWGOXB08P4CZXKVQ", "dateTime": 1515791485096}, {"current_trial": 59, "trialdata": {"rt": -1000, "trial_type": "single-audio", "word": "bacon", "stimulus": "/static/audio/wordpool/BACON.wav", "conditions": [18, 1200, "a", 18000], "internal_node_id": "0.0-41.0", "trial": 1, "time_elapsed": 551170, "serialpos": 4, "key_press": -1, "wordID": 66, "type": "PRES_AUD", "trial_index": 59}, "uniqueid": "MTK1351:3YOH7BII0AEMMVTWGOXB08P4CZXKVQ", "dateTime": 1515791487143}, {"current_trial": 60, "trialdata": {"rt": -1000, "trial_type": "single-audio", "word": "mister", "stimulus": "/static/audio/wordpool/MISTER.wav", "conditions": [18, 1200, "a", 18000], "internal_node_id": "0.0-42.0", "trial": 1, "time_elapsed": 553359, "serialpos": 5, "key_press": -1, "wordID": 900, "type": "PRES_AUD", "trial_index": 60}, "uniqueid": "MTK1351:3YOH7BII0AEMMVTWGOXB08P4CZXKVQ", "dateTime": 1515791489332}, {"current_trial": 61, "trialdata": {"rt": -1000, "trial_type": "single-audio", "word": "salmon", "stimulus": "/static/audio/wordpool/SALMON.wav", "conditions": [18, 1200, "a", 18000], "internal_node_id": "0.0-43.0", "trial": 1, "time_elapsed": 555658, "serialpos": 6, "key_press": -1, "wordID": 1226, "type": "PRES_AUD", "trial_index": 61}, "uniqueid": "MTK1351:3YOH7BII0AEMMVTWGOXB08P4CZXKVQ", "dateTime": 1515791491631}, {"current_trial": 62, "trialdata": {"rt": -1000, "trial_type": "single-audio", "word": "princess", "stimulus": "/static/audio/wordpool/PRINCESS.wav", "conditions": [18, 1200, "a", 18000], "internal_node_id": "0.0-44.0", "trial": 1, "time_elapsed": 557748, "serialpos": 7, "key_press": -1, "wordID": 1124, "type": "PRES_AUD", "trial_index": 62}, "uniqueid": "MTK1351:3YOH7BII0AEMMVTWGOXB08P4CZXKVQ", "dateTime": 1515791493721}, {"current_trial": 63, "trialdata": {"rt": -1000, "trial_type": "single-audio", "word": "tart", "stimulus": "/static/audio/wordpool/TART.wav", "conditions": [18, 1200, "a", 18000], "internal_node_id": "0.0-45.0", "trial": 1, "time_elapsed": 559865, "serialpos": 8, "key_press": -1, "wordID": 1435, "type": "PRES_AUD", "trial_index": 63}, "uniqueid": "MTK1351:3YOH7BII0AEMMVTWGOXB08P4CZXKVQ", "dateTime": 1515791495839}, {"current_trial": 64, "trialdata": {"rt": -1000, "trial_type": "single-audio", "word": "igloo", "stimulus": "/static/audio/wordpool/IGLOO.wav", "conditions": [18, 1200, "a", 18000], "internal_node_id": "0.0-46.0", "trial": 1, "time_elapsed": 561983, "serialpos": 9, "key_press": -1, "wordID": 733, "type": "PRES_AUD", "trial_index": 64}, "uniqueid": "MTK1351:3YOH7BII0AEMMVTWGOXB08P4CZXKVQ", "dateTime": 1515791497956}, {"current_trial": 65, "trialdata": {"rt": -1000, "trial_type": "single-audio", "word": "dorm", "stimulus": "/static/audio/wordpool/DORM.wav", "conditions": [18, 1200, "a", 18000], "internal_node_id": "0.0-47.0", "trial": 1, "time_elapsed": 564102, "serialpos": 10, "key_press": -1, "wordID": 487, "type": "PRES_AUD", "trial_index": 65}, "uniqueid": "MTK1351:3YOH7BII0AEMMVTWGOXB08P4CZXKVQ", "dateTime": 1515791500075}, {"current_trial": 66, "trialdata": {"rt": -1000, "trial_type": "single-audio", "word": "casket", "stimulus": "/static/audio/wordpool/CASKET.wav", "conditions": [18, 1200, "a", 18000], "internal_node_id": "0.0-48.0", "trial": 1, "time_elapsed": 566273, "serialpos": 11, "key_press": -1, "wordID": 254, "type": "PRES_AUD", "trial_index": 66}, "uniqueid": "MTK1351:3YOH7BII0AEMMVTWGOXB08P4CZXKVQ", "dateTime": 1515791502246}, {"current_trial": 67, "trialdata": {"rt": -1000, "trial_type": "single-audio", "word": "money", "stimulus": "/static/audio/wordpool/MONEY.wav", "conditions": [18, 1200, "a", 18000], "internal_node_id": "0.0-49.0", "trial": 1, "time_elapsed": 568302, "serialpos": 12, "key_press": -1, "wordID": 907, "type": "PRES_AUD", "trial_index": 67}, "uniqueid": "MTK1351:3YOH7BII0AEMMVTWGOXB08P4CZXKVQ", "dateTime": 1515791504275}, {"current_trial": 68, "trialdata": {"rt": -1000, "trial_type": "single-audio", "word": "slug", "stimulus": "/static/audio/wordpool/SLUG.wav", "conditions": [18, 1200, "a", 18000], "internal_node_id": "0.0-50.0", "trial": 1, "time_elapsed": 570433, "serialpos": 13, "key_press": -1, "wordID": 1328, "type": "PRES_AUD", "trial_index": 68}, "uniqueid": "MTK1351:3YOH7BII0AEMMVTWGOXB08P4CZXKVQ", "dateTime": 1515791506410}, {"current_trial": 69, "trialdata": {"rt": -1000, "trial_type": "single-audio", "word": "parent", "stimulus": "/static/audio/wordpool/PARENT.wav", "conditions": [18, 1200, "a", 18000], "internal_node_id": "0.0-51.0", "trial": 1, "time_elapsed": 572779, "serialpos": 14, "key_press": -1, "wordID": 1012, "type": "PRES_AUD", "trial_index": 69}, "uniqueid": "MTK1351:3YOH7BII0AEMMVTWGOXB08P4CZXKVQ", "dateTime": 1515791508752}, {"current_trial": 70, "trialdata": {"rt": -1000, "trial_type": "single-audio", "word": "branch", "stimulus": "/static/audio/wordpool/BRANCH.wav", "conditions": [18, 1200, "a", 18000], "internal_node_id": "0.0-52.0", "trial": 1, "time_elapsed": 574902, "serialpos": 15, "key_press": -1, "wordID": 167, "type": "PRES_AUD", "trial_index": 70}, "uniqueid": "MTK1351:3YOH7BII0AEMMVTWGOXB08P4CZXKVQ", "dateTime": 1515791510875}, {"current_trial": 71, "trialdata": {"rt": -1000, "trial_type": "single-audio", "word": "window", "stimulus": "/static/audio/wordpool/WINDOW.wav", "conditions": [18, 1200, "a", 18000], "internal_node_id": "0.0-53.0", "trial": 1, "time_elapsed": 577132, "serialpos": 16, "key_press": -1, "wordID": 1610, "type": "PRES_AUD", "trial_index": 71}, "uniqueid": "MTK1351:3YOH7BII0AEMMVTWGOXB08P4CZXKVQ", "dateTime": 1515791513105}, {"current_trial": 72, "trialdata": {"rt": -1000, "trial_type": "single-audio", "word": "college", "stimulus": "/static/audio/wordpool/COLLEGE.wav", "conditions": [18, 1200, "a", 18000], "internal_node_id": "0.0-54.0", "trial": 1, "time_elapsed": 579210, "serialpos": 17, "key_press": -1, "wordID": 345, "type": "PRES_AUD", "trial_index": 72}, "uniqueid": "MTK1351:3YOH7BII0AEMMVTWGOXB08P4CZXKVQ", "dateTime": 1515791515183}, {"current_trial": 73, "trialdata": {"rt": -1, "trial_type": "single-stim", "stimulus": "", "internal_node_id": "0.0-55.0-0.0", "time_elapsed": 580515, "key_press": -1, "type": "PRE_RECALL_DELAY", "trial_index": 73}, "uniqueid": "MTK1351:3YOH7BII0AEMMVTWGOXB08P4CZXKVQ", "dateTime": 1515791516489}, {"current_trial": 74, "trialdata": {"rt": -1000, "trial_type": "single-audio", "stimulus": "/static/audio/400Hz.wav", "internal_node_id": "0.0-56.0", "time_elapsed": 581017, "key_press": -1, "type": "PRE_RECALL_ALERT", "trial_index": 74}, "uniqueid": "MTK1351:3YOH7BII0AEMMVTWGOXB08P4CZXKVQ", "dateTime": 1515791516990}, {"current_trial": 75, "trialdata": {"rt": [2374, 3807, 5343, 6719, 8491, 11425, 13633, 26723, 32488], "recwords": ["college", "parent", "casket", "window", "branch", "slug", "person", "princess", "dorm"], "key_times": [823, 922, 1133, 1302, 1700, 1932, 2055, 2374, 2980, 3080, 3203, 3309, 3504, 3635, 3807, 4166, 4306, 4421, 4852, 4971, 5163, 5343, 5889, 5970, 6128, 6295, 6407, 6555, 6719, 7302, 7509, 7666, 7785, 7966, 8244, 8491, 10793, 10888, 11069, 11284, 11425, 12818, 12950, 13044, 13196, 13266, 13412, 13633, 24801, 24972, 25077, 25250, 25506, 25879, 25961, 26214, 26443, 26569, 26723, 31897, 32005, 32124, 32234, 32488], "trial_type": "free-recall", "conditions": [18, 1200, "a", 18000], "internal_node_id": "0.0-57.0-0.0", "key_presses": [67, 79, 76, 76, 69, 71, 69, 13, 80, 65, 82, 69, 78, 84, 13, 67, 65, 83, 75, 69, 84, 13, 87, 73, 78, 68, 79, 87, 13, 66, 82, 65, 78, 67, 72, 13, 83, 76, 85, 71, 13, 80, 69, 82, 83, 79, 78, 13, 80, 82, 73, 78, 83, 8, 67, 69, 83, 83, 13, 68, 79, 82, 77, 13], "trial": 1, "time_elapsed": 641021, "type": "FREE_RECALL", "trial_index": 75}, "uniqueid": "MTK1351:3YOH7BII0AEMMVTWGOXB08P4CZXKVQ", "dateTime": 1515791576998}, {"current_trial": 76, "trialdata": {"rt": 1911, "trial_type": "text", "internal_node_id": "0.0-58.0", "time_elapsed": 644937, "key_press": 75, "type": "INSTRUCTIONS", "trial_index": 76}, "uniqueid": "MTK1351:3YOH7BII0AEMMVTWGOXB08P4CZXKVQ", "dateTime": 1515791580910}, {"current_trial": 77, "trialdata": {"rt": [2738, 5070, 7288, 9277, 11154, 16382, 18510, 20959, 22793], "trial_type": "math-distractor", "key_times": [2119, 2738, 4800, 4913, 5070, 7115, 7288, 9026, 9122, 9277, 10827, 10989, 11154, 15214, 15339, 16382, 18215, 18343, 18510, 20744, 20959, 22401, 22537, 22793], "responses": ["7", "14", "5", "14", "15", "14", "15", "9", "18"], "num2": [1, 7, 1, 3, 1, 1, 3, 2, 4, 3], "num3": [3, 6, 2, 3, 5, 8, 7, 5, 8, 5], "conditions": [24, 800, "a", 24000], "internal_node_id": "0.0-59.0", "key_presses": [55, 13, 49, 52, 13, 53, 13, 49, 52, 13, 49, 53, 13, 49, 52, 13, 49, 53, 13, 57, 13, 49, 56, 13], "trial": 2, "time_elapsed": 669940, "type": "DISTRACTOR", "trial_index": 77, "num1": [3, 1, 2, 8, 9, 5, 5, 2, 6, 8]}, "uniqueid": "MTK1351:3YOH7BII0AEMMVTWGOXB08P4CZXKVQ", "dateTime": 1515791605914}, {"current_trial": 78, "trialdata": {"rt": -1, "trial_type": "single-stim", "stimulus": "<p id=\"stim\">10</p>", "internal_node_id": "0.0-60.0-0.0", "time_elapsed": 672942, "key_press": -1, "trial_index": 78}, "uniqueid": "MTK1351:3YOH7BII0AEMMVTWGOXB08P4CZXKVQ", "dateTime": 1515791608916}, {"current_trial": 79, "trialdata": {"rt": -1, "trial_type": "single-stim", "stimulus": "<p id=\"stim\">9</p>", "internal_node_id": "0.0-60.0-1.0", "time_elapsed": 673944, "key_press": -1, "trial_index": 79}, "uniqueid": "MTK1351:3YOH7BII0AEMMVTWGOXB08P4CZXKVQ", "dateTime": 1515791609917}, {"current_trial": 80, "trialdata": {"rt": -1, "trial_type": "single-stim", "stimulus": "<p id=\"stim\">8</p>", "internal_node_id": "0.0-60.0-2.0", "time_elapsed": 674945, "key_press": -1, "trial_index": 80}, "uniqueid": "MTK1351:3YOH7BII0AEMMVTWGOXB08P4CZXKVQ", "dateTime": 1515791610919}, {"current_trial": 81, "trialdata": {"rt": -1, "trial_type": "single-stim", "stimulus": "<p id=\"stim\">7</p>", "internal_node_id": "0.0-60.0-3.0", "time_elapsed": 675947, "key_press": -1, "trial_index": 81}, "uniqueid": "MTK1351:3YOH7BII0AEMMVTWGOXB08P4CZXKVQ", "dateTime": 1515791611920}, {"current_trial": 82, "trialdata": {"rt": -1, "trial_type": "single-stim", "stimulus": "<p id=\"stim\">6</p>", "internal_node_id": "0.0-60.0-4.0", "time_elapsed": 676948, "key_press": -1, "trial_index": 82}, "uniqueid": "MTK1351:3YOH7BII0AEMMVTWGOXB08P4CZXKVQ", "dateTime": 1515791612921}, {"current_trial": 83, "trialdata": {"rt": -1, "trial_type": "single-stim", "stimulus": "<p id=\"stim\">5</p>", "internal_node_id": "0.0-60.0-5.0", "time_elapsed": 677949, "key_press": -1, "trial_index": 83}, "uniqueid": "MTK1351:3YOH7BII0AEMMVTWGOXB08P4CZXKVQ", "dateTime": 1515791613923}, {"current_trial": 84, "trialdata": {"rt": -1, "trial_type": "single-stim", "stimulus": "<p id=\"stim\">4</p>", "internal_node_id": "0.0-60.0-6.0", "time_elapsed": 678951, "key_press": -1, "trial_index": 84}, "uniqueid": "MTK1351:3YOH7BII0AEMMVTWGOXB08P4CZXKVQ", "dateTime": 1515791614924}, {"current_trial": 85, "trialdata": {"rt": -1, "trial_type": "single-stim", "stimulus": "<p id=\"stim\">3</p>", "internal_node_id": "0.0-60.0-7.0", "time_elapsed": 679952, "key_press": -1, "trial_index": 85}, "uniqueid": "MTK1351:3YOH7BII0AEMMVTWGOXB08P4CZXKVQ", "dateTime": 1515791615926}, {"current_trial": 86, "trialdata": {"rt": -1, "trial_type": "single-stim", "stimulus": "<p id=\"stim\">2</p>", "internal_node_id": "0.0-60.0-8.0", "time_elapsed": 680954, "key_press": -1, "trial_index": 86}, "uniqueid": "MTK1351:3YOH7BII0AEMMVTWGOXB08P4CZXKVQ", "dateTime": 1515791616927}, {"current_trial": 87, "trialdata": {"rt": -1, "trial_type": "single-stim", "stimulus": "<p id=\"stim\">1</p>", "internal_node_id": "0.0-60.0-9.0", "time_elapsed": 681955, "key_press": -1, "trial_index": 87}, "uniqueid": "MTK1351:3YOH7BII0AEMMVTWGOXB08P4CZXKVQ", "dateTime": 1515791617928}, {"current_trial": 88, "trialdata": {"rt": -1, "trial_type": "single-stim", "stimulus": "<p id=\"stim\">+</p>", "internal_node_id": "0.0-61.0-0.0", "time_elapsed": 683457, "key_press": -1, "type": "FIXATION", "trial_index": 88}, "uniqueid": "MTK1351:3YOH7BII0AEMMVTWGOXB08P4CZXKVQ", "dateTime": 1515791619430}, {"current_trial": 89, "trialdata": {"rt": -1000, "trial_type": "single-audio", "word": "shorts", "stimulus": "/static/audio/wordpool/SHORTS.wav", "conditions": [24, 800, "a", 24000], "internal_node_id": "0.0-62.0", "trial": 2, "time_elapsed": 685392, "serialpos": 0, "key_press": -1, "wordID": 1292, "type": "PRES_AUD", "trial_index": 89}, "uniqueid": "MTK1351:3YOH7BII0AEMMVTWGOXB08P4CZXKVQ", "dateTime": 1515791621365}, {"current_trial": 90, "trialdata": {"rt": -1000, "trial_type": "single-audio", "word": "clothes", "stimulus": "/static/audio/wordpool/CLOTHES.wav", "conditions": [24, 800, "a", 24000], "internal_node_id": "0.0-63.0", "trial": 2, "time_elapsed": 687288, "serialpos": 1, "key_press": -1, "wordID": 326, "type": "PRES_AUD", "trial_index": 90}, "uniqueid": "MTK1351:3YOH7BII0AEMMVTWGOXB08P4CZXKVQ", "dateTime": 1515791623261}, {"current_trial": 91, "trialdata": {"rt": -1000, "trial_type": "single-audio", "word": "sidewalk", "stimulus": "/static/audio/wordpool/SIDEWALK.wav", "conditions": [24, 800, "a", 24000], "internal_node_id": "0.0-64.0", "trial": 2, "time_elapsed": 689014, "serialpos": 2, "key_press": -1, "wordID": 1302, "type": "PRES_AUD", "trial_index": 91}, "uniqueid": "MTK1351:3YOH7BII0AEMMVTWGOXB08P4CZXKVQ", "dateTime": 1515791624987}, {"current_trial": 92, "trialdata": {"rt": -1000, "trial_type": "single-audio", "word": "cobra", "stimulus": "/static/audio/wordpool/COBRA.wav", "conditions": [24, 800, "a", 24000], "internal_node_id": "0.0-65.0", "trial": 2, "time_elapsed": 690942, "serialpos": 3, "key_press": -1, "wordID": 335, "type": "PRES_AUD", "trial_index": 92}, "uniqueid": "MTK1351:3YOH7BII0AEMMVTWGOXB08P4CZXKVQ", "dateTime": 1515791626915}, {"current_trial": 93, "trialdata": {"rt": -1000, "trial_type": "single-audio", "word": "shortcake", "stimulus": "/static/audio/wordpool/SHORTCAKE.wav", "conditions": [24, 800, "a", 24000], "internal_node_id": "0.0-66.0", "trial": 2, "time_elapsed": 692779, "serialpos": 4, "key_press": -1, "wordID": 1291, "type": "PRES_AUD", "trial_index": 93}, "uniqueid": "MTK1351:3YOH7BII0AEMMVTWGOXB08P4CZXKVQ", "dateTime": 1515791628752}, {"current_trial": 94, "trialdata": {"rt": -1000, "trial_type": "single-audio", "word": "pastry", "stimulus": "/static/audio/wordpool/PASTRY.wav", "conditions": [24, 800, "a", 24000], "internal_node_id": "0.0-67.0", "trial": 2, "time_elapsed": 694729, "serialpos": 5, "key_press": -1, "wordID": 1021, "type": "PRES_AUD", "trial_index": 94}, "uniqueid": "MTK1351:3YOH7BII0AEMMVTWGOXB08P4CZXKVQ", "dateTime": 1515791630702}, {"current_trial": 95, "trialdata": {"rt": -1000, "trial_type": "single-audio", "word": "spoon", "stimulus": "/static/audio/wordpool/SPOON.wav", "conditions": [24, 800, "a", 24000], "internal_node_id": "0.0-68.0", "trial": 2, "time_elapsed": 696349, "serialpos": 6, "key_press": -1, "wordID": 1356, "type": "PRES_AUD", "trial_index": 95}, "uniqueid": "MTK1351:3YOH7BII0AEMMVTWGOXB08P4CZXKVQ", "dateTime": 1515791632323}, {"current_trial": 96, "trialdata": {"rt": -1000, "trial_type": "single-audio", "word": "plaza", "stimulus": "/static/audio/wordpool/PLAZA.wav", "conditions": [24, 800, "a", 24000], "internal_node_id": "0.0-69.0", "trial": 2, "time_elapsed": 698169, "serialpos": 7, "key_press": -1, "wordID": 1087, "type": "PRES_AUD", "trial_index": 96}, "uniqueid": "MTK1351:3YOH7BII0AEMMVTWGOXB08P4CZXKVQ", "dateTime": 1515791634142}, {"current_trial": 97, "trialdata": {"rt": -1000, "trial_type": "single-audio", "word": "permit", "stimulus": "/static/audio/wordpool/PERMIT.wav", "conditions": [24, 800, "a", 24000], "internal_node_id": "0.0-70.0", "trial": 2, "time_elapsed": 699979, "serialpos": 8, "key_press": -1, "wordID": 1050, "type": "PRES_AUD", "trial_index": 97}, "uniqueid": "MTK1351:3YOH7BII0AEMMVTWGOXB08P4CZXKVQ", "dateTime": 1515791635952}, {"current_trial": 98, "trialdata": {"rt": -1000, "trial_type": "single-audio", "word": "drawing", "stimulus": "/static/audio/wordpool/DRAWING.wav", "conditions": [24, 800, "a", 24000], "internal_node_id": "0.0-71.0", "trial": 2, "time_elapsed": 701642, "serialpos": 9, "key_press": -1, "wordID": 493, "type": "PRES_AUD", "trial_index": 98}, "uniqueid": "MTK1351:3YOH7BII0AEMMVTWGOXB08P4CZXKVQ", "dateTime": 1515791637615}, {"current_trial": 99, "trialdata": {"rt": -1000, "trial_type": "single-audio", "word": "airport", "stimulus": "/static/audio/wordpool/AIRPORT.wav", "conditions": [24, 800, "a", 24000], "internal_node_id": "0.0-72.0", "trial": 2, "time_elapsed": 703468, "serialpos": 10, "key_press": -1, "wordID": 12, "type": "PRES_AUD", "trial_index": 99}, "uniqueid": "MTK1351:3YOH7BII0AEMMVTWGOXB08P4CZXKVQ", "dateTime": 1515791639441}, {"current_trial": 100, "trialdata": {"rt": -1000, "trial_type": "single-audio", "word": "radish", "stimulus": "/static/audio/wordpool/RADISH.wav", "conditions": [24, 800, "a", 24000], "internal_node_id": "0.0-73.0", "trial": 2, "time_elapsed": 705224, "serialpos": 11, "key_press": -1, "wordID": 1157, "type": "PRES_AUD", "trial_index": 100}, "uniqueid": "MTK1351:3YOH7BII0AEMMVTWGOXB08P4CZXKVQ", "dateTime": 1515791641197}, {"current_trial": 101, "trialdata": {"rt": -1000, "trial_type": "single-audio", "word": "jelly", "stimulus": "/static/audio/wordpool/JELLY.wav", "conditions": [24, 800, "a", 24000], "internal_node_id": "0.0-74.0", "trial": 2, "time_elapsed": 707114, "serialpos": 12, "key_press": -1, "wordID": 754, "type": "PRES_AUD", "trial_index": 101}, "uniqueid": "MTK1351:3YOH7BII0AEMMVTWGOXB08P4CZXKVQ", "dateTime": 1515791643087}, {"current_trial": 102, "trialdata": {"rt": -1000, "trial_type": "single-audio", "word": "luggage", "stimulus": "/static/audio/wordpool/LUGGAGE.wav", "conditions": [24, 800, "a", 24000], "internal_node_id": "0.0-75.0", "trial": 2, "time_elapsed": 708883, "serialpos": 13, "key_press": -1, "wordID": 846, "type": "PRES_AUD", "trial_index": 102}, "uniqueid": "MTK1351:3YOH7BII0AEMMVTWGOXB08P4CZXKVQ", "dateTime": 1515791644856}, {"current_trial": 103, "trialdata": {"rt": -1000, "trial_type": "single-audio", "word": "leader", "stimulus": "/static/audio/wordpool/LEADER.wav", "conditions": [24, 800, "a", 24000], "internal_node_id": "0.0-76.0", "trial": 2, "time_elapsed": 710796, "serialpos": 14, "key_press": -1, "wordID": 806, "type": "PRES_AUD", "trial_index": 103}, "uniqueid": "MTK1351:3YOH7BII0AEMMVTWGOXB08P4CZXKVQ", "dateTime": 1515791646770}, {"current_trial": 104, "trialdata": {"rt": -1000, "trial_type": "single-audio", "word": "cigar", "stimulus": "/static/audio/wordpool/CIGAR.wav", "conditions": [24, 800, "a", 24000], "internal_node_id": "0.0-77.0", "trial": 2, "time_elapsed": 712774, "serialpos": 15, "key_press": -1, "wordID": 307, "type": "PRES_AUD", "trial_index": 104}, "uniqueid": "MTK1351:3YOH7BII0AEMMVTWGOXB08P4CZXKVQ", "dateTime": 1515791648748}, {"current_trial": 105, "trialdata": {"rt": -1000, "trial_type": "single-audio", "word": "drill", "stimulus": "/static/audio/wordpool/DRILL.wav", "conditions": [24, 800, "a", 24000], "internal_node_id": "0.0-78.0", "trial": 2, "time_elapsed": 714695, "serialpos": 16, "key_press": -1, "wordID": 496, "type": "PRES_AUD", "trial_index": 105}, "uniqueid": "MTK1351:3YOH7BII0AEMMVTWGOXB08P4CZXKVQ", "dateTime": 1515791650668}, {"current_trial": 106, "trialdata": {"rt": -1000, "trial_type": "single-audio", "word": "trench", "stimulus": "/static/audio/wordpool/TRENCH.wav", "conditions": [24, 800, "a", 24000], "internal_node_id": "0.0-79.0", "trial": 2, "time_elapsed": 716365, "serialpos": 17, "key_press": -1, "wordID": 1502, "type": "PRES_AUD", "trial_index": 106}, "uniqueid": "MTK1351:3YOH7BII0AEMMVTWGOXB08P4CZXKVQ", "dateTime": 1515791652338}, {"current_trial": 107, "trialdata": {"rt": -1000, "trial_type": "single-audio", "word": "sandwich", "stimulus": "/static/audio/wordpool/SANDWICH.wav", "conditions": [24, 800, "a", 24000], "internal_node_id": "0.0-80.0", "trial": 2, "time_elapsed": 717986, "serialpos": 18, "key_press": -1, "wordID": 1231, "type": "PRES_AUD", "trial_index": 107}, "uniqueid": "MTK1351:3YOH7BII0AEMMVTWGOXB08P4CZXKVQ", "dateTime": 1515791653959}, {"current_trial": 108, "trialdata": {"rt": -1000, "trial_type": "single-audio", "word": "jello", "stimulus": "/static/audio/wordpool/JELLO.wav", "conditions": [24, 800, "a", 24000], "internal_node_id": "0.0-81.0", "trial": 2, "time_elapsed": 719670, "serialpos": 19, "key_press": -1, "wordID": 753, "type": "PRES_AUD", "trial_index": 108}, "uniqueid": "MTK1351:3YOH7BII0AEMMVTWGOXB08P4CZXKVQ", "dateTime": 1515791655643}, {"current_trial": 109, "trialdata": {"rt": -1000, "trial_type": "single-audio", "word": "gallon", "stimulus": "/static/audio/wordpool/GALLON.wav", "conditions": [24, 800, "a", 24000], "internal_node_id": "0.0-82.0", "trial": 2, "time_elapsed": 721369, "serialpos": 20, "key_press": -1, "wordID": 617, "type": "PRES_AUD", "trial_index": 109}, "uniqueid": "MTK1351:3YOH7BII0AEMMVTWGOXB08P4CZXKVQ", "dateTime": 1515791657342}, {"current_trial": 110, "trialdata": {"rt": -1000, "trial_type": "single-audio", "word": "barrel", "stimulus": "/static/audio/wordpool/BARREL.wav", "conditions": [24, 800, "a", 24000], "internal_node_id": "0.0-83.0", "trial": 2, "time_elapsed": 723065, "serialpos": 21, "key_press": -1, "wordID": 90, "type": "PRES_AUD", "trial_index": 110}, "uniqueid": "MTK1351:3YOH7BII0AEMMVTWGOXB08P4CZXKVQ", "dateTime": 1515791659038}, {"current_trial": 111, "trialdata": {"rt": -1000, "trial_type": "single-audio", "word": "machine", "stimulus": "/static/audio/wordpool/MACHINE.wav", "conditions": [24, 800, "a", 24000], "internal_node_id": "0.0-84.0", "trial": 2, "time_elapsed": 724924, "serialpos": 22, "key_press": -1, "wordID": 851, "type": "PRES_AUD", "trial_index": 111}, "uniqueid": "MTK1351:3YOH7BII0AEMMVTWGOXB08P4CZXKVQ", "dateTime": 1515791660897}, {"current_trial": 112, "trialdata": {"rt": -1000, "trial_type": "single-audio", "word": "bison", "stimulus": "/static/audio/wordpool/BISON.wav", "conditions": [24, 800, "a", 24000], "internal_node_id": "0.0-85.0", "trial": 2, "time_elapsed": 726787, "serialpos": 23, "key_press": -1, "wordID": 130, "type": "PRES_AUD", "trial_index": 112}, "uniqueid": "MTK1351:3YOH7BII0AEMMVTWGOXB08P4CZXKVQ", "dateTime": 1515791662760}, {"current_trial": 113, "trialdata": {"rt": -1, "trial_type": "single-stim", "stimulus": "", "internal_node_id": "0.0-86.0-0.0", "time_elapsed": 728084, "key_press": -1, "type": "PRE_RECALL_DELAY", "trial_index": 113}, "uniqueid": "MTK1351:3YOH7BII0AEMMVTWGOXB08P4CZXKVQ", "dateTime": 1515791664057}, {"current_trial": 114, "trialdata": {"rt": -1000, "trial_type": "single-audio", "stimulus": "/static/audio/400Hz.wav", "internal_node_id": "0.0-87.0", "time_elapsed": 728586, "key_press": -1, "type": "PRE_RECALL_ALERT", "trial_index": 114}, "uniqueid": "MTK1351:3YOH7BII0AEMMVTWGOXB08P4CZXKVQ", "dateTime": 1515791664559}, {"current_trial": 115, "trialdata": {"rt": [1692, 3504, 5065, 6827, 13174, 29089, 38839], "recwords": ["machine", "jello", "jelly", "bison", "sandwich", "sidewalk", "crack"], "key_times": [606, 728, 1009, 1117, 1202, 1342, 1518, 1692, 2597, 2716, 2874, 3032, 3227, 3504, 3821, 3959, 4247, 4584, 4803, 5065, 5573, 5678, 5931, 6424, 6594, 6827, 9818, 9991, 10169, 11103, 11672, 11818, 12310, 12430, 12873, 12961, 13174, 26824, 26984, 27411, 27606, 27840, 28006, 28244, 28406, 29089, 37831, 38107, 38271, 38564, 38646, 38839], "trial_type": "free-recall", "conditions": [24, 800, "a", 24000], "internal_node_id": "0.0-88.0-0.0", "key_presses": [77, 65, 67, 72, 73, 78, 69, 13, 74, 69, 76, 76, 79, 13, 74, 69, 76, 76, 89, 13, 66, 73, 83, 79, 78, 13, 83, 65, 78, 87, 8, 68, 87, 73, 67, 72, 13, 83, 73, 68, 69, 87, 65, 76, 75, 13, 67, 82, 65, 67, 75, 13], "trial": 2, "time_elapsed": 788590, "type": "FREE_RECALL", "trial_index": 115}, "uniqueid": "MTK1351:3YOH7BII0AEMMVTWGOXB08P4CZXKVQ", "dateTime": 1515791724567}, {"current_trial": 116, "trialdata": {"rt": 1441, "trial_type": "text", "internal_node_id": "0.0-89.0", "time_elapsed": 792038, "key_press": 75, "type": "INSTRUCTIONS", "trial_index": 116}, "uniqueid": "MTK1351:3YOH7BII0AEMMVTWGOXB08P4CZXKVQ", "dateTime": 1515791728012}, {"current_trial": 117, "trialdata": {"rt": [3358, 5252, 11448], "trial_type": "math-distractor", "key_times": [2989, 3123, 3358, 4949, 5036, 5252, 8793, 10277, 10829, 11091, 11448], "responses": ["21", "12", "23"], "num2": [6, 4, 9, 2], "num3": [9, 4, 5, 2], "conditions": [12, 1600, "a", 12000], "internal_node_id": "0.0-90.0", "key_presses": [50, 49, 13, 49, 50, 13, 49, 8, 50, 51, 13], "trial": 3, "time_elapsed": 806043, "type": "DISTRACTOR", "trial_index": 117, "num1": [8, 4, 9, 2]}, "uniqueid": "MTK1351:3YOH7BII0AEMMVTWGOXB08P4CZXKVQ", "dateTime": 1515791742016}, {"current_trial": 118, "trialdata": {"rt": -1, "trial_type": "single-stim", "stimulus": "<p id=\"stim\">10</p>", "internal_node_id": "0.0-91.0-0.0", "time_elapsed": 809045, "key_press": -1, "trial_index": 118}, "uniqueid": "MTK1351:3YOH7BII0AEMMVTWGOXB08P4CZXKVQ", "dateTime": 1515791745018}, {"current_trial": 119, "trialdata": {"rt": -1, "trial_type": "single-stim", "stimulus": "<p id=\"stim\">9</p>", "internal_node_id": "0.0-91.0-1.0", "time_elapsed": 810046, "key_press": -1, "trial_index": 119}, "uniqueid": "MTK1351:3YOH7BII0AEMMVTWGOXB08P4CZXKVQ", "dateTime": 1515791746019}, {"current_trial": 120, "trialdata": {"rt": -1, "trial_type": "single-stim", "stimulus": "<p id=\"stim\">8</p>", "internal_node_id": "0.0-91.0-2.0", "time_elapsed": 811048, "key_press": -1, "trial_index": 120}, "uniqueid": "MTK1351:3YOH7BII0AEMMVTWGOXB08P4CZXKVQ", "dateTime": 1515791747023}, {"current_trial": 121, "trialdata": {"rt": -1, "trial_type": "single-stim", "stimulus": "<p id=\"stim\">7</p>", "internal_node_id": "0.0-91.0-3.0", "time_elapsed": 812051, "key_press": -1, "trial_index": 121}, "uniqueid": "MTK1351:3YOH7BII0AEMMVTWGOXB08P4CZXKVQ", "dateTime": 1515791748024}, {"current_trial": 122, "trialdata": {"rt": -1, "trial_type": "single-stim", "stimulus": "<p id=\"stim\">6</p>", "internal_node_id": "0.0-91.0-4.0", "time_elapsed": 813053, "key_press": -1, "trial_index": 122}, "uniqueid": "MTK1351:3YOH7BII0AEMMVTWGOXB08P4CZXKVQ", "dateTime": 1515791749026}, {"current_trial": 123, "trialdata": {"rt": -1, "trial_type": "single-stim", "stimulus": "<p id=\"stim\">5</p>", "internal_node_id": "0.0-91.0-5.0", "time_elapsed": 814055, "key_press": -1, "trial_index": 123}, "uniqueid": "MTK1351:3YOH7BII0AEMMVTWGOXB08P4CZXKVQ", "dateTime": 1515791750028}, {"current_trial": 124, "trialdata": {"rt": -1, "trial_type": "single-stim", "stimulus": "<p id=\"stim\">4</p>", "internal_node_id": "0.0-91.0-6.0", "time_elapsed": 815057, "key_press": -1, "trial_index": 124}, "uniqueid": "MTK1351:3YOH7BII0AEMMVTWGOXB08P4CZXKVQ", "dateTime": 1515791751030}, {"current_trial": 125, "trialdata": {"rt": -1, "trial_type": "single-stim", "stimulus": "<p id=\"stim\">3</p>", "internal_node_id": "0.0-91.0-7.0", "time_elapsed": 816058, "key_press": -1, "trial_index": 125}, "uniqueid": "MTK1351:3YOH7BII0AEMMVTWGOXB08P4CZXKVQ", "dateTime": 1515791752031}, {"current_trial": 126, "trialdata": {"rt": -1, "trial_type": "single-stim", "stimulus": "<p id=\"stim\">2</p>", "internal_node_id": "0.0-91.0-8.0", "time_elapsed": 817060, "key_press": -1, "trial_index": 126}, "uniqueid": "MTK1351:3YOH7BII0AEMMVTWGOXB08P4CZXKVQ", "dateTime": 1515791753033}, {"current_trial": 127, "trialdata": {"rt": -1, "trial_type": "single-stim", "stimulus": "<p id=\"stim\">1</p>", "internal_node_id": "0.0-91.0-9.0", "time_elapsed": 818061, "key_press": -1, "trial_index": 127}, "uniqueid": "MTK1351:3YOH7BII0AEMMVTWGOXB08P4CZXKVQ", "dateTime": 1515791754034}, {"current_trial": 128, "trialdata": {"rt": -1, "trial_type": "single-stim", "stimulus": "<p id=\"stim\">+</p>", "internal_node_id": "0.0-92.0-0.0", "time_elapsed": 819562, "key_press": -1, "type": "FIXATION", "trial_index": 128}, "uniqueid": "MTK1351:3YOH7BII0AEMMVTWGOXB08P4CZXKVQ", "dateTime": 1515791755536}, {"current_trial": 129, "trialdata": {"rt": -1000, "trial_type": "single-audio", "word": "bureau", "stimulus": "/static/audio/wordpool/BUREAU.wav", "conditions": [12, 1600, "a", 12000], "internal_node_id": "0.0-93.0", "trial": 3, "time_elapsed": 822354, "serialpos": 0, "key_press": -1, "wordID": 198, "type": "PRES_AUD", "trial_index": 129}, "uniqueid": "MTK1351:3YOH7BII0AEMMVTWGOXB08P4CZXKVQ", "dateTime": 1515791758328}, {"current_trial": 130, "trialdata": {"rt": -1000, "trial_type": "single-audio", "word": "typist", "stimulus": "/static/audio/wordpool/TYPIST.wav", "conditions": [12, 1600, "a", 12000], "internal_node_id": "0.0-94.0", "trial": 3, "time_elapsed": 825042, "serialpos": 1, "key_press": -1, "wordID": 1531, "type": "PRES_AUD", "trial_index": 130}, "uniqueid": "MTK1351:3YOH7BII0AEMMVTWGOXB08P4CZXKVQ", "dateTime": 1515791761015}, {"current_trial": 131, "trialdata": {"rt": -1000, "trial_type": "single-audio", "word": "valley", "stimulus": "/static/audio/wordpool/VALLEY.wav", "conditions": [12, 1600, "a", 12000], "internal_node_id": "0.0-95.0", "trial": 3, "time_elapsed": 827594, "serialpos": 2, "key_press": -1, "wordID": 1544, "type": "PRES_AUD", "trial_index": 131}, "uniqueid": "MTK1351:3YOH7BII0AEMMVTWGOXB08P4CZXKVQ", "dateTime": 1515791763567}, {"current_trial": 132, "trialdata": {"rt": -1000, "trial_type": "single-audio", "word": "hiker", "stimulus": "/static/audio/wordpool/HIKER.wav", "conditions": [12, 1600, "a", 12000], "internal_node_id": "0.0-96.0", "trial": 3, "time_elapsed": 830248, "serialpos": 3, "key_press": -1, "wordID": 707, "type": "PRES_AUD", "trial_index": 132}, "uniqueid": "MTK1351:3YOH7BII0AEMMVTWGOXB08P4CZXKVQ", "dateTime": 1515791766221}, {"current_trial": 133, "trialdata": {"rt": -1000, "trial_type": "single-audio", "word": "peach", "stimulus": "/static/audio/wordpool/PEACH.wav", "conditions": [12, 1600, "a", 12000], "internal_node_id": "0.0-97.0", "trial": 3, "time_elapsed": 833026, "serialpos": 4, "key_press": -1, "wordID": 1030, "type": "PRES_AUD", "trial_index": 133}, "uniqueid": "MTK1351:3YOH7BII0AEMMVTWGOXB08P4CZXKVQ", "dateTime": 1515791769000}, {"current_trial": 134, "trialdata": {"rt": -1000, "trial_type": "single-audio", "word": "chipmunk", "stimulus": "/static/audio/wordpool/CHIPMUNK.wav", "conditions": [12, 1600, "a", 12000], "internal_node_id": "0.0-98.0", "trial": 3, "time_elapsed": 835599, "serialpos": 5, "key_press": -1, "wordID": 303, "type": "PRES_AUD", "trial_index": 134}, "uniqueid": "MTK1351:3YOH7BII0AEMMVTWGOXB08P4CZXKVQ", "dateTime": 1515791771572}, {"current_trial": 135, "trialdata": {"rt": -1000, "trial_type": "single-audio", "word": "bunny", "stimulus": "/static/audio/wordpool/BUNNY.wav", "conditions": [12, 1600, "a", 12000], "internal_node_id": "0.0-99.0", "trial": 3, "time_elapsed": 838294, "serialpos": 6, "key_press": -1, "wordID": 197, "type": "PRES_AUD", "trial_index": 135}, "uniqueid": "MTK1351:3YOH7BII0AEMMVTWGOXB08P4CZXKVQ", "dateTime": 1515791774267}, {"current_trial": 136, "trialdata": {"rt": -1000, "trial_type": "single-audio", "word": "chapel", "stimulus": "/static/audio/wordpool/CHAPEL.wav", "conditions": [12, 1600, "a", 12000], "internal_node_id": "0.0-100.0", "trial": 3, "time_elapsed": 840707, "serialpos": 7, "key_press": -1, "wordID": 279, "type": "PRES_AUD", "trial_index": 136}, "uniqueid": "MTK1351:3YOH7BII0AEMMVTWGOXB08P4CZXKVQ", "dateTime": 1515791776680}, {"current_trial": 137, "trialdata": {"rt": -1000, "trial_type": "single-audio", "word": "jungle", "stimulus": "/static/audio/wordpool/JUNGLE.wav", "conditions": [12, 1600, "a", 12000], "internal_node_id": "0.0-101.0", "trial": 3, "time_elapsed": 843250, "serialpos": 8, "key_press": -1, "wordID": 763, "type": "PRES_AUD", "trial_index": 137}, "uniqueid": "MTK1351:3YOH7BII0AEMMVTWGOXB08P4CZXKVQ", "dateTime": 1515791779224}, {"current_trial": 138, "trialdata": {"rt": -1000, "trial_type": "single-audio", "word": "dustpan", "stimulus": "/static/audio/wordpool/DUSTPAN.wav", "conditions": [12, 1600, "a", 12000], "internal_node_id": "0.0-102.0", "trial": 3, "time_elapsed": 845719, "serialpos": 9, "key_press": -1, "wordID": 508, "type": "PRES_AUD", "trial_index": 138}, "uniqueid": "MTK1351:3YOH7BII0AEMMVTWGOXB08P4CZXKVQ", "dateTime": 1515791781692}, {"current_trial": 139, "trialdata": {"rt": -1000, "trial_type": "single-audio", "word": "actress", "stimulus": "/static/audio/wordpool/ACTRESS.wav", "conditions": [12, 1600, "a", 12000], "internal_node_id": "0.0-103.0", "trial": 3, "time_elapsed": 848163, "serialpos": 10, "key_press": -1, "wordID": 5, "type": "PRES_AUD", "trial_index": 139}, "uniqueid": "MTK1351:3YOH7BII0AEMMVTWGOXB08P4CZXKVQ", "dateTime": 1515791784136}, {"current_trial": 140, "trialdata": {"rt": -1000, "trial_type": "single-audio", "word": "church", "stimulus": "/static/audio/wordpool/CHURCH.wav", "conditions": [12, 1600, "a", 12000], "internal_node_id": "0.0-104.0", "trial": 3, "time_elapsed": 850706, "serialpos": 11, "key_press": -1, "wordID": 306, "type": "PRES_AUD", "trial_index": 140}, "uniqueid": "MTK1351:3YOH7BII0AEMMVTWGOXB08P4CZXKVQ", "dateTime": 1515791786679}, {"current_trial": 141, "trialdata": {"rt": -1, "trial_type": "single-stim", "stimulus": "", "internal_node_id": "0.0-105.0-0.0", "time_elapsed": 852072, "key_press": -1, "type": "PRE_RECALL_DELAY", "trial_index": 141}, "uniqueid": "MTK1351:3YOH7BII0AEMMVTWGOXB08P4CZXKVQ", "dateTime": 1515791788045}, {"current_trial": 142, "trialdata": {"rt": -1000, "trial_type": "single-audio", "stimulus": "/static/audio/400Hz.wav", "internal_node_id": "0.0-106.0", "time_elapsed": 852574, "key_press": -1, "type": "PRE_RECALL_ALERT", "trial_index": 142}, "uniqueid": "MTK1351:3YOH7BII0AEMMVTWGOXB08P4CZXKVQ", "dateTime": 1515791788547}, {"current_trial": 143, "trialdata": {"rt": [2580, 4273, 6598, 9467, 16836, 41200, 48353], "recwords": ["church", "chapel", "actress", "chipmunk", "valley", "yellow", "peach"], "key_times": [1209, 1347, 1511, 1596, 2120, 2266, 2580, 3155, 3288, 3426, 3530, 3896, 4020, 4273, 5015, 5269, 5550, 5765, 5904, 6227, 6370, 6598, 7184, 7248, 7373, 7499, 8489, 8737, 8950, 9229, 9467, 15269, 15394, 15570, 15710, 15901, 16344, 16454, 16580, 16836, 40213, 40302, 40517, 40677, 40895, 41041, 41200, 47406, 47569, 47739, 48008, 48145, 48353], "trial_type": "free-recall", "conditions": [12, 1600, "a", 12000], "internal_node_id": "0.0-107.0-0.0", "key_presses": [67, 72, 85, 82, 67, 72, 13, 67, 72, 65, 80, 69, 76, 13, 65, 67, 84, 82, 69, 83, 83, 13, 67, 72, 73, 80, 77, 85, 78, 75, 13, 86, 65, 76, 76, 89, 8, 69, 89, 13, 89, 69, 76, 76, 79, 87, 13, 80, 69, 65, 67, 72, 13], "trial": 3, "time_elapsed": 912578, "type": "FREE_RECALL", "trial_index": 143}, "uniqueid": "MTK1351:3YOH7BII0AEMMVTWGOXB08P4CZXKVQ", "dateTime": 1515791848555}, {"current_trial": 144, "trialdata": {"rt": 1992, "trial_type": "text", "internal_node_id": "0.0-108.0", "time_elapsed": 916576, "key_press": 75, "type": "INSTRUCTIONS", "trial_index": 144}, "uniqueid": "MTK1351:3YOH7BII0AEMMVTWGOXB08P4CZXKVQ", "dateTime": 1515791852549}, {"current_trial": 145, "trialdata": {"rt": [3071, 7123, 9846, 13076, 14883, 17510, 19840, 21876, 23488], "trial_type": "math-distractor", "key_times": [2533, 2794, 3071, 6685, 6934, 7123, 9419, 9615, 9846, 12812, 12925, 13076, 14486, 14730, 14883, 16874, 17254, 17510, 19560, 19686, 19840, 21509, 21653, 21876, 23078, 23273, 23488], "responses": ["18", "21", "10", "15", "15", "20", "21", "20", "11"], "num2": [9, 7, 2, 3, 2, 5, 9, 6, 9, 5], "num3": [6, 6, 6, 7, 8, 6, 5, 9, 1, 6], "conditions": [24, 1600, "a", 24000], "internal_node_id": "0.0-109.0", "key_presses": [49, 56, 13, 50, 49, 13, 49, 48, 13, 49, 53, 13, 49, 53, 13, 50, 48, 13, 50, 49, 13, 50, 48, 13, 49, 49, 13], "trial": 4, "time_elapsed": 942580, "type": "DISTRACTOR", "trial_index": 145, "num1": [3, 8, 2, 5, 5, 9, 7, 5, 1, 6]}, "uniqueid": "MTK1351:3YOH7BII0AEMMVTWGOXB08P4CZXKVQ", "dateTime": 1515791878553}, {"current_trial": 146, "trialdata": {"rt": -1, "trial_type": "single-stim", "stimulus": "<p id=\"stim\">10</p>", "internal_node_id": "0.0-110.0-0.0", "time_elapsed": 945582, "key_press": -1, "trial_index": 146}, "uniqueid": "MTK1351:3YOH7BII0AEMMVTWGOXB08P4CZXKVQ", "dateTime": 1515791881555}, {"current_trial": 147, "trialdata": {"rt": -1, "trial_type": "single-stim", "stimulus": "<p id=\"stim\">9</p>", "internal_node_id": "0.0-110.0-1.0", "time_elapsed": 946584, "key_press": -1, "trial_index": 147}, "uniqueid": "MTK1351:3YOH7BII0AEMMVTWGOXB08P4CZXKVQ", "dateTime": 1515791882557}, {"current_trial": 148, "trialdata": {"rt": -1, "trial_type": "single-stim", "stimulus": "<p id=\"stim\">8</p>", "internal_node_id": "0.0-110.0-2.0", "time_elapsed": 947585, "key_press": -1, "trial_index": 148}, "uniqueid": "MTK1351:3YOH7BII0AEMMVTWGOXB08P4CZXKVQ", "dateTime": 1515791883558}, {"current_trial": 149, "trialdata": {"rt": -1, "trial_type": "single-stim", "stimulus": "<p id=\"stim\">7</p>", "internal_node_id": "0.0-110.0-3.0", "time_elapsed": 948587, "key_press": -1, "trial_index": 149}, "uniqueid": "MTK1351:3YOH7BII0AEMMVTWGOXB08P4CZXKVQ", "dateTime": 1515791884560}, {"current_trial": 150, "trialdata": {"rt": -1, "trial_type": "single-stim", "stimulus": "<p id=\"stim\">6</p>", "internal_node_id": "0.0-110.0-4.0", "time_elapsed": 949589, "key_press": -1, "trial_index": 150}, "uniqueid": "MTK1351:3YOH7BII0AEMMVTWGOXB08P4CZXKVQ", "dateTime": 1515791885562}, {"current_trial": 151, "trialdata": {"rt": -1, "trial_type": "single-stim", "stimulus": "<p id=\"stim\">5</p>", "internal_node_id": "0.0-110.0-5.0", "time_elapsed": 950590, "key_press": -1, "trial_index": 151}, "uniqueid": "MTK1351:3YOH7BII0AEMMVTWGOXB08P4CZXKVQ", "dateTime": 1515791886563}, {"current_trial": 152, "trialdata": {"rt": -1, "trial_type": "single-stim", "stimulus": "<p id=\"stim\">4</p>", "internal_node_id": "0.0-110.0-6.0", "time_elapsed": 951592, "key_press": -1, "trial_index": 152}, "uniqueid": "MTK1351:3YOH7BII0AEMMVTWGOXB08P4CZXKVQ", "dateTime": 1515791887565}, {"current_trial": 153, "trialdata": {"rt": -1, "trial_type": "single-stim", "stimulus": "<p id=\"stim\">3</p>", "internal_node_id": "0.0-110.0-7.0", "time_elapsed": 952593, "key_press": -1, "trial_index": 153}, "uniqueid": "MTK1351:3YOH7BII0AEMMVTWGOXB08P4CZXKVQ", "dateTime": 1515791888567}, {"current_trial": 154, "trialdata": {"rt": -1, "trial_type": "single-stim", "stimulus": "<p id=\"stim\">2</p>", "internal_node_id": "0.0-110.0-8.0", "time_elapsed": 953595, "key_press": -1, "trial_index": 154}, "uniqueid": "MTK1351:3YOH7BII0AEMMVTWGOXB08P4CZXKVQ", "dateTime": 1515791889568}, {"current_trial": 155, "trialdata": {"rt": -1, "trial_type": "single-stim", "stimulus": "<p id=\"stim\">1</p>", "internal_node_id": "0.0-110.0-9.0", "time_elapsed": 954597, "key_press": -1, "trial_index": 155}, "uniqueid": "MTK1351:3YOH7BII0AEMMVTWGOXB08P4CZXKVQ", "dateTime": 1515791890570}, {"current_trial": 156, "trialdata": {"rt": -1, "trial_type": "single-stim", "stimulus": "<p id=\"stim\">+</p>", "internal_node_id": "0.0-111.0-0.0", "time_elapsed": 956098, "key_press": -1, "type": "FIXATION", "trial_index": 156}, "uniqueid": "MTK1351:3YOH7BII0AEMMVTWGOXB08P4CZXKVQ", "dateTime": 1515791892071}, {"current_trial": 157, "trialdata": {"rt": -1000, "trial_type": "single-audio", "word": "quarter", "stimulus": "/static/audio/wordpool/QUARTER.wav", "conditions": [24, 1600, "a", 24000], "internal_node_id": "0.0-112.0", "trial": 4, "time_elapsed": 958746, "serialpos": 0, "key_press": -1, "wordID": 1147, "type": "PRES_AUD", "trial_index": 157}, "uniqueid": "MTK1351:3YOH7BII0AEMMVTWGOXB08P4CZXKVQ", "dateTime": 1515791894719}, {"current_trial": 158, "trialdata": {"rt": -1000, "trial_type": "single-audio", "word": "braces", "stimulus": "/static/audio/wordpool/BRACES.wav", "conditions": [24, 1600, "a", 24000], "internal_node_id": "0.0-113.0", "trial": 4, "time_elapsed": 961441, "serialpos": 1, "key_press": -1, "wordID": 163, "type": "PRES_AUD", "trial_index": 158}, "uniqueid": "MTK1351:3YOH7BII0AEMMVTWGOXB08P4CZXKVQ", "dateTime": 1515791897415}, {"current_trial": 159, "trialdata": {"rt": -1000, "trial_type": "single-audio", "word": "forehead", "stimulus": "/static/audio/wordpool/FOREHEAD.wav", "conditions": [24, 1600, "a", 24000], "internal_node_id": "0.0-114.0", "trial": 4, "time_elapsed": 963885, "serialpos": 2, "key_press": -1, "wordID": 591, "type": "PRES_AUD", "trial_index": 159}, "uniqueid": "MTK1351:3YOH7BII0AEMMVTWGOXB08P4CZXKVQ", "dateTime": 1515791899858}, {"current_trial": 160, "trialdata": {"rt": -1000, "trial_type": "single-audio", "word": "garlic", "stimulus": "/static/audio/wordpool/GARLIC.wav", "conditions": [24, 1600, "a", 24000], "internal_node_id": "0.0-115.0", "trial": 4, "time_elapsed": 966328, "serialpos": 3, "key_press": -1, "wordID": 623, "type": "PRES_AUD", "trial_index": 160}, "uniqueid": "MTK1351:3YOH7BII0AEMMVTWGOXB08P4CZXKVQ", "dateTime": 1515791902301}, {"current_trial": 161, "trialdata": {"rt": -1000, "trial_type": "single-audio", "word": "thief", "stimulus": "/static/audio/wordpool/THIEF.wav", "conditions": [24, 1600, "a", 24000], "internal_node_id": "0.0-116.0", "trial": 4, "time_elapsed": 968901, "serialpos": 4, "key_press": -1, "wordID": 1455, "type": "PRES_AUD", "trial_index": 161}, "uniqueid": "MTK1351:3YOH7BII0AEMMVTWGOXB08P4CZXKVQ", "dateTime": 1515791904874}, {"current_trial": 162, "trialdata": {"rt": -1000, "trial_type": "single-audio", "word": "shirt", "stimulus": "/static/audio/wordpool/SHIRT.wav", "conditions": [24, 1600, "a", 24000], "internal_node_id": "0.0-117.0", "trial": 4, "time_elapsed": 971620, "serialpos": 5, "key_press": -1, "wordID": 1286, "type": "PRES_AUD", "trial_index": 162}, "uniqueid": "MTK1351:3YOH7BII0AEMMVTWGOXB08P4CZXKVQ", "dateTime": 1515791907593}, {"current_trial": 163, "trialdata": {"rt": -1000, "trial_type": "single-audio", "word": "label", "stimulus": "/static/audio/wordpool/LABEL.wav", "conditions": [24, 1600, "a", 24000], "internal_node_id": "0.0-118.0", "trial": 4, "time_elapsed": 974145, "serialpos": 6, "key_press": -1, "wordID": 789, "type": "PRES_AUD", "trial_index": 163}, "uniqueid": "MTK1351:3YOH7BII0AEMMVTWGOXB08P4CZXKVQ", "dateTime": 1515791910118}, {"current_trial": 164, "trialdata": {"rt": -1000, "trial_type": "single-audio", "word": "widow", "stimulus": "/static/audio/wordpool/WIDOW.wav", "conditions": [24, 1600, "a", 24000], "internal_node_id": "0.0-119.0", "trial": 4, "time_elapsed": 976652, "serialpos": 7, "key_press": -1, "wordID": 1607, "type": "PRES_AUD", "trial_index": 164}, "uniqueid": "MTK1351:3YOH7BII0AEMMVTWGOXB08P4CZXKVQ", "dateTime": 1515791912626}, {"current_trial": 165, "trialdata": {"rt": -1000, "trial_type": "single-audio", "word": "uncle", "stimulus": "/static/audio/wordpool/UNCLE.wav", "conditions": [24, 1600, "a", 24000], "internal_node_id": "0.0-120.0", "trial": 4, "time_elapsed": 979147, "serialpos": 8, "key_press": -1, "wordID": 1535, "type": "PRES_AUD", "trial_index": 165}, "uniqueid": "MTK1351:3YOH7BII0AEMMVTWGOXB08P4CZXKVQ", "dateTime": 1515791915120}, {"current_trial": 166, "trialdata": {"rt": -1000, "trial_type": "single-audio", "word": "rabbit", "stimulus": "/static/audio/wordpool/RABBIT.wav", "conditions": [24, 1600, "a", 24000], "internal_node_id": "0.0-121.0", "trial": 4, "time_elapsed": 981810, "serialpos": 9, "key_press": -1, "wordID": 1151, "type": "PRES_AUD", "trial_index": 166}, "uniqueid": "MTK1351:3YOH7BII0AEMMVTWGOXB08P4CZXKVQ", "dateTime": 1515791917783}, {"current_trial": 167, "trialdata": {"rt": -1000, "trial_type": "single-audio", "word": "burglar", "stimulus": "/static/audio/wordpool/BURGLAR.wav", "conditions": [24, 1600, "a", 24000], "internal_node_id": "0.0-122.0", "trial": 4, "time_elapsed": 984587, "serialpos": 10, "key_press": -1, "wordID": 199, "type": "PRES_AUD", "trial_index": 167}, "uniqueid": "MTK1351:3YOH7BII0AEMMVTWGOXB08P4CZXKVQ", "dateTime": 1515791920561}, {"current_trial": 168, "trialdata": {"rt": -1000, "trial_type": "single-audio", "word": "ointment", "stimulus": "/static/audio/wordpool/OINTMENT.wav", "conditions": [24, 1600, "a", 24000], "internal_node_id": "0.0-123.0", "trial": 4, "time_elapsed": 987320, "serialpos": 11, "key_press": -1, "wordID": 973, "type": "PRES_AUD", "trial_index": 168}, "uniqueid": "MTK1351:3YOH7BII0AEMMVTWGOXB08P4CZXKVQ", "dateTime": 1515791923293}, {"current_trial": 169, "trialdata": {"rt": -1000, "trial_type": "single-audio", "word": "necklace", "stimulus": "/static/audio/wordpool/NECKLACE.wav", "conditions": [24, 1600, "a", 24000], "internal_node_id": "0.0-124.0", "trial": 4, "time_elapsed": 989769, "serialpos": 12, "key_press": -1, "wordID": 939, "type": "PRES_AUD", "trial_index": 169}, "uniqueid": "MTK1351:3YOH7BII0AEMMVTWGOXB08P4CZXKVQ", "dateTime": 1515791925742}, {"current_trial": 170, "trialdata": {"rt": -1000, "trial_type": "single-audio", "word": "diner", "stimulus": "/static/audio/wordpool/DINER.wav", "conditions": [24, 1600, "a", 24000], "internal_node_id": "0.0-125.0", "trial": 4, "time_elapsed": 992268, "serialpos": 13, "key_press": -1, "wordID": 466, "type": "PRES_AUD", "trial_index": 170}, "uniqueid": "MTK1351:3YOH7BII0AEMMVTWGOXB08P4CZXKVQ", "dateTime": 1515791928242}, {"current_trial": 171, "trialdata": {"rt": -1000, "trial_type": "single-audio", "word": "tile", "stimulus": "/static/audio/wordpool/TILE.wav", "conditions": [24, 1600, "a", 24000], "internal_node_id": "0.0-126.0", "trial": 4, "time_elapsed": 995042, "serialpos": 14, "key_press": -1, "wordID": 1467, "type": "PRES_AUD", "trial_index": 171}, "uniqueid": "MTK1351:3YOH7BII0AEMMVTWGOXB08P4CZXKVQ", "dateTime": 1515791931016}, {"current_trial": 172, "trialdata": {"rt": -1000, "trial_type": "single-audio", "word": "barley", "stimulus": "/static/audio/wordpool/BARLEY.wav", "conditions": [24, 1600, "a", 24000], "internal_node_id": "0.0-127.0", "trial": 4, "time_elapsed": 997535, "serialpos": 15, "key_press": -1, "wordID": 87, "type": "PRES_AUD", "trial_index": 172}, "uniqueid": "MTK1351:3YOH7BII0AEMMVTWGOXB08P4CZXKVQ", "dateTime": 1515791933509}, {"current_trial": 173, "trialdata": {"rt": -1000, "trial_type": "single-audio", "word": "husband", "stimulus": "/static/audio/wordpool/HUSBAND.wav", "conditions": [24, 1600, "a", 24000], "internal_node_id": "0.0-128.0", "trial": 4, "time_elapsed": 1000207, "serialpos": 16, "key_press": -1, "wordID": 727, "type": "PRES_AUD", "trial_index": 173}, "uniqueid": "MTK1351:3YOH7BII0AEMMVTWGOXB08P4CZXKVQ", "dateTime": 1515791936180}, {"current_trial": 174, "trialdata": {"rt": -1000, "trial_type": "single-audio", "word": "kidney", "stimulus": "/static/audio/wordpool/KIDNEY.wav", "conditions": [24, 1600, "a", 24000], "internal_node_id": "0.0-129.0", "trial": 4, "time_elapsed": 1002609, "serialpos": 17, "key_press": -1, "wordID": 775, "type": "PRES_AUD", "trial_index": 174}, "uniqueid": "MTK1351:3YOH7BII0AEMMVTWGOXB08P4CZXKVQ", "dateTime": 1515791938582}, {"current_trial": 175, "trialdata": {"rt": -1000, "trial_type": "single-audio", "word": "cafe", "stimulus": "/static/audio/wordpool/CAFE.wav", "conditions": [24, 1600, "a", 24000], "internal_node_id": "0.0-130.0", "trial": 4, "time_elapsed": 1005235, "serialpos": 18, "key_press": -1, "wordID": 215, "type": "PRES_AUD", "trial_index": 175}, "uniqueid": "MTK1351:3YOH7BII0AEMMVTWGOXB08P4CZXKVQ", "dateTime": 1515791941208}, {"current_trial": 176, "trialdata": {"rt": -1000, "trial_type": "single-audio", "word": "lake", "stimulus": "/static/audio/wordpool/LAKE.wav", "conditions": [24, 1600, "a", 24000], "internal_node_id": "0.0-131.0", "trial": 4, "time_elapsed": 1008009, "serialpos": 19, "key_press": -1, "wordID": 795, "type": "PRES_AUD", "trial_index": 176}, "uniqueid": "MTK1351:3YOH7BII0AEMMVTWGOXB08P4CZXKVQ", "dateTime": 1515791943983}, {"current_trial": 177, "trialdata": {"rt": -1000, "trial_type": "single-audio", "word": "marsh", "stimulus": "/static/audio/wordpool/MARSH.wav", "conditions": [24, 1600, "a", 24000], "internal_node_id": "0.0-132.0", "trial": 4, "time_elapsed": 1010575, "serialpos": 20, "key_press": -1, "wordID": 873, "type": "PRES_AUD", "trial_index": 177}, "uniqueid": "MTK1351:3YOH7BII0AEMMVTWGOXB08P4CZXKVQ", "dateTime": 1515791946548}, {"current_trial": 178, "trialdata": {"rt": -1000, "trial_type": "single-audio", "word": "coin", "stimulus": "/static/audio/wordpool/COIN.wav", "conditions": [24, 1600, "a", 24000], "internal_node_id": "0.0-133.0", "trial": 4, "time_elapsed": 1013054, "serialpos": 21, "key_press": -1, "wordID": 342, "type": "PRES_AUD", "trial_index": 178}, "uniqueid": "MTK1351:3YOH7BII0AEMMVTWGOXB08P4CZXKVQ", "dateTime": 1515791949028}, {"current_trial": 179, "trialdata": {"rt": -1000, "trial_type": "single-audio", "word": "pizza", "stimulus": "/static/audio/wordpool/PIZZA.wav", "conditions": [24, 1600, "a", 24000], "internal_node_id": "0.0-134.0", "trial": 4, "time_elapsed": 1015753, "serialpos": 22, "key_press": -1, "wordID": 1078, "type": "PRES_AUD", "trial_index": 179}, "uniqueid": "MTK1351:3YOH7BII0AEMMVTWGOXB08P4CZXKVQ", "dateTime": 1515791951730}, {"current_trial": 180, "trialdata": {"rt": -1000, "trial_type": "single-audio", "word": "skillet", "stimulus": "/static/audio/wordpool/SKILLET.wav", "conditions": [24, 1600, "a", 24000], "internal_node_id": "0.0-135.0", "trial": 4, "time_elapsed": 1018305, "serialpos": 23, "key_press": -1, "wordID": 1316, "type": "PRES_AUD", "trial_index": 180}, "uniqueid": "MTK1351:3YOH7BII0AEMMVTWGOXB08P4CZXKVQ", "dateTime": 1515791954278}, {"current_trial": 181, "trialdata": {"rt": -1, "trial_type": "single-stim", "stimulus": "", "internal_node_id": "0.0-136.0-0.0", "time_elapsed": 1019668, "key_press": -1, "type": "PRE_RECALL_DELAY", "trial_index": 181}, "uniqueid": "MTK1351:3YOH7BII0AEMMVTWGOXB08P4CZXKVQ", "dateTime": 1515791955641}, {"current_trial": 182, "trialdata": {"rt": -1000, "trial_type": "single-audio", "stimulus": "/static/audio/400Hz.wav", "internal_node_id": "0.0-137.0", "time_elapsed": 1020170, "key_press": -1, "type": "PRE_RECALL_ALERT", "trial_index": 182}, "uniqueid": "MTK1351:3YOH7BII0AEMMVTWGOXB08P4CZXKVQ", "dateTime": 1515791956144}, {"current_trial": 183, "trialdata": {"rt": [3339, 4892, 8097, 9902, 11870, 19266, 26536], "recwords": ["quarter", "coin", "husband", "marsh", "skillet", "cafe", "marsh"], "key_times": [2046, 2161, 2413, 2525, 2768, 3048, 3122, 3339, 4236, 4362, 4481, 4674, 4892, 5528, 5669, 6004, 6340, 6946, 7216, 7344, 7472, 7653, 8097, 8975, 9062, 9190, 9603, 9697, 9902, 10628, 10728, 10896, 11163, 11300, 11531, 11698, 11870, 18512, 18669, 18986, 19125, 19266, 25533, 25658, 25810, 26228, 26320, 26536], "trial_type": "free-recall", "conditions": [24, 1600, "a", 24000], "internal_node_id": "0.0-138.0-0.0", "key_presses": [81, 85, 65, 82, 84, 69, 82, 13, 67, 79, 73, 78, 13, 72, 85, 83, 71, 8, 66, 65, 78, 68, 13, 77, 65, 82, 83, 72, 13, 83, 75, 73, 76, 76, 69, 84, 13, 67, 65, 70, 69, 13, 77, 65, 82, 83, 72, 13], "trial": 4, "time_elapsed": 1080175, "type": "FREE_RECALL", "trial_index": 183}, "uniqueid": "MTK1351:3YOH7BII0AEMMVTWGOXB08P4CZXKVQ", "dateTime": 1515792016154}, {"current_trial": 184, "trialdata": {"rt": 990, "trial_type": "text", "internal_node_id": "0.0-139.0", "time_elapsed": 1083174, "key_press": 75, "type": "INSTRUCTIONS", "trial_index": 184}, "uniqueid": "MTK1351:3YOH7BII0AEMMVTWGOXB08P4CZXKVQ", "dateTime": 1515792019147}, {"current_trial": 185, "trialdata": {"rt": [2285, 5030, 6668, 9154, 11087], "trial_type": "math-distractor", "key_times": [1944, 2061, 2285, 4252, 4735, 5030, 6251, 6445, 6668, 8037, 8307, 8625, 8859, 9154, 10757, 11087], "responses": ["10", "16", "14", "17", "7"], "num2": [6, 5, 3, 8, 2, 5], "num3": [3, 5, 4, 2, 3, 1], "conditions": [12, 1600, "a", 12000], "internal_node_id": "0.0-140.0", "key_presses": [49, 48, 13, 49, 54, 13, 49, 52, 13, 49, 56, 8, 55, 13, 55, 13], "trial": 5, "time_elapsed": 1097178, "type": "DISTRACTOR", "trial_index": 185, "num1": [1, 6, 7, 7, 2, 3]}, "uniqueid": "MTK1351:3YOH7BII0AEMMVTWGOXB08P4CZXKVQ", "dateTime": 1515792033152}, {"current_trial": 186, "trialdata": {"rt": -1, "trial_type": "single-stim", "stimulus": "<p id=\"stim\">10</p>", "internal_node_id": "0.0-141.0-0.0", "time_elapsed": 1100180, "key_press": -1, "trial_index": 186}, "uniqueid": "MTK1351:3YOH7BII0AEMMVTWGOXB08P4CZXKVQ", "dateTime": 1515792036154}, {"current_trial": 187, "trialdata": {"rt": -1, "trial_type": "single-stim", "stimulus": "<p id=\"stim\">9</p>", "internal_node_id": "0.0-141.0-1.0", "time_elapsed": 1101182, "key_press": -1, "trial_index": 187}, "uniqueid": "MTK1351:3YOH7BII0AEMMVTWGOXB08P4CZXKVQ", "dateTime": 1515792037155}, {"current_trial": 188, "trialdata": {"rt": -1, "trial_type": "single-stim", "stimulus": "<p id=\"stim\">8</p>", "internal_node_id": "0.0-141.0-2.0", "time_elapsed": 1102183, "key_press": -1, "trial_index": 188}, "uniqueid": "MTK1351:3YOH7BII0AEMMVTWGOXB08P4CZXKVQ", "dateTime": 1515792038156}, {"current_trial": 189, "trialdata": {"rt": -1, "trial_type": "single-stim", "stimulus": "<p id=\"stim\">7</p>", "internal_node_id": "0.0-141.0-3.0", "time_elapsed": 1103184, "key_press": -1, "trial_index": 189}, "uniqueid": "MTK1351:3YOH7BII0AEMMVTWGOXB08P4CZXKVQ", "dateTime": 1515792039158}, {"current_trial": 190, "trialdata": {"rt": -1, "trial_type": "single-stim", "stimulus": "<p id=\"stim\">6</p>", "internal_node_id": "0.0-141.0-4.0", "time_elapsed": 1104186, "key_press": -1, "trial_index": 190}, "uniqueid": "MTK1351:3YOH7BII0AEMMVTWGOXB08P4CZXKVQ", "dateTime": 1515792040159}, {"current_trial": 191, "trialdata": {"rt": -1, "trial_type": "single-stim", "stimulus": "<p id=\"stim\">5</p>", "internal_node_id": "0.0-141.0-5.0", "time_elapsed": 1105188, "key_press": -1, "trial_index": 191}, "uniqueid": "MTK1351:3YOH7BII0AEMMVTWGOXB08P4CZXKVQ", "dateTime": 1515792041161}, {"current_trial": 192, "trialdata": {"rt": -1, "trial_type": "single-stim", "stimulus": "<p id=\"stim\">4</p>", "internal_node_id": "0.0-141.0-6.0", "time_elapsed": 1106191, "key_press": -1, "trial_index": 192}, "uniqueid": "MTK1351:3YOH7BII0AEMMVTWGOXB08P4CZXKVQ", "dateTime": 1515792042164}, {"current_trial": 193, "trialdata": {"rt": -1, "trial_type": "single-stim", "stimulus": "<p id=\"stim\">3</p>", "internal_node_id": "0.0-141.0-7.0", "time_elapsed": 1107193, "key_press": -1, "trial_index": 193}, "uniqueid": "MTK1351:3YOH7BII0AEMMVTWGOXB08P4CZXKVQ", "dateTime": 1515792043166}, {"current_trial": 194, "trialdata": {"rt": -1, "trial_type": "single-stim", "stimulus": "<p id=\"stim\">2</p>", "internal_node_id": "0.0-141.0-8.0", "time_elapsed": 1108194, "key_press": -1, "trial_index": 194}, "uniqueid": "MTK1351:3YOH7BII0AEMMVTWGOXB08P4CZXKVQ", "dateTime": 1515792044167}, {"current_trial": 195, "trialdata": {"rt": -1, "trial_type": "single-stim", "stimulus": "<p id=\"stim\">1</p>", "internal_node_id": "0.0-141.0-9.0", "time_elapsed": 1109196, "key_press": -1, "trial_index": 195}, "uniqueid": "MTK1351:3YOH7BII0AEMMVTWGOXB08P4CZXKVQ", "dateTime": 1515792045169}, {"current_trial": 196, "trialdata": {"rt": -1, "trial_type": "single-stim", "stimulus": "<p id=\"stim\">+</p>", "internal_node_id": "0.0-142.0-0.0", "time_elapsed": 1110698, "key_press": -1, "type": "FIXATION", "trial_index": 196}, "uniqueid": "MTK1351:3YOH7BII0AEMMVTWGOXB08P4CZXKVQ", "dateTime": 1515792046671}, {"current_trial": 197, "trialdata": {"rt": -1000, "trial_type": "single-audio", "word": "woman", "stimulus": "/static/audio/wordpool/WOMAN.wav", "conditions": [12, 1600, "a", 12000], "internal_node_id": "0.0-143.0", "trial": 5, "time_elapsed": 1113313, "serialpos": 0, "key_press": -1, "wordID": 1619, "type": "PRES_AUD", "trial_index": 197}, "uniqueid": "MTK1351:3YOH7BII0AEMMVTWGOXB08P4CZXKVQ", "dateTime": 1515792049286}, {"current_trial": 198, "trialdata": {"rt": -1000, "trial_type": "single-audio", "word": "cottage", "stimulus": "/static/audio/wordpool/COTTAGE.wav", "conditions": [12, 1600, "a", 12000], "internal_node_id": "0.0-144.0", "trial": 5, "time_elapsed": 1115848, "serialpos": 1, "key_press": -1, "wordID": 383, "type": "PRES_AUD", "trial_index": 198}, "uniqueid": "MTK1351:3YOH7BII0AEMMVTWGOXB08P4CZXKVQ", "dateTime": 1515792051821}, {"current_trial": 199, "trialdata": {"rt": -1000, "trial_type": "single-audio", "word": "bank", "stimulus": "/static/audio/wordpool/BANK.wav", "conditions": [12, 1600, "a", 12000], "internal_node_id": "0.0-145.0", "trial": 5, "time_elapsed": 1118335, "serialpos": 2, "key_press": -1, "wordID": 82, "type": "PRES_AUD", "trial_index": 199}, "uniqueid": "MTK1351:3YOH7BII0AEMMVTWGOXB08P4CZXKVQ", "dateTime": 1515792054308}, {"current_trial": 200, "trialdata": {"rt": -1000, "trial_type": "single-audio", "word": "mustard", "stimulus": "/static/audio/wordpool/MUSTARD.wav", "conditions": [12, 1600, "a", 12000], "internal_node_id": "0.0-146.0", "trial": 5, "time_elapsed": 1120766, "serialpos": 3, "key_press": -1, "wordID": 934, "type": "PRES_AUD", "trial_index": 200}, "uniqueid": "MTK1351:3YOH7BII0AEMMVTWGOXB08P4CZXKVQ", "dateTime": 1515792056740}, {"current_trial": 201, "trialdata": {"rt": -1000, "trial_type": "single-audio", "word": "powder", "stimulus": "/static/audio/wordpool/POWDER.wav", "conditions": [12, 1600, "a", 12000], "internal_node_id": "0.0-147.0", "trial": 5, "time_elapsed": 1123202, "serialpos": 4, "key_press": -1, "wordID": 1116, "type": "PRES_AUD", "trial_index": 201}, "uniqueid": "MTK1351:3YOH7BII0AEMMVTWGOXB08P4CZXKVQ", "dateTime": 1515792059176}, {"current_trial": 202, "trialdata": {"rt": -1000, "trial_type": "single-audio", "word": "lady", "stimulus": "/static/audio/wordpool/LADY.wav", "conditions": [12, 1600, "a", 12000], "internal_node_id": "0.0-148.0", "trial": 5, "time_elapsed": 1125708, "serialpos": 5, "key_press": -1, "wordID": 793, "type": "PRES_AUD", "trial_index": 202}, "uniqueid": "MTK1351:3YOH7BII0AEMMVTWGOXB08P4CZXKVQ", "dateTime": 1515792061681}, {"current_trial": 203, "trialdata": {"rt": -1000, "trial_type": "single-audio", "word": "pepper", "stimulus": "/static/audio/wordpool/PEPPER.wav", "conditions": [12, 1600, "a", 12000], "internal_node_id": "0.0-149.0", "trial": 5, "time_elapsed": 1128262, "serialpos": 6, "key_press": -1, "wordID": 1046, "type": "PRES_AUD", "trial_index": 203}, "uniqueid": "MTK1351:3YOH7BII0AEMMVTWGOXB08P4CZXKVQ", "dateTime": 1515792064236}, {"current_trial": 204, "trialdata": {"rt": -1000, "trial_type": "single-audio", "word": "harp", "stimulus": "/static/audio/wordpool/HARP.wav", "conditions": [12, 1600, "a", 12000], "internal_node_id": "0.0-150.0", "trial": 5, "time_elapsed": 1130951, "serialpos": 7, "key_press": -1, "wordID": 688, "type": "PRES_AUD", "trial_index": 204}, "uniqueid": "MTK1351:3YOH7BII0AEMMVTWGOXB08P4CZXKVQ", "dateTime": 1515792066924}, {"current_trial": 205, "trialdata": {"rt": -1000, "trial_type": "single-audio", "word": "forest", "stimulus": "/static/audio/wordpool/FOREST.wav", "conditions": [12, 1600, "a", 12000], "internal_node_id": "0.0-151.0", "trial": 5, "time_elapsed": 1133672, "serialpos": 8, "key_press": -1, "wordID": 592, "type": "PRES_AUD", "trial_index": 205}, "uniqueid": "MTK1351:3YOH7BII0AEMMVTWGOXB08P4CZXKVQ", "dateTime": 1515792069646}, {"current_trial": 206, "trialdata": {"rt": -1000, "trial_type": "single-audio", "word": "orchid", "stimulus": "/static/audio/wordpool/ORCHID.wav", "conditions": [12, 1600, "a", 12000], "internal_node_id": "0.0-152.0", "trial": 5, "time_elapsed": 1136343, "serialpos": 9, "key_press": -1, "wordID": 981, "type": "PRES_AUD", "trial_index": 206}, "uniqueid": "MTK1351:3YOH7BII0AEMMVTWGOXB08P4CZXKVQ", "dateTime": 1515792072316}, {"current_trial": 207, "trialdata": {"rt": -1000, "trial_type": "single-audio", "word": "shrub", "stimulus": "/static/audio/wordpool/SHRUB.wav", "conditions": [12, 1600, "a", 12000], "internal_node_id": "0.0-153.0", "trial": 5, "time_elapsed": 1138818, "serialpos": 10, "key_press": -1, "wordID": 1298, "type": "PRES_AUD", "trial_index": 207}, "uniqueid": "MTK1351:3YOH7BII0AEMMVTWGOXB08P4CZXKVQ", "dateTime": 1515792074791}, {"current_trial": 208, "trialdata": {"rt": -1000, "trial_type": "single-audio", "word": "piano", "stimulus": "/static/audio/wordpool/PIANO.wav", "conditions": [12, 1600, "a", 12000], "internal_node_id": "0.0-154.0", "trial": 5, "time_elapsed": 1141239, "serialpos": 11, "key_press": -1, "wordID": 1056, "type": "PRES_AUD", "trial_index": 208}, "uniqueid": "MTK1351:3YOH7BII0AEMMVTWGOXB08P4CZXKVQ", "dateTime": 1515792077212}, {"current_trial": 209, "trialdata": {"rt": -1, "trial_type": "single-stim", "stimulus": "", "internal_node_id": "0.0-155.0-0.0", "time_elapsed": 1142604, "key_press": -1, "type": "PRE_RECALL_DELAY", "trial_index": 209}, "uniqueid": "MTK1351:3YOH7BII0AEMMVTWGOXB08P4CZXKVQ", "dateTime": 1515792078578}, {"current_trial": 210, "trialdata": {"rt": -1000, "trial_type": "single-audio", "stimulus": "/static/audio/400Hz.wav", "internal_node_id": "0.0-156.0", "time_elapsed": 1143106, "key_press": -1, "type": "PRE_RECALL_ALERT", "trial_index": 210}, "uniqueid": "MTK1351:3YOH7BII0AEMMVTWGOXB08P4CZXKVQ", "dateTime": 1515792079079}, {"current_trial": 211, "trialdata": {"rt": [1545, 3023, 4425, 7762, 13065, 17265, 26980, 37766, 43662, 45500, 53049], "recwords": ["lady", "forest", "shrub", "piano", "pup", "woman", "pup", "orchid", "mustard", "powder", "lady"], "key_times": [742, 816, 986, 1117, 1545, 1897, 2007, 2106, 2307, 2587, 2708, 3023, 3407, 3566, 3710, 3852, 4277, 4425, 4793, 4940, 5089, 5251, 5497, 5675, 5870, 6030, 6291, 6579, 6784, 6909, 7452, 7762, 12408, 12568, 12762, 13065, 16567, 16635, 16816, 16957, 17054, 17265, 24749, 24904, 25838, 26980, 36240, 36311, 36671, 36792, 36922, 37560, 37766, 41390, 41578, 41687, 41904, 42354, 42478, 42682, 43356, 43474, 43662, 44046, 44290, 44431, 44930, 45245, 45322, 45500, 51156, 51233, 51417, 51535, 51667, 52358, 52513, 52734, 53049], "trial_type": "free-recall", "conditions": [12, 1600, "a", 12000], "internal_node_id": "0.0-157.0-0.0", "key_presses": [76, 65, 68, 89, 13, 70, 79, 82, 69, 83, 84, 13, 83, 72, 82, 85, 66, 13, 219, 73, 65, 78, 8, 8, 8, 8, 80, 73, 65, 78, 79, 13, 80, 85, 80, 13, 87, 79, 77, 65, 78, 13, 80, 85, 80, 13, 79, 82, 67, 72, 73, 68, 13, 77, 85, 83, 84, 65, 82, 84, 8, 68, 13, 80, 79, 87, 68, 69, 82, 13, 76, 65, 68, 73, 69, 8, 8, 89, 13], "trial": 5, "time_elapsed": 1203110, "type": "FREE_RECALL", "trial_index": 211}, "uniqueid": "MTK1351:3YOH7BII0AEMMVTWGOXB08P4CZXKVQ", "dateTime": 1515792139089}, {"current_trial": 212, "trialdata": {"rt": 3594, "trial_type": "text", "internal_node_id": "0.0-158.0", "time_elapsed": 1208713, "key_press": 75, "type": "INSTRUCTIONS", "trial_index": 212}, "uniqueid": "MTK1351:3YOH7BII0AEMMVTWGOXB08P4CZXKVQ", "dateTime": 1515792144687}, {"current_trial": 213, "trialdata": {"rt": [3212, 5642, 8615, 11419, 13100, 14693, 18058, 19716, 21685, 23955], "trial_type": "math-distractor", "key_times": [2973, 3087, 3212, 5398, 5474, 5642, 8208, 8337, 8615, 10695, 11177, 11419, 12600, 12952, 13100, 14433, 14572, 14693, 16925, 17852, 18058, 19409, 19574, 19716, 21375, 21507, 21685, 23698, 23786, 23955], "responses": ["21", "24", "19", "16", "15", "21", "16", "11", "14", "20"], "num2": [9, 8, 7, 6, 1, 7, 7, 1, 3, 6, 4], "num3": [8, 6, 6, 3, 5, 7, 2, 5, 3, 7, 8], "conditions": [24, 1600, "a", 24000], "internal_node_id": "0.0-159.0", "key_presses": [50, 49, 13, 50, 52, 13, 49, 57, 13, 49, 54, 13, 49, 53, 13, 50, 49, 13, 49, 54, 13, 49, 49, 13, 49, 52, 13, 50, 48, 13], "trial": 6, "time_elapsed": 1234717, "type": "DISTRACTOR", "trial_index": 213, "num1": [4, 8, 6, 7, 9, 7, 7, 5, 8, 7, 2]}, "uniqueid": "MTK1351:3YOH7BII0AEMMVTWGOXB08P4CZXKVQ", "dateTime": 1515792170691}, {"current_trial": 214, "trialdata": {"rt": -1, "trial_type": "single-stim", "stimulus": "<p id=\"stim\">10</p>", "internal_node_id": "0.0-160.0-0.0", "time_elapsed": 1237720, "key_press": -1, "trial_index": 214}, "uniqueid": "MTK1351:3YOH7BII0AEMMVTWGOXB08P4CZXKVQ", "dateTime": 1515792173693}, {"current_trial": 215, "trialdata": {"rt": -1, "trial_type": "single-stim", "stimulus": "<p id=\"stim\">9</p>", "internal_node_id": "0.0-160.0-1.0", "time_elapsed": 1238721, "key_press": -1, "trial_index": 215}, "uniqueid": "MTK1351:3YOH7BII0AEMMVTWGOXB08P4CZXKVQ", "dateTime": 1515792174695}, {"current_trial": 216, "trialdata": {"rt": -1, "trial_type": "single-stim", "stimulus": "<p id=\"stim\">8</p>", "internal_node_id": "0.0-160.0-2.0", "time_elapsed": 1239723, "key_press": -1, "trial_index": 216}, "uniqueid": "MTK1351:3YOH7BII0AEMMVTWGOXB08P4CZXKVQ", "dateTime": 1515792175696}, {"current_trial": 217, "trialdata": {"rt": -1, "trial_type": "single-stim", "stimulus": "<p id=\"stim\">7</p>", "internal_node_id": "0.0-160.0-3.0", "time_elapsed": 1240724, "key_press": -1, "trial_index": 217}, "uniqueid": "MTK1351:3YOH7BII0AEMMVTWGOXB08P4CZXKVQ", "dateTime": 1515792176699}, {"current_trial": 218, "trialdata": {"rt": -1, "trial_type": "single-stim", "stimulus": "<p id=\"stim\">6</p>", "internal_node_id": "0.0-160.0-4.0", "time_elapsed": 1241727, "key_press": -1, "trial_index": 218}, "uniqueid": "MTK1351:3YOH7BII0AEMMVTWGOXB08P4CZXKVQ", "dateTime": 1515792177700}, {"current_trial": 219, "trialdata": {"rt": -1, "trial_type": "single-stim", "stimulus": "<p id=\"stim\">5</p>", "internal_node_id": "0.0-160.0-5.0", "time_elapsed": 1242729, "key_press": -1, "trial_index": 219}, "uniqueid": "MTK1351:3YOH7BII0AEMMVTWGOXB08P4CZXKVQ", "dateTime": 1515792178702}, {"current_trial": 220, "trialdata": {"rt": -1, "trial_type": "single-stim", "stimulus": "<p id=\"stim\">4</p>", "internal_node_id": "0.0-160.0-6.0", "time_elapsed": 1243730, "key_press": -1, "trial_index": 220}, "uniqueid": "MTK1351:3YOH7BII0AEMMVTWGOXB08P4CZXKVQ", "dateTime": 1515792179704}, {"current_trial": 221, "trialdata": {"rt": -1, "trial_type": "single-stim", "stimulus": "<p id=\"stim\">3</p>", "internal_node_id": "0.0-160.0-7.0", "time_elapsed": 1244732, "key_press": -1, "trial_index": 221}, "uniqueid": "MTK1351:3YOH7BII0AEMMVTWGOXB08P4CZXKVQ", "dateTime": 1515792180706}, {"current_trial": 222, "trialdata": {"rt": -1, "trial_type": "single-stim", "stimulus": "<p id=\"stim\">2</p>", "internal_node_id": "0.0-160.0-8.0", "time_elapsed": 1245734, "key_press": -1, "trial_index": 222}, "uniqueid": "MTK1351:3YOH7BII0AEMMVTWGOXB08P4CZXKVQ", "dateTime": 1515792181707}, {"current_trial": 223, "trialdata": {"rt": -1, "trial_type": "single-stim", "stimulus": "<p id=\"stim\">1</p>", "internal_node_id": "0.0-160.0-9.0", "time_elapsed": 1246735, "key_press": -1, "trial_index": 223}, "uniqueid": "MTK1351:3YOH7BII0AEMMVTWGOXB08P4CZXKVQ", "dateTime": 1515792182709}, {"current_trial": 224, "trialdata": {"rt": -1, "trial_type": "single-stim", "stimulus": "<p id=\"stim\">+</p>", "internal_node_id": "0.0-161.0-0.0", "time_elapsed": 1248237, "key_press": -1, "type": "FIXATION", "trial_index": 224}, "uniqueid": "MTK1351:3YOH7BII0AEMMVTWGOXB08P4CZXKVQ", "dateTime": 1515792184210}, {"current_trial": 225, "trialdata": {"rt": -1000, "trial_type": "single-audio", "word": "dress", "stimulus": "/static/audio/wordpool/DRESS.wav", "conditions": [24, 1600, "a", 24000], "internal_node_id": "0.0-162.0", "trial": 6, "time_elapsed": 1250788, "serialpos": 0, "key_press": -1, "wordID": 494, "type": "PRES_AUD", "trial_index": 225}, "uniqueid": "MTK1351:3YOH7BII0AEMMVTWGOXB08P4CZXKVQ", "dateTime": 1515792186761}, {"current_trial": 226, "trialdata": {"rt": -1000, "trial_type": "single-audio", "word": "agent", "stimulus": "/static/audio/wordpool/AGENT.wav", "conditions": [24, 1600, "a", 24000], "internal_node_id": "0.0-163.0", "trial": 6, "time_elapsed": 1253382, "serialpos": 1, "key_press": -1, "wordID": 9, "type": "PRES_AUD", "trial_index": 226}, "uniqueid": "MTK1351:3YOH7BII0AEMMVTWGOXB08P4CZXKVQ", "dateTime": 1515792189356}, {"current_trial": 227, "trialdata": {"rt": -1000, "trial_type": "single-audio", "word": "silk", "stimulus": "/static/audio/wordpool/SILK.wav", "conditions": [24, 1600, "a", 24000], "internal_node_id": "0.0-164.0", "trial": 6, "time_elapsed": 1255994, "serialpos": 2, "key_press": -1, "wordID": 1306, "type": "PRES_AUD", "trial_index": 227}, "uniqueid": "MTK1351:3YOH7BII0AEMMVTWGOXB08P4CZXKVQ", "dateTime": 1515792191968}, {"current_trial": 228, "trialdata": {"rt": -1000, "trial_type": "single-audio", "word": "lace", "stimulus": "/static/audio/wordpool/LACE.wav", "conditions": [24, 1600, "a", 24000], "internal_node_id": "0.0-165.0", "trial": 6, "time_elapsed": 1258703, "serialpos": 3, "key_press": -1, "wordID": 791, "type": "PRES_AUD", "trial_index": 228}, "uniqueid": "MTK1351:3YOH7BII0AEMMVTWGOXB08P4CZXKVQ", "dateTime": 1515792194676}, {"current_trial": 229, "trialdata": {"rt": -1000, "trial_type": "single-audio", "word": "inmate", "stimulus": "/static/audio/wordpool/INMATE.wav", "conditions": [24, 1600, "a", 24000], "internal_node_id": "0.0-166.0", "trial": 6, "time_elapsed": 1261470, "serialpos": 4, "key_press": -1, "wordID": 737, "type": "PRES_AUD", "trial_index": 229}, "uniqueid": "MTK1351:3YOH7BII0AEMMVTWGOXB08P4CZXKVQ", "dateTime": 1515792197443}, {"current_trial": 230, "trialdata": {"rt": -1000, "trial_type": "single-audio", "word": "shark", "stimulus": "/static/audio/wordpool/SHARK.wav", "conditions": [24, 1600, "a", 24000], "internal_node_id": "0.0-167.0", "trial": 6, "time_elapsed": 1264149, "serialpos": 5, "key_press": -1, "wordID": 1274, "type": "PRES_AUD", "trial_index": 230}, "uniqueid": "MTK1351:3YOH7BII0AEMMVTWGOXB08P4CZXKVQ", "dateTime": 1515792200122}, {"current_trial": 231, "trialdata": {"rt": -1000, "trial_type": "single-audio", "word": "knife", "stimulus": "/static/audio/wordpool/KNIFE.wav", "conditions": [24, 1600, "a", 24000], "internal_node_id": "0.0-168.0", "trial": 6, "time_elapsed": 1266780, "serialpos": 6, "key_press": -1, "wordID": 784, "type": "PRES_AUD", "trial_index": 231}, "uniqueid": "MTK1351:3YOH7BII0AEMMVTWGOXB08P4CZXKVQ", "dateTime": 1515792202753}, {"current_trial": 232, "trialdata": {"rt": -1000, "trial_type": "single-audio", "word": "picture", "stimulus": "/static/audio/wordpool/PICTURE.wav", "conditions": [24, 1600, "a", 24000], "internal_node_id": "0.0-169.0", "trial": 6, "time_elapsed": 1269210, "serialpos": 7, "key_press": -1, "wordID": 1060, "type": "PRES_AUD", "trial_index": 232}, "uniqueid": "MTK1351:3YOH7BII0AEMMVTWGOXB08P4CZXKVQ", "dateTime": 1515792205184}, {"current_trial": 233, "trialdata": {"rt": -1000, "trial_type": "single-audio", "word": "wagon", "stimulus": "/static/audio/wordpool/WAGON.wav", "conditions": [24, 1600, "a", 24000], "internal_node_id": "0.0-170.0", "trial": 6, "time_elapsed": 1271863, "serialpos": 8, "key_press": -1, "wordID": 1577, "type": "PRES_AUD", "trial_index": 233}, "uniqueid": "MTK1351:3YOH7BII0AEMMVTWGOXB08P4CZXKVQ", "dateTime": 1515792207837}, {"current_trial": 234, "trialdata": {"rt": -1000, "trial_type": "single-audio", "word": "suspect", "stimulus": "/static/audio/wordpool/SUSPECT.wav", "conditions": [24, 1600, "a", 24000], "internal_node_id": "0.0-171.0", "trial": 6, "time_elapsed": 1274445, "serialpos": 9, "key_press": -1, "wordID": 1414, "type": "PRES_AUD", "trial_index": 234}, "uniqueid": "MTK1351:3YOH7BII0AEMMVTWGOXB08P4CZXKVQ", "dateTime": 1515792210418}, {"current_trial": 235, "trialdata": {"rt": -1000, "trial_type": "single-audio", "word": "portrait", "stimulus": "/static/audio/wordpool/PORTRAIT.wav", "conditions": [24, 1600, "a", 24000], "internal_node_id": "0.0-172.0", "trial": 6, "time_elapsed": 1277006, "serialpos": 10, "key_press": -1, "wordID": 1110, "type": "PRES_AUD", "trial_index": 235}, "uniqueid": "MTK1351:3YOH7BII0AEMMVTWGOXB08P4CZXKVQ", "dateTime": 1515792212979}, {"current_trial": 236, "trialdata": {"rt": -1000, "trial_type": "single-audio", "word": "softball", "stimulus": "/static/audio/wordpool/SOFTBALL.wav", "conditions": [24, 1600, "a", 24000], "internal_node_id": "0.0-173.0", "trial": 6, "time_elapsed": 1279561, "serialpos": 11, "key_press": -1, "wordID": 1342, "type": "PRES_AUD", "trial_index": 236}, "uniqueid": "MTK1351:3YOH7BII0AEMMVTWGOXB08P4CZXKVQ", "dateTime": 1515792215534}, {"current_trial": 237, "trialdata": {"rt": -1000, "trial_type": "single-audio", "word": "slide", "stimulus": "/static/audio/wordpool/SLIDE.wav", "conditions": [24, 1600, "a", 24000], "internal_node_id": "0.0-174.0", "trial": 6, "time_elapsed": 1282013, "serialpos": 12, "key_press": -1, "wordID": 1325, "type": "PRES_AUD", "trial_index": 237}, "uniqueid": "MTK1351:3YOH7BII0AEMMVTWGOXB08P4CZXKVQ", "dateTime": 1515792217986}, {"current_trial": 238, "trialdata": {"rt": -1000, "trial_type": "single-audio", "word": "snack", "stimulus": "/static/audio/wordpool/SNACK.wav", "conditions": [24, 1600, "a", 24000], "internal_node_id": "0.0-175.0", "trial": 6, "time_elapsed": 1284581, "serialpos": 13, "key_press": -1, "wordID": 1330, "type": "PRES_AUD", "trial_index": 238}, "uniqueid": "MTK1351:3YOH7BII0AEMMVTWGOXB08P4CZXKVQ", "dateTime": 1515792220554}, {"current_trial": 239, "trialdata": {"rt": -1000, "trial_type": "single-audio", "word": "marine", "stimulus": "/static/audio/wordpool/MARINE.wav", "conditions": [24, 1600, "a", 24000], "internal_node_id": "0.0-176.0", "trial": 6, "time_elapsed": 1287234, "serialpos": 14, "key_press": -1, "wordID": 868, "type": "PRES_AUD", "trial_index": 239}, "uniqueid": "MTK1351:3YOH7BII0AEMMVTWGOXB08P4CZXKVQ", "dateTime": 1515792223208}, {"current_trial": 240, "trialdata": {"rt": -1000, "trial_type": "single-audio", "word": "daughter", "stimulus": "/static/audio/wordpool/DAUGHTER.wav", "conditions": [24, 1600, "a", 24000], "internal_node_id": "0.0-177.0", "trial": 6, "time_elapsed": 1289652, "serialpos": 15, "key_press": -1, "wordID": 441, "type": "PRES_AUD", "trial_index": 240}, "uniqueid": "MTK1351:3YOH7BII0AEMMVTWGOXB08P4CZXKVQ", "dateTime": 1515792225625}, {"current_trial": 241, "trialdata": {"rt": -1000, "trial_type": "single-audio", "word": "baby", "stimulus": "/static/audio/wordpool/BABY.wav", "conditions": [24, 1600, "a", 24000], "internal_node_id": "0.0-178.0", "trial": 6, "time_elapsed": 1292386, "serialpos": 16, "key_press": -1, "wordID": 63, "type": "PRES_AUD", "trial_index": 241}, "uniqueid": "MTK1351:3YOH7BII0AEMMVTWGOXB08P4CZXKVQ", "dateTime": 1515792228359}, {"current_trial": 242, "trialdata": {"rt": -1000, "trial_type": "single-audio", "word": "knapsack", "stimulus": "/static/audio/wordpool/KNAPSACK.wav", "conditions": [24, 1600, "a", 24000], "internal_node_id": "0.0-179.0", "trial": 6, "time_elapsed": 1295173, "serialpos": 17, "key_press": -1, "wordID": 782, "type": "PRES_AUD", "trial_index": 242}, "uniqueid": "MTK1351:3YOH7BII0AEMMVTWGOXB08P4CZXKVQ", "dateTime": 1515792231146}, {"current_trial": 243, "trialdata": {"rt": -1000, "trial_type": "single-audio", "word": "poison", "stimulus": "/static/audio/wordpool/POISON.wav", "conditions": [24, 1600, "a", 24000], "internal_node_id": "0.0-180.0", "trial": 6, "time_elapsed": 1297604, "serialpos": 18, "key_press": -1, "wordID": 1095, "type": "PRES_AUD", "trial_index": 243}, "uniqueid": "MTK1351:3YOH7BII0AEMMVTWGOXB08P4CZXKVQ", "dateTime": 1515792233578}, {"current_trial": 244, "trialdata": {"rt": -1000, "trial_type": "single-audio", "word": "doughnut", "stimulus": "/static/audio/wordpool/DOUGHNUT.wav", "conditions": [24, 1600, "a", 24000], "internal_node_id": "0.0-181.0", "trial": 6, "time_elapsed": 1300129, "serialpos": 19, "key_press": -1, "wordID": 489, "type": "PRES_AUD", "trial_index": 244}, "uniqueid": "MTK1351:3YOH7BII0AEMMVTWGOXB08P4CZXKVQ", "dateTime": 1515792236103}, {"current_trial": 245, "trialdata": {"rt": -1000, "trial_type": "single-audio", "word": "banquet", "stimulus": "/static/audio/wordpool/BANQUET.wav", "conditions": [24, 1600, "a", 24000], "internal_node_id": "0.0-182.0", "trial": 6, "time_elapsed": 1302924, "serialpos": 20, "key_press": -1, "wordID": 85, "type": "PRES_AUD", "trial_index": 245}, "uniqueid": "MTK1351:3YOH7BII0AEMMVTWGOXB08P4CZXKVQ", "dateTime": 1515792238898}, {"current_trial": 246, "trialdata": {"rt": -1000, "trial_type": "single-audio", "word": "popcorn", "stimulus": "/static/audio/wordpool/POPCORN.wav", "conditions": [24, 1600, "a", 24000], "internal_node_id": "0.0-183.0", "trial": 6, "time_elapsed": 1305412, "serialpos": 21, "key_press": -1, "wordID": 1103, "type": "PRES_AUD", "trial_index": 246}, "uniqueid": "MTK1351:3YOH7BII0AEMMVTWGOXB08P4CZXKVQ", "dateTime": 1515792241385}, {"current_trial": 247, "trialdata": {"rt": -1000, "trial_type": "single-audio", "word": "summit", "stimulus": "/static/audio/wordpool/SUMMIT.wav", "conditions": [24, 1600, "a", 24000], "internal_node_id": "0.0-184.0", "trial": 6, "time_elapsed": 1308013, "serialpos": 22, "key_press": -1, "wordID": 1404, "type": "PRES_AUD", "trial_index": 247}, "uniqueid": "MTK1351:3YOH7BII0AEMMVTWGOXB08P4CZXKVQ", "dateTime": 1515792243986}, {"current_trial": 248, "trialdata": {"rt": -1000, "trial_type": "single-audio", "word": "panther", "stimulus": "/static/audio/wordpool/PANTHER.wav", "conditions": [24, 1600, 