{"condition": 0, "counterbalance": 2805, "assignmentId": "3MRNMEIQW6DBCKBSA39I9MWCZS9LD4", "workerId": "MTK1237", "hitId": "3BKZLF990Z6NE8O282ZQE99NC5UYQI", "currenttrial": 626, "bonus": 0, "data": [{"uniqueid": "MTK1237:3MRNMEIQW6DBCKBSA39I9MWCZS9LD4", "current_trial": 0, "dateTime": 1513462764668, "trialdata": {"rt": 4826, "key_press": 32, "type": "INSTRUCTIONS", "trial_type": "text", "trial_index": 0, "time_elapsed": 4831, "internal_node_id": "0.0-0.0"}}, {"uniqueid": "MTK1237:3MRNMEIQW6DBCKBSA39I9MWCZS9LD4", "current_trial": 1, "dateTime": 1513462771335, "trialdata": {"rt": 6665, "key_press": 17, "type": "INSTRUCTIONS", "trial_type": "text", "trial_index": 1, "time_elapsed": 11499, "internal_node_id": "0.0-1.0"}}, {"uniqueid": "MTK1237:3MRNMEIQW6DBCKBSA39I9MWCZS9LD4", "current_trial": 2, "dateTime": 1513462904154, "trialdata": {"rt": [132808], "responses": ["ocean"], "type": "AUDIO_TEST", "trial_type": "audio-test", "trial_index": 2, "time_elapsed": 144319, "internal_node_id": "0.0-2.0"}}, {"uniqueid": "MTK1237:3MRNMEIQW6DBCKBSA39I9MWCZS9LD4", "current_trial": 3, "dateTime": 1513462914261, "trialdata": {"rt": [10104], "responses": ["crystal"], "type": "AUDIO_TEST", "trial_type": "audio-test", "trial_index": 3, "time_elapsed": 154426, "internal_node_id": "0.0-3.0"}}, {"uniqueid": "MTK1237:3MRNMEIQW6DBCKBSA39I9MWCZS9LD4", "current_trial": 4, "dateTime": 1513462919805, "trialdata": {"rt": [5541], "responses": ["spice"], "type": "AUDIO_TEST", "trial_type": "audio-test", "trial_index": 4, "time_elapsed": 159970, "internal_node_id": "0.0-4.0"}}, {"uniqueid": "MTK1237:3MRNMEIQW6DBCKBSA39I9MWCZS9LD4", "current_trial": 5, "dateTime": 1513462948042, "trialdata": {"rt": 27483, "responses": "{\"Q0\":\"11\",\"Q1\":\"7\",\"Q2\":\"4\"}", "type": "SLEEP_SURVEY", "trial_type": "survey-text", "trial_index": 5, "time_elapsed": 188207, "internal_node_id": "0.0-5.0"}}, {"uniqueid": "MTK1237:3MRNMEIQW6DBCKBSA39I9MWCZS9LD4", "current_trial": 6, "dateTime": 1513462991751, "trialdata": {"rt": 42707, "key_press": 13, "type": "INSTRUCTIONS", "trial_type": "text", "trial_index": 6, "time_elapsed": 231915, "internal_node_id": "0.0-6.0"}}, {"uniqueid": "MTK1237:3MRNMEIQW6DBCKBSA39I9MWCZS9LD4", "current_trial": 7, "dateTime": 1513463065316, "trialdata": {"rt": 73064, "key_press": 13, "type": "INSTRUCTIONS", "trial_type": "text", "trial_index": 7, "time_elapsed": 305481, "internal_node_id": "0.0-7.0"}}, {"uniqueid": "MTK1237:3MRNMEIQW6DBCKBSA39I9MWCZS9LD4", "current_trial": 8, "dateTime": 1513463094535, "trialdata": {"rt": 28716, "key_press": 32, "type": "INSTRUCTIONS", "trial_type": "text", "trial_index": 8, "time_elapsed": 334700, "internal_node_id": "0.0-8.0"}}, {"uniqueid": "MTK1237:3MRNMEIQW6DBCKBSA39I9MWCZS9LD4", "current_trial": 9, "dateTime": 1513463113547, "trialdata": {"rt": [3174, 5172, 9620, 13837, 15727, 17736], "responses": ["15", "7", "21", "24", "10", "15"], "num1": [8, 3, 9, 3, 1, 8, 5], "num2": [2, 1, 3, 8, 5, 1, 1], "num3": [5, 3, 9, 3, 4, 6, 7], "type": "DISTRACTOR", "conditions": [18, 1200, "a", 18000], "trial": 0, "trial_type": "math-distractor", "trial_index": 9, "time_elapsed": 353712, "internal_node_id": "0.0-9.0"}}, {"uniqueid": "MTK1237:3MRNMEIQW6DBCKBSA39I9MWCZS9LD4", "current_trial": 10, "dateTime": 1513463116553, "trialdata": {"rt": -1, "stimulus": "<p id=\"stim\">10</p>", "key_press": -1, "trial_type": "single-stim", "trial_index": 10, "time_elapsed": 356718, "internal_node_id": "0.0-10.0-0.0"}}, {"uniqueid": "MTK1237:3MRNMEIQW6DBCKBSA39I9MWCZS9LD4", "current_trial": 11, "dateTime": 1513463117555, "trialdata": {"rt": -1, "stimulus": "<p id=\"stim\">9</p>", "key_press": -1, "trial_type": "single-stim", "trial_index": 11, "time_elapsed": 357720, "internal_node_id": "0.0-10.0-1.0"}}, {"uniqueid": "MTK1237:3MRNMEIQW6DBCKBSA39I9MWCZS9LD4", "current_trial": 12, "dateTime": 1513463118557, "trialdata": {"rt": -1, "stimulus": "<p id=\"stim\">8</p>", "key_press": -1, "trial_type": "single-stim", "trial_index": 12, "time_elapsed": 358721, "internal_node_id": "0.0-10.0-2.0"}}, {"uniqueid": "MTK1237:3MRNMEIQW6DBCKBSA39I9MWCZS9LD4", "current_trial": 13, "dateTime": 1513463119559, "trialdata": {"rt": -1, "stimulus": "<p id=\"stim\">7</p>", "key_press": -1, "trial_type": "single-stim", "trial_index": 13, "time_elapsed": 359723, "internal_node_id": "0.0-10.0-3.0"}}, {"uniqueid": "MTK1237:3MRNMEIQW6DBCKBSA39I9MWCZS9LD4", "current_trial": 14, "dateTime": 1513463120562, "trialdata": {"rt": -1, "stimulus": "<p id=\"stim\">6</p>", "key_press": -1, "trial_type": "single-stim", "trial_index": 14, "time_elapsed": 360726, "internal_node_id": "0.0-10.0-4.0"}}, {"uniqueid": "MTK1237:3MRNMEIQW6DBCKBSA39I9MWCZS9LD4", "current_trial": 15, "dateTime": 1513463121564, "trialdata": {"rt": -1, "stimulus": "<p id=\"stim\">5</p>", "key_press": -1, "trial_type": "single-stim", "trial_index": 15, "time_elapsed": 361728, "internal_node_id": "0.0-10.0-5.0"}}, {"uniqueid": "MTK1237:3MRNMEIQW6DBCKBSA39I9MWCZS9LD4", "current_trial": 16, "dateTime": 1513463122566, "trialdata": {"rt": -1, "stimulus": "<p id=\"stim\">4</p>", "key_press": -1, "trial_type": "single-stim", "trial_index": 16, "time_elapsed": 362731, "internal_node_id": "0.0-10.0-6.0"}}, {"uniqueid": "MTK1237:3MRNMEIQW6DBCKBSA39I9MWCZS9LD4", "current_trial": 17, "dateTime": 1513463123569, "trialdata": {"rt": -1, "stimulus": "<p id=\"stim\">3</p>", "key_press": -1, "trial_type": "single-stim", "trial_index": 17, "time_elapsed": 363734, "internal_node_id": "0.0-10.0-7.0"}}, {"uniqueid": "MTK1237:3MRNMEIQW6DBCKBSA39I9MWCZS9LD4", "current_trial": 18, "dateTime": 1513463124571, "trialdata": {"rt": -1, "stimulus": "<p id=\"stim\">2</p>", "key_press": -1, "trial_type": "single-stim", "trial_index": 18, "time_elapsed": 364735, "internal_node_id": "0.0-10.0-8.0"}}, {"uniqueid": "MTK1237:3MRNMEIQW6DBCKBSA39I9MWCZS9LD4", "current_trial": 19, "dateTime": 1513463125573, "trialdata": {"rt": -1, "stimulus": "<p id=\"stim\">1</p>", "key_press": -1, "trial_type": "single-stim", "trial_index": 19, "time_elapsed": 365738, "internal_node_id": "0.0-10.0-9.0"}}, {"uniqueid": "MTK1237:3MRNMEIQW6DBCKBSA39I9MWCZS9LD4", "current_trial": 20, "dateTime": 1513463127076, "trialdata": {"rt": -1, "stimulus": "<p id=\"stim\">+</p>", "key_press": -1, "type": "FIXATION", "trial_type": "single-stim", "trial_index": 20, "time_elapsed": 367240, "internal_node_id": "0.0-11.0-0.0"}}, {"uniqueid": "MTK1237:3MRNMEIQW6DBCKBSA39I9MWCZS9LD4", "current_trial": 21, "dateTime": 1513463129123, "trialdata": {"rt": -1000, "stimulus": "/static/audio/wordpool/VIKING.wav", "key_press": -1, "type": "PRES_AUD", "word": "viking", "wordID": 1564, "conditions": [18, 1200, "a", 18000], "trial": 0, "serialpos": 0, "trial_type": "single-audio", "trial_index": 21, "time_elapsed": 369288, "internal_node_id": "0.0-12.0"}}, {"uniqueid": "MTK1237:3MRNMEIQW6DBCKBSA39I9MWCZS9LD4", "current_trial": 22, "dateTime": 1513463131412, "trialdata": {"rt": -1000, "stimulus": "/static/audio/wordpool/BANK.wav", "key_press": -1, "type": "PRES_AUD", "word": "bank", "wordID": 82, "conditions": [18, 1200, "a", 18000], "trial": 0, "serialpos": 1, "trial_type": "single-audio", "trial_index": 22, "time_elapsed": 371577, "internal_node_id": "0.0-13.0"}}, {"uniqueid": "MTK1237:3MRNMEIQW6DBCKBSA39I9MWCZS9LD4", "current_trial": 23, "dateTime": 1513463133750, "trialdata": {"rt": -1000, "stimulus": "/static/audio/wordpool/FLEET.wav", "key_press": -1, "type": "PRES_AUD", "word": "fleet", "wordID": 577, "conditions": [18, 1200, "a", 18000], "trial": 0, "serialpos": 2, "trial_type": "single-audio", "trial_index": 23, "time_elapsed": 373914, "internal_node_id": "0.0-14.0"}}, {"uniqueid": "MTK1237:3MRNMEIQW6DBCKBSA39I9MWCZS9LD4", "current_trial": 24, "dateTime": 1513463135769, "trialdata": {"rt": -1000, "stimulus": "/static/audio/wordpool/LACE.wav", "key_press": -1, "type": "PRES_AUD", "word": "lace", "wordID": 791, "conditions": [18, 1200, "a", 18000], "trial": 0, "serialpos": 3, "trial_type": "single-audio", "trial_index": 24, "time_elapsed": 375934, "internal_node_id": "0.0-15.0"}}, {"uniqueid": "MTK1237:3MRNMEIQW6DBCKBSA39I9MWCZS9LD4", "current_trial": 25, "dateTime": 1513463138093, "trialdata": {"rt": -1000, "stimulus": "/static/audio/wordpool/MOP.wav", "key_press": -1, "type": "PRES_AUD", "word": "mop", "wordID": 915, "conditions": [18, 1200, "a", 18000], "trial": 0, "serialpos": 4, "trial_type": "single-audio", "trial_index": 25, "time_elapsed": 378258, "internal_node_id": "0.0-16.0"}}, {"uniqueid": "MTK1237:3MRNMEIQW6DBCKBSA39I9MWCZS9LD4", "current_trial": 26, "dateTime": 1513463140385, "trialdata": {"rt": -1000, "stimulus": "/static/audio/wordpool/STONE.wav", "key_press": -1, "type": "PRES_AUD", "word": "stone", "wordID": 1384, "conditions": [18, 1200, "a", 18000], "trial": 0, "serialpos": 5, "trial_type": "single-audio", "trial_index": 26, "time_elapsed": 380550, "internal_node_id": "0.0-17.0"}}, {"uniqueid": "MTK1237:3MRNMEIQW6DBCKBSA39I9MWCZS9LD4", "current_trial": 27, "dateTime": 1513463142536, "trialdata": {"rt": -1000, "stimulus": "/static/audio/wordpool/ACTOR.wav", "key_press": -1, "type": "PRES_AUD", "word": "actor", "wordID": 4, "conditions": [18, 1200, "a", 18000], "trial": 0, "serialpos": 6, "trial_type": "single-audio", "trial_index": 27, "time_elapsed": 382701, "internal_node_id": "0.0-18.0"}}, {"uniqueid": "MTK1237:3MRNMEIQW6DBCKBSA39I9MWCZS9LD4", "current_trial": 28, "dateTime": 1513463144935, "trialdata": {"rt": -1000, "stimulus": "/static/audio/wordpool/STAMP.wav", "key_press": -1, "type": "PRES_AUD", "word": "stamp", "wordID": 1369, "conditions": [18, 1200, "a", 18000], "trial": 0, "serialpos": 7, "trial_type": "single-audio", "trial_index": 28, "time_elapsed": 385100, "internal_node_id": "0.0-19.0"}}, {"uniqueid": "MTK1237:3MRNMEIQW6DBCKBSA39I9MWCZS9LD4", "current_trial": 29, "dateTime": 1513463146983, "trialdata": {"rt": -1000, "stimulus": "/static/audio/wordpool/OX.wav", "key_press": -1, "type": "PRES_AUD", "word": "ox", "wordID": 993, "conditions": [18, 1200, "a", 18000], "trial": 0, "serialpos": 8, "trial_type": "single-audio", "trial_index": 29, "time_elapsed": 387148, "internal_node_id": "0.0-20.0"}}, {"uniqueid": "MTK1237:3MRNMEIQW6DBCKBSA39I9MWCZS9LD4", "current_trial": 30, "dateTime": 1513463149234, "trialdata": {"rt": -1000, "stimulus": "/static/audio/wordpool/CLAM.wav", "key_press": -1, "type": "PRES_AUD", "word": "clam", "wordID": 314, "conditions": [18, 1200, "a", 18000], "trial": 0, "serialpos": 9, "trial_type": "single-audio", "trial_index": 30, "time_elapsed": 389399, "internal_node_id": "0.0-21.0"}}, {"uniqueid": "MTK1237:3MRNMEIQW6DBCKBSA39I9MWCZS9LD4", "current_trial": 31, "dateTime": 1513463151572, "trialdata": {"rt": -1000, "stimulus": "/static/audio/wordpool/TABLET.wav", "key_press": -1, "type": "PRES_AUD", "word": "tablet", "wordID": 1426, "conditions": [18, 1200, "a", 18000], "trial": 0, "serialpos": 10, "trial_type": "single-audio", "trial_index": 31, "time_elapsed": 391737, "internal_node_id": "0.0-22.0"}}, {"uniqueid": "MTK1237:3MRNMEIQW6DBCKBSA39I9MWCZS9LD4", "current_trial": 32, "dateTime": 1513463153904, "trialdata": {"rt": -1000, "stimulus": "/static/audio/wordpool/SHOULDER.wav", "key_press": -1, "type": "PRES_AUD", "word": "shoulder", "wordID": 1293, "conditions": [18, 1200, "a", 18000], "trial": 0, "serialpos": 11, "trial_type": "single-audio", "trial_index": 32, "time_elapsed": 394069, "internal_node_id": "0.0-23.0"}}, {"uniqueid": "MTK1237:3MRNMEIQW6DBCKBSA39I9MWCZS9LD4", "current_trial": 33, "dateTime": 1513463155934, "trialdata": {"rt": -1000, "stimulus": "/static/audio/wordpool/DENIM.wav", "key_press": -1, "type": "PRES_AUD", "word": "denim", "wordID": 445, "conditions": [18, 1200, "a", 18000], "trial": 0, "serialpos": 12, "trial_type": "single-audio", "trial_index": 33, "time_elapsed": 396099, "internal_node_id": "0.0-24.0"}}, {"uniqueid": "MTK1237:3MRNMEIQW6DBCKBSA39I9MWCZS9LD4", "current_trial": 34, "dateTime": 1513463158288, "trialdata": {"rt": -1000, "stimulus": "/static/audio/wordpool/SHORTCAKE.wav", "key_press": -1, "type": "PRES_AUD", "word": "shortcake", "wordID": 1291, "conditions": [18, 1200, "a", 18000], "trial": 0, "serialpos": 13, "trial_type": "single-audio", "trial_index": 34, "time_elapsed": 398453, "internal_node_id": "0.0-25.0"}}, {"uniqueid": "MTK1237:3MRNMEIQW6DBCKBSA39I9MWCZS9LD4", "current_trial": 35, "dateTime": 1513463160672, "trialdata": {"rt": -1000, "stimulus": "/static/audio/wordpool/SHOVEL.wav", "key_press": -1, "type": "PRES_AUD", "word": "shovel", "wordID": 1294, "conditions": [18, 1200, "a", 18000], "trial": 0, "serialpos": 14, "trial_type": "single-audio", "trial_index": 35, "time_elapsed": 400837, "internal_node_id": "0.0-26.0"}}, {"uniqueid": "MTK1237:3MRNMEIQW6DBCKBSA39I9MWCZS9LD4", "current_trial": 36, "dateTime": 1513463163076, "trialdata": {"rt": -1000, "stimulus": "/static/audio/wordpool/HAND.wav", "key_press": -1, "type": "PRES_AUD", "word": "hand", "wordID": 682, "conditions": [18, 1200, "a", 18000], "trial": 0, "serialpos": 15, "trial_type": "single-audio", "trial_index": 36, "time_elapsed": 403241, "internal_node_id": "0.0-27.0"}}, {"uniqueid": "MTK1237:3MRNMEIQW6DBCKBSA39I9MWCZS9LD4", "current_trial": 37, "dateTime": 1513463165177, "trialdata": {"rt": -1000, "stimulus": "/static/audio/wordpool/WHISTLE.wav", "key_press": -1, "type": "PRES_AUD", "word": "whistle", "wordID": 1605, "conditions": [18, 1200, "a", 18000], "trial": 0, "serialpos": 16, "trial_type": "single-audio", "trial_index": 37, "time_elapsed": 405342, "internal_node_id": "0.0-28.0"}}, {"uniqueid": "MTK1237:3MRNMEIQW6DBCKBSA39I9MWCZS9LD4", "current_trial": 38, "dateTime": 1513463167447, "trialdata": {"rt": -1000, "stimulus": "/static/audio/wordpool/APPLE.wav", "key_press": -1, "type": "PRES_AUD", "word": "apple", "wordID": 32, "conditions": [18, 1200, "a", 18000], "trial": 0, "serialpos": 17, "trial_type": "single-audio", "trial_index": 38, "time_elapsed": 407612, "internal_node_id": "0.0-29.0"}}, {"uniqueid": "MTK1237:3MRNMEIQW6DBCKBSA39I9MWCZS9LD4", "current_trial": 39, "dateTime": 1513463168817, "trialdata": {"rt": -1, "stimulus": "", "key_press": -1, "type": "PRE_RECALL_DELAY", "trial_type": "single-stim", "trial_index": 39, "time_elapsed": 408982, "internal_node_id": "0.0-30.0-0.0"}}, {"uniqueid": "MTK1237:3MRNMEIQW6DBCKBSA39I9MWCZS9LD4", "current_trial": 40, "dateTime": 1513463169314, "trialdata": {"rt": -1000, "stimulus": "/static/audio/400Hz.wav", "key_press": -1, "type": "PRE_RECALL_ALERT", "trial_type": "single-audio", "trial_index": 40, "time_elapsed": 409479, "internal_node_id": "0.0-31.0"}}, {"uniqueid": "MTK1237:3MRNMEIQW6DBCKBSA39I9MWCZS9LD4", "current_trial": 41, "dateTime": 1513463229331, "trialdata": {"rt": [4381, 8296, 11743, 13851, 17481, 22586, 28821, 48993], "recwords": ["apple", "shortcake", "whistle", "shovel", "shoulder", "tablet", "stone", "mop"], "type": "FREE_RECALL", "conditions": [18, 1200, "a", 18000], "trial": 0, "trial_type": "free-recall", "trial_index": 41, "time_elapsed": 469491, "internal_node_id": "0.0-32.0-0.0"}}, {"uniqueid": "MTK1237:3MRNMEIQW6DBCKBSA39I9MWCZS9LD4", "current_trial": 42, "dateTime": 1513463234378, "trialdata": {"rt": 3044, "key_press": 32, "type": "INSTRUCTIONS", "trial_type": "text", "trial_index": 42, "time_elapsed": 474543, "internal_node_id": "0.0-33.0"}}, {"uniqueid": "MTK1237:3MRNMEIQW6DBCKBSA39I9MWCZS9LD4", "current_trial": 43, "dateTime": 1513463254384, "trialdata": {"rt": [3654, 5695, 7997, 9683, 11454, 13084, 15679, 17134], "responses": ["9", "10", "19", "12", "15", "14", "15", "18"], "num1": [3, 5, 8, 1, 2, 4, 4, 8, 7], "num2": [1, 2, 5, 2, 8, 1, 5, 9, 7], "num3": [5, 3, 6, 9, 5, 9, 6, 1, 8], "type": "DISTRACTOR", "conditions": [18, 1200, "v", 18000], "trial": 1, "trial_type": "math-distractor", "trial_index": 43, "time_elapsed": 494549, "internal_node_id": "0.0-34.0"}}, {"uniqueid": "MTK1237:3MRNMEIQW6DBCKBSA39I9MWCZS9LD4", "current_trial": 44, "dateTime": 1513463257388, "trialdata": {"rt": -1, "stimulus": "<p id=\"stim\">10</p>", "key_press": -1, "trial_type": "single-stim", "trial_index": 44, "time_elapsed": 497552, "internal_node_id": "0.0-35.0-0.0"}}, {"uniqueid": "MTK1237:3MRNMEIQW6DBCKBSA39I9MWCZS9LD4", "current_trial": 45, "dateTime": 1513463258390, "trialdata": {"rt": -1, "stimulus": "<p id=\"stim\">9</p>", "key_press": -1, "trial_type": "single-stim", "trial_index": 45, "time_elapsed": 498554, "internal_node_id": "0.0-35.0-1.0"}}, {"uniqueid": "MTK1237:3MRNMEIQW6DBCKBSA39I9MWCZS9LD4", "current_trial": 46, "dateTime": 1513463259392, "trialdata": {"rt": -1, "stimulus": "<p id=\"stim\">8</p>", "key_press": -1, "trial_type": "single-stim", "trial_index": 46, "time_elapsed": 499557, "internal_node_id": "0.0-35.0-2.0"}}, {"uniqueid": "MTK1237:3MRNMEIQW6DBCKBSA39I9MWCZS9LD4", "current_trial": 47, "dateTime": 1513463260395, "trialdata": {"rt": -1, "stimulus": "<p id=\"stim\">7</p>", "key_press": -1, "trial_type": "single-stim", "trial_index": 47, "time_elapsed": 500559, "internal_node_id": "0.0-35.0-3.0"}}, {"uniqueid": "MTK1237:3MRNMEIQW6DBCKBSA39I9MWCZS9LD4", "current_trial": 48, "dateTime": 1513463261396, "trialdata": {"rt": -1, "stimulus": "<p id=\"stim\">6</p>", "key_press": -1, "trial_type": "single-stim", "trial_index": 48, "time_elapsed": 501561, "internal_node_id": "0.0-35.0-4.0"}}, {"uniqueid": "MTK1237:3MRNMEIQW6DBCKBSA39I9MWCZS9LD4", "current_trial": 49, "dateTime": 1513463262398, "trialdata": {"rt": -1, "stimulus": "<p id=\"stim\">5</p>", "key_press": -1, "trial_type": "single-stim", "trial_index": 49, "time_elapsed": 502562, "internal_node_id": "0.0-35.0-5.0"}}, {"uniqueid": "MTK1237:3MRNMEIQW6DBCKBSA39I9MWCZS9LD4", "current_trial": 50, "dateTime": 1513463263400, "trialdata": {"rt": -1, "stimulus": "<p id=\"stim\">4</p>", "key_press": -1, "trial_type": "single-stim", "trial_index": 50, "time_elapsed": 503564, "internal_node_id": "0.0-35.0-6.0"}}, {"uniqueid": "MTK1237:3MRNMEIQW6DBCKBSA39I9MWCZS9LD4", "current_trial": 51, "dateTime": 1513463264402, "trialdata": {"rt": -1, "stimulus": "<p id=\"stim\">3</p>", "key_press": -1, "trial_type": "single-stim", "trial_index": 51, "time_elapsed": 504566, "internal_node_id": "0.0-35.0-7.0"}}, {"uniqueid": "MTK1237:3MRNMEIQW6DBCKBSA39I9MWCZS9LD4", "current_trial": 52, "dateTime": 1513463265404, "trialdata": {"rt": -1, "stimulus": "<p id=\"stim\">2</p>", "key_press": -1, "trial_type": "single-stim", "trial_index": 52, "time_elapsed": 505568, "internal_node_id": "0.0-35.0-8.0"}}, {"uniqueid": "MTK1237:3MRNMEIQW6DBCKBSA39I9MWCZS9LD4", "current_trial": 53, "dateTime": 1513463266407, "trialdata": {"rt": -1, "stimulus": "<p id=\"stim\">1</p>", "key_press": -1, "trial_type": "single-stim", "trial_index": 53, "time_elapsed": 506571, "internal_node_id": "0.0-35.0-9.0"}}, {"uniqueid": "MTK1237:3MRNMEIQW6DBCKBSA39I9MWCZS9LD4", "current_trial": 54, "dateTime": 1513463267909, "trialdata": {"rt": -1, "stimulus": "<p id=\"stim\">+</p>", "key_press": -1, "type": "FIXATION", "trial_type": "single-stim", "trial_index": 54, "time_elapsed": 508074, "internal_node_id": "0.0-36.0-0.0"}}, {"uniqueid": "MTK1237:3MRNMEIQW6DBCKBSA39I9MWCZS9LD4", "current_trial": 55, "dateTime": 1513463269111, "trialdata": {"rt": -1, "stimulus": "<p id=\"stim\">SHIRT</p>", "key_press": -1, "type": "PRES_VIS", "word": "shirt", "wordID": 1286, "conditions": [18, 1200, "v", 18000], "trial": 1, "serialpos": 0, "trial_type": "single-stim", "trial_index": 55, "time_elapsed": 509275, "internal_node_id": "0.0-37.0"}}, {"uniqueid": "MTK1237:3MRNMEIQW6DBCKBSA39I9MWCZS9LD4", "current_trial": 56, "dateTime": 1513463271486, "trialdata": {"rt": -1, "stimulus": "<p id=\"stim\">CHAPEL</p>", "key_press": -1, "type": "PRES_VIS", "word": "chapel", "wordID": 279, "conditions": [18, 1200, "v", 18000], "trial": 1, "serialpos": 1, "trial_type": "single-stim", "trial_index": 56, "time_elapsed": 511651, "internal_node_id": "0.0-38.0"}}, {"uniqueid": "MTK1237:3MRNMEIQW6DBCKBSA39I9MWCZS9LD4", "current_trial": 57, "dateTime": 1513463273638, "trialdata": {"rt": -1, "stimulus": "<p id=\"stim\">TUBA</p>", "key_press": -1, "type": "PRES_VIS", "word": "tuba", "wordID": 1514, "conditions": [18, 1200, "v", 18000], "trial": 1, "serialpos": 2, "trial_type": "single-stim", "trial_index": 57, "time_elapsed": 513803, "internal_node_id": "0.0-39.0"}}, {"uniqueid": "MTK1237:3MRNMEIQW6DBCKBSA39I9MWCZS9LD4", "current_trial": 58, "dateTime": 1513463275954, "trialdata": {"rt": -1, "stimulus": "<p id=\"stim\">MACHINE</p>", "key_press": -1, "type": "PRES_VIS", "word": "machine", "wordID": 851, "conditions": [18, 1200, "v", 18000], "trial": 1, "serialpos": 3, "trial_type": "single-stim", "trial_index": 58, "time_elapsed": 516119, "internal_node_id": "0.0-40.0"}}, {"uniqueid": "MTK1237:3MRNMEIQW6DBCKBSA39I9MWCZS9LD4", "current_trial": 59, "dateTime": 1513463278305, "trialdata": {"rt": -1, "stimulus": "<p id=\"stim\">CANDY</p>", "key_press": -1, "type": "PRES_VIS", "word": "candy", "wordID": 229, "conditions": [18, 1200, "v", 18000], "trial": 1, "serialpos": 4, "trial_type": "single-stim", "trial_index": 59, "time_elapsed": 518469, "internal_node_id": "0.0-41.0"}}, {"uniqueid": "MTK1237:3MRNMEIQW6DBCKBSA39I9MWCZS9LD4", "current_trial": 60, "dateTime": 1513463280399, "trialdata": {"rt": -1, "stimulus": "<p id=\"stim\">ORCHID</p>", "key_press": -1, "type": "PRES_VIS", "word": "orchid", "wordID": 981, "conditions": [18, 1200, "v", 18000], "trial": 1, "serialpos": 5, "trial_type": "single-stim", "trial_index": 60, "time_elapsed": 520564, "internal_node_id": "0.0-42.0"}}, {"uniqueid": "MTK1237:3MRNMEIQW6DBCKBSA39I9MWCZS9LD4", "current_trial": 61, "dateTime": 1513463282507, "trialdata": {"rt": -1, "stimulus": "<p id=\"stim\">TWEEZERS</p>", "key_press": -1, "type": "PRES_VIS", "word": "tweezers", "wordID": 1525, "conditions": [18, 1200, "v", 18000], "trial": 1, "serialpos": 6, "trial_type": "single-stim", "trial_index": 61, "time_elapsed": 522672, "internal_node_id": "0.0-43.0"}}, {"uniqueid": "MTK1237:3MRNMEIQW6DBCKBSA39I9MWCZS9LD4", "current_trial": 62, "dateTime": 1513463284761, "trialdata": {"rt": -1, "stimulus": "<p id=\"stim\">TWISTER</p>", "key_press": -1, "type": "PRES_VIS", "word": "twister", "wordID": 1529, "conditions": [18, 1200, "v", 18000], "trial": 1, "serialpos": 7, "trial_type": "single-stim", "trial_index": 62, "time_elapsed": 524926, "internal_node_id": "0.0-44.0"}}, {"uniqueid": "MTK1237:3MRNMEIQW6DBCKBSA39I9MWCZS9LD4", "current_trial": 63, "dateTime": 1513463286950, "trialdata": {"rt": -1, "stimulus": "<p id=\"stim\">POWDER</p>", "key_press": -1, "type": "PRES_VIS", "word": "powder", "wordID": 1116, "conditions": [18, 1200, "v", 18000], "trial": 1, "serialpos": 8, "trial_type": "single-stim", "trial_index": 63, "time_elapsed": 527115, "internal_node_id": "0.0-45.0"}}, {"uniqueid": "MTK1237:3MRNMEIQW6DBCKBSA39I9MWCZS9LD4", "current_trial": 64, "dateTime": 1513463289046, "trialdata": {"rt": -1, "stimulus": "<p id=\"stim\">OFFICE</p>", "key_press": -1, "type": "PRES_VIS", "word": "office", "wordID": 971, "conditions": [18, 1200, "v", 18000], "trial": 1, "serialpos": 9, "trial_type": "single-stim", "trial_index": 64, "time_elapsed": 529211, "internal_node_id": "0.0-46.0"}}, {"uniqueid": "MTK1237:3MRNMEIQW6DBCKBSA39I9MWCZS9LD4", "current_trial": 65, "dateTime": 1513463291057, "trialdata": {"rt": -1, "stimulus": "<p id=\"stim\">BRICK</p>", "key_press": -1, "type": "PRES_VIS", "word": "brick", "wordID": 171, "conditions": [18, 1200, "v", 18000], "trial": 1, "serialpos": 10, "trial_type": "single-stim", "trial_index": 65, "time_elapsed": 531222, "internal_node_id": "0.0-47.0"}}, {"uniqueid": "MTK1237:3MRNMEIQW6DBCKBSA39I9MWCZS9LD4", "current_trial": 66, "dateTime": 1513463293241, "trialdata": {"rt": -1, "stimulus": "<p id=\"stim\">OINTMENT</p>", "key_press": -1, "type": "PRES_VIS", "word": "ointment", "wordID": 973, "conditions": [18, 1200, "v", 18000], "trial": 1, "serialpos": 11, "trial_type": "single-stim", "trial_index": 66, "time_elapsed": 533405, "internal_node_id": "0.0-48.0"}}, {"uniqueid": "MTK1237:3MRNMEIQW6DBCKBSA39I9MWCZS9LD4", "current_trial": 67, "dateTime": 1513463295604, "trialdata": {"rt": -1, "stimulus": "<p id=\"stim\">SCARF</p>", "key_press": -1, "type": "PRES_VIS", "word": "scarf", "wordID": 1245, "conditions": [18, 1200, "v", 18000], "trial": 1, "serialpos": 12, "trial_type": "single-stim", "trial_index": 67, "time_elapsed": 535768, "internal_node_id": "0.0-49.0"}}, {"uniqueid": "MTK1237:3MRNMEIQW6DBCKBSA39I9MWCZS9LD4", "current_trial": 68, "dateTime": 1513463297825, "trialdata": {"rt": -1, "stimulus": "<p id=\"stim\">DRAGON</p>", "key_press": -1, "type": "PRES_VIS", "word": "dragon", "wordID": 491, "conditions": [18, 1200, "v", 18000], "trial": 1, "serialpos": 13, "trial_type": "single-stim", "trial_index": 68, "time_elapsed": 537985, "internal_node_id": "0.0-50.0"}}, {"uniqueid": "MTK1237:3MRNMEIQW6DBCKBSA39I9MWCZS9LD4", "current_trial": 69, "dateTime": 1513463300002, "trialdata": {"rt": -1, "stimulus": "<p id=\"stim\">SODA</p>", "key_press": -1, "type": "PRES_VIS", "word": "soda", "wordID": 1340, "conditions": [18, 1200, "v", 18000], "trial": 1, "serialpos": 14, "trial_type": "single-stim", "trial_index": 69, "time_elapsed": 540167, "internal_node_id": "0.0-51.0"}}, {"uniqueid": "MTK1237:3MRNMEIQW6DBCKBSA39I9MWCZS9LD4", "current_trial": 70, "dateTime": 1513463302138, "trialdata": {"rt": -1, "stimulus": "<p id=\"stim\">PICNIC</p>", "key_press": -1, "type": "PRES_VIS", "word": "picnic", "wordID": 1059, "conditions": [18, 1200, "v", 18000], "trial": 1, "serialpos": 15, "trial_type": "single-stim", "trial_index": 70, "time_elapsed": 542302, "internal_node_id": "0.0-52.0"}}, {"uniqueid": "MTK1237:3MRNMEIQW6DBCKBSA39I9MWCZS9LD4", "current_trial": 71, "dateTime": 1513463304479, "trialdata": {"rt": -1, "stimulus": "<p id=\"stim\">OZONE</p>", "key_press": -1, "type": "PRES_VIS", "word": "ozone", "wordID": 995, "conditions": [18, 1200, "v", 18000], "trial": 1, "serialpos": 16, "trial_type": "single-stim", "trial_index": 71, "time_elapsed": 544643, "internal_node_id": "0.0-53.0"}}, {"uniqueid": "MTK1237:3MRNMEIQW6DBCKBSA39I9MWCZS9LD4", "current_trial": 72, "dateTime": 1513463306613, "trialdata": {"rt": -1, "stimulus": "<p id=\"stim\">MARKER</p>", "key_press": -1, "type": "PRES_VIS", "word": "marker", "wordID": 869, "conditions": [18, 1200, "v", 18000], "trial": 1, "serialpos": 17, "trial_type": "single-stim", "trial_index": 72, "time_elapsed": 546778, "internal_node_id": "0.0-54.0"}}, {"uniqueid": "MTK1237:3MRNMEIQW6DBCKBSA39I9MWCZS9LD4", "current_trial": 73, "dateTime": 1513463309058, "trialdata": {"rt": -1, "stimulus": "", "key_press": -1, "type": "PRE_RECALL_DELAY", "trial_type": "single-stim", "trial_index": 73, "time_elapsed": 549222, "internal_node_id": "0.0-55.0-0.0"}}, {"uniqueid": "MTK1237:3MRNMEIQW6DBCKBSA39I9MWCZS9LD4", "current_trial": 74, "dateTime": 1513463309560, "trialdata": {"rt": -1000, "stimulus": "/static/audio/400Hz.wav", "key_press": -1, "type": "PRE_RECALL_ALERT", "trial_type": "single-audio", "trial_index": 74, "time_elapsed": 549725, "internal_node_id": "0.0-56.0"}}, {"uniqueid": "MTK1237:3MRNMEIQW6DBCKBSA39I9MWCZS9LD4", "current_trial": 75, "dateTime": 1513463369573, "trialdata": {"rt": [3207, 4812, 6823, 8747, 10998, 15626, 28001, 30702, 38949, 50104], "recwords": ["marker", "ozone", "shirt", "scarf", "picnic", "orchid", "brick", "candy", "office", "soda"], "type": "FREE_RECALL", "conditions": [18, 1200, "v", 18000], "trial": 1, "trial_type": "free-recall", "trial_index": 75, "time_elapsed": 609731, "internal_node_id": "0.0-57.0-0.0"}}, {"uniqueid": "MTK1237:3MRNMEIQW6DBCKBSA39I9MWCZS9LD4", "current_trial": 76, "dateTime": 1513463391435, "trialdata": {"rt": 19851, "key_press": 32, "type": "INSTRUCTIONS", "trial_type": "text", "trial_index": 76, "time_elapsed": 631591, "internal_node_id": "0.0-58.0"}}, {"uniqueid": "MTK1237:3MRNMEIQW6DBCKBSA39I9MWCZS9LD4", "current_trial": 77, "dateTime": 1513463404441, "trialdata": {"rt": [3314, 5754, 8822, 11257], "responses": ["16", "9", "16", "14"], "num1": [8, 1, 3, 7, 1], "num2": [5, 1, 5, 6, 6], "num3": [3, 7, 8, 1, 4], "type": "DISTRACTOR", "conditions": [12, 800, "v", 12000], "trial": 2, "trial_type": "math-distractor", "trial_index": 77, "time_elapsed": 644606, "internal_node_id": "0.0-59.0"}}, {"uniqueid": "MTK1237:3MRNMEIQW6DBCKBSA39I9MWCZS9LD4", "current_trial": 78, "dateTime": 1513463407444, "trialdata": {"rt": -1, "stimulus": "<p id=\"stim\">10</p>", "key_press": -1, "trial_type": "single-stim", "trial_index": 78, "time_elapsed": 647608, "internal_node_id": "0.0-60.0-0.0"}}, {"uniqueid": "MTK1237:3MRNMEIQW6DBCKBSA39I9MWCZS9LD4", "current_trial": 79, "dateTime": 1513463408446, "trialdata": {"rt": -1, "stimulus": "<p id=\"stim\">9</p>", "key_press": -1, "trial_type": "single-stim", "trial_index": 79, "time_elapsed": 648610, "internal_node_id": "0.0-60.0-1.0"}}, {"uniqueid": "MTK1237:3MRNMEIQW6DBCKBSA39I9MWCZS9LD4", "current_trial": 80, "dateTime": 1513463409448, "trialdata": {"rt": -1, "stimulus": "<p id=\"stim\">8</p>", "key_press": -1, "trial_type": "single-stim", "trial_index": 80, "time_elapsed": 649613, "internal_node_id": "0.0-60.0-2.0"}}, {"uniqueid": "MTK1237:3MRNMEIQW6DBCKBSA39I9MWCZS9LD4", "current_trial": 81, "dateTime": 1513463410450, "trialdata": {"rt": -1, "stimulus": "<p id=\"stim\">7</p>", "key_press": -1, "trial_type": "single-stim", "trial_index": 81, "time_elapsed": 650614, "internal_node_id": "0.0-60.0-3.0"}}, {"uniqueid": "MTK1237:3MRNMEIQW6DBCKBSA39I9MWCZS9LD4", "current_trial": 82, "dateTime": 1513463411451, "trialdata": {"rt": -1, "stimulus": "<p id=\"stim\">6</p>", "key_press": -1, "trial_type": "single-stim", "trial_index": 82, "time_elapsed": 651616, "internal_node_id": "0.0-60.0-4.0"}}, {"uniqueid": "MTK1237:3MRNMEIQW6DBCKBSA39I9MWCZS9LD4", "current_trial": 83, "dateTime": 1513463412453, "trialdata": {"rt": -1, "stimulus": "<p id=\"stim\">5</p>", "key_press": -1, "trial_type": "single-stim", "trial_index": 83, "time_elapsed": 652618, "internal_node_id": "0.0-60.0-5.0"}}, {"uniqueid": "MTK1237:3MRNMEIQW6DBCKBSA39I9MWCZS9LD4", "current_trial": 84, "dateTime": 1513463413455, "trialdata": {"rt": -1, "stimulus": "<p id=\"stim\">4</p>", "key_press": -1, "trial_type": "single-stim", "trial_index": 84, "time_elapsed": 653620, "internal_node_id": "0.0-60.0-6.0"}}, {"uniqueid": "MTK1237:3MRNMEIQW6DBCKBSA39I9MWCZS9LD4", "current_trial": 85, "dateTime": 1513463414456, "trialdata": {"rt": -1, "stimulus": "<p id=\"stim\">3</p>", "key_press": -1, "trial_type": "single-stim", "trial_index": 85, "time_elapsed": 654621, "internal_node_id": "0.0-60.0-7.0"}}, {"uniqueid": "MTK1237:3MRNMEIQW6DBCKBSA39I9MWCZS9LD4", "current_trial": 86, "dateTime": 1513463415458, "trialdata": {"rt": -1, "stimulus": "<p id=\"stim\">2</p>", "key_press": -1, "trial_type": "single-stim", "trial_index": 86, "time_elapsed": 655623, "internal_node_id": "0.0-60.0-8.0"}}, {"uniqueid": "MTK1237:3MRNMEIQW6DBCKBSA39I9MWCZS9LD4", "current_trial": 87, "dateTime": 1513463416459, "trialdata": {"rt": -1, "stimulus": "<p id=\"stim\">1</p>", "key_press": -1, "trial_type": "single-stim", "trial_index": 87, "time_elapsed": 656624, "internal_node_id": "0.0-60.0-9.0"}}, {"uniqueid": "MTK1237:3MRNMEIQW6DBCKBSA39I9MWCZS9LD4", "current_trial": 88, "dateTime": 1513463417961, "trialdata": {"rt": -1, "stimulus": "<p id=\"stim\">+</p>", "key_press": -1, "type": "FIXATION", "trial_type": "single-stim", "trial_index": 88, "time_elapsed": 658126, "internal_node_id": "0.0-61.0-0.0"}}, {"uniqueid": "MTK1237:3MRNMEIQW6DBCKBSA39I9MWCZS9LD4", "current_trial": 89, "dateTime": 1513463418764, "trialdata": {"rt": -1, "stimulus": "<p id=\"stim\">HONEY</p>", "key_press": -1, "type": "PRES_VIS", "word": "honey", "wordID": 712, "conditions": [12, 800, "v", 12000], "trial": 2, "serialpos": 0, "trial_type": "single-stim", "trial_index": 89, "time_elapsed": 658928, "internal_node_id": "0.0-62.0"}}, {"uniqueid": "MTK1237:3MRNMEIQW6DBCKBSA39I9MWCZS9LD4", "current_trial": 90, "dateTime": 1513463420671, "trialdata": {"rt": -1, "stimulus": "<p id=\"stim\">SWIMMER</p>", "key_press": -1, "type": "PRES_VIS", "word": "swimmer", "wordID": 1419, "conditions": [12, 800, "v", 12000], "trial": 2, "serialpos": 1, "trial_type": "single-stim", "trial_index": 90, "time_elapsed": 660835, "internal_node_id": "0.0-63.0"}}, {"uniqueid": "MTK1237:3MRNMEIQW6DBCKBSA39I9MWCZS9LD4", "current_trial": 91, "dateTime": 1513463422560, "trialdata": {"rt": -1, "stimulus": "<p id=\"stim\">DIVER</p>", "key_press": -1, "type": "PRES_VIS", "word": "diver", "wordID": 475, "conditions": [12, 800, "v", 12000], "trial": 2, "serialpos": 2, "trial_type": "single-stim", "trial_index": 91, "time_elapsed": 662725, "internal_node_id": "0.0-64.0"}}, {"uniqueid": "MTK1237:3MRNMEIQW6DBCKBSA39I9MWCZS9LD4", "current_trial": 92, "dateTime": 1513463424474, "trialdata": {"rt": -1, "stimulus": "<p id=\"stim\">TERMITE</p>", "key_press": -1, "type": "PRES_VIS", "word": "termite", "wordID": 1450, "conditions": [12, 800, "v", 12000], "trial": 2, "serialpos": 3, "trial_type": "single-stim", "trial_index": 92, "time_elapsed": 664639, "internal_node_id": "0.0-65.0"}}, {"uniqueid": "MTK1237:3MRNMEIQW6DBCKBSA39I9MWCZS9LD4", "current_trial": 93, "dateTime": 1513463426104, "trialdata": {"rt": -1, "stimulus": "<p id=\"stim\">PIANO</p>", "key_press": -1, "type": "PRES_VIS", "word": "piano", "wordID": 1056, "conditions": [12, 800, "v", 12000], "trial": 2, "serialpos": 4, "trial_type": "single-stim", "trial_index": 93, "time_elapsed": 666268, "internal_node_id": "0.0-66.0"}}, {"uniqueid": "MTK1237:3MRNMEIQW6DBCKBSA39I9MWCZS9LD4", "current_trial": 94, "dateTime": 1513463428019, "trialdata": {"rt": -1, "stimulus": "<p id=\"stim\">GRILL</p>", "key_press": -1, "type": "PRES_VIS", "word": "grill", "wordID": 660, "conditions": [12, 800, "v", 12000], "trial": 2, "serialpos": 5, "trial_type": "single-stim", "trial_index": 94, "time_elapsed": 668183, "internal_node_id": "0.0-67.0"}}, {"uniqueid": "MTK1237:3MRNMEIQW6DBCKBSA39I9MWCZS9LD4", "current_trial": 95, "dateTime": 1513463429977, "trialdata": {"rt": -1, "stimulus": "<p id=\"stim\">JURY</p>", "key_press": -1, "type": "PRES_VIS", "word": "jury", "wordID": 765, "conditions": [12, 800, "v", 12000], "trial": 2, "serialpos": 6, "trial_type": "single-stim", "trial_index": 95, "time_elapsed": 670141, "internal_node_id": "0.0-68.0"}}, {"uniqueid": "MTK1237:3MRNMEIQW6DBCKBSA39I9MWCZS9LD4", "current_trial": 96, "dateTime": 1513463431836, "trialdata": {"rt": -1, "stimulus": "<p id=\"stim\">MATCH</p>", "key_press": -1, "type": "PRES_VIS", "word": "match", "wordID": 877, "conditions": [12, 800, "v", 12000], "trial": 2, "serialpos": 7, "trial_type": "single-stim", "trial_index": 96, "time_elapsed": 672000, "internal_node_id": "0.0-69.0"}}, {"uniqueid": "MTK1237:3MRNMEIQW6DBCKBSA39I9MWCZS9LD4", "current_trial": 97, "dateTime": 1513463433794, "trialdata": {"rt": -1, "stimulus": "<p id=\"stim\">FLUTE</p>", "key_press": -1, "type": "PRES_VIS", "word": "flute", "wordID": 584, "conditions": [12, 800, "v", 12000], "trial": 2, "serialpos": 8, "trial_type": "single-stim", "trial_index": 97, "time_elapsed": 673958, "internal_node_id": "0.0-70.0"}}, {"uniqueid": "MTK1237:3MRNMEIQW6DBCKBSA39I9MWCZS9LD4", "current_trial": 98, "dateTime": 1513463435566, "trialdata": {"rt": -1, "stimulus": "<p id=\"stim\">STICKER</p>", "key_press": -1, "type": "PRES_VIS", "word": "sticker", "wordID": 1381, "conditions": [12, 800, "v", 12000], "trial": 2, "serialpos": 9, "trial_type": "single-stim", "trial_index": 98, "time_elapsed": 675730, "internal_node_id": "0.0-71.0"}}, {"uniqueid": "MTK1237:3MRNMEIQW6DBCKBSA39I9MWCZS9LD4", "current_trial": 99, "dateTime": 1513463437555, "trialdata": {"rt": -1, "stimulus": "<p id=\"stim\">NECKLACE</p>", "key_press": -1, "type": "PRES_VIS", "word": "necklace", "wordID": 939, "conditions": [12, 800, "v", 12000], "trial": 2, "serialpos": 10, "trial_type": "single-stim", "trial_index": 99, "time_elapsed": 677720, "internal_node_id": "0.0-72.0"}}, {"uniqueid": "MTK1237:3MRNMEIQW6DBCKBSA39I9MWCZS9LD4", "current_trial": 100, "dateTime": 1513463439221, "trialdata": {"rt": -1, "stimulus": "<p id=\"stim\">PLAYGROUND</p>", "key_press": -1, "type": "PRES_VIS", "word": "playground", "wordID": 1086, "conditions": [12, 800, "v", 12000], "trial": 2, "serialpos": 11, "trial_type": "single-stim", "trial_index": 100, "time_elapsed": 679386, "internal_node_id": "0.0-73.0"}}, {"uniqueid": "MTK1237:3MRNMEIQW6DBCKBSA39I9MWCZS9LD4", "current_trial": 101, "dateTime": 1513463441426, "trialdata": {"rt": -1, "stimulus": "", "key_press": -1, "type": "PRE_RECALL_DELAY", "trial_type": "single-stim", "trial_index": 101, "time_elapsed": 681590, "internal_node_id": "0.0-74.0-0.0"}}, {"uniqueid": "MTK1237:3MRNMEIQW6DBCKBSA39I9MWCZS9LD4", "current_trial": 102, "dateTime": 1513463441922, "trialdata": {"rt": -1000, "stimulus": "/static/audio/400Hz.wav", "key_press": -1, "type": "PRE_RECALL_ALERT", "trial_type": "single-audio", "trial_index": 102, "time_elapsed": 682087, "internal_node_id": "0.0-75.0"}}, {"uniqueid": "MTK1237:3MRNMEIQW6DBCKBSA39I9MWCZS9LD4", "current_trial": 103, "dateTime": 1513463501935, "trialdata": {"rt": [5258, 7635, 12823, 15182, 36737], "recwords": ["playground", "sticker", "piano", "termite", "flute"], "type": "FREE_RECALL", "conditions": [12, 800, "v", 12000], "trial": 2, "trial_type": "free-recall", "trial_index": 103, "time_elapsed": 742096, "internal_node_id": "0.0-76.0-0.0"}}, {"uniqueid": "MTK1237:3MRNMEIQW6DBCKBSA39I9MWCZS9LD4", "current_trial": 104, "dateTime": 1513463505798, "trialdata": {"rt": 1861, "key_press": 13, "type": "INSTRUCTIONS", "trial_type": "text", "trial_index": 104, "time_elapsed": 745963, "internal_node_id": "0.0-77.0"}}, {"uniqueid": "MTK1237:3MRNMEIQW6DBCKBSA39I9MWCZS9LD4", "current_trial": 105, "dateTime": 1513463531803, "trialdata": {"rt": [3034, 4548, 5984, 9826, 13289, 17904, 19576, 22355], "responses": ["8", "12", "17", "22", "19", "9", "12", "19"], "num1": [5, 9, 1, 6, 9, 2, 6, 6, 7], "num2": [2, 2, 9, 8, 4, 2, 2, 7, 5], "num3": [1, 1, 7, 8, 6, 5, 4, 6, 6], "type": "DISTRACTOR", "conditions": [24, 1600, "v", 24000], "trial": 3, "trial_type": "math-distractor", "trial_index": 105, "time_elapsed": 771968, "internal_node_id": "0.0-78.0"}}, {"uniqueid": "MTK1237:3MRNMEIQW6DBCKBSA39I9MWCZS9LD4", "current_trial": 106, "dateTime": 1513463534807, "trialdata": {"rt": -1, "stimulus": "<p id=\"stim\">10</p>", "key_press": -1, "trial_type": "single-stim", "trial_index": 106, "time_elapsed": 774971, "internal_node_id": "0.0-79.0-0.0"}}, {"uniqueid": "MTK1237:3MRNMEIQW6DBCKBSA39I9MWCZS9LD4", "current_trial": 107, "dateTime": 1513463535809, "trialdata": {"rt": -1, "stimulus": "<p id=\"stim\">9</p>", "key_press": -1, "trial_type": "single-stim", "trial_index": 107, "time_elapsed": 775973, "internal_node_id": "0.0-79.0-1.0"}}, {"uniqueid": "MTK1237:3MRNMEIQW6DBCKBSA39I9MWCZS9LD4", "current_trial": 108, "dateTime": 1513463536812, "trialdata": {"rt": -1, "stimulus": "<p id=\"stim\">8</p>", "key_press": -1, "trial_type": "single-stim", "trial_index": 108, "time_elapsed": 776974, "internal_node_id": "0.0-79.0-2.0"}}, {"uniqueid": "MTK1237:3MRNMEIQW6DBCKBSA39I9MWCZS9LD4", "current_trial": 109, "dateTime": 1513463537815, "trialdata": {"rt": -1, "stimulus": "<p id=\"stim\">7</p>", "key_press": -1, "trial_type": "single-stim", "trial_index": 109, "time_elapsed": 777979, "internal_node_id": "0.0-79.0-3.0"}}, {"uniqueid": "MTK1237:3MRNMEIQW6DBCKBSA39I9MWCZS9LD4", "current_trial": 110, "dateTime": 1513463538817, "trialdata": {"rt": -1, "stimulus": "<p id=\"stim\">6</p>", "key_press": -1, "trial_type": "single-stim", "trial_index": 110, "time_elapsed": 778981, "internal_node_id": "0.0-79.0-4.0"}}, {"uniqueid": "MTK1237:3MRNMEIQW6DBCKBSA39I9MWCZS9LD4", "current_trial": 111, "dateTime": 1513463539819, "trialdata": {"rt": -1, "stimulus": "<p id=\"stim\">5</p>", "key_press": -1, "trial_type": "single-stim", "trial_index": 111, "time_elapsed": 779983, "internal_node_id": "0.0-79.0-5.0"}}, {"uniqueid": "MTK1237:3MRNMEIQW6DBCKBSA39I9MWCZS9LD4", "current_trial": 112, "dateTime": 1513463540821, "trialdata": {"rt": -1, "stimulus": "<p id=\"stim\">4</p>", "key_press": -1, "trial_type": "single-stim", "trial_index": 112, "time_elapsed": 780985, "internal_node_id": "0.0-79.0-6.0"}}, {"uniqueid": "MTK1237:3MRNMEIQW6DBCKBSA39I9MWCZS9LD4", "current_trial": 113, "dateTime": 1513463541823, "trialdata": {"rt": -1, "stimulus": "<p id=\"stim\">3</p>", "key_press": -1, "trial_type": "single-stim", "trial_index": 113, "time_elapsed": 781987, "internal_node_id": "0.0-79.0-7.0"}}, {"uniqueid": "MTK1237:3MRNMEIQW6DBCKBSA39I9MWCZS9LD4", "current_trial": 114, "dateTime": 1513463542825, "trialdata": {"rt": -1, "stimulus": "<p id=\"stim\">2</p>", "key_press": -1, "trial_type": "single-stim", "trial_index": 114, "time_elapsed": 782989, "internal_node_id": "0.0-79.0-8.0"}}, {"uniqueid": "MTK1237:3MRNMEIQW6DBCKBSA39I9MWCZS9LD4", "current_trial": 115, "dateTime": 1513463543826, "trialdata": {"rt": -1, "stimulus": "<p id=\"stim\">1</p>", "key_press": -1, "trial_type": "single-stim", "trial_index": 115, "time_elapsed": 783991, "internal_node_id": "0.0-79.0-9.0"}}, {"uniqueid": "MTK1237:3MRNMEIQW6DBCKBSA39I9MWCZS9LD4", "current_trial": 116, "dateTime": 1513463545328, "trialdata": {"rt": -1, "stimulus": "<p id=\"stim\">+</p>", "key_press": -1, "type": "FIXATION", "trial_type": "single-stim", "trial_index": 116, "time_elapsed": 785492, "internal_node_id": "0.0-80.0-0.0"}}, {"uniqueid": "MTK1237:3MRNMEIQW6DBCKBSA39I9MWCZS9LD4", "current_trial": 117, "dateTime": 1513463546930, "trialdata": {"rt": -1, "stimulus": "<p id=\"stim\">VALVE</p>", "key_press": -1, "type": "PRES_VIS", "word": "valve", "wordID": 1545, "conditions": [24, 1600, "v", 24000], "trial": 3, "serialpos": 0, "trial_type": "single-stim", "trial_index": 117, "time_elapsed": 787094, "internal_node_id": "0.0-81.0"}}, {"uniqueid": "MTK1237:3MRNMEIQW6DBCKBSA39I9MWCZS9LD4", "current_trial": 118, "dateTime": 1513463549558, "trialdata": {"rt": -1, "stimulus": "<p id=\"stim\">NEUTRON</p>", "key_press": -1, "type": "PRES_VIS", "word": "neutron", "wordID": 946, "conditions": [24, 1600, "v", 24000], "trial": 3, "serialpos": 1, "trial_type": "single-stim", "trial_index": 118, "time_elapsed": 789722, "internal_node_id": "0.0-82.0"}}, {"uniqueid": "MTK1237:3MRNMEIQW6DBCKBSA39I9MWCZS9LD4", "current_trial": 119, "dateTime": 1513463551966, "trialdata": {"rt": -1, "stimulus": "<p id=\"stim\">ROBOT</p>", "key_press": -1, "type": "PRES_VIS", "word": "robot", "wordID": 1199, "conditions": [24, 1600, "v", 24000], "trial": 3, "serialpos": 2, "trial_type": "single-stim", "trial_index": 119, "time_elapsed": 792130, "internal_node_id": "0.0-83.0"}}, {"uniqueid": "MTK1237:3MRNMEIQW6DBCKBSA39I9MWCZS9LD4", "current_trial": 120, "dateTime": 1513463554666, "trialdata": {"rt": -1, "stimulus": "<p id=\"stim\">SERVER</p>", "key_press": -1, "type": "PRES_VIS", "word": "server", "wordID": 1271, "conditions": [24, 1600, "v", 24000], "trial": 3, "serialpos": 3, "trial_type": "single-stim", "trial_index": 120, "time_elapsed": 794830, "internal_node_id": "0.0-84.0"}}, {"uniqueid": "MTK1237:3MRNMEIQW6DBCKBSA39I9MWCZS9LD4", "current_trial": 121, "dateTime": 1513463557158, "trialdata": {"rt": -1, "stimulus": "<p id=\"stim\">CASHEW</p>", "key_press": -1, "type": "PRES_VIS", "word": "cashew", "wordID": 252, "conditions": [24, 1600, "v", 24000], "trial": 3, "serialpos": 4, "trial_type": "single-stim", "trial_index": 121, "time_elapsed": 797322, "internal_node_id": "0.0-85.0"}}, {"uniqueid": "MTK1237:3MRNMEIQW6DBCKBSA39I9MWCZS9LD4", "current_trial": 122, "dateTime": 1513463559763, "trialdata": {"rt": -1, "stimulus": "<p id=\"stim\">PORK</p>", "key_press": -1, "type": "PRES_VIS", "word": "pork", "wordID": 1107, "conditions": [24, 1600, "v", 24000], "trial": 3, "serialpos": 5, "trial_type": "single-stim", "trial_index": 122, "time_elapsed": 799927, "internal_node_id": "0.0-86.0"}}, {"uniqueid": "MTK1237:3MRNMEIQW6DBCKBSA39I9MWCZS9LD4", "current_trial": 123, "dateTime": 1513463562265, "trialdata": {"rt": -1, "stimulus": "<p id=\"stim\">CRAB</p>", "key_press": -1, "type": "PRES_VIS", "word": "crab", "wordID": 396, "conditions": [24, 1600, "v", 24000], "trial": 3, "serialpos": 6, "trial_type": "single-stim", "trial_index": 123, "time_elapsed": 802429, "internal_node_id": "0.0-87.0"}}, {"uniqueid": "MTK1237:3MRNMEIQW6DBCKBSA39I9MWCZS9LD4", "current_trial": 124, "dateTime": 1513463564793, "trialdata": {"rt": -1, "stimulus": "<p id=\"stim\">ICING</p>", "key_press": -1, "type": "PRES_VIS", "word": "icing", "wordID": 731, "conditions": [24, 1600, "v", 24000], "trial": 3, "serialpos": 7, "trial_type": "single-stim", "trial_index": 124, "time_elapsed": 804957, "internal_node_id": "0.0-88.0"}}, {"uniqueid": "MTK1237:3MRNMEIQW6DBCKBSA39I9MWCZS9LD4", "current_trial": 125, "dateTime": 1513463567246, "trialdata": {"rt": -1, "stimulus": "<p id=\"stim\">ROOSTER</p>", "key_press": -1, "type": "PRES_VIS", "word": "rooster", "wordID": 1208, "conditions": [24, 1600, "v", 24000], "trial": 3, "serialpos": 8, "trial_type": "single-stim", "trial_index": 125, "time_elapsed": 807410, "internal_node_id": "0.0-89.0"}}, {"uniqueid": "MTK1237:3MRNMEIQW6DBCKBSA39I9MWCZS9LD4", "current_trial": 126, "dateTime": 1513463570013, "trialdata": {"rt": -1, "stimulus": "<p id=\"stim\">FOX</p>", "key_press": -1, "type": "PRES_VIS", "word": "fox", "wordID": 597, "conditions": [24, 1600, "v", 24000], "trial": 3, "serialpos": 9, "trial_type": "single-stim", "trial_index": 126, "time_elapsed": 810177, "internal_node_id": "0.0-90.0"}}, {"uniqueid": "MTK1237:3MRNMEIQW6DBCKBSA39I9MWCZS9LD4", "current_trial": 127, "dateTime": 1513463572725, "trialdata": {"rt": -1, "stimulus": "<p id=\"stim\">FEMALE</p>", "key_press": -1, "type": "PRES_VIS", "word": "female", "wordID": 558, "conditions": [24, 1600, "v", 24000], "trial": 3, "serialpos": 10, "trial_type": "single-stim", "trial_index": 127, "time_elapsed": 812890, "internal_node_id": "0.0-91.0"}}, {"uniqueid": "MTK1237:3MRNMEIQW6DBCKBSA39I9MWCZS9LD4", "current_trial": 128, "dateTime": 1513463575216, "trialdata": {"rt": -1, "stimulus": "<p id=\"stim\">SCALLOP</p>", "key_press": -1, "type": "PRES_VIS", "word": "scallop", "wordID": 1241, "conditions": [24, 1600, "v", 24000], "trial": 3, "serialpos": 11, "trial_type": "single-stim", "trial_index": 128, "time_elapsed": 815380, "internal_node_id": "0.0-92.0"}}, {"uniqueid": "MTK1237:3MRNMEIQW6DBCKBSA39I9MWCZS9LD4", "current_trial": 129, "dateTime": 1513463577972, "trialdata": {"rt": -1, "stimulus": "<p id=\"stim\">HOOD</p>", "key_press": -1, "type": "PRES_VIS", "word": "hood", "wordID": 713, "conditions": [24, 1600, "v", 24000], "trial": 3, "serialpos": 12, "trial_type": "single-stim", "trial_index": 129, "time_elapsed": 818136, "internal_node_id": "0.0-93.0"}}, {"uniqueid": "MTK1237:3MRNMEIQW6DBCKBSA39I9MWCZS9LD4", "current_trial": 130, "dateTime": 1513463580424, "trialdata": {"rt": -1, "stimulus": "<p id=\"stim\">COLLEGE</p>", "key_press": -1, "type": "PRES_VIS", "word": "college", "wordID": 345, "conditions": [24, 1600, "v", 24000], "trial": 3, "serialpos": 13, "trial_type": "single-stim", "trial_index": 130, "time_elapsed": 820588, "internal_node_id": "0.0-94.0"}}, {"uniqueid": "MTK1237:3MRNMEIQW6DBCKBSA39I9MWCZS9LD4", "current_trial": 131, "dateTime": 1513463582980, "trialdata": {"rt": -1, "stimulus": "<p id=\"stim\">SHRUB</p>", "key_press": -1, "type": "PRES_VIS", "word": "shrub", "wordID": 1298, "conditions": [24, 1600, "v", 24000], "trial": 3, "serialpos": 14, "trial_type": "single-stim", "trial_index": 131, "time_elapsed": 823145, "internal_node_id": "0.0-95.0"}}, {"uniqueid": "MTK1237:3MRNMEIQW6DBCKBSA39I9MWCZS9LD4", "current_trial": 132, "dateTime": 1513463585709, "trialdata": {"rt": -1, "stimulus": "<p id=\"stim\">PEPPER</p>", "key_press": -1, "type": "PRES_VIS", "word": "pepper", "wordID": 1046, "conditions": [24, 1600, "v", 24000], "trial": 3, "serialpos": 15, "trial_type": "single-stim", "trial_index": 132, "time_elapsed": 825874, "internal_node_id": "0.0-96.0"}}, {"uniqueid": "MTK1237:3MRNMEIQW6DBCKBSA39I9MWCZS9LD4", "current_trial": 133, "dateTime": 1513463588152, "trialdata": {"rt": -1, "stimulus": "<p id=\"stim\">PERCH</p>", "key_press": -1, "type": "PRES_VIS", "word": "perch", "wordID": 1047, "conditions": [24, 1600, "v", 24000], "trial": 3, "serialpos": 16, "trial_type": "single-stim", "trial_index": 133, "time_elapsed": 828316, "internal_node_id": "0.0-97.0"}}, {"uniqueid": "MTK1237:3MRNMEIQW6DBCKBSA39I9MWCZS9LD4", "current_trial": 134, "dateTime": 1513463590842, "trialdata": {"rt": -1, "stimulus": "<p id=\"stim\">MAILBOX</p>", "key_press": -1, "type": "PRES_VIS", "word": "mailbox", "wordID": 856, "conditions": [24, 1600, "v", 24000], "trial": 3, "serialpos": 17, "trial_type": "single-stim", "trial_index": 134, "time_elapsed": 831006, "internal_node_id": "0.0-98.0"}}, {"uniqueid": "MTK1237:3MRNMEIQW6DBCKBSA39I9MWCZS9LD4", "current_trial": 135, "dateTime": 1513463593456, "trialdata": {"rt": -1, "stimulus": "<p id=\"stim\">MAILMAN</p>", "key_press": -1, "type": "PRES_VIS", "word": "mailman", "wordID": 857, "conditions": [24, 1600, "v", 24000], "trial": 3, "serialpos": 18, "trial_type": "single-stim", "trial_index": 135, "time_elapsed": 833620, "internal_node_id": "0.0-99.0"}}, {"uniqueid": "MTK1237:3MRNMEIQW6DBCKBSA39I9MWCZS9LD4", "current_trial": 136, "dateTime": 1513463595975, "trialdata": {"rt": -1, "stimulus": "<p id=\"stim\">MILK</p>", "key_press": -1, "type": "PRES_VIS", "word": "milk", "wordID": 894, "conditions": [24, 1600, "v", 24000], "trial": 3, "serialpos": 19, "trial_type": "single-stim", "trial_index": 136, "time_elapsed": 836139, "internal_node_id": "0.0-100.0"}}, {"uniqueid": "MTK1237:3MRNMEIQW6DBCKBSA39I9MWCZS9LD4", "current_trial": 137, "dateTime": 1513463598420, "trialdata": {"rt": -1, "stimulus": "<p id=\"stim\">STUDENT</p>", "key_press": -1, "type": "PRES_VIS", "word": "student", "wordID": 1394, "conditions": [24, 1600, "v", 24000], "trial": 3, "serialpos": 20, "trial_type": "single-stim", "trial_index": 137, "time_elapsed": 838584, "internal_node_id": "0.0-101.0"}}, {"uniqueid": "MTK1237:3MRNMEIQW6DBCKBSA39I9MWCZS9LD4", "current_trial": 138, "dateTime": 1513463601157, "trialdata": {"rt": -1, "stimulus": "<p id=\"stim\">OYSTER</p>", "key_press": -1, "type": "PRES_VIS", "word": "oyster", "wordID": 994, "conditions": [24, 1600, "v", 24000], "trial": 3, "serialpos": 21, "trial_type": "single-stim", "trial_index": 138, "time_elapsed": 841321, "internal_node_id": "0.0-102.0"}}, {"uniqueid": "MTK1237:3MRNMEIQW6DBCKBSA39I9MWCZS9LD4", "current_trial": 139, "dateTime": 1513463603658, "trialdata": {"rt": -1, "stimulus": "<p id=\"stim\">POPCORN</p>", "key_press": -1, "type": "PRES_VIS", "word": "popcorn", "wordID": 1103, "conditions": [24, 1600, "v", 24000], "trial": 3, "serialpos": 22, "trial_type": "single-stim", "trial_index": 139, "time_elapsed": 843822, "internal_node_id": "0.0-103.0"}}, {"uniqueid": "MTK1237:3MRNMEIQW6DBCKBSA39I9MWCZS9LD4", "current_trial": 140, "dateTime": 1513463606368, "trialdata": {"rt": -1, "stimulus": "<p id=\"stim\">PEANUT</p>", "key_press": -1, "type": "PRES_VIS", "word": "peanut", "wordID": 1031, "conditions": [24, 1600, "v", 24000], "trial": 3, "serialpos": 23, "trial_type": "single-stim", "trial_index": 140, "time_elapsed": 846532, "internal_node_id": "0.0-104.0"}}, {"uniqueid": "MTK1237:3MRNMEIQW6DBCKBSA39I9MWCZS9LD4", "current_trial": 141, "dateTime": 1513463608772, "trialdata": {"rt": -1, "stimulus": "", "key_press": -1, "type": "PRE_RECALL_DELAY", "trial_type": "single-stim", "trial_index": 141, "time_elapsed": 848936, "internal_node_id": "0.0-105.0-0.0"}}, {"uniqueid": "MTK1237:3MRNMEIQW6DBCKBSA39I9MWCZS9LD4", "current_trial": 142, "dateTime": 1513463609270, "trialdata": {"rt": -1000, "stimulus": "/static/audio/400Hz.wav", "key_press": -1, "type": "PRE_RECALL_ALERT", "trial_type": "single-audio", "trial_index": 142, "time_elapsed": 849435, "internal_node_id": "0.0-106.0"}}, {"uniqueid": "MTK1237:3MRNMEIQW6DBCKBSA39I9MWCZS9LD4", "current_trial": 143, "dateTime": 1513463669292, "trialdata": {"rt": [3337, 5888, 8072, 9689, 12932, 14087, 17851, 31636, 39614], "recwords": ["peanut", "popcorn", "college", "student", "female", "fox", "shrub", "icing", "perch"], "type": "FREE_RECALL", "conditions": [24, 1600, "v", 24000], "trial": 3, "trial_type": "free-recall", "trial_index": 143, "time_elapsed": 909452, "internal_node_id": "0.0-107.0-0.0"}}, {"uniqueid": "MTK1237:3MRNMEIQW6DBCKBSA39I9MWCZS9LD4", "current_trial": 144, "dateTime": 1513463673900, "trialdata": {"rt": 2607, "key_press": 13, "type": "INSTRUCTIONS", "trial_type": "text", "trial_index": 144, "time_elapsed": 914065, "internal_node_id": "0.0-108.0"}}, {"uniqueid": "MTK1237:3MRNMEIQW6DBCKBSA39I9MWCZS9LD4", "current_trial": 145, "dateTime": 1513463699902, "trialdata": {"rt": [1729, 4121, 11277, 13465, 14949, 16978, 18783, 20384, 21985], "responses": ["16", "13", "33", "15", "11", "15", "13", "17", "6"], "num1": [5, 2, 9, 6, 1, 1, 6, 3, 2, 9], "num2": [5, 3, 6, 5, 8, 6, 6, 7, 3, 3], "num3": [6, 8, 8, 4, 2, 8, 1, 7, 1, 5], "type": "DISTRACTOR", "conditions": [12, 800, "a", 24000], "trial": 4, "trial_type": "math-distractor", "trial_index": 145, "time_elapsed": 940067, "internal_node_id": "0.0-109.0"}}, {"uniqueid": "MTK1237:3MRNMEIQW6DBCKBSA39I9MWCZS9LD4", "current_trial": 146, "dateTime": 1513463702905, "trialdata": {"rt": -1, "stimulus": "<p id=\"stim\">10</p>", "key_press": -1, "trial_type": "single-stim", "trial_index": 146, "time_elapsed": 943069, "internal_node_id": "0.0-110.0-0.0"}}, {"uniqueid": "MTK1237:3MRNMEIQW6DBCKBSA39I9MWCZS9LD4", "current_trial": 147, "dateTime": 1513463703907, "trialdata": {"rt": -1, "stimulus": "<p id=\"stim\">9</p>", "key_press": -1, "trial_type": "single-stim", "trial_index": 147, "time_elapsed": 944071, "internal_node_id": "0.0-110.0-1.0"}}, {"uniqueid": "MTK1237:3MRNMEIQW6DBCKBSA39I9MWCZS9LD4", "current_trial": 148, "dateTime": 1513463704909, "trialdata": {"rt": -1, "stimulus": "<p id=\"stim\">8</p>", "key_press": -1, "trial_type": "single-stim", "trial_index": 148, "time_elapsed": 945073, "internal_node_id": "0.0-110.0-2.0"}}, {"uniqueid": "MTK1237:3MRNMEIQW6DBCKBSA39I9MWCZS9LD4", "current_trial": 149, "dateTime": 1513463705911, "trialdata": {"rt": -1, "stimulus": "<p id=\"stim\">7</p>", "key_press": -1, "trial_type": "single-stim", "trial_index": 149, "time_elapsed": 946075, "internal_node_id": "0.0-110.0-3.0"}}, {"uniqueid": "MTK1237:3MRNMEIQW6DBCKBSA39I9MWCZS9LD4", "current_trial": 150, "dateTime": 1513463706913, "trialdata": {"rt": -1, "stimulus": "<p id=\"stim\">6</p>", "key_press": -1, "trial_type": "single-stim", "trial_index": 150, "time_elapsed": 947076, "internal_node_id": "0.0-110.0-4.0"}}, {"uniqueid": "MTK1237:3MRNMEIQW6DBCKBSA39I9MWCZS9LD4", "current_trial": 151, "dateTime": 1513463707915, "trialdata": {"rt": -1, "stimulus": "<p id=\"stim\">5</p>", "key_press": -1, "trial_type": "single-stim", "trial_index": 151, "time_elapsed": 948079, "internal_node_id": "0.0-110.0-5.0"}}, {"uniqueid": "MTK1237:3MRNMEIQW6DBCKBSA39I9MWCZS9LD4", "current_trial": 152, "dateTime": 1513463708917, "trialdata": {"rt": -1, "stimulus": "<p id=\"stim\">4</p>", "key_press": -1, "trial_type": "single-stim", "trial_index": 152, "time_elapsed": 949081, "internal_node_id": "0.0-110.0-6.0"}}, {"uniqueid": "MTK1237:3MRNMEIQW6DBCKBSA39I9MWCZS9LD4", "current_trial": 153, "dateTime": 1513463709919, "trialdata": {"rt": -1, "stimulus": "<p id=\"stim\">3</p>", "key_press": -1, "trial_type": "single-stim", "trial_index": 153, "time_elapsed": 950083, "internal_node_id": "0.0-110.0-7.0"}}, {"uniqueid": "MTK1237:3MRNMEIQW6DBCKBSA39I9MWCZS9LD4", "current_trial": 154, "dateTime": 1513463710920, "trialdata": {"rt": -1, "stimulus": "<p id=\"stim\">2</p>", "key_press": -1, "trial_type": "single-stim", "trial_index": 154, "time_elapsed": 951084, "internal_node_id": "0.0-110.0-8.0"}}, {"uniqueid": "MTK1237:3MRNMEIQW6DBCKBSA39I9MWCZS9LD4", "current_trial": 155, "dateTime": 1513463711923, "trialdata": {"rt": -1, "stimulus": "<p id=\"stim\">1</p>", "key_press": -1, "trial_type": "single-stim", "trial_index": 155, "time_elapsed": 952087, "internal_node_id": "0.0-110.0-9.0"}}, {"uniqueid": "MTK1237:3MRNMEIQW6DBCKBSA39I9MWCZS9LD4", "current_trial": 156, "dateTime": 1513463713425, "trialdata": {"rt": -1, "stimulus": "<p id=\"stim\">+</p>", "key_press": -1, "type": "FIXATION", "trial_type": "single-stim", "trial_index": 156, "time_elapsed": 953589, "internal_node_id": "0.0-111.0-0.0"}}, {"uniqueid": "MTK1237:3MRNMEIQW6DBCKBSA39I9MWCZS9LD4", "current_trial": 157, "dateTime": 1513463715104, "trialdata": {"rt": -1000, "stimulus": "/static/audio/wordpool/SWORD.wav", "key_press": -1, "type": "PRES_AUD", "word": "sword", "wordID": 1422, "conditions": [12, 800, "a", 24000], "trial": 4, "serialpos": 0, "trial_type": "single-audio", "trial_index": 157, "time_elapsed": 955269, "internal_node_id": "0.0-112.0"}}, {"uniqueid": "MTK1237:3MRNMEIQW6DBCKBSA39I9MWCZS9LD4", "current_trial": 158, "dateTime": 1513463716985, "trialdata": {"rt": -1000, "stimulus": "/static/audio/wordpool/SPARROW.wav", "key_press": -1, "type": "PRES_AUD", "word": "sparrow", "wordID": 1346, "conditions": [12, 800, "a", 24000], "trial": 4, "serialpos": 1, "trial_type": "single-audio", "trial_index": 158, "time_elapsed": 957150, "internal_node_id": "0.0-113.0"}}, {"uniqueid": "MTK1237:3MRNMEIQW6DBCKBSA39I9MWCZS9LD4", "current_trial": 159, "dateTime": 1513463718796, "trialdata": {"rt": -1000, "stimulus": "/static/audio/wordpool/TWIG.wav", "key_press": -1, "type": "PRES_AUD", "word": "twig", "wordID": 1526, "conditions": [12, 800, "a", 24000], "trial": 4, "serialpos": 2, "trial_type": "single-audio", "trial_index": 159, "time_elapsed": 958961, "internal_node_id": "0.0-114.0"}}, {"uniqueid": "MTK1237:3MRNMEIQW6DBCKBSA39I9MWCZS9LD4", "current_trial": 160, "dateTime": 1513463720593, "trialdata": {"rt": -1000, "stimulus": "/static/audio/wordpool/CRUTCH.wav", "key_press": -1, "type": "PRES_AUD", "word": "crutch", "wordID": 416, "conditions": [12, 800, "a", 24000], "trial": 4, "serialpos": 3, "trial_type": "single-audio", "trial_index": 160, "time_elapsed": 960758, "internal_node_id": "0.0-115.0"}}, {"uniqueid": "MTK1237:3MRNMEIQW6DBCKBSA39I9MWCZS9LD4", "current_trial": 161, "dateTime": 1513463722531, "trialdata": {"rt": -1000, "stimulus": "/static/audio/wordpool/BATHTUB.wav", "key_press": -1, "type": "PRES_AUD", "word": "bathtub", "wordID": 99, "conditions": [12, 800, "a", 24000], "trial": 4, "serialpos": 4, "trial_type": "single-audio", "trial_index": 161, "time_elapsed": 962696, "internal_node_id": "0.0-116.0"}}, {"uniqueid": "MTK1237:3MRNMEIQW6DBCKBSA39I9MWCZS9LD4", "current_trial": 162, "dateTime": 1513463724198, "trialdata": {"rt": -1000, "stimulus": "/static/audio/wordpool/ATLAS.wav", "key_press": -1, "type": "PRES_AUD", "word": "atlas", "wordID": 52, "conditions": [12, 800, "a", 24000], "trial": 4, "serialpos": 5, "trial_type": "single-audio", "trial_index": 162, "time_elapsed": 964363, "internal_node_id": "0.0-117.0"}}, {"uniqueid": "MTK1237:3MRNMEIQW6DBCKBSA39I9MWCZS9LD4", "current_trial": 163, "dateTime": 1513463726116, "trialdata": {"rt": -1000, "stimulus": "/static/audio/wordpool/BALLOON.wav", "key_press": -1, "type": "PRES_AUD", "word": "balloon", "wordID": 74, "conditions": [12, 800, "a", 24000], "trial": 4, "serialpos": 6, "trial_type": "single-audio", "trial_index": 163, "time_elapsed": 966281, "internal_node_id": "0.0-118.0"}}, {"uniqueid": "MTK1237:3MRNMEIQW6DBCKBSA39I9MWCZS9LD4", "current_trial": 164, "dateTime": 1513463727876, "trialdata": {"rt": -1000, "stimulus": "/static/audio/wordpool/PORTRAIT.wav", "key_press": -1, "type": "PRES_AUD", "word": "portrait", "wordID": 1110, "conditions": [12, 800, "a", 24000], "trial": 4, "serialpos": 7, "trial_type": "single-audio", "trial_index": 164, "time_elapsed": 968041, "internal_node_id": "0.0-119.0"}}, {"uniqueid": "MTK1237:3MRNMEIQW6DBCKBSA39I9MWCZS9LD4", "current_trial": 165, "dateTime": 1513463729684, "trialdata": {"rt": -1000, "stimulus": "/static/audio/wordpool/SUPPER.wav", "key_press": -1, "type": "PRES_AUD", "word": "supper", "wordID": 1410, "conditions": [12, 800, "a", 24000], "trial": 4, "serialpos": 8, "trial_type": "single-audio", "trial_index": 165, "time_elapsed": 969849, "internal_node_id": "0.0-120.0"}}, {"uniqueid": "MTK1237:3MRNMEIQW6DBCKBSA39I9MWCZS9LD4", "current_trial": 166, "dateTime": 1513463731459, "trialdata": {"rt": -1000, "stimulus": "/static/audio/wordpool/DRESSER.wav", "key_press": -1, "type": "PRES_AUD", "word": "dresser", "wordID": 495, "conditions": [12, 800, "a", 24000], "trial": 4, "serialpos": 9, "trial_type": "single-audio", "trial_index": 166, "time_elapsed": 971624, "internal_node_id": "0.0-121.0"}}, {"uniqueid": "MTK1237:3MRNMEIQW6DBCKBSA39I9MWCZS9LD4", "current_trial": 167, "dateTime": 1513463733107, "trialdata": {"rt": -1000, "stimulus": "/static/audio/wordpool/CUPBOARD.wav", "key_press": -1, "type": "PRES_AUD", "word": "cupboard", "wordID": 424, "conditions": [12, 800, "a", 24000], "trial": 4, "serialpos": 10, "trial_type": "single-audio", "trial_index": 167, "time_elapsed": 973272, "internal_node_id": "0.0-122.0"}}, {"uniqueid": "MTK1237:3MRNMEIQW6DBCKBSA39I9MWCZS9LD4", "current_trial": 168, "dateTime": 1513463734825, "trialdata": {"rt": -1000, "stimulus": "/static/audio/wordpool/BANQUET.wav", "key_press": -1, "type": "PRES_AUD", "word": "banquet", "wordID": 85, "conditions": [12, 800, "a", 24000], "trial": 4, "serialpos": 11, "trial_type": "single-audio", "trial_index": 168, "time_elapsed": 974990, "internal_node_id": "0.0-123.0"}}, {"uniqueid": "MTK1237:3MRNMEIQW6DBCKBSA39I9MWCZS9LD4", "current_trial": 169, "dateTime": 1513463736150, "trialdata": {"rt": -1, "stimulus": "", "key_press": -1, "type": "PRE_RECALL_DELAY", "trial_type": "single-stim", "trial_index": 169, "time_elapsed": 976315, "internal_node_id": "0.0-124.0-0.0"}}, {"uniqueid": "MTK1237:3MRNMEIQW6DBCKBSA39I9MWCZS9LD4", "current_trial": 170, "dateTime": 1513463736648, "trialdata": {"rt": -1000, "stimulus": "/static/audio/400Hz.wav", "key_press": -1, "type": "PRE_RECALL_ALERT", "trial_type": "single-audio", "trial_index": 170, "time_elapsed": 976813, "internal_node_id": "0.0-125.0"}}, {"uniqueid": "MTK1237:3MRNMEIQW6DBCKBSA39I9MWCZS9LD4", "current_trial": 171, "dateTime": 1513463796673, "trialdata": {"rt": [7916, 9689, 18253, 23277], "recwords": ["banquet", "supper", "bathtub", "sword"], "type": "FREE_RECALL", "conditions": [12, 800, "a", 24000], "trial": 4, "trial_type": "free-recall", "trial_index": 171, "time_elapsed": 1036832, "internal_node_id": "0.0-126.0-0.0"}}, {"uniqueid": "MTK1237:3MRNMEIQW6DBCKBSA39I9MWCZS9LD4", "current_trial": 172, "dateTime": 1513463801107, "trialdata": {"rt": 2432, "key_press": 13, "type": "INSTRUCTIONS", "trial_type": "text", "trial_index": 172, "time_elapsed": 1041272, "internal_node_id": "0.0-127.0"}}, {"uniqueid": "MTK1237:3MRNMEIQW6DBCKBSA39I9MWCZS9LD4", "current_trial": 173, "dateTime": 1513463827112, "trialdata": {"rt": [1710, 4534, 6941, 8403, 9621, 11656, 13400, 15340, 19013, 21337], "responses": ["16", "18", "13", "14", "14", "16", "7", "14", "18", "16"], "num1": [6, 5, 6, 3, 4, 2, 1, 8, 9, 7, 9], "num2": [2, 7, 2, 7, 6, 9, 4, 3, 3, 4, 2], "num3": [8, 6, 5, 4, 4, 5, 2, 3, 6, 5, 1], "type": "DISTRACTOR", "conditions": [24, 800, "v", 24000], "trial": 5, "trial_type": "math-distractor", "trial_index": 173, "time_elapsed": 1067277, "internal_node_id": "0.0-128.0"}}, {"uniqueid": "MTK1237:3MRNMEIQW6DBCKBSA39I9MWCZS9LD4", "current_trial": 174, "dateTime": 1513463830115, "trialdata": {"rt": -1, "stimulus": "<p id=\"stim\">10</p>", "key_press": -1, "trial_type": "single-stim", "trial_index": 174, "time_elapsed": 1070279, "internal_node_id": "0.0-129.0-0.0"}}, {"uniqueid": "MTK1237:3MRNMEIQW6DBCKBSA39I9MWCZS9LD4", "current_trial": 175, "dateTime": 1513463831117, "trialdata": {"rt": -1, "stimulus": "<p id=\"stim\">9</p>", "key_press": -1, "trial_type": "single-stim", "trial_index": 175, "time_elapsed": 1071281, "internal_node_id": "0.0-129.0-1.0"}}, {"uniqueid": "MTK1237:3MRNMEIQW6DBCKBSA39I9MWCZS9LD4", "current_trial": 176, "dateTime": 1513463832119, "trialdata": {"rt": -1, "stimulus": "<p id=\"stim\">8</p>", "key_press": -1, "trial_type": "single-stim", "trial_index": 176, "time_elapsed": 1072283, "internal_node_id": "0.0-129.0-2.0"}}, {"uniqueid": "MTK1237:3MRNMEIQW6DBCKBSA39I9MWCZS9LD4", "current_trial": 177, "dateTime": 1513463833121, "trialdata": {"rt": -1, "stimulus": "<p id=\"stim\">7</p>", "key_press": -1, "trial_type": "single-stim", "trial_index": 177, "time_elapsed": 1073285, "internal_node_id": "0.0-129.0-3.0"}}, {"uniqueid": "MTK1237:3MRNMEIQW6DBCKBSA39I9MWCZS9LD4", "current_trial": 178, "dateTime": 1513463834123, "trialdata": {"rt": -1, "stimulus": "<p id=\"stim\">6</p>", "key_press": -1, "trial_type": "single-stim", "trial_index": 178, "time_elapsed": 1074287, "internal_node_id": "0.0-129.0-4.0"}}, {"uniqueid": "MTK1237:3MRNMEIQW6DBCKBSA39I9MWCZS9LD4", "current_trial": 179, "dateTime": 1513463835125, "trialdata": {"rt": -1, "stimulus": "<p id=\"stim\">5</p>", "key_press": -1, "trial_type": "single-stim", "trial_index": 179, "time_elapsed": 1075289, "internal_node_id": "0.0-129.0-5.0"}}, {"uniqueid": "MTK1237:3MRNMEIQW6DBCKBSA39I9MWCZS9LD4", "current_trial": 180, "dateTime": 1513463836127, "trialdata": {"rt": -1, "stimulus": "<p id=\"stim\">4</p>", "key_press": -1, "trial_type": "single-stim", "trial_index": 180, "time_elapsed": 1076291, "internal_node_id": "0.0-129.0-6.0"}}, {"uniqueid": "MTK1237:3MRNMEIQW6DBCKBSA39I9MWCZS9LD4", "current_trial": 181, "dateTime": 1513463837129, "trialdata": {"rt": -1, "stimulus": "<p id=\"stim\">3</p>", "key_press": -1, "trial_type": "single-stim", "trial_index": 181, "time_elapsed": 1077293, "internal_node_id": "0.0-129.0-7.0"}}, {"uniqueid": "MTK1237:3MRNMEIQW6DBCKBSA39I9MWCZS9LD4", "current_trial": 182, "dateTime": 1513463838132, "trialdata": {"rt": -1, "stimulus": "<p id=\"stim\">2</p>", "key_press": -1, "trial_type": "single-stim", "trial_index": 182, "time_elapsed": 1078296, "internal_node_id": "0.0-129.0-8.0"}}, {"uniqueid": "MTK1237:3MRNMEIQW6DBCKBSA39I9MWCZS9LD4", "current_trial": 183, "dateTime": 1513463839133, "trialdata": {"rt": -1, "stimulus": "<p id=\"stim\">1</p>", "key_press": -1, "trial_type": "single-stim", "trial_index": 183, "time_elapsed": 1079297, "internal_node_id": "0.0-129.0-9.0"}}, {"uniqueid": "MTK1237:3MRNMEIQW6DBCKBSA39I9MWCZS9LD4", "current_trial": 184, "dateTime": 1513463840636, "trialdata": {"rt": -1, "stimulus": "<p id=\"stim\">+</p>", "key_press": -1, "type": "FIXATION", "trial_type": "single-stim", "trial_index": 184, "time_elapsed": 1080800, "internal_node_id": "0.0-130.0-0.0"}}, {"uniqueid": "MTK1237:3MRNMEIQW6DBCKBSA39I9MWCZS9LD4", "current_trial": 185, "dateTime": 1513463841438, "trialdata": {"rt": -1, "stimulus": "<p id=\"stim\">BREAST</p>", "key_press": -1, "type": "PRES_VIS", "word": "breast", "wordID": 170, "conditions": [24, 800, "v", 24000], "trial": 5, "serialpos": 0, "trial_type": "single-stim", "trial_index": 185, "time_elapsed": 1081602, "internal_node_id": "0.0-131.0"}}, {"uniqueid": "MTK1237:3MRNMEIQW6DBCKBSA39I9MWCZS9LD4", "current_trial": 186, "dateTime": 1513463843404, "trialdata": {"rt": -1, "stimulus": "<p id=\"stim\">OUTFIT</p>", "key_press": -1, "type": "PRES_VIS", "word": "outfit", "wordID": 987, "conditions": [24, 800, "v", 24000], "trial": 5, "serialpos": 1, "trial_type": "single-stim", "trial_index": 186, "time_elapsed": 1083568, "internal_node_id": "0.0-132.0"}}, {"uniqueid": "MTK1237:3MRNMEIQW6DBCKBSA39I9MWCZS9LD4", "current_trial": 187, "dateTime": 1513463845287, "trialdata": {"rt": -1, "stimulus": "<p id=\"stim\">GRAPE</p>", "key_press": -1, "type": "PRES_VIS", "word": "grape", "wordID": 653, "conditions": [24, 800, "v", 24000], "trial": 5, "serialpos": 2, "trial_type": "single-stim", "trial_index": 187, "time_elapsed": 1085452, "internal_node_id": "0.0-133.0"}}, {"uniqueid": "MTK1237:3MRNMEIQW6DBCKBSA39I9MWCZS9LD4", "current_trial": 188, "dateTime": 1513463847118, "trialdata": {"rt": -1, "stimulus": "<p id=\"stim\">FIDDLE</p>", "key_press": -1, "type": "PRES_VIS", "word": "fiddle", "wordID": 560, "conditions": [24, 800, "v", 24000], "trial": 5, "serialpos": 3, "trial_type": "single-stim", "trial_index": 188, "time_elapsed": 1087282, "internal_node_id": "0.0-134.0"}}, {"uniqueid": "MTK1237:3MRNMEIQW6DBCKBSA39I9MWCZS9LD4", "current_trial": 189, "dateTime": 1513463848958, "trialdata": {"rt": -1, "stimulus": "<p id=\"stim\">LILY</p>", "key_press": -1, "type": "PRES_VIS", "word": "lily", "wordID": 820, "conditions": [24, 800, "v", 24000], "trial": 5, "serialpos": 4, "trial_type": "single-stim", "trial_index": 189, "time_elapsed": 1089122, "internal_node_id": "0.0-135.0"}}, {"uniqueid": "MTK1237:3MRNMEIQW6DBCKBSA39I9MWCZS9LD4", "current_trial": 190, "dateTime": 1513463850685, "trialdata": {"rt": -1, "stimulus": "<p id=\"stim\">WAITER</p>", "key_press": -1, "type": "PRES_VIS", "word": "waiter", "wordID": 1579, "conditions": [24, 800, "v", 24000], "trial": 5, "serialpos": 5, "trial_type": "single-stim", "trial_index": 190, "time_elapsed": 1090850, "internal_node_id": "0.0-136.0"}}, {"uniqueid": "MTK1237:3MRNMEIQW6DBCKBSA39I9MWCZS9LD4", "current_trial": 191, "dateTime": 1513463852614, "trialdata": {"rt": -1, "stimulus": "<p id=\"stim\">CHEST</p>", "key_press": -1, "type": "PRES_VIS", "word": "chest", "wordID": 294, "conditions": [24, 800, "v", 24000], "trial": 5, "serialpos": 6, "trial_type": "single-stim", "trial_index": 191, "time_elapsed": 1092778, "internal_node_id": "0.0-137.0"}}, {"uniqueid": "MTK1237:3MRNMEIQW6DBCKBSA39I9MWCZS9LD4", "current_trial": 192, "dateTime": 1513463854493, "trialdata": {"rt": -1, "stimulus": "<p id=\"stim\">LEG</p>", "key_press": -1, "type": "PRES_VIS", "word": "leg", "wordID": 808, "conditions": [24, 800, "v", 24000], "trial": 5, "serialpos": 7, "trial_type": "single-stim", "trial_index": 192, "time_elapsed": 1094657, "internal_node_id": "0.0-138.0"}}, {"uniqueid": "MTK1237:3MRNMEIQW6DBCKBSA39I9MWCZS9LD4", "current_trial": 193, "dateTime": 1513463856106, "trialdata": {"rt": -1, "stimulus": "<p id=\"stim\">MONSTER</p>", "key_press": -1, "type": "PRES_VIS", "word": "monster", "wordID": 911, "conditions": [24, 800, "v", 24000], "trial": 5, "serialpos": 8, "trial_type": "single-stim", "trial_index": 193, "time_elapsed": 1096270, "internal_node_id": "0.0-139.0"}}, {"uniqueid": "MTK1237:3MRNMEIQW6DBCKBSA39I9MWCZS9LD4", "current_trial": 194, "dateTime": 1513463857953, "trialdata": {"rt": -1, "stimulus": "<p id=\"stim\">CREATURE</p>", "key_press": -1, "type": "PRES_VIS", "word": "creature", "wordID": 402, "conditions": [24, 800, "v", 24000], "trial": 5, "serialpos": 9, "trial_type": "single-stim", "trial_index": 194, "time_elapsed": 1098117, "internal_node_id": "0.0-140.0"}}, {"uniqueid": "MTK1237:3MRNMEIQW6DBCKBSA39I9MWCZS9LD4", "current_trial": 195, "dateTime": 1513463859605, "trialdata": {"rt": -1, "stimulus": "<p id=\"stim\">WAITRESS</p>", "key_press": -1, "type": "PRES_VIS", "word": "waitress", "wordID": 1580, "conditions": [24, 800, "v", 24000], "trial": 5, "serialpos": 10, "trial_type": "single-stim", "trial_index": 195, "time_elapsed": 1099769, "internal_node_id": "0.0-141.0"}}, {"uniqueid": "MTK1237:3MRNMEIQW6DBCKBSA39I9MWCZS9LD4", "current_trial": 196, "dateTime": 1513463861558, "trialdata": {"rt": -1, "stimulus": "<p id=\"stim\">GIRL</p>", "key_press": -1, "type": "PRES_VIS", "word": "girl", "wordID": 636, "conditions": [24, 800, "v", 24000], "trial": 5, "serialpos": 11, "trial_type": "single-stim", "trial_index": 196, "time_elapsed": 1101722, "internal_node_id": "0.0-142.0"}}, {"uniqueid": "MTK1237:3MRNMEIQW6DBCKBSA39I9MWCZS9LD4", "current_trial": 197, "dateTime": 1513463863442, "trialdata": {"rt": -1, "stimulus": "<p id=\"stim\">FLOWER</p>", "key_press": -1, "type": "PRES_VIS", "word": "flower", "wordID": 583, "conditions": [24, 800, "v", 24000], "trial": 5, "serialpos": 12, "trial_type": "single-stim", "trial_index": 197, "time_elapsed": 1103606, "internal_node_id": "0.0-143.0"}}, {"uniqueid": "MTK1237:3MRNMEIQW6DBCKBSA39I9MWCZS9LD4", "current_trial": 198, "dateTime": 1513463865377, "trialdata": {"rt": -1, "stimulus": "<p id=\"stim\">CARROT</p>", "key_press": -1, "type": "PRES_VIS", "word": "carrot", "wordID": 248, "conditions": [24, 800, "v", 24000], "trial": 5, "serialpos": 13, "trial_type": "single-stim", "trial_index": 198, "time_elapsed": 1105541, "internal_node_id": "0.0-144.0"}}, {"uniqueid": "MTK1237:3MRNMEIQW6DBCKBSA39I9MWCZS9LD4", "current_trial": 199, "dateTime": 1513463867067, "trialdata": {"rt": -1, "stimulus": "<p id=\"stim\">PARROT</p>", "key_press": -1, "type": "PRES_VIS", "word": "parrot", "wordID": 1014, "conditions": [24, 800, "v", 24000], "trial": 5, "serialpos": 14, "trial_type": "single-stim", "trial_index": 199, "time_elapsed": 1107232, "internal_node_id": "0.0-145.0"}}, {"uniqueid": "MTK1237:3MRNMEIQW6DBCKBSA39I9MWCZS9LD4", "current_trial": 200, "dateTime": 1513463868843, "trialdata": {"rt": -1, "stimulus": "<p id=\"stim\">LIZARD</p>", "key_press": -1, "type": "PRES_VIS", "word": "lizard", "wordID": 833, "conditions": [24, 800, "v", 24000], "trial": 5, "serialpos": 15, "trial_type": "single-stim", "trial_index": 200, "time_elapsed": 1109007, "internal_node_id": "0.0-146.0"}}, {"uniqueid": "MTK1237:3MRNMEIQW6DBCKBSA39I9MWCZS9LD4", "current_trial": 201, "dateTime": 1513463870694, "trialdata": {"rt": -1, "stimulus": "<p id=\"stim\">PATIENT</p>", "key_press": -1, "type": "PRES_VIS", "word": "patient", "wordID": 1023, "conditions": [24, 800, "v", 24000], "trial": 5, "serialpos": 16, "trial_type": "single-stim", "trial_index": 201, "time_elapsed": 1110858, "internal_node_id": "0.0-147.0"}}, {"uniqueid": "MTK1237:3MRNMEIQW6DBCKBSA39I9MWCZS9LD4", "current_trial": 202, "dateTime": 1513463872630, "trialdata": {"rt": -1, "stimulus": "<p id=\"stim\">CLIMBER</p>", "key_press": -1, "type": "PRES_VIS", "word": "climber", "wordID": 322, "conditions": [24, 800, "v", 24000], "trial": 5, "serialpos": 17, "trial_type": "single-stim", "trial_index": 202, "time_elapsed": 1112794, "internal_node_id": "0.0-148.0"}}, {"uniqueid": "MTK1237:3MRNMEIQW6DBCKBSA39I9MWCZS9LD4", "current_trial": 203, "dateTime": 1513463874381, "trialdata": {"rt": -1, "stimulus": "<p id=\"stim\">PUDDLE</p>", "key_press": -1, "type": "PRES_VIS", "word": "puddle", "wordID": 1139, "conditions": [24, 800, "v", 24000], "trial": 5, "serialpos": 18, "trial_type": "single-stim", "trial_index": 203, "time_elapsed": 1114545, "internal_node_id": "0.0-149.0"}}, {"uniqueid": "MTK1237:3MRNMEIQW6DBCKBSA39I9MWCZS9LD4", "current_trial": 204, "dateTime": 1513463876109, "trialdata": {"rt": -1, "stimulus": "<p id=\"stim\">DRAWING</p>", "key_press": -1, "type": "PRES_VIS", "word": "drawing", "wordID": 493, "conditions": [24, 800, "v", 24000], "trial": 5, "serialpos": 19, "trial_type": "single-stim", "trial_index": 204, "time_elapsed": 1116274, "internal_node_id": "0.0-150.0"}}, {"uniqueid": "MTK1237:3MRNMEIQW6DBCKBSA39I9MWCZS9LD4", "current_trial": 205, "dateTime": 1513463877840, "trialdata": {"rt": -1, "stimulus": "<p id=\"stim\">GARDEN</p>", "key_press": -1, "type": "PRES_VIS", "word": "garden", "wordID": 622, "conditions": [24, 800, "v", 24000], "trial": 5, "serialpos": 20, "trial_type": "single-stim", "trial_index": 205, "time_elapsed": 1118005, "internal_node_id": "0.0-151.0"}}, {"uniqueid": "MTK1237:3MRNMEIQW6DBCKBSA39I9MWCZS9LD4", "current_trial": 206, "dateTime": 1513463879604, "trialdata": {"rt": -1, "stimulus": "<p id=\"stim\">FRECKLE</p>", "key_press": -1, "type": "PRES_VIS", "word": "freckle", "wordID": 601, "conditions": [24, 800, "v", 24000], "trial": 5, "serialpos": 21, "trial_type": "single-stim", "trial_index": 206, "time_elapsed": 1119768, "internal_node_id": "0.0-152.0"}}, {"uniqueid": "MTK1237:3MRNMEIQW6DBCKBSA39I9MWCZS9LD4", "current_trial": 207, "dateTime": 1513463881394, "trialdata": {"rt": -1, "stimulus": "<p id=\"stim\">NIGHTGOWN</p>", "key_press": -1, "type": "PRES_VIS", "word": "nightgown", "wordID": 952, "conditions": [24, 800, "v", 24000], "trial": 5, "serialpos": 22, "trial_type": "single-stim", "trial_index": 207, "time_elapsed": 1121558, "internal_node_id": "0.0-153.0"}}, {"uniqueid": "MTK1237:3MRNMEIQW6DBCKBSA39I9MWCZS9LD4", "current_trial": 208, "dateTime": 1513463883116, "trialdata": {"rt": -1, "stimulus": "<p id=\"stim\">DUST</p>", "key_press": -1, "type": "PRES_VIS", "word": "dust", "wordID": 507, "conditions": [24, 800, "v", 24000], "trial": 5, "serialpos": 23, "trial_type": "single-stim", "trial_index": 208, "time_elapsed": 1123280, "internal_node_id": "0.0-154.0"}}, {"uniqueid": "MTK1237:3MRNMEIQW6DBCKBSA39I9MWCZS9LD4", "current_trial": 209, "dateTime": 1513463885468, "trialdata": {"rt": -1, "stimulus": "", "key_press": -1, "type": "PRE_RECALL_DELAY", "trial_type": "single-stim", "trial_index": 209, "time_elapsed": 1125631, "internal_node_id": "0.0-155.0-0.0"}}, {"uniqueid": "MTK1237:3MRNMEIQW6DBCKBSA39I9MWCZS9LD4", "current_trial": 210, "dateTime": 1513463885961, "trialdata": {"rt": -1000, "stimulus": "/static/audio/400Hz.wav", "key_press": -1, "type": "PRE_RECALL_ALERT", "trial_type": "single-audio", "trial_index": 210, "time_elapsed": 1126126, "internal_node_id": "0.0-156.0"}}, {"uniqueid": "MTK1237:3MRNMEIQW6DBCKBSA39I9MWCZS9LD4", "current_trial": 211, "dateTime": 1513463945981, "trialdata": {"rt": [3450, 7233, 10324, 13784, 17556, 20582, 24445, 26456, 32821, 34966, 37441, 39812, 43463, 45265], "recwords": ["dust", "nightgown", "girl", "waiter", "waitress", "fiddle", "carrot", "parrot", "outfit", "leg", "monster", "creature", "chest", "breast"], "type": "FREE_RECALL", "conditions": [24, 800, "v", 24000], "trial": 5, "trial_type": "free-recall", "trial_index": 211, "time_elapsed": 1186141, "internal_node_id": "0.0-157.0-0.0"}}, {"uniqueid": "MTK1237:3MRNMEIQW6DBCKBSA39I9MWCZS9LD4", "current_trial": 212, "dateTime": 1513463949253, "trialdata": {"rt": 1269, "key_press": 13, "type": "INSTRUCTIONS", "trial_type": "text", "trial_index": 212, "time_elapsed": 1189417, "internal_node_id": "0.0-158.0"}}, {"uniqueid": "MTK1237:3MRNMEIQW6DBCKBSA39I9MWCZS9LD4", "current_trial": 213, "dateTime": 1513463975258, "trialdata": {"rt": [1371, 3726, 5861, 7464, 9510, 10966, 13313, 15231, 17012], "responses": ["12", "10", "19", "6", "14", "15", "13", "19", "15"], "num1": [6, 1, 5, 4, 8, 1, 2, 9, 1, 7], "num2": [4, 5, 5, 1, 5, 5, 2, 2, 7, 8], "num3": [2, 4, 9, 1, 1, 9, 9, 8, 7, 9], "type": "DISTRACTOR", "conditions": [12, 800, "v", 24000], "trial": 6, "trial_type": "math-distractor", "trial_index": 213, "time_elapsed": 1215423, "internal_node_id": "0.0-159.0"}}, {"uniqueid": "MTK1237:3MRNMEIQW6DBCKBSA39I9MWCZS9LD4", "current_trial": 214, "dateTime": 1513463978261, "trialdata": {"rt": -1, "stimulus": "<p id=\"stim\">10</p>", "key_press": -1, "trial_type": "single-stim", "trial_index": 214, "time_elapsed": 1218425, "internal_node_id": "0.0-160.0-0.0"}}, {"uniqueid": "MTK1237:3MRNMEIQW6DBCKBSA39I9MWCZS9LD4", "current_trial": 215, "dateTime": 1513463979263, "trialdata": {"rt": -1, "stimulus": "<p id=\"stim\">9</p>", "key_press": -1, "trial_type": "single-stim", "trial_index": 215, "time_elapsed": 1219427, "internal_node_id": "0.0-160.0-1.0"}}, {"uniqueid": "MTK1237:3MRNMEIQW6DBCKBSA39I9MWCZS9LD4", "current_trial": 216, "dateTime": 1513463980265, "trialdata": {"rt": -1, "stimulus": "<p id=\"stim\">8</p>", "key_press": -1, "trial_type": "single-stim", "trial_index": 216, "time_elapsed": 1220429, "internal_node_id": "0.0-160.0-2.0"}}, {"uniqueid": "MTK1237:3MRNMEIQW6DBCKBSA39I9MWCZS9LD4", "current_trial": 217, "dateTime": 1513463981267, "trialdata": {"rt": -1, "stimulus": "<p id=\"stim\">7</p>", "key_press": -1, "trial_type": "single-stim", "trial_index": 217, "time_elapsed": 1221431, "internal_node_id": "0.0-160.0-3.0"}}, {"uniqueid": "MTK1237:3MRNMEIQW6DBCKBSA39I9MWCZS9LD4", "current_trial": 218, "dateTime": 1513463982269, "trialdata": {"rt": -1, "stimulus": "<p id=\"stim\">6</p>", "key_press": -1, "trial_type": "single-stim", "trial_index": 218, "time_elapsed": 1222433, "internal_node_id": "0.0-160.0-4.0"}}, {"uniqueid": "MTK1237:3MRNMEIQW6DBCKBSA39I9MWCZS9LD4", "current_trial": 219, "dateTime": 1513463983270, "trialdata": {"rt": -1, "stimulus": "<p id=\"stim\">5</p>", "key_press": -1, "trial_type": "single-stim", "trial_index": 219, "time_elapsed": 1223434, "internal_node_id": "0.0-160.0-5.0"}}, {"uniqueid": "MTK1237:3MRNMEIQW6DBCKBSA39I9MWCZS9LD4", "current_trial": 220, "dateTime": 1513463984272, "trialdata": {"rt": -1, "stimulus": "<p id=\"stim\">4</p>", "key_press": -1, "trial_type": "single-stim", "trial_index": 220, "time_elapsed": 1224436, "internal_node_id": "0.0-160.0-6.0"}}, {"uniqueid": "MTK1237:3MRNMEIQW6DBCKBSA39I9MWCZS9LD4", "current_trial": 221, "dateTime": 1513463985273, "trialdata": {"rt": -1, "stimulus": "<p id=\"stim\">3</p>", "key_press": -1, "trial_type": "single-stim", "trial_index": 221, "time_elapsed": 1225437, "internal_node_id": "0.0-160.0-7.0"}}, {"uniqueid": "MTK1237:3MRNMEIQW6DBCKBSA39I9MWCZS9LD4", "current_trial": 222, "dateTime": 1513463986275, "trialdata": {"rt": -1, "stimulus": "<p id=\"stim\">2</p>", "key_press": -1, "trial_type": "single-stim", "trial_index": 222, "time_elapsed": 1226440, "internal_node_id": "0.0-160.0-8.0"}}, {"uniqueid": "MTK1237:3MRNMEIQW6DBCKBSA39I9MWCZS9LD4", "current_trial": 223, "dateTime": 1513463987277, "trialdata": {"rt": -1, "stimulus": "<p id=\"stim\">1</p>", "key_press": -1, "trial_type": "single-stim", "trial_index": 223, "time_elapsed": 1227441, "internal_node_id": "0.0-160.0-9.0"}}, {"uniqueid": "MTK1237:3MRNMEIQW6DBCKBSA39I9MWCZS9LD4", "current_trial": 224, "dateTime": 1513463988779, "trialdata": {"rt": -1, "stimulus": "<p id=\"stim\">+</p>", "key_press": -1, "type": "FIXATION", "trial_type": "single-stim", "trial_index": 224, "time_elapsed": 1228943, "internal_node_id": "0.0-161.0-0.0"}}, {"uniqueid": "MTK1237:3MRNMEIQW6DBCKBSA39I9MWCZS9LD4", "current_trial": 225, "dateTime": 1513463989581, "trialdata": {"rt": -1, "stimulus": "<p id=\"stim\">BABY</p>", "key_press": -1, "type": "PRES_VIS", "word": "baby", "wordID": 63, "conditions": [12, 800, "v", 24000], "trial": 6, "serialpos": 0, "trial_type": "single-stim", "trial_index": 225, "time_elapsed": 1229746, "internal_node_id": "0.0-162.0"}}, {"uniqueid": "MTK1237:3MRNMEIQW6DBCKBSA39I9MWCZS9LD4", "current_trial": 226, "dateTime": 1513463991453, "trialdata": {"rt": -1, "stimulus": "<p id=\"stim\">CRIB</p>", "key_press": -1, "type": "PRES_VIS", "word": "crib", "wordID": 406, "conditions": [12, 800, "v", 24000], "trial": 6, "serialpos": 1, "trial_type": "single-stim", "trial_index": 226, "time_elapsed": 1231618, "internal_node_id": "0.0-163.0"}}, {"uniqueid": "MTK1237:3MRNMEIQW6DBCKBSA39I9MWCZS9LD4", "current_trial": 227, "dateTime": 1513463993211, "trialdata": {"rt": -1, "stimulus": "<p id=\"stim\">GROUND</p>", "key_press": -1, "type": "PRES_VIS", "word": "ground", "wordID": 665, "conditions": [12, 800, "v", 24000], "trial": 6, "serialpos": 2, "trial_type": "single-stim", "trial_index": 227, "time_elapsed": 1233376, "internal_node_id": "0.0-164.0"}}, {"uniqueid": "MTK1237:3MRNMEIQW6DBCKBSA39I9MWCZS9LD4", "current_trial": 228, "dateTime": 1513463994876, "trialdata": {"rt": -1, "stimulus": "<p id=\"stim\">CRAYON</p>", "key_press": -1, "type": "PRES_VIS", "word": "crayon", "wordID": 400, "conditions": [12, 800, "v", 24000], "trial": 6, "serialpos": 3, "trial_type": "single-stim", "trial_index": 228, "time_elapsed": 1235040, "internal_node_id": "0.0-165.0"}}, {"uniqueid": "MTK1237:3MRNMEIQW6DBCKBSA39I9MWCZS9LD4", "current_trial": 229, "dateTime": 1513463996623, "trialdata": {"rt": -1, "stimulus": "<p id=\"stim\">HELMET</p>", "key_press": -1, "type": "PRES_VIS", "word": "helmet", "wordID": 701, "conditions": [12, 800, "v", 24000], "trial": 6, "serialpos": 4, "trial_type": "single-stim", "trial_index": 229, "time_elapsed": 1236787, "internal_node_id": "0.0-166.0"}}, {"uniqueid": "MTK1237:3MRNMEIQW6DBCKBSA39I9MWCZS9LD4", "current_trial": 230, "dateTime": 1513463998473, "trialdata": {"rt": -1, "stimulus": "<p id=\"stim\">BELLY</p>", "key_press": -1, "type": "PRES_VIS", "word": "belly", "wordID": 118, "conditions": [12, 800, "v", 24000], "trial": 6, "serialpos": 5, "trial_type": "single-stim", "trial_index": 230, "time_elapsed": 1238637, "internal_node_id": "0.0-167.0"}}, {"uniqueid": "MTK1237:3MRNMEIQW6DBCKBSA39I9MWCZS9LD4", "current_trial": 231, "dateTime": 1513464000240, "trialdata": {"rt": -1, "stimulus": "<p id=\"stim\">RIVER</p>", "key_press": -1, "type": "PRES_VIS", "word": "river", "wordID": 1193, "conditions": [12, 800, "v", 24000], "trial": 6, "serialpos": 6, "trial_type": "single-stim", "trial_index": 231, "time_elapsed": 1240404, "internal_node_id": "0.0-168.0"}}, {"uniqueid": "MTK1237:3MRNMEIQW6DBCKBSA39I9MWCZS9LD4", "current_trial": 232, "dateTime": 1513464002077, "trialdata": {"rt": -1, "stimulus": "<p id=\"stim\">FRIEND</p>", "key_press": -1, "type": "PRES_VIS", "word": "friend", "wordID": 605, "conditions": [12, 800, "v", 24000], "trial": 6, "serialpos": 7, "trial_type": "single-stim", "trial_index": 232, "time_elapsed": 1242241, "internal_node_id": "0.0-169.0"}}, {"uniqueid": "MTK1237:3MRNMEIQW6DBCKBSA39I9MWCZS9LD4", "current_trial": 233, "dateTime": 1513464003750, "trialdata": {"rt": -1, "stimulus": "<p id=\"stim\">BRIEFCASE</p>", "key_press": -1, "type": "PRES_VIS", "word": "briefcase", "wordID": 174, "conditions": [12, 800, "v", 24000], "trial": 6, "serialpos": 8, "trial_type": "single-stim", "trial_index": 233, "time_elapsed": 1243914, "internal_node_id": "0.0-170.0"}}, {"uniqueid": "MTK1237:3MRNMEIQW6DBCKBSA39I9MWCZS9LD4", "current_trial": 234, "dateTime": 1513464005625, "trialdata": {"rt": -1, "stimulus": "<p id=\"stim\">SIDEWALK</p>", "key_press": -1, "type": "PRES_VIS", "word": "sidewalk", "wordID": 1302, "conditions": [12, 800, "v", 24000], "trial": 6, "serialpos": 9, "trial_type": "single-stim", "trial_index": 234, "time_elapsed": 1245789, "internal_node_id": "0.0-171.0"}}, {"uniqueid": "MTK1237:3MRNMEIQW6DBCKBSA39I9MWCZS9LD4", "current_trial": 235, "dateTime": 1513464007295, "trialdata": {"rt": -1, "stimulus": "<p id=\"stim\">CANAL</p>", "key_press": -1, "type": "PRES_VIS", "word": "canal", "wordID": 225, "conditions": [12, 800, "v", 24000], "trial": 6, "serialpos": 10, "trial_type": "single-stim", "trial_index": 235, "time_elapsed": 1247460, "internal_node_id": "0.0-172.0"}}, {"uniqueid": "MTK1237:3MRNMEIQW6DBCKBSA39I9MWCZS9LD4", "current_trial": 236, "dateTime": 1513464009277, "trialdata": {"rt": -1, "stimulus": "<p id=\"stim\">ATOM</p>", "key_press": -1, "type": "PRES_VIS", "word": "atom", "wordID": 54, "conditions": [12, 800, "v", 24000], "trial": 6, "serialpos": 11, "trial_type": "single-stim", "trial_index": 236, "time_elapsed": 1249441, "internal_node_id": "0.0-173.0"}}, {"uniqueid": "MTK1237:3MRNMEIQW6DBCKBSA39I9MWCZS9LD4", "current_trial": 237, "dateTime": 1513464011722, "trialdata": {"rt": -1, "stimulus": "", "key_press": -1, "type": "PRE_RECALL_DELAY", "trial_type": "single-stim", "trial_index": 237, "time_elapsed": 1251885, "internal_node_id": "0.0-174.0-0.0"}}, {"uniqueid": "MTK1237:3MRNMEIQW6DBCKBSA39I9MWCZS9LD4", "current_trial": 238, "dateTime": 1513464012226, "trialdata": {"rt": -1000, "stimulus": "/static/audio/400Hz.wav", "key_press": -1, "type": "PRE_RECALL_ALERT", "trial_type": "single-audio", "trial_index": 238, "time_elapsed": 1252390, "internal_node_id": "0.0-175.0"}}, {"uniqueid": "MTK1237:3MRNMEIQW6DBCKBSA39I9MWCZS9LD4", "current_trial": 239, "dateTime": 1513464072236, "trialdata": {"rt": [3291, 4820, 8857, 10723, 12106], "recwords": ["atom", "canal", "sidewalk", "baby", "crib"], "type": "FREE_RECALL", "conditions": [12, 800, "v", 24000], "trial": 6, "trial_type": "free-recall", "trial_index": 239, "time_elapsed": 1312394, "internal_node_id": "0.0-176.0-0.0"}}, {"uniqueid": "MTK1237:3MRNMEIQW6DBCKBSA39I9MWCZS9LD4", "current_trial": 240, "dateTime": 1513464076259, "trialdata": {"rt": 2020, "key_press": 13, "type": "INSTRUCTIONS", "trial_type": "text", "trial_index": 240, "time_elapsed": 1316424, "internal_node_id": "0.0-177.0"}}, {"uniqueid": "MTK1237:3MRNMEIQW6DBCKBSA39I9MWCZS9LD4", "current_trial": 241, "dateTime": 1513464090264, "trialdata": {"rt": [2885, 5148, 7477, 9181, 10769], "responses": ["19", "18", "12", "7", "11"], "num1": [3, 9, 8, 5, 3, 8], "num2": [9, 6, 1, 1, 3, 7], "num3": [6, 3, 3, 1, 5, 9], "type": "DISTRACTOR", "conditions": [12, 1600, "a", 12000], "trial": 7, "trial_type": "math-distractor", "trial_index": 241, "time_elapsed": 1330429, "internal_node_id": "0.0-178.0"}}, {"uniqueid": "MTK1237:3MRNMEIQW6DBCKBSA39I9MWCZS9LD4", "current_trial": 242, "dateTime": 1513464093269, "trialdata": {"rt": -1, "stimulus": "<p id=\"stim\">10</p>", "key_press": -1, "trial_type": "single-stim", "trial_index": 242, "time_elapsed": 1333431, "internal_node_id": "0.0-179.0-0.0"}}, {"uniqueid": "MTK1237:3MRNMEIQW6DBCKBSA39I9MWCZS9LD4", "current_trial": 243, "dateTime": 1513464094271, "trialdata": {"rt": -1, "stimulus": "<p id=\"stim\">9</p>", "key_press": -1, "trial_type": "single-stim", "trial_index": 243, "time_elapsed": 1334435, "internal_node_id": "0.0-179.0-1.0"}}, {"uniqueid": "MTK1237:3MRNMEIQW6DBCKBSA39I9MWCZS9LD4", "current_trial": 244, "dateTime": 1513464095273, "trialdata": {"rt": -1, "stimulus": "<p id=\"stim\">8</p>", "key_press": -1, "trial_type": "single-stim", "trial_index": 244, "time_elapsed": 1335437, "internal_node_id": "0.0-179.0-2.0"}}, {"uniqueid": "MTK1237:3MRNMEIQW6DBCKBSA39I9MWCZS9LD4", "current_trial": 245, "dateTime": 1513464096274, "trialdata": {"rt": -1, "stimulus": "<p id=\"stim\">7</p>", "key_press": -1, "trial_type": "single-stim", "trial_index": 245, "time_elapsed": 1336438, "internal_node_id": "0.0-179.0-3.0"}}, {"uniqueid": "MTK1237:3MRNMEIQW6DBCKBSA39I9MWCZS9LD4", "current_trial": 246, "dateTime": 1513464097276, "trialdata": {"rt": -1, "stimulus": "<p id=\"stim\">6</p>", "key_press": -1, "trial_type": "single-stim", "trial_index": 246, "time_elapsed": 1337440, "internal_node_id": "0.0-179.0-4.0"}}, {"uniqueid": "MTK1237:3MRNMEIQW6DBCKBSA39I9MWCZS9LD4", "current_trial": 247, "dateTime": 1513464098279, "trialdata": {"rt": -1, "stimulus": "<p id=\"stim\">5</p>", "key_press": -1, "trial_type": "single-stim", "trial_index": 247, "time_elapsed": 1338443, "internal_node_id": "0.0-179.0-5.0"}}, {"uniqueid": "MTK1237:3MRNMEIQW6DBCKBSA39I9MWCZS9LD4", "current_trial": 248, "dateTime": 1513464099281, "trialdata": {"rt": -1, "stimulus": "<p id=\"stim\">4</p>", "key_press": -1, "trial_type": "single-stim", "trial_index": 248, "time_elapsed": 1339445, "internal_node_id": "0.0-179.0-6.0"}}, {"uniqueid": "MTK1237:3MRNMEIQW6DBCKBSA39I9MWCZS9LD4", "current_trial": 249, "dateTime": 1513464100283, "trialdata": {"rt": -1, "stimulus": "<p id=\"stim\">3</p>", "key_press": -1, "trial_type": "single-stim", "trial_index": 249, "time_elapsed": 1340448, "internal_node_id": "0.0-179.0-7.0"}}, {"uniqueid": "MTK1237:3MRNMEIQW6DBCKBSA39I9MWCZS9LD4", "current_trial": 250, "dateTime": 1513464101286, "trialdata": {"rt": -1, "stimulus": "<p id=\"stim\">2</p>", "key_press": -1, "trial_type": "single-stim", "trial_index": 250, "time_elapsed": 1341450, "internal_node_id": "0.0-179.0-8.0"}}, {"uniqueid": "MTK1237:3MRNMEIQW6DBCKBSA39I9MWCZS9LD4", "current_trial": 251, "dateTime": 1513464102288, "trialdata": {"rt": -1, "stimulus": "<p id=\"stim\">1</p>", "key_press": -1, "trial_type": "single-stim", "trial_index": 251, "time_elapsed": 1342452, "internal_node_id": "0.0-179.0-9.0"}}, {"uniqueid": "MTK1237:3MRNMEIQW6DBCKBSA39I9MWCZS9LD4", "current_trial": 252, "dateTime": 1513464103790, "trialdata": {"rt": -1, "stimulus": "<p id=\"stim\">+</p>", "key_press": -1, "type": "FIXATION", "trial_type": "single-stim", "trial_index": 252, "time_elapsed": 1343954, "internal_node_id": "0.0-180.0-0.0"}}, {"uniqueid": "MTK1237:3MRNMEIQW6DBCKBSA39I9MWCZS9LD4", "current_trial": 253, "dateTime": 1513464106419, "trialdata": {"rt": -1000, "stimulus": "/static/audio/wordpool/AIRPLANE.wav", "key_press": -1, "type": "PRES_AUD", "word": "airplane", "wordID": 11, "conditions": [12, 1600, "a", 12000], "trial": 7, "serialpos": 0, "trial_type": "single-audio", "trial_index": 253, "time_elapsed": 1346584, "internal_node_id": "0.0-181.0"}}, {"uniqueid": "MTK1237:3MRNMEIQW6DBCKBSA39I9MWCZS9LD4", "current_trial": 254, "dateTime": 1513464108865, "trialdata": {"rt": -1000, "stimulus": "/static/audio/wordpool/SANDWICH.wav", "key_press": -1, "type": "PRES_AUD", "word": "sandwich", "wordID": 1231, "conditions": [12, 1600, "a", 12000], "trial": 7, "serialpos": 1, "trial_type": "single-audio", "trial_index": 254, "time_elapsed": 1349030, "internal_node_id": "0.0-182.0"}}, {"uniqueid": "MTK1237:3MRNMEIQW6DBCKBSA39I9MWCZS9LD4", "current_trial": 255, "dateTime": 1513464111498, "trialdata": {"rt": -1000, "stimulus": "/static/audio/wordpool/RAZOR.wav", "key_press": -1, "type": "PRES_AUD", "word": "razor", "wordID": 1170, "conditions": [12, 1600, "a", 12000], "trial": 7, "serialpos": 2, "trial_type": "single-audio", "trial_index": 255, "time_elapsed": 1351663, "internal_node_id": "0.0-183.0"}}, {"uniqueid": "MTK1237:3MRNMEIQW6DBCKBSA39I9MWCZS9LD4", "current_trial": 256, "dateTime": 1513464114271, "trialdata": {"rt": -1000, "stimulus": "/static/audio/wordpool/BLADE.wav", "key_press": -1, "type": "PRES_AUD", "word": "blade", "wordID": 133, "conditions": [12, 1600, "a", 12000], "trial": 7, "serialpos": 3, "trial_type": "single-audio", "trial_index": 256, "time_elapsed": 1354436, "internal_node_id": "0.0-184.0"}}, {"uniqueid": "MTK1237:3MRNMEIQW6DBCKBSA39I9MWCZS9LD4", "current_trial": 257, "dateTime": 1513464116984, "trialdata": {"rt": -1000, "stimulus": "/static/audio/wordpool/JAPAN.wav", "key_press": -1, "type": "PRES_AUD", "word": "japan", "wordID": 748, "conditions": [12, 1600, "a", 12000], "trial": 7, "serialpos": 4, "trial_type": "single-audio", "trial_index": 257, "time_elapsed": 1357149, "internal_node_id": "0.0-185.0"}}, {"uniqueid": "MTK1237:3MRNMEIQW6DBCKBSA39I9MWCZS9LD4", "current_trial": 258, "dateTime": 1513464119655, "trialdata": {"rt": -1000, "stimulus": "/static/audio/wordpool/LIPSTICK.wav", "key_press": -1, "type": "PRES_AUD", "word": "lipstick", "wordID": 828, "conditions": [12, 1600, "a", 12000], "trial": 7, "serialpos": 5, "trial_type": "single-audio", "trial_index": 258, "time_elapsed": 1359820, "internal_node_id": "0.0-186.0"}}, {"uniqueid": "MTK1237:3MRNMEIQW6DBCKBSA39I9MWCZS9LD4", "current_trial": 259, "dateTime": 1513464122357, "trialdata": {"rt": -1000, "stimulus": "/static/audio/wordpool/INMATE.wav", "key_press": -1, "type": "PRES_AUD", "word": "inmate", "wordID": 737, "conditions": [12, 1600, "a", 12000], "trial": 7, "serialpos": 6, "trial_type": "single-audio", "trial_index": 259, "time_elapsed": 1362522, "internal_node_id": "0.0-187.0"}}, {"uniqueid": "MTK1237:3MRNMEIQW6DBCKBSA39I9MWCZS9LD4", "current_trial": 260, "dateTime": 1513464125039, "trialdata": {"rt": -1000, "stimulus": "/static/audio/wordpool/ROD.wav", "key_press": -1, "type": "PRES_AUD", "word": "rod", "wordID": 1202, "conditions": [12, 1600, "a", 12000], "trial": 7, "serialpos": 7, "trial_type": "single-audio", "trial_index": 260, "time_elapsed": 1365204, "internal_node_id": "0.0-188.0"}}, {"uniqueid": "MTK1237:3MRNMEIQW6DBCKBSA39I9MWCZS9LD4", "current_trial": 261, "dateTime": 1513464127671, "trialdata": {"rt": -1000, "stimulus": "/static/audio/wordpool/GOBLIN.wav", "key_press": -1, "type": "PRES_AUD", "word": "goblin", "wordID": 644, "conditions": [12, 1600, "a", 12000], "trial": 7, "serialpos": 8, "trial_type": "single-audio", "trial_index": 261, "time_elapsed": 1367836, "internal_node_id": "0.0-189.0"}}, {"uniqueid": "MTK1237:3MRNMEIQW6DBCKBSA39I9MWCZS9LD4", "current_trial": 262, "dateTime": 1513464130262, "trialdata": {"rt": -1000, "stimulus": "/static/audio/wordpool/ASIA.wav", "key_press": -1, "type": "PRES_AUD", "word": "asia", "wordID": 45, "conditions": [12, 1600, "a", 12000], "trial": 7, "serialpos": 9, "trial_type": "single-audio", "trial_index": 262, "time_elapsed": 1370427, "internal_node_id": "0.0-190.0"}}, {"uniqueid": "MTK1237:3MRNMEIQW6DBCKBSA39I9MWCZS9LD4", "current_trial": 263, "dateTime": 1513464132968, "trialdata": {"rt": -1000, "stimulus": "/static/audio/wordpool/BEAKER.wav", "key_press": -1, "type": "PRES_AUD", "word": "beaker", "wordID": 103, "conditions": [12, 1600, "a", 12000], "trial": 7, "serialpos": 10, "trial_type": "single-audio", "trial_index": 263, "time_elapsed": 1373133, "internal_node_id": "0.0-191.0"}}, {"uniqueid": "MTK1237:3MRNMEIQW6DBCKBSA39I9MWCZS9LD4", "current_trial": 264, "dateTime": 1513464135603, "trialdata": {"rt": -1000, "stimulus": "/static/audio/wordpool/SUITCASE.wav", "key_press": -1, "type": "PRES_AUD", "word": "suitcase", "wordID": 1402, "conditions": [12, 1600, "a", 12000], "trial": 7, "serialpos": 11, "trial_type": "single-audio", "trial_index": 264, "time_elapsed": 1375768, "internal_node_id": "0.0-192.0"}}, {"uniqueid": "MTK1237:3MRNMEIQW6DBCKBSA39I9MWCZS9LD4", "current_trial": 265, "dateTime": 1513464136985, "trialdata": {"rt": -1, "stimulus": "", "key_press": -1, "type": "PRE_RECALL_DELAY", "trial_type": "single-stim", "trial_index": 265, "time_elapsed": 1377150, "internal_node_id": "0.0-193.0-0.0"}}, {"uniqueid": "MTK1237:3MRNMEIQW6DBCKBSA39I9MWCZS9LD4", "current_trial": 266, "dateTime": 1513464137483, "trialdata": {"rt": -1000, "stimulus": "/static/audio/400Hz.wav", "key_press": -1, "type": "PRE_RECALL_ALERT", "trial_type": "single-audio", "trial_index": 266, "time_elapsed": 1377648, "internal_node_id": "0.0-194.0"}}, {"uniqueid": "MTK1237:3MRNMEIQW6DBCKBSA39I9MWCZS9LD4", "current_trial": 267, "dateTime": 1513464197501, "trialdata": {"rt": [5779, 8587, 10566, 12760, 17417, 19817, 22723, 25443], "recwords": ["suitcase", "asia", "japan", "rod", "blade", "razor", "inmate", "beaker"], "type": "FREE_RECALL", "conditions": [12, 1600, "a", 12000], "trial": 7, "trial_type": "free-recall", "trial_index": 267, "time_elapsed": 1437659, "internal_node_id": "0.0-195.0-0.0"}}, {"uniqueid": "MTK1237:3MRNMEIQW6DBCKBSA39I9MWCZS9LD4", "current_trial": 268, "dateTime": 1513464201707, "trialdata": {"rt": 2205, "key_press": 13, "type": "INSTRUCTIONS", "trial_type": "text", "trial_index": 268, "time_elapsed": 1441872, "internal_node_id": "0.0-196.0"}}, {"uniqueid": "MTK1237:3MRNMEIQW6DBCKBSA39I9MWCZS9LD4", "current_trial": 269, "dateTime": 1513464215713, "trialdata": {"rt": [2196, 3696, 7073, 11392], "responses": ["16", "17", "14", "21"], "num1": [7, 9, 6, 5, 4], "num2": [7, 1, 5, 8, 6], "num3": [2, 7, 3, 8, 9], "type": "DISTRACTOR", "conditions": [12, 800, "a", 12000], "trial": 8, "trial_type": "math-distractor", "trial_index": 269, "time_elapsed": 1455878, "internal_node_id": "0.0-197.0"}}, {"uniqueid": "MTK1237:3MRNMEIQW6DBCKBSA39I9MWCZS9LD4", "current_trial": 270, "dateTime": 1513464218716, "trialdata": {"rt": -1, "stimulus": "<p id=\"stim\">10</p>", "key_press": -1, "trial_type": "single-stim", "trial_index": 270, "time_elapsed": 1458880, "internal_node_id": "0.0-198.0-0.0"}}, {"uniqueid": "MTK1237:3MRNMEIQW6DBCKBSA39I9MWCZS9LD4", "current_trial": 271, "dateTime": 1513464219719, "trialdata": {"rt": -1, "stimulus": "<p id=\"stim\">9</p>", "key_press": -1, "trial_type": "single-stim", "trial_index": 271, "time_elapsed": 1459882, "internal_node_id": "0.0-198.0-1.0"}}, {"uniqueid": "MTK1237:3MRNMEIQW6DBCKBSA39I9MWCZS9LD4", "current_trial": 272, "dateTime": 1513464220722, "trialdata": {"rt": -1, "stimulus": "<p id=\"stim\">8</p>", "key_press": -1, "trial_type": "single-stim", "trial_index": 272, "time_elapsed": 1460886, "internal_node_id": "0.0-198.0-2.0"}}, {"uniqueid": "MTK1237:3MRNMEIQW6DBCKBSA39I9MWCZS9LD4", "current_trial": 273, "dateTime": 1513464221724, "trialdata": {"rt": -1, "stimulus": "<p id=\"stim\">7</p>", "key_press": -1, "trial_type": "single-stim", "trial_index": 273, "time_elapsed": 1461888, "internal_n