{"assignmentId": "3W8CV64QJ36XNYFL72PIVYKFT22H9J", "workerId": "MTK1481", "questiondata": {"origin": "United States", "strat-rehearsal": "1", "marital": "Single", "education": "Doctorate degree", "ethnicity": "Hispanic", "color_depth": 24, "distracted": "No", "wrote-notes": "No", "strat-other": "Tried to imagine a scenario with someone I already knew doing the actions before the words started...(so Batman sitting on a couch with a leopard or Tony Start, a chemist, with a scalpel and a crib)", "screen_width": 1366, "avail_screen_width": 1366, "avail_screen_height": 728, "strat-image": "80", "language": "English", "gender": "Female", "age": "30", "gender_other": "", "race": ["White"], "strat-categorize": "1", "pixel_depth": 24, "strat-spatial": "9", "strat-story": "33", "race_other": "", "screen_height": 768}, "bonus": 0, "hitId": "3S1WOPCJFG08MG3YDB3NA55LGM0EJ7", "counterbalance": 1009, "useragent": "Mozilla/5.0 (Windows NT 10.0; Win64; x64) AppleWebKit/537.36 (KHTML, like Gecko) Chrome/63.0.3239.132 Safari/537.36", "eventdata": [{"eventtype": "initialized", "interval": 0, "value": null, "timestamp": 1515948348515}, {"eventtype": "window_resize", "interval": 0, "value": [1366, 721], "timestamp": 1515948348515}, {"eventtype": "focus", "interval": 2333, "value": "off", "timestamp": 1515948350848}, {"eventtype": "focus", "interval": 6447, "value": "on", "timestamp": 1515948357295}, {"eventtype": "focus", "interval": 1085, "value": "off", "timestamp": 1515948358380}, {"eventtype": "focus", "interval": 5054, "value": "on", "timestamp": 1515948363434}, {"eventtype": "window_resize", "interval": 6814, "value": [1517, 801], "timestamp": 1515948370248}, {"eventtype": "focus", "interval": 7636, "value": "off", "timestamp": 1515948377884}, {"eventtype": "focus", "interval": 2987, "value": "on", "timestamp": 1515948380871}, {"eventtype": "window_resize", "interval": 15099, "value": [1707, 901], "timestamp": 1515948395970}, {"eventtype": "window_resize", "interval": 78206, "value": [1821, 961], "timestamp": 1515948474176}, {"eventtype": "window_resize", "interval": 358, "value": [2049, 1081], "timestamp": 1515948474534}, {"eventtype": "window_resize", "interval": 349, "value": [2732, 1442], "timestamp": 1515948474883}, {"eventtype": "focus", "interval": 11212, "value": "off", "timestamp": 1515948486095}, {"eventtype": "focus", "interval": 1135, "value": "on", "timestamp": 1515948487230}, {"eventtype": "window_resize", "interval": 99022, "value": [4098, 2163], "timestamp": 1515948586252}, {"eventtype": "window_resize", "interval": 19914, "value": [2732, 1442], "timestamp": 1515948606166}, {"eventtype": "window_resize", "interval": 2038613, "value": [2732, 1354], "timestamp": 1515950644779}, {"eventtype": "window_resize", "interval": 30015, "value": [2732, 1442], "timestamp": 1515950674794}, {"eventtype": "focus", "interval": 1354, "value": "off", "timestamp": 1515950676148}, {"eventtype": "focus", "interval": 7180, "value": "on", "timestamp": 1515950683328}, {"eventtype": "focus", "interval": 77168, "value": "off", "timestamp": 1515950760496}, {"eventtype": "focus", "interval": 5838, "value": "on", "timestamp": 1515950766334}, {"eventtype": "focus", "interval": 1, "value": "off", "timestamp": 1515950766335}, {"eventtype": "focus", "interval": 4, "value": "on", "timestamp": 1515950766339}, {"eventtype": "window_resize", "interval": 2410, "value": [2732, 1354], "timestamp": 1515950768749}, {"eventtype": "window_resize", "interval": 43339, "value": [2732, 1442], "timestamp": 1515950812088}, {"eventtype": "focus", "interval": 3403, "value": "off", "timestamp": 1515950815491}, {"eventtype": "focus", "interval": 20536, "value": "on", "timestamp": 1515950836027}, {"eventtype": "window_resize", "interval": 3564, "value": [2732, 1354], "timestamp": 1515950839591}, {"eventtype": "window_resize", "interval": 469733, "value": [1821, 902], "timestamp": 1515951309324}], "data": [{"current_trial": 0, "trialdata": {"rt": 6285, "trial_type": "text", "internal_node_id": "0.0-0.0", "time_elapsed": 6287, "key_press": 32, "type": "INSTRUCTIONS", "trial_index": 0}, "uniqueid": "MTK1481:3W8CV64QJ36XNYFL72PIVYKFT22H9J", "dateTime": 1515948367282}, {"current_trial": 1, "trialdata": {"rt": 2606, "trial_type": "text", "internal_node_id": "0.0-1.0", "time_elapsed": 8897, "key_press": 17, "type": "INSTRUCTIONS", "trial_index": 1}, "uniqueid": "MTK1481:3W8CV64QJ36XNYFL72PIVYKFT22H9J", "dateTime": 1515948369891}, {"current_trial": 2, "trialdata": {"rt": [13822], "trial_type": "audio-test", "responses": ["ocean"], "internal_node_id": "0.0-2.0", "time_elapsed": 22748, "type": "AUDIO_TEST", "trial_index": 2}, "uniqueid": "MTK1481:3W8CV64QJ36XNYFL72PIVYKFT22H9J", "dateTime": 1515948383741}, {"current_trial": 3, "trialdata": {"rt": [5526], "trial_type": "audio-test", "responses": ["crystal"], "internal_node_id": "0.0-3.0", "time_elapsed": 28278, "type": "AUDIO_TEST", "trial_index": 3}, "uniqueid": "MTK1481:3W8CV64QJ36XNYFL72PIVYKFT22H9J", "dateTime": 1515948389271}, {"current_trial": 4, "trialdata": {"rt": [4410], "trial_type": "audio-test", "responses": ["spice"], "internal_node_id": "0.0-4.0", "time_elapsed": 32693, "type": "AUDIO_TEST", "trial_index": 4}, "uniqueid": "MTK1481:3W8CV64QJ36XNYFL72PIVYKFT22H9J", "dateTime": 1515948393687}, {"current_trial": 5, "trialdata": {"rt": 35559, "trial_type": "survey-text", "responses": "{\"Q0\":\"2am\",\"Q1\":\"6am\",\"Q2\":\"4\"}", "internal_node_id": "0.0-5.0", "time_elapsed": 69007, "type": "SLEEP_SURVEY", "trial_index": 5}, "uniqueid": "MTK1481:3W8CV64QJ36XNYFL72PIVYKFT22H9J", "dateTime": 1515948430000}, {"current_trial": 6, "trialdata": {"rt": 21203, "trial_type": "text", "internal_node_id": "0.0-6.0", "time_elapsed": 91213, "key_press": 32, "type": "INSTRUCTIONS", "trial_index": 6}, "uniqueid": "MTK1481:3W8CV64QJ36XNYFL72PIVYKFT22H9J", "dateTime": 1515948452206}, {"current_trial": 7, "trialdata": {"rt": 7310, "trial_type": "text", "internal_node_id": "0.0-7.0", "time_elapsed": 99025, "key_press": 32, "type": "INSTRUCTIONS", "trial_index": 7}, "uniqueid": "MTK1481:3W8CV64QJ36XNYFL72PIVYKFT22H9J", "dateTime": 1515948460018}, {"current_trial": 8, "trialdata": {"rt": 3996, "trial_type": "text", "internal_node_id": "0.0-8.0", "time_elapsed": 103524, "key_press": 32, "type": "INSTRUCTIONS", "trial_index": 8}, "uniqueid": "MTK1481:3W8CV64QJ36XNYFL72PIVYKFT22H9J", "dateTime": 1515948464517}, {"current_trial": 9, "trialdata": {"rt": [3443, 5625, 7342, 11494, 13829, 15677], "trial_type": "math-distractor", "key_times": [1625, 1808, 1853, 2747, 2918, 3132, 3443, 5365, 5543, 5625, 7037, 7117, 7342, 8200, 8382, 8754, 9104, 11174, 11239, 11494, 13345, 13688, 13829, 15289, 15511, 15677, 17608, 17882], "responses": ["14", "11", "10", "15", "13", "13"], "num2": [4, 1, 5, 2, 9, 2, 7], "num3": [6, 9, 3, 9, 4, 7, 2], "conditions": [18, 1200, "a", 18000], "internal_node_id": "0.0-9.0", "key_presses": [49, 49, 52, 8, 8, 52, 13, 49, 49, 13, 49, 48, 13, 17, 189, 189, 189, 49, 53, 13, 49, 51, 13, 49, 51, 13, 49, 51], "trial": 0, "time_elapsed": 122581, "type": "DISTRACTOR", "trial_index": 9, "num1": [4, 1, 2, 4, 2, 4, 4]}, "uniqueid": "MTK1481:3W8CV64QJ36XNYFL72PIVYKFT22H9J", "dateTime": 1515948483574}, {"current_trial": 10, "trialdata": {"rt": -1, "trial_type": "single-stim", "stimulus": "<p id=\"stim\">10</p>", "internal_node_id": "0.0-10.0-0.0", "time_elapsed": 125587, "key_press": -1, "trial_index": 10}, "uniqueid": "MTK1481:3W8CV64QJ36XNYFL72PIVYKFT22H9J", "dateTime": 1515948486581}, {"current_trial": 11, "trialdata": {"rt": -1, "trial_type": "single-stim", "stimulus": "<p id=\"stim\">9</p>", "internal_node_id": "0.0-10.0-1.0", "time_elapsed": 126591, "key_press": -1, "trial_index": 11}, "uniqueid": "MTK1481:3W8CV64QJ36XNYFL72PIVYKFT22H9J", "dateTime": 1515948487584}, {"current_trial": 12, "trialdata": {"rt": -1, "trial_type": "single-stim", "stimulus": "<p id=\"stim\">8</p>", "internal_node_id": "0.0-10.0-2.0", "time_elapsed": 127592, "key_press": -1, "trial_index": 12}, "uniqueid": "MTK1481:3W8CV64QJ36XNYFL72PIVYKFT22H9J", "dateTime": 1515948488586}, {"current_trial": 13, "trialdata": {"rt": -1, "trial_type": "single-stim", "stimulus": "<p id=\"stim\">7</p>", "internal_node_id": "0.0-10.0-3.0", "time_elapsed": 128594, "key_press": -1, "trial_index": 13}, "uniqueid": "MTK1481:3W8CV64QJ36XNYFL72PIVYKFT22H9J", "dateTime": 1515948489587}, {"current_trial": 14, "trialdata": {"rt": -1, "trial_type": "single-stim", "stimulus": "<p id=\"stim\">6</p>", "internal_node_id": "0.0-10.0-4.0", "time_elapsed": 129599, "key_press": -1, "trial_index": 14}, "uniqueid": "MTK1481:3W8CV64QJ36XNYFL72PIVYKFT22H9J", "dateTime": 1515948490592}, {"current_trial": 15, "trialdata": {"rt": -1, "trial_type": "single-stim", "stimulus": "<p id=\"stim\">5</p>", "internal_node_id": "0.0-10.0-5.0", "time_elapsed": 130601, "key_press": -1, "trial_index": 15}, "uniqueid": "MTK1481:3W8CV64QJ36XNYFL72PIVYKFT22H9J", "dateTime": 1515948491594}, {"current_trial": 16, "trialdata": {"rt": -1, "trial_type": "single-stim", "stimulus": "<p id=\"stim\">4</p>", "internal_node_id": "0.0-10.0-6.0", "time_elapsed": 131603, "key_press": -1, "trial_index": 16}, "uniqueid": "MTK1481:3W8CV64QJ36XNYFL72PIVYKFT22H9J", "dateTime": 1515948492596}, {"current_trial": 17, "trialdata": {"rt": -1, "trial_type": "single-stim", "stimulus": "<p id=\"stim\">3</p>", "internal_node_id": "0.0-10.0-7.0", "time_elapsed": 132605, "key_press": -1, "trial_index": 17}, "uniqueid": "MTK1481:3W8CV64QJ36XNYFL72PIVYKFT22H9J", "dateTime": 1515948493598}, {"current_trial": 18, "trialdata": {"rt": -1, "trial_type": "single-stim", "stimulus": "<p id=\"stim\">2</p>", "internal_node_id": "0.0-10.0-8.0", "time_elapsed": 133607, "key_press": -1, "trial_index": 18}, "uniqueid": "MTK1481:3W8CV64QJ36XNYFL72PIVYKFT22H9J", "dateTime": 1515948494600}, {"current_trial": 19, "trialdata": {"rt": -1, "trial_type": "single-stim", "stimulus": "<p id=\"stim\">1</p>", "internal_node_id": "0.0-10.0-9.0", "time_elapsed": 134610, "key_press": -1, "trial_index": 19}, "uniqueid": "MTK1481:3W8CV64QJ36XNYFL72PIVYKFT22H9J", "dateTime": 1515948495603}, {"current_trial": 20, "trialdata": {"rt": -1, "trial_type": "single-stim", "stimulus": "<p id=\"stim\">+</p>", "internal_node_id": "0.0-11.0-0.0", "time_elapsed": 136112, "key_press": -1, "type": "FIXATION", "trial_index": 20}, "uniqueid": "MTK1481:3W8CV64QJ36XNYFL72PIVYKFT22H9J", "dateTime": 1515948497105}, {"current_trial": 21, "trialdata": {"rt": -1000, "trial_type": "single-audio", "word": "contract", "stimulus": "/static/audio/wordpool/CONTRACT.wav", "conditions": [18, 1200, "a", 18000], "internal_node_id": "0.0-12.0", "trial": 0, "time_elapsed": 138336, "serialpos": 0, "key_press": -1, "wordID": 367, "type": "PRES_AUD", "trial_index": 21}, "uniqueid": "MTK1481:3W8CV64QJ36XNYFL72PIVYKFT22H9J", "dateTime": 1515948499329}, {"current_trial": 22, "trialdata": {"rt": -1000, "trial_type": "single-audio", "word": "grill", "stimulus": "/static/audio/wordpool/GRILL.wav", "conditions": [18, 1200, "a", 18000], "internal_node_id": "0.0-13.0", "trial": 0, "time_elapsed": 140723, "serialpos": 1, "key_press": -1, "wordID": 660, "type": "PRES_AUD", "trial_index": 22}, "uniqueid": "MTK1481:3W8CV64QJ36XNYFL72PIVYKFT22H9J", "dateTime": 1515948501716}, {"current_trial": 23, "trialdata": {"rt": -1000, "trial_type": "single-audio", "word": "beaver", "stimulus": "/static/audio/wordpool/BEAVER.wav", "conditions": [18, 1200, "a", 18000], "internal_node_id": "0.0-14.0", "trial": 0, "time_elapsed": 142896, "serialpos": 2, "key_press": -1, "wordID": 108, "type": "PRES_AUD", "trial_index": 23}, "uniqueid": "MTK1481:3W8CV64QJ36XNYFL72PIVYKFT22H9J", "dateTime": 1515948503889}, {"current_trial": 24, "trialdata": {"rt": -1000, "trial_type": "single-audio", "word": "cabbage", "stimulus": "/static/audio/wordpool/CABBAGE.wav", "conditions": [18, 1200, "a", 18000], "internal_node_id": "0.0-15.0", "trial": 0, "time_elapsed": 145138, "serialpos": 3, "key_press": -1, "wordID": 209, "type": "PRES_AUD", "trial_index": 24}, "uniqueid": "MTK1481:3W8CV64QJ36XNYFL72PIVYKFT22H9J", "dateTime": 1515948506132}, {"current_trial": 25, "trialdata": {"rt": -1000, "trial_type": "single-audio", "word": "critic", "stimulus": "/static/audio/wordpool/CRITIC.wav", "conditions": [18, 1200, "a", 18000], "internal_node_id": "0.0-16.0", "trial": 0, "time_elapsed": 147442, "serialpos": 4, "key_press": -1, "wordID": 409, "type": "PRES_AUD", "trial_index": 25}, "uniqueid": "MTK1481:3W8CV64QJ36XNYFL72PIVYKFT22H9J", "dateTime": 1515948508435}, {"current_trial": 26, "trialdata": {"rt": -1000, "trial_type": "single-audio", "word": "seafood", "stimulus": "/static/audio/wordpool/SEAFOOD.wav", "conditions": [18, 1200, "a", 18000], "internal_node_id": "0.0-17.0", "trial": 0, "time_elapsed": 149704, "serialpos": 5, "key_press": -1, "wordID": 1259, "type": "PRES_AUD", "trial_index": 26}, "uniqueid": "MTK1481:3W8CV64QJ36XNYFL72PIVYKFT22H9J", "dateTime": 1515948510700}, {"current_trial": 27, "trialdata": {"rt": -1000, "trial_type": "single-audio", "word": "velvet", "stimulus": "/static/audio/wordpool/VELVET.wav", "conditions": [18, 1200, "a", 18000], "internal_node_id": "0.0-18.0", "trial": 0, "time_elapsed": 151759, "serialpos": 6, "key_press": -1, "wordID": 1554, "type": "PRES_AUD", "trial_index": 27}, "uniqueid": "MTK1481:3W8CV64QJ36XNYFL72PIVYKFT22H9J", "dateTime": 1515948512752}, {"current_trial": 28, "trialdata": {"rt": -1000, "trial_type": "single-audio", "word": "worker", "stimulus": "/static/audio/wordpool/WORKER.wav", "conditions": [18, 1200, "a", 18000], "internal_node_id": "0.0-19.0", "trial": 0, "time_elapsed": 153931, "serialpos": 7, "key_press": -1, "wordID": 1620, "type": "PRES_AUD", "trial_index": 28}, "uniqueid": "MTK1481:3W8CV64QJ36XNYFL72PIVYKFT22H9J", "dateTime": 1515948514925}, {"current_trial": 29, "trialdata": {"rt": -1000, "trial_type": "single-audio", "word": "eyelash", "stimulus": "/static/audio/wordpool/EYELASH.wav", "conditions": [18, 1200, "a", 18000], "internal_node_id": "0.0-20.0", "trial": 0, "time_elapsed": 156212, "serialpos": 8, "key_press": -1, "wordID": 545, "type": "PRES_AUD", "trial_index": 29}, "uniqueid": "MTK1481:3W8CV64QJ36XNYFL72PIVYKFT22H9J", "dateTime": 1515948517206}, {"current_trial": 30, "trialdata": {"rt": -1000, "trial_type": "single-audio", "word": "piano", "stimulus": "/static/audio/wordpool/PIANO.wav", "conditions": [18, 1200, "a", 18000], "internal_node_id": "0.0-21.0", "trial": 0, "time_elapsed": 158556, "serialpos": 9, "key_press": -1, "wordID": 1056, "type": "PRES_AUD", "trial_index": 30}, "uniqueid": "MTK1481:3W8CV64QJ36XNYFL72PIVYKFT22H9J", "dateTime": 1515948519549}, {"current_trial": 31, "trialdata": {"rt": -1000, "trial_type": "single-audio", "word": "tourist", "stimulus": "/static/audio/wordpool/TOURIST.wav", "conditions": [18, 1200, "a", 18000], "internal_node_id": "0.0-22.0", "trial": 0, "time_elapsed": 160697, "serialpos": 10, "key_press": -1, "wordID": 1487, "type": "PRES_AUD", "trial_index": 31}, "uniqueid": "MTK1481:3W8CV64QJ36XNYFL72PIVYKFT22H9J", "dateTime": 1515948521690}, {"current_trial": 32, "trialdata": {"rt": -1000, "trial_type": "single-audio", "word": "sphinx", "stimulus": "/static/audio/wordpool/SPHINX.wav", "conditions": [18, 1200, "a", 18000], "internal_node_id": "0.0-23.0", "trial": 0, "time_elapsed": 162956, "serialpos": 11, "key_press": -1, "wordID": 1348, "type": "PRES_AUD", "trial_index": 32}, "uniqueid": "MTK1481:3W8CV64QJ36XNYFL72PIVYKFT22H9J", "dateTime": 1515948523950}, {"current_trial": 33, "trialdata": {"rt": -1000, "trial_type": "single-audio", "word": "razor", "stimulus": "/static/audio/wordpool/RAZOR.wav", "conditions": [18, 1200, "a", 18000], "internal_node_id": "0.0-24.0", "trial": 0, "time_elapsed": 164992, "serialpos": 12, "key_press": -1, "wordID": 1170, "type": "PRES_AUD", "trial_index": 33}, "uniqueid": "MTK1481:3W8CV64QJ36XNYFL72PIVYKFT22H9J", "dateTime": 1515948525985}, {"current_trial": 34, "trialdata": {"rt": -1000, "trial_type": "single-audio", "word": "beast", "stimulus": "/static/audio/wordpool/BEAST.wav", "conditions": [18, 1200, "a", 18000], "internal_node_id": "0.0-25.0", "trial": 0, "time_elapsed": 167121, "serialpos": 13, "key_press": -1, "wordID": 107, "type": "PRES_AUD", "trial_index": 34}, "uniqueid": "MTK1481:3W8CV64QJ36XNYFL72PIVYKFT22H9J", "dateTime": 1515948528115}, {"current_trial": 35, "trialdata": {"rt": -1000, "trial_type": "single-audio", "word": "convict", "stimulus": "/static/audio/wordpool/CONVICT.wav", "conditions": [18, 1200, "a", 18000], "internal_node_id": "0.0-26.0", "trial": 0, "time_elapsed": 169430, "serialpos": 14, "key_press": -1, "wordID": 370, "type": "PRES_AUD", "trial_index": 35}, "uniqueid": "MTK1481:3W8CV64QJ36XNYFL72PIVYKFT22H9J", "dateTime": 1515948530423}, {"current_trial": 36, "trialdata": {"rt": -1000, "trial_type": "single-audio", "word": "report", "stimulus": "/static/audio/wordpool/REPORT.wav", "conditions": [18, 1200, "a", 18000], "internal_node_id": "0.0-27.0", "trial": 0, "time_elapsed": 171833, "serialpos": 15, "key_press": -1, "wordID": 1183, "type": "PRES_AUD", "trial_index": 36}, "uniqueid": "MTK1481:3W8CV64QJ36XNYFL72PIVYKFT22H9J", "dateTime": 1515948532827}, {"current_trial": 37, "trialdata": {"rt": -1000, "trial_type": "single-audio", "word": "basement", "stimulus": "/static/audio/wordpool/BASEMENT.wav", "conditions": [18, 1200, "a", 18000], "internal_node_id": "0.0-28.0", "trial": 0, "time_elapsed": 173924, "serialpos": 16, "key_press": -1, "wordID": 93, "type": "PRES_AUD", "trial_index": 37}, "uniqueid": "MTK1481:3W8CV64QJ36XNYFL72PIVYKFT22H9J", "dateTime": 1515948534917}, {"current_trial": 38, "trialdata": {"rt": -1000, "trial_type": "single-audio", "word": "heart", "stimulus": "/static/audio/wordpool/HEART.wav", "conditions": [18, 1200, "a", 18000], "internal_node_id": "0.0-29.0", "trial": 0, "time_elapsed": 176267, "serialpos": 17, "key_press": -1, "wordID": 696, "type": "PRES_AUD", "trial_index": 38}, "uniqueid": "MTK1481:3W8CV64QJ36XNYFL72PIVYKFT22H9J", "dateTime": 1515948537260}, {"current_trial": 39, "trialdata": {"rt": -1, "trial_type": "single-stim", "stimulus": "", "internal_node_id": "0.0-30.0-0.0", "time_elapsed": 177659, "key_press": -1, "type": "PRE_RECALL_DELAY", "trial_index": 39}, "uniqueid": "MTK1481:3W8CV64QJ36XNYFL72PIVYKFT22H9J", "dateTime": 1515948538652}, {"current_trial": 40, "trialdata": {"rt": -1000, "trial_type": "single-audio", "stimulus": "/static/audio/400Hz.wav", "internal_node_id": "0.0-31.0", "time_elapsed": 178167, "key_press": -1, "type": "PRE_RECALL_ALERT", "trial_index": 40}, "uniqueid": "MTK1481:3W8CV64QJ36XNYFL72PIVYKFT22H9J", "dateTime": 1515948539160}, {"current_trial": 41, "trialdata": {"rt": [3426, 4533, 5956, 8548, 10037, 16454, 19123, 23114, 26502, 29854, 34945, 44681, 44862, 45055], "recwords": ["basement", "heart", "grill", "seafood", "velvet", "sphynx", "razor", "convict", "beast", "report", "basement", "", "", ""], "key_times": [1849, 2100, 2254, 2363, 2540, 2660, 2777, 3096, 3426, 3902, 4025, 4116, 4193, 4401, 4533, 5167, 5369, 5444, 5583, 5735, 5956, 6210, 6643, 6794, 7367, 7540, 7702, 7892, 8548, 8781, 8921, 9048, 9405, 9599, 9732, 10037, 11637, 12182, 12303, 12386, 12513, 12721, 13294, 13958, 15265, 15405, 15619, 15690, 16454, 18069, 18190, 18398, 18476, 18620, 19123, 22339, 22381, 22466, 22590, 22690, 22821, 22994, 23114, 25857, 26080, 26213, 26321, 26397, 26502, 29128, 29259, 29421, 29504, 29609, 29780, 29854, 33161, 33321, 33409, 33500, 33617, 33729, 33845, 33850, 34418, 34540, 34712, 34823, 34945, 44681, 44862, 45055, 46833, 46863], "trial_type": "free-recall", "conditions": [18, 1200, "a", 18000], "internal_node_id": "0.0-32.0-0.0", "key_presses": [66, 65, 83, 69, 77, 69, 78, 84, 13, 72, 69, 65, 82, 84, 13, 71, 82, 73, 76, 76, 13, 83, 69, 65, 70, 79, 79, 68, 13, 86, 69, 76, 86, 69, 84, 13, 80, 8, 83, 80, 72, 89, 88, 78, 8, 8, 78, 88, 13, 82, 65, 90, 79, 82, 13, 67, 79, 78, 86, 73, 67, 84, 13, 66, 69, 65, 83, 84, 13, 82, 69, 80, 79, 82, 84, 13, 66, 65, 83, 69, 77, 69, 84, 78, 8, 8, 78, 84, 13, 13, 13, 13, 17, 189], "trial": 0, "time_elapsed": 238177, "type": "FREE_RECALL", "trial_index": 41}, "uniqueid": "MTK1481:3W8CV64QJ36XNYFL72PIVYKFT22H9J", "dateTime": 1515948599176}, {"current_trial": 42, "trialdata": {"rt": 2408, "trial_type": "text", "internal_node_id": "0.0-33.0", "time_elapsed": 242594, "key_press": 32, "type": "INSTRUCTIONS", "trial_index": 42}, "uniqueid": "MTK1481:3W8CV64QJ36XNYFL72PIVYKFT22H9J", "dateTime": 1515948603587}, {"current_trial": 43, "trialdata": {"rt": [5120, 6488, 9209, 10880, 12711, 15165, 16714], "trial_type": "math-distractor", "key_times": [220, 351, 4626, 4691, 5120, 6200, 6385, 6488, 8664, 8876, 9209, 10638, 10783, 10880, 12259, 12582, 12711, 14209, 14329, 15165, 16574, 16714, 17880], "responses": ["14", "11", "17", "11", "13", "18", "9"], "num2": [3, 3, 5, 2, 2, 6, 2, 9], "num3": [7, 1, 4, 1, 3, 3, 3, 7], "conditions": [18, 1200, "a", 18000], "internal_node_id": "0.0-34.0", "key_presses": [17, 187, 49, 52, 13, 49, 49, 13, 49, 55, 13, 49, 49, 13, 49, 51, 13, 49, 56, 13, 57, 13, 49], "trial": 1, "time_elapsed": 262604, "type": "DISTRACTOR", "trial_index": 43, "num1": [4, 7, 8, 8, 8, 9, 4, 1]}, "uniqueid": "MTK1481:3W8CV64QJ36XNYFL72PIVYKFT22H9J", "dateTime": 1515948623597}, {"current_trial": 44, "trialdata": {"rt": -1, "trial_type": "single-stim", "stimulus": "<p id=\"stim\">10</p>", "internal_node_id": "0.0-35.0-0.0", "time_elapsed": 265607, "key_press": -1, "trial_index": 44}, "uniqueid": "MTK1481:3W8CV64QJ36XNYFL72PIVYKFT22H9J", "dateTime": 1515948626600}, {"current_trial": 45, "trialdata": {"rt": -1, "trial_type": "single-stim", "stimulus": "<p id=\"stim\">9</p>", "internal_node_id": "0.0-35.0-1.0", "time_elapsed": 266609, "key_press": -1, "trial_index": 45}, "uniqueid": "MTK1481:3W8CV64QJ36XNYFL72PIVYKFT22H9J", "dateTime": 1515948627602}, {"current_trial": 46, "trialdata": {"rt": -1, "trial_type": "single-stim", "stimulus": "<p id=\"stim\">8</p>", "internal_node_id": "0.0-35.0-2.0", "time_elapsed": 267611, "key_press": -1, "trial_index": 46}, "uniqueid": "MTK1481:3W8CV64QJ36XNYFL72PIVYKFT22H9J", "dateTime": 1515948628604}, {"current_trial": 47, "trialdata": {"rt": -1, "trial_type": "single-stim", "stimulus": "<p id=\"stim\">7</p>", "internal_node_id": "0.0-35.0-3.0", "time_elapsed": 268612, "key_press": -1, "trial_index": 47}, "uniqueid": "MTK1481:3W8CV64QJ36XNYFL72PIVYKFT22H9J", "dateTime": 1515948629606}, {"current_trial": 48, "trialdata": {"rt": -1, "trial_type": "single-stim", "stimulus": "<p id=\"stim\">6</p>", "internal_node_id": "0.0-35.0-4.0", "time_elapsed": 269615, "key_press": -1, "trial_index": 48}, "uniqueid": "MTK1481:3W8CV64QJ36XNYFL72PIVYKFT22H9J", "dateTime": 1515948630608}, {"current_trial": 49, "trialdata": {"rt": -1, "trial_type": "single-stim", "stimulus": "<p id=\"stim\">5</p>", "internal_node_id": "0.0-35.0-5.0", "time_elapsed": 270617, "key_press": -1, "trial_index": 49}, "uniqueid": "MTK1481:3W8CV64QJ36XNYFL72PIVYKFT22H9J", "dateTime": 1515948631610}, {"current_trial": 50, "trialdata": {"rt": -1, "trial_type": "single-stim", "stimulus": "<p id=\"stim\">4</p>", "internal_node_id": "0.0-35.0-6.0", "time_elapsed": 271619, "key_press": -1, "trial_index": 50}, "uniqueid": "MTK1481:3W8CV64QJ36XNYFL72PIVYKFT22H9J", "dateTime": 1515948632612}, {"current_trial": 51, "trialdata": {"rt": -1, "trial_type": "single-stim", "stimulus": "<p id=\"stim\">3</p>", "internal_node_id": "0.0-35.0-7.0", "time_elapsed": 272620, "key_press": -1, "trial_index": 51}, "uniqueid": "MTK1481:3W8CV64QJ36XNYFL72PIVYKFT22H9J", "dateTime": 1515948633614}, {"current_trial": 52, "trialdata": {"rt": -1, "trial_type": "single-stim", "stimulus": "<p id=\"stim\">2</p>", "internal_node_id": "0.0-35.0-8.0", "time_elapsed": 273622, "key_press": -1, "trial_index": 52}, "uniqueid": "MTK1481:3W8CV64QJ36XNYFL72PIVYKFT22H9J", "dateTime": 1515948634615}, {"current_trial": 53, "trialdata": {"rt": -1, "trial_type": "single-stim", "stimulus": "<p id=\"stim\">1</p>", "internal_node_id": "0.0-35.0-9.0", "time_elapsed": 274624, "key_press": -1, "trial_index": 53}, "uniqueid": "MTK1481:3W8CV64QJ36XNYFL72PIVYKFT22H9J", "dateTime": 1515948635618}, {"current_trial": 54, "trialdata": {"rt": -1, "trial_type": "single-stim", "stimulus": "<p id=\"stim\">+</p>", "internal_node_id": "0.0-36.0-0.0", "time_elapsed": 276127, "key_press": -1, "type": "FIXATION", "trial_index": 54}, "uniqueid": "MTK1481:3W8CV64QJ36XNYFL72PIVYKFT22H9J", "dateTime": 1515948637120}, {"current_trial": 55, "trialdata": {"rt": -1000, "trial_type": "single-audio", "word": "airport", "stimulus": "/static/audio/wordpool/AIRPORT.wav", "conditions": [18, 1200, "a", 18000], "internal_node_id": "0.0-37.0", "trial": 1, "time_elapsed": 278159, "serialpos": 0, "key_press": -1, "wordID": 12, "type": "PRES_AUD", "trial_index": 55}, "uniqueid": "MTK1481:3W8CV64QJ36XNYFL72PIVYKFT22H9J", "dateTime": 1515948639152}, {"current_trial": 56, "trialdata": {"rt": -1000, "trial_type": "single-audio", "word": "rifle", "stimulus": "/static/audio/wordpool/RIFLE.wav", "conditions": [18, 1200, "a", 18000], "internal_node_id": "0.0-38.0", "trial": 1, "time_elapsed": 280306, "serialpos": 1, "key_press": -1, "wordID": 1191, "type": "PRES_AUD", "trial_index": 56}, "uniqueid": "MTK1481:3W8CV64QJ36XNYFL72PIVYKFT22H9J", "dateTime": 1515948641299}, {"current_trial": 57, "trialdata": {"rt": -1000, "trial_type": "single-audio", "word": "space", "stimulus": "/static/audio/wordpool/SPACE.wav", "conditions": [18, 1200, "a", 18000], "internal_node_id": "0.0-39.0", "trial": 1, "time_elapsed": 282663, "serialpos": 2, "key_press": -1, "wordID": 1344, "type": "PRES_AUD", "trial_index": 57}, "uniqueid": "MTK1481:3W8CV64QJ36XNYFL72PIVYKFT22H9J", "dateTime": 1515948643657}, {"current_trial": 58, "trialdata": {"rt": -1000, "trial_type": "single-audio", "word": "xerox", "stimulus": "/static/audio/wordpool/XEROX.wav", "conditions": [18, 1200, "a", 18000], "internal_node_id": "0.0-40.0", "trial": 1, "time_elapsed": 284750, "serialpos": 3, "key_press": -1, "wordID": 1627, "type": "PRES_AUD", "trial_index": 58}, "uniqueid": "MTK1481:3W8CV64QJ36XNYFL72PIVYKFT22H9J", "dateTime": 1515948645743}, {"current_trial": 59, "trialdata": {"rt": -1000, "trial_type": "single-audio", "word": "silk", "stimulus": "/static/audio/wordpool/SILK.wav", "conditions": [18, 1200, "a", 18000], "internal_node_id": "0.0-41.0", "trial": 1, "time_elapsed": 286927, "serialpos": 4, "key_press": -1, "wordID": 1306, "type": "PRES_AUD", "trial_index": 59}, "uniqueid": "MTK1481:3W8CV64QJ36XNYFL72PIVYKFT22H9J", "dateTime": 1515948647921}, {"current_trial": 60, "trialdata": {"rt": -1000, "trial_type": "single-audio", "word": "actor", "stimulus": "/static/audio/wordpool/ACTOR.wav", "conditions": [18, 1200, "a", 18000], "internal_node_id": "0.0-42.0", "trial": 1, "time_elapsed": 288992, "serialpos": 5, "key_press": -1, "wordID": 4, "type": "PRES_AUD", "trial_index": 60}, "uniqueid": "MTK1481:3W8CV64QJ36XNYFL72PIVYKFT22H9J", "dateTime": 1515948649985}, {"current_trial": 61, "trialdata": {"rt": -1000, "trial_type": "single-audio", "word": "uncle", "stimulus": "/static/audio/wordpool/UNCLE.wav", "conditions": [18, 1200, "a", 18000], "internal_node_id": "0.0-43.0", "trial": 1, "time_elapsed": 291233, "serialpos": 6, "key_press": -1, "wordID": 1535, "type": "PRES_AUD", "trial_index": 61}, "uniqueid": "MTK1481:3W8CV64QJ36XNYFL72PIVYKFT22H9J", "dateTime": 1515948652226}, {"current_trial": 62, "trialdata": {"rt": -1000, "trial_type": "single-audio", "word": "rooster", "stimulus": "/static/audio/wordpool/ROOSTER.wav", "conditions": [18, 1200, "a", 18000], "internal_node_id": "0.0-44.0", "trial": 1, "time_elapsed": 293441, "serialpos": 7, "key_press": -1, "wordID": 1208, "type": "PRES_AUD", "trial_index": 62}, "uniqueid": "MTK1481:3W8CV64QJ36XNYFL72PIVYKFT22H9J", "dateTime": 1515948654434}, {"current_trial": 63, "trialdata": {"rt": -1000, "trial_type": "single-audio", "word": "possum", "stimulus": "/static/audio/wordpool/POSSUM.wav", "conditions": [18, 1200, "a", 18000], "internal_node_id": "0.0-45.0", "trial": 1, "time_elapsed": 295473, "serialpos": 8, "key_press": -1, "wordID": 1111, "type": "PRES_AUD", "trial_index": 63}, "uniqueid": "MTK1481:3W8CV64QJ36XNYFL72PIVYKFT22H9J", "dateTime": 1515948656466}, {"current_trial": 64, "trialdata": {"rt": -1000, "trial_type": "single-audio", "word": "perch", "stimulus": "/static/audio/wordpool/PERCH.wav", "conditions": [18, 1200, "a", 18000], "internal_node_id": "0.0-46.0", "trial": 1, "time_elapsed": 297833, "serialpos": 9, "key_press": -1, "wordID": 1047, "type": "PRES_AUD", "trial_index": 64}, "uniqueid": "MTK1481:3W8CV64QJ36XNYFL72PIVYKFT22H9J", "dateTime": 1515948658826}, {"current_trial": 65, "trialdata": {"rt": -1000, "trial_type": "single-audio", "word": "cod", "stimulus": "/static/audio/wordpool/COD.wav", "conditions": [18, 1200, "a", 18000], "internal_node_id": "0.0-47.0", "trial": 1, "time_elapsed": 299885, "serialpos": 10, "key_press": -1, "wordID": 339, "type": "PRES_AUD", "trial_index": 65}, "uniqueid": "MTK1481:3W8CV64QJ36XNYFL72PIVYKFT22H9J", "dateTime": 1515948660878}, {"current_trial": 66, "trialdata": {"rt": -1000, "trial_type": "single-audio", "word": "wagon", "stimulus": "/static/audio/wordpool/WAGON.wav", "conditions": [18, 1200, "a", 18000], "internal_node_id": "0.0-48.0", "trial": 1, "time_elapsed": 302179, "serialpos": 11, "key_press": -1, "wordID": 1577, "type": "PRES_AUD", "trial_index": 66}, "uniqueid": "MTK1481:3W8CV64QJ36XNYFL72PIVYKFT22H9J", "dateTime": 1515948663173}, {"current_trial": 67, "trialdata": {"rt": -1000, "trial_type": "single-audio", "word": "doughnut", "stimulus": "/static/audio/wordpool/DOUGHNUT.wav", "conditions": [18, 1200, "a", 18000], "internal_node_id": "0.0-49.0", "trial": 1, "time_elapsed": 304493, "serialpos": 12, "key_press": -1, "wordID": 489, "type": "PRES_AUD", "trial_index": 67}, "uniqueid": "MTK1481:3W8CV64QJ36XNYFL72PIVYKFT22H9J", "dateTime": 1515948665486}, {"current_trial": 68, "trialdata": {"rt": -1000, "trial_type": "single-audio", "word": "chapel", "stimulus": "/static/audio/wordpool/CHAPEL.wav", "conditions": [18, 1200, "a", 18000], "internal_node_id": "0.0-50.0", "trial": 1, "time_elapsed": 306718, "serialpos": 13, "key_press": -1, "wordID": 279, "type": "PRES_AUD", "trial_index": 68}, "uniqueid": "MTK1481:3W8CV64QJ36XNYFL72PIVYKFT22H9J", "dateTime": 1515948667713}, {"current_trial": 69, "trialdata": {"rt": -1000, "trial_type": "single-audio", "word": "tile", "stimulus": "/static/audio/wordpool/TILE.wav", "conditions": [18, 1200, "a", 18000], "internal_node_id": "0.0-51.0", "trial": 1, "time_elapsed": 309099, "serialpos": 14, "key_press": -1, "wordID": 1467, "type": "PRES_AUD", "trial_index": 69}, "uniqueid": "MTK1481:3W8CV64QJ36XNYFL72PIVYKFT22H9J", "dateTime": 1515948670093}, {"current_trial": 70, "trialdata": {"rt": -1000, "trial_type": "single-audio", "word": "infant", "stimulus": "/static/audio/wordpool/INFANT.wav", "conditions": [18, 1200, "a", 18000], "internal_node_id": "0.0-52.0", "trial": 1, "time_elapsed": 311286, "serialpos": 15, "key_press": -1, "wordID": 736, "type": "PRES_AUD", "trial_index": 70}, "uniqueid": "MTK1481:3W8CV64QJ36XNYFL72PIVYKFT22H9J", "dateTime": 1515948672280}, {"current_trial": 71, "trialdata": {"rt": -1000, "trial_type": "single-audio", "word": "crayon", "stimulus": "/static/audio/wordpool/CRAYON.wav", "conditions": [18, 1200, "a", 18000], "internal_node_id": "0.0-53.0", "trial": 1, "time_elapsed": 313453, "serialpos": 16, "key_press": -1, "wordID": 400, "type": "PRES_AUD", "trial_index": 71}, "uniqueid": "MTK1481:3W8CV64QJ36XNYFL72PIVYKFT22H9J", "dateTime": 1515948674447}, {"current_trial": 72, "trialdata": {"rt": -1000, "trial_type": "single-audio", "word": "garbage", "stimulus": "/static/audio/wordpool/GARBAGE.wav", "conditions": [18, 1200, "a", 18000], "internal_node_id": "0.0-54.0", "trial": 1, "time_elapsed": 315623, "serialpos": 17, "key_press": -1, "wordID": 621, "type": "PRES_AUD", "trial_index": 72}, "uniqueid": "MTK1481:3W8CV64QJ36XNYFL72PIVYKFT22H9J", "dateTime": 1515948676616}, {"current_trial": 73, "trialdata": {"rt": -1, "trial_type": "single-stim", "stimulus": "", "internal_node_id": "0.0-55.0-0.0", "time_elapsed": 316910, "key_press": -1, "type": "PRE_RECALL_DELAY", "trial_index": 73}, "uniqueid": "MTK1481:3W8CV64QJ36XNYFL72PIVYKFT22H9J", "dateTime": 1515948677904}, {"current_trial": 74, "trialdata": {"rt": -1000, "trial_type": "single-audio", "stimulus": "/static/audio/400Hz.wav", "internal_node_id": "0.0-56.0", "time_elapsed": 317418, "key_press": -1, "type": "PRE_RECALL_ALERT", "trial_index": 74}, "uniqueid": "MTK1481:3W8CV64QJ36XNYFL72PIVYKFT22H9J", "dateTime": 1515948678411}, {"current_trial": 75, "trialdata": {"rt": [1588, 2723, 4440, 6876, 10120, 13029, 14348, 15801, 20291, 22665, 25798, 26327, 31718, 44487, 53929], "recwords": ["infant", "crayon", "garbage", "uncle", "silk", "xerox", "airport", "space", "beaver", "runway", "wagon", "cod", "uncle", "tile", "silk"], "key_times": [537, 666, 800, 911, 1103, 1456, 1588, 1870, 2052, 2154, 2252, 2351, 2491, 2723, 2854, 3117, 3216, 3462, 3655, 3864, 4047, 4440, 5527, 5727, 5978, 6076, 6223, 6876, 9109, 9184, 9326, 9689, 10120, 10825, 11126, 11360, 11711, 11794, 12006, 12119, 12283, 12837, 13029, 13243, 13351, 13461, 13572, 13663, 13765, 13955, 14348, 14703, 14785, 14947, 15239, 15542, 15801, 19437, 19609, 19711, 19831, 20006, 20108, 20291, 21448, 21534, 21701, 21742, 21929, 22039, 22665, 25147, 25327, 25483, 25553, 25646, 25798, 26041, 26129, 26226, 26327, 31145, 31315, 31437, 31516, 31632, 31718, 43941, 44102, 44263, 44375, 44487, 51942, 52811, 52974, 53079, 53316, 53488, 53929], "trial_type": "free-recall", "conditions": [18, 1200, "a", 18000], "internal_node_id": "0.0-57.0-0.0", "key_presses": [73, 78, 70, 65, 78, 84, 13, 67, 82, 65, 89, 79, 78, 13, 71, 65, 82, 66, 65, 71, 69, 13, 85, 78, 67, 76, 69, 13, 83, 73, 76, 75, 13, 69, 8, 69, 8, 88, 69, 82, 79, 88, 13, 65, 73, 82, 80, 79, 82, 84, 13, 83, 80, 65, 67, 69, 13, 66, 69, 65, 86, 69, 82, 13, 82, 85, 78, 87, 65, 89, 13, 87, 65, 71, 79, 78, 13, 67, 79, 68, 13, 85, 78, 67, 76, 69, 13, 84, 73, 76, 69, 13, 88, 8, 83, 73, 76, 75, 13], "trial": 1, "time_elapsed": 377423, "type": "FREE_RECALL", "trial_index": 75}, "uniqueid": "MTK1481:3W8CV64QJ36XNYFL72PIVYKFT22H9J", "dateTime": 1515948738422}, {"current_trial": 76, "trialdata": {"rt": 5172, "trial_type": "text", "internal_node_id": "0.0-58.0", "time_elapsed": 384604, "key_press": 13, "type": "INSTRUCTIONS", "trial_index": 76}, "uniqueid": "MTK1481:3W8CV64QJ36XNYFL72PIVYKFT22H9J", "dateTime": 1515948745597}, {"current_trial": 77, "trialdata": {"rt": [2578, 7054, 8821, 10727, 12263, 14671, 16704, 18458, 20240, 22651], "trial_type": "math-distractor", "key_times": [2127, 2279, 2578, 6568, 6654, 7054, 8464, 8684, 8821, 10117, 10381, 10727, 12031, 12263, 13789, 13899, 14671, 16291, 16580, 16704, 18028, 18221, 18458, 19859, 20011, 20240, 22160, 22468, 22651], "responses": ["19", "23", "12", "19", "8", "14", "12", "19", "19", "12"], "num2": [8, 6, 5, 7, 6, 2, 2, 5, 5, 6, 4], "num3": [6, 9, 3, 4, 1, 5, 1, 5, 7, 4, 2], "conditions": [24, 800, "a", 24000], "internal_node_id": "0.0-59.0", "key_presses": [49, 57, 13, 50, 51, 13, 49, 50, 13, 49, 57, 13, 56, 13, 49, 52, 13, 49, 50, 13, 49, 57, 13, 49, 57, 13, 49, 50, 13], "trial": 2, "time_elapsed": 409609, "type": "DISTRACTOR", "trial_index": 77, "num1": [5, 7, 4, 8, 1, 9, 9, 9, 7, 2, 9]}, "uniqueid": "MTK1481:3W8CV64QJ36XNYFL72PIVYKFT22H9J", "dateTime": 1515948770602}, {"current_trial": 78, "trialdata": {"rt": -1, "trial_type": "single-stim", "stimulus": "<p id=\"stim\">10</p>", "internal_node_id": "0.0-60.0-0.0", "time_elapsed": 412612, "key_press": -1, "trial_index": 78}, "uniqueid": "MTK1481:3W8CV64QJ36XNYFL72PIVYKFT22H9J", "dateTime": 1515948773605}, {"current_trial": 79, "trialdata": {"rt": -1, "trial_type": "single-stim", "stimulus": "<p id=\"stim\">9</p>", "internal_node_id": "0.0-60.0-1.0", "time_elapsed": 413614, "key_press": -1, "trial_index": 79}, "uniqueid": "MTK1481:3W8CV64QJ36XNYFL72PIVYKFT22H9J", "dateTime": 1515948774607}, {"current_trial": 80, "trialdata": {"rt": -1, "trial_type": "single-stim", "stimulus": "<p id=\"stim\">8</p>", "internal_node_id": "0.0-60.0-2.0", "time_elapsed": 414616, "key_press": -1, "trial_index": 80}, "uniqueid": "MTK1481:3W8CV64QJ36XNYFL72PIVYKFT22H9J", "dateTime": 1515948775609}, {"current_trial": 81, "trialdata": {"rt": -1, "trial_type": "single-stim", "stimulus": "<p id=\"stim\">7</p>", "internal_node_id": "0.0-60.0-3.0", "time_elapsed": 415618, "key_press": -1, "trial_index": 81}, "uniqueid": "MTK1481:3W8CV64QJ36XNYFL72PIVYKFT22H9J", "dateTime": 1515948776611}, {"current_trial": 82, "trialdata": {"rt": -1, "trial_type": "single-stim", "stimulus": "<p id=\"stim\">6</p>", "internal_node_id": "0.0-60.0-4.0", "time_elapsed": 416620, "key_press": -1, "trial_index": 82}, "uniqueid": "MTK1481:3W8CV64QJ36XNYFL72PIVYKFT22H9J", "dateTime": 1515948777613}, {"current_trial": 83, "trialdata": {"rt": -1, "trial_type": "single-stim", "stimulus": "<p id=\"stim\">5</p>", "internal_node_id": "0.0-60.0-5.0", "time_elapsed": 417622, "key_press": -1, "trial_index": 83}, "uniqueid": "MTK1481:3W8CV64QJ36XNYFL72PIVYKFT22H9J", "dateTime": 1515948778615}, {"current_trial": 84, "trialdata": {"rt": -1, "trial_type": "single-stim", "stimulus": "<p id=\"stim\">4</p>", "internal_node_id": "0.0-60.0-6.0", "time_elapsed": 418625, "key_press": -1, "trial_index": 84}, "uniqueid": "MTK1481:3W8CV64QJ36XNYFL72PIVYKFT22H9J", "dateTime": 1515948779618}, {"current_trial": 85, "trialdata": {"rt": -1, "trial_type": "single-stim", "stimulus": "<p id=\"stim\">3</p>", "internal_node_id": "0.0-60.0-7.0", "time_elapsed": 419626, "key_press": -1, "trial_index": 85}, "uniqueid": "MTK1481:3W8CV64QJ36XNYFL72PIVYKFT22H9J", "dateTime": 1515948780619}, {"current_trial": 86, "trialdata": {"rt": -1, "trial_type": "single-stim", "stimulus": "<p id=\"stim\">2</p>", "internal_node_id": "0.0-60.0-8.0", "time_elapsed": 420628, "key_press": -1, "trial_index": 86}, "uniqueid": "MTK1481:3W8CV64QJ36XNYFL72PIVYKFT22H9J", "dateTime": 1515948781621}, {"current_trial": 87, "trialdata": {"rt": -1, "trial_type": "single-stim", "stimulus": "<p id=\"stim\">1</p>", "internal_node_id": "0.0-60.0-9.0", "time_elapsed": 421630, "key_press": -1, "trial_index": 87}, "uniqueid": "MTK1481:3W8CV64QJ36XNYFL72PIVYKFT22H9J", "dateTime": 1515948782623}, {"current_trial": 88, "trialdata": {"rt": -1, "trial_type": "single-stim", "stimulus": "<p id=\"stim\">+</p>", "internal_node_id": "0.0-61.0-0.0", "time_elapsed": 423133, "key_press": -1, "type": "FIXATION", "trial_index": 88}, "uniqueid": "MTK1481:3W8CV64QJ36XNYFL72PIVYKFT22H9J", "dateTime": 1515948784126}, {"current_trial": 89, "trialdata": {"rt": -1000, "trial_type": "single-audio", "word": "jello", "stimulus": "/static/audio/wordpool/JELLO.wav", "conditions": [24, 800, "a", 24000], "internal_node_id": "0.0-62.0", "trial": 2, "time_elapsed": 424830, "serialpos": 0, "key_press": -1, "wordID": 753, "type": "PRES_AUD", "trial_index": 89}, "uniqueid": "MTK1481:3W8CV64QJ36XNYFL72PIVYKFT22H9J", "dateTime": 1515948785823}, {"current_trial": 90, "trialdata": {"rt": -1000, "trial_type": "single-audio", "word": "jelly", "stimulus": "/static/audio/wordpool/JELLY.wav", "conditions": [24, 800, "a", 24000], "internal_node_id": "0.0-63.0", "trial": 2, "time_elapsed": 426737, "serialpos": 1, "key_press": -1, "wordID": 754, "type": "PRES_AUD", "trial_index": 90}, "uniqueid": "MTK1481:3W8CV64QJ36XNYFL72PIVYKFT22H9J", "dateTime": 1515948787731}, {"current_trial": 91, "trialdata": {"rt": -1000, "trial_type": "single-audio", "word": "lunch", "stimulus": "/static/audio/wordpool/LUNCH.wav", "conditions": [24, 800, "a", 24000], "internal_node_id": "0.0-64.0", "trial": 2, "time_elapsed": 428598, "serialpos": 2, "key_press": -1, "wordID": 848, "type": "PRES_AUD", "trial_index": 91}, "uniqueid": "MTK1481:3W8CV64QJ36XNYFL72PIVYKFT22H9J", "dateTime": 1515948789591}, {"current_trial": 92, "trialdata": {"rt": -1000, "trial_type": "single-audio", "word": "lightning", "stimulus": "/static/audio/wordpool/LIGHTNING.wav", "conditions": [24, 800, "a", 24000], "internal_node_id": "0.0-65.0", "trial": 2, "time_elapsed": 430479, "serialpos": 3, "key_press": -1, "wordID": 819, "type": "PRES_AUD", "trial_index": 92}, "uniqueid": "MTK1481:3W8CV64QJ36XNYFL72PIVYKFT22H9J", "dateTime": 1515948791472}, {"current_trial": 93, "trialdata": {"rt": -1000, "trial_type": "single-audio", "word": "hostess", "stimulus": "/static/audio/wordpool/HOSTESS.wav", "conditions": [24, 800, "a", 24000], "internal_node_id": "0.0-66.0", "trial": 2, "time_elapsed": 432342, "serialpos": 4, "key_press": -1, "wordID": 722, "type": "PRES_AUD", "trial_index": 93}, "uniqueid": "MTK1481:3W8CV64QJ36XNYFL72PIVYKFT22H9J", "dateTime": 1515948793336}, {"current_trial": 94, "trialdata": {"rt": -1000, "trial_type": "single-audio", "word": "kitchen", "stimulus": "/static/audio/wordpool/KITCHEN.wav", "conditions": [24, 800, "a", 24000], "internal_node_id": "0.0-67.0", "trial": 2, "time_elapsed": 434253, "serialpos": 5, "key_press": -1, "wordID": 777, "type": "PRES_AUD", "trial_index": 94}, "uniqueid": "MTK1481:3W8CV64QJ36XNYFL72PIVYKFT22H9J", "dateTime": 1515948795246}, {"current_trial": 95, "trialdata": {"rt": -1000, "trial_type": "single-audio", "word": "sculpture", "stimulus": "/static/audio/wordpool/SCULPTURE.wav", "conditions": [24, 800, "a", 24000], "internal_node_id": "0.0-68.0", "trial": 2, "time_elapsed": 436180, "serialpos": 6, "key_press": -1, "wordID": 1257, "type": "PRES_AUD", "trial_index": 95}, "uniqueid": "MTK1481:3W8CV64QJ36XNYFL72PIVYKFT22H9J", "dateTime": 1515948797173}, {"current_trial": 96, "trialdata": {"rt": -1000, "trial_type": "single-audio", "word": "comet", "stimulus": "/static/audio/wordpool/COMET.wav", "conditions": [24, 800, "a", 24000], "internal_node_id": "0.0-69.0", "trial": 2, "time_elapsed": 438183, "serialpos": 7, "key_press": -1, "wordID": 352, "type": "PRES_AUD", "trial_index": 96}, "uniqueid": "MTK1481:3W8CV64QJ36XNYFL72PIVYKFT22H9J", "dateTime": 1515948799176}, {"current_trial": 97, "trialdata": {"rt": -1000, "trial_type": "single-audio", "word": "crevice", "stimulus": "/static/audio/wordpool/CREVICE.wav", "conditions": [24, 800, "a", 24000], "internal_node_id": "0.0-70.0", "trial": 2, "time_elapsed": 440162, "serialpos": 8, "key_press": -1, "wordID": 404, "type": "PRES_AUD", "trial_index": 97}, "uniqueid": "MTK1481:3W8CV64QJ36XNYFL72PIVYKFT22H9J", "dateTime": 1515948801155}, {"current_trial": 98, "trialdata": {"rt": -1000, "trial_type": "single-audio", "word": "virus", "stimulus": "/static/audio/wordpool/VIRUS.wav", "conditions": [24, 800, "a", 24000], "internal_node_id": "0.0-71.0", "trial": 2, "time_elapsed": 442130, "serialpos": 9, "key_press": -1, "wordID": 1571, "type": "PRES_AUD", "trial_index": 98}, "uniqueid": "MTK1481:3W8CV64QJ36XNYFL72PIVYKFT22H9J", "dateTime": 1515948803123}, {"current_trial": 99, "trialdata": {"rt": -1000, "trial_type": "single-audio", "word": "hero", "stimulus": "/static/audio/wordpool/HERO.wav", "conditions": [24, 800, "a", 24000], "internal_node_id": "0.0-72.0", "trial": 2, "time_elapsed": 443844, "serialpos": 10, "key_press": -1, "wordID": 705, "type": "PRES_AUD", "trial_index": 99}, "uniqueid": "MTK1481:3W8CV64QJ36XNYFL72PIVYKFT22H9J", "dateTime": 1515948804837}, {"current_trial": 100, "trialdata": {"rt": -1000, "trial_type": "single-audio", "word": "statue", "stimulus": "/static/audio/wordpool/STATUE.wav", "conditions": [24, 800, "a", 24000], "internal_node_id": "0.0-73.0", "trial": 2, "time_elapsed": 445523, "serialpos": 11, "key_press": -1, "wordID": 1373, "type": "PRES_AUD", "trial_index": 100}, "uniqueid": "MTK1481:3W8CV64QJ36XNYFL72PIVYKFT22H9J", "dateTime": 1515948806517}, {"current_trial": 101, "trialdata": {"rt": -1000, "trial_type": "single-audio", "word": "butcher", "stimulus": "/static/audio/wordpool/BUTCHER.wav", "conditions": [24, 800, "a", 24000], "internal_node_id": "0.0-74.0", "trial": 2, "time_elapsed": 447464, "serialpos": 12, "key_press": -1, "wordID": 202, "type": "PRES_AUD", "trial_index": 101}, "uniqueid": "MTK1481:3W8CV64QJ36XNYFL72PIVYKFT22H9J", "dateTime": 1515948808457}, {"current_trial": 102, "trialdata": {"rt": -1000, "trial_type": "single-audio", "word": "daisy", "stimulus": "/static/audio/wordpool/DAISY.wav", "conditions": [24, 800, "a", 24000], "internal_node_id": "0.0-75.0", "trial": 2, "time_elapsed": 449326, "serialpos": 13, "key_press": -1, "wordID": 434, "type": "PRES_AUD", "trial_index": 102}, "uniqueid": "MTK1481:3W8CV64QJ36XNYFL72PIVYKFT22H9J", "dateTime": 1515948810319}, {"current_trial": 103, "trialdata": {"rt": -1000, "trial_type": "single-audio", "word": "garden", "stimulus": "/static/audio/wordpool/GARDEN.wav", "conditions": [24, 800, "a", 24000], "internal_node_id": "0.0-76.0", "trial": 2, "time_elapsed": 450929, "serialpos": 14, "key_press": -1, "wordID": 622, "type": "PRES_AUD", "trial_index": 103}, "uniqueid": "MTK1481:3W8CV64QJ36XNYFL72PIVYKFT22H9J", "dateTime": 1515948811922}, {"current_trial": 104, "trialdata": {"rt": -1000, "trial_type": "single-audio", "word": "orchid", "stimulus": "/static/audio/wordpool/ORCHID.wav", "conditions": [24, 800, "a", 24000], "internal_node_id": "0.0-77.0", "trial": 2, "time_elapsed": 452657, "serialpos": 15, "key_press": -1, "wordID": 981, "type": "PRES_AUD", "trial_index": 104}, "uniqueid": "MTK1481:3W8CV64QJ36XNYFL72PIVYKFT22H9J", "dateTime": 1515948813650}, {"current_trial": 105, "trialdata": {"rt": -1000, "trial_type": "single-audio", "word": "lily", "stimulus": "/static/audio/wordpool/LILY.wav", "conditions": [24, 800, "a", 24000], "internal_node_id": "0.0-78.0", "trial": 2, "time_elapsed": 454597, "serialpos": 16, "key_press": -1, "wordID": 820, "type": "PRES_AUD", "trial_index": 105}, "uniqueid": "MTK1481:3W8CV64QJ36XNYFL72PIVYKFT22H9J", "dateTime": 1515948815590}, {"current_trial": 106, "trialdata": {"rt": -1000, "trial_type": "single-audio", "word": "twig", "stimulus": "/static/audio/wordpool/TWIG.wav", "conditions": [24, 800, "a", 24000], "internal_node_id": "0.0-79.0", "trial": 2, "time_elapsed": 456243, "serialpos": 17, "key_press": -1, "wordID": 1526, "type": "PRES_AUD", "trial_index": 106}, "uniqueid": "MTK1481:3W8CV64QJ36XNYFL72PIVYKFT22H9J", "dateTime": 1515948817236}, {"current_trial": 107, "trialdata": {"rt": -1000, "trial_type": "single-audio", "word": "lapel", "stimulus": "/static/audio/wordpool/LAPEL.wav", "conditions": [24, 800, "a", 24000], "internal_node_id": "0.0-80.0", "trial": 2, "time_elapsed": 457881, "serialpos": 18, "key_press": -1, "wordID": 799, "type": "PRES_AUD", "trial_index": 107}, "uniqueid": "MTK1481:3W8CV64QJ36XNYFL72PIVYKFT22H9J", "dateTime": 1515948818874}, {"current_trial": 108, "trialdata": {"rt": -1000, "trial_type": "single-audio", "word": "london", "stimulus": "/static/audio/wordpool/LONDON.wav", "conditions": [24, 800, "a", 24000], "internal_node_id": "0.0-81.0", "trial": 2, "time_elapsed": 459638, "serialpos": 19, "key_press": -1, "wordID": 842, "type": "PRES_AUD", "trial_index": 108}, "uniqueid": "MTK1481:3W8CV64QJ36XNYFL72PIVYKFT22H9J", "dateTime": 1515948820631}, {"current_trial": 109, "trialdata": {"rt": -1000, "trial_type": "single-audio", "word": "oyster", "stimulus": "/static/audio/wordpool/OYSTER.wav", "conditions": [24, 800, "a", 24000], "internal_node_id": "0.0-82.0", "trial": 2, "time_elapsed": 461381, "serialpos": 20, "key_press": -1, "wordID": 994, "type": "PRES_AUD", "trial_index": 109}, "uniqueid": "MTK1481:3W8CV64QJ36XNYFL72PIVYKFT22H9J", "dateTime": 1515948822374}, {"current_trial": 110, "trialdata": {"rt": -1000, "trial_type": "single-audio", "word": "human", "stimulus": "/static/audio/wordpool/HUMAN.wav", "conditions": [24, 800, "a", 24000], "internal_node_id": "0.0-83.0", "trial": 2, "time_elapsed": 463346, "serialpos": 21, "key_press": -1, "wordID": 725, "type": "PRES_AUD", "trial_index": 110}, "uniqueid": "MTK1481:3W8CV64QJ36XNYFL72PIVYKFT22H9J", "dateTime": 1515948824340}, {"current_trial": 111, "trialdata": {"rt": -1000, "trial_type": "single-audio", "word": "radish", "stimulus": "/static/audio/wordpool/RADISH.wav", "conditions": [24, 800, "a", 24000], "internal_node_id": "0.0-84.0", "trial": 2, "time_elapsed": 465325, "serialpos": 22, "key_press": -1, "wordID": 1157, "type": "PRES_AUD", "trial_index": 111}, "uniqueid": "MTK1481:3W8CV64QJ36XNYFL72PIVYKFT22H9J", "dateTime": 1515948826319}, {"current_trial": 112, "trialdata": {"rt": -1000, "trial_type": "single-audio", "word": "brick", "stimulus": "/static/audio/wordpool/BRICK.wav", "conditions": [24, 800, "a", 24000], "internal_node_id": "0.0-85.0", "trial": 2, "time_elapsed": 467205, "serialpos": 23, "key_press": -1, "wordID": 171, "type": "PRES_AUD", "trial_index": 112}, "uniqueid": "MTK1481:3W8CV64QJ36XNYFL72PIVYKFT22H9J", "dateTime": 1515948828198}, {"current_trial": 113, "trialdata": {"rt": -1, "trial_type": "single-stim", "stimulus": "", "internal_node_id": "0.0-86.0-0.0", "time_elapsed": 468567, "key_press": -1, "type": "PRE_RECALL_DELAY", "trial_index": 113}, "uniqueid": "MTK1481:3W8CV64QJ36XNYFL72PIVYKFT22H9J", "dateTime": 1515948829560}, {"current_trial": 114, "trialdata": {"rt": -1000, "trial_type": "single-audio", "stimulus": "/static/audio/400Hz.wav", "internal_node_id": "0.0-87.0", "time_elapsed": 469075, "key_press": -1, "type": "PRE_RECALL_ALERT", "trial_index": 114}, "uniqueid": "MTK1481:3W8CV64QJ36XNYFL72PIVYKFT22H9J", "dateTime": 1515948830068}, {"current_trial": 115, "trialdata": {"rt": [1837, 4557, 6391, 8149, 9617, 12648, 14019, 15271, 21377, 34867, 39203], "recwords": ["radish", "brick", "oyster", "london", "lapel", "kitchen", "jello", "jelly", "hero", "comet", "lightening"], "key_times": [537, 715, 899, 1096, 1275, 1421, 1837, 2110, 2358, 2447, 2586, 2720, 3378, 4001, 4233, 4284, 4557, 4859, 5081, 5546, 5887, 5958, 6076, 6194, 6286, 6391, 6998, 7083, 7181, 7273, 7378, 7812, 7883, 7954, 8149, 8430, 8583, 8670, 8843, 8968, 9617, 11414, 11566, 11687, 11878, 11975, 12102, 12201, 12648, 13072, 13362, 13487, 13617, 13788, 14019, 14341, 14545, 14674, 14825, 14908, 15271, 20599, 20729, 20850, 20922, 21377, 34447, 34499, 34615, 34710, 34805, 34867, 37797, 37920, 38041, 38146, 38264, 38437, 38551, 38652, 38729, 38810, 39203], "trial_type": "free-recall", "conditions": [24, 800, "a", 24000], "internal_node_id": "0.0-88.0-0.0", "key_presses": [82, 65, 68, 73, 83, 72, 13, 66, 82, 73, 83, 75, 8, 8, 67, 75, 13, 79, 89, 88, 8, 83, 84, 69, 82, 13, 20, 76, 20, 79, 78, 68, 79, 78, 13, 76, 65, 80, 69, 76, 13, 75, 73, 84, 67, 72, 69, 78, 13, 74, 69, 76, 76, 79, 13, 74, 69, 76, 76, 89, 13, 72, 69, 82, 79, 13, 67, 79, 77, 69, 84, 13, 76, 73, 71, 72, 84, 69, 78, 73, 78, 71, 13], "trial": 2, "time_elapsed": 529080, "type": "FREE_RECALL", "trial_index": 115}, "uniqueid": "MTK1481:3W8CV64QJ36XNYFL72PIVYKFT22H9J", "dateTime": 1515948890080}, {"current_trial": 116, "trialdata": {"rt": 1598, "trial_type": "text", "internal_node_id": "0.0-89.0", "time_elapsed": 532686, "key_press": 32, "type": "INSTRUCTIONS", "trial_index": 116}, "uniqueid": "MTK1481:3W8CV64QJ36XNYFL72PIVYKFT22H9J", "dateTime": 1515948893679}, {"current_trial": 117, "trialdata": {"rt": [4697, 6845, 8717], "trial_type": "math-distractor", "key_times": [4252, 4428, 4697, 6482, 6741, 6845, 8407, 8595, 8717, 11666, 11788], "responses": ["11", "16", "15"], "num2": [3, 8, 7, 6], "num3": [7, 2, 6, 6], "conditions": [12, 800, "a", 12000], "internal_node_id": "0.0-90.0", "key_presses": [49, 49, 13, 49, 54, 13, 49, 53, 13, 49, 57], "trial": 3, "time_elapsed": 546694, "type": "DISTRACTOR", "trial_index": 117, "num1": [1, 6, 2, 7]}, "uniqueid": "MTK1481:3W8CV64QJ36XNYFL72PIVYKFT22H9J", "dateTime": 1515948907687}, {"current_trial": 118, "trialdata": {"rt": -1, "trial_type": "single-stim", "stimulus": "<p id=\"stim\">10</p>", "internal_node_id": "0.0-91.0-0.0", "time_elapsed": 549697, "key_press": -1, "trial_index": 118}, "uniqueid": "MTK1481:3W8CV64QJ36XNYFL72PIVYKFT22H9J", "dateTime": 1515948910690}, {"current_trial": 119, "trialdata": {"rt": -1, "trial_type": "single-stim", "stimulus": "<p id=\"stim\">9</p>", "internal_node_id": "0.0-91.0-1.0", "time_elapsed": 550699, "key_press": -1, "trial_index": 119}, "uniqueid": "MTK1481:3W8CV64QJ36XNYFL72PIVYKFT22H9J", "dateTime": 1515948911692}, {"current_trial": 120, "trialdata": {"rt": -1, "trial_type": "single-stim", "stimulus": "<p id=\"stim\">8</p>", "internal_node_id": "0.0-91.0-2.0", "time_elapsed": 551700, "key_press": -1, "trial_index": 120}, "uniqueid": "MTK1481:3W8CV64QJ36XNYFL72PIVYKFT22H9J", "dateTime": 1515948912694}, {"current_trial": 121, "trialdata": {"rt": -1, "trial_type": "single-stim", "stimulus": "<p id=\"stim\">7</p>", "internal_node_id": "0.0-91.0-3.0", "time_elapsed": 552703, "key_press": -1, "trial_index": 121}, "uniqueid": "MTK1481:3W8CV64QJ36XNYFL72PIVYKFT22H9J", "dateTime": 1515948913696}, {"current_trial": 122, "trialdata": {"rt": -1, "trial_type": "single-stim", "stimulus": "<p id=\"stim\">6</p>", "internal_node_id": "0.0-91.0-4.0", "time_elapsed": 553705, "key_press": -1, "trial_index": 122}, "uniqueid": "MTK1481:3W8CV64QJ36XNYFL72PIVYKFT22H9J", "dateTime": 1515948914698}, {"current_trial": 123, "trialdata": {"rt": -1, "trial_type": "single-stim", "stimulus": "<p id=\"stim\">5</p>", "internal_node_id": "0.0-91.0-5.0", "time_elapsed": 554707, "key_press": -1, "trial_index": 123}, "uniqueid": "MTK1481:3W8CV64QJ36XNYFL72PIVYKFT22H9J", "dateTime": 1515948915700}, {"current_trial": 124, "trialdata": {"rt": -1, "trial_type": "single-stim", "stimulus": "<p id=\"stim\">4</p>", "internal_node_id": "0.0-91.0-6.0", "time_elapsed": 555710, "key_press": -1, "trial_index": 124}, "uniqueid": "MTK1481:3W8CV64QJ36XNYFL72PIVYKFT22H9J", "dateTime": 1515948916703}, {"current_trial": 125, "trialdata": {"rt": -1, "trial_type": "single-stim", "stimulus": "<p id=\"stim\">3</p>", "internal_node_id": "0.0-91.0-7.0", "time_elapsed": 556714, "key_press": -1, "trial_index": 125}, "uniqueid": "MTK1481:3W8CV64QJ36XNYFL72PIVYKFT22H9J", "dateTime": 1515948917707}, {"current_trial": 126, "trialdata": {"rt": -1, "trial_type": "single-stim", "stimulus": "<p id=\"stim\">2</p>", "internal_node_id": "0.0-91.0-8.0", "time_elapsed": 557719, "key_press": -1, "trial_index": 126}, "uniqueid": "MTK1481:3W8CV64QJ36XNYFL72PIVYKFT22H9J", "dateTime": 1515948918718}, {"current_trial": 127, "trialdata": {"rt": -1, "trial_type": "single-stim", "stimulus": "<p id=\"stim\">1</p>", "internal_node_id": "0.0-91.0-9.0", "time_elapsed": 558727, "key_press": -1, "trial_index": 127}, "uniqueid": "MTK1481:3W8CV64QJ36XNYFL72PIVYKFT22H9J", "dateTime": 1515948919720}, {"current_trial": 128, "trialdata": {"rt": -1, "trial_type": "single-stim", "stimulus": "<p id=\"stim\">+</p>", "internal_node_id": "0.0-92.0-0.0", "time_elapsed": 560228, "key_press": -1, "type": "FIXATION", "trial_index": 128}, "uniqueid": "MTK1481:3W8CV64QJ36XNYFL72PIVYKFT22H9J", "dateTime": 1515948921221}, {"current_trial": 129, "trialdata": {"rt": -1000, "trial_type": "single-audio", "word": "pigeon", "stimulus": "/static/audio/wordpool/PIGEON.wav", "conditions": [12, 800, "a", 12000], "internal_node_id": "0.0-93.0", "trial": 3, "time_elapsed": 561914, "serialpos": 0, "key_press": -1, "wordID": 1064, "type": "PRES_AUD", "trial_index": 129}, "uniqueid": "MTK1481:3W8CV64QJ36XNYFL72PIVYKFT22H9J", "dateTime": 1515948922907}, {"current_trial": 130, "trialdata": {"rt": -1000, "trial_type": "single-audio", "word": "peach", "stimulus": "/static/audio/wordpool/PEACH.wav", "conditions": [12, 800, "a", 12000], "internal_node_id": "0.0-94.0", "trial": 3, "time_elapsed": 563537, "serialpos": 1, "key_press": -1, "wordID": 1030, "type": "PRES_AUD", "trial_index": 130}, "uniqueid": "MTK1481:3W8CV64QJ36XNYFL72PIVYKFT22H9J", "dateTime": 1515948924531}, {"current_trial": 131, "trialdata": {"rt": -1000, "trial_type": "single-audio", "word": "coin", "stimulus": "/static/audio/wordpool/COIN.wav", "conditions": [12, 800, "a", 12000], "internal_node_id": "0.0-95.0", "trial": 3, "time_elapsed": 565249, "serialpos": 2, "key_press": -1, "wordID": 342, "type": "PRES_AUD", "trial_index": 131}, "uniqueid": "MTK1481:3W8CV64QJ36XNYFL72PIVYKFT22H9J", "dateTime": 1515948926242}, {"current_trial": 132, "trialdata": {"rt": -1000, "trial_type": "single-audio", "word": "seagull", "stimulus": "/static/audio/wordpool/SEAGULL.wav", "conditions": [12, 800, "a", 12000], "internal_node_id": "0.0-96.0", "trial": 3, "time_elapsed": 566877, "serialpos": 3, "key_press": -1, "wordID": 1260, "type": "PRES_AUD", "trial_index": 132}, "uniqueid": "MTK1481:3W8CV64QJ36XNYFL72PIVYKFT22H9J", "dateTime": 1515948927870}, {"current_trial": 133, "trialdata": {"rt": -1000, "trial_type": "single-audio", "word": "rabbit", "stimulus": "/static/audio/wordpool/RABBIT.wav", "conditions": [12, 800, "a", 12000], "internal_node_id": "0.0-97.0", "trial": 3, "time_elapsed": 568765, "serialpos": 4, "key_press": -1, "wordID": 1151, "type": "PRES_AUD", "trial_index": 133}, "uniqueid": "MTK1481:3W8CV64QJ36XNYFL72PIVYKFT22H9J", "dateTime": 1515948929758}, {"current_trial": 134, "trialdata": {"rt": -1000, "trial_type": "single-audio", "word": "pepper", "stimulus": "/static/audio/wordpool/PEPPER.wav", "conditions": [12, 800, "a", 12000], "internal_node_id": "0.0-98.0", "trial": 3, "time_elapsed": 570760, "serialpos": 5, "key_press": -1, "wordID": 1046, "type": "PRES_AUD", "trial_index": 134}, "uniqueid": "MTK1481:3W8CV64QJ36XNYFL72PIVYKFT22H9J", "dateTime": 1515948931753}, {"current_trial": 135, "trialdata": {"rt": -1000, "trial_type": "single-audio", "word": "waiter", "stimulus": "/static/audio/wordpool/WAITER.wav", "conditions": [12, 800, "a", 12000], "internal_node_id": "0.0-99.0", "trial": 3, "time_elapsed": 572679, "serialpos": 6, "key_press": -1, "wordID": 1579, "type": "PRES_AUD", "trial_index": 135}, "uniqueid": "MTK1481:3W8CV64QJ36XNYFL72PIVYKFT22H9J", "dateTime": 1515948933672}, {"current_trial": 136, "trialdata": {"rt": -1000, "trial_type": "single-audio", "word": "waitress", "stimulus": "/static/audio/wordpool/WAITRESS.wav", "conditions": [12, 800, "a", 12000], "internal_node_id": "0.0-100.0", "trial": 3, "time_elapsed": 574545, "serialpos": 7, "key_press": -1, "wordID": 1580, "type": "PRES_AUD", "trial_index": 136}, "uniqueid": "MTK1481:3W8CV64QJ36XNYFL72PIVYKFT22H9J", "dateTime": 1515948935538}, {"current_trial": 137, "trialdata": {"rt": -1000, "trial_type": "single-audio", "word": "salt", "stimulus": "/static/audio/wordpool/SALT.wav", "conditions": [12, 800, "a", 12000], "internal_node_id": "0.0-101.0", "trial": 3, "time_elapsed": 576269, "serialpos": 8, "key_press": -1, "wordID": 1228, "type": "PRES_AUD", "trial_index": 137}, "uniqueid": "MTK1481:3W8CV64QJ36XNYFL72PIVYKFT22H9J", "dateTime": 1515948937262}, {"current_trial": 138, "trialdata": {"rt": -1000, "trial_type": "single-audio", "word": "bank", "stimulus": "/static/audio/wordpool/BANK.wav", "conditions": [12, 800, "a", 12000], "internal_node_id": "0.0-102.0", "trial": 3, "time_elapsed": 578122, "serialpos": 9, "key_press": -1, "wordID": 82, "type": "PRES_AUD", "trial_index": 138}, "uniqueid": "MTK1481:3W8CV64QJ36XNYFL72PIVYKFT22H9J", "dateTime": 1515948939115}, {"current_trial": 139, "trialdata": {"rt": -1000, "trial_type": "single-audio", "word": "church", "stimulus": "/static/audio/wordpool/CHURCH.wav", "conditions": [12, 800, "a", 12000], "internal_node_id": "0.0-103.0", "trial": 3, "time_elapsed": 579964, "serialpos": 10, "key_press": -1, "wordID": 306, "type": "PRES_AUD", "trial_index": 139}, "uniqueid": "MTK1481:3W8CV64QJ36XNYFL72PIVYKFT22H9J", "dateTime": 1515948940958}, {"current_trial": 140, "trialdata": {"rt": -1000, "trial_type": "single-audio", "word": "expert", "stimulus": "/static/audio/wordpool/EXPERT.wav", "conditions": [12, 800, "a", 12000], "internal_node_id": "0.0-104.0", "trial": 3, "time_elapsed": 581649, "serialpos": 11, "key_press": -1, "wordID": 542, "type": "PRES_AUD", "trial_index": 140}, "uniqueid": "MTK1481:3W8CV64QJ36XNYFL72PIVYKFT22H9J", "dateTime": 1515948942642}, {"current_trial": 141, "trialdata": {"rt": -1, "trial_type": "single-stim", "stimulus": "", "internal_node_id": "0.0-105.0-0.0", "time_elapsed": 582931, "key_press": -1, "type": "PRE_RECALL_DELAY", "trial_index": 141}, "uniqueid": "MTK1481:3W8CV64QJ36XNYFL72PIVYKFT22H9J", "dateTime": 1515948943925}, {"current_trial": 142, "trialdata": {"rt": -1000, "trial_type": "single-audio", "stimulus": "/static/audio/400Hz.wav", "internal_node_id": "0.0-106.0", "time_elapsed": 583438, "key_press": -1, "type": "PRE_RECALL_ALERT", "trial_index": 142}, "uniqueid": "MTK1481:3W8CV64QJ36XNYFL72PIVYKFT22H9J", "dateTime": 1515948944432}, {"current_trial": 143, "trialdata": {"rt": [1846, 2882, 4321, 6051, 7939, 9520, 12027, 14097, 22065, 35512], "recwords": ["expert", "bank", "waiter", "waitress", "salt", "pigeon", "coin", "rabbin", "bank", "pepper"], "key_times": [591, 875, 1076, 1198, 1300, 1485, 1846, 2147, 2351, 2450, 2528, 2882, 3455, 3636, 3810, 3951, 4071, 4172, 4321, 4530, 4711, 4800, 5382, 5534, 5625, 5782, 5926, 6051, 6309, 6471, 6593, 7071, 7233, 7384, 7468, 7599, 7676, 7825, 7939, 8275, 8449, 8669, 8851, 8933, 9046, 9520, 11359, 11488, 11600, 11713, 12027, 12248, 12823, 13011, 13211, 13314, 13406, 14097, 21281, 21444, 21540, 21642, 22065, 34897, 35017, 35138, 35281, 35323, 35417, 35512], "trial_type": "free-recall", "conditions": [12, 800, "a", 12000], "internal_node_id": "0.0-107.0-0.0", "key_presses": [69, 88, 80, 69, 82, 84, 13, 66, 65, 78, 75, 13, 87, 65, 73, 84, 69, 82, 13, 87, 65, 73, 84, 82, 69, 83, 83, 13, 66, 65, 76, 8, 8, 8, 83, 65, 76, 84, 13, 80, 73, 71, 69, 79, 78, 13, 67, 79, 73, 78, 13, 82, 65, 66, 66, 73, 78, 13, 66, 65, 78, 75, 13, 80, 69, 80, 80, 69, 82, 13], "trial": 3, "time_elapsed": 643444, "type": "FREE_RECALL", "trial_index": 143}, "uniqueid": "MTK1481:3W8CV64QJ36XNYFL72PIVYKFT22H9J", "dateTime": 1515949004444}, {"current_trial": 144, "trialdata": {"rt": 1028, "trial_type": "text", "internal_node_id": "0.0-108.0", "time_elapsed": 646480, "key_press": 32, "type": "INSTRUCTIONS", "trial_index": 144}, "uniqueid": "MTK1481:3W8CV64QJ36XNYFL72PIVYKFT22H9J", "dateTime": 1515949007474}, {"current_trial": 145, "trialdata": {"rt": [1697, 4029, 6376, 7978, 9834, 11890], "trial_type": "math-distractor", "key_times": [1396, 1697, 3794, 3892, 4029, 6043, 6271, 6376, 7576, 7759, 7978, 9485, 9625, 9834, 11521, 11769, 11890], "responses": ["7", "13", "12", "18", "17", "16"], "num2": [1, 8, 4, 7, 9, 4, 6], "num3": [4, 2, 7, 8, 4, 9, 8], "conditions": [12, 1600, "a", 12000], "internal_node_id": "0.0-109.0", "key_presses": [55, 13, 49, 51, 13, 49, 50, 13, 49, 56, 13, 49, 55, 13, 49, 54, 13], "trial": 4, "time_elapsed": 660486, "type": "DISTRACTOR", "trial_index": 145, "num1": [2, 3, 1, 3, 4, 3, 6]}, "uniqueid": "MTK1481:3W8CV64QJ36XNYFL72PIVYKFT22H9J", "dateTime": 1515949021479}, {"current_trial": 146, "trialdata": {"rt": -1, "trial_type": "single-stim", "stimulus": "<p id=\"stim\">10</p>", "internal_node_id": "0.0-110.0-0.0", "time_elapsed": 663489, "key_press": -1, "trial_index": 146}, "uniqueid": "MTK1481:3W8CV64QJ36XNYFL72PIVYKFT22H9J", "dateTime": 1515949024483}, {"current_trial": 147, "trialdata": {"rt": -1, "trial_type": "single-stim", "stimulus": "<p id=\"stim\">9</p>", "internal_node_id": "0.0-110.0-1.0", "time_elapsed": 664492, "key_press": -1, "trial_index": 147}, "uniqueid": "MTK1481:3W8CV64QJ36XNYFL72PIVYKFT22H9J", "dateTime": 1515949025485}, {"current_trial": 148, "trialdata": {"rt": -1, "trial_type": "single-stim", "stimulus": "<p id=\"stim\">8</p>", "internal_node_id": "0.0-110.0-2.0", "time_elapsed": 665494, "key_press": -1, "trial_index": 148}, "uniqueid": "MTK1481:3W8CV64QJ36XNYFL72PIVYKFT22H9J", "dateTime": 1515949026487}, {"current_trial": 149, "trialdata": {"rt": -1, "trial_type": "single-stim", "stimulus": "<p id=\"stim\">7</p>", "internal_node_id": "0.0-110.0-3.0", "time_elapsed": 666495, "key_press": -1, "trial_index": 149}, "uniqueid": "MTK1481:3W8CV64QJ36XNYFL72PIVYKFT22H9J", "dateTime": 1515949027489}, {"current_trial": 150, "trialdata": {"rt": -1, "trial_type": "single-stim", "stimulus": "<p id=\"stim\">6</p>", "internal_node_id": "0.0-110.0-4.0", "time_elapsed": 667497, "key_press": -1, "trial_index": 150}, "uniqueid": "MTK1481:3W8CV64QJ36XNYFL72PIVYKFT22H9J", "dateTime": 1515949028491}, {"current_trial": 151, "trialdata": {"rt": -1, "trial_type": "single-stim", "stimulus": "<p id=\"stim\">5</p>", "internal_node_id": "0.0-110.0-5.0", "time_elapsed": 668499, "key_press": -1, "trial_index": 151}, "uniqueid": "MTK1481:3W8CV64QJ36XNYFL72PIVYKFT22H9J", "dateTime": 1515949029493}, {"current_trial": 152, "trialdata": {"rt": -1, "trial_type": "single-stim", "stimulus": "<p id=\"stim\">4</p>", "internal_node_id": "0.0-110.0-6.0", "time_elapsed": 669502, "key_press": -1, "trial_index": 152}, "uniqueid": "MTK1481:3W8CV64QJ36XNYFL72PIVYKFT22H9J", "dateTime": 1515949030495}, {"current_trial": 153, "trialdata": {"rt": -1, "trial_type": "single-stim", "stimulus": "<p id=\"stim\">3</p>", "internal_node_id": "0.0-110.0-7.0", "time_elapsed": 670505, "key_press": -1, "trial_index": 153}, "uniqueid": "MTK1481:3W8CV64QJ36XNYFL72PIVYKFT22H9J", "dateTime": 1515949031498}, {"current_trial": 154, "trialdata": {"rt": -1, "trial_type": "single-stim", "stimulus": "<p id=\"stim\">2</p>", "internal_node_id": "0.0-110.0-8.0", "time_elapsed": 671507, "key_press": -1, "trial_index": 154}, "uniqueid": "MTK1481:3W8CV64QJ36XNYFL72PIVYKFT22H9J", "dateTime": 1515949032500}, {"current_trial": 155, "trialdata": {"rt": -1, "trial_type": "single-stim", "stimulus": "<p id=\"stim\">1</p>", "internal_node_id": "0.0-110.0-9.0", "time_elapsed": 672509, "key_press": -1, "trial_index": 155}, "uniqueid": "MTK1481:3W8CV64QJ36XNYFL72PIVYKFT22H9J", "dateTime": 1515949033502}, {"current_trial": 156, "trialdata": {"rt": -1, "trial_type": "single-stim", "stimulus": "<p id=\"stim\">+</p>", "internal_node_id": "0.0-111.0-0.0", "time_elapsed": 674011, "key_press": -1, "type": "FIXATION", "trial_index": 156}, "uniqueid": "MTK1481:3W8CV64QJ36XNYFL72PIVYKFT22H9J", "dateTime": 1515949035004}, {"current_trial": 157, "trialdata": {"rt": -1000, "trial_type": "single-audio", "word": "sibling", "stimulus": "/static/audio/wordpool/SIBLING.wav", "conditions": [12, 1600, "a", 12000], "internal_node_id": "0.0-112.0", "trial": 4, "time_elapsed": 676705, "serialpos": 0, "key_press": -1, "wordID": 1300, "type": "PRES_AUD", "trial_index": 157}, "uniqueid": "MTK1481:3W8CV64QJ36XNYFL72PIVYKFT22H9J", "dateTime": 1515949037698}, {"current_trial": 158, "trialdata": {"rt": -1000, "trial_type": "single-audio", "word": "dress", "stimulus": "/static/audio/wordpool/DRESS.wav", "conditions": [12, 1600, "a", 12000], "internal_node_id": "0.0-113.0", "trial": 4, "time_elapsed": 679391, "serialpos": 1, "key_press": -1, "wordID": 494, "type": "PRES_AUD", "trial_index": 158}, "uniqueid": "MTK1481:3W8CV64QJ36XNYFL72PIVYKFT22H9J", "dateTime": 1515949040384}, {"current_trial": 159, "trialdata": {"rt": -1000, "trial_type": "single-audio", "word": "student", "stimulus": "/static/audio/wordpool/STUDENT.wav", "conditions": [12, 1600, "a", 12000], "internal_node_id": "0.0-114.0", "trial": 4, "time_elapsed": 681837, "serialpos": 2, "key_press": -1, "wordID": 1394, "type": "PRES_AUD", "trial_index": 159}, "uniqueid": "MTK1481:3W8CV64QJ36XNYFL72PIVYKFT22H9J", "dateTime": 1515949042830}, {"current_trial": 160, "trialdata": {"rt": -1000, "trial_type": "single-audio", "word": "headband", "stimulus": "/static/audio/wordpool/HEADBAND.wav", "conditions": [12, 1600, "a", 12000], "internal_node_id": "0.0-115.0", "trial": 4, "time_elapsed": 684321, "serialpos": 3, "key_press": -1, "wordID": 695, "type": "PRES_AUD", "trial_index": 160}, "uniqueid": "MTK1481:3W8CV64QJ36XNYFL72PIVYKFT22H9J", "dateTime": 1515949045314}, {"current_trial": 161, "trialdata": {"rt": -1000, "trial_type": "single-audio", "word": "blouse", "stimulus": "/static/audio/wordpool/BLOUSE.wav", "conditions": [12, 1600, "a", 12000], "internal_node_id": "0.0-116.0", "trial": 4, "time_elapsed": 686790, "serialpos": 4, "key_press": -1, "wordID": 138, "type": "PRES_AUD", "trial_index": 161}, "uniqueid": "MTK1481:3W8CV64QJ36XNYFL72PIVYKFT22H9J", "dateTime": 1515949047783}, {"current_trial": 162, "trialdata": {"rt": -1000, "trial_type": "single-audio", "word": "husband", "stimulus": "/static/audio/wordpool/HUSBAND.wav", "conditions": [12, 1600, "a", 12000], "internal_node_id": "0.0-117.0", "trial": 4, "time_elapsed": 689359, "serialpos": 5, "key_press": -1, "wordID": 727, "type": "PRES_AUD", "trial_index": 162}, "uniqueid": "MTK1481:3W8CV64QJ36XNYFL72PIVYKFT22H9J", "dateTime": 1515949050352}, {"current_trial": 163, "trialdata": {"rt": -1000, "trial_type": "single-audio", "word": "zebra", "stimulus": "/static/audio/wordpool/ZEBRA.wav", "conditions": [12, 1600, "a", 12000], "internal_node_id": "0.0-118.0", "trial": 4, "time_elapsed": 691844, "serialpos": 6, "key_press": -1, "wordID": 1634, "type": "PRES_AUD", "trial_index": 163}, "uniqueid": "MTK1481:3W8CV64QJ36XNYFL72PIVYKFT22H9J", "dateTime": 1515949052837}, {"current_trial": 164, "trialdata": {"rt": -1000, "trial_type": "single-audio", "word": "orange", "stimulus": "/static/audio/wordpool/ORANGE.wav", "conditions": [12, 1600, "a", 12000], "internal_node_id": "0.0-119.0", "trial": 4, "time_elapsed": 694353, "serialpos": 7, "key_press": -1, "wordID": 979, "type": "PRES_AUD", "trial_index": 164}, "uniqueid": "MTK1481:3W8CV64QJ36XNYFL72PIVYKFT22H9J", "dateTime": 1515949055346}, {"current_trial": 165, "trialdata": {"rt": -1000, "trial_type": "single-audio", "word": "whiskers", "stimulus": "/static/audio/wordpool/WHISKERS.wav", "conditions": [12, 1600, "a", 12000], "internal_node_id": "0.0-120.0", "trial": 4, "time_elapsed": 697031, "serialpos": 8, "key_press": -1, "wordID": 1604, "type": "PRES_AUD", "trial_index": 165}, "uniqueid": "MTK1481:3W8CV64QJ36XNYFL72PIVYKFT22H9J", "dateTime": 1515949058025}, {"current_trial": 166, "trialdata": {"rt": -1000, "trial_type": "single-audio", "word": "lava", "stimulus": "/static/audio/wordpool/LAVA.wav", "conditions": [12, 1600, "a", 12000], "internal_node_id": "0.0-121.0", "trial": 4, "time_elapsed": 699488, "serialpos": 9, "key_press": -1, "wordID": 803, "type": "PRES_AUD", "trial_index": 166}, "uniqueid": "MTK1481:3W8CV64QJ36XNYFL72PIVYKFT22H9J", "dateTime": 1515949060481}, {"current_trial": 167, "trialdata": {"rt": -1000, "trial_type": "single-audio", "word": "crater", "stimulus": "/static/audio/wordpool/CRATER.wav", "conditions": [12, 1600, "a", 12000], "internal_node_id": "0.0-122.0", "trial": 4, "time_elapsed": 701907, "serialpos": 10, "key_press": -1, "wordID": 399, "type": "PRES_AUD", "trial_index": 167}, "uniqueid": "MTK1481:3W8CV64QJ36XNYFL72PIVYKFT22H9J", "dateTime": 1515949062901}, {"current_trial": 168, "trialdata": {"rt": -1000, "trial_type": "single-audio", "word": "supper", "stimulus": "/static/audio/wordpool/SUPPER.wav", "conditions": [12, 1600, "a", 12000], "internal_node_id": "0.0-123.0", "trial": 4, "time_elapsed": 704466, "serialpos": 11, "key_press": -1, "wordID": 1410, "type": "PRES_AUD", "trial_index": 168}, "uniqueid": "MTK1481:3W8CV64QJ36XNYFL72PIVYKFT22H9J", "dateTime": 1515949065459}, {"current_trial": 169, "trialdata": {"rt": -1, "trial_type": "single-stim", "stimulus": "", "internal_node_id": "0.0-124.0-0.0", "time_elapsed": 705718, "key_press": -1, "type": "PRE_RECALL_DELAY", "trial_index": 169}, "uniqueid": "MTK1481:3W8CV64QJ36XNYFL72PIVYKFT22H9J", "dateTime": 1515949066712}, {"current_trial": 170, "trialdata": {"rt": -1000, "trial_type": "single-audio", "stimulus": "/static/audio/400Hz.wav", "internal_node_id": "0.0-125.0", "time_elapsed": 706222, "key_press": -1, "type": "PRE_RECALL_ALERT", "trial_index": 170}, "uniqueid": "MTK1481:3W8CV64QJ36XNYFL72PIVYKFT22H9J", "dateTime": 1515949067216}, {"current_trial": 171, "trialdata": {"rt": [1179, 2401, 3401, 4824, 7423, 11992, 28622, 32196, 34029, 48673, 51852, 53100], "recwords": ["lava", "crater", "supper", "sibling", "blouse", "headband", "dress", "lava", "crater", "husband", "orange", "zebra"], "key_times": [305, 463, 655, 786, 1179, 1480, 1753, 1883, 2014, 2129, 2253, 2401, 2622, 2744, 2905, 3056, 3209, 3261, 3401, 3619, 3745, 3921, 4051, 4134, 4290, 4403, 4824, 6660, 6764, 6950, 7031, 7187, 7250, 7423, 8348, 8460, 8570, 8997, 9129, 9853, 10013, 10107, 10968, 11141, 11255, 11380, 11992, 27520, 27684, 27822, 27995, 28150, 28622, 31737, 31858, 31986, 32110, 32196, 33382, 33515, 33626, 33736, 33834, 33922, 34029, 45177, 45406, 45797, 46010, 46632, 46773, 47207, 47430, 47542, 47822, 48184, 48285, 48371, 48673, 50846, 51020, 51242, 51480, 51601, 51752, 51852, 52127, 52260, 52464, 52844, 52977, 53100], "trial_type": "free-recall", "conditions": [12, 1600, "a", 12000], "internal_node_id": "0.0-126.0-0.0", "key_presses": [76, 65, 86, 65, 13, 67, 82, 65, 84, 69, 82, 13, 83, 85, 80, 80, 69, 82, 13, 83, 73, 66, 76, 73, 78, 71, 13, 66, 76, 79, 85, 83, 69, 13, 72, 69, 65, 65, 68, 8, 8, 68, 66, 65, 78, 68, 13, 68, 82, 69, 83, 83, 13, 76, 65, 86, 65, 13, 67, 82, 65, 84, 69, 82, 13, 72, 89, 8, 85, 8, 83, 8, 85, 83, 66, 65, 78, 68, 13, 79, 82, 65, 78, 71, 69, 13, 90, 69, 66, 82, 65, 13], "trial": 4, "time_elapsed": 766228, "type": "FREE_RECALL", "trial_index": 171}, "uniqueid": "MTK1481:3W8CV64QJ36XNYFL72PIVYKFT22H9J", "dateTime": 1515949127230}, {"current_trial": 172, "trialdata": {"rt": 1875, "trial_type": "text", "internal_node_id": "0.0-127.0", "time_elapsed": 770115, "key_press": 32, "type": "INSTRUCTIONS", "trial_index": 172}, "uniqueid": "MTK1481:3W8CV64QJ36XNYFL72PIVYKFT22H9J", "dateTime": 1515949131108}, {"current_trial": 173, "trialdata": {"rt": [3245, 4698, 6233, 8830, 11390, 13264, 15060, 16989, 19205, 20751], "trial_type": "math-distractor", "key_times": [2824, 2936, 3245, 4429, 4588, 4698, 6044, 6233, 8420, 8561, 8830, 10125, 11237, 11390, 12874, 12961, 13264, 14707, 14862, 15060, 16657, 16776, 16989, 18825, 19036, 19205, 20420, 20540, 20751, 23529, 23740], "responses": ["18", "14", "9", "19", "12", "10", "18", "18", "14", "17"], "num2": [6, 3, 1, 4, 1, 1, 8, 8, 6, 8, 9], "num3": [4, 4, 6, 8, 9, 6, 2, 8, 4, 7, 8], "conditions": [12, 1600, "a", 24000], "internal_node_id": "0.0-128.0", "key_presses": [49, 56, 13, 49, 52, 13, 57, 13, 49, 57, 13, 49, 50, 13, 49, 48, 13, 49, 56, 13, 49, 56, 13, 49, 52, 13, 49, 55, 13, 50, 49], "trial": 5, "time_elapsed": 796120, "type": "DISTRACTOR", "trial_index": 173, "num1": [8, 7, 2, 7, 2, 3, 8, 2, 4, 2, 4]}, "uniqueid": "MTK1481:3W8CV64QJ36XNYFL72PIVYKFT22H9J", "dateTime": 1515949157113}, {"current_trial": 174, "trialdata": {"rt": -1, "trial_type": "single-stim", "stimulus": "<p id=\"stim\">10</p>", "internal_node_id": "0.0-129.0-0.0", "time_elapsed": 799124, "key_press": -1, "trial_index": 174}, "uniqueid": "MTK1481:3W8CV64QJ36XNYFL72PIVYKFT22H9J", "dateTime": 1515949160117}, {"current_trial": 175, "trialdata": {"rt": -1, "trial_type": "single-stim", "stimulus": "<p id=\"stim\">9</p>", "internal_node_id": "0.0-129.0-1.0", "time_elapsed": 800125, "key_press": -1, "trial_index": 175}, "uniqueid": "MTK1481:3W8CV64QJ36XNYFL72PIVYKFT22H9J", "dateTime": 1515949161118}, {"current_trial": 176, "trialdata": {"rt": -1, "trial_type": "single-stim", "stimulus": "<p id=\"stim\">8</p>", "internal_node_id": "0.0-129.0-2.0", "time_elapsed": 801127, "key_press": -1, "trial_index": 176}, "uniqueid": "MTK1481:3W8CV64QJ36XNYFL72PIVYKFT22H9J", "dateTime": 1515949162120}, {"current_trial": 177, "trialdata": {"rt": -1, "trial_type": "single-stim", "stimulus": "<p id=\"stim\">7</p>", "internal_node_id": "0.0-129.0-3.0", "time_elapsed": 802129, "key_press": -1, "trial_index": 177}, "uniqueid": "MTK1481:3W8CV64QJ36XNYFL72PIVYKFT22H9J", "dateTime": 1515949163123}, {"current_trial": 178, "trialdata": {"rt": -1, "trial_type": "single-stim", "stimulus": "<p id=\"stim\">6</p>", "internal_node_id": "0.0-129.0-4.0", "time_elapsed": 803132, "key_press": -1, "trial_index": 178}, "uniqueid": "MTK1481:3W8CV64QJ36XNYFL72PIVYKFT22H9J", "dateTime": 1515949164125}, {"current_trial": 179, "trialdata": {"rt": -1, "trial_type": "single-stim", "stimulus": "<p id=\"stim\">5</p>", "internal_node_id": "0.0-129.0-5.0", "time_elapsed": 804133, "key_press": -1, "trial_index": 179}, "uniqueid": "MTK1481:3W8CV64QJ36XNYFL72PIVYKFT22H9J", "dateTime": 1515949165127}, {"current_trial": 180, "trialdata": {"rt": -1, "trial_type": "single-stim", "stimulus": "<p id=\"stim\">4</p>", "internal_node_id": "0.0-129.0-6.0", "time_elapsed": 805135, "key_press": -1, "trial_index": 180}, "uniqueid": "MTK1481:3W8CV64QJ36XNYFL72PIVYKFT22H9J", "dateTime": 1515949166129}, {"current_trial": 181, "trialdata": {"rt": -1, "trial_type": "single-stim", "stimulus": "<p id=\"stim\">3</p>", "internal_node_id": "0.0-129.0-7.0", "time_elapsed": 806137, "key_press": -1, "trial_index": 181}, "uniqueid": "MTK1481:3W8CV64QJ36XNYFL72PIVYKFT22H9J", "dateTime": 1515949167130}, {"current_trial": 182, "trialdata": {"rt": -1, "trial_type": "single-stim", "stimulus": "<p id=\"stim\">2</p>", "internal_node_id": "0.0-129.0-8.0", "time_elapsed": 807139, "key_press": -1, "trial_index": 182}, "uniqueid": "MTK1481:3W8CV64QJ36XNYFL72PIVYKFT22H9J", "dateTime": 1515949168133}, {"current_trial": 183, "trialdata": {"rt": -1, "trial_type": "single-stim", "stimulus": "<p id=\"stim\">1</p>", "internal_node_id": "0.0-129.0-9.0", "time_elapsed": 808141, "key_press": -1, "trial_index": 183}, "uniqueid": "MTK1481:3W8CV64QJ36XNYFL72PIVYKFT22H9J", "dateTime": 1515949169134}, {"current_trial": 184, "trialdata": {"rt": -1, "trial_type": "single-stim", "stimulus": "<p id=\"stim\">+</p>", "internal_node_id": "0.0-130.0-0.0", "time_elapsed": 809643, "key_press": -1, "type": "FIXATION", "trial_index": 184}, "uniqueid": "MTK1481:3W8CV64QJ36XNYFL72PIVYKFT22H9J", "dateTime": 1515949170636}, {"current_trial": 185, "trialdata": {"rt": -1000, "trial_type": "single-audio", "word": "chemist", "stimulus": "/static/audio/wordpool/CHEMIST.wav", "conditions": [12, 1600, "a", 24000], "internal_node_id": "0.0-131.0", "trial": 5, "time_elapsed": 812265, "serialpos": 0, "key_press": -1, "wordID": 291, "type": "PRES_AUD", "trial_index": 185}, "uniqueid": "MTK1481:3W8CV64QJ36XNYFL72PIVYKFT22H9J", "dateTime": 1515949173258}, {"current_trial": 186, "trialdata": {"rt": -1000, "trial_type": "single-audio", "word": "cupboard", "stimulus": "/static/audio/wordpool/CUPBOARD.wav", "conditions": [12, 1600, "a", 24000], "internal_node_id": "0.0-132.0", "trial": 5, "time_elapsed": 814823, "serialpos": 1, "key_press": -1, "wordID": 424, "type": "PRES_AUD", "trial_index": 186}, "uniqueid": "MTK1481:3W8CV64QJ36XNYFL72PIVYKFT22H9J", "dateTime": 1515949175816}, {"current_trial": 187, "trialdata": {"rt": -1000, "trial_type": "single-audio", "word": "ketchup", "stimulus": "/static/audio/wordpool/KETCHUP.wav", "conditions": [12, 1600, "a", 24000], "internal_node_id": "0.0-133.0", "trial": 5, "time_elapsed": 817290, "serialpos": 2, "key_press": -1, "wordID": 770, "type": "PRES_AUD", "trial_index": 187}, "uniqueid": "MTK1481:3W8CV64QJ36XNYFL72PIVYKFT22H9J", "dateTime": 1515949178283}, {"current_trial": 188, "trialdata": {"rt": -1000, "trial_type": "single-audio", "word": "crib", "stimulus": "/static/audio/wordpool/CRIB.wav", "conditions": [12, 1600, "a", 24000], "internal_node_id": "0.0-134.0", "trial": 5, "time_elapsed": 820060, "serialpos": 3, "key_press": -1, "wordID": 406, "type": "PRES_AUD", "trial_index": 188}, "uniqueid": "MTK1481:3W8CV64QJ36XNYFL72PIVYKFT22H9J", "dateTime": 1515949181053}, {"current_trial": 189, "trialdata": {"rt": -1000, "trial_type": "single-audio", "word": "shovel", "stimulus": "/static/audio/wordpool/SHOVEL.wav", "conditions": [12, 1600, "a", 24000], "internal_node_id": "0.0-135.0", "trial": 5, "time_elapsed": 822560, "serialpos": 4, "key_press": -1, "wordID": 1294, "type": "PRES_AUD", "trial_index": 189}, "uniqueid": "MTK1481:3W8CV64QJ36XNYFL72PIVYKFT22H9J", "dateTime": 1515949183553}, {"current_trial": 190, "trialdata": {"rt": -1000, "trial_type": "single-audio", "word": "rod", "stimulus": "/static/audio/wordpool/ROD.wav", "conditions": [12, 1600, "a", 24000], "internal_node_id": "0.0-136.0", "trial": 5, "time_elapsed": 825004, "serialpos": 5, "key_press": -1, "wordID": 1202, "type": "PRES_AUD", "trial_index": 190}, "uniqueid": "MTK1481:3W8CV64QJ36XNYFL72PIVYKFT22H9J", "dateTime": 1515949186000}, {"current_trial": 191, "trialdata": {"rt": -1000, "trial_type": "single-audio", "word": "spool", "stimulus": "/static/audio/wordpool/SPOOL.wav", "conditions": [12, 1600, "a", 24000], "internal_node_id": "0.0-137.0", "trial": 5, "time_elapsed": 827461, "serialpos": 6, "key_press": -1, "wordID": 1355, "type": "PRES_AUD", "trial_index": 191}, "uniqueid": "MTK1481:3W8CV64QJ36XNYFL72PIVYKFT22H9J", "dateTime": 1515949188454}, {"current_trial": 192, "trialdata": {"rt": -1000, "trial_type": "single-audio", "word": "tractor", "stimulus": "/static/audio/wordpool/TRACTOR.wav", "conditions": [12, 1600, "a", 24000], "internal_node_id": "0.0-138.0", "trial": 5, "time_elapsed": 830093, "serialpos": 7, "key_press": -1, "wordID": 1492, "type": "PRES_AUD", "trial_index": 192}, "uniqueid": "MTK1481:3W8CV64QJ36XNYFL72PIVYKFT22H9J", "dateTime": 1515949191086}, {"current_trial": 193, "trialdata": {"rt": -1000, "trial_type": "single-audio", "word": "laser", "stimulus": "/static/audio/wordpool/LASER.wav", "conditions": [12, 1600, "a", 24000], "internal_node_id": "0.0-139.0", "trial": 5, "time_elapsed": 832532, "serialpos": 8, "key_press": -1, "wordID": 800, "type": "PRES_AUD", "trial_index": 193}, "uniqueid": "MTK1481:3W8CV64QJ36XNYFL72PIVYKFT22H9J", "dateTime": 1515949193525}, {"current_trial": 194, "trialdata": {"rt": -1000, "trial_type": "single-audio", "word": "servant", "stimulus": "/static/audio/wordpool/SERVANT.wav", "conditions": [12, 1600, "a", 24000], "internal_node_id": "0.0-140.0", "trial": 5, "time_elapsed": 835136, "serialpos": 9, "key_press": -1, "wordID": 1270, "type": "PRES_AUD", "trial_index": 194}, "uniqueid": "MTK1481:3W8CV64QJ36XNYFL72PIVYKFT22H9J", "dateTime": 1515949196129}, {"current_trial": 195, "trialdata": {"rt": -1000, "trial_type": "single-audio", "word": "dresser", "stimulus": "/static/audio/wordpool/DRESSER.wav", "conditions": [12, 1600, "a", 24000], "internal_node_id": "0.0-141.0", "trial": 5, "time_elapsed": 837772, "serialpos": 10, "key_press": -1, "wordID": 495, "type": "PRES_AUD", "trial_index": 195}, "uniqueid": "MTK1481:3W8CV64QJ36XNYFL72PIVYKFT22H9J", "dateTime": 1515949198765}, {"current_trial": 196, "trialdata": {"rt": -1000, "trial_type": "single-audio", "word": "maple", "stimulus": "/static/audio/wordpool/MAPLE.wav", "conditions": [12, 1600, "a", 24000], "internal_node_id": "0.0-142.0", "trial": 5, "time_elapsed": 840425, "serialpos": 11, "key_press": -1, "wordID": 865, "type": "PRES_AUD", "trial_index": 196}, "uniqueid": "MTK1481:3W8CV64QJ36XNYFL72PIVYKFT22H9J", "dateTime": 1515949201418}, {"current_trial": 197, "trialdata": {"rt": -1, "trial_type": "single-stim", "stimulus": "", "internal_node_id": "0.0-143.0-0.0", "time_elapsed": 841829, "key_press": -1, "type": "PRE_RECALL_DELAY", "trial_index": 197}, "uniqueid": "MTK1481:3W8CV64QJ36XNYFL72PIVYKFT22H9J", "dateTime": 1515949202822}, {"current_trial": 198, "trialdata": {"rt": -1000, "trial_type": "single-audio", "stimulus": "/static/audio/400Hz.wav", "internal_node_id": "0.0-144.0", "time_elapsed": 842338, "key_press": -1, "type": "PRE_RECALL_ALERT", "trial_index": 198}, "uniqueid": "MTK1481:3W8CV64QJ36XNYFL72PIVYKFT22H9J", "dateTime": 1515949203331}, {"current_trial": 199, "trialdata": {"rt": [746, 2623, 3913, 4953, 6380, 13864, 16106, 17654, 26257], "recwords": ["rod", "spool", "dresser", "maple", "chemist", "cubbard", "ketchup", "crib", "servant"], "key_times": [351, 479, 651, 746, 1716, 1837, 2039, 2201, 2390, 2623, 2985, 3132, 3249, 3401, 3556, 3678, 3761, 3913, 4276, 4449, 4537, 4663, 4835, 4953, 5601, 5663, 5816, 5911, 5991, 6065, 6250, 6380, 6833, 6939, 7124, 7296, 7395, 8210, 8379, 8544, 8704, 10376, 10559, 10710, 10792, 10926, 11056, 12239, 12391, 12623, 12721, 12881, 13044, 13184, 13286, 13350, 13486, 13864, 15048, 15169, 15290, 15493, 15525, 15700, 15833, 16106, 16356, 16530, 16640, 17142, 17654, 24236, 24392, 24924, 25243, 25426, 25549, 25747, 26257], "trial_type": "free-recall", "conditions": [12, 1600, "a", 24000], "internal_node_id": "0.0-145.0-0.0", "key_presses": [82, 79, 68, 32, 83, 80, 79, 79, 76, 13, 68, 82, 69, 83, 83, 69, 82, 13, 77, 65, 80, 76, 69, 13, 67, 72, 69, 77, 73, 83, 84, 13, 67, 85, 66, 66, 79, 8, 8, 8, 8, 85, 66, 66, 79, 82, 68, 8, 8, 65, 82, 8, 8, 8, 65, 82, 68, 13, 75, 69, 84, 67, 72, 85, 80, 13, 67, 82, 73, 66, 13, 83, 69, 82, 86, 65, 78, 84, 13], "trial": 5, "time_elapsed": 902345, "type": "FREE_RECALL", "trial_index": 199}, "uniqueid": "MTK1481:3W8CV64QJ36XNYFL72PIVYKFT22H9J", "dateTime": 1515949263348}, {"current_trial": 200, "trialdata": {"rt": 1004, "trial_type": "text", "internal_node_id": "0.0-146.0", "time_elapsed": 905360, "key_press": 32, "type": "INSTRUCTIONS", "trial_index": 200}, "uniqueid": "MTK1481:3W8CV64QJ36XNYFL72PIVYKFT22H9J", "dateTime": 1515949266354}, {"current_trial": 201, "trialdata": {"rt": [3624, 5483, 8345, 9995, 11554, 13341, 16075, 18118, 21132, 22755], "trial_type": "math-distractor", "key_times": [3004, 3199, 3624, 5169, 5305, 5483, 8029, 8218, 8345, 9690, 9888, 9995, 11282, 11423, 11554, 13008, 13220, 13341, 15786, 15987, 16075, 17685, 17976, 18118, 20523, 20951, 21132, 22374, 22626, 22755], "responses": ["21", "20", "13", "14", "14", "15", "21", "26", "17", "16"], "num2": [8, 9, 6, 4, 1, 9, 5, 9, 4, 6, 3], "num3": [4, 6, 5, 5, 6, 2, 8, 8, 4, 1, 1], "conditions": [12, 1600, "a", 24000], "internal_node_id": "0.0-147.0", "key_presses": [50, 49, 13, 50, 48, 13, 49, 51, 13, 49, 52, 13, 49, 52, 13, 49, 53, 13, 50, 49, 13, 50, 54, 13, 49, 55, 13, 49, 54, 13], "trial": 6, "time_elapsed": 931366, "type": "DISTRACTOR", "trial_index": 201, "num1": [9, 5, 2, 5, 7, 4, 8, 9, 9, 9, 4]}, "uniqueid": "MTK1481:3W8CV64QJ36XNYFL72PIVYKFT22H9J", "dateTime": 1515949292359}, {"current_trial": 202, "trialdata": {"rt": -1, "trial_type": "single-stim", "stimulus": "<p id=\"stim\">10</p>", "internal_node_id": "0.0-148.0-0.0", "time_elapsed": 934369, "key_press": -1, "trial_index": 202}, "uniqueid": "MTK1481:3W8CV64QJ36XNYFL72PIVYKFT22H9J", "dateTime": 1515949295362}, {"current_trial": 203, "trialdata": {"rt": -1, "trial_type": "single-stim", "stimulus": "<p id=\"stim\">9</p>", "internal_node_id": "0.0-148.0-1.0", "time_elapsed": 935371, "key_press": -1, "trial_index": 203}, "uniqueid": "MTK1481:3W8CV64QJ36XNYFL72PIVYKFT22H9J", "dateTime": 1515949296364}, {"current_trial": 204, "trialdata": {"rt": -1, "trial_type": "single-stim", "stimulus": "<p id=\"stim\">8</p>", "internal_node_id": "0.0-148.0-2.0", "time_elapsed": 936373, "key_press": -1, "trial_index": 204}, "uniqueid": "MTK1481:3W8CV64QJ36XNYFL72PIVYKFT22H9J", "dateTime": 1515949297366}, {"current_trial": 205, "trialdata": {"rt": -1, "trial_type": "single-stim", "stimulus": "<p id=\"stim\">7</p>", "internal_node_id": "0.0-148.0-3.0", "time_elapsed": 937375, "key_press": -1, "trial_index": 205}, "uniqueid": "MTK1481:3W8CV64QJ36XNYFL72PIVYKFT22H9J", "dateTime": 1515949298368}, {"current_trial": 206, "trialdata": {"rt": -1, "trial_type": "single-stim", "stimulus": "<p id=\"stim\">6</p>", "internal_node_id": "0.0-148.0-4.0", "time_elapsed": 938377, "key_press": -1, "trial_index": 206}, "uniqueid": "MTK1481:3W8CV64QJ36XNYFL72PIVYKFT22H9J", "dateTime": 1515949299370}, {"current_trial": 207, "trialdata": {"rt": -1, "trial_type": "single-stim", "stimulus": "<p id=\"stim\">5</p>", "internal_node_id": "0.0-148.0-5.0", "time_elapsed": 939379, "key_press": -1, "trial_index": 207}, "uniqueid": "MTK1481:3W8CV64QJ36XNYFL72PIVYKFT22H9J", "dateTime": 1515949300372}, {"current_trial": 208, "trialdata": {"rt": -1, "trial_type": "single-stim", "stimulus": "<p id=\"stim\">4</p>", "internal_node_id": "0.0-148.0-6.0", "time_elapsed": 940383, "key_press": -1, "trial_index": 208}, "uniqueid": "MTK1481:3W8CV64QJ36XNYFL72PIVYKFT22H9J", "dateTime": 1515949301376}, {"current_trial": 209, "trialdata": {"rt": -1, "trial_type": "single-stim", "stimulus": "<p id=\"stim\">3</p>", "internal_node_id": "0.0-148.0-7.0", "time_elapsed": 941386, "key_press": -1, "trial_index": 209}, "uniqueid": "MTK1481:3W8CV64QJ36XNYFL72PIVYKFT22H9J", "dateTime": 1515949302379}, {"current_trial": 210, "trialdata": {"rt": -1, "trial_type": "single-stim", "stimulus": "<p id=\"stim\">2</p>", "internal_node_id": "0.0-148.0-8.0", "time_elapsed": 942388, "key_press": -1, "trial_index": 210}, "uniqueid": "MTK1481:3W8CV64QJ36XNYFL72PIVYKFT22H9J", "dateTime": 1515949303382}, {"current_trial": 211, "trialdata": {"rt": -1, "trial_type": "single-stim", "stimulus": "<p id=\"stim\">1</p>", "internal_node_id": "0.0-148.0-9.0", "time_elapsed": 943391, "key_press": -1, "trial_index": 211}, "uniqueid": "MTK1481:3W8CV64QJ36XNYFL72PIVYKFT22H9J", "dateTime": 1515949304384}, {"current_trial": 212, "trialdata": {"rt": -1, "trial_type": "single-stim", "stimulus": "<p id=\"stim\">+</p>", "internal_node_id": "0.0-149.0-0.0", "time_elapsed": 944894, "key_press": -1, "type": "FIXATION", "trial_index": 212}, "uniqueid": "MTK1481:3W8CV64QJ36XNYFL72PIVYKFT22H9J", "dateTime": 1515949305887}, {"current_trial": 213, "trialdata": {"rt": -1000, "trial_type": "single-audio", "word": "bureau", "stimulus": "/static/audio/wordpool/BUREAU.wav", "conditions": [12, 1600, "a", 24000], "internal_node_id": "0.0-150.0", "trial": 6, "time_elapsed": 947472, "serialpos": 0, "key_press": -1, "wordID": 198, "type": "PRES_AUD", "trial_index": 213}, "uniqueid": "MTK1481:3W8CV64QJ36XNYFL72PIVYKFT22H9J", "dateTime": 1515949308465}, {"current_trial": 214, "trialdata": {"rt": -1000, "trial_type": "single-audio", "word": "scalpel", "stimulus": "/static/audio/wordpool/SCALPEL.wav", "conditions": [12, 1600, "a", 24000], "internal_node_id": "0.0-151.0", "trial": 6, "time_elapsed": 949920, "serialpos": 1, "key_press": -1, "wordID": 1242, "type": "PRES_AUD", "trial_index": 214}, "uniqueid": "MTK1481:3W8CV64QJ36XNYFL72PIVYKFT22H9J", "dateTime": 1515949310914}, {"current_trial": 215, "trialdata": {"rt": -1000, "trial_type": "single-audio", "word": "witness", "stimulus": "/static/audio/wordpool/WITNESS.wav", "conditions": [12, 1600, "a", 24000], "internal_node_id": "0.0-152.0", "trial": 6, "time_elapsed": 952419, "serialpos": 2, "key_press": -1, "wordID": 1617, "type": "PRES_AUD", "trial_index": 215}, "uniqueid": "MTK1481:3W8CV64QJ36XNYFL72PIVYKFT22H9J", "dateTime": 1515949313412}, {"current_trial": 216, "trialdata": {"rt": -1000, "trial_type": "single-audio", "word": "lover", "stimulus": "/static/audio/wordpool/LOVER.wav", "conditions": [12, 1600, "a", 24000], "internal_node_id": "0.0-153.0", "trial": 6, "time_elapsed": 954935, "serialpos": 3, "key_press": -1, "wordID": 845, "type": "PRES_AUD", "trial_index": 216}, "uniqueid": "MTK1481:3W8CV64QJ36XNYFL72PIVYKFT22H9J", "dateTime": 1515949315928}, {"current_trial": 217, "trialdata": {"rt": -1000, "trial_type": "single-audio", "word": "friend", "stimulus": "/static/audio/wordpool/FRIEND.wav", "conditions": [12, 1600, "a", 24000], "internal_node_id": "0.0-154.0", "trial": 6, "time_elapsed": 957420, "serialpos": 4, "key_press": -1, "wordID": 605, "type": "PRES_AUD", "trial_index": 217}, "uniqueid": "MTK1481:3W8CV64QJ36XNYFL72PIVYKFT22H9J", "dateTime": 1515949318413}, {"current_trial": 218, "trialdata": {"rt": -1000, "trial_type": "single-audio", "word": "picture", "stimulus": "/static/audio/wordpool/PICTURE.wav", "conditions": [12, 1600, "a", 24000], "internal_node_id": "0.0-155.0", "trial": 6, "time_elapsed": 960201, "serialpos": 5, "key_press": -1, "wordID": 1060, "type": "PRES_AUD", "trial_index": 218}, "uniqueid": "MTK1481:3W8CV64QJ36XNYFL72PIVYKFT22H9J", "dateTime": 1515949321196}, {"current_trial": 219, "trialdata": {"rt": -1000, "trial_type": "single-audio", "word": "slide", "stimulus": "/static/audio/wordpool/SLIDE.wav", "conditions": [12, 1600, "a", 24000], "internal_node_id": "0.0-156.0", "trial": 6, "time_elapsed": 962999, "serialpos": 6, "key_press": -1, "wordID": 1325, "type": "PRES_AUD", "trial_index": 219}, "uniqueid": "MTK1481:3W8CV64QJ36XNYFL72PIVYKFT22H9J", "dateTime": 1515949323992}, {"current_trial": 220, "trialdata": {"rt": -1000, "trial_type": "single-audio", "word": "mask", "stimulus": "/static/audio/wordpool/MASK.wav", "conditions": [12, 1600, "a", 24000], "internal_node_id": "0.0-157.0", "trial": 6, "time_elapsed": 965474, "serialpos": 7, "key_press": -1, "wordID": 875, "type": "PRES_AUD", "trial_index": 220}, "uniqueid": "MTK1481:3W8CV64QJ36XNYFL72PIVYKFT22H9J", "dateTime": 1515949326468}, {"current_trial": 221, "trialdata": {"rt": -1000, "trial_type": "single-audio", "word": "scissors", "stimulus": "/static/audio/wordpool/SCISSORS.wav", "conditions": [12, 1600, "a", 24000], "internal_node_id": "0.0-158.0", "trial": 6, "time_elapsed": 968032, "serialpos": 8, "key_press": -1, "wordID": 1249, "type": "PRES_AUD", "trial_index": 221}, "uniqueid": "MTK1481:3W8CV64QJ36XNYFL72PIVYKFT22H9J", "dateTime": 1515949329025}, {"current_trial": 222, "trialdata": {"rt": -1000, "trial_type": "single-audio", "word": "cousin", "stimulus": "/static/audio/wordpool/COUSIN.wav", "conditions": [12, 1600, "a", 24000], "internal_node_id": "0.0-159.0", "trial": 6, "time_elapsed": 970590, "serialpos": 9, "key_press": -1, "wordID": 391, "type": "PRES_AUD", "trial_index": 222}, "uniqueid": "MTK1481:3W8CV64QJ36XNYFL72PIVYKFT22H9J", "dateTime": 1515949331583}, {"current_trial": 223, "trialdata": {"rt": -1000, "trial_type": "single-audio", "word": "citrus", "stimulus": "/static/audio/wordpool/CITRUS.wav", "conditions": [12, 1600, "a", 24000], "internal_node_id": "0.0-160.0", "trial": 6, "time_elapsed": 973272, "serialpos": 10, "key_press": -1, "wordID": 312, "type": "PRES_AUD", "trial_index": 223}, "uniqueid": "MTK1481:3W8CV64QJ36XNYFL72PIVYKFT22H9J", "dateTime": 1515949334265}, {"current_trial": 224, "trialdata": {"rt": -1000, "trial_type": "single-audio", "word": "lace", "stimulus": "/static/audio/wordpool/LACE.wav", "conditions": [12, 1600, "a", 24000], "internal_node_id": "0.0-161.0", "trial": 6, "time_elapsed": 975739, "serialpos": 11, "key_press": -1, "wordID": 791, "type": "PRES_AUD", "trial_index": 224}, "uniqueid": "MTK1481:3W8CV64QJ36XNYFL72PIVYKFT22H9J", "dateTime": 1515949336732}, {"current_trial": 225, "trialdata": {"rt": -1, "trial_type": "single-stim", "stimulus": "", "internal_node_id": "0.0-162.0-0.0", "time_elapsed": 977140, "key_press": -1, "type": "PRE_RECALL_DELAY", "trial_index": 225}, "uniqueid": "MTK1481:3W8CV64QJ36XNYFL72PIVYKFT22H9J", "dateTime": 1515949338133}, {"current_trial": 226, "trialdata": {"rt": -1000, "trial_type": "single-audio", "stimulus": "/static/audio/400Hz.wav", "internal_node_id": "0.0-163.0", "time_elapsed": 977642, "key_press": -1, "type": "PRE_RECALL_ALERT", "trial_index": 226}, "uniqueid": "MTK1481:3W8CV64QJ36XNYFL72PIVYKFT22H9J", "dateTime": 1515949338636}, {"current_trial": 227, "trialdata": {"rt": [1432, 3287, 4117, 9013, 11009, 14457, 15837, 18964, 20629, 27066], "recwords": ["cousin", "citrus", "lace", "bureau", "scalpel", "friend", "lover", "picture", "slide", "mask"], "key_times": [385, 626, 728, 923, 995, 1113, 1432, 2017, 2318, 2469, 2550, 2736, 2912, 3021, 3155, 3287, 3534, 3599, 3757, 4008, 4117, 5402, 5609, 5775, 5970, 6088, 6642, 6803, 6977, 7119, 7271, 7374, 7484, 7815, 7907, 8158, 8277, 9013, 9384, 9562, 9731, 9842, 10169, 10304, 10422, 11009, 13689, 13872, 13966, 14060, 14157, 14302, 14457, 14728, 14925, 15042, 15234, 15341, 15837, 17873, 17969, 18065, 18223, 18319, 18399, 18514, 18964, 19659, 19746, 19815, 19936, 20134, 20629, 25963, 26101, 26186, 26305, 27066], "trial_type": "free-recall", "conditions": [12, 1600, "a", 24000], "internal_node_id": "0.0-164.0-0.0", "key_presses": [67, 79, 85, 83, 73, 78, 13, 83, 8, 67, 73, 84, 82, 85, 83, 13, 76, 65, 67, 69, 13, 66, 79, 85, 82, 69, 8, 8, 8, 8, 85, 82, 79, 8, 69, 65, 85, 13, 83, 67, 65, 76, 80, 69, 76, 13, 70, 82, 73, 69, 78, 68, 13, 76, 79, 86, 69, 82, 13, 80, 73, 67, 84, 85, 82, 69, 13, 83, 76, 73, 68, 69, 13, 77, 65, 83, 75, 13], "trial": 6, "time_elapsed": 1037648, "type": "FREE_RECALL", "trial_index": 227}, "uniqueid": "MTK1481:3W8CV64QJ36XNYFL72PIVYKFT22H9J", "dateTime": 1515949398655}, {"current_trial": 228, "trialdata": {"rt": 1744, "trial_type": "text", "internal_node_id": "0.0-165.0", "time_elapsed": 1041408, "key_press": 32, "type": "INSTRUCTIONS", "trial_index": 228}, "uniqueid": "MTK1481:3W8CV64QJ36XNYFL72PIVYKFT22H9J", "dateTime": 1515949402401}, {"current_trial": 229, "trialdata": {"rt": [4643, 6129, 8057, 10017, 11367, 13224, 15245, 21945], "trial_type": "math-distractor", "key_times": [3362, 3494, 4643, 5717, 5948, 6129, 7753, 7909, 8057, 9732, 9895, 10017, 11208, 11367, 12741, 12973, 13224, 14908, 15111, 15245, 17304, 17455, 18880, 19092, 21454, 21567, 21945, 23829], "responses": ["23", "17", "19", "23", "4", "17", "21", "17"], "num2": [8, 5, 4, 8, 2, 4, 7, 4, 3], "num3": [6, 5, 7, 9, 1, 6, 8, 4, 9], "conditions": [24, 1600, "a", 24000], "internal_node_id": "0.0-166.0", "key_presses": [50, 51, 13, 49, 55, 13, 49, 57, 13, 50, 51, 13, 52, 13, 49, 55, 13, 50, 49, 13, 49, 55, 8, 8, 49, 55, 13, 50], "trial": 7, "time_elapsed": 1067415, "type": "DISTRACTOR", "trial_index": 229, "num1": [9, 7, 8, 5, 1, 7, 6, 9, 9]}, "uniqueid": "MTK1481:3W8CV64QJ36XNYFL72PIVYKFT22H9J", "dateTime": 1515949428408}, {"current_trial": 230, "trialdata": {"rt": -1, "trial_type": "single-stim", "stimulus": "<p id=\"stim\">10</p>", "internal_node_id": "0.0-167.0-0.0", "time_elapsed": 1070418, "key_press": -1, "trial_index": 230}, "uniqueid": "MTK1481:3W8CV64QJ36XNYFL72PIVYKFT22H9J", "dateTime": 1515949431411}, {"current_trial": 231, "trialdata": {"rt": -1, "trial_type": "single-stim", "stimulus": "<p id=\"stim\">9</p>", "internal_node_id": "0.0-167.0-1.0", "time_elapsed": 1071420, "key_press": -1, "trial_index": 231}, "uniqueid": "MTK1481:3W8CV64QJ36XNYFL72PIVYKFT22H9J", "dateTime": 1515949432413}, {"current_trial": 232, "trialdata": {"rt": -1, "trial_type": "single-stim", "stimulus": "<p id=\"stim\">8</p>", "internal_node_id": "0.0-167.0-2.0", "time_elapsed": 1072421, "key_press": -1, "trial_index": 232}, "uniqueid": "MTK1481:3W8CV64QJ36XNYFL72PIVYKFT22H9J", "dateTime": 1515949433415}, {"current_trial": 233, "trialdata": {"rt": -1, "trial_type": "single-stim", "stimulus": "<p id=\"stim\">7</p>", "internal_node_id": "0.0-167.0-3.0", "time_elapsed": 1073423, "key_press": -1, "trial_index": 233}, "uniqueid": "MTK1481:3W8CV64QJ36XNYFL72PIVYKFT22H9J", "dateTime": 1515949434416}, {"current_trial": 234, "trialdata": {"rt": -1, "trial_type": "single-stim", "stimulus": "<p id=\"stim\">6</p>", "internal_node_id": "0.0-167.0-4.0", "time_elapsed": 1074425, "key_press": -1, "trial_index": 234}, "uniqueid": "MTK1481:3W8CV64QJ36XNYFL72PIVYKFT22H9J", "dateTime": 1515949435418}, {"current_trial": 235, "trialdata": {"rt": -1, "trial_type": "single-stim", "stimulus": "<p id=\"stim\">5</p>", "internal_node_id": "0.0-167.0-5.0", "time_elapsed": 1075427, "key_press": -1, "trial_index": 235}, "uniqueid": "MTK1481:3W8CV64QJ36XNYFL72PIVYKFT22H9J", "dateTime": 1515949436420}, {"current_trial": 236, "trialdata": {"rt": -1, "trial_type": "single-stim", "stimulus": "<p id=\"stim\">4</p>", "internal_node_id": "0.0-167.0-6.0", "time_elapsed": 1076429, "key_press": -1, "trial_index": 236}, "uniqueid": "MTK1481:3W8CV64QJ36XNYFL72PIVYKFT22H9J", "dateTime": 1515949437422}, {"current_trial": 237, "trialdata": {"rt": -1, "trial_type": "single-stim", "stimulus": "<p id=\"stim\">3</p>", "internal_node_id": "0.0-167.0-7.0", "time_elapsed": 1077431, "key_press": -1, "trial_index": 237}, "uniqueid": "MTK1481:3W8CV64QJ36XNYFL72PIVYKFT22H9J", "dateTime": 1515949438424}, {"current_trial": 238, "trialdata": {"rt": -1, "trial_type": "single-stim", "stimulus": "<p id=\"stim\">2</p>", "inte