{"assignmentId": "34V1S5K3GT8HQ9V4BJYEY7VPLUX69V", "workerId": "MTK1617", "questiondata": {"avail_screen_height": 760, "color_depth": 24, "screen_width": 1280, "pixel_depth": 24, "avail_screen_width": 1280, "screen_height": 800}, "bonus": 0, "hitId": "3XUY87HIVPLWZC1WX64Y352BTMJMMD", "counterbalance": 914, "useragent": "Mozilla/5.0 (Windows NT 6.1) AppleWebKit/537.36 (KHTML, like Gecko) Chrome/63.0.3239.132 Safari/537.36", "eventdata": [{"eventtype": "initialized", "interval": 0, "value": null, "timestamp": 1516051689690}, {"eventtype": "window_resize", "interval": 0, "value": [1280, 754], "timestamp": 1516051689690}, {"eventtype": "focus", "interval": 24135, "value": "off", "timestamp": 1516051713825}, {"eventtype": "focus", "interval": 386, "value": "on", "timestamp": 1516051714211}, {"eventtype": "focus", "interval": 11896, "value": "off", "timestamp": 1516051726107}, {"eventtype": "focus", "interval": 46286, "value": "on", "timestamp": 1516051772393}, {"eventtype": "focus", "interval": 2743854, "value": "off", "timestamp": 1516054516247}, {"eventtype": "focus", "interval": 5138, "value": "on", "timestamp": 1516054521385}], "data": [{"current_trial": 0, "trialdata": {"rt": 60600, "trial_type": "text", "internal_node_id": "0.0-0.0", "time_elapsed": 60602, "key_press": 32, "type": "INSTRUCTIONS", "trial_index": 0}, "uniqueid": "MTK1617:34V1S5K3GT8HQ9V4BJYEY7VPLUX69V", "dateTime": 1516051781364}, {"current_trial": 1, "trialdata": {"rt": 38494, "trial_type": "text", "internal_node_id": "0.0-1.0", "time_elapsed": 99099, "key_press": 32, "type": "INSTRUCTIONS", "trial_index": 1}, "uniqueid": "MTK1617:34V1S5K3GT8HQ9V4BJYEY7VPLUX69V", "dateTime": 1516051819859}, {"current_trial": 2, "trialdata": {"rt": [11032], "trial_type": "audio-test", "responses": ["ocean"], "internal_node_id": "0.0-2.0", "time_elapsed": 110163, "type": "AUDIO_TEST", "trial_index": 2}, "uniqueid": "MTK1617:34V1S5K3GT8HQ9V4BJYEY7VPLUX69V", "dateTime": 1516051830923}, {"current_trial": 3, "trialdata": {"rt": [15591], "trial_type": "audio-test", "responses": ["crystal"], "internal_node_id": "0.0-3.0", "time_elapsed": 125764, "type": "AUDIO_TEST", "trial_index": 3}, "uniqueid": "MTK1617:34V1S5K3GT8HQ9V4BJYEY7VPLUX69V", "dateTime": 1516051846524}, {"current_trial": 4, "trialdata": {"rt": [19430], "trial_type": "audio-test", "responses": ["spice"], "internal_node_id": "0.0-4.0", "time_elapsed": 145203, "type": "AUDIO_TEST", "trial_index": 4}, "uniqueid": "MTK1617:34V1S5K3GT8HQ9V4BJYEY7VPLUX69V", "dateTime": 1516051865963}, {"current_trial": 5, "trialdata": {"rt": 20850, "trial_type": "survey-text", "responses": "{\"Q0\":\"10\",\"Q1\":\"6\",\"Q2\":\"VERY\"}", "internal_node_id": "0.0-5.0", "time_elapsed": 166808, "type": "SLEEP_SURVEY", "trial_index": 5}, "uniqueid": "MTK1617:34V1S5K3GT8HQ9V4BJYEY7VPLUX69V", "dateTime": 1516051887568}, {"current_trial": 6, "trialdata": {"rt": 30416, "trial_type": "text", "internal_node_id": "0.0-6.0", "time_elapsed": 198226, "key_press": 13, "type": "INSTRUCTIONS", "trial_index": 6}, "uniqueid": "MTK1617:34V1S5K3GT8HQ9V4BJYEY7VPLUX69V", "dateTime": 1516051918986}, {"current_trial": 7, "trialdata": {"rt": 19967, "trial_type": "text", "internal_node_id": "0.0-7.0", "time_elapsed": 218695, "key_press": 13, "type": "INSTRUCTIONS", "trial_index": 7}, "uniqueid": "MTK1617:34V1S5K3GT8HQ9V4BJYEY7VPLUX69V", "dateTime": 1516051939455}, {"current_trial": 8, "trialdata": {"rt": 16693, "trial_type": "text", "internal_node_id": "0.0-8.0", "time_elapsed": 235890, "key_press": 13, "type": "INSTRUCTIONS", "trial_index": 8}, "uniqueid": "MTK1617:34V1S5K3GT8HQ9V4BJYEY7VPLUX69V", "dateTime": 1516051956650}, {"current_trial": 9, "trialdata": {"rt": [5390, 9140, 13329, 17886], "trial_type": "math-distractor", "key_times": [2869, 4040, 5390, 8092, 8274, 9140, 12024, 12815, 13329, 16054, 17256, 17886], "responses": ["18", "12", "18", "15"], "num2": [7, 1, 9, 3, 9], "num3": [8, 2, 4, 9, 2], "conditions": [18, 1200, "a", 18000], "internal_node_id": "0.0-9.0", "key_presses": [49, 56, 13, 49, 50, 13, 49, 56, 13, 49, 53, 13], "trial": 0, "time_elapsed": 254900, "type": "DISTRACTOR", "trial_index": 9, "num1": [3, 9, 5, 2, 9]}, "uniqueid": "MTK1617:34V1S5K3GT8HQ9V4BJYEY7VPLUX69V", "dateTime": 1516051975660}, {"current_trial": 10, "trialdata": {"rt": -1, "trial_type": "single-stim", "stimulus": "<p id=\"stim\">10</p>", "internal_node_id": "0.0-10.0-0.0", "time_elapsed": 257904, "key_press": -1, "trial_index": 10}, "uniqueid": "MTK1617:34V1S5K3GT8HQ9V4BJYEY7VPLUX69V", "dateTime": 1516051978664}, {"current_trial": 11, "trialdata": {"rt": -1, "trial_type": "single-stim", "stimulus": "<p id=\"stim\">9</p>", "internal_node_id": "0.0-10.0-1.0", "time_elapsed": 258905, "key_press": -1, "trial_index": 11}, "uniqueid": "MTK1617:34V1S5K3GT8HQ9V4BJYEY7VPLUX69V", "dateTime": 1516051979666}, {"current_trial": 12, "trialdata": {"rt": -1, "trial_type": "single-stim", "stimulus": "<p id=\"stim\">8</p>", "internal_node_id": "0.0-10.0-2.0", "time_elapsed": 259907, "key_press": -1, "trial_index": 12}, "uniqueid": "MTK1617:34V1S5K3GT8HQ9V4BJYEY7VPLUX69V", "dateTime": 1516051980667}, {"current_trial": 13, "trialdata": {"rt": -1, "trial_type": "single-stim", "stimulus": "<p id=\"stim\">7</p>", "internal_node_id": "0.0-10.0-3.0", "time_elapsed": 260909, "key_press": -1, "trial_index": 13}, "uniqueid": "MTK1617:34V1S5K3GT8HQ9V4BJYEY7VPLUX69V", "dateTime": 1516051981669}, {"current_trial": 14, "trialdata": {"rt": -1, "trial_type": "single-stim", "stimulus": "<p id=\"stim\">6</p>", "internal_node_id": "0.0-10.0-4.0", "time_elapsed": 261911, "key_press": -1, "trial_index": 14}, "uniqueid": "MTK1617:34V1S5K3GT8HQ9V4BJYEY7VPLUX69V", "dateTime": 1516051982671}, {"current_trial": 15, "trialdata": {"rt": -1, "trial_type": "single-stim", "stimulus": "<p id=\"stim\">5</p>", "internal_node_id": "0.0-10.0-5.0", "time_elapsed": 262913, "key_press": -1, "trial_index": 15}, "uniqueid": "MTK1617:34V1S5K3GT8HQ9V4BJYEY7VPLUX69V", "dateTime": 1516051983673}, {"current_trial": 16, "trialdata": {"rt": -1, "trial_type": "single-stim", "stimulus": "<p id=\"stim\">4</p>", "internal_node_id": "0.0-10.0-6.0", "time_elapsed": 263915, "key_press": -1, "trial_index": 16}, "uniqueid": "MTK1617:34V1S5K3GT8HQ9V4BJYEY7VPLUX69V", "dateTime": 1516051984675}, {"current_trial": 17, "trialdata": {"rt": -1, "trial_type": "single-stim", "stimulus": "<p id=\"stim\">3</p>", "internal_node_id": "0.0-10.0-7.0", "time_elapsed": 264917, "key_press": -1, "trial_index": 17}, "uniqueid": "MTK1617:34V1S5K3GT8HQ9V4BJYEY7VPLUX69V", "dateTime": 1516051985677}, {"current_trial": 18, "trialdata": {"rt": -1, "trial_type": "single-stim", "stimulus": "<p id=\"stim\">2</p>", "internal_node_id": "0.0-10.0-8.0", "time_elapsed": 265920, "key_press": -1, "trial_index": 18}, "uniqueid": "MTK1617:34V1S5K3GT8HQ9V4BJYEY7VPLUX69V", "dateTime": 1516051986680}, {"current_trial": 19, "trialdata": {"rt": -1, "trial_type": "single-stim", "stimulus": "<p id=\"stim\">1</p>", "internal_node_id": "0.0-10.0-9.0", "time_elapsed": 266922, "key_press": -1, "trial_index": 19}, "uniqueid": "MTK1617:34V1S5K3GT8HQ9V4BJYEY7VPLUX69V", "dateTime": 1516051987682}, {"current_trial": 20, "trialdata": {"rt": -1, "trial_type": "single-stim", "stimulus": "<p id=\"stim\">+</p>", "internal_node_id": "0.0-11.0-0.0", "time_elapsed": 268424, "key_press": -1, "type": "FIXATION", "trial_index": 20}, "uniqueid": "MTK1617:34V1S5K3GT8HQ9V4BJYEY7VPLUX69V", "dateTime": 1516051989184}, {"current_trial": 21, "trialdata": {"rt": -1000, "trial_type": "single-audio", "word": "monster", "stimulus": "/static/audio/wordpool/MONSTER.wav", "conditions": [18, 1200, "a", 18000], "internal_node_id": "0.0-12.0", "trial": 0, "time_elapsed": 270487, "serialpos": 0, "key_press": -1, "wordID": 911, "type": "PRES_AUD", "trial_index": 21}, "uniqueid": "MTK1617:34V1S5K3GT8HQ9V4BJYEY7VPLUX69V", "dateTime": 1516051991247}, {"current_trial": 22, "trialdata": {"rt": -1000, "trial_type": "single-audio", "word": "shark", "stimulus": "/static/audio/wordpool/SHARK.wav", "conditions": [18, 1200, "a", 18000], "internal_node_id": "0.0-13.0", "trial": 0, "time_elapsed": 272505, "serialpos": 1, "key_press": -1, "wordID": 1274, "type": "PRES_AUD", "trial_index": 22}, "uniqueid": "MTK1617:34V1S5K3GT8HQ9V4BJYEY7VPLUX69V", "dateTime": 1516051993265}, {"current_trial": 23, "trialdata": {"rt": -1000, "trial_type": "single-audio", "word": "lover", "stimulus": "/static/audio/wordpool/LOVER.wav", "conditions": [18, 1200, "a", 18000], "internal_node_id": "0.0-14.0", "trial": 0, "time_elapsed": 274845, "serialpos": 2, "key_press": -1, "wordID": 845, "type": "PRES_AUD", "trial_index": 23}, "uniqueid": "MTK1617:34V1S5K3GT8HQ9V4BJYEY7VPLUX69V", "dateTime": 1516051995605}, {"current_trial": 24, "trialdata": {"rt": -1000, "trial_type": "single-audio", "word": "napkin", "stimulus": "/static/audio/wordpool/NAPKIN.wav", "conditions": [18, 1200, "a", 18000], "internal_node_id": "0.0-15.0", "trial": 0, "time_elapsed": 276881, "serialpos": 3, "key_press": -1, "wordID": 936, "type": "PRES_AUD", "trial_index": 24}, "uniqueid": "MTK1617:34V1S5K3GT8HQ9V4BJYEY7VPLUX69V", "dateTime": 1516051997641}, {"current_trial": 25, "trialdata": {"rt": -1000, "trial_type": "single-audio", "word": "pigeon", "stimulus": "/static/audio/wordpool/PIGEON.wav", "conditions": [18, 1200, "a", 18000], "internal_node_id": "0.0-16.0", "trial": 0, "time_elapsed": 279170, "serialpos": 4, "key_press": -1, "wordID": 1064, "type": "PRES_AUD", "trial_index": 25}, "uniqueid": "MTK1617:34V1S5K3GT8HQ9V4BJYEY7VPLUX69V", "dateTime": 1516051999930}, {"current_trial": 26, "trialdata": {"rt": -1000, "trial_type": "single-audio", "word": "fragrance", "stimulus": "/static/audio/wordpool/FRAGRANCE.wav", "conditions": [18, 1200, "a", 18000], "internal_node_id": "0.0-17.0", "trial": 0, "time_elapsed": 281451, "serialpos": 5, "key_press": -1, "wordID": 598, "type": "PRES_AUD", "trial_index": 26}, "uniqueid": "MTK1617:34V1S5K3GT8HQ9V4BJYEY7VPLUX69V", "dateTime": 1516052002211}, {"current_trial": 27, "trialdata": {"rt": -1000, "trial_type": "single-audio", "word": "receipt", "stimulus": "/static/audio/wordpool/RECEIPT.wav", "conditions": [18, 1200, "a", 18000], "internal_node_id": "0.0-18.0", "trial": 0, "time_elapsed": 283588, "serialpos": 6, "key_press": -1, "wordID": 1172, "type": "PRES_AUD", "trial_index": 27}, "uniqueid": "MTK1617:34V1S5K3GT8HQ9V4BJYEY7VPLUX69V", "dateTime": 1516052004348}, {"current_trial": 28, "trialdata": {"rt": -1000, "trial_type": "single-audio", "word": "stone", "stimulus": "/static/audio/wordpool/STONE.wav", "conditions": [18, 1200, "a", 18000], "internal_node_id": "0.0-19.0", "trial": 0, "time_elapsed": 285889, "serialpos": 7, "key_press": -1, "wordID": 1384, "type": "PRES_AUD", "trial_index": 28}, "uniqueid": "MTK1617:34V1S5K3GT8HQ9V4BJYEY7VPLUX69V", "dateTime": 1516052006649}, {"current_trial": 29, "trialdata": {"rt": -1000, "trial_type": "single-audio", "word": "scissors", "stimulus": "/static/audio/wordpool/SCISSORS.wav", "conditions": [18, 1200, "a", 18000], "internal_node_id": "0.0-20.0", "trial": 0, "time_elapsed": 288180, "serialpos": 8, "key_press": -1, "wordID": 1249, "type": "PRES_AUD", "trial_index": 29}, "uniqueid": "MTK1617:34V1S5K3GT8HQ9V4BJYEY7VPLUX69V", "dateTime": 1516052008940}, {"current_trial": 30, "trialdata": {"rt": -1000, "trial_type": "single-audio", "word": "baby", "stimulus": "/static/audio/wordpool/BABY.wav", "conditions": [18, 1200, "a", 18000], "internal_node_id": "0.0-21.0", "trial": 0, "time_elapsed": 290562, "serialpos": 9, "key_press": -1, "wordID": 63, "type": "PRES_AUD", "trial_index": 30}, "uniqueid": "MTK1617:34V1S5K3GT8HQ9V4BJYEY7VPLUX69V", "dateTime": 1516052011323}, {"current_trial": 31, "trialdata": {"rt": -1000, "trial_type": "single-audio", "word": "wrench", "stimulus": "/static/audio/wordpool/WRENCH.wav", "conditions": [18, 1200, "a", 18000], "internal_node_id": "0.0-22.0", "trial": 0, "time_elapsed": 292596, "serialpos": 10, "key_press": -1, "wordID": 1624, "type": "PRES_AUD", "trial_index": 31}, "uniqueid": "MTK1617:34V1S5K3GT8HQ9V4BJYEY7VPLUX69V", "dateTime": 1516052013356}, {"current_trial": 32, "trialdata": {"rt": -1000, "trial_type": "single-audio", "word": "elbow", "stimulus": "/static/audio/wordpool/ELBOW.wav", "conditions": [18, 1200, "a", 18000], "internal_node_id": "0.0-23.0", "trial": 0, "time_elapsed": 294602, "serialpos": 11, "key_press": -1, "wordID": 519, "type": "PRES_AUD", "trial_index": 32}, "uniqueid": "MTK1617:34V1S5K3GT8HQ9V4BJYEY7VPLUX69V", "dateTime": 1516052015362}, {"current_trial": 33, "trialdata": {"rt": -1000, "trial_type": "single-audio", "word": "lion", "stimulus": "/static/audio/wordpool/LION.wav", "conditions": [18, 1200, "a", 18000], "internal_node_id": "0.0-24.0", "trial": 0, "time_elapsed": 296650, "serialpos": 12, "key_press": -1, "wordID": 826, "type": "PRES_AUD", "trial_index": 33}, "uniqueid": "MTK1617:34V1S5K3GT8HQ9V4BJYEY7VPLUX69V", "dateTime": 1516052017410}, {"current_trial": 34, "trialdata": {"rt": -1000, "trial_type": "single-audio", "word": "rebel", "stimulus": "/static/audio/wordpool/REBEL.wav", "conditions": [18, 1200, "a", 18000], "internal_node_id": "0.0-25.0", "trial": 0, "time_elapsed": 298748, "serialpos": 13, "key_press": -1, "wordID": 1171, "type": "PRES_AUD", "trial_index": 34}, "uniqueid": "MTK1617:34V1S5K3GT8HQ9V4BJYEY7VPLUX69V", "dateTime": 1516052019508}, {"current_trial": 35, "trialdata": {"rt": -1000, "trial_type": "single-audio", "word": "plaid", "stimulus": "/static/audio/wordpool/PLAID.wav", "conditions": [18, 1200, "a", 18000], "internal_node_id": "0.0-26.0", "trial": 0, "time_elapsed": 301096, "serialpos": 14, "key_press": -1, "wordID": 1079, "type": "PRES_AUD", "trial_index": 35}, "uniqueid": "MTK1617:34V1S5K3GT8HQ9V4BJYEY7VPLUX69V", "dateTime": 1516052021856}, {"current_trial": 36, "trialdata": {"rt": -1000, "trial_type": "single-audio", "word": "butcher", "stimulus": "/static/audio/wordpool/BUTCHER.wav", "conditions": [18, 1200, "a", 18000], "internal_node_id": "0.0-27.0", "trial": 0, "time_elapsed": 303259, "serialpos": 15, "key_press": -1, "wordID": 202, "type": "PRES_AUD", "trial_index": 36}, "uniqueid": "MTK1617:34V1S5K3GT8HQ9V4BJYEY7VPLUX69V", "dateTime": 1516052024019}, {"current_trial": 37, "trialdata": {"rt": -1000, "trial_type": "single-audio", "word": "permit", "stimulus": "/static/audio/wordpool/PERMIT.wav", "conditions": [18, 1200, "a", 18000], "internal_node_id": "0.0-28.0", "trial": 0, "time_elapsed": 305348, "serialpos": 16, "key_press": -1, "wordID": 1050, "type": "PRES_AUD", "trial_index": 37}, "uniqueid": "MTK1617:34V1S5K3GT8HQ9V4BJYEY7VPLUX69V", "dateTime": 1516052026108}, {"current_trial": 38, "trialdata": {"rt": -1000, "trial_type": "single-audio", "word": "report", "stimulus": "/static/audio/wordpool/REPORT.wav", "conditions": [18, 1200, "a", 18000], "internal_node_id": "0.0-29.0", "trial": 0, "time_elapsed": 307446, "serialpos": 17, "key_press": -1, "wordID": 1183, "type": "PRES_AUD", "trial_index": 38}, "uniqueid": "MTK1617:34V1S5K3GT8HQ9V4BJYEY7VPLUX69V", "dateTime": 1516052028206}, {"current_trial": 39, "trialdata": {"rt": -1, "trial_type": "single-stim", "stimulus": "", "internal_node_id": "0.0-30.0-0.0", "time_elapsed": 308675, "key_press": -1, "type": "PRE_RECALL_DELAY", "trial_index": 39}, "uniqueid": "MTK1617:34V1S5K3GT8HQ9V4BJYEY7VPLUX69V", "dateTime": 1516052029435}, {"current_trial": 40, "trialdata": {"rt": -1000, "trial_type": "single-audio", "stimulus": "/static/audio/400Hz.wav", "internal_node_id": "0.0-31.0", "time_elapsed": 309177, "key_press": -1, "type": "PRE_RECALL_ALERT", "trial_index": 40}, "uniqueid": "MTK1617:34V1S5K3GT8HQ9V4BJYEY7VPLUX69V", "dateTime": 1516052029937}, {"current_trial": 41, "trialdata": {"rt": [6029, 6228, 9706, 14537, 20039, 24676, 28611, 34231, 38625, 42260, 52037, 57663], "recwords": ["report", "", "lion", "quack", "butcher", "baby", "scissors", "chicken", "napkin", "shark", "monster", "don't"], "key_times": [3211, 3408, 4080, 4359, 4858, 5040, 6029, 6228, 8645, 8910, 9057, 9383, 9706, 11534, 12192, 12599, 13407, 14003, 14537, 16974, 17523, 17894, 18774, 19172, 19506, 19680, 20039, 22954, 23371, 23863, 24264, 24676, 25548, 25995, 26593, 27008, 27180, 27652, 28010, 28275, 28611, 31278, 31879, 32186, 32673, 33135, 33523, 33968, 34231, 36282, 36684, 37328, 37929, 38139, 38354, 38625, 40097, 40515, 40843, 41353, 41989, 42260, 43663, 44768, 47460, 48006, 49846, 50403, 50769, 51038, 51194, 52037, 55483, 56063, 56343, 56851, 57361, 57663], "trial_type": "free-recall", "conditions": [18, 1200, "a", 18000], "internal_node_id": "0.0-32.0-0.0", "key_presses": [82, 69, 80, 79, 82, 84, 188, 32, 76, 73, 79, 78, 32, 81, 85, 65, 67, 75, 13, 66, 85, 84, 67, 72, 69, 82, 32, 66, 65, 66, 89, 32, 83, 67, 73, 83, 83, 79, 82, 83, 32, 67, 72, 73, 67, 75, 69, 78, 32, 78, 65, 80, 75, 73, 78, 32, 83, 72, 65, 82, 75, 32, 78, 37, 77, 79, 39, 83, 84, 69, 82, 13, 68, 79, 78, 222, 84, 32], "trial": 0, "time_elapsed": 369183, "type": "FREE_RECALL", "trial_index": 41}, "uniqueid": "MTK1617:34V1S5K3GT8HQ9V4BJYEY7VPLUX69V", "dateTime": 1516052089948}, {"current_trial": 42, "trialdata": {"rt": 19, "trial_type": "text", "internal_node_id": "0.0-33.0", "time_elapsed": 371207, "key_press": 79, "type": "INSTRUCTIONS", "trial_index": 42}, "uniqueid": "MTK1617:34V1S5K3GT8HQ9V4BJYEY7VPLUX69V", "dateTime": 1516052091967}, {"current_trial": 43, "trialdata": {"rt": [4307, 7570, 12159, 15049], "trial_type": "math-distractor", "key_times": [3430, 3601, 4307, 6743, 6926, 7570, 10418, 11611, 12159, 14253, 14418, 15049, 17767], "responses": ["12", "12", "18", "11"], "num2": [6, 1, 7, 7, 7], "num3": [5, 3, 9, 3, 4], "conditions": [18, 1200, "a", 18000], "internal_node_id": "0.0-34.0", "key_presses": [49, 50, 13, 49, 50, 13, 49, 56, 13, 49, 49, 13, 50], "trial": 1, "time_elapsed": 391212, "type": "DISTRACTOR", "trial_index": 43, "num1": [1, 8, 2, 1, 9]}, "uniqueid": "MTK1617:34V1S5K3GT8HQ9V4BJYEY7VPLUX69V", "dateTime": 1516052111972}, {"current_trial": 44, "trialdata": {"rt": -1, "trial_type": "single-stim", "stimulus": "<p id=\"stim\">10</p>", "internal_node_id": "0.0-35.0-0.0", "time_elapsed": 394214, "key_press": -1, "trial_index": 44}, "uniqueid": "MTK1617:34V1S5K3GT8HQ9V4BJYEY7VPLUX69V", "dateTime": 1516052114974}, {"current_trial": 45, "trialdata": {"rt": -1, "trial_type": "single-stim", "stimulus": "<p id=\"stim\">9</p>", "internal_node_id": "0.0-35.0-1.0", "time_elapsed": 395216, "key_press": -1, "trial_index": 45}, "uniqueid": "MTK1617:34V1S5K3GT8HQ9V4BJYEY7VPLUX69V", "dateTime": 1516052115976}, {"current_trial": 46, "trialdata": {"rt": -1, "trial_type": "single-stim", "stimulus": "<p id=\"stim\">8</p>", "internal_node_id": "0.0-35.0-2.0", "time_elapsed": 396217, "key_press": -1, "trial_index": 46}, "uniqueid": "MTK1617:34V1S5K3GT8HQ9V4BJYEY7VPLUX69V", "dateTime": 1516052116978}, {"current_trial": 47, "trialdata": {"rt": -1, "trial_type": "single-stim", "stimulus": "<p id=\"stim\">7</p>", "internal_node_id": "0.0-35.0-3.0", "time_elapsed": 397218, "key_press": -1, "trial_index": 47}, "uniqueid": "MTK1617:34V1S5K3GT8HQ9V4BJYEY7VPLUX69V", "dateTime": 1516052117979}, {"current_trial": 48, "trialdata": {"rt": -1, "trial_type": "single-stim", "stimulus": "<p id=\"stim\">6</p>", "internal_node_id": "0.0-35.0-4.0", "time_elapsed": 398219, "key_press": -1, "trial_index": 48}, "uniqueid": "MTK1617:34V1S5K3GT8HQ9V4BJYEY7VPLUX69V", "dateTime": 1516052118980}, {"current_trial": 49, "trialdata": {"rt": -1, "trial_type": "single-stim", "stimulus": "<p id=\"stim\">5</p>", "internal_node_id": "0.0-35.0-5.0", "time_elapsed": 399221, "key_press": -1, "trial_index": 49}, "uniqueid": "MTK1617:34V1S5K3GT8HQ9V4BJYEY7VPLUX69V", "dateTime": 1516052119981}, {"current_trial": 50, "trialdata": {"rt": -1, "trial_type": "single-stim", "stimulus": "<p id=\"stim\">4</p>", "internal_node_id": "0.0-35.0-6.0", "time_elapsed": 400223, "key_press": -1, "trial_index": 50}, "uniqueid": "MTK1617:34V1S5K3GT8HQ9V4BJYEY7VPLUX69V", "dateTime": 1516052120983}, {"current_trial": 51, "trialdata": {"rt": -1, "trial_type": "single-stim", "stimulus": "<p id=\"stim\">3</p>", "internal_node_id": "0.0-35.0-7.0", "time_elapsed": 401225, "key_press": -1, "trial_index": 51}, "uniqueid": "MTK1617:34V1S5K3GT8HQ9V4BJYEY7VPLUX69V", "dateTime": 1516052121985}, {"current_trial": 52, "trialdata": {"rt": -1, "trial_type": "single-stim", "stimulus": "<p id=\"stim\">2</p>", "internal_node_id": "0.0-35.0-8.0", "time_elapsed": 402226, "key_press": -1, "trial_index": 52}, "uniqueid": "MTK1617:34V1S5K3GT8HQ9V4BJYEY7VPLUX69V", "dateTime": 1516052122986}, {"current_trial": 53, "trialdata": {"rt": -1, "trial_type": "single-stim", "stimulus": "<p id=\"stim\">1</p>", "internal_node_id": "0.0-35.0-9.0", "time_elapsed": 403228, "key_press": -1, "trial_index": 53}, "uniqueid": "MTK1617:34V1S5K3GT8HQ9V4BJYEY7VPLUX69V", "dateTime": 1516052123990}, {"current_trial": 54, "trialdata": {"rt": -1, "trial_type": "single-stim", "stimulus": "<p id=\"stim\">+</p>", "internal_node_id": "0.0-36.0-0.0", "time_elapsed": 404739, "key_press": -1, "type": "FIXATION", "trial_index": 54}, "uniqueid": "MTK1617:34V1S5K3GT8HQ9V4BJYEY7VPLUX69V", "dateTime": 1516052125499}, {"current_trial": 55, "trialdata": {"rt": -1000, "trial_type": "single-audio", "word": "pliers", "stimulus": "/static/audio/wordpool/PLIERS.wav", "conditions": [18, 1200, "a", 18000], "internal_node_id": "0.0-37.0", "trial": 1, "time_elapsed": 407011, "serialpos": 0, "key_press": -1, "wordID": 1088, "type": "PRES_AUD", "trial_index": 55}, "uniqueid": "MTK1617:34V1S5K3GT8HQ9V4BJYEY7VPLUX69V", "dateTime": 1516052127771}, {"current_trial": 56, "trialdata": {"rt": -1000, "trial_type": "single-audio", "word": "bouquet", "stimulus": "/static/audio/wordpool/BOUQUET.wav", "conditions": [18, 1200, "a", 18000], "internal_node_id": "0.0-38.0", "trial": 1, "time_elapsed": 409057, "serialpos": 1, "key_press": -1, "wordID": 156, "type": "PRES_AUD", "trial_index": 56}, "uniqueid": "MTK1617:34V1S5K3GT8HQ9V4BJYEY7VPLUX69V", "dateTime": 1516052129817}, {"current_trial": 57, "trialdata": {"rt": -1000, "trial_type": "single-audio", "word": "suitcase", "stimulus": "/static/audio/wordpool/SUITCASE.wav", "conditions": [18, 1200, "a", 18000], "internal_node_id": "0.0-39.0", "trial": 1, "time_elapsed": 411398, "serialpos": 2, "key_press": -1, "wordID": 1402, "type": "PRES_AUD", "trial_index": 57}, "uniqueid": "MTK1617:34V1S5K3GT8HQ9V4BJYEY7VPLUX69V", "dateTime": 1516052132158}, {"current_trial": 58, "trialdata": {"rt": -1000, "trial_type": "single-audio", "word": "bucket", "stimulus": "/static/audio/wordpool/BUCKET.wav", "conditions": [18, 1200, "a", 18000], "internal_node_id": "0.0-40.0", "trial": 1, "time_elapsed": 413622, "serialpos": 3, "key_press": -1, "wordID": 183, "type": "PRES_AUD", "trial_index": 58}, "uniqueid": "MTK1617:34V1S5K3GT8HQ9V4BJYEY7VPLUX69V", "dateTime": 1516052134382}, {"current_trial": 59, "trialdata": {"rt": -1000, "trial_type": "single-audio", "word": "knapsack", "stimulus": "/static/audio/wordpool/KNAPSACK.wav", "conditions": [18, 1200, "a", 18000], "internal_node_id": "0.0-41.0", "trial": 1, "time_elapsed": 415709, "serialpos": 4, "key_press": -1, "wordID": 782, "type": "PRES_AUD", "trial_index": 59}, "uniqueid": "MTK1617:34V1S5K3GT8HQ9V4BJYEY7VPLUX69V", "dateTime": 1516052136469}, {"current_trial": 60, "trialdata": {"rt": -1000, "trial_type": "single-audio", "word": "ghetto", "stimulus": "/static/audio/wordpool/GHETTO.wav", "conditions": [18, 1200, "a", 18000], "internal_node_id": "0.0-42.0", "trial": 1, "time_elapsed": 417807, "serialpos": 5, "key_press": -1, "wordID": 632, "type": "PRES_AUD", "trial_index": 60}, "uniqueid": "MTK1617:34V1S5K3GT8HQ9V4BJYEY7VPLUX69V", "dateTime": 1516052138567}, {"current_trial": 61, "trialdata": {"rt": -1000, "trial_type": "single-audio", "word": "hook", "stimulus": "/static/audio/wordpool/HOOK.wav", "conditions": [18, 1200, "a", 18000], "internal_node_id": "0.0-43.0", "trial": 1, "time_elapsed": 419968, "serialpos": 6, "key_press": -1, "wordID": 714, "type": "PRES_AUD", "trial_index": 61}, "uniqueid": "MTK1617:34V1S5K3GT8HQ9V4BJYEY7VPLUX69V", "dateTime": 1516052140728}, {"current_trial": 62, "trialdata": {"rt": -1000, "trial_type": "single-audio", "word": "fiddle", "stimulus": "/static/audio/wordpool/FIDDLE.wav", "conditions": [18, 1200, "a", 18000], "internal_node_id": "0.0-44.0", "trial": 1, "time_elapsed": 422357, "serialpos": 7, "key_press": -1, "wordID": 560, "type": "PRES_AUD", "trial_index": 62}, "uniqueid": "MTK1617:34V1S5K3GT8HQ9V4BJYEY7VPLUX69V", "dateTime": 1516052143117}, {"current_trial": 63, "trialdata": {"rt": -1000, "trial_type": "single-audio", "word": "partner", "stimulus": "/static/audio/wordpool/PARTNER.wav", "conditions": [18, 1200, "a", 18000], "internal_node_id": "0.0-45.0", "trial": 1, "time_elapsed": 424393, "serialpos": 8, "key_press": -1, "wordID": 1016, "type": "PRES_AUD", "trial_index": 63}, "uniqueid": "MTK1617:34V1S5K3GT8HQ9V4BJYEY7VPLUX69V", "dateTime": 1516052145154}, {"current_trial": 64, "trialdata": {"rt": -1000, "trial_type": "single-audio", "word": "milk", "stimulus": "/static/audio/wordpool/MILK.wav", "conditions": [18, 1200, "a", 18000], "internal_node_id": "0.0-46.0", "trial": 1, "time_elapsed": 426566, "serialpos": 9, "key_press": -1, "wordID": 894, "type": "PRES_AUD", "trial_index": 64}, "uniqueid": "MTK1617:34V1S5K3GT8HQ9V4BJYEY7VPLUX69V", "dateTime": 1516052147326}, {"current_trial": 65, "trialdata": {"rt": -1000, "trial_type": "single-audio", "word": "keeper", "stimulus": "/static/audio/wordpool/KEEPER.wav", "conditions": [18, 1200, "a", 18000], "internal_node_id": "0.0-47.0", "trial": 1, "time_elapsed": 428617, "serialpos": 10, "key_press": -1, "wordID": 768, "type": "PRES_AUD", "trial_index": 65}, "uniqueid": "MTK1617:34V1S5K3GT8HQ9V4BJYEY7VPLUX69V", "dateTime": 1516052149377}, {"current_trial": 66, "trialdata": {"rt": -1000, "trial_type": "single-audio", "word": "spoon", "stimulus": "/static/audio/wordpool/SPOON.wav", "conditions": [18, 1200, "a", 18000], "internal_node_id": "0.0-48.0", "trial": 1, "time_elapsed": 431004, "serialpos": 11, "key_press": -1, "wordID": 1356, "type": "PRES_AUD", "trial_index": 66}, "uniqueid": "MTK1617:34V1S5K3GT8HQ9V4BJYEY7VPLUX69V", "dateTime": 1516052151764}, {"current_trial": 67, "trialdata": {"rt": -1000, "trial_type": "single-audio", "word": "mummy", "stimulus": "/static/audio/wordpool/MUMMY.wav", "conditions": [18, 1200, "a", 18000], "internal_node_id": "0.0-49.0", "trial": 1, "time_elapsed": 433226, "serialpos": 12, "key_press": -1, "wordID": 931, "type": "PRES_AUD", "trial_index": 67}, "uniqueid": "MTK1617:34V1S5K3GT8HQ9V4BJYEY7VPLUX69V", "dateTime": 1516052153986}, {"current_trial": 68, "trialdata": {"rt": -1000, "trial_type": "single-audio", "word": "princess", "stimulus": "/static/audio/wordpool/PRINCESS.wav", "conditions": [18, 1200, "a", 18000], "internal_node_id": "0.0-50.0", "trial": 1, "time_elapsed": 435569, "serialpos": 13, "key_press": -1, "wordID": 1124, "type": "PRES_AUD", "trial_index": 68}, "uniqueid": "MTK1617:34V1S5K3GT8HQ9V4BJYEY7VPLUX69V", "dateTime": 1516052156332}, {"current_trial": 69, "trialdata": {"rt": -1000, "trial_type": "single-audio", "word": "velvet", "stimulus": "/static/audio/wordpool/VELVET.wav", "conditions": [18, 1200, "a", 18000], "internal_node_id": "0.0-51.0", "trial": 1, "time_elapsed": 437784, "serialpos": 14, "key_press": -1, "wordID": 1554, "type": "PRES_AUD", "trial_index": 69}, "uniqueid": "MTK1617:34V1S5K3GT8HQ9V4BJYEY7VPLUX69V", "dateTime": 1516052158544}, {"current_trial": 70, "trialdata": {"rt": -1000, "trial_type": "single-audio", "word": "barley", "stimulus": "/static/audio/wordpool/BARLEY.wav", "conditions": [18, 1200, "a", 18000], "internal_node_id": "0.0-52.0", "trial": 1, "time_elapsed": 440141, "serialpos": 15, "key_press": -1, "wordID": 87, "type": "PRES_AUD", "trial_index": 70}, "uniqueid": "MTK1617:34V1S5K3GT8HQ9V4BJYEY7VPLUX69V", "dateTime": 1516052160901}, {"current_trial": 71, "trialdata": {"rt": -1000, "trial_type": "single-audio", "word": "atom", "stimulus": "/static/audio/wordpool/ATOM.wav", "conditions": [18, 1200, "a", 18000], "internal_node_id": "0.0-53.0", "trial": 1, "time_elapsed": 442449, "serialpos": 16, "key_press": -1, "wordID": 54, "type": "PRES_AUD", "trial_index": 71}, "uniqueid": "MTK1617:34V1S5K3GT8HQ9V4BJYEY7VPLUX69V", "dateTime": 1516052163209}, {"current_trial": 72, "trialdata": {"rt": -1000, "trial_type": "single-audio", "word": "soda", "stimulus": "/static/audio/wordpool/SODA.wav", "conditions": [18, 1200, "a", 18000], "internal_node_id": "0.0-54.0", "trial": 1, "time_elapsed": 444681, "serialpos": 17, "key_press": -1, "wordID": 1340, "type": "PRES_AUD", "trial_index": 72}, "uniqueid": "MTK1617:34V1S5K3GT8HQ9V4BJYEY7VPLUX69V", "dateTime": 1516052165441}, {"current_trial": 73, "trialdata": {"rt": -1, "trial_type": "single-stim", "stimulus": "", "internal_node_id": "0.0-55.0-0.0", "time_elapsed": 445977, "key_press": -1, "type": "PRE_RECALL_DELAY", "trial_index": 73}, "uniqueid": "MTK1617:34V1S5K3GT8HQ9V4BJYEY7VPLUX69V", "dateTime": 1516052166737}, {"current_trial": 74, "trialdata": {"rt": -1000, "trial_type": "single-audio", "stimulus": "/static/audio/400Hz.wav", "internal_node_id": "0.0-56.0", "time_elapsed": 446480, "key_press": -1, "type": "PRE_RECALL_ALERT", "trial_index": 74}, "uniqueid": "MTK1617:34V1S5K3GT8HQ9V4BJYEY7VPLUX69V", "dateTime": 1516052167240}, {"current_trial": 75, "trialdata": {"rt": [4393, 10390, 14881, 20681, 24605, 28522, 36440, 40410, 44359, 52147, 58627], "recwords": ["flyer", "bouquet", "suitcase", "ghetto", "soda", "keeper", "fiddle", "milk", "book", "bucket", "velvet"], "key_times": [2253, 2830, 3421, 3810, 3988, 4393, 7326, 7848, 8154, 8744, 9289, 9672, 10038, 10390, 12113, 12634, 12804, 13112, 13555, 13864, 14067, 14463, 14881, 18697, 19040, 19434, 19810, 19965, 20414, 20681, 22387, 22943, 23961, 24245, 24605, 26355, 26771, 26925, 27492, 27957, 28159, 28522, 29895, 30367, 30806, 30958, 31399, 32379, 33918, 34772, 36025, 36440, 38870, 39260, 39700, 39899, 40410, 43105, 43638, 43788, 44019, 44359, 46992, 47497, 47874, 48333, 49287, 49690, 50320, 50591, 51237, 52147, 55995, 56356, 57260, 57671, 58034, 58246, 58627], "trial_type": "free-recall", "conditions": [18, 1200, "a", 18000], "internal_node_id": "0.0-57.0-0.0", "key_presses": [70, 76, 89, 69, 82, 32, 66, 79, 85, 81, 85, 69, 84, 32, 83, 85, 73, 84, 67, 65, 83, 69, 32, 71, 72, 69, 84, 84, 79, 32, 83, 79, 68, 65, 32, 75, 69, 69, 80, 69, 82, 32, 70, 73, 68, 68, 75, 37, 76, 69, 46, 13, 77, 73, 76, 75, 13, 66, 79, 79, 75, 32, 66, 85, 67, 74, 37, 75, 69, 84, 46, 13, 86, 69, 76, 86, 69, 84, 32], "trial": 1, "time_elapsed": 506486, "type": "FREE_RECALL", "trial_index": 75}, "uniqueid": "MTK1617:34V1S5K3GT8HQ9V4BJYEY7VPLUX69V", "dateTime": 1516052227251}, {"current_trial": 76, "trialdata": {"rt": 2864, "trial_type": "text", "internal_node_id": "0.0-58.0", "time_elapsed": 511356, "key_press": 13, "type": "INSTRUCTIONS", "trial_index": 76}, "uniqueid": "MTK1617:34V1S5K3GT8HQ9V4BJYEY7VPLUX69V", "dateTime": 1516052232117}, {"current_trial": 77, "trialdata": {"rt": [2552, 5208, 8775], "trial_type": "math-distractor", "key_times": [2072, 2552, 4629, 5208, 7688, 8278, 8775, 10343, 11365], "responses": ["9", "8", "18"], "num2": [2, 1, 9, 4], "num3": [2, 6, 6, 3], "conditions": [24, 800, "a", 12000], "internal_node_id": "0.0-59.0", "key_presses": [57, 13, 56, 13, 49, 56, 13, 49, 53], "trial": 2, "time_elapsed": 524361, "type": "DISTRACTOR", "trial_index": 77, "num1": [5, 1, 3, 8]}, "uniqueid": "MTK1617:34V1S5K3GT8HQ9V4BJYEY7VPLUX69V", "dateTime": 1516052245121}, {"current_trial": 78, "trialdata": {"rt": -1, "trial_type": "single-stim", "stimulus": "<p id=\"stim\">10</p>", "internal_node_id": "0.0-60.0-0.0", "time_elapsed": 527364, "key_press": -1, "trial_index": 78}, "uniqueid": "MTK1617:34V1S5K3GT8HQ9V4BJYEY7VPLUX69V", "dateTime": 1516052248124}, {"current_trial": 79, "trialdata": {"rt": -1, "trial_type": "single-stim", "stimulus": "<p id=\"stim\">9</p>", "internal_node_id": "0.0-60.0-1.0", "time_elapsed": 528365, "key_press": -1, "trial_index": 79}, "uniqueid": "MTK1617:34V1S5K3GT8HQ9V4BJYEY7VPLUX69V", "dateTime": 1516052249125}, {"current_trial": 80, "trialdata": {"rt": -1, "trial_type": "single-stim", "stimulus": "<p id=\"stim\">8</p>", "internal_node_id": "0.0-60.0-2.0", "time_elapsed": 529367, "key_press": -1, "trial_index": 80}, "uniqueid": "MTK1617:34V1S5K3GT8HQ9V4BJYEY7VPLUX69V", "dateTime": 1516052250127}, {"current_trial": 81, "trialdata": {"rt": -1, "trial_type": "single-stim", "stimulus": "<p id=\"stim\">7</p>", "internal_node_id": "0.0-60.0-3.0", "time_elapsed": 530369, "key_press": -1, "trial_index": 81}, "uniqueid": "MTK1617:34V1S5K3GT8HQ9V4BJYEY7VPLUX69V", "dateTime": 1516052251129}, {"current_trial": 82, "trialdata": {"rt": -1, "trial_type": "single-stim", "stimulus": "<p id=\"stim\">6</p>", "internal_node_id": "0.0-60.0-4.0", "time_elapsed": 531370, "key_press": -1, "trial_index": 82}, "uniqueid": "MTK1617:34V1S5K3GT8HQ9V4BJYEY7VPLUX69V", "dateTime": 1516052252130}, {"current_trial": 83, "trialdata": {"rt": -1, "trial_type": "single-stim", "stimulus": "<p id=\"stim\">5</p>", "internal_node_id": "0.0-60.0-5.0", "time_elapsed": 532372, "key_press": -1, "trial_index": 83}, "uniqueid": "MTK1617:34V1S5K3GT8HQ9V4BJYEY7VPLUX69V", "dateTime": 1516052253132}, {"current_trial": 84, "trialdata": {"rt": -1, "trial_type": "single-stim", "stimulus": "<p id=\"stim\">4</p>", "internal_node_id": "0.0-60.0-6.0", "time_elapsed": 533373, "key_press": -1, "trial_index": 84}, "uniqueid": "MTK1617:34V1S5K3GT8HQ9V4BJYEY7VPLUX69V", "dateTime": 1516052254133}, {"current_trial": 85, "trialdata": {"rt": -1, "trial_type": "single-stim", "stimulus": "<p id=\"stim\">3</p>", "internal_node_id": "0.0-60.0-7.0", "time_elapsed": 534375, "key_press": -1, "trial_index": 85}, "uniqueid": "MTK1617:34V1S5K3GT8HQ9V4BJYEY7VPLUX69V", "dateTime": 1516052255135}, {"current_trial": 86, "trialdata": {"rt": -1, "trial_type": "single-stim", "stimulus": "<p id=\"stim\">2</p>", "internal_node_id": "0.0-60.0-8.0", "time_elapsed": 535377, "key_press": -1, "trial_index": 86}, "uniqueid": "MTK1617:34V1S5K3GT8HQ9V4BJYEY7VPLUX69V", "dateTime": 1516052256137}, {"current_trial": 87, "trialdata": {"rt": -1, "trial_type": "single-stim", "stimulus": "<p id=\"stim\">1</p>", "internal_node_id": "0.0-60.0-9.0", "time_elapsed": 536378, "key_press": -1, "trial_index": 87}, "uniqueid": "MTK1617:34V1S5K3GT8HQ9V4BJYEY7VPLUX69V", "dateTime": 1516052257138}, {"current_trial": 88, "trialdata": {"rt": -1, "trial_type": "single-stim", "stimulus": "<p id=\"stim\">+</p>", "internal_node_id": "0.0-61.0-0.0", "time_elapsed": 537879, "key_press": -1, "type": "FIXATION", "trial_index": 88}, "uniqueid": "MTK1617:34V1S5K3GT8HQ9V4BJYEY7VPLUX69V", "dateTime": 1516052258640}, {"current_trial": 89, "trialdata": {"rt": -1000, "trial_type": "single-audio", "word": "whistle", "stimulus": "/static/audio/wordpool/WHISTLE.wav", "conditions": [24, 800, "a", 12000], "internal_node_id": "0.0-62.0", "trial": 2, "time_elapsed": 539617, "serialpos": 0, "key_press": -1, "wordID": 1605, "type": "PRES_AUD", "trial_index": 89}, "uniqueid": "MTK1617:34V1S5K3GT8HQ9V4BJYEY7VPLUX69V", "dateTime": 1516052260377}, {"current_trial": 90, "trialdata": {"rt": -1000, "trial_type": "single-audio", "word": "twig", "stimulus": "/static/audio/wordpool/TWIG.wav", "conditions": [24, 800, "a", 12000], "internal_node_id": "0.0-63.0", "trial": 2, "time_elapsed": 541438, "serialpos": 1, "key_press": -1, "wordID": 1526, "type": "PRES_AUD", "trial_index": 90}, "uniqueid": "MTK1617:34V1S5K3GT8HQ9V4BJYEY7VPLUX69V", "dateTime": 1516052262198}, {"current_trial": 91, "trialdata": {"rt": -1000, "trial_type": "single-audio", "word": "headband", "stimulus": "/static/audio/wordpool/HEADBAND.wav", "conditions": [24, 800, "a", 12000], "internal_node_id": "0.0-64.0", "trial": 2, "time_elapsed": 543338, "serialpos": 2, "key_press": -1, "wordID": 695, "type": "PRES_AUD", "trial_index": 91}, "uniqueid": "MTK1617:34V1S5K3GT8HQ9V4BJYEY7VPLUX69V", "dateTime": 1516052264098}, {"current_trial": 92, "trialdata": {"rt": -1000, "trial_type": "single-audio", "word": "shirt", "stimulus": "/static/audio/wordpool/SHIRT.wav", "conditions": [24, 800, "a", 12000], "internal_node_id": "0.0-65.0", "trial": 2, "time_elapsed": 544998, "serialpos": 3, "key_press": -1, "wordID": 1286, "type": "PRES_AUD", "trial_index": 92}, "uniqueid": "MTK1617:34V1S5K3GT8HQ9V4BJYEY7VPLUX69V", "dateTime": 1516052265759}, {"current_trial": 93, "trialdata": {"rt": -1000, "trial_type": "single-audio", "word": "typist", "stimulus": "/static/audio/wordpool/TYPIST.wav", "conditions": [24, 800, "a", 12000], "internal_node_id": "0.0-66.0", "trial": 2, "time_elapsed": 546767, "serialpos": 4, "key_press": -1, "wordID": 1531, "type": "PRES_AUD", "trial_index": 93}, "uniqueid": "MTK1617:34V1S5K3GT8HQ9V4BJYEY7VPLUX69V", "dateTime": 1516052267528}, {"current_trial": 94, "trialdata": {"rt": -1000, "trial_type": "single-audio", "word": "blade", "stimulus": "/static/audio/wordpool/BLADE.wav", "conditions": [24, 800, "a", 12000], "internal_node_id": "0.0-67.0", "trial": 2, "time_elapsed": 548412, "serialpos": 5, "key_press": -1, "wordID": 133, "type": "PRES_AUD", "trial_index": 94}, "uniqueid": "MTK1617:34V1S5K3GT8HQ9V4BJYEY7VPLUX69V", "dateTime": 1516052269173}, {"current_trial": 95, "trialdata": {"rt": -1000, "trial_type": "single-audio", "word": "spool", "stimulus": "/static/audio/wordpool/SPOOL.wav", "conditions": [24, 800, "a", 12000], "internal_node_id": "0.0-68.0", "trial": 2, "time_elapsed": 550155, "serialpos": 6, "key_press": -1, "wordID": 1355, "type": "PRES_AUD", "trial_index": 95}, "uniqueid": "MTK1617:34V1S5K3GT8HQ9V4BJYEY7VPLUX69V", "dateTime": 1516052270915}, {"current_trial": 96, "trialdata": {"rt": -1000, "trial_type": "single-audio", "word": "basement", "stimulus": "/static/audio/wordpool/BASEMENT.wav", "conditions": [24, 800, "a", 12000], "internal_node_id": "0.0-69.0", "trial": 2, "time_elapsed": 551921, "serialpos": 7, "key_press": -1, "wordID": 93, "type": "PRES_AUD", "trial_index": 96}, "uniqueid": "MTK1617:34V1S5K3GT8HQ9V4BJYEY7VPLUX69V", "dateTime": 1516052272681}, {"current_trial": 97, "trialdata": {"rt": -1000, "trial_type": "single-audio", "word": "shovel", "stimulus": "/static/audio/wordpool/SHOVEL.wav", "conditions": [24, 800, "a", 12000], "internal_node_id": "0.0-70.0", "trial": 2, "time_elapsed": 553806, "serialpos": 8, "key_press": -1, "wordID": 1294, "type": "PRES_AUD", "trial_index": 97}, "uniqueid": "MTK1617:34V1S5K3GT8HQ9V4BJYEY7VPLUX69V", "dateTime": 1516052274566}, {"current_trial": 98, "trialdata": {"rt": -1000, "trial_type": "single-audio", "word": "cigar", "stimulus": "/static/audio/wordpool/CIGAR.wav", "conditions": [24, 800, "a", 12000], "internal_node_id": "0.0-71.0", "trial": 2, "time_elapsed": 555661, "serialpos": 9, "key_press": -1, "wordID": 307, "type": "PRES_AUD", "trial_index": 98}, "uniqueid": "MTK1617:34V1S5K3GT8HQ9V4BJYEY7VPLUX69V", "dateTime": 1516052276421}, {"current_trial": 99, "trialdata": {"rt": -1000, "trial_type": "single-audio", "word": "rod", "stimulus": "/static/audio/wordpool/ROD.wav", "conditions": [24, 800, "a", 12000], "internal_node_id": "0.0-72.0", "trial": 2, "time_elapsed": 557551, "serialpos": 10, "key_press": -1, "wordID": 1202, "type": "PRES_AUD", "trial_index": 99}, "uniqueid": "MTK1617:34V1S5K3GT8HQ9V4BJYEY7VPLUX69V", "dateTime": 1516052278311}, {"current_trial": 100, "trialdata": {"rt": -1000, "trial_type": "single-audio", "word": "laser", "stimulus": "/static/audio/wordpool/LASER.wav", "conditions": [24, 800, "a", 12000], "internal_node_id": "0.0-73.0", "trial": 2, "time_elapsed": 559331, "serialpos": 11, "key_press": -1, "wordID": 800, "type": "PRES_AUD", "trial_index": 100}, "uniqueid": "MTK1617:34V1S5K3GT8HQ9V4BJYEY7VPLUX69V", "dateTime": 1516052280091}, {"current_trial": 101, "trialdata": {"rt": -1000, "trial_type": "single-audio", "word": "snack", "stimulus": "/static/audio/wordpool/SNACK.wav", "conditions": [24, 800, "a", 12000], "internal_node_id": "0.0-74.0", "trial": 2, "time_elapsed": 561144, "serialpos": 12, "key_press": -1, "wordID": 1330, "type": "PRES_AUD", "trial_index": 101}, "uniqueid": "MTK1617:34V1S5K3GT8HQ9V4BJYEY7VPLUX69V", "dateTime": 1516052281904}, {"current_trial": 102, "trialdata": {"rt": -1000, "trial_type": "single-audio", "word": "nurse", "stimulus": "/static/audio/wordpool/NURSE.wav", "conditions": [24, 800, "a", 12000], "internal_node_id": "0.0-75.0", "trial": 2, "time_elapsed": 562782, "serialpos": 13, "key_press": -1, "wordID": 962, "type": "PRES_AUD", "trial_index": 102}, "uniqueid": "MTK1617:34V1S5K3GT8HQ9V4BJYEY7VPLUX69V", "dateTime": 1516052283542}, {"current_trial": 103, "trialdata": {"rt": -1000, "trial_type": "single-audio", "word": "patient", "stimulus": "/static/audio/wordpool/PATIENT.wav", "conditions": [24, 800, "a", 12000], "internal_node_id": "0.0-76.0", "trial": 2, "time_elapsed": 564580, "serialpos": 14, "key_press": -1, "wordID": 1023, "type": "PRES_AUD", "trial_index": 103}, "uniqueid": "MTK1617:34V1S5K3GT8HQ9V4BJYEY7VPLUX69V", "dateTime": 1516052285340}, {"current_trial": 104, "trialdata": {"rt": -1000, "trial_type": "single-audio", "word": "liver", "stimulus": "/static/audio/wordpool/LIVER.wav", "conditions": [24, 800, "a", 12000], "internal_node_id": "0.0-77.0", "trial": 2, "time_elapsed": 566515, "serialpos": 15, "key_press": -1, "wordID": 832, "type": "PRES_AUD", "trial_index": 104}, "uniqueid": "MTK1617:34V1S5K3GT8HQ9V4BJYEY7VPLUX69V", "dateTime": 1516052287275}, {"current_trial": 105, "trialdata": {"rt": -1000, "trial_type": "single-audio", "word": "pilot", "stimulus": "/static/audio/wordpool/PILOT.wav", "conditions": [24, 800, "a", 12000], "internal_node_id": "0.0-78.0", "trial": 2, "time_elapsed": 568189, "serialpos": 16, "key_press": -1, "wordID": 1069, "type": "PRES_AUD", "trial_index": 105}, "uniqueid": "MTK1617:34V1S5K3GT8HQ9V4BJYEY7VPLUX69V", "dateTime": 1516052288949}, {"current_trial": 106, "trialdata": {"rt": -1000, "trial_type": "single-audio", "word": "rabbit", "stimulus": "/static/audio/wordpool/RABBIT.wav", "conditions": [24, 800, "a", 12000], "internal_node_id": "0.0-79.0", "trial": 2, "time_elapsed": 569845, "serialpos": 17, "key_press": -1, "wordID": 1151, "type": "PRES_AUD", "trial_index": 106}, "uniqueid": "MTK1617:34V1S5K3GT8HQ9V4BJYEY7VPLUX69V", "dateTime": 1516052290605}, {"current_trial": 107, "trialdata": {"rt": -1000, "trial_type": "single-audio", "word": "toaster", "stimulus": "/static/audio/wordpool/TOASTER.wav", "conditions": [24, 800, "a", 12000], "internal_node_id": "0.0-80.0", "trial": 2, "time_elapsed": 571603, "serialpos": 18, "key_press": -1, "wordID": 1471, "type": "PRES_AUD", "trial_index": 107}, "uniqueid": "MTK1617:34V1S5K3GT8HQ9V4BJYEY7VPLUX69V", "dateTime": 1516052292364}, {"current_trial": 108, "trialdata": {"rt": -1000, "trial_type": "single-audio", "word": "judge", "stimulus": "/static/audio/wordpool/JUDGE.wav", "conditions": [24, 800, "a", 12000], "internal_node_id": "0.0-81.0", "trial": 2, "time_elapsed": 573346, "serialpos": 19, "key_press": -1, "wordID": 760, "type": "PRES_AUD", "trial_index": 108}, "uniqueid": "MTK1617:34V1S5K3GT8HQ9V4BJYEY7VPLUX69V", "dateTime": 1516052294106}, {"current_trial": 109, "trialdata": {"rt": -1000, "trial_type": "single-audio", "word": "virus", "stimulus": "/static/audio/wordpool/VIRUS.wav", "conditions": [24, 800, "a", 12000], "internal_node_id": "0.0-82.0", "trial": 2, "time_elapsed": 575248, "serialpos": 20, "key_press": -1, "wordID": 1571, "type": "PRES_AUD", "trial_index": 109}, "uniqueid": "MTK1617:34V1S5K3GT8HQ9V4BJYEY7VPLUX69V", "dateTime": 1516052296009}, {"current_trial": 110, "trialdata": {"rt": -1000, "trial_type": "single-audio", "word": "brother", "stimulus": "/static/audio/wordpool/BROTHER.wav", "conditions": [24, 800, "a", 12000], "internal_node_id": "0.0-83.0", "trial": 2, "time_elapsed": 577057, "serialpos": 21, "key_press": -1, "wordID": 178, "type": "PRES_AUD", "trial_index": 110}, "uniqueid": "MTK1617:34V1S5K3GT8HQ9V4BJYEY7VPLUX69V", "dateTime": 1516052297817}, {"current_trial": 111, "trialdata": {"rt": -1000, "trial_type": "single-audio", "word": "curtain", "stimulus": "/static/audio/wordpool/CURTAIN.wav", "conditions": [24, 800, "a", 12000], "internal_node_id": "0.0-84.0", "trial": 2, "time_elapsed": 578806, "serialpos": 22, "key_press": -1, "wordID": 426, "type": "PRES_AUD", "trial_index": 111}, "uniqueid": "MTK1617:34V1S5K3GT8HQ9V4BJYEY7VPLUX69V", "dateTime": 1516052299566}, {"current_trial": 112, "trialdata": {"rt": -1000, "trial_type": "single-audio", "word": "jury", "stimulus": "/static/audio/wordpool/JURY.wav", "conditions": [24, 800, "a", 12000], "internal_node_id": "0.0-85.0", "trial": 2, "time_elapsed": 580805, "serialpos": 23, "key_press": -1, "wordID": 765, "type": "PRES_AUD", "trial_index": 112}, "uniqueid": "MTK1617:34V1S5K3GT8HQ9V4BJYEY7VPLUX69V", "dateTime": 1516052301565}, {"current_trial": 113, "trialdata": {"rt": -1, "trial_type": "single-stim", "stimulus": "", "internal_node_id": "0.0-86.0-0.0", "time_elapsed": 582131, "key_press": -1, "type": "PRE_RECALL_DELAY", "trial_index": 113}, "uniqueid": "MTK1617:34V1S5K3GT8HQ9V4BJYEY7VPLUX69V", "dateTime": 1516052302891}, {"current_trial": 114, "trialdata": {"rt": -1000, "trial_type": "single-audio", "stimulus": "/static/audio/400Hz.wav", "internal_node_id": "0.0-87.0", "time_elapsed": 582632, "key_press": -1, "type": "PRE_RECALL_ALERT", "trial_index": 114}, "uniqueid": "MTK1617:34V1S5K3GT8HQ9V4BJYEY7VPLUX69V", "dateTime": 1516052303392}, {"current_trial": 115, "trialdata": {"rt": [4215, 8047, 13393, 17591, 23413, 29257, 36037, 41237, 47357, 53718, 58555], "recwords": ["jury", "curtain", "brother", "rabbit", "scissor", "patient", "snack", "lazer", "rock", "cigar", "basement"], "key_times": [2165, 2376, 2845, 3192, 4215, 4968, 5561, 5917, 6095, 6412, 6927, 7442, 8047, 10641, 11027, 11695, 12131, 12343, 12660, 12816, 13393, 15332, 15652, 16138, 16288, 16766, 17121, 17591, 20643, 21012, 21513, 21909, 22049, 22526, 22891, 23413, 25865, 26437, 26986, 27481, 27926, 28404, 28782, 29257, 31347, 31812, 32240, 32707, 33286, 34315, 34806, 35460, 36037, 39193, 39666, 40000, 40490, 40690, 41237, 45405, 46074, 46513, 46969, 47357, 48864, 49358, 50105, 51009, 51479, 52265, 52377, 53316, 53718, 55882, 56149, 56539, 56664, 57148, 57648, 57828, 58242, 58555, 59015, 59218, 59361, 59632], "trial_type": "free-recall", "conditions": [24, 800, "a", 12000], "internal_node_id": "0.0-88.0-0.0", "key_presses": [74, 85, 82, 89, 13, 67, 85, 82, 84, 65, 73, 78, 13, 66, 82, 79, 84, 72, 69, 82, 13, 82, 65, 66, 66, 73, 84, 13, 83, 67, 73, 83, 83, 79, 82, 13, 80, 65, 84, 73, 69, 78, 84, 13, 83, 78, 65, 67, 76, 37, 75, 46, 13, 76, 65, 90, 69, 82, 13, 82, 79, 67, 75, 13, 67, 73, 70, 37, 71, 65, 82, 46, 13, 66, 65, 83, 69, 77, 69, 78, 84, 32, 80, 79, 79, 76], "trial": 2, "time_elapsed": 642637, "type": "FREE_RECALL", "trial_index": 115}, "uniqueid": "MTK1617:34V1S5K3GT8HQ9V4BJYEY7VPLUX69V", "dateTime": 1516052363401}, {"current_trial": 116, "trialdata": {"rt": 12080, "trial_type": "text", "internal_node_id": "0.0-89.0", "time_elapsed": 656723, "key_press": 13, "type": "INSTRUCTIONS", "trial_index": 116}, "uniqueid": "MTK1617:34V1S5K3GT8HQ9V4BJYEY7VPLUX69V", "dateTime": 1516052377483}, {"current_trial": 117, "trialdata": {"rt": [4428, 9782], "trial_type": "math-distractor", "key_times": [3503, 3824, 4428, 6313, 8962, 9782], "responses": ["14", "13"], "num2": [5, 7, 3], "num3": [6, 5, 7], "conditions": [12, 1600, "a", 12000], "internal_node_id": "0.0-90.0", "key_presses": [49, 52, 13, 49, 51, 13], "trial": 3, "time_elapsed": 670728, "type": "DISTRACTOR", "trial_index": 117, "num1": [3, 1, 5]}, "uniqueid": "MTK1617:34V1S5K3GT8HQ9V4BJYEY7VPLUX69V", "dateTime": 1516052391488}, {"current_trial": 118, "trialdata": {"rt": -1, "trial_type": "single-stim", "stimulus": "<p id=\"stim\">10</p>", "internal_node_id": "0.0-91.0-0.0", "time_elapsed": 673742, "key_press": -1, "trial_index": 118}, "uniqueid": "MTK1617:34V1S5K3GT8HQ9V4BJYEY7VPLUX69V", "dateTime": 1516052394502}, {"current_trial": 119, "trialdata": {"rt": -1, "trial_type": "single-stim", "stimulus": "<p id=\"stim\">9</p>", "internal_node_id": "0.0-91.0-1.0", "time_elapsed": 674744, "key_press": -1, "trial_index": 119}, "uniqueid": "MTK1617:34V1S5K3GT8HQ9V4BJYEY7VPLUX69V", "dateTime": 1516052395504}, {"current_trial": 120, "trialdata": {"rt": -1, "trial_type": "single-stim", "stimulus": "<p id=\"stim\">8</p>", "internal_node_id": "0.0-91.0-2.0", "time_elapsed": 675745, "key_press": -1, "trial_index": 120}, "uniqueid": "MTK1617:34V1S5K3GT8HQ9V4BJYEY7VPLUX69V", "dateTime": 1516052396505}, {"current_trial": 121, "trialdata": {"rt": -1, "trial_type": "single-stim", "stimulus": "<p id=\"stim\">7</p>", "internal_node_id": "0.0-91.0-3.0", "time_elapsed": 676746, "key_press": -1, "trial_index": 121}, "uniqueid": "MTK1617:34V1S5K3GT8HQ9V4BJYEY7VPLUX69V", "dateTime": 1516052397506}, {"current_trial": 122, "trialdata": {"rt": -1, "trial_type": "single-stim", "stimulus": "<p id=\"stim\">6</p>", "internal_node_id": "0.0-91.0-4.0", "time_elapsed": 677747, "key_press": -1, "trial_index": 122}, "uniqueid": "MTK1617:34V1S5K3GT8HQ9V4BJYEY7VPLUX69V", "dateTime": 1516052398507}, {"current_trial": 123, "trialdata": {"rt": -1, "trial_type": "single-stim", "stimulus": "<p id=\"stim\">5</p>", "internal_node_id": "0.0-91.0-5.0", "time_elapsed": 678749, "key_press": -1, "trial_index": 123}, "uniqueid": "MTK1617:34V1S5K3GT8HQ9V4BJYEY7VPLUX69V", "dateTime": 1516052399509}, {"current_trial": 124, "trialdata": {"rt": -1, "trial_type": "single-stim", "stimulus": "<p id=\"stim\">4</p>", "internal_node_id": "0.0-91.0-6.0", "time_elapsed": 679750, "key_press": -1, "trial_index": 124}, "uniqueid": "MTK1617:34V1S5K3GT8HQ9V4BJYEY7VPLUX69V", "dateTime": 1516052400510}, {"current_trial": 125, "trialdata": {"rt": -1, "trial_type": "single-stim", "stimulus": "<p id=\"stim\">3</p>", "internal_node_id": "0.0-91.0-7.0", "time_elapsed": 680751, "key_press": -1, "trial_index": 125}, "uniqueid": "MTK1617:34V1S5K3GT8HQ9V4BJYEY7VPLUX69V", "dateTime": 1516052401511}, {"current_trial": 126, "trialdata": {"rt": -1, "trial_type": "single-stim", "stimulus": "<p id=\"stim\">2</p>", "internal_node_id": "0.0-91.0-8.0", "time_elapsed": 681753, "key_press": -1, "trial_index": 126}, "uniqueid": "MTK1617:34V1S5K3GT8HQ9V4BJYEY7VPLUX69V", "dateTime": 1516052402513}, {"current_trial": 127, "trialdata": {"rt": -1, "trial_type": "single-stim", "stimulus": "<p id=\"stim\">1</p>", "internal_node_id": "0.0-91.0-9.0", "time_elapsed": 682754, "key_press": -1, "trial_index": 127}, "uniqueid": "MTK1617:34V1S5K3GT8HQ9V4BJYEY7VPLUX69V", "dateTime": 1516052403514}, {"current_trial": 128, "trialdata": {"rt": -1, "trial_type": "single-stim", "stimulus": "<p id=\"stim\">+</p>", "internal_node_id": "0.0-92.0-0.0", "time_elapsed": 684256, "key_press": -1, "type": "FIXATION", "trial_index": 128}, "uniqueid": "MTK1617:34V1S5K3GT8HQ9V4BJYEY7VPLUX69V", "dateTime": 1516052405016}, {"current_trial": 129, "trialdata": {"rt": -1000, "trial_type": "single-audio", "word": "county", "stimulus": "/static/audio/wordpool/COUNTY.wav", "conditions": [12, 1600, "a", 12000], "internal_node_id": "0.0-93.0", "trial": 3, "time_elapsed": 686883, "serialpos": 0, "key_press": -1, "wordID": 388, "type": "PRES_AUD", "trial_index": 129}, "uniqueid": "MTK1617:34V1S5K3GT8HQ9V4BJYEY7VPLUX69V", "dateTime": 1516052407643}, {"current_trial": 130, "trialdata": {"rt": -1000, "trial_type": "single-audio", "word": "necklace", "stimulus": "/static/audio/wordpool/NECKLACE.wav", "conditions": [12, 1600, "a", 12000], "internal_node_id": "0.0-94.0", "trial": 3, "time_elapsed": 689576, "serialpos": 1, "key_press": -1, "wordID": 939, "type": "PRES_AUD", "trial_index": 130}, "uniqueid": "MTK1617:34V1S5K3GT8HQ9V4BJYEY7VPLUX69V", "dateTime": 1516052410336}, {"current_trial": 131, "trialdata": {"rt": -1000, "trial_type": "single-audio", "word": "handbag", "stimulus": "/static/audio/wordpool/HANDBAG.wav", "conditions": [12, 1600, "a", 12000], "internal_node_id": "0.0-95.0", "trial": 3, "time_elapsed": 692197, "serialpos": 2, "key_press": -1, "wordID": 683, "type": "PRES_AUD", "trial_index": 131}, "uniqueid": "MTK1617:34V1S5K3GT8HQ9V4BJYEY7VPLUX69V", "dateTime": 1516052412957}, {"current_trial": 132, "trialdata": {"rt": -1000, "trial_type": "single-audio", "word": "island", "stimulus": "/static/audio/wordpool/ISLAND.wav", "conditions": [12, 1600, "a", 12000], "internal_node_id": "0.0-96.0", "trial": 3, "time_elapsed": 694966, "serialpos": 3, "key_press": -1, "wordID": 744, "type": "PRES_AUD", "trial_index": 132}, "uniqueid": "MTK1617:34V1S5K3GT8HQ9V4BJYEY7VPLUX69V", "dateTime": 1516052415726}, {"current_trial": 133, "trialdata": {"rt": -1000, "trial_type": "single-audio", "word": "banker", "stimulus": "/static/audio/wordpool/BANKER.wav", "conditions": [12, 1600, "a", 12000], "internal_node_id": "0.0-97.0", "trial": 3, "time_elapsed": 697747, "serialpos": 4, "key_press": -1, "wordID": 83, "type": "PRES_AUD", "trial_index": 133}, "uniqueid": "MTK1617:34V1S5K3GT8HQ9V4BJYEY7VPLUX69V", "dateTime": 1516052418507}, {"current_trial": 134, "trialdata": {"rt": -1000, "trial_type": "single-audio", "word": "stove", "stimulus": "/static/audio/wordpool/STOVE.wav", "conditions": [12, 1600, "a", 12000], "internal_node_id": "0.0-98.0", "trial": 3, "time_elapsed": 700169, "serialpos": 5, "key_press": -1, "wordID": 1387, "type": "PRES_AUD", "trial_index": 134}, "uniqueid": "MTK1617:34V1S5K3GT8HQ9V4BJYEY7VPLUX69V", "dateTime": 1516052420929}, {"current_trial": 135, "trialdata": {"rt": -1000, "trial_type": "single-audio", "word": "scallop", "stimulus": "/static/audio/wordpool/SCALLOP.wav", "conditions": [12, 1600, "a", 12000], "internal_node_id": "0.0-99.0", "trial": 3, "time_elapsed": 702717, "serialpos": 6, "key_press": -1, "wordID": 1241, "type": "PRES_AUD", "trial_index": 135}, "uniqueid": "MTK1617:34V1S5K3GT8HQ9V4BJYEY7VPLUX69V", "dateTime": 1516052423477}, {"current_trial": 136, "trialdata": {"rt": -1000, "trial_type": "single-audio", "word": "parsley", "stimulus": "/static/audio/wordpool/PARSLEY.wav", "conditions": [12, 1600, "a", 12000], "internal_node_id": "0.0-100.0", "trial": 3, "time_elapsed": 705334, "serialpos": 7, "key_press": -1, "wordID": 1015, "type": "PRES_AUD", "trial_index": 136}, "uniqueid": "MTK1617:34V1S5K3GT8HQ9V4BJYEY7VPLUX69V", "dateTime": 1516052426094}, {"current_trial": 137, "trialdata": {"rt": -1000, "trial_type": "single-audio", "word": "guard", "stimulus": "/static/audio/wordpool/GUARD.wav", "conditions": [12, 1600, "a", 12000], "internal_node_id": "0.0-101.0", "trial": 3, "time_elapsed": 707880, "serialpos": 8, "key_press": -1, "wordID": 666, "type": "PRES_AUD", "trial_index": 137}, "uniqueid": "MTK1617:34V1S5K3GT8HQ9V4BJYEY7VPLUX69V", "dateTime": 1516052428640}, {"current_trial": 138, "trialdata": {"rt": -1000, "trial_type": "single-audio", "word": "hamper", "stimulus": "/static/audio/wordpool/HAMPER.wav", "conditions": [12, 1600, "a", 12000], "internal_node_id": "0.0-102.0", "trial": 3, "time_elapsed": 710491, "serialpos": 9, "key_press": -1, "wordID": 681, "type": "PRES_AUD", "trial_index": 138}, "uniqueid": "MTK1617:34V1S5K3GT8HQ9V4BJYEY7VPLUX69V", "dateTime": 1516052431251}, {"current_trial": 139, "trialdata": {"rt": -1000, "trial_type": "single-audio", "word": "cook", "stimulus": "/static/audio/wordpool/COOK.wav", "conditions": [12, 1600, "a", 12000], "internal_node_id": "0.0-103.0", "trial": 3, "time_elapsed": 713049, "serialpos": 10, "key_press": -1, "wordID": 371, "type": "PRES_AUD", "trial_index": 139}, "uniqueid": "MTK1617:34V1S5K3GT8HQ9V4BJYEY7VPLUX69V", "dateTime": 1516052433809}, {"current_trial": 140, "trialdata": {"rt": -1000, "trial_type": "single-audio", "word": "novel", "stimulus": "/static/audio/wordpool/NOVEL.wav", "conditions": [12, 1600, "a", 12000], "internal_node_id": "0.0-104.0", "trial": 3, "time_elapsed": 715574, "serialpos": 11, "key_press": -1, "wordID": 959, "type": "PRES_AUD", "trial_index": 140}, "uniqueid": "MTK1617:34V1S5K3GT8HQ9V4BJYEY7VPLUX69V", "dateTime": 1516052436335}, {"current_trial": 141, "trialdata": {"rt": -1, "trial_type": "single-stim", "stimulus": "", "internal_node_id": "0.0-105.0-0.0", "time_elapsed": 716908, "key_press": -1, "type": "PRE_RECALL_DELAY", "trial_index": 141}, "uniqueid": "MTK1617:34V1S5K3GT8HQ9V4BJYEY7VPLUX69V", "dateTime": 1516052437668}, {"current_trial": 142, "trialdata": {"rt": -1000, "trial_type": "single-audio", "stimulus": "/static/audio/400Hz.wav", "internal_node_id": "0.0-106.0", "time_elapsed": 717410, "key_press": -1, "type": "PRE_RECALL_ALERT", "trial_index": 142}, "uniqueid": "MTK1617:34V1S5K3GT8HQ9V4BJYEY7VPLUX69V", "dateTime": 1516052438171}, {"current_trial": 143, "trialdata": {"rt": [4276, 8324, 11852, 15788, 21384, 24734, 28305, 32911, 38517, 45569, 50353], "recwords": ["county", "novel", "cook", "caqr", "heartbeat", "gallon", "baker", "island", "handbag", "necklace", "dough"], "key_times": [2241, 2799, 3094, 3365, 3697, 3851, 4276, 5942, 6413, 6931, 7382, 7896, 8324, 10610, 11147, 11302, 11532, 11852, 14624, 15006, 15011, 15456, 15788, 18437, 18856, 19088, 19352, 19574, 20182, 20510, 20744, 21093, 21384, 23138, 23470, 23975, 24124, 24297, 24529, 24734, 26535, 26868, 27393, 27798, 27969, 28305, 30558, 30960, 31423, 31891, 32349, 32659, 32911, 34924, 35292, 36070, 36460, 37107, 37480, 37993, 38517, 40928, 41356, 41716, 42391, 42575, 43009, 43769, 44121, 45569, 47653, 48544, 49182, 49531, 49729, 50353, 58591, 59373, 59774], "trial_type": "free-recall", "conditions": [12, 1600, "a", 12000], "internal_node_id": "0.0-107.0-0.0", "key_presses": [67, 79, 85, 78, 84, 89, 32, 78, 79, 86, 69, 76, 32, 67, 79, 79, 75, 32, 67, 65, 81, 82, 32, 72, 69, 65, 82, 84, 66, 69, 65, 84, 32, 71, 65, 76, 76, 79, 78, 32, 66, 65, 75, 69, 82, 32, 73, 83, 76, 65, 78, 68, 32, 72, 65, 78, 68, 66, 65, 71, 13, 78, 69, 67, 75, 76, 65, 67, 69, 13, 68, 79, 85, 71, 72, 13, 67, 79, 85], "trial": 3, "time_elapsed": 777416, "type": "FREE_RECALL", "trial_index": 143}, "uniqueid": "MTK1617:34V1S5K3GT8HQ9V4BJYEY7VPLUX69V", "dateTime": 1516052498181}, {"current_trial": 144, "trialdata": {"rt": 1535, "trial_type": "text", "internal_node_id": "0.0-108.0", "time_elapsed": 780958, "key_press": 13, "type": "INSTRUCTIONS", "trial_index": 144}, "uniqueid": "MTK1617:34V1S5K3GT8HQ9V4BJYEY7VPLUX69V", "dateTime": 1516052501718}, {"current_trial": 145, "trialdata": {"rt": [3381, 10827, 14921, 17778, 20880], "trial_type": "math-distractor", "key_times": [1775, 2721, 3381, 5420, 5600, 8807, 9409, 10164, 10827, 13422, 14285, 14921, 16854, 17069, 17778, 19332, 20087, 20880, 23451], "responses": ["10", "12", "16", "12", "15"], "num2": [8, 5, 5, 2, 6, 3], "num3": [1, 4, 7, 1, 6, 7], "conditions": [24, 1600, "a", 24000], "internal_node_id": "0.0-109.0", "key_presses": [49, 48, 13, 49, 49, 37, 46, 50, 13, 49, 54, 13, 49, 50, 13, 49, 53, 13, 49], "trial": 4, "time_elapsed": 806963, "type": "DISTRACTOR", "trial_index": 145, "num1": [1, 3, 4, 9, 3, 7]}, "uniqueid": "MTK1617:34V1S5K3GT8HQ9V4BJYEY7VPLUX69V", "dateTime": 1516052527723}, {"current_trial": 146, "trialdata": {"rt": -1, "trial_type": "single-stim", "stimulus": "<p id=\"stim\">10</p>", "internal_node_id": "0.0-110.0-0.0", "time_elapsed": 809965, "key_press": -1, "trial_index": 146}, "uniqueid": "MTK1617:34V1S5K3GT8HQ9V4BJYEY7VPLUX69V", "dateTime": 1516052530725}, {"current_trial": 147, "trialdata": {"rt": -1, "trial_type": "single-stim", "stimulus": "<p id=\"stim\">9</p>", "internal_node_id": "0.0-110.0-1.0", "time_elapsed": 810966, "key_press": -1, "trial_index": 147}, "uniqueid": "MTK1617:34V1S5K3GT8HQ9V4BJYEY7VPLUX69V", "dateTime": 1516052531726}, {"current_trial": 148, "trialdata": {"rt": -1, "trial_type": "single-stim", "stimulus": "<p id=\"stim\">8</p>", "internal_node_id": "0.0-110.0-2.0", "time_elapsed": 811967, "key_press": -1, "trial_index": 148}, "uniqueid": "MTK1617:34V1S5K3GT8HQ9V4BJYEY7VPLUX69V", "dateTime": 1516052532728}, {"current_trial": 149, "trialdata": {"rt": -1, "trial_type": "single-stim", "stimulus": "<p id=\"stim\">7</p>", "internal_node_id": "0.0-110.0-3.0", "time_elapsed": 812969, "key_press": -1, "trial_index": 149}, "uniqueid": "MTK1617:34V1S5K3GT8HQ9V4BJYEY7VPLUX69V", "dateTime": 1516052533729}, {"current_trial": 150, "trialdata": {"rt": -1, "trial_type": "single-stim", "stimulus": "<p id=\"stim\">6</p>", "internal_node_id": "0.0-110.0-4.0", "time_elapsed": 813970, "key_press": -1, "trial_index": 150}, "uniqueid": "MTK1617:34V1S5K3GT8HQ9V4BJYEY7VPLUX69V", "dateTime": 1516052534730}, {"current_trial": 151, "trialdata": {"rt": -1, "trial_type": "single-stim", "stimulus": "<p id=\"stim\">5</p>", "internal_node_id": "0.0-110.0-5.0", "time_elapsed": 814971, "key_press": -1, "trial_index": 151}, "uniqueid": "MTK1617:34V1S5K3GT8HQ9V4BJYEY7VPLUX69V", "dateTime": 1516052535732}, {"current_trial": 152, "trialdata": {"rt": -1, "trial_type": "single-stim", "stimulus": "<p id=\"stim\">4</p>", "internal_node_id": "0.0-110.0-6.0", "time_elapsed": 815972, "key_press": -1, "trial_index": 152}, "uniqueid": "MTK1617:34V1S5K3GT8HQ9V4BJYEY7VPLUX69V", "dateTime": 1516052536733}, {"current_trial": 153, "trialdata": {"rt": -1, "trial_type": "single-stim", "stimulus": "<p id=\"stim\">3</p>", "internal_node_id": "0.0-110.0-7.0", "time_elapsed": 816973, "key_press": -1, "trial_index": 153}, "uniqueid": "MTK1617:34V1S5K3GT8HQ9V4BJYEY7VPLUX69V", "dateTime": 1516052537734}, {"current_trial": 154, "trialdata": {"rt": -1, "trial_type": "single-stim", "stimulus": "<p id=\"stim\">2</p>", "internal_node_id": "0.0-110.0-8.0", "time_elapsed": 817975, "key_press": -1, "trial_index": 154}, "uniqueid": "MTK1617:34V1S5K3GT8HQ9V4BJYEY7VPLUX69V", "dateTime": 1516052538735}, {"current_trial": 155, "trialdata": {"rt": -1, "trial_type": "single-stim", "stimulus": "<p id=\"stim\">1</p>", "internal_node_id": "0.0-110.0-9.0", "time_elapsed": 818977, "key_press": -1, "trial_index": 155}, "uniqueid": "MTK1617:34V1S5K3GT8HQ9V4BJYEY7VPLUX69V", "dateTime": 1516052539737}, {"current_trial": 156, "trialdata": {"rt": -1, "trial_type": "single-stim", "stimulus": "<p id=\"stim\">+</p>", "internal_node_id": "0.0-111.0-0.0", "time_elapsed": 820478, "key_press": -1, "type": "FIXATION", "trial_index": 156}, "uniqueid": "MTK1617:34V1S5K3GT8HQ9V4BJYEY7VPLUX69V", "dateTime": 1516052541238}, {"current_trial": 157, "trialdata": {"rt": -1000, "trial_type": "single-audio", "word": "spouse", "stimulus": "/static/audio/wordpool/SPOUSE.wav", "conditions": [24, 1600, "a", 24000], "internal_node_id": "0.0-112.0", "trial": 4, "time_elapsed": 822893, "serialpos": 0, "key_press": -1, "wordID": 1357, "type": "PRES_AUD", "trial_index": 157}, "uniqueid": "MTK1617:34V1S5K3GT8HQ9V4BJYEY7VPLUX69V", "dateTime": 1516052543653}, {"current_trial": 158, "trialdata": {"rt": -1000, "trial_type": "single-audio", "word": "lava", "stimulus": "/static/audio/wordpool/LAVA.wav", "conditions": [24, 1600, "a", 24000], "internal_node_id": "0.0-113.0", "trial": 4, "time_elapsed": 825540, "serialpos": 1, "key_press": -1, "wordID": 803, "type": "PRES_AUD", "trial_index": 158}, "uniqueid": "MTK1617:34V1S5K3GT8HQ9V4BJYEY7VPLUX69V", "dateTime": 1516052546300}, {"current_trial": 159, "trialdata": {"rt": -1000, "trial_type": "single-audio", "word": "crater", "stimulus": "/static/audio/wordpool/CRATER.wav", "conditions": [24, 1600, "a", 24000], "internal_node_id": "0.0-114.0", "trial": 4, "time_elapsed": 828290, "serialpos": 2, "key_press": -1, "wordID": 399, "type": "PRES_AUD", "trial_index": 159}, "uniqueid": "MTK1617:34V1S5K3GT8HQ9V4BJYEY7VPLUX69V", "dateTime": 1516052549050}, {"current_trial": 160, "trialdata": {"rt": -1000, "trial_type": "single-audio", "word": "garbage", "stimulus": "/static/audio/wordpool/GARBAGE.wav", "conditions": [24, 1600, "a", 24000], "internal_node_id": "0.0-115.0", "trial": 4, "time_elapsed": 830744, "serialpos": 3, "key_press": -1, "wordID": 621, "type": "PRES_AUD", "trial_index": 160}, "uniqueid": "MTK1617:34V1S5K3GT8HQ9V4BJYEY7VPLUX69V", "dateTime": 1516052551504}, {"current_trial": 161, "trialdata": {"rt": -1000, "trial_type": "single-audio", "word": "hawk", "stimulus": "/static/audio/wordpool/HAWK.wav", "conditions": [24, 1600, "a", 24000], "internal_node_id": "0.0-116.0", "trial": 4, "time_elapsed": 833288, "serialpos": 4, "key_press": -1, "wordID": 691, "type": "PRES_AUD", "trial_index": 161}, "uniqueid": "MTK1617:34V1S5K3GT8HQ9V4BJYEY7VPLUX69V", "dateTime": 1516052554048}, {"current_trial": 162, "trialdata": {"rt": -1000, "trial_type": "single-audio", "word": "money", "stimulus": "/static/audio/wordpool/MONEY.wav", "conditions": [24, 1600, "a", 24000], "internal_node_id": "0.0-117.0", "trial": 4, "time_elapsed": 835955, "serialpos": 5, "key_press": -1, "wordID": 907, "type": "PRES_AUD", "trial_index": 162}, "uniqueid": "MTK1617:34V1S5K3GT8HQ9V4BJYEY7VPLUX69V", "dateTime": 1516052556715}, {"current_trial": 163, "trialdata": {"rt": -1000, "trial_type": "single-audio", "word": "canal", "stimulus": "/static/audio/wordpool/CANAL.wav", "conditions": [24, 1600, "a", 24000], "internal_node_id": "0.0-118.0", "trial": 4, "time_elapsed": 838578, "serialpos": 6, "key_press": -1, "wordID": 225, "type": "PRES_AUD", "trial_index": 163}, "uniqueid": "MTK1617:34V1S5K3GT8HQ9V4BJYEY7VPLUX69V", "dateTime": 1516052559338}, {"current_trial": 164, "trialdata": {"rt": -1000, "trial_type": "single-audio", "word": "carriage", "stimulus": "/static/audio/wordpool/CARRIAGE.wav", "conditions": [24, 1600, "a", 24000], "internal_node_id": "0.0-119.0", "trial": 4, "time_elapsed": 841344, "serialpos": 7, "key_press": -1, "wordID": 247, "type": "PRES_AUD", "trial_index": 164}, "uniqueid": "MTK1617:34V1S5K3GT8HQ9V4BJYEY7VPLUX69V", "dateTime": 1516052562104}, {"current_trial": 165, "trialdata": {"rt": -1000, "trial_type": "single-audio", "word": "skillet", "stimulus": "/static/audio/wordpool/SKILLET.wav", "conditions": [24, 1600, "a", 24000], "internal_node_id": "0.0-120.0", "trial": 4, "time_elapsed": 843841, "serialpos": 8, "key_press": -1, "wordID": 1316, "type": "PRES_AUD", "trial_index": 165}, "uniqueid": "MTK1617:34V1S5K3GT8HQ9V4BJYEY7VPLUX69V", "dateTime": 1516052564602}, {"current_trial": 166, "trialdata": {"rt": -1000, "trial_type": "single-audio", "word": "postage", "stimulus": "/static/audio/wordpool/POSTAGE.wav", "conditions": [24, 1600, "a", 24000], "internal_node_id": "0.0-121.0", "trial": 4, "time_elapsed": 846323, "serialpos": 9, "key_press": -1, "wordID": 1112, "type": "PRES_AUD", "trial_index": 166}, "uniqueid": "MTK1617:34V1S5K3GT8HQ9V4BJYEY7VPLUX69V", "dateTime": 1516052567083}, {"current_trial": 167, "trialdata": {"rt": -1000, "trial_type": "single-audio", "word": "statue", "stimulus": "/static/audio/wordpool/STATUE.wav", "conditions": [24, 1600, "a", 24000], "internal_node_id": "0.0-122.0", "trial": 4, "time_elapsed": 848735, "serialpos": 10, "key_press": -1, "wordID": 1373, "type": "PRES_AUD", "trial_index": 167}, "uniqueid": "MTK1617:34V1S5K3GT8HQ9V4BJYEY7VPLUX69V", "dateTime": 1516052569495}, {"current_trial": 168, "trialdata": {"rt": -1000, "trial_type": "single-audio", "word": "blender", "stimulus": "/static/audio/wordpool/BLENDER.wav", "conditions": [24, 1600, "a", 24000], "internal_node_id": "0.0-123.0", "trial": 4, "time_elapsed": 851207, "serialpos": 11, "key_press": -1, "wordID": 135, "type": "PRES_AUD", "trial_index": 168}, "uniqueid": "MTK1617:34V1S5K3GT8HQ9V4BJYEY7VPLUX69V", "dateTime": 1516052571967}, {"current_trial": 169, "trialdata": {"rt": -1000, "trial_type": "single-audio", "word": "maple", "stimulus": "/static/audio/wordpool/MAPLE.wav", "conditions": [24, 1600, "a", 24000], "internal_node_id": "0.0-124.0", "trial": 4, "time_elapsed": 853740, "serialpos": 12, "key_press": -1, "wordID": 865, "type": "PRES_AUD", "trial_index": 169}, "uniqueid": "MTK1617:34V1S5K3GT8HQ9V4BJYEY7VPLUX69V", "dateTime": 1516052574500}, {"current_trial": 170, "trialdata": {"rt": -1000, "trial_type": "single-audio", "word": "staple", "stimulus": "/static/audio/wordpool/STAPLE.wav", "conditions": [24, 1600, "a", 24000], "internal_node_id": "0.0-125.0", "trial": 4, "time_elapsed": 856188, "serialpos": 13, "key_press": -1, "wordID": 1370, "type": "PRES_AUD", "trial_index": 170}, "uniqueid": "MTK1617:34V1S5K3GT8HQ9V4BJYEY7VPLUX69V", "dateTime": 1516052576948}, {"current_trial": 171, "trialdata": {"rt": -1000, "trial_type": "single-audio", "word": "possum", "stimulus": "/static/audio/wordpool/POSSUM.wav", "conditions": [24, 1600, "a", 24000], "internal_node_id": "0.0-126.0", "trial": 4, "time_elapsed": 858601, "serialpos": 14, "key_press": -1, "wordID": 1111, "type": "PRES_AUD", "trial_index": 171}, "uniqueid": "MTK1617:34V1S5K3GT8HQ9V4BJYEY7VPLUX69V", "dateTime": 1516052579361}, {"current_trial": 172, "trialdata": {"rt": -1000, "trial_type": "single-audio", "word": "fox", "stimulus": "/static/audio/wordpool/FOX.wav", "conditions": [24, 1600, "a", 24000], "internal_node_id": "0.0-127.0", "trial": 4, "time_elapsed": 861287, "serialpos": 15, "key_press": -1, "wordID": 597, "type": "PRES_AUD", "trial_index": 172}, "uniqueid": "MTK1617:34V1S5K3GT8HQ9V4BJYEY7VPLUX69V", "dateTime": 1516052582047}, {"current_trial": 173, "trialdata": {"rt": -1000, "trial_type": "single-audio", "word": "parent", "stimulus": "/static/audio/wordpool/PARENT.wav", "conditions": [24, 1600, "a", 24000], "internal_node_id": "0.0-128.0", "trial": 4, "time_elapsed": 863718, "serialpos": 16, "key_press": -1, "wordID": 1012, "type": "PRES_AUD", "trial_index": 173}, "uniqueid": "MTK1617:34V1S5K3GT8HQ9V4BJYEY7VPLUX69V", "dateTime": 1516052584478}, {"current_trial": 174, "trialdata": {"rt": -1000, "trial_type": "single-audio", "word": "honey", "stimulus": "/static/audio/wordpool/HONEY.wav", "conditions": [24, 1600, "a", 24000], "internal_node_id": "0.0-129.0", "trial": 4, "time_elapsed": 866187, "serialpos": 17, "key_press": -1, "wordID": 712, "type": "PRES_AUD", "trial_index": 174}, "uniqueid": "MTK1617:34V1S5K3GT8HQ9V4BJYEY7VPLUX69V", "dateTime": 1516052586947}, {"current_trial": 175, "trialdata": {"rt": -1000, "trial_type": "single-audio", "word": "chipmunk", "stimulus": "/static/audio/wordpool/CHIPMUNK.wav", "conditions": [24, 1600, "a", 24000], "internal_node_id": "0.0-130.0", "trial": 4, "time_elapsed": 868777, "serialpos": 18, "key_press": -1, "wordID": 303, "type": "PRES_AUD", "trial_index": 175}, "uniqueid": "MTK1617:34V1S5K3GT8HQ9V4BJYEY7VPLUX69V", "dateTime": 1516052589538}, {"current_trial": 176, "trialdata": {"rt": -1000, "trial_type": "single-audio", "word": "mailbox", "stimulus": "/static/audio/wordpool/MAILBOX.wav", "conditions": [24, 1600, "a", 24000], "internal_node_id": "0.0-131.0", "trial": 4, "time_elapsed": 871555, "serialpos": 19, "key_press": -1, "wordID": 856, "type": "PRES_AUD", "trial_index": 176}, "uniqueid": "MTK1617:34V1S5K3GT8HQ9V4BJYEY7VPLUX69V", "dateTime": 1516052592315}, {"current_trial": 177, "trialdata": {"rt": -1000, "trial_type": "single-audio", "word": "stream", "stimulus": "/static/audio/wordpool/STREAM.wav", "conditions": [24, 1600, "a", 24000], "internal_node_id": "0.0-132.0", "trial": 4, "time_elapsed": 874264, "serialpos": 20, "key_press": -1, "wordID": 1391, "type": "PRES_AUD", "trial_index": 177}, "uniqueid": "MTK1617:34V1S5K3GT8HQ9V4BJYEY7VPLUX69V", "dateTime": 1516052595024}, {"current_trial": 178, "trialdata": {"rt": -1000, "trial_type": "single-audio", "word": "driver", "stimulus": "/static/audio/wordpool/DRIVER.wav", "conditions": [24, 1600, "a", 24000], "internal_node_id": "0.0-133.0", "trial": 4, "time_elapsed": 876801, "serialpos": 21, "key_press": -1, "wordID": 498, "type": "PRES_AUD", "trial_index": 178}, "uniqueid": "MTK1617:34V1S5K3GT8HQ9V4BJYEY7VPLUX69V", "dateTime": 1516052597561}, {"current_trial": 179, "trialdata": {"rt": -1000, "trial_type": "single-audio", "word": "mailman", "stimulus": "/static/audio/wordpool/MAILMAN.wav", "conditions": [24, 1600, "a", 24000], "internal_node_id": "0.0-134.0", "trial": 4, "time_elapsed": 879452, "serialpos": 22, "key_press": -1, "wordID": 857, "type": "PRES_AUD", "trial_index": 179}, "uniqueid": "MTK1617:34V1S5K3GT8HQ9V4BJYEY7VPLUX69V", "dateTime": 1516052600212}, {"current_trial": 180, "trialdata": {"rt": -1000, "trial_type": "single-audio", "word": "beef", "stimulus": "/static/audio/wordpool/BEEF.wav", "conditions": [24, 1600, "a", 24000], "internal_node_id": "0.0-135.0", "trial": 4, "time_elapsed": 882214, "serialpos": 23, "key_press": -1, "wordID": 112, "type": "PRES_AUD", "trial_index": 180}, "uniqueid": "MTK1617:34V1S5K3GT8HQ9V4BJYEY7VPLUX69V", "dateTime": 1516052602976}, {"current_trial": 181, "trialdata": {"rt": -1, "trial_type": "single-stim", "stimulus": "", "internal_node_id": "0.0-136.0-0.0", "time_elapsed": 883468, "key_press": -1, "type": "PRE_RECALL_DELAY", "trial_index": 181}, "uniqueid": "MTK1617:34V1S5K3GT8HQ9V4BJYEY7VPLUX69V", "dateTime": 1516052604228}, {"current_trial": 182, "trialdata": {"rt": -1000, "trial_type": "single-audio", "stimulus": "/static/audio/400Hz.wav", "internal_node_id": "0.0-137.0", "time_elapsed": 883969, "key_press": -1, "type": "PRE_RECALL_ALERT", "trial_index": 182}, "uniqueid": "MTK1617:34V1S5K3GT8HQ9V4BJYEY7VPLUX69V", "dateTime": 1516052604729}, {"current_trial": 183, "trialdata": {"rt": [5105, 8778, 14606, 18393, 21152, 25203, 28075, 33665, 37724, 41163, 43896, 46326, 50381, 53417, 57995], "recwords": ["driver", "mailman", "chipmunk", "spouse", "lava", "creature", "garbage", "hawk", "carriage", "skillet", "dream", "fax", "onion", "maple", "mailbox"], "key_times": [3144, 3363, 3880, 4233, 4576, 4752, 5105, 6307, 6633, 6873, 7132, 7725, 8145, 8390, 8778, 11207, 11474, 11892, 12486, 12878, 13149, 13974, 14315, 14606, 16379, 16727, 17230, 17519, 17932, 18221, 18393, 19925, 20207, 20538, 21004, 21152, 22848, 23191, 23384, 23516, 23825, 24254, 24615, 24801, 25203, 25970, 26159, 26357, 26994, 27140, 27436, 27725, 28075, 31642, 31952, 32745, 33356, 33665, 35331, 35530, 35813, 35943, 36456, 36613, 37089, 37442, 37724, 39291, 39585, 39791, 40125, 40260, 40644, 40825, 41163, 42680, 42876, 43048, 43278, 43643, 43896, 45448, 45590, 45881, 46326, 48581, 49301, 49657, 49840, 50135, 50381, 51882, 52207, 52567, 52778, 53174, 53417, 55505, 55740, 56043, 56237, 56741, 57280, 57723, 57995, 59677, 59954], "trial_type": "free-recall", "conditions": [24, 1600, "a", 24000], "internal_node_id": "0.0-138.0-0.0", "key_presses": [68, 82, 73, 86, 69, 82, 32, 77, 65, 73, 76, 77, 65, 78, 32, 67, 72, 73, 80, 77, 85, 78, 75, 32, 83, 80, 79, 85, 83, 69, 32, 76, 65, 86, 65, 32, 67, 82, 69, 65, 84, 85, 82, 69, 32, 71, 65, 82, 66, 65, 71, 69, 32, 72, 65, 87, 75, 32, 67, 65, 82, 82, 73, 65, 71, 69, 32, 83, 75, 73, 76, 76, 69, 84, 32, 68, 82, 69, 65, 77, 32, 70, 65, 88, 32, 79, 78, 73, 79, 78, 32, 77, 65, 80, 76, 69, 32, 77, 65, 73, 76, 66, 79, 88, 32, 83, 84], "trial": 4, "time_elapsed": 943974, "type": "FREE_RECALL", "trial_index": 183}, "uniqueid": "MTK1617:34V1S5K3GT8HQ9V4BJYEY7VPLUX69V", "dateTime": 1516052664740}, {"current_trial": 184, "trialdata": {"rt": 6205, "trial_type": "text", "internal_node_id": "0.0-139.0", "time_elapsed": 952186, "key_press": 13, "type": "INSTRUCTIONS", "trial_index": 184}, "uniqueid": "MTK1617:34V1S5K3GT8HQ9V4BJYEY7VPLUX69V", "dateTime": 1516052672946}, {"current_trial": 185, "trialdata": {"rt": [3207, 6304, 9199, 12366, 16445, 19840, 22510], "trial_type": "math-distractor", "key_times": [1930, 2650, 3207, 4896, 5742, 6304, 8625, 9199, 11138, 11845, 12366, 15104, 15938, 16445, 18545, 19238, 19840, 21378, 21942, 22510], "responses": ["19", "10", "6", "19", "19", "14", "18"], "num2": [8, 1, 2, 4, 9, 2, 5, 8], "num3": [9, 2, 3, 7, 5, 8, 8, 2], "conditions": [12, 800, "a", 24000], "internal_node_id": "0.0-140.0", "key_presses": [49, 57, 13, 49, 48, 13, 54, 13, 49, 57, 13, 49, 57, 13, 49, 52, 13, 49, 56, 13], "trial": 5, "time_elapsed": 978190, "type": "DISTRACTOR", "trial_index": 185, "num1": [2, 7, 1, 8, 5, 4, 5, 2]}, "uniqueid": "MTK1617:34V1S5K3GT8HQ9V4BJYEY7VPLUX69V", "dateTime": 1516052698950}, {"current_trial": 186, "trialdata": {"rt": -1, "trial_type": "single-stim", "stimulus": "<p id=\"stim\">10</p>", "internal_node_id": "0.0-141.0-0.0", "time_elapsed": 981193, "key_press": -1, "trial_index": 186}, "uniqueid": "MTK1617:34V1S5K3GT8HQ9V4BJYEY7VPLUX69V", "dateTime": 1516052701953}, {"current_trial": 187, "trialdata": {"rt": -1, "trial_type": "single-stim", "stimulus": "<p id=\"stim\">9</p>", "internal_node_id": "0.0-141.0-1.0", "time_elapsed": 982194, "key_press": -1, "trial_index": 187}, "uniqueid": "MTK1617:34V1S5K3GT8HQ9V4BJYEY7VPLUX69V", "dateTime": 1516052702954}, {"current_trial": 188, "trialdata": {"rt": -1, "trial_type": "single-stim", "stimulus": "<p id=\"stim\">8</p>", "internal_node_id": "0.0-141.0-2.0", "time_elapsed": 983195, "key_press": -1, "trial_index": 188}, "uniqueid": "MTK1617:34V1S5K3GT8HQ9V4BJYEY7VPLUX69V", "dateTime": 1516052703955}, {"current_trial": 189, "trialdata": {"rt": -1, "trial_type": "single-stim", "stimulus": "<p id=\"stim\">7</p>", "internal_node_id": "0.0-141.0-3.0", "time_elapsed": 984196, "key_press": -1, "trial_index": 189}, "uniqueid": "MTK1617:34V1S5K3GT8HQ9V4BJYEY7VPLUX69V", "dateTime": 1516052704956}, {"current_trial": 190, "trialdata": {"rt": -1, "trial_type": "single-stim", "stimulus": "<p id=\"stim\">6</p>", "internal_node_id": "0.0-141.0-4.0", "time_elapsed": 985197, "key_press": -1, "trial_index": 190}, "uniqueid": "MTK1617:34V1S5K3GT8HQ9V4BJYEY7VPLUX69V", "dateTime": 1516052705957}, {"current_trial": 191, "trialdata": {"rt": -1, "trial_type": "single-stim", "stimulus": "<p id=\"stim\">5</p>", "internal_node_id": "0.0-141.0-5.0", "time_elapsed": 986199, "key_press": -1, "trial_index": 191}, "uniqueid": "MTK1617:34V1S5K3GT8HQ9V4BJYEY7VPLUX69V", "dateTime": 1516052706959}, {"current_trial": 192, "trialdata": {"rt": -1, "trial_type": "single-stim", "stimulus": "<p id=\"stim\">4</p>", "internal_node_id": "0.0-141.0-6.0", "time_elapsed": 987200, "key_press": -1, "trial_index": 192}, "uniqueid": "MTK1617:34V1S5K3GT8HQ9V4BJYEY7VPLUX69V", "dateTime": 1516052707960}, {"current_trial": 193, "trialdata": {"rt": -1, "trial_type": "single-stim", "stimulus": "<p id=\"stim\">3</p>", "internal_node_id": "0.0-141.0-7.0", "time_elapsed": 988201, "key_press": -1, "trial_index": 193}, "uniqueid": "MTK1617:34V1S5K3GT8HQ9V4BJYEY7VPLUX69V", "dateTime": 1516052708961}, {"current_trial": 194, "trialdata": {"rt": -1, "trial_type": "single-stim", "stimulus": "<p id=\"stim\">2</p>", "internal_node_id": "0.0-141.0-8.0", "time_elapsed": 989202, "key_press": -1, "trial_index": 194}, "uniqueid": "MTK1617:34V1S5K3GT8HQ9V4BJYEY7VPLUX69V", "dateTime": 1516052709962}, {"current_trial": 195, "trialdata": {"rt": -1, "trial_type": "single-stim", "stimulus": "<p id=\"stim\">1</p>", "internal_node_id": "0.0-141.0-9.0", "time_elapsed": 990203, "key_press": -1, "trial_index": 195}, "uniqueid": "MTK1617:34V1S5K3GT8HQ9V4BJYEY7VPLUX69V", "dateTime": 1516052710963}, {"current_trial": 196, "trialdata": {"rt": -1, "trial_type": "single-stim", "stimulus": "<p id=\"stim\">+</p>", "internal_node_id": "0.0-142.0-0.0", "time_elapsed": 991704, "key_press": -1, "type": "FIXATION", "trial_index": 196}, "uniqueid": "MTK1617:34V1S5K3GT8HQ9V4BJYEY7VPLUX69V", "dateTime": 1516052712464}, {"current_trial": 197, "trialdata": {"rt": -1000, "trial_type": "single-audio", "word": "piston", "stimulus": "/static/audio/wordpool/PISTON.wav", "conditions": [12, 800, "a", 24000], "internal_node_id": "0.0-143.0", "trial": 5, "time_elapsed": 993655, "serialpos": 0, "key_press": -1, "wordID": 1075, "type": "PRES_AUD", "trial_index": 197}, "uniqueid": "MTK1617:34V1S5K3GT8HQ9V4BJYEY7VPLUX69V", "dateTime": 1516052714415}, {"current_trial": 198, "trialdata": {"rt": -1000, "trial_type": "single-audio", "word": "poison", "stimulus": "/static/audio/wordpool/POISON.wav", "conditions": [12, 800, "a", 24000], "internal_node_id": "0.0-144.0", "trial": 5, "time_elapsed": 995588, "serialpos": 1, "key_press": -1, "wordID": 1095, "type": "PRES_AUD", "trial_index": 198}, "uniqueid": "MTK1617:34V1S5K3GT8HQ9V4BJYEY7VPLUX69V", "dateTime": 1516052716348}, {"current_trial": 199, "trialdata": {"rt": -1000, "trial_type": "single-audio", "word": "atlas", "stimulus": "/static/audio/wordpool/ATLAS.wav", "conditions": [12, 800, "a", 24000], "internal_node_id": "0.0-145.0", "trial": 5, "time_elapsed": 997201, "serialpos": 2, "key_press": -1, "wordID": 52, "type": "PRES_AUD", "trial_index": 199}, "uniqueid": "MTK1617:34V1S5K3GT8HQ9V4BJYEY7VPLUX69V", "dateTime": 1516052717961}, {"current_trial": 200, "trialdata": {"rt": -1000, "trial_type": "single-audio", "word": "grave", "stimulus": "/static/audio/wordpool/GRAVE.wav", "conditions": [12, 800, "a", 24000], "internal_node_id": "0.0-146.0", "trial": 5, "time_elapsed": 999164, "serialpos": 3, "key_press": -1, "wordID": 657, "type": "PRES_AUD", "trial_index": 200}, "uniqueid": "MTK1617:34V1S5K3GT8HQ9V4BJYEY7VPLUX69V", "dateTime": 1516052719924}, {"current_trial": 201, "trialdata": {"rt": -1000, "trial_type": "single-audio", "word": "wardrobe", "stimulus": "/static/audio/wordpool/WARDROBE.wav", "conditions": [12, 800, "a", 24000], "internal_node_id": "0.0-147.0", "trial": 5, "time_elapsed": 1000958, "serialpos": 4, "key_press": -1, "wordID": 1586, "type": "PRES_AUD", "trial_index": 201}, "uniqueid": "MTK1617:34V1S5K3GT8HQ9V4BJYEY7VPLUX69V", "dateTime": 1516052721718}, {"current_trial": 202, "trialdata": {"rt": -1000, "trial_type": "single-audio", "word": "costume", "stimulus": "/static/audio/wordpool/COSTUME.wav", "conditions": [12, 800, "a", 24000], "internal_node_id": "0.0-148.0", "trial": 5, "time_elapsed": 1002916, "serialpos": 5, "key_press": -1, "wordID": 382, "type": "PRES_AUD", "trial_index": 202}, "uniqueid": "MTK1617:34V1S5K3GT8HQ9V4BJYEY7VPLUX69V", "dateTime": 1516052723676}, {"current_trial": 203, "trialdata": {"rt": -1000, "trial_type": "single-audio", "word": "hiker", "stimulus": "/static/audio/wordpool/HIKER.wav", "conditions": [12, 800, "a", 24000], "internal_node_id": "0.0-149.0", "trial": 5, "time_elapsed": 1004599, "serialpos": 6, "key_press": -1, "wordID": 707, "type": "PRES_AUD", "trial_index": 203}, "uniqueid": "MTK1617:34V1S5K3GT8HQ9V4BJYEY7VPLUX69V", "dateTime": 1516052725360}, {"current_trial": 204, "trialdata": {"rt": -1000, "trial_type": "single-audio", "word": "valve", "stimulus": "/static/audio/wordpool/VALVE.wav", "conditions": [12, 800, "a", 24000], "internal_node_id": "0.0-150.0", "trial": 5, "time_elapsed": 1006409, "serialpos": 7, "key_press": -1, "wordID": 1545, "type": "PRES_AUD", "trial_index": 204}, "uniqueid": "MTK1617:34V1S5K3GT8HQ9V4BJYEY7VPLUX69V", "dateTime": 1516052727170}, {"current_trial": 205, "trialdata": {"rt": -1000, "trial_type": "single-audio", "word": "valley", "stimulus": "/static/audio/wordpool/VALLEY.wav", "conditions": [12, 800, "a", 24000], "internal_node_id": "0.0-151.0", "trial": 5, "time_elapsed": 1008084, "serialpos": 8, "key_press": -1, "wordID": 1544, "type": "PRES_AUD", "trial_index": 205}, "uniqueid": "MTK1617:34V1S5K3GT8HQ9V4BJYEY7VPLUX69V", "dateTime": 1516052728845}, {"current_trial": 206, "trialdata": {"rt": -1000, "trial_type": "single-audio", "word": "fungus", "stimulus": "/static/audio/wordpool/FUNGUS.wav", "conditions": [12, 800, "a", 24000], "internal_node_id": "0.0-152.0", "trial": 5, "time_elapsed": 1009902, "serialpos": 9, "key_press": -1, "wordID": 613, "type": "PRES_AUD", "trial_index": 206}, "uniqueid": "MTK1617:34V1S5K3GT8HQ9V4BJYEY7VPLUX69V", "dateTime": 1516052730662}, {"current_trial": 207, "trialdata": {"rt": -1000, "trial_type": "single-audio", "word": "parrot", "stimulus": "/static/audio/wordpool/PARROT.wav", "conditions": [12, 800, "a", 24000], "internal_node_id": "0.0-153.0", "trial": 5, "time_elapsed": 1011710, "serialpos": 10, "key_press": -1, "wordID": 1014, "type": "PRES_AUD", "trial_index": 207}, "uniqueid": "MTK1617:34V1S5K3GT8HQ9V4BJYEY7VPLUX69V", "dateTime": 1516052732470}, {"current_trial": 208, "trialdata": {"rt": -1000, "trial_type": "single-audio", "word": "brook", "stimulus": "/static/audio/wordpool/BROOK.wav", "conditions": [12, 800, "a", 24000], "internal_node_id": "0.0-154.0", "trial": 5, "time_elapsed": 1013685, "serialpos": 11, "key_press": -1, "wordID": 176, "type": "PRES_AUD", "trial_index": 208}, "uniqueid": "MTK1617:34V1S5K3GT8HQ9V4BJYEY7VPLUX69V", "dateTime": 1516052734445}, {"current_trial": 209, "trialdata": {"rt": -1, "trial_type": "single-stim", "stimulus": "", "internal_node_id": "0.0-155.0-0.0", "time_elapsed": 1014905, "key_press": -1, "type": "PRE_RECALL_DELAY", "trial_index": 209}, "uniqueid": "MTK1617:34V1S5K3GT8HQ9V4BJYEY7VPLUX69V", "dateTime": 1516052735665}, {"current_trial": 210, "trialdata": {"rt": -1000, "trial_type": "single-audio", "stimulus": "/static/audio/400Hz.wav", "internal_node_id": "0.0-156.0", "time_elapsed": 1015407, "key_press": -1, "type": "PRE_RECALL_ALERT", "trial_index": 210}, "uniqueid": "MTK1617:34V1S5K3GT8HQ9V4BJYEY7VPLUX69V", "dateTime": 1516052736167}, {"current_trial": 211, "trialdata": {"rt": [5629, 9770, 14970, 20033, 27281, 33006, 35585, 39150, 42552, 56022], "recwords": ["brook", "paris", "fungus", "hiker", "wardrobe", "dream", "sister", "poison", "atlas", "valor"], "key_times": [3995, 4449, 4953, 5101, 5341, 5629, 7516, 8079, 8330, 8885, 9351, 9770, 12550, 13068, 13405, 13740, 14114, 14512, 14970, 18328, 18822, 19032, 19470, 19651, 20033, 20441, 21515, 22057, 24121, 24294, 24907, 25148, 25538, 26089, 26566, 26915, 27281, 29451, 29622, 29838, 30090, 30754, 31571, 31954, 32629, 33006, 33428, 34079, 34482, 34832, 35067, 35219, 35585, 36907, 37101, 37487, 37912, 38602, 38917, 39150, 40541, 41087, 41589, 42038, 42208, 42552, 53443, 53842, 54439, 54656, 55349, 56022], "trial_type": "free-recall", "conditions": [12, 800, "a", 24000], "internal_node_id": "0.0-157.0-0.0", "key_presses": [66, 82, 79, 79, 75, 32, 80, 65, 82, 73, 83, 32, 70, 85, 78, 71, 85, 83, 32, 72, 73, 75, 69, 82, 32, 67, 37, 46, 87, 65, 82, 68, 82, 79, 66, 69, 32, 68, 82, 69, 65, 78, 37, 77, 46, 32, 83, 73, 83, 84, 69, 82, 32, 80, 79, 73, 83, 79, 78, 32, 65, 84, 76, 65, 83, 32, 86, 65, 76, 79, 82, 13], "trial": 5, "time_elapsed": 1075412, "type": "FREE_RECALL", "trial_index": 211}, "uniqueid": "MTK1617:34V1S5K3GT8HQ9V4BJYEY7VPLUX69V", "dateTime": 1516052796179}, {"current_trial": 212, "trialdata": {"rt": 2769, "trial_type": "text", "internal_node_id": "0.0-158.0", "time_elapsed": 1080190, "key_press": 13, "type": "INSTRUCTIONS", "trial_index": 212}, "uniqueid": "MTK1617:34V1S5K3GT8HQ9V4BJYEY7VPLUX69V", "dateTime": 1516052800950}, {"current_trial": 213, "trialdata": {"rt": [3131, 5827, 8126, 11907], "trial_type": "math-distractor", "key_times": [1876, 2464, 3131, 5302, 5827, 7519, 8126, 10566, 11363, 11907], "responses": ["14", "9", "8", "17"], "num2": [4, 1, 1, 7, 4], "num3": [2, 3, 6, 5, 7], "conditions": [24, 1600, "a", 12000], "internal_node_id": "0.0-159.0", "key_presses": [49, 52, 13, 57, 13, 56, 13, 49, 55, 13], "trial": 6, "time_elapsed": 1094195, "type": "DISTRACTOR", "trial_index": 213, "num1": [8, 5, 1, 5, 6]}, "uniqueid": "MTK1617:34V1S5K3GT8HQ9V4BJYEY7VPLUX69V", "dateTime": 1516052814955}, {"current_trial": 214, "trialdata": {"rt": -1, "trial_type": "single-stim", "stimulus": "<p id=\"stim\">10</p>", "internal_node_id": "0.0-160.0-0.0", "time_elapsed": 1097198, "key_press": -1, "trial_index": 214}, "uniqueid": "MTK1617:34V1S5K3GT8HQ9V4BJYEY7VPLUX69V", "dateTime": 1516052817958}, {"current_trial": 215, "trialdata": {"rt": -1, "trial_type": "single-stim", "stimulus": "<p id=\"stim\">9</p>", "internal_node_id": "0.0-160.0-1.0", "time_elapsed": 1098200, "key_press": -1, "trial_index": 215}, "uniqueid": "MTK1617:34V1S5K3GT8HQ9V4BJYEY7VPLUX69V", "dateTime": 1516052818960}, {"current_trial": 216, "trialdata": {"rt": -1, "trial_type": "single-stim", "stimulus": "<p id=\"stim\">8</p>", "internal_node_id": "0.0-160.0-2.0", "time_elapsed": 1099202, "key_press": -1, "trial_index": 216}, "uniqueid": "MTK1617:34V1S5K3GT8HQ9V4BJYEY7VPLUX69V", "dateTime": 1516052819962}, {"current_trial": 217, "trialdata": {"rt": -1, "trial_type": "single-stim", "stimulus": "<p id=\"stim\">7</p>", "internal_node_id": "0.0-160.0-3.0", "time_elapsed": 1100203, "key_press": -1, "trial_index": 217}, "uniqueid": "MTK1617:34V1S5K3GT8HQ9V4BJYEY7VPLUX69V", "dateTime": 1516052820963}, {"current_trial": 218, "trialdata": {"rt": -1, "trial_type": "single-stim", "stimulus": "<p id=\"stim\">6</p>", "internal_node_id": "0.0-160.0-4.0", "time_elapsed": 1101205, "key_press": -1, "trial_index": 218}, "uniqueid": "MTK1617:34V1S5K3GT8HQ9V4BJYEY7VPLUX69V", "dateTime": 1516052821965}, {"current_trial": 219, "trialdata": {"rt": -1, "trial_type": "single-stim", "stimulus": "<p id=\"stim\">5</p>", "internal_node_id": "0.0-160.0-5.0", "time_elapsed": 1102206, "key_press": -1, "trial_index": 219}, "uniqueid": "MTK1617:34V1S5K3GT8HQ9V4BJYEY7VPLUX69V", "dateTime": 1516052822966}, {"current_trial": 220, "trialdata": {"rt": -1, "trial_type": "single-stim", "stimulus": "<p id=\"stim\">4</p>", "internal_node_id": "0.0-160.0-6.0", "time_elapsed": 1103208, "key_press": -1, "trial_index": 220}, "uniqueid": "MTK1617:34V1S5K3GT8HQ9V4BJYEY7VPLUX69V", "dateTime": 1516052823969}, {"current_trial": 221, "trialdata": {"rt": -1, "trial_type": "single-stim", "stimulus": "<p id=\"stim\">3</p>", "internal_node_id": "0.0-160.0-7.0", "time_elapsed": 1104210, "key_press": -1, "trial_index": 221}, "uniqueid": "MTK1617:34V1S5K3GT8HQ9V4BJYEY7VPLUX69V", "dateTime": 1516052824970}, {"current_trial": 222, "trialdata": {"rt": -1, "trial_type": "single-stim", "stimulus": "<p id=\"stim\">2</p>", "internal_node_id": "0.0-160.0-8.0", "time_elapsed": 1105211, "key_press": -1, "trial_index": 222}, "uniqueid": "MTK1617:34V1S5K3GT8HQ9V4BJYEY7VPLUX69V", "dateTime": 1516052825971}, {"current_trial": 223, "trialdata": {"rt": -1, "trial_type": "single-stim", "stimulus": "<p id=\"stim\">1</p>", "internal_node_id": "0.0-160.0-9.0", "time_elapsed": 1106212, "key_press": -1, "trial_index": 223}, "uniqueid": "MTK1617:34V1S5K3GT8HQ9V4BJYEY7VPLUX69V", "dateTime": 1516052826972}, {"current_trial": 224, "trialdata": {"rt": -1, "trial_type": "single-stim", "stimulus": "<p id=\"stim\">+</p>", "internal_node_id": "0.0-161.0-0.0", "time_elapsed": 1107714, "key_press": -1, "type": "FIXATION", "trial_index": 224}, "uniqueid": "MTK1617:34V1S5K3GT8HQ9V4BJYEY7VPLUX69V", "dateTime": 1516052828475}, {"current_trial": 225, "trialdata": {"rt": -1000, "trial_type": "single-audio", "word": "crab", "stimulus": "/static/audio/wordpool/CRAB.wav", "conditions": [24, 1600, "a", 12000], "internal_node_id": "0.0-162.0", "trial": 6, "time_elapsed": 1110445, "serialpos": 0, "key_press": -1, "wordID": 396, "type": "PRES_AUD", "trial_index": 225}, "uniqueid": "MTK1617:34V1S5K3GT8HQ9V4BJYEY7VPLUX69V", "dateTime": 1516052831206}, {"current_trial": 226, "trialdata": {"rt": -1000, "trial_type": "single-audio", "word": "country", "stimulus": "/static/audio/wordpool/COUNTRY.wav", "conditions": [24, 1600, "a", 12000], "internal_node_id": "0.0-163.0", "trial": 6, "time_elapsed": 1113080, "serialpos": 1, "key_press": -1, "wordID": 387, "type": "PRES_AUD", "trial_index": 226}, "uniqueid": "MTK1617:34V1S5K3GT8HQ9V4BJYEY7VPLUX69V", "dateTime": 1516052833841}, {"current_trial": 227, "trialdata": {"rt": -1000, "trial_type": "single-audio", "word": "bunny", "stimulus": "/static/audio/wordpool/BUNNY.wav", "conditions": [24, 1600, "a", 12000], "internal_node_id": "0.0-164.0", "trial": 6, "time_elapsed": 1115537, "serialpos": 2, "key_press": -1, "wordID": 197, "type": "PRES_AUD", "trial_index": 227}, "uniqueid": "MTK1617:34V1S5K3GT8HQ9V4BJYEY7VPLUX69V", "dateTime": 1516052836298}, {"current_trial": 228, "trialdata": {"rt": -1000, "trial_type": "single-audio", "word": "puppy", "stimulus": "/static/audio/wordpool/PUPPY.wav", "conditions": [24, 1600, "a", 12000], "internal_node_id": "0.0-165.0", "trial": 6, "time_elapsed": 1118326, "serialpos": 3, "key_press": -1, "wordID": 1143, "type": "PRES_AUD", "trial_index": 228}, "uniqueid": "MTK1617:34V1S5K3GT8HQ9V4BJYEY7VPLUX69V", "dateTime": 1516052839086}, {"current_trial": 229, "trialdata": {"rt": -1000, "trial_type": "single-audio", "word": "empire", "stimulus": "/static/audio/wordpool/EMPIRE.wav", "conditions": [24, 1600, "a", 12000], "internal_node_id": "0.0-166.0", "trial": 6, "time_elapsed": 1120964, "serialpos": 4, "key_press": -1, "wordID": 529, "type": "PRES_AUD", "trial_index": 229}, "uniqueid": "MTK1617:34V1S5K3GT8HQ9V4BJYEY7VPLUX69V", "dateTime": 1516052841724}, {"current_trial": 230, "trialdata": {"rt": -1000, "trial_type": "single-audio", "word": "scotch", "stimulus": "/static/audio/wordpool/SCOTCH.wav", "conditions": [24, 1600, "a", 12000], "internal_node_id": "0.0-167.0", "trial": 6, "time_elapsed": 1123660, "serialpos": 5, "key_press": -1, "wordID": 1250, "type": "PRES_AUD", "trial_index": 230}, "uniqueid": "MTK1617:34V1S5K3GT8HQ9V4BJYEY7VPLUX69V", "dateTime": 1516052844420}, {"current_trial": 231, "trialdata": {"rt": -1000, "trial_type": "single-audio", "word": "wasp", "stimulus": "/static/audio/wordpool/WASP.wav", "conditions": [24, 1600, "a", 12000], "internal_node_id": "0.0-168.0", "trial": 6, "time_elapsed": 1126428, "serialpos": 6, "key_press": -1, "wordID": 1592, "type": "PRES_AUD", "trial_index": 231}, "uniqueid": "MTK1617:34V1S5K3GT8HQ9V4BJYEY7VPLUX69V", "dateTime": 1516052847188}, {"current_trial": 232, "trialdata": {"rt": -1000, "trial_type": "single-audio", "word": "office", "stimulus": "/static/audio/wordpool/OFFICE.wav", "conditions": [24, 1600, "a", 12000], "internal_node_id": "0.0-169.0", "trial": 6, "time_elapsed": 1128902, "serialpos": 7, "key_press": -1, "wordID": 971, "type": "PRES_AUD", "trial_index": 232}, "uniqueid": "MTK1617:34V1S5K3GT8HQ9V4BJYEY7VPLUX69V", "dateTime": 1516052849662}, {"current_trial": 233, "trialdata": {"rt": -1000, "trial_type": "single-audio", "word": "lodge", "stimulus": "/static/audio/wordpool/LODGE.wav", "conditions": [24, 1600, "a", 12000], "internal_node_id": "0.0-170.0", "trial": 6, "time_elapsed": 1131673, "serialpos": 8, "key_press": -1, "wordID": 838, "type": "PRES_AUD", "trial_index": 233}, "uniqueid": "MTK1617:34V1S5K3GT8HQ9V4BJYEY7VPLUX69V", "dateTime": 1516052852433}, {"current_trial": 234, "trialdata": {"rt": -1000, "trial_type": "single-audio", "word": "cottage", "stimulus": "/static/audio/wordpool/COTTAGE.wav", "conditions": [24, 1600, "a", 12000], "internal_node_id": "0.0-171.0", "trial": 6, "time_elapsed": 1134265, "serialpos": 9, "key_press": -1, "wordID": 383, "type": "PRES_AUD", "trial_index": 234}, "uniqueid": "MTK1617:34V1S5K3GT8HQ9V4BJYEY7VPLUX69V", "dateTime": 1516052855025}, {"current_trial": 235, "trialdata": {"rt": -1000, "trial_type": "single-audio", "word": "frame", "stimulus": "/static/audio/wordpool/FRAME.wav", "conditions": [24, 1600, "a", 12000], "internal_node_id": "0.0-172.0", "trial": 6, "time_elapsed": 1136965, "serialpos": 10, "key_press": -1, "wordID": 599, "type": "PRES_AUD", "trial_index": 235}, "uniqueid": "MTK1617:34V1S5K3GT8HQ9V4BJYEY7VPLUX69V", "dateTime": 1516052857726}, {"current_trial": 236, "trialdata": {"rt": -1000, "trial_type": "single-audio", "word": "clam", "stimulus": "/static/audio/wordpool/CLAM.wav", "conditions": [24, 1600, "a", 12000], "internal_node_id": "0.0-173.0", "trial": 6, "time_elapsed": 1139749, "serialpos": 11, "key_press": -1, "wordID": 314, "type": "PRES_AUD", "trial_index": 236}, "uniqueid": "MTK1617:34V1S5K3GT8HQ9V4BJYEY7VPLUX69V", "dateTime": 1516052860510}, {"current_trial": 237, "trialdata": {"rt": -1000, "trial_type": "single-audio", "word": "lamp", "stimulus": "/static/audio/wordpool/LAMP.wav", "conditions": [24, 1600, "a", 12000], "internal_node_id": "0.0-174.0", "trial": 6, "time_elapsed": 1142484, "serialpos": 12, "key_press": -1, "wordID": 797, "type": "PRES_AUD", "trial_index": 237}, "uniqueid": "MTK1617:34V1S5K3GT8HQ9V4BJYEY7VPLUX69V", "dateTime": 1516052863244}, {"current_trial": 238, "trialdata": {"rt": -1000, "trial_type": "single-audio", "word": "tweezers", "stimulus": "/static/audio/wordpool/TWEEZERS.wav", "conditions": [24, 1600, "a", 12000], "internal_node_id": "0.0-175.0", "trial": 6, "time_elapsed": 1145123, "serialpos": 13, "key_press": -1, "wordID": 1525, "type": "PRES_AUD", "trial_index": 238}, "uniqueid": "MTK1617:34V1S5K3GT8HQ9V4BJYEY7VPLUX69V", "dateTime": 1516052865883}, {"current_trial": 239, "trialdata": {"rt": -1000, "trial_type": "single-audio", "word": "igloo", "stimulus": "/static/audio/wordpool/IGLOO.wav", "conditions": [24, 1600, "a", 12000], "internal_node_id": "0.0-176.0", "trial": 6, "time_elapsed": 1147886, "serialpos": 14, "key_press": -1, "wordID": 733, "type": "PRES_AUD", "trial_index": 239}, "uniqueid": "MTK1617:34V1S5K3GT8HQ9V4BJYEY7VPLUX69V", "dateTime": 1516052868646}, {"current_trial": 240, "trialdata": {"rt": -1000, "trial_type": "single-audio", "word": "cashier", "stimulus": "/static/audio/wordpool/CASHIER.wav", "conditions": [24, 1600, "a", 12000], "internal_node_id": "0.0-177.0", "trial": 6, "time_elapsed": 1150631, "serialpos": 15, "key_press": -1, "wordID": 253, "type": "PRES_AUD", "trial_index": 240}, "uniqueid": "MTK1617:34V1S5K3GT8HQ9V4BJYEY7VPLUX69V", "dateTime": 1516052871391}, {"current_trial": 241, "trialdata": {"rt": -1000, "trial_type": "single-audio", "word": "sunset", "stimulus": "/static/audio/wordpool/SUNSET.wav", "conditions": [24, 1600, "a", 12000], "internal_node_id": "0.0-178.0", "trial": 6, "time_elapsed": 1153056, "serialpos": 16, "key_press": -1, "wordID": 1407, "type": "PRES_AUD", "trial_index": 241}, "uniqueid": "MTK1617:34V1S5K3GT8HQ9V4BJYEY7VPLUX69V", "dateTime": 1516052873816}, {"current_trial": 242, "trialdata": {"rt": -1000, "trial_type": "single-audio", "word": "sunrise", "stimulus": "/static/audio/wordpool/SUNRISE.wav", "conditions": [24, 1600, "a", 12000], "internal_node_id": "0.0-179.0", "trial": 6, "time_elapsed": 1155625, "serialpos": 17, "key_press": -1, "wordID": 1406, "type": "PRES_AUD", "trial_index": 242}, "uniqueid": "MTK1617:34V1S5K3GT8HQ9V4BJYEY7VPLUX69V", "dateTime": 1516052876385}, {"current_trial": 243, "trialdata": {"rt": -1000, "trial_type": "single-audio", "word": "hand", "stimulus": "/static/audio/wordpool/HAND.wav", "conditions": [24, 1600, "a", 12000], "internal_node_id": "0.0-180.0", "trial": 6, "time_elapsed": 1158107, "serialpos": 18, "key_press": -1, "wordID": 682, "type": "PRES_AUD", "trial_index": 243}, "uniqueid": "MTK1617:34V1S5K3GT8HQ9V4BJYEY7VPLUX69V", "dateTime": 1516052878867}, {"current_trial": 244, "trialdata": {"rt": -1000, "trial_type": "single-audio", "word": "drill", "stimulus": "/static/audio/wordpool/DRILL.wav", "conditions": [24, 1600, "a", 12000], "internal_node_id": "0.0-181.0", "trial": 6, "time_elapsed": 1160559, "serialpos": 19, "key_press": -1, "wordID": 496, "type": "PRES_AUD", "trial_index": 244}, "uniqueid": "MTK1617:34V1S5K3GT8HQ9V4BJYEY7VPLUX69V", "dateTime": 1516052881319}, {"current_trial": 245, "trialdata": {"rt": -1000, "trial_type": "single-audio", "word": "blackboard", "stimulus": "/static/audio/wordpool/BLACKBOARD.wav", "conditions": [24, 1600, "a", 12000], "internal_node_id": "0.0-182.0", "trial": 6, "time_elapsed": 1163233, "serialpos": 20, "key_press": -1, "wordID": 132, "type": "PRES_AUD", "trial_index": 245}, "uniqueid": "MTK1617:34V1S5K3GT8HQ9V4BJYEY7VPLUX69V", "dateTime": 1516052883993}, {"current_trial": 246, "trialdata": {"rt": -1000, "trial_type": "single-audio", "word": "guitar", "stimulus": "/static/audio/wordpool/GUITAR.wav", "conditions": [24, 1600, "a", 12000], "internal_node_id": "0.0-183.0", "trial": 6, "time_elapsed": 1166011, "serialpos": 21, "key_press": -1, "wordID": 669, "type": "PRES_AUD", "trial_index": 246}, "uniqueid": "MTK1617:34V1S5K3GT8HQ9V4BJYEY7VPLUX69V", "dateTime": 1516052886771}, {"current_trial": 247, "trialdata": {"rt": -1000, "trial_type": "single-audio", "word": "waitress", "stimulus": "/static/audio/wordpool/WAITRESS.wav", "conditions": [24, 1600, "a", 12000], "internal_node