{"assignmentId": "324G5B4FB4FIYFLWUXKDBAUSCRL07P", "workerId": "MTK1456", "questiondata": {"origin": "United States", "strat-rehearsal": "90", "marital": "Married/Domestic Partnership", "education": "Bachelor's degree", "ethnicity": "Not Hispanic", "color_depth": 24, "distracted": "No", "wrote-notes": "No", "strat-other": "", "screen_width": 1366, "avail_screen_width": 1366, "avail_screen_height": 728, "strat-image": "90", "language": "English", "gender": "Female", "age": "32", "gender_other": "", "race": ["White"], "strat-categorize": "99", "pixel_depth": 24, "strat-spatial": "2", "strat-story": "77", "race_other": "", "screen_height": 768}, "bonus": 0, "hitId": "3UAU495MIIZ3CNRHJOAXMJ8A14ROU4", "counterbalance": 139, "useragent": "Mozilla/5.0 (Windows NT 10.0; Win64; x64) AppleWebKit/537.36 (KHTML, like Gecko) Chrome/63.0.3239.132 Safari/537.36", "eventdata": [{"eventtype": "initialized", "interval": 0, "value": null, "timestamp": 1515893219876}, {"eventtype": "window_resize", "interval": 0, "value": [1366, 677], "timestamp": 1515893219876}, {"eventtype": "focus", "interval": 4878, "value": "on", "timestamp": 1515893224754}, {"eventtype": "focus", "interval": 1052279, "value": "off", "timestamp": 1515894277033}, {"eventtype": "focus", "interval": 19721, "value": "on", "timestamp": 1515894296754}, {"eventtype": "focus", "interval": 3244, "value": "off", "timestamp": 1515894299998}, {"eventtype": "focus", "interval": 1523, "value": "on", "timestamp": 1515894301521}, {"eventtype": "focus", "interval": 813452, "value": "off", "timestamp": 1515895114973}, {"eventtype": "focus", "interval": 9082, "value": "on", "timestamp": 1515895124055}, {"eventtype": "focus", "interval": 207502, "value": "off", "timestamp": 1515895331557}, {"eventtype": "focus", "interval": 22951, "value": "on", "timestamp": 1515895354508}, {"eventtype": "focus", "interval": 153437, "value": "off", "timestamp": 1515895507945}, {"eventtype": "focus", "interval": 22881, "value": "on", "timestamp": 1515895530826}, {"eventtype": "focus", "interval": 425178, "value": "off", "timestamp": 1515895956004}, {"eventtype": "focus", "interval": 230860, "value": "on", "timestamp": 1515896186864}, {"eventtype": "focus", "interval": 204835, "value": "off", "timestamp": 1515896391699}, {"eventtype": "focus", "interval": 15072, "value": "on", "timestamp": 1515896406771}, {"eventtype": "focus", "interval": 599276, "value": "off", "timestamp": 1515897006047}, {"eventtype": "focus", "interval": 23897, "value": "on", "timestamp": 1515897029944}], "data": [{"current_trial": 0, "trialdata": {"rt": 1135, "trial_type": "text", "internal_node_id": "0.0-0.0", "time_elapsed": 1138, "key_press": 32, "type": "INSTRUCTIONS", "trial_index": 0}, "uniqueid": "MTK1456:324G5B4FB4FIYFLWUXKDBAUSCRL07P", "dateTime": 1515893229121}, {"current_trial": 1, "trialdata": {"rt": 5255, "trial_type": "text", "internal_node_id": "0.0-1.0", "time_elapsed": 6399, "key_press": 175, "type": "INSTRUCTIONS", "trial_index": 1}, "uniqueid": "MTK1456:324G5B4FB4FIYFLWUXKDBAUSCRL07P", "dateTime": 1515893234380}, {"current_trial": 2, "trialdata": {"rt": [11643], "trial_type": "audio-test", "responses": ["ocean"], "internal_node_id": "0.0-2.0", "time_elapsed": 18066, "type": "AUDIO_TEST", "trial_index": 2}, "uniqueid": "MTK1456:324G5B4FB4FIYFLWUXKDBAUSCRL07P", "dateTime": 1515893246047}, {"current_trial": 3, "trialdata": {"rt": [5837], "trial_type": "audio-test", "responses": ["crystal"], "internal_node_id": "0.0-3.0", "time_elapsed": 23907, "type": "AUDIO_TEST", "trial_index": 3}, "uniqueid": "MTK1456:324G5B4FB4FIYFLWUXKDBAUSCRL07P", "dateTime": 1515893251888}, {"current_trial": 4, "trialdata": {"rt": [5256], "trial_type": "audio-test", "responses": ["spice"], "internal_node_id": "0.0-4.0", "time_elapsed": 29167, "type": "AUDIO_TEST", "trial_index": 4}, "uniqueid": "MTK1456:324G5B4FB4FIYFLWUXKDBAUSCRL07P", "dateTime": 1515893257148}, {"current_trial": 5, "trialdata": {"rt": 20629, "trial_type": "survey-text", "responses": "{\"Q0\":\"11pm\",\"Q1\":\"8am\",\"Q2\":\"4\"}", "internal_node_id": "0.0-5.0", "time_elapsed": 50551, "type": "SLEEP_SURVEY", "trial_index": 5}, "uniqueid": "MTK1456:324G5B4FB4FIYFLWUXKDBAUSCRL07P", "dateTime": 1515893278532}, {"current_trial": 6, "trialdata": {"rt": 33191, "trial_type": "text", "internal_node_id": "0.0-6.0", "time_elapsed": 84744, "key_press": 32, "type": "INSTRUCTIONS", "trial_index": 6}, "uniqueid": "MTK1456:324G5B4FB4FIYFLWUXKDBAUSCRL07P", "dateTime": 1515893312725}, {"current_trial": 7, "trialdata": {"rt": 10726, "trial_type": "text", "internal_node_id": "0.0-7.0", "time_elapsed": 95971, "key_press": 32, "type": "INSTRUCTIONS", "trial_index": 7}, "uniqueid": "MTK1456:324G5B4FB4FIYFLWUXKDBAUSCRL07P", "dateTime": 1515893323953}, {"current_trial": 8, "trialdata": {"rt": 4905, "trial_type": "text", "internal_node_id": "0.0-8.0", "time_elapsed": 101379, "key_press": 32, "type": "INSTRUCTIONS", "trial_index": 8}, "uniqueid": "MTK1456:324G5B4FB4FIYFLWUXKDBAUSCRL07P", "dateTime": 1515893329360}, {"current_trial": 9, "trialdata": {"rt": [3320, 7001, 9821, 12112], "trial_type": "math-distractor", "key_times": [2658, 2917, 3320, 6313, 6611, 7001, 9246, 9385, 9821, 11736, 11907, 12112, 17445, 17894], "responses": ["17", "20", "10", "14"], "num2": [1, 2, 3, 7, 3], "num3": [8, 9, 2, 4, 8], "conditions": [18, 1200, "a", 18000], "internal_node_id": "0.0-9.0", "key_presses": [97, 103, 13, 98, 96, 13, 97, 96, 13, 97, 100, 13, 97, 102], "trial": 0, "time_elapsed": 120388, "type": "DISTRACTOR", "trial_index": 9, "num1": [8, 9, 5, 3, 5]}, "uniqueid": "MTK1456:324G5B4FB4FIYFLWUXKDBAUSCRL07P", "dateTime": 1515893348369}, {"current_trial": 10, "trialdata": {"rt": -1, "trial_type": "single-stim", "stimulus": "<p id=\"stim\">10</p>", "internal_node_id": "0.0-10.0-0.0", "time_elapsed": 123391, "key_press": -1, "trial_index": 10}, "uniqueid": "MTK1456:324G5B4FB4FIYFLWUXKDBAUSCRL07P", "dateTime": 1515893351372}, {"current_trial": 11, "trialdata": {"rt": -1, "trial_type": "single-stim", "stimulus": "<p id=\"stim\">9</p>", "internal_node_id": "0.0-10.0-1.0", "time_elapsed": 124393, "key_press": -1, "trial_index": 11}, "uniqueid": "MTK1456:324G5B4FB4FIYFLWUXKDBAUSCRL07P", "dateTime": 1515893352374}, {"current_trial": 12, "trialdata": {"rt": -1, "trial_type": "single-stim", "stimulus": "<p id=\"stim\">8</p>", "internal_node_id": "0.0-10.0-2.0", "time_elapsed": 125395, "key_press": -1, "trial_index": 12}, "uniqueid": "MTK1456:324G5B4FB4FIYFLWUXKDBAUSCRL07P", "dateTime": 1515893353376}, {"current_trial": 13, "trialdata": {"rt": -1, "trial_type": "single-stim", "stimulus": "<p id=\"stim\">7</p>", "internal_node_id": "0.0-10.0-3.0", "time_elapsed": 126398, "key_press": -1, "trial_index": 13}, "uniqueid": "MTK1456:324G5B4FB4FIYFLWUXKDBAUSCRL07P", "dateTime": 1515893354379}, {"current_trial": 14, "trialdata": {"rt": -1, "trial_type": "single-stim", "stimulus": "<p id=\"stim\">6</p>", "internal_node_id": "0.0-10.0-4.0", "time_elapsed": 127400, "key_press": -1, "trial_index": 14}, "uniqueid": "MTK1456:324G5B4FB4FIYFLWUXKDBAUSCRL07P", "dateTime": 1515893355381}, {"current_trial": 15, "trialdata": {"rt": -1, "trial_type": "single-stim", "stimulus": "<p id=\"stim\">5</p>", "internal_node_id": "0.0-10.0-5.0", "time_elapsed": 128401, "key_press": -1, "trial_index": 15}, "uniqueid": "MTK1456:324G5B4FB4FIYFLWUXKDBAUSCRL07P", "dateTime": 1515893356383}, {"current_trial": 16, "trialdata": {"rt": -1, "trial_type": "single-stim", "stimulus": "<p id=\"stim\">4</p>", "internal_node_id": "0.0-10.0-6.0", "time_elapsed": 129404, "key_press": -1, "trial_index": 16}, "uniqueid": "MTK1456:324G5B4FB4FIYFLWUXKDBAUSCRL07P", "dateTime": 1515893357386}, {"current_trial": 17, "trialdata": {"rt": -1, "trial_type": "single-stim", "stimulus": "<p id=\"stim\">3</p>", "internal_node_id": "0.0-10.0-7.0", "time_elapsed": 130406, "key_press": -1, "trial_index": 17}, "uniqueid": "MTK1456:324G5B4FB4FIYFLWUXKDBAUSCRL07P", "dateTime": 1515893358387}, {"current_trial": 18, "trialdata": {"rt": -1, "trial_type": "single-stim", "stimulus": "<p id=\"stim\">2</p>", "internal_node_id": "0.0-10.0-8.0", "time_elapsed": 131407, "key_press": -1, "trial_index": 18}, "uniqueid": "MTK1456:324G5B4FB4FIYFLWUXKDBAUSCRL07P", "dateTime": 1515893359389}, {"current_trial": 19, "trialdata": {"rt": -1, "trial_type": "single-stim", "stimulus": "<p id=\"stim\">1</p>", "internal_node_id": "0.0-10.0-9.0", "time_elapsed": 132409, "key_press": -1, "trial_index": 19}, "uniqueid": "MTK1456:324G5B4FB4FIYFLWUXKDBAUSCRL07P", "dateTime": 1515893360390}, {"current_trial": 20, "trialdata": {"rt": -1, "trial_type": "single-stim", "stimulus": "<p id=\"stim\">+</p>", "internal_node_id": "0.0-11.0-0.0", "time_elapsed": 133929, "key_press": -1, "type": "FIXATION", "trial_index": 20}, "uniqueid": "MTK1456:324G5B4FB4FIYFLWUXKDBAUSCRL07P", "dateTime": 1515893361910}, {"current_trial": 21, "trialdata": {"rt": -1000, "trial_type": "single-audio", "word": "laser", "stimulus": "/static/audio/wordpool/LASER.wav", "conditions": [18, 1200, "a", 18000], "internal_node_id": "0.0-12.0", "trial": 0, "time_elapsed": 136091, "serialpos": 0, "key_press": -1, "wordID": 800, "type": "PRES_AUD", "trial_index": 21}, "uniqueid": "MTK1456:324G5B4FB4FIYFLWUXKDBAUSCRL07P", "dateTime": 1515893364073}, {"current_trial": 22, "trialdata": {"rt": -1000, "trial_type": "single-audio", "word": "dress", "stimulus": "/static/audio/wordpool/DRESS.wav", "conditions": [18, 1200, "a", 18000], "internal_node_id": "0.0-13.0", "trial": 0, "time_elapsed": 138477, "serialpos": 1, "key_press": -1, "wordID": 494, "type": "PRES_AUD", "trial_index": 22}, "uniqueid": "MTK1456:324G5B4FB4FIYFLWUXKDBAUSCRL07P", "dateTime": 1515893366458}, {"current_trial": 23, "trialdata": {"rt": -1000, "trial_type": "single-audio", "word": "clam", "stimulus": "/static/audio/wordpool/CLAM.wav", "conditions": [18, 1200, "a", 18000], "internal_node_id": "0.0-14.0", "trial": 0, "time_elapsed": 140832, "serialpos": 2, "key_press": -1, "wordID": 314, "type": "PRES_AUD", "trial_index": 23}, "uniqueid": "MTK1456:324G5B4FB4FIYFLWUXKDBAUSCRL07P", "dateTime": 1515893368814}, {"current_trial": 24, "trialdata": {"rt": -1000, "trial_type": "single-audio", "word": "tablet", "stimulus": "/static/audio/wordpool/TABLET.wav", "conditions": [18, 1200, "a", 18000], "internal_node_id": "0.0-15.0", "trial": 0, "time_elapsed": 142941, "serialpos": 3, "key_press": -1, "wordID": 1426, "type": "PRES_AUD", "trial_index": 24}, "uniqueid": "MTK1456:324G5B4FB4FIYFLWUXKDBAUSCRL07P", "dateTime": 1515893370922}, {"current_trial": 25, "trialdata": {"rt": -1000, "trial_type": "single-audio", "word": "lion", "stimulus": "/static/audio/wordpool/LION.wav", "conditions": [18, 1200, "a", 18000], "internal_node_id": "0.0-16.0", "trial": 0, "time_elapsed": 145102, "serialpos": 4, "key_press": -1, "wordID": 826, "type": "PRES_AUD", "trial_index": 25}, "uniqueid": "MTK1456:324G5B4FB4FIYFLWUXKDBAUSCRL07P", "dateTime": 1515893373083}, {"current_trial": 26, "trialdata": {"rt": -1000, "trial_type": "single-audio", "word": "garden", "stimulus": "/static/audio/wordpool/GARDEN.wav", "conditions": [18, 1200, "a", 18000], "internal_node_id": "0.0-17.0", "trial": 0, "time_elapsed": 147450, "serialpos": 5, "key_press": -1, "wordID": 622, "type": "PRES_AUD", "trial_index": 26}, "uniqueid": "MTK1456:324G5B4FB4FIYFLWUXKDBAUSCRL07P", "dateTime": 1515893375431}, {"current_trial": 27, "trialdata": {"rt": -1000, "trial_type": "single-audio", "word": "sphinx", "stimulus": "/static/audio/wordpool/SPHINX.wav", "conditions": [18, 1200, "a", 18000], "internal_node_id": "0.0-18.0", "trial": 0, "time_elapsed": 149585, "serialpos": 6, "key_press": -1, "wordID": 1348, "type": "PRES_AUD", "trial_index": 27}, "uniqueid": "MTK1456:324G5B4FB4FIYFLWUXKDBAUSCRL07P", "dateTime": 1515893377566}, {"current_trial": 28, "trialdata": {"rt": -1000, "trial_type": "single-audio", "word": "buggy", "stimulus": "/static/audio/wordpool/BUGGY.wav", "conditions": [18, 1200, "a", 18000], "internal_node_id": "0.0-19.0", "trial": 0, "time_elapsed": 151794, "serialpos": 7, "key_press": -1, "wordID": 187, "type": "PRES_AUD", "trial_index": 28}, "uniqueid": "MTK1456:324G5B4FB4FIYFLWUXKDBAUSCRL07P", "dateTime": 1515893379775}, {"current_trial": 29, "trialdata": {"rt": -1000, "trial_type": "single-audio", "word": "poison", "stimulus": "/static/audio/wordpool/POISON.wav", "conditions": [18, 1200, "a", 18000], "internal_node_id": "0.0-20.0", "trial": 0, "time_elapsed": 154154, "serialpos": 8, "key_press": -1, "wordID": 1095, "type": "PRES_AUD", "trial_index": 29}, "uniqueid": "MTK1456:324G5B4FB4FIYFLWUXKDBAUSCRL07P", "dateTime": 1515893382135}, {"current_trial": 30, "trialdata": {"rt": -1000, "trial_type": "single-audio", "word": "pigment", "stimulus": "/static/audio/wordpool/PIGMENT.wav", "conditions": [18, 1200, "a", 18000], "internal_node_id": "0.0-21.0", "trial": 0, "time_elapsed": 156436, "serialpos": 9, "key_press": -1, "wordID": 1065, "type": "PRES_AUD", "trial_index": 30}, "uniqueid": "MTK1456:324G5B4FB4FIYFLWUXKDBAUSCRL07P", "dateTime": 1515893384417}, {"current_trial": 31, "trialdata": {"rt": -1000, "trial_type": "single-audio", "word": "cabbage", "stimulus": "/static/audio/wordpool/CABBAGE.wav", "conditions": [18, 1200, "a", 18000], "internal_node_id": "0.0-22.0", "trial": 0, "time_elapsed": 158453, "serialpos": 10, "key_press": -1, "wordID": 209, "type": "PRES_AUD", "trial_index": 31}, "uniqueid": "MTK1456:324G5B4FB4FIYFLWUXKDBAUSCRL07P", "dateTime": 1515893386435}, {"current_trial": 32, "trialdata": {"rt": -1000, "trial_type": "single-audio", "word": "victim", "stimulus": "/static/audio/wordpool/VICTIM.wav", "conditions": [18, 1200, "a", 18000], "internal_node_id": "0.0-23.0", "trial": 0, "time_elapsed": 160601, "serialpos": 11, "key_press": -1, "wordID": 1561, "type": "PRES_AUD", "trial_index": 32}, "uniqueid": "MTK1456:324G5B4FB4FIYFLWUXKDBAUSCRL07P", "dateTime": 1515893388582}, {"current_trial": 33, "trialdata": {"rt": -1000, "trial_type": "single-audio", "word": "pliers", "stimulus": "/static/audio/wordpool/PLIERS.wav", "conditions": [18, 1200, "a", 18000], "internal_node_id": "0.0-24.0", "trial": 0, "time_elapsed": 162838, "serialpos": 12, "key_press": -1, "wordID": 1088, "type": "PRES_AUD", "trial_index": 33}, "uniqueid": "MTK1456:324G5B4FB4FIYFLWUXKDBAUSCRL07P", "dateTime": 1515893390819}, {"current_trial": 34, "trialdata": {"rt": -1000, "trial_type": "single-audio", "word": "mattress", "stimulus": "/static/audio/wordpool/MATTRESS.wav", "conditions": [18, 1200, "a", 18000], "internal_node_id": "0.0-25.0", "trial": 0, "time_elapsed": 165122, "serialpos": 13, "key_press": -1, "wordID": 878, "type": "PRES_AUD", "trial_index": 34}, "uniqueid": "MTK1456:324G5B4FB4FIYFLWUXKDBAUSCRL07P", "dateTime": 1515893393104}, {"current_trial": 35, "trialdata": {"rt": -1000, "trial_type": "single-audio", "word": "cousin", "stimulus": "/static/audio/wordpool/COUSIN.wav", "conditions": [18, 1200, "a", 18000], "internal_node_id": "0.0-26.0", "trial": 0, "time_elapsed": 167466, "serialpos": 14, "key_press": -1, "wordID": 391, "type": "PRES_AUD", "trial_index": 35}, "uniqueid": "MTK1456:324G5B4FB4FIYFLWUXKDBAUSCRL07P", "dateTime": 1515893395447}, {"current_trial": 36, "trialdata": {"rt": -1000, "trial_type": "single-audio", "word": "thread", "stimulus": "/static/audio/wordpool/THREAD.wav", "conditions": [18, 1200, "a", 18000], "internal_node_id": "0.0-27.0", "trial": 0, "time_elapsed": 169624, "serialpos": 15, "key_press": -1, "wordID": 1459, "type": "PRES_AUD", "trial_index": 36}, "uniqueid": "MTK1456:324G5B4FB4FIYFLWUXKDBAUSCRL07P", "dateTime": 1515893397606}, {"current_trial": 37, "trialdata": {"rt": -1000, "trial_type": "single-audio", "word": "monster", "stimulus": "/static/audio/wordpool/MONSTER.wav", "conditions": [18, 1200, "a", 18000], "internal_node_id": "0.0-28.0", "trial": 0, "time_elapsed": 171740, "serialpos": 16, "key_press": -1, "wordID": 911, "type": "PRES_AUD", "trial_index": 37}, "uniqueid": "MTK1456:324G5B4FB4FIYFLWUXKDBAUSCRL07P", "dateTime": 1515893399721}, {"current_trial": 38, "trialdata": {"rt": -1000, "trial_type": "single-audio", "word": "cyclone", "stimulus": "/static/audio/wordpool/CYCLONE.wav", "conditions": [18, 1200, "a", 18000], "internal_node_id": "0.0-29.0", "trial": 0, "time_elapsed": 174092, "serialpos": 17, "key_press": -1, "wordID": 430, "type": "PRES_AUD", "trial_index": 38}, "uniqueid": "MTK1456:324G5B4FB4FIYFLWUXKDBAUSCRL07P", "dateTime": 1515893402073}, {"current_trial": 39, "trialdata": {"rt": -1, "trial_type": "single-stim", "stimulus": "", "internal_node_id": "0.0-30.0-0.0", "time_elapsed": 175339, "key_press": -1, "type": "PRE_RECALL_DELAY", "trial_index": 39}, "uniqueid": "MTK1456:324G5B4FB4FIYFLWUXKDBAUSCRL07P", "dateTime": 1515893403320}, {"current_trial": 40, "trialdata": {"rt": -1000, "trial_type": "single-audio", "stimulus": "/static/audio/400Hz.wav", "internal_node_id": "0.0-31.0", "time_elapsed": 175844, "key_press": -1, "type": "PRE_RECALL_ALERT", "trial_index": 40}, "uniqueid": "MTK1456:324G5B4FB4FIYFLWUXKDBAUSCRL07P", "dateTime": 1515893403825}, {"current_trial": 41, "trialdata": {"rt": [4220, 5905, 7192, 10089, 11902, 13716, 16000, 18057, 20675, 23793, 25408, 26698, 29806, 31865, 33638], "recwords": ["laser", "clam", "tablet", "sphynx", "buggie", "poison", "lpyers", "cousin", "cyclone", "pigment", "lion", "tablet", "monster", "dress", "garden"], "key_times": [2969, 3116, 3363, 3496, 3590, 4220, 5070, 5191, 5252, 5701, 5905, 6460, 6559, 6687, 6793, 7000, 7067, 7192, 8175, 8264, 8375, 8566, 9277, 9775, 10089, 10805, 10877, 11007, 11143, 11237, 11306, 11902, 12806, 12889, 13142, 13327, 13432, 13509, 13716, 15046, 15057, 15205, 15585, 15635, 15785, 16000, 17328, 17473, 17560, 17672, 17775, 17876, 18057, 19784, 19926, 20069, 20193, 20369, 20453, 20575, 20675, 22748, 22853, 23088, 23236, 23405, 23598, 23677, 23793, 24838, 24986, 25164, 25249, 25408, 26107, 26257, 26339, 26396, 26505, 26588, 26698, 28890, 29017, 29111, 29371, 29488, 29569, 29690, 29806, 31146, 31255, 31410, 31567, 31766, 31865, 32882, 32972, 33084, 33323, 33481, 33567, 33638], "trial_type": "free-recall", "conditions": [18, 1200, "a", 18000], "internal_node_id": "0.0-32.0-0.0", "key_presses": [76, 65, 83, 69, 82, 13, 67, 76, 65, 77, 13, 84, 65, 66, 76, 69, 84, 13, 83, 80, 72, 89, 78, 88, 13, 66, 85, 71, 71, 73, 69, 13, 80, 79, 73, 83, 79, 78, 13, 76, 80, 89, 69, 82, 83, 13, 67, 79, 85, 83, 73, 78, 13, 67, 89, 67, 76, 79, 78, 69, 13, 80, 73, 71, 77, 69, 78, 84, 13, 76, 73, 79, 78, 13, 84, 65, 66, 76, 69, 84, 13, 77, 79, 78, 83, 84, 69, 82, 13, 68, 82, 69, 83, 83, 13, 71, 65, 82, 68, 69, 78, 13], "trial": 0, "time_elapsed": 235850, "type": "FREE_RECALL", "trial_index": 41}, "uniqueid": "MTK1456:324G5B4FB4FIYFLWUXKDBAUSCRL07P", "dateTime": 1515893463835}, {"current_trial": 42, "trialdata": {"rt": 523604, "trial_type": "text", "internal_node_id": "0.0-33.0", "time_elapsed": 761460, "key_press": 32, "type": "INSTRUCTIONS", "trial_index": 42}, "uniqueid": "MTK1456:324G5B4FB4FIYFLWUXKDBAUSCRL07P", "dateTime": 1515893989442}, {"current_trial": 43, "trialdata": {"rt": [4324, 6973, 8638, 11052, 14837, 17371], "trial_type": "math-distractor", "key_times": [3200, 3261, 4324, 6439, 6526, 6973, 8406, 8466, 8638, 10833, 10894, 11052, 14622, 14691, 14837, 17189, 17371], "responses": ["16", "19", "15", "16", "21", "9"], "num2": [6, 1, 9, 4, 5, 2, 3], "num3": [8, 9, 5, 5, 8, 2, 8], "conditions": [18, 1200, "a", 18000], "internal_node_id": "0.0-34.0", "key_presses": [97, 102, 13, 97, 105, 13, 97, 101, 13, 97, 102, 13, 98, 97, 13, 105, 13], "trial": 1, "time_elapsed": 781465, "type": "DISTRACTOR", "trial_index": 43, "num1": [2, 9, 1, 7, 6, 5, 5]}, "uniqueid": "MTK1456:324G5B4FB4FIYFLWUXKDBAUSCRL07P", "dateTime": 1515894009447}, {"current_trial": 44, "trialdata": {"rt": -1, "trial_type": "single-stim", "stimulus": "<p id=\"stim\">10</p>", "internal_node_id": "0.0-35.0-0.0", "time_elapsed": 784469, "key_press": -1, "trial_index": 44}, "uniqueid": "MTK1456:324G5B4FB4FIYFLWUXKDBAUSCRL07P", "dateTime": 1515894012450}, {"current_trial": 45, "trialdata": {"rt": -1, "trial_type": "single-stim", "stimulus": "<p id=\"stim\">9</p>", "internal_node_id": "0.0-35.0-1.0", "time_elapsed": 785471, "key_press": -1, "trial_index": 45}, "uniqueid": "MTK1456:324G5B4FB4FIYFLWUXKDBAUSCRL07P", "dateTime": 1515894013452}, {"current_trial": 46, "trialdata": {"rt": -1, "trial_type": "single-stim", "stimulus": "<p id=\"stim\">8</p>", "internal_node_id": "0.0-35.0-2.0", "time_elapsed": 786472, "key_press": -1, "trial_index": 46}, "uniqueid": "MTK1456:324G5B4FB4FIYFLWUXKDBAUSCRL07P", "dateTime": 1515894014453}, {"current_trial": 47, "trialdata": {"rt": -1, "trial_type": "single-stim", "stimulus": "<p id=\"stim\">7</p>", "internal_node_id": "0.0-35.0-3.0", "time_elapsed": 787474, "key_press": -1, "trial_index": 47}, "uniqueid": "MTK1456:324G5B4FB4FIYFLWUXKDBAUSCRL07P", "dateTime": 1515894015455}, {"current_trial": 48, "trialdata": {"rt": -1, "trial_type": "single-stim", "stimulus": "<p id=\"stim\">6</p>", "internal_node_id": "0.0-35.0-4.0", "time_elapsed": 788476, "key_press": -1, "trial_index": 48}, "uniqueid": "MTK1456:324G5B4FB4FIYFLWUXKDBAUSCRL07P", "dateTime": 1515894016457}, {"current_trial": 49, "trialdata": {"rt": -1, "trial_type": "single-stim", "stimulus": "<p id=\"stim\">5</p>", "internal_node_id": "0.0-35.0-5.0", "time_elapsed": 789477, "key_press": -1, "trial_index": 49}, "uniqueid": "MTK1456:324G5B4FB4FIYFLWUXKDBAUSCRL07P", "dateTime": 1515894017459}, {"current_trial": 50, "trialdata": {"rt": -1, "trial_type": "single-stim", "stimulus": "<p id=\"stim\">4</p>", "internal_node_id": "0.0-35.0-6.0", "time_elapsed": 790479, "key_press": -1, "trial_index": 50}, "uniqueid": "MTK1456:324G5B4FB4FIYFLWUXKDBAUSCRL07P", "dateTime": 1515894018461}, {"current_trial": 51, "trialdata": {"rt": -1, "trial_type": "single-stim", "stimulus": "<p id=\"stim\">3</p>", "internal_node_id": "0.0-35.0-7.0", "time_elapsed": 791482, "key_press": -1, "trial_index": 51}, "uniqueid": "MTK1456:324G5B4FB4FIYFLWUXKDBAUSCRL07P", "dateTime": 1515894019465}, {"current_trial": 52, "trialdata": {"rt": -1, "trial_type": "single-stim", "stimulus": "<p id=\"stim\">2</p>", "internal_node_id": "0.0-35.0-8.0", "time_elapsed": 792486, "key_press": -1, "trial_index": 52}, "uniqueid": "MTK1456:324G5B4FB4FIYFLWUXKDBAUSCRL07P", "dateTime": 1515894020467}, {"current_trial": 53, "trialdata": {"rt": -1, "trial_type": "single-stim", "stimulus": "<p id=\"stim\">1</p>", "internal_node_id": "0.0-35.0-9.0", "time_elapsed": 793488, "key_press": -1, "trial_index": 53}, "uniqueid": "MTK1456:324G5B4FB4FIYFLWUXKDBAUSCRL07P", "dateTime": 1515894021469}, {"current_trial": 54, "trialdata": {"rt": -1, "trial_type": "single-stim", "stimulus": "<p id=\"stim\">+</p>", "internal_node_id": "0.0-36.0-0.0", "time_elapsed": 794989, "key_press": -1, "type": "FIXATION", "trial_index": 54}, "uniqueid": "MTK1456:324G5B4FB4FIYFLWUXKDBAUSCRL07P", "dateTime": 1515894022971}, {"current_trial": 55, "trialdata": {"rt": -1000, "trial_type": "single-audio", "word": "braces", "stimulus": "/static/audio/wordpool/BRACES.wav", "conditions": [18, 1200, "a", 18000], "internal_node_id": "0.0-37.0", "trial": 1, "time_elapsed": 797173, "serialpos": 0, "key_press": -1, "wordID": 163, "type": "PRES_AUD", "trial_index": 55}, "uniqueid": "MTK1456:324G5B4FB4FIYFLWUXKDBAUSCRL07P", "dateTime": 1515894025154}, {"current_trial": 56, "trialdata": {"rt": -1000, "trial_type": "single-audio", "word": "mop", "stimulus": "/static/audio/wordpool/MOP.wav", "conditions": [18, 1200, "a", 18000], "internal_node_id": "0.0-38.0", "trial": 1, "time_elapsed": 799432, "serialpos": 1, "key_press": -1, "wordID": 915, "type": "PRES_AUD", "trial_index": 56}, "uniqueid": "MTK1456:324G5B4FB4FIYFLWUXKDBAUSCRL07P", "dateTime": 1515894027413}, {"current_trial": 57, "trialdata": {"rt": -1000, "trial_type": "single-audio", "word": "lizard", "stimulus": "/static/audio/wordpool/LIZARD.wav", "conditions": [18, 1200, "a", 18000], "internal_node_id": "0.0-39.0", "trial": 1, "time_elapsed": 801740, "serialpos": 2, "key_press": -1, "wordID": 833, "type": "PRES_AUD", "trial_index": 57}, "uniqueid": "MTK1456:324G5B4FB4FIYFLWUXKDBAUSCRL07P", "dateTime": 1515894029721}, {"current_trial": 58, "trialdata": {"rt": -1000, "trial_type": "single-audio", "word": "permit", "stimulus": "/static/audio/wordpool/PERMIT.wav", "conditions": [18, 1200, "a", 18000], "internal_node_id": "0.0-40.0", "trial": 1, "time_elapsed": 803935, "serialpos": 3, "key_press": -1, "wordID": 1050, "type": "PRES_AUD", "trial_index": 58}, "uniqueid": "MTK1456:324G5B4FB4FIYFLWUXKDBAUSCRL07P", "dateTime": 1515894031916}, {"current_trial": 59, "trialdata": {"rt": -1000, "trial_type": "single-audio", "word": "venus", "stimulus": "/static/audio/wordpool/VENUS.wav", "conditions": [18, 1200, "a", 18000], "internal_node_id": "0.0-41.0", "trial": 1, "time_elapsed": 806218, "serialpos": 4, "key_press": -1, "wordID": 1556, "type": "PRES_AUD", "trial_index": 59}, "uniqueid": "MTK1456:324G5B4FB4FIYFLWUXKDBAUSCRL07P", "dateTime": 1515894034200}, {"current_trial": 60, "trialdata": {"rt": -1000, "trial_type": "single-audio", "word": "chauffeur", "stimulus": "/static/audio/wordpool/CHAUFFEUR.wav", "conditions": [18, 1200, "a", 18000], "internal_node_id": "0.0-42.0", "trial": 1, "time_elapsed": 808578, "serialpos": 5, "key_press": -1, "wordID": 282, "type": "PRES_AUD", "trial_index": 60}, "uniqueid": "MTK1456:324G5B4FB4FIYFLWUXKDBAUSCRL07P", "dateTime": 1515894036559}, {"current_trial": 61, "trialdata": {"rt": -1000, "trial_type": "single-audio", "word": "captive", "stimulus": "/static/audio/wordpool/CAPTIVE.wav", "conditions": [18, 1200, "a", 18000], "internal_node_id": "0.0-43.0", "trial": 1, "time_elapsed": 810813, "serialpos": 6, "key_press": -1, "wordID": 239, "type": "PRES_AUD", "trial_index": 61}, "uniqueid": "MTK1456:324G5B4FB4FIYFLWUXKDBAUSCRL07P", "dateTime": 1515894038794}, {"current_trial": 62, "trialdata": {"rt": -1000, "trial_type": "single-audio", "word": "spider", "stimulus": "/static/audio/wordpool/SPIDER.wav", "conditions": [18, 1200, "a", 18000], "internal_node_id": "0.0-44.0", "trial": 1, "time_elapsed": 813099, "serialpos": 7, "key_press": -1, "wordID": 1350, "type": "PRES_AUD", "trial_index": 62}, "uniqueid": "MTK1456:324G5B4FB4FIYFLWUXKDBAUSCRL07P", "dateTime": 1515894041080}, {"current_trial": 63, "trialdata": {"rt": -1000, "trial_type": "single-audio", "word": "mammal", "stimulus": "/static/audio/wordpool/MAMMAL.wav", "conditions": [18, 1200, "a", 18000], "internal_node_id": "0.0-45.0", "trial": 1, "time_elapsed": 815418, "serialpos": 8, "key_press": -1, "wordID": 860, "type": "PRES_AUD", "trial_index": 63}, "uniqueid": "MTK1456:324G5B4FB4FIYFLWUXKDBAUSCRL07P", "dateTime": 1515894043400}, {"current_trial": 64, "trialdata": {"rt": -1000, "trial_type": "single-audio", "word": "parrot", "stimulus": "/static/audio/wordpool/PARROT.wav", "conditions": [18, 1200, "a", 18000], "internal_node_id": "0.0-46.0", "trial": 1, "time_elapsed": 817825, "serialpos": 9, "key_press": -1, "wordID": 1014, "type": "PRES_AUD", "trial_index": 64}, "uniqueid": "MTK1456:324G5B4FB4FIYFLWUXKDBAUSCRL07P", "dateTime": 1515894045806}, {"current_trial": 65, "trialdata": {"rt": -1000, "trial_type": "single-audio", "word": "sidewalk", "stimulus": "/static/audio/wordpool/SIDEWALK.wav", "conditions": [18, 1200, "a", 18000], "internal_node_id": "0.0-47.0", "trial": 1, "time_elapsed": 820045, "serialpos": 10, "key_press": -1, "wordID": 1302, "type": "PRES_AUD", "trial_index": 65}, "uniqueid": "MTK1456:324G5B4FB4FIYFLWUXKDBAUSCRL07P", "dateTime": 1515894048026}, {"current_trial": 66, "trialdata": {"rt": -1000, "trial_type": "single-audio", "word": "author", "stimulus": "/static/audio/wordpool/AUTHOR.wav", "conditions": [18, 1200, "a", 18000], "internal_node_id": "0.0-48.0", "trial": 1, "time_elapsed": 822156, "serialpos": 11, "key_press": -1, "wordID": 60, "type": "PRES_AUD", "trial_index": 66}, "uniqueid": "MTK1456:324G5B4FB4FIYFLWUXKDBAUSCRL07P", "dateTime": 1515894050138}, {"current_trial": 67, "trialdata": {"rt": -1000, "trial_type": "single-audio", "word": "supper", "stimulus": "/static/audio/wordpool/SUPPER.wav", "conditions": [18, 1200, "a", 18000], "internal_node_id": "0.0-49.0", "trial": 1, "time_elapsed": 824310, "serialpos": 12, "key_press": -1, "wordID": 1410, "type": "PRES_AUD", "trial_index": 67}, "uniqueid": "MTK1456:324G5B4FB4FIYFLWUXKDBAUSCRL07P", "dateTime": 1515894052291}, {"current_trial": 68, "trialdata": {"rt": -1000, "trial_type": "single-audio", "word": "cloud", "stimulus": "/static/audio/wordpool/CLOUD.wav", "conditions": [18, 1200, "a", 18000], "internal_node_id": "0.0-50.0", "trial": 1, "time_elapsed": 826318, "serialpos": 13, "key_press": -1, "wordID": 327, "type": "PRES_AUD", "trial_index": 68}, "uniqueid": "MTK1456:324G5B4FB4FIYFLWUXKDBAUSCRL07P", "dateTime": 1515894054299}, {"current_trial": 69, "trialdata": {"rt": -1000, "trial_type": "single-audio", "word": "razor", "stimulus": "/static/audio/wordpool/RAZOR.wav", "conditions": [18, 1200, "a", 18000], "internal_node_id": "0.0-51.0", "trial": 1, "time_elapsed": 828546, "serialpos": 14, "key_press": -1, "wordID": 1170, "type": "PRES_AUD", "trial_index": 69}, "uniqueid": "MTK1456:324G5B4FB4FIYFLWUXKDBAUSCRL07P", "dateTime": 1515894056527}, {"current_trial": 70, "trialdata": {"rt": -1000, "trial_type": "single-audio", "word": "jelly", "stimulus": "/static/audio/wordpool/JELLY.wav", "conditions": [18, 1200, "a", 18000], "internal_node_id": "0.0-52.0", "trial": 1, "time_elapsed": 830656, "serialpos": 15, "key_press": -1, "wordID": 754, "type": "PRES_AUD", "trial_index": 70}, "uniqueid": "MTK1456:324G5B4FB4FIYFLWUXKDBAUSCRL07P", "dateTime": 1515894058637}, {"current_trial": 71, "trialdata": {"rt": -1000, "trial_type": "single-audio", "word": "balloon", "stimulus": "/static/audio/wordpool/BALLOON.wav", "conditions": [18, 1200, "a", 18000], "internal_node_id": "0.0-53.0", "trial": 1, "time_elapsed": 832969, "serialpos": 16, "key_press": -1, "wordID": 74, "type": "PRES_AUD", "trial_index": 71}, "uniqueid": "MTK1456:324G5B4FB4FIYFLWUXKDBAUSCRL07P", "dateTime": 1515894060951}, {"current_trial": 72, "trialdata": {"rt": -1000, "trial_type": "single-audio", "word": "lodge", "stimulus": "/static/audio/wordpool/LODGE.wav", "conditions": [18, 1200, "a", 18000], "internal_node_id": "0.0-54.0", "trial": 1, "time_elapsed": 835266, "serialpos": 17, "key_press": -1, "wordID": 838, "type": "PRES_AUD", "trial_index": 72}, "uniqueid": "MTK1456:324G5B4FB4FIYFLWUXKDBAUSCRL07P", "dateTime": 1515894063247}, {"current_trial": 73, "trialdata": {"rt": -1, "trial_type": "single-stim", "stimulus": "", "internal_node_id": "0.0-55.0-0.0", "time_elapsed": 836578, "key_press": -1, "type": "PRE_RECALL_DELAY", "trial_index": 73}, "uniqueid": "MTK1456:324G5B4FB4FIYFLWUXKDBAUSCRL07P", "dateTime": 1515894064559}, {"current_trial": 74, "trialdata": {"rt": -1000, "trial_type": "single-audio", "stimulus": "/static/audio/400Hz.wav", "internal_node_id": "0.0-56.0", "time_elapsed": 837081, "key_press": -1, "type": "PRE_RECALL_ALERT", "trial_index": 74}, "uniqueid": "MTK1456:324G5B4FB4FIYFLWUXKDBAUSCRL07P", "dateTime": 1515894065062}, {"current_trial": 75, "trialdata": {"rt": [2681, 4638, 7158, 9002, 10945, 12672, 14928], "recwords": ["jelly", "baloon", "lodge", "balloon", "razon", "permit", "venus"], "key_times": [1687, 1765, 1886, 2025, 2075, 2681, 3125, 3244, 3491, 3758, 3890, 4165, 4638, 6301, 6521, 6610, 6957, 7028, 7158, 7786, 7874, 7958, 8107, 8297, 8434, 8821, 9002, 9899, 10085, 10419, 10583, 10683, 10945, 11583, 11692, 11726, 11825, 12043, 12153, 12672, 14221, 14287, 14421, 14521, 14610, 14928], "trial_type": "free-recall", "conditions": [18, 1200, "a", 18000], "internal_node_id": "0.0-57.0-0.0", "key_presses": [74, 69, 76, 76, 89, 13, 66, 65, 76, 79, 79, 78, 13, 76, 79, 68, 71, 69, 13, 66, 65, 76, 76, 79, 79, 78, 13, 82, 65, 90, 79, 78, 13, 80, 69, 82, 77, 73, 84, 13, 86, 69, 78, 85, 83, 13], "trial": 1, "time_elapsed": 897086, "type": "FREE_RECALL", "trial_index": 75}, "uniqueid": "MTK1456:324G5B4FB4FIYFLWUXKDBAUSCRL07P", "dateTime": 1515894125072}, {"current_trial": 76, "trialdata": {"rt": 2543, "trial_type": "text", "internal_node_id": "0.0-58.0", "time_elapsed": 901637, "key_press": 32, "type": "INSTRUCTIONS", "trial_index": 76}, "uniqueid": "MTK1456:324G5B4FB4FIYFLWUXKDBAUSCRL07P", "dateTime": 1515894129618}, {"current_trial": 77, "trialdata": {"rt": [1918, 3674, 6810, 8061, 9475, 12055, 14333, 17173, 21115, 23920], "trial_type": "math-distractor", "key_times": [1748, 1841, 1918, 3371, 3674, 6619, 6670, 6810, 7853, 8061, 9256, 9357, 9475, 11825, 11952, 12055, 14042, 14195, 14333, 16934, 17043, 17173, 20757, 20941, 21115, 23708, 23765, 23920], "responses": ["11", "7", "21", "9", "11", "22", "14", "22", "17", "12"], "num2": [5, 3, 9, 4, 2, 6, 2, 6, 3, 2, 5], "num3": [5, 1, 6, 4, 1, 9, 7, 7, 8, 6, 8], "conditions": [24, 1600, "a", 24000], "internal_node_id": "0.0-59.0", "key_presses": [97, 97, 13, 103, 13, 98, 97, 13, 105, 13, 97, 97, 13, 98, 98, 13, 97, 100, 13, 98, 98, 13, 97, 103, 13, 97, 98, 13], "trial": 2, "time_elapsed": 926644, "type": "DISTRACTOR", "trial_index": 77, "num1": [1, 3, 6, 1, 8, 6, 5, 9, 6, 4, 8]}, "uniqueid": "MTK1456:324G5B4FB4FIYFLWUXKDBAUSCRL07P", "dateTime": 1515894154626}, {"current_trial": 78, "trialdata": {"rt": -1, "trial_type": "single-stim", "stimulus": "<p id=\"stim\">10</p>", "internal_node_id": "0.0-60.0-0.0", "time_elapsed": 929647, "key_press": -1, "trial_index": 78}, "uniqueid": "MTK1456:324G5B4FB4FIYFLWUXKDBAUSCRL07P", "dateTime": 1515894157632}, {"current_trial": 79, "trialdata": {"rt": -1, "trial_type": "single-stim", "stimulus": "<p id=\"stim\">9</p>", "internal_node_id": "0.0-60.0-1.0", "time_elapsed": 930653, "key_press": -1, "trial_index": 79}, "uniqueid": "MTK1456:324G5B4FB4FIYFLWUXKDBAUSCRL07P", "dateTime": 1515894158634}, {"current_trial": 80, "trialdata": {"rt": -1, "trial_type": "single-stim", "stimulus": "<p id=\"stim\">8</p>", "internal_node_id": "0.0-60.0-2.0", "time_elapsed": 931655, "key_press": -1, "trial_index": 80}, "uniqueid": "MTK1456:324G5B4FB4FIYFLWUXKDBAUSCRL07P", "dateTime": 1515894159636}, {"current_trial": 81, "trialdata": {"rt": -1, "trial_type": "single-stim", "stimulus": "<p id=\"stim\">7</p>", "internal_node_id": "0.0-60.0-3.0", "time_elapsed": 932657, "key_press": -1, "trial_index": 81}, "uniqueid": "MTK1456:324G5B4FB4FIYFLWUXKDBAUSCRL07P", "dateTime": 1515894160638}, {"current_trial": 82, "trialdata": {"rt": -1, "trial_type": "single-stim", "stimulus": "<p id=\"stim\">6</p>", "internal_node_id": "0.0-60.0-4.0", "time_elapsed": 933659, "key_press": -1, "trial_index": 82}, "uniqueid": "MTK1456:324G5B4FB4FIYFLWUXKDBAUSCRL07P", "dateTime": 1515894161641}, {"current_trial": 83, "trialdata": {"rt": -1, "trial_type": "single-stim", "stimulus": "<p id=\"stim\">5</p>", "internal_node_id": "0.0-60.0-5.0", "time_elapsed": 934661, "key_press": -1, "trial_index": 83}, "uniqueid": "MTK1456:324G5B4FB4FIYFLWUXKDBAUSCRL07P", "dateTime": 1515894162642}, {"current_trial": 84, "trialdata": {"rt": -1, "trial_type": "single-stim", "stimulus": "<p id=\"stim\">4</p>", "internal_node_id": "0.0-60.0-6.0", "time_elapsed": 935663, "key_press": -1, "trial_index": 84}, "uniqueid": "MTK1456:324G5B4FB4FIYFLWUXKDBAUSCRL07P", "dateTime": 1515894163644}, {"current_trial": 85, "trialdata": {"rt": -1, "trial_type": "single-stim", "stimulus": "<p id=\"stim\">3</p>", "internal_node_id": "0.0-60.0-7.0", "time_elapsed": 936666, "key_press": -1, "trial_index": 85}, "uniqueid": "MTK1456:324G5B4FB4FIYFLWUXKDBAUSCRL07P", "dateTime": 1515894164647}, {"current_trial": 86, "trialdata": {"rt": -1, "trial_type": "single-stim", "stimulus": "<p id=\"stim\">2</p>", "internal_node_id": "0.0-60.0-8.0", "time_elapsed": 937668, "key_press": -1, "trial_index": 86}, "uniqueid": "MTK1456:324G5B4FB4FIYFLWUXKDBAUSCRL07P", "dateTime": 1515894165649}, {"current_trial": 87, "trialdata": {"rt": -1, "trial_type": "single-stim", "stimulus": "<p id=\"stim\">1</p>", "internal_node_id": "0.0-60.0-9.0", "time_elapsed": 938669, "key_press": -1, "trial_index": 87}, "uniqueid": "MTK1456:324G5B4FB4FIYFLWUXKDBAUSCRL07P", "dateTime": 1515894166650}, {"current_trial": 88, "trialdata": {"rt": -1, "trial_type": "single-stim", "stimulus": "<p id=\"stim\">+</p>", "internal_node_id": "0.0-61.0-0.0", "time_elapsed": 940171, "key_press": -1, "type": "FIXATION", "trial_index": 88}, "uniqueid": "MTK1456:324G5B4FB4FIYFLWUXKDBAUSCRL07P", "dateTime": 1515894168152}, {"current_trial": 89, "trialdata": {"rt": -1000, "trial_type": "single-audio", "word": "umpire", "stimulus": "/static/audio/wordpool/UMPIRE.wav", "conditions": [24, 1600, "a", 24000], "internal_node_id": "0.0-62.0", "trial": 2, "time_elapsed": 942834, "serialpos": 0, "key_press": -1, "wordID": 1534, "type": "PRES_AUD", "trial_index": 89}, "uniqueid": "MTK1456:324G5B4FB4FIYFLWUXKDBAUSCRL07P", "dateTime": 1515894170816}, {"current_trial": 90, "trialdata": {"rt": -1000, "trial_type": "single-audio", "word": "fragrance", "stimulus": "/static/audio/wordpool/FRAGRANCE.wav", "conditions": [24, 1600, "a", 24000], "internal_node_id": "0.0-63.0", "trial": 2, "time_elapsed": 945501, "serialpos": 1, "key_press": -1, "wordID": 598, "type": "PRES_AUD", "trial_index": 90}, "uniqueid": "MTK1456:324G5B4FB4FIYFLWUXKDBAUSCRL07P", "dateTime": 1515894173482}, {"current_trial": 91, "trialdata": {"rt": -1000, "trial_type": "single-audio", "word": "citrus", "stimulus": "/static/audio/wordpool/CITRUS.wav", "conditions": [24, 1600, "a", 24000], "internal_node_id": "0.0-64.0", "trial": 2, "time_elapsed": 947939, "serialpos": 2, "key_press": -1, "wordID": 312, "type": "PRES_AUD", "trial_index": 91}, "uniqueid": "MTK1456:324G5B4FB4FIYFLWUXKDBAUSCRL07P", "dateTime": 1515894175920}, {"current_trial": 92, "trialdata": {"rt": -1000, "trial_type": "single-audio", "word": "queen", "stimulus": "/static/audio/wordpool/QUEEN.wav", "conditions": [24, 1600, "a", 24000], "internal_node_id": "0.0-65.0", "trial": 2, "time_elapsed": 950384, "serialpos": 3, "key_press": -1, "wordID": 1148, "type": "PRES_AUD", "trial_index": 92}, "uniqueid": "MTK1456:324G5B4FB4FIYFLWUXKDBAUSCRL07P", "dateTime": 1515894178365}, {"current_trial": 93, "trialdata": {"rt": -1000, "trial_type": "single-audio", "word": "princess", "stimulus": "/static/audio/wordpool/PRINCESS.wav", "conditions": [24, 1600, "a", 24000], "internal_node_id": "0.0-66.0", "trial": 2, "time_elapsed": 952808, "serialpos": 4, "key_press": -1, "wordID": 1124, "type": "PRES_AUD", "trial_index": 93}, "uniqueid": "MTK1456:324G5B4FB4FIYFLWUXKDBAUSCRL07P", "dateTime": 1515894180789}, {"current_trial": 94, "trialdata": {"rt": -1000, "trial_type": "single-audio", "word": "pecan", "stimulus": "/static/audio/wordpool/PECAN.wav", "conditions": [24, 1600, "a", 24000], "internal_node_id": "0.0-67.0", "trial": 2, "time_elapsed": 955495, "serialpos": 5, "key_press": -1, "wordID": 1035, "type": "PRES_AUD", "trial_index": 94}, "uniqueid": "MTK1456:324G5B4FB4FIYFLWUXKDBAUSCRL07P", "dateTime": 1515894183476}, {"current_trial": 95, "trialdata": {"rt": -1000, "trial_type": "single-audio", "word": "whistle", "stimulus": "/static/audio/wordpool/WHISTLE.wav", "conditions": [24, 1600, "a", 24000], "internal_node_id": "0.0-68.0", "trial": 2, "time_elapsed": 958106, "serialpos": 6, "key_press": -1, "wordID": 1605, "type": "PRES_AUD", "trial_index": 95}, "uniqueid": "MTK1456:324G5B4FB4FIYFLWUXKDBAUSCRL07P", "dateTime": 1515894186087}, {"current_trial": 96, "trialdata": {"rt": -1000, "trial_type": "single-audio", "word": "sunset", "stimulus": "/static/audio/wordpool/SUNSET.wav", "conditions": [24, 1600, "a", 24000], "internal_node_id": "0.0-69.0", "trial": 2, "time_elapsed": 960809, "serialpos": 7, "key_press": -1, "wordID": 1407, "type": "PRES_AUD", "trial_index": 96}, "uniqueid": "MTK1456:324G5B4FB4FIYFLWUXKDBAUSCRL07P", "dateTime": 1515894188790}, {"current_trial": 97, "trialdata": {"rt": -1000, "trial_type": "single-audio", "word": "asia", "stimulus": "/static/audio/wordpool/ASIA.wav", "conditions": [24, 1600, "a", 24000], "internal_node_id": "0.0-70.0", "trial": 2, "time_elapsed": 963234, "serialpos": 8, "key_press": -1, "wordID": 45, "type": "PRES_AUD", "trial_index": 97}, "uniqueid": "MTK1456:324G5B4FB4FIYFLWUXKDBAUSCRL07P", "dateTime": 1515894191215}, {"current_trial": 98, "trialdata": {"rt": -1000, "trial_type": "single-audio", "word": "coin", "stimulus": "/static/audio/wordpool/COIN.wav", "conditions": [24, 1600, "a", 24000], "internal_node_id": "0.0-71.0", "trial": 2, "time_elapsed": 965746, "serialpos": 9, "key_press": -1, "wordID": 342, "type": "PRES_AUD", "trial_index": 98}, "uniqueid": "MTK1456:324G5B4FB4FIYFLWUXKDBAUSCRL07P", "dateTime": 1515894193727}, {"current_trial": 99, "trialdata": {"rt": -1000, "trial_type": "single-audio", "word": "pluto", "stimulus": "/static/audio/wordpool/PLUTO.wav", "conditions": [24, 1600, "a", 24000], "internal_node_id": "0.0-72.0", "trial": 2, "time_elapsed": 968463, "serialpos": 10, "key_press": -1, "wordID": 1091, "type": "PRES_AUD", "trial_index": 99}, "uniqueid": "MTK1456:324G5B4FB4FIYFLWUXKDBAUSCRL07P", "dateTime": 1515894196444}, {"current_trial": 100, "trialdata": {"rt": -1000, "trial_type": "single-audio", "word": "casket", "stimulus": "/static/audio/wordpool/CASKET.wav", "conditions": [24, 1600, "a", 24000], "internal_node_id": "0.0-73.0", "trial": 2, "time_elapsed": 971190, "serialpos": 11, "key_press": -1, "wordID": 254, "type": "PRES_AUD", "trial_index": 100}, "uniqueid": "MTK1456:324G5B4FB4FIYFLWUXKDBAUSCRL07P", "dateTime": 1515894199171}, {"current_trial": 101, "trialdata": {"rt": -1000, "trial_type": "single-audio", "word": "dancer", "stimulus": "/static/audio/wordpool/DANCER.wav", "conditions": [24, 1600, "a", 24000], "internal_node_id": "0.0-74.0", "trial": 2, "time_elapsed": 973691, "serialpos": 12, "key_press": -1, "wordID": 436, "type": "PRES_AUD", "trial_index": 101}, "uniqueid": "MTK1456:324G5B4FB4FIYFLWUXKDBAUSCRL07P", "dateTime": 1515894201672}, {"current_trial": 102, "trialdata": {"rt": -1000, "trial_type": "single-audio", "word": "shrub", "stimulus": "/static/audio/wordpool/SHRUB.wav", "conditions": [24, 1600, "a", 24000], "internal_node_id": "0.0-75.0", "trial": 2, "time_elapsed": 976309, "serialpos": 13, "key_press": -1, "wordID": 1298, "type": "PRES_AUD", "trial_index": 102}, "uniqueid": "MTK1456:324G5B4FB4FIYFLWUXKDBAUSCRL07P", "dateTime": 1515894204290}, {"current_trial": 103, "trialdata": {"rt": -1000, "trial_type": "single-audio", "word": "knapsack", "stimulus": "/static/audio/wordpool/KNAPSACK.wav", "conditions": [24, 1600, "a", 24000], "internal_node_id": "0.0-76.0", "trial": 2, "time_elapsed": 978954, "serialpos": 14, "key_press": -1, "wordID": 782, "type": "PRES_AUD", "trial_index": 103}, "uniqueid": "MTK1456:324G5B4FB4FIYFLWUXKDBAUSCRL07P", "dateTime": 1515894206935}, {"current_trial": 104, "trialdata": {"rt": -1000, "trial_type": "single-audio", "word": "kidney", "stimulus": "/static/audio/wordpool/KIDNEY.wav", "conditions": [24, 1600, "a", 24000], "internal_node_id": "0.0-77.0", "trial": 2, "time_elapsed": 981740, "serialpos": 15, "key_press": -1, "wordID": 775, "type": "PRES_AUD", "trial_index": 104}, "uniqueid": "MTK1456:324G5B4FB4FIYFLWUXKDBAUSCRL07P", "dateTime": 1515894209721}, {"current_trial": 105, "trialdata": {"rt": -1000, "trial_type": "single-audio", "word": "banquet", "stimulus": "/static/audio/wordpool/BANQUET.wav", "conditions": [24, 1600, "a", 24000], "internal_node_id": "0.0-78.0", "trial": 2, "time_elapsed": 984266, "serialpos": 16, "key_press": -1, "wordID": 85, "type": "PRES_AUD", "trial_index": 105}, "uniqueid": "MTK1456:324G5B4FB4FIYFLWUXKDBAUSCRL07P", "dateTime": 1515894212247}, {"current_trial": 106, "trialdata": {"rt": -1000, "trial_type": "single-audio", "word": "subway", "stimulus": "/static/audio/wordpool/SUBWAY.wav", "conditions": [24, 1600, "a", 24000], "internal_node_id": "0.0-79.0", "trial": 2, "time_elapsed": 986724, "serialpos": 17, "key_press": -1, "wordID": 1399, "type": "PRES_AUD", "trial_index": 106}, "uniqueid": "MTK1456:324G5B4FB4FIYFLWUXKDBAUSCRL07P", "dateTime": 1515894214705}, {"current_trial": 107, "trialdata": {"rt": -1000, "trial_type": "single-audio", "word": "flesh", "stimulus": "/static/audio/wordpool/FLESH.wav", "conditions": [24, 1600, "a", 24000], "internal_node_id": "0.0-80.0", "trial": 2, "time_elapsed": 989392, "serialpos": 18, "key_press": -1, "wordID": 578, "type": "PRES_AUD", "trial_index": 107}, "uniqueid": "MTK1456:324G5B4FB4FIYFLWUXKDBAUSCRL07P", "dateTime": 1515894217373}, {"current_trial": 108, "trialdata": {"rt": -1000, "trial_type": "single-audio", "word": "spoon", "stimulus": "/static/audio/wordpool/SPOON.wav", "conditions": [24, 1600, "a", 24000], "internal_node_id": "0.0-81.0", "trial": 2, "time_elapsed": 991979, "serialpos": 19, "key_press": -1, "wordID": 1356, "type": "PRES_AUD", "trial_index": 108}, "uniqueid": "MTK1456:324G5B4FB4FIYFLWUXKDBAUSCRL07P", "dateTime": 1515894219960}, {"current_trial": 109, "trialdata": {"rt": -1000, "trial_type": "single-audio", "word": "patient", "stimulus": "/static/audio/wordpool/PATIENT.wav", "conditions": [24, 1600, "a", 24000], "internal_node_id": "0.0-82.0", "trial": 2, "time_elapsed": 994690, "serialpos": 20, "key_press": -1, "wordID": 1023, "type": "PRES_AUD", "trial_index": 109}, "uniqueid": "MTK1456:324G5B4FB4FIYFLWUXKDBAUSCRL07P", "dateTime": 1515894222671}, {"current_trial": 110, "trialdata": {"rt": -1000, "trial_type": "single-audio", "word": "headband", "stimulus": "/static/audio/wordpool/HEADBAND.wav", "conditions": [24, 1600, "a", 24000], "internal_node_id": "0.0-83.0", "trial": 2, "time_elapsed": 997323, "serialpos": 21, "key_press": -1, "wordID": 695, "type": "PRES_AUD", "trial_index": 110}, "uniqueid": "MTK1456:324G5B4FB4FIYFLWUXKDBAUSCRL07P", "dateTime": 1515894225304}, {"current_trial": 111, "trialdata": {"rt": -1000, "trial_type": "single-audio", "word": "shirt", "stimulus": "/static/audio/wordpool/SHIRT.wav", "conditions": [24, 1600, "a", 24000], "internal_node_id": "0.0-84.0", "trial": 2, "time_elapsed": 999940, "serialpos": 22, "key_press": -1, "wordID": 1286, "type": "PRES_AUD", "trial_index": 111}, "uniqueid": "MTK1456:324G5B4FB4FIYFLWUXKDBAUSCRL07P", "dateTime": 1515894227921}, {"current_trial": 112, "trialdata": {"rt": -1000, "trial_type": "single-audio", "word": "gymnast", "stimulus": "/static/audio/wordpool/GYMNAST.wav", "conditions": [24, 1600, "a", 24000], "internal_node_id": "0.0-85.0", "trial": 2, "time_elapsed": 1002593, "serialpos": 23, "key_press": -1, "wordID": 674, "type": "PRES_AUD", "trial_index": 112}, "uniqueid": "MTK1456:324G5B4FB4FIYFLWUXKDBAUSCRL07P", "dateTime": 1515894230575}, {"current_trial": 113, "trialdata": {"rt": -1, "trial_type": "single-stim", "stimulus": "", "internal_node_id": "0.0-86.0-0.0", "time_elapsed": 1003938, "key_press": -1, "type": "PRE_RECALL_DELAY", "trial_index": 113}, "uniqueid": "MTK1456:324G5B4FB4FIYFLWUXKDBAUSCRL07P", "dateTime": 1515894231919}, {"current_trial": 114, "trialdata": {"rt": -1000, "trial_type": "single-audio", "stimulus": "/static/audio/400Hz.wav", "internal_node_id": "0.0-87.0", "time_elapsed": 1004446, "key_press": -1, "type": "PRE_RECALL_ALERT", "trial_index": 114}, "uniqueid": "MTK1456:324G5B4FB4FIYFLWUXKDBAUSCRL07P", "dateTime": 1515894232429}, {"current_trial": 115, "trialdata": {"rt": [6742, 8921, 10286, 11809, 13555, 15032, 15938, 18783, 21426, 24030, 25298, 28127, 30241, 33146, 35227, 37846, 39718], "recwords": ["gymnyst", "shirt", "headband", "umpire", "queen", "princess", "shrub", "kidney", "asia", "dancer", "coin", "pluto", "subway", "chrub", "casket", "spoon", "patient"], "key_times": [2379, 2508, 2722, 2972, 3145, 3290, 4665, 4791, 4918, 5047, 5708, 5938, 6270, 6481, 6597, 6742, 8187, 8302, 8381, 8551, 8578, 8921, 9321, 9408, 9494, 9582, 9796, 9904, 9998, 10135, 10286, 10651, 10831, 10930, 11096, 11253, 11359, 11809, 12590, 12663, 12794, 12922, 13000, 13555, 14079, 14183, 14296, 14379, 14607, 14727, 14814, 14971, 15032, 15218, 15333, 15467, 15581, 15680, 15938, 17901, 18103, 18191, 18342, 18467, 18583, 18783, 20777, 20843, 21068, 21150, 21426, 23217, 23321, 23529, 23618, 23760, 23882, 24030, 24240, 24380, 24458, 24551, 25298, 26517, 26605, 26920, 27486, 27615, 28127, 29105, 29138, 29211, 29356, 29453, 29557, 30241, 32443, 32544, 32659, 32749, 32848, 33146, 34504, 34571, 34718, 34900, 34983, 35083, 35227, 37047, 37160, 37553, 37692, 37752, 37846, 38665, 38797, 38882, 38965, 39016, 39127, 39217, 39718], "trial_type": "free-recall", "conditions": [24, 1600, "a", 24000], "internal_node_id": "0.0-88.0-0.0", "key_presses": [71, 89, 78, 89, 83, 84, 8, 8, 8, 8, 77, 78, 89, 83, 84, 13, 83, 72, 73, 82, 84, 13, 72, 69, 65, 68, 66, 65, 78, 68, 13, 85, 77, 80, 73, 82, 69, 13, 81, 85, 69, 69, 78, 13, 80, 82, 73, 78, 67, 69, 83, 83, 13, 83, 72, 82, 85, 66, 13, 75, 73, 68, 78, 69, 89, 13, 65, 83, 73, 65, 13, 68, 65, 78, 67, 69, 82, 13, 67, 79, 73, 78, 13, 80, 76, 85, 84, 79, 13, 83, 85, 66, 87, 65, 89, 13, 67, 72, 82, 85, 66, 13, 67, 65, 83, 75, 69, 84, 13, 83, 80, 79, 79, 78, 13, 80, 65, 84, 73, 69, 78, 84, 13], "trial": 2, "time_elapsed": 1064451, "type": "FREE_RECALL", "trial_index": 115}, "uniqueid": "MTK1456:324G5B4FB4FIYFLWUXKDBAUSCRL07P", "dateTime": 1515894292437}, {"current_trial": 116, "trialdata": {"rt": 3911, "trial_type": "text", "internal_node_id": "0.0-89.0", "time_elapsed": 1070369, "key_press": 32, "type": "INSTRUCTIONS", "trial_index": 116}, "uniqueid": "MTK1456:324G5B4FB4FIYFLWUXKDBAUSCRL07P", "dateTime": 1515894298350}, {"current_trial": 117, "trialdata": {"rt": [3526, 6569, 10383], "trial_type": "math-distractor", "key_times": [3233, 3292, 3526, 6321, 6399, 6569, 10145, 10270, 10383], "responses": ["19", "23", "22"], "num2": [4, 7, 7, 6], "num3": [9, 9, 7, 3], "conditions": [12, 1600, "a", 12000], "internal_node_id": "0.0-90.0", "key_presses": [97, 105, 13, 98, 99, 13, 98, 98, 13], "trial": 3, "time_elapsed": 1084388, "type": "DISTRACTOR", "trial_index": 117, "num1": [6, 4, 8, 1]}, "uniqueid": "MTK1456:324G5B4FB4FIYFLWUXKDBAUSCRL07P", "dateTime": 1515894312369}, {"current_trial": 118, "trialdata": {"rt": -1, "trial_type": "single-stim", "stimulus": "<p id=\"stim\">10</p>", "internal_node_id": "0.0-91.0-0.0", "time_elapsed": 1087391, "key_press": -1, "trial_index": 118}, "uniqueid": "MTK1456:324G5B4FB4FIYFLWUXKDBAUSCRL07P", "dateTime": 1515894315372}, {"current_trial": 119, "trialdata": {"rt": -1, "trial_type": "single-stim", "stimulus": "<p id=\"stim\">9</p>", "internal_node_id": "0.0-91.0-1.0", "time_elapsed": 1088392, "key_press": -1, "trial_index": 119}, "uniqueid": "MTK1456:324G5B4FB4FIYFLWUXKDBAUSCRL07P", "dateTime": 1515894316374}, {"current_trial": 120, "trialdata": {"rt": -1, "trial_type": "single-stim", "stimulus": "<p id=\"stim\">8</p>", "internal_node_id": "0.0-91.0-2.0", "time_elapsed": 1089394, "key_press": -1, "trial_index": 120}, "uniqueid": "MTK1456:324G5B4FB4FIYFLWUXKDBAUSCRL07P", "dateTime": 1515894317376}, {"current_trial": 121, "trialdata": {"rt": -1, "trial_type": "single-stim", "stimulus": "<p id=\"stim\">7</p>", "internal_node_id": "0.0-91.0-3.0", "time_elapsed": 1090398, "key_press": -1, "trial_index": 121}, "uniqueid": "MTK1456:324G5B4FB4FIYFLWUXKDBAUSCRL07P", "dateTime": 1515894318379}, {"current_trial": 122, "trialdata": {"rt": -1, "trial_type": "single-stim", "stimulus": "<p id=\"stim\">6</p>", "internal_node_id": "0.0-91.0-4.0", "time_elapsed": 1091400, "key_press": -1, "trial_index": 122}, "uniqueid": "MTK1456:324G5B4FB4FIYFLWUXKDBAUSCRL07P", "dateTime": 1515894319381}, {"current_trial": 123, "trialdata": {"rt": -1, "trial_type": "single-stim", "stimulus": "<p id=\"stim\">5</p>", "internal_node_id": "0.0-91.0-5.0", "time_elapsed": 1092402, "key_press": -1, "trial_index": 123}, "uniqueid": "MTK1456:324G5B4FB4FIYFLWUXKDBAUSCRL07P", "dateTime": 1515894320383}, {"current_trial": 124, "trialdata": {"rt": -1, "trial_type": "single-stim", "stimulus": "<p id=\"stim\">4</p>", "internal_node_id": "0.0-91.0-6.0", "time_elapsed": 1093404, "key_press": -1, "trial_index": 124}, "uniqueid": "MTK1456:324G5B4FB4FIYFLWUXKDBAUSCRL07P", "dateTime": 1515894321385}, {"current_trial": 125, "trialdata": {"rt": -1, "trial_type": "single-stim", "stimulus": "<p id=\"stim\">3</p>", "internal_node_id": "0.0-91.0-7.0", "time_elapsed": 1094406, "key_press": -1, "trial_index": 125}, "uniqueid": "MTK1456:324G5B4FB4FIYFLWUXKDBAUSCRL07P", "dateTime": 1515894322387}, {"current_trial": 126, "trialdata": {"rt": -1, "trial_type": "single-stim", "stimulus": "<p id=\"stim\">2</p>", "internal_node_id": "0.0-91.0-8.0", "time_elapsed": 1095408, "key_press": -1, "trial_index": 126}, "uniqueid": "MTK1456:324G5B4FB4FIYFLWUXKDBAUSCRL07P", "dateTime": 1515894323389}, {"current_trial": 127, "trialdata": {"rt": -1, "trial_type": "single-stim", "stimulus": "<p id=\"stim\">1</p>", "internal_node_id": "0.0-91.0-9.0", "time_elapsed": 1096409, "key_press": -1, "trial_index": 127}, "uniqueid": "MTK1456:324G5B4FB4FIYFLWUXKDBAUSCRL07P", "dateTime": 1515894324391}, {"current_trial": 128, "trialdata": {"rt": -1, "trial_type": "single-stim", "stimulus": "<p id=\"stim\">+</p>", "internal_node_id": "0.0-92.0-0.0", "time_elapsed": 1097911, "key_press": -1, "type": "FIXATION", "trial_index": 128}, "uniqueid": "MTK1456:324G5B4FB4FIYFLWUXKDBAUSCRL07P", "dateTime": 1515894325893}, {"current_trial": 129, "trialdata": {"rt": -1000, "trial_type": "single-audio", "word": "tuba", "stimulus": "/static/audio/wordpool/TUBA.wav", "conditions": [12, 1600, "a", 12000], "internal_node_id": "0.0-93.0", "trial": 3, "time_elapsed": 1100358, "serialpos": 0, "key_press": -1, "wordID": 1514, "type": "PRES_AUD", "trial_index": 129}, "uniqueid": "MTK1456:324G5B4FB4FIYFLWUXKDBAUSCRL07P", "dateTime": 1515894328339}, {"current_trial": 130, "trialdata": {"rt": -1000, "trial_type": "single-audio", "word": "crab", "stimulus": "/static/audio/wordpool/CRAB.wav", "conditions": [12, 1600, "a", 12000], "internal_node_id": "0.0-94.0", "trial": 3, "time_elapsed": 1103104, "serialpos": 1, "key_press": -1, "wordID": 396, "type": "PRES_AUD", "trial_index": 130}, "uniqueid": "MTK1456:324G5B4FB4FIYFLWUXKDBAUSCRL07P", "dateTime": 1515894331085}, {"current_trial": 131, "trialdata": {"rt": -1000, "trial_type": "single-audio", "word": "oyster", "stimulus": "/static/audio/wordpool/OYSTER.wav", "conditions": [12, 1600, "a", 12000], "internal_node_id": "0.0-95.0", "trial": 3, "time_elapsed": 1105808, "serialpos": 2, "key_press": -1, "wordID": 994, "type": "PRES_AUD", "trial_index": 131}, "uniqueid": "MTK1456:324G5B4FB4FIYFLWUXKDBAUSCRL07P", "dateTime": 1515894333789}, {"current_trial": 132, "trialdata": {"rt": -1000, "trial_type": "single-audio", "word": "garbage", "stimulus": "/static/audio/wordpool/GARBAGE.wav", "conditions": [12, 1600, "a", 12000], "internal_node_id": "0.0-96.0", "trial": 3, "time_elapsed": 1108546, "serialpos": 3, "key_press": -1, "wordID": 621, "type": "PRES_AUD", "trial_index": 132}, "uniqueid": "MTK1456:324G5B4FB4FIYFLWUXKDBAUSCRL07P", "dateTime": 1515894336527}, {"current_trial": 133, "trialdata": {"rt": -1000, "trial_type": "single-audio", "word": "partner", "stimulus": "/static/audio/wordpool/PARTNER.wav", "conditions": [12, 1600, "a", 12000], "internal_node_id": "0.0-97.0", "trial": 3, "time_elapsed": 1111349, "serialpos": 4, "key_press": -1, "wordID": 1016, "type": "PRES_AUD", "trial_index": 133}, "uniqueid": "MTK1456:324G5B4FB4FIYFLWUXKDBAUSCRL07P", "dateTime": 1515894339334}, {"current_trial": 134, "trialdata": {"rt": -1000, "trial_type": "single-audio", "word": "rifle", "stimulus": "/static/audio/wordpool/RIFLE.wav", "conditions": [12, 1600, "a", 12000], "internal_node_id": "0.0-98.0", "trial": 3, "time_elapsed": 1113970, "serialpos": 5, "key_press": -1, "wordID": 1191, "type": "PRES_AUD", "trial_index": 134}, "uniqueid": "MTK1456:324G5B4FB4FIYFLWUXKDBAUSCRL07P", "dateTime": 1515894341952}, {"current_trial": 135, "trialdata": {"rt": -1000, "trial_type": "single-audio", "word": "chipmunk", "stimulus": "/static/audio/wordpool/CHIPMUNK.wav", "conditions": [12, 1600, "a", 12000], "internal_node_id": "0.0-99.0", "trial": 3, "time_elapsed": 1116737, "serialpos": 6, "key_press": -1, "wordID": 303, "type": "PRES_AUD", "trial_index": 135}, "uniqueid": "MTK1456:324G5B4FB4FIYFLWUXKDBAUSCRL07P", "dateTime": 1515894344719}, {"current_trial": 136, "trialdata": {"rt": -1000, "trial_type": "single-audio", "word": "guitar", "stimulus": "/static/audio/wordpool/GUITAR.wav", "conditions": [12, 1600, "a", 12000], "internal_node_id": "0.0-100.0", "trial": 3, "time_elapsed": 1119458, "serialpos": 7, "key_press": -1, "wordID": 669, "type": "PRES_AUD", "trial_index": 136}, "uniqueid": "MTK1456:324G5B4FB4FIYFLWUXKDBAUSCRL07P", "dateTime": 1515894347439}, {"current_trial": 137, "trialdata": {"rt": -1000, "trial_type": "single-audio", "word": "wife", "stimulus": "/static/audio/wordpool/WIFE.wav", "conditions": [12, 1600, "a", 12000], "internal_node_id": "0.0-101.0", "trial": 3, "time_elapsed": 1121936, "serialpos": 8, "key_press": -1, "wordID": 1608, "type": "PRES_AUD", "trial_index": 137}, "uniqueid": "MTK1456:324G5B4FB4FIYFLWUXKDBAUSCRL07P", "dateTime": 1515894349917}, {"current_trial": 138, "trialdata": {"rt": -1000, "trial_type": "single-audio", "word": "snake", "stimulus": "/static/audio/wordpool/SNAKE.wav", "conditions": [12, 1600, "a", 12000], "internal_node_id": "0.0-102.0", "trial": 3, "time_elapsed": 1124438, "serialpos": 9, "key_press": -1, "wordID": 1332, "type": "PRES_AUD", "trial_index": 138}, "uniqueid": "MTK1456:324G5B4FB4FIYFLWUXKDBAUSCRL07P", "dateTime": 1515894352419}, {"current_trial": 139, "trialdata": {"rt": -1000, "trial_type": "single-audio", "word": "suspect", "stimulus": "/static/audio/wordpool/SUSPECT.wav", "conditions": [12, 1600, "a", 12000], "internal_node_id": "0.0-103.0", "trial": 3, "time_elapsed": 1126975, "serialpos": 10, "key_press": -1, "wordID": 1414, "type": "PRES_AUD", "trial_index": 139}, "uniqueid": "MTK1456:324G5B4FB4FIYFLWUXKDBAUSCRL07P", "dateTime": 1515894354956}, {"current_trial": 140, "trialdata": {"rt": -1000, "trial_type": "single-audio", "word": "carrot", "stimulus": "/static/audio/wordpool/CARROT.wav", "conditions": [12, 1600, "a", 12000], "internal_node_id": "0.0-104.0", "trial": 3, "time_elapsed": 1129569, "serialpos": 11, "key_press": -1, "wordID": 248, "type": "PRES_AUD", "trial_index": 140}, "uniqueid": "MTK1456:324G5B4FB4FIYFLWUXKDBAUSCRL07P", "dateTime": 1515894357551}, {"current_trial": 141, "trialdata": {"rt": -1, "trial_type": "single-stim", "stimulus": "", "internal_node_id": "0.0-105.0-0.0", "time_elapsed": 1130863, "key_press": -1, "type": "PRE_RECALL_DELAY", "trial_index": 141}, "uniqueid": "MTK1456:324G5B4FB4FIYFLWUXKDBAUSCRL07P", "dateTime": 1515894358845}, {"current_trial": 142, "trialdata": {"rt": -1000, "trial_type": "single-audio", "stimulus": "/static/audio/400Hz.wav", "internal_node_id": "0.0-106.0", "time_elapsed": 1131370, "key_press": -1, "type": "PRE_RECALL_ALERT", "trial_index": 142}, "uniqueid": "MTK1456:324G5B4FB4FIYFLWUXKDBAUSCRL07P", "dateTime": 1515894359351}, {"current_trial": 143, "trialdata": {"rt": [6280, 8334, 9756, 11322, 14626, 15662, 18380, 28556], "recwords": ["suspect", "carrot", "crab", "oyster", "rifle", "wife", "garbage", "tuba"], "key_times": [3012, 3140, 3231, 3440, 3735, 4206, 4655, 5201, 5342, 5448, 5669, 6280, 7241, 7346, 7652, 7763, 7912, 7978, 8334, 9166, 9320, 9541, 9652, 9756, 10450, 10643, 10778, 10878, 10979, 11132, 11322, 13777, 14009, 14097, 14387, 14499, 14626, 15160, 15314, 15418, 15514, 15662, 17503, 17593, 17674, 17971, 18054, 18136, 18234, 18380, 27848, 27957, 28052, 28196, 28556], "trial_type": "free-recall", "conditions": [12, 1600, "a", 12000], "internal_node_id": "0.0-107.0-0.0", "key_presses": [83, 85, 83, 69, 67, 8, 8, 80, 69, 67, 84, 13, 67, 65, 82, 82, 79, 84, 13, 67, 82, 65, 66, 13, 79, 89, 83, 84, 69, 82, 13, 82, 73, 70, 76, 69, 13, 87, 73, 70, 69, 13, 71, 65, 82, 66, 65, 71, 69, 13, 84, 85, 66, 65, 13], "trial": 3, "time_elapsed": 1191378, "type": "FREE_RECALL", "trial_index": 143}, "uniqueid": "MTK1456:324G5B4FB4FIYFLWUXKDBAUSCRL07P", "dateTime": 1515894419365}, {"current_trial": 144, "trialdata": {"rt": 1792, "trial_type": "text", "internal_node_id": "0.0-108.0", "time_elapsed": 1195177, "key_press": 13, "type": "INSTRUCTIONS", "trial_index": 144}, "uniqueid": "MTK1456:324G5B4FB4FIYFLWUXKDBAUSCRL07P", "dateTime": 1515894423158}, {"current_trial": 145, "trialdata": {"rt": [3537, 6862, 8855], "trial_type": "math-distractor", "key_times": [3031, 3120, 3537, 6400, 6675, 6862, 8404, 8666, 8855], "responses": ["13", "20", "18"], "num2": [5, 8, 1, 8], "num3": [2, 9, 8, 9], "conditions": [12, 800, "a", 12000], "internal_node_id": "0.0-109.0", "key_presses": [97, 99, 13, 98, 96, 13, 97, 104, 13], "trial": 4, "time_elapsed": 1209180, "type": "DISTRACTOR", "trial_index": 145, "num1": [6, 3, 9, 4]}, "uniqueid": "MTK1456:324G5B4FB4FIYFLWUXKDBAUSCRL07P", "dateTime": 1515894437162}, {"current_trial": 146, "trialdata": {"rt": -1, "trial_type": "single-stim", "stimulus": "<p id=\"stim\">10</p>", "internal_node_id": "0.0-110.0-0.0", "time_elapsed": 1212182, "key_press": -1, "trial_index": 146}, "uniqueid": "MTK1456:324G5B4FB4FIYFLWUXKDBAUSCRL07P", "dateTime": 1515894440163}, {"current_trial": 147, "trialdata": {"rt": -1, "trial_type": "single-stim", "stimulus": "<p id=\"stim\">9</p>", "internal_node_id": "0.0-110.0-1.0", "time_elapsed": 1213184, "key_press": -1, "trial_index": 147}, "uniqueid": "MTK1456:324G5B4FB4FIYFLWUXKDBAUSCRL07P", "dateTime": 1515894441165}, {"current_trial": 148, "trialdata": {"rt": -1, "trial_type": "single-stim", "stimulus": "<p id=\"stim\">8</p>", "internal_node_id": "0.0-110.0-2.0", "time_elapsed": 1214186, "key_press": -1, "trial_index": 148}, "uniqueid": "MTK1456:324G5B4FB4FIYFLWUXKDBAUSCRL07P", "dateTime": 1515894442167}, {"current_trial": 149, "trialdata": {"rt": -1, "trial_type": "single-stim", "stimulus": "<p id=\"stim\">7</p>", "internal_node_id": "0.0-110.0-3.0", "time_elapsed": 1215188, "key_press": -1, "trial_index": 149}, "uniqueid": "MTK1456:324G5B4FB4FIYFLWUXKDBAUSCRL07P", "dateTime": 1515894443169}, {"current_trial": 150, "trialdata": {"rt": -1, "trial_type": "single-stim", "stimulus": "<p id=\"stim\">6</p>", "internal_node_id": "0.0-110.0-4.0", "time_elapsed": 1216190, "key_press": -1, "trial_index": 150}, "uniqueid": "MTK1456:324G5B4FB4FIYFLWUXKDBAUSCRL07P", "dateTime": 1515894444171}, {"current_trial": 151, "trialdata": {"rt": -1, "trial_type": "single-stim", "stimulus": "<p id=\"stim\">5</p>", "internal_node_id": "0.0-110.0-5.0", "time_elapsed": 1217191, "key_press": -1, "trial_index": 151}, "uniqueid": "MTK1456:324G5B4FB4FIYFLWUXKDBAUSCRL07P", "dateTime": 1515894445172}, {"current_trial": 152, "trialdata": {"rt": -1, "trial_type": "single-stim", "stimulus": "<p id=\"stim\">4</p>", "internal_node_id": "0.0-110.0-6.0", "time_elapsed": 1218194, "key_press": -1, "trial_index": 152}, "uniqueid": "MTK1456:324G5B4FB4FIYFLWUXKDBAUSCRL07P", "dateTime": 1515894446175}, {"current_trial": 153, "trialdata": {"rt": -1, "trial_type": "single-stim", "stimulus": "<p id=\"stim\">3</p>", "internal_node_id": "0.0-110.0-7.0", "time_elapsed": 1219196, "key_press": -1, "trial_index": 153}, "uniqueid": "MTK1456:324G5B4FB4FIYFLWUXKDBAUSCRL07P", "dateTime": 1515894447177}, {"current_trial": 154, "trialdata": {"rt": -1, "trial_type": "single-stim", "stimulus": "<p id=\"stim\">2</p>", "internal_node_id": "0.0-110.0-8.0", "time_elapsed": 1220197, "key_press": -1, "trial_index": 154}, "uniqueid": "MTK1456:324G5B4FB4FIYFLWUXKDBAUSCRL07P", "dateTime": 1515894448178}, {"current_trial": 155, "trialdata": {"rt": -1, "trial_type": "single-stim", "stimulus": "<p id=\"stim\">1</p>", "internal_node_id": "0.0-110.0-9.0", "time_elapsed": 1221198, "key_press": -1, "trial_index": 155}, "uniqueid": "MTK1456:324G5B4FB4FIYFLWUXKDBAUSCRL07P", "dateTime": 1515894449179}, {"current_trial": 156, "trialdata": {"rt": -1, "trial_type": "single-stim", "stimulus": "<p id=\"stim\">+</p>", "internal_node_id": "0.0-111.0-0.0", "time_elapsed": 1222701, "key_press": -1, "type": "FIXATION", "trial_index": 156}, "uniqueid": "MTK1456:324G5B4FB4FIYFLWUXKDBAUSCRL07P", "dateTime": 1515894450682}, {"current_trial": 157, "trialdata": {"rt": -1000, "trial_type": "single-audio", "word": "college", "stimulus": "/static/audio/wordpool/COLLEGE.wav", "conditions": [12, 800, "a", 12000], "internal_node_id": "0.0-112.0", "trial": 4, "time_elapsed": 1224435, "serialpos": 0, "key_press": -1, "wordID": 345, "type": "PRES_AUD", "trial_index": 157}, "uniqueid": "MTK1456:324G5B4FB4FIYFLWUXKDBAUSCRL07P", "dateTime": 1515894452416}, {"current_trial": 158, "trialdata": {"rt": -1000, "trial_type": "single-audio", "word": "survey", "stimulus": "/static/audio/wordpool/SURVEY.wav", "conditions": [12, 800, "a", 12000], "internal_node_id": "0.0-113.0", "trial": 4, "time_elapsed": 1226112, "serialpos": 1, "key_press": -1, "wordID": 1413, "type": "PRES_AUD", "trial_index": 158}, "uniqueid": "MTK1456:324G5B4FB4FIYFLWUXKDBAUSCRL07P", "dateTime": 1515894454094}, {"current_trial": 159, "trialdata": {"rt": -1000, "trial_type": "single-audio", "word": "report", "stimulus": "/static/audio/wordpool/REPORT.wav", "conditions": [12, 800, "a", 12000], "internal_node_id": "0.0-114.0", "trial": 4, "time_elapsed": 1227857, "serialpos": 2, "key_press": -1, "wordID": 1183, "type": "PRES_AUD", "trial_index": 159}, "uniqueid": "MTK1456:324G5B4FB4FIYFLWUXKDBAUSCRL07P", "dateTime": 1515894455839}, {"current_trial": 160, "trialdata": {"rt": -1000, "trial_type": "single-audio", "word": "fungus", "stimulus": "/static/audio/wordpool/FUNGUS.wav", "conditions": [12, 800, "a", 12000], "internal_node_id": "0.0-115.0", "trial": 4, "time_elapsed": 1229641, "serialpos": 3, "key_press": -1, "wordID": 613, "type": "PRES_AUD", "trial_index": 160}, "uniqueid": "MTK1456:324G5B4FB4FIYFLWUXKDBAUSCRL07P", "dateTime": 1515894457624}, {"current_trial": 161, "trialdata": {"rt": -1000, "trial_type": "single-audio", "word": "brick", "stimulus": "/static/audio/wordpool/BRICK.wav", "conditions": [12, 800, "a", 12000], "internal_node_id": "0.0-116.0", "trial": 4, "time_elapsed": 1231332, "serialpos": 4, "key_press": -1, "wordID": 171, "type": "PRES_AUD", "trial_index": 161}, "uniqueid": "MTK1456:324G5B4FB4FIYFLWUXKDBAUSCRL07P", "dateTime": 1515894459313}, {"current_trial": 162, "trialdata": {"rt": -1000, "trial_type": "single-audio", "word": "tombstone", "stimulus": "/static/audio/wordpool/TOMBSTONE.wav", "conditions": [12, 800, "a", 12000], "internal_node_id": "0.0-117.0", "trial": 4, "time_elapsed": 1233216, "serialpos": 5, "key_press": -1, "wordID": 1477, "type": "PRES_AUD", "trial_index": 162}, "uniqueid": "MTK1456:324G5B4FB4FIYFLWUXKDBAUSCRL07P", "dateTime": 1515894461197}, {"current_trial": 163, "trialdata": {"rt": -1000, "trial_type": "single-audio", "word": "forehead", "stimulus": "/static/audio/wordpool/FOREHEAD.wav", "conditions": [12, 800, "a", 12000], "internal_node_id": "0.0-118.0", "trial": 4, "time_elapsed": 1235086, "serialpos": 6, "key_press": -1, "wordID": 591, "type": "PRES_AUD", "trial_index": 163}, "uniqueid": "MTK1456:324G5B4FB4FIYFLWUXKDBAUSCRL07P", "dateTime": 1515894463067}, {"current_trial": 164, "trialdata": {"rt": -1000, "trial_type": "single-audio", "word": "ozone", "stimulus": "/static/audio/wordpool/OZONE.wav", "conditions": [12, 800, "a", 12000], "internal_node_id": "0.0-119.0", "trial": 4, "time_elapsed": 1236881, "serialpos": 7, "key_press": -1, "wordID": 995, "type": "PRES_AUD", "trial_index": 164}, "uniqueid": "MTK1456:324G5B4FB4FIYFLWUXKDBAUSCRL07P", "dateTime": 1515894464862}, {"current_trial": 165, "trialdata": {"rt": -1000, "trial_type": "single-audio", "word": "worker", "stimulus": "/static/audio/wordpool/WORKER.wav", "conditions": [12, 800, "a", 12000], "internal_node_id": "0.0-120.0", "trial": 4, "time_elapsed": 1238818, "serialpos": 8, "key_press": -1, "wordID": 1620, "type": "PRES_AUD", "trial_index": 165}, "uniqueid": "MTK1456:324G5B4FB4FIYFLWUXKDBAUSCRL07P", "dateTime": 1515894466799}, {"current_trial": 166, "trialdata": {"rt": -1000, "trial_type": "single-audio", "word": "chapel", "stimulus": "/static/audio/wordpool/CHAPEL.wav", "conditions": [12, 800, "a", 12000], "internal_node_id": "0.0-121.0", "trial": 4, "time_elapsed": 1240446, "serialpos": 9, "key_press": -1, "wordID": 279, "type": "PRES_AUD", "trial_index": 166}, "uniqueid": "MTK1456:324G5B4FB4FIYFLWUXKDBAUSCRL07P", "dateTime": 1515894468427}, {"current_trial": 167, "trialdata": {"rt": -1000, "trial_type": "single-audio", "word": "bug", "stimulus": "/static/audio/wordpool/BUG.wav", "conditions": [12, 800, "a", 12000], "internal_node_id": "0.0-122.0", "trial": 4, "time_elapsed": 1242268, "serialpos": 10, "key_press": -1, "wordID": 186, "type": "PRES_AUD", "trial_index": 167}, "uniqueid": "MTK1456:324G5B4FB4FIYFLWUXKDBAUSCRL07P", "dateTime": 1515894470249}, {"current_trial": 168, "trialdata": {"rt": -1000, "trial_type": "single-audio", "word": "tile", "stimulus": "/static/audio/wordpool/TILE.wav", "conditions": [12, 800, "a", 12000], "internal_node_id": "0.0-123.0", "trial": 4, "time_elapsed": 1243889, "serialpos": 11, "key_press": -1, "wordID": 1467, "type": "PRES_AUD", "trial_index": 168}, "uniqueid": "MTK1456:324G5B4FB4FIYFLWUXKDBAUSCRL07P", "dateTime": 1515894471870}, {"current_trial": 169, "trialdata": {"rt": -1, "trial_type": "single-stim", "stimulus": "", "internal_node_id": "0.0-124.0-0.0", "time_elapsed": 1245270, "key_press": -1, "type": "PRE_RECALL_DELAY", "trial_index": 169}, "uniqueid": "MTK1456:324G5B4FB4FIYFLWUXKDBAUSCRL07P", "dateTime": 1515894473251}, {"current_trial": 170, "trialdata": {"rt": -1000, "trial_type": "single-audio", "stimulus": "/static/audio/400Hz.wav", "internal_node_id": "0.0-125.0", "time_elapsed": 1245778, "key_press": -1, "type": "PRE_RECALL_ALERT", "trial_index": 170}, "uniqueid": "MTK1456:324G5B4FB4FIYFLWUXKDBAUSCRL07P", "dateTime": 1515894473760}, {"current_trial": 171, "trialdata": {"rt": [3267, 4069, 5771, 9932, 11833, 14628, 16733, 22749, 27983], "recwords": ["tile", "bug", "chapel", "brick", "fungus", "survvey", "college", "ozone", "chapel"], "key_times": [1602, 1673, 2154, 2265, 2397, 2497, 2598, 2759, 3267, 3751, 3803, 3916, 4069, 4583, 4678, 4744, 4852, 4960, 5485, 5771, 9002, 9417, 9555, 9658, 9769, 9932, 10221, 10344, 10432, 10519, 10627, 11189, 11833, 13735, 13858, 13966, 14101, 14124, 14235, 14369, 14628, 15498, 15637, 15900, 16038, 16136, 16157, 16236, 16733, 22045, 22123, 22216, 22535, 22645, 22749, 26648, 26819, 27236, 27474, 27621, 27728, 27983], "trial_type": "free-recall", "conditions": [12, 800, "a", 12000], "internal_node_id": "0.0-126.0-0.0", "key_presses": [73, 76, 8, 8, 84, 73, 76, 69, 13, 66, 85, 71, 13, 67, 72, 65, 80, 69, 76, 13, 66, 82, 73, 67, 75, 13, 70, 85, 78, 71, 85, 83, 13, 83, 85, 82, 86, 86, 69, 89, 13, 67, 79, 76, 76, 69, 71, 69, 13, 79, 90, 79, 78, 69, 13, 67, 72, 65, 80, 69, 76, 13], "trial": 4, "time_elapsed": 1305783, "type": "FREE_RECALL", "trial_index": 171}, "uniqueid": "MTK1456:324G5B4FB4FIYFLWUXKDBAUSCRL07P", "dateTime": 1515894533771}, {"current_trial": 172, "trialdata": {"rt": 10605, "trial_type": "text", "internal_node_id": "0.0-127.0", "time_elapsed": 1318398, "key_press": 32, "type": "INSTRUCTIONS", "trial_index": 172}, "uniqueid": "MTK1456:324G5B4FB4FIYFLWUXKDBAUSCRL07P", "dateTime": 1515894546379}, {"current_trial": 173, "trialdata": {"rt": [1752, 3297, 5862, 8294], "trial_type": "math-distractor", "key_times": [1569, 1752, 3014, 3171, 3297, 4913, 5111, 5862, 8097, 8294], "responses": ["8", "24", "10", "9"], "num2": [3, 8, 2, 3, 6], "num3": [2, 8, 1, 5, 5], "conditions": [24, 1600, "a", 12000], "internal_node_id": "0.0-128.0", "key_presses": [104, 13, 98, 100, 13, 97, 96, 13, 105, 13], "trial": 5, "time_elapsed": 1332403, "type": "DISTRACTOR", "trial_index": 173, "num1": [3, 8, 7, 1, 7]}, "uniqueid": "MTK1456:324G5B4FB4FIYFLWUXKDBAUSCRL07P", "dateTime": 1515894560384}, {"current_trial": 174, "trialdata": {"rt": -1, "trial_type": "single-stim", "stimulus": "<p id=\"stim\">10</p>", "internal_node_id": "0.0-129.0-0.0", "time_elapsed": 1335406, "key_press": -1, "trial_index": 174}, "uniqueid": "MTK1456:324G5B4FB4FIYFLWUXKDBAUSCRL07P", "dateTime": 1515894563387}, {"current_trial": 175, "trialdata": {"rt": -1, "trial_type": "single-stim", "stimulus": "<p id=\"stim\">9</p>", "internal_node_id": "0.0-129.0-1.0", "time_elapsed": 1336409, "key_press": -1, "trial_index": 175}, "uniqueid": "MTK1456:324G5B4FB4FIYFLWUXKDBAUSCRL07P", "dateTime": 1515894564390}, {"current_trial": 176, "trialdata": {"rt": -1, "trial_type": "single-stim", "stimulus": "<p id=\"stim\">8</p>", "internal_node_id": "0.0-129.0-2.0", "time_elapsed": 1337410, "key_press": -1, "trial_index": 176}, "uniqueid": "MTK1456:324G5B4FB4FIYFLWUXKDBAUSCRL07P", "dateTime": 1515894565392}, {"current_trial": 177, "trialdata": {"rt": -1, "trial_type": "single-stim", "stimulus": "<p id=\"stim\">7</p>", "internal_node_id": "0.0-129.0-3.0", "time_elapsed": 1338413, "key_press": -1, "trial_index": 177}, "uniqueid": "MTK1456:324G5B4FB4FIYFLWUXKDBAUSCRL07P", "dateTime": 1515894566394}, {"current_trial": 178, "trialdata": {"rt": -1, "trial_type": "single-stim", "stimulus": "<p id=\"stim\">6</p>", "internal_node_id": "0.0-129.0-4.0", "time_elapsed": 1339414, "key_press": -1, "trial_index": 178}, "uniqueid": "MTK1456:324G5B4FB4FIYFLWUXKDBAUSCRL07P", "dateTime": 1515894567395}, {"current_trial": 179, "trialdata": {"rt": -1, "trial_type": "single-stim", "stimulus": "<p id=\"stim\">5</p>", "internal_node_id": "0.0-129.0-5.0", "time_elapsed": 1340416, "key_press": -1, "trial_index": 179}, "uniqueid": "MTK1456:324G5B4FB4FIYFLWUXKDBAUSCRL07P", "dateTime": 1515894568397}, {"current_trial": 180, "trialdata": {"rt": -1, "trial_type": "single-stim", "stimulus": "<p id=\"stim\">4</p>", "internal_node_id": "0.0-129.0-6.0", "time_elapsed": 1341419, "key_press": -1, "trial_index": 180}, "uniqueid": "MTK1456:324G5B4FB4FIYFLWUXKDBAUSCRL07P", "dateTime": 1515894569400}, {"current_trial": 181, "trialdata": {"rt": -1, "trial_type": "single-stim", "stimulus": "<p id=\"stim\">3</p>", "internal_node_id": "0.0-129.0-7.0", "time_elapsed": 1342420, "key_press": -1, "trial_index": 181}, "uniqueid": "MTK1456:324G5B4FB4FIYFLWUXKDBAUSCRL07P", "dateTime": 1515894570402}, {"current_trial": 182, "trialdata": {"rt": -1, "trial_type": "single-stim", "stimulus": "<p id=\"stim\">2</p>", "internal_node_id": "0.0-129.0-8.0", "time_elapsed": 1343422, "key_press": -1, "trial_index": 182}, "uniqueid": "MTK1456:324G5B4FB4FIYFLWUXKDBAUSCRL07P", "dateTime": 1515894571403}, {"current_trial": 183, "trialdata": {"rt": -1, "trial_type": "single-stim", "stimulus": "<p id=\"stim\">1</p>", "internal_node_id": "0.0-129.0-9.0", "time_elapsed": 1344423, "key_press": -1, "trial_index": 183}, "uniqueid": "MTK1456:324G5B4FB4FIYFLWUXKDBAUSCRL07P", "dateTime": 1515894572405}, {"current_trial": 184, "trialdata": {"rt": -1, "trial_type": "single-stim", "stimulus": "<p id=\"stim\">+</p>", "internal_node_id": "0.0-130.0-0.0", "time_elapsed": 1345925, "key_press": -1, "type": "FIXATION", "trial_index": 184}, "uniqueid": "MTK1456:324G5B4FB4FIYFLWUXKDBAUSCRL07P", "dateTime": 1515894573906}, {"current_trial": 185, "trialdata": {"rt": -1000, "trial_type": "single-audio", "word": "scissors", "stimulus": "/static/audio/wordpool/SCISSORS.wav", "conditions": [24, 1600, "a", 12000], "internal_node_id": "0.0-131.0", "trial": 5, "time_elapsed": 1348418, "serialpos": 0, "key_press": -1, "wordID": 1249, "type": "PRES_AUD", "trial_index": 185}, "uniqueid": "MTK1456:324G5B4FB4FIYFLWUXKDBAUSCRL07P", "dateTime": 1515894576399}, {"current_trial": 186, "trialdata": {"rt": -1000, "trial_type": "single-audio", "word": "smog", "stimulus": "/static/audio/wordpool/SMOG.wav", "conditions": [24, 1600, "a", 12000], "internal_node_id": "0.0-132.0", "trial": 5, "time_elapsed": 1351195, "serialpos": 1, "key_press": -1, "wordID": 1329, "type": "PRES_AUD", "trial_index": 186}, "uniqueid": "MTK1456:324G5B4FB4FIYFLWUXKDBAUSCRL07P", "dateTime": 1515894579176}, {"current_trial": 187, "trialdata": {"rt": -1000, "trial_type": "single-audio", "word": "actor", "stimulus": "/static/audio/wordpool/ACTOR.wav", "conditions": [24, 1600, "a", 12000], "internal_node_id": "0.0-133.0", "trial": 5, "time_elapsed": 1353844, "serialpos": 2, "key_press": -1, "wordID": 4, "type": "PRES_AUD", "trial_index": 187}, "uniqueid": "MTK1456:324G5B4FB4FIYFLWUXKDBAUSCRL07P", "dateTime": 1515894581826}, {"current_trial": 188, "trialdata": {"rt": -1000, "trial_type": "single-audio", "word": "tweezers", "stimulus": "/static/audio/wordpool/TWEEZERS.wav", "conditions": [24, 1600, "a", 12000], "internal_node_id": "0.0-134.0", "trial": 5, "time_elapsed": 1356429, "serialpos": 3, "key_press": -1, "wordID": 1525, "type": "PRES_AUD", "trial_index": 188}, "uniqueid": "MTK1456:324G5B4FB4FIYFLWUXKDBAUSCRL07P", "dateTime": 1515894584410}, {"current_trial": 189, "trialdata": {"rt": -1000, "trial_type": "single-audio", "word": "dust", "stimulus": "/static/audio/wordpool/DUST.wav", "conditions": [24, 1600, "a", 12000], "internal_node_id": "0.0-135.0", "trial": 5, "time_elapsed": 1358840, "serialpos": 4, "key_press": -1, "wordID": 507, "type": "PRES_AUD", "trial_index": 189}, "uniqueid": "MTK1456:324G5B4FB4FIYFLWUXKDBAUSCRL07P", "dateTime": 1515894586821}, {"current_trial": 190, "trialdata": {"rt": -1000, "trial_type": "single-audio", "word": "heart", "stimulus": "/static/audio/wordpool/HEART.wav", "conditions": [24, 1600, "a", 12000], "internal_node_id": "0.0-136.0", "trial": 5, "time_elapsed": 1361375, "serialpos": 5, "key_press": -1, "wordID": 696, "type": "PRES_AUD", "trial_index": 190}, "uniqueid": "MTK1456:324G5B4FB4FIYFLWUXKDBAUSCRL07P", "dateTime": 1515894589357}, {"current_trial": 191, "trialdata": {"rt": -1000, "trial_type": "single-audio", "word": "dandruff", "stimulus": "/static/audio/wordpool/DANDRUFF.wav", "conditions": [24, 1600, "a", 12000], "internal_node_id": "0.0-137.0", "trial": 5, "time_elapsed": 1363880, "serialpos": 6, "key_press": -1, "wordID": 438, "type": "PRES_AUD", "trial_index": 191}, "uniqueid": "MTK1456:324G5B4FB4FIYFLWUXKDBAUSCRL07P", "dateTime": 1515894591861}, {"current_trial": 192, "trialdata": {"rt": -1000, "trial_type": "single-audio", "word": "viking", "stimulus": "/static/audio/wordpool/VIKING.wav", "conditions": [24, 1600, "a", 12000], "internal_node_id": "0.0-138.0", "trial": 5, "time_elapsed": 1366488, "serialpos": 7, "key_press": -1, "wordID": 1564, "type": "PRES_AUD", "trial_index": 192}, "uniqueid": "MTK1456:324G5B4FB4FIYFLWUXKDBAUSCRL07P", "dateTime": 1515894594469}, {"current_trial": 193, "trialdata": {"rt": -1000, "trial_type": "single-audio", "word": "thief", "stimulus": "/static/audio/wordpool/THIEF.wav", "conditions": [24, 1600, "a", 12000], "internal_node_id": "0.0-139.0", "trial": 5, "time_elapsed": 1369140, "serialpos": 8, "key_press": -1, "wordID": 1455, "type": "PRES_AUD", "trial_index": 193}, "uniqueid": "MTK1456:324G5B4FB4FIYFLWUXKDBAUSCRL07P", "dateTime": 1515894597121}, {"current_trial": 194, "trialdata": {"rt": -1000, "trial_type": "single-audio", "word": "pilot", "stimulus": "/static/audio/wordpool/PILOT.wav", "conditions": [24, 1600, "a", 12000], "internal_node_id": "0.0-140.0", "trial": 5, "time_elapsed": 1371585, "serialpos": 9, "key_press": -1, "wordID": 1069, "type": "PRES_AUD", "trial_index": 194}, "uniqueid": "MTK1456:324G5B4FB4FIYFLWUXKDBAUSCRL07P", "dateTime": 1515894599566}, {"current_trial": 195, "trialdata": {"rt": -1000, "trial_type": "single-audio", "word": "snack", "stimulus": "/static/audio/wordpool/SNACK.wav", "conditions": [24, 1600, "a", 12000], "internal_node_id": "0.0-141.0", "trial": 5, "time_elapsed": 1374036, "serialpos": 10, "key_press": -1, "wordID": 1330, "type": "PRES_AUD", "trial_index": 195}, "uniqueid": "MTK1456:324G5B4FB4FIYFLWUXKDBAUSCRL07P", "dateTime": 1515894602018}, {"current_trial": 196, "trialdata": {"rt": -1000, "trial_type": "single-audio", "word": "lunch", "stimulus": "/static/audio/wordpool/LUNCH.wav", "conditions": [24, 1600, "a", 12000], "internal_node_id": "0.0-142.0", "trial": 5, "time_elapsed": 1376750, "serialpos": 11, "key_press": -1, "wordID": 848, "type": "PRES_AUD", "trial_index": 196}, "uniqueid": "MTK1456:324G5B4FB4FIYFLWUXKDBAUSCRL07P", "dateTime": 1515894604732}, {"current_trial": 197, "trialdata": {"rt": -1000, "trial_type": "single-audio", "word": "spouse", "stimulus": "/static/audio/wordpool/SPOUSE.wav", "conditions": [24, 1600, "a", 12000], "internal_node_id": "0.0-143.0", "trial": 5, "time_elapsed": 1379287, "serialpos": 12, "key_press": -1, "wordID": 1357, "type": "PRES_AUD", "trial_index": 197}, "uniqueid": "MTK1456:324G5B4FB4FIYFLWUXKDBAUSCRL07P", "dateTime": 1515894607268}, {"current_trial": 198, "trialdata": {"rt": -1000, "trial_type": "single-audio", "word": "contract", "stimulus": "/static/audio/wordpool/CONTRACT.wav", "conditions": [24, 1600, "a", 12000], "internal_node_id": "0.0-144.0", "trial": 5, "time_elapsed": 1381781, "serialpos": 13, "key_press": -1, "wordID": 367, "type": "PRES_AUD", "trial_index": 198}, "uniqueid": "MTK1456:324G5B4FB4FIYFLWUXKDBAUSCRL07P", "dateTime": 1515894609762}, {"current_trial": 199, "trialdata": {"rt": -1000, "trial_type": "single-audio", "word": "muffin", "stimulus": "/static/audio/wordpool/MUFFIN.wav", "conditions": [24, 1600, "a", 12000], "internal_node_id": "0.0-145.0", "trial": 5, "time_elapsed": 1384439, "serialpos": 14, "key_press": -1, "wordID": 928, "type": "PRES_AUD", "trial_index": 199}, "uniqueid": "MTK1456:324G5B4FB4FIYFLWUXKDBAUSCRL07P", "dateTime": 1515894612421}, {"current_trial": 200, "trialdata": {"rt": -1000, "trial_type": "single-audio", "word": "apple", "stimulus": "/static/audio/wordpool/APPLE.wav", "conditions": [24, 1600, "a", 12000], "internal_node_id": "0.0-146.0", "trial": 5, "time_elapsed": 1387123, "serialpos": 15, "key_press": -1, "wordID": 32, "type": "PRES_AUD", "trial_index": 200}, "uniqueid": "MTK1456:324G5B4FB4FIYFLWUXKDBAUSCRL07P", "dateTime": 1515894615104}, {"current_trial": 201, "trialdata": {"rt": -1000, "trial_type": "single-audio", "word": "climber", "stimulus": "/static/audio/wordpool/CLIMBER.wav", "conditions": [24, 1600, "a", 12000], "internal_node_id": "0.0-147.0", "trial": 5, "time_elapsed": 1389831, "serialpos": 16, "key_press": -1, "wordID": 322, "type": "PRES_AUD", "trial_index": 201}, "uniqueid": "MTK1456:324G5B4FB4FIYFLWUXKDBAUSCRL07P", "dateTime": 1515894617812}, {"current_trial": 202, "trialdata": {"rt": -1000, "trial_type": "single-audio", "word": "wardrobe", "stimulus": "/static/audio/wordpool/WARDROBE.wav", "conditions": [24, 1600, "a", 12000], "internal_node_id": "0.0-148.0", "trial": 5, "time_elapsed": 1392293, "serialpos": 17, "key_press": -1, "wordID": 1586, "type": "PRES_AUD", "trial_index": 202}, "uniqueid": "MTK1456:324G5B4FB4FIYFLWUXKDBAUSCRL07P", "dateTime": 1515894620274}, {"current_trial": 203, "trialdata": {"rt": -1000, "trial_type": "single-audio", "word": "glass", "stimulus": "/static/audio/wordpool/GLASS.wav", "conditions": [24, 1600, "a", 12000], "internal_node_id": "0.0-149.0", "trial": 5, "time_elapsed": 1394716, "serialpos": 18, "key_press": -1, "wordID": 638, "type": "PRES_AUD", "trial_index": 203}, "uniqueid": "MTK1456:324G5B4FB4FIYFLWUXKDBAUSCRL07P", "dateTime": 1515894622697}, {"current_trial": 204, "trialdata": {"rt": -1000, "trial_type": "single-audio", "word": "parent", "stimulus": "/static/audio/wordpool/PARENT.wav", "conditions": [24, 1600, "a", 12000], "internal_node_id": "0.0-150.0", "trial": 5, "time_elapsed": 1397372, "serialpos": 19, "key_press": -1, "wordID": 1012, "type": "PRES_AUD", "trial_index": 204}, "uniqueid": "MTK1456:324G5B4FB4FIYFLWUXKDBAUSCRL07P", "dateTime": 1515894625353}, {"current_trial": 205, "trialdata": {"rt": -1000, "trial_type": "single-audio", "word": "harp", "stimulus": "/static/audio/wordpool/HARP.wav", "conditions": [24, 1600, "a", 12000], "internal_node_id": "0.0-151.0", "trial": 5, "time_elapsed": 1399794, "serialpos": 20, "key_press": -1, "wordID": 688, "type": "PRES_AUD", "trial_index": 205}, "uniqueid": "MTK1456:324G5B4FB4FIYFLWUXKDBAUSCRL07P", "dateTime": 1515894627775}, {"current_trial": 206, "trialdata": {"rt": -1000, "trial_type": "single-audio", "word": "flute", "stimulus": "/static/audio/wordpool/FLUTE.wav", "conditions": [24, 1600, "a", 12000], "internal_node_id": "0.0-152.0", "trial": 5, "time_elapsed": 1402547, "serialpos": 21, "key_press": -1, "wordID": 584, "type": "PRES_AUD", "trial_index": 206}, "uniqueid": "MTK1456:324G5B4FB4FIYFLWUXKDBAUSCRL07P", "dateTime": 1515894630528}, {"current_trial": 207, "trialdata": {"rt": -1000, "trial_type": "single-audio", "word": "female", "stimulus": "/static/audio/wordpool/FEMALE.wav", "conditions": [24, 1600, "a", 12000], "internal_node_id": "0.0-153.0", "trial": 5, "time_elapsed": 1405205, "serialpos": 22, "key_press": -1, "wordID": 558, "type": "PRES_AUD", "trial_index": 207}, "uniqueid": "MTK1456:324G5B4FB4FIYFLWUXKDBAUSCRL07P", "dateTime": 1515894633186}, {"current_trial": 208, "trialdata": {"rt": -1000, "trial_type": "single-audio", "word": "hiker", "stimulus": "/static/audio/wordpool/HIKER.wav", "conditions": [24, 1600, "a", 12000], "internal_node_id": "0.0-154.0", "trial": 5, "time_elapsed": 1407955, "serialpos": 23, "key_press": -1, "wordID": 707, "type": "PRES_AUD", "trial_index": 208}, "uniqueid": "MTK1456:324G5B4FB4FIYFLWUXKDBAUSCRL07P", "dateTime": 1515894635936}, {"current_trial": 209, "trialdata": {"rt": -1, "trial_type": "single-stim", "stimulus": "", "internal_node_id": "0.0-155.0-0.0", "time_elapsed": 1409207, "key_press": -1, "type": "PRE_RECALL_DELAY", "trial_index": 209}, "uniqueid": "MTK1456:324G5B4FB4FIYFLWUXKDBAUSCRL07P", "dateTime": 1515894637188}, {"current_trial": 210, "trialdata": {"rt": -1000, "trial_type": "single-audio", "stimulus": "/static/audio/400Hz.wav", "internal_node_id": "0.0-156.0", "time_elapsed": 1409710, "key_press": -1, "type": "PRE_RECALL_ALERT", "trial_index": 210}, "uniqueid": "MTK1456:324G5B4FB4FIYFLWUXKDBAUSCRL07P", "dateTime": 1515894637691}, {"current_trial": 211, "trialdata": {"rt": [2110, 3018, 4619, 11198, 14131, 19516, 21401, 27544, 32498, 36769, 42389], "recwords": ["hiker", "flute", "female", "climber", "muffin", "spouse", "lunch", "tweezers", "smog", "scissors", "harp"], "key_times": [740, 816, 1340, 1445, 1506, 2110, 2454, 2554, 2705, 2816, 2904, 3018, 3446, 3518, 3684, 3788, 3892, 3999, 4619, 10412, 10468, 10583, 10693, 10923, 10989, 11049, 11198, 13062, 13275, 13389, 13528, 13817, 13866, 14131, 18204, 18343, 18415, 18669, 18896, 18990, 19516, 19997, 20199, 20385, 21098, 21180, 21401, 25957, 26073, 26234, 26386, 26561, 26754, 26836, 26930, 27544, 30612, 30704, 31008, 31829, 32328, 32386, 32498, 35724, 35834, 36035, 36232, 36365, 36498, 36591, 36676, 36769, 41900, 42010, 42100, 42252, 42389], "trial_type": "free-recall", "conditions": [24, 1600, "a", 12000], "internal_node_id": "0.0-157.0-0.0", "key_presses": [72, 73, 75, 69, 82, 13, 70, 76, 85, 84, 69, 13, 70, 69, 77, 65, 76, 69, 13, 67, 76, 73, 77, 66, 69, 82, 13, 77, 85, 70, 70, 73, 78, 13, 83, 80, 79, 85, 83, 69, 13, 76, 85, 78, 67, 72, 13, 84, 87, 69, 69, 90, 69, 82, 83, 13, 83, 77, 71, 8, 79, 71, 13, 83, 67, 73, 83, 83, 79, 82, 83, 13, 72, 65, 82, 80, 13], "trial": 5, "time_elapsed": 1469715, "type": "FREE_RECALL", "trial_index": 211}, "uniqueid": "MTK1456:324G5B4FB4FIYFLWUXKDBAUSCRL07P", "dateTime": 1515894697702}, {"current_trial": 212, "trialdata": {"rt": 1297, "trial_type": "text", "internal_node_id": "0.0-158.0", "time_elapsed": 1473020, "key_press": 32, "type": "INSTRUCTIONS", "trial_index": 212}, "uniqueid": "MTK1456:324G5B4FB4FIYFLWUXKDBAUSCRL07P", "dateTime": 1515894701001}, {"current_trial": 213, "trialdata": {"rt": [2447, 5268, 7580, 9708, 12084, 14135, 15947, 17612, 21733, 23075], "trial_type": "math-distractor", "key_times": [2190, 2278, 2447, 4977, 5132, 5268, 7337, 7414, 7580, 9269, 9374, 9708, 11860, 11923, 12084, 13897, 13963, 14135, 15690, 15756, 15947, 17220, 17404, 17612, 21418, 21595, 21733, 22840, 22977, 23075], "responses": ["11", "14", "16", "13", "13", "21", "13", "17", "20", "11"], "num2": [3, 4, 4, 1, 3, 9, 2, 7, 6, 5, 9], "num3": [2, 2, 7, 6, 7, 3, 8, 9, 6, 1, 9], "conditions": [24, 1600, "a", 24000], "internal_node_id": "0.0-159.0", "key_presses": [97, 97, 13, 97, 100, 13, 97, 102, 13, 97, 99, 13, 97, 99, 13, 98, 97, 13, 97, 99, 13, 97, 103, 13, 98, 96, 13, 97, 97, 13], "trial": 6, "time_elapsed": 1499025, "type": "DISTRACTOR", "trial_index": 213, "num1": [6, 8, 5, 3, 5, 9, 3, 1, 8, 5, 6]}, "uniqueid": "MTK1456:324G5B4FB4FIYFLWUXKDBAUSCRL07P", "dateTime": 1515894727006}, {"current_trial": 214, "trialdata": {"rt": -1, "trial_type": "single-stim", "stimulus": "<p id=\"stim\">10</p>", "internal_node_id": "0.0-160.0-0.0", "time_elapsed": 1502028, "key_press": -1, "trial_index": 214}, "uniqueid": "MTK1456:324G5B4FB4FIYFLWUXKDBAUSCRL07P", "dateTime": 1515894730009}, {"current_trial": 215, "trialdata": {"rt": -1, "trial_type": "single-stim", "stimulus": "<p id=\"stim\">9</p>", "internal_node_id": "0.0-160.0-1.0", "time_elapsed": 1503029, "key_press": -1, "trial_index": 215}, "uniqueid": "MTK1456:324G5B4FB4FIYFLWUXKDBAUSCRL07P", "dateTime": 1515894731010}, {"current_trial": 216, "trialdata": {"rt": -1, "trial_type": "single-stim", "stimulus": "<p id=\"stim\">8</p>", "internal_node_id": "0.0-160.0-2.0", "time_elapsed": 1504031, "key_press": -1, "trial_index": 216}, "uniqueid": "MTK1456:324G5B4FB4FIYFLWUXKDBAUSCRL07P", "dateTime": 1515894732012}, {"current_trial": 217, "trialdata": {"rt": -1, "trial_type": "single-stim", "stimulus": "<p id=\"stim\">7</p>", "internal_node_id": "0.0-160.0-3.0", "time_elapsed": 1505032, "key_press": -1, "trial_index": 217}, "uniqueid": "MTK1456:324G5B4FB4FIYFLWUXKDBAUSCRL07P", "dateTime": 1515894733013}, {"current_trial": 218, "trialdata": {"rt": -1, "trial_type": "single-stim", "stimulus": "<p id=\"stim\">6</p>", "internal_node_id": "0.0-160.0-4.0", "time_elapsed": 1506034, "key_press": -1, "trial_index": 218}, "uniqueid": "MTK1456:324G5B4FB4FIYFLWUXKDBAUSCRL07P", "dateTime": 1515894734015}, {"current_trial": 219, "trialdata": {"rt": -1, "trial_type": "single-stim", "stimulus": "<p id=\"stim\">5</p>", "internal_node_id": "0.0-160.0-5.0", "time_elapsed": 1507035, "key_press": -1, "trial_index": 219}, "uniqueid": "MTK1456:324G5B4FB4FIYFLWUXKDBAUSCRL07P", "dateTime": 1515894735016}, {"current_trial": 220, "trialdata": {"rt": -1, "trial_type": "single-stim", "stimulus": "<p id=\"stim\">4</p>", "internal_node_id": "0.0-160.0-6.0", "time_elapsed": 1508037, "key_press": -1, "trial_index": 220}, "uniqueid": "MTK1456:324G5B4FB4FIYFLWUXKDBAUSCRL07P", "dateTime": 1515894736019}, {"current_trial": 221, "trialdata": {"rt": -1, "trial_type": "single-stim", "stimulus": "<p id=\"stim\">3</p>", "internal_node_id": "0.0-160.0-7.0", "time_elapsed": 1509041, "key_press": -1, "trial_index": 221}, "uniqueid": "MTK1456:324G5B4FB4FIYFLWUXKDBAUSCRL07P", "dateTime": 1515894737022}, {"current_trial": 222, "trialdata": {"rt": -1, "trial_type": "single-stim", "stimulus": "<p id=\"stim\">2</p>", "internal_node_id": "0.0-160.0-8.0", "time_elapsed": 1510043, "key_press": -1, "trial_index": 222}, "uniqueid": "MTK1456:324G5B4FB4FIYFLWUXKDBAUSCRL07P", "dateTime": 1515894738024}, {"current_trial": 223, "trialdata": {"rt": -1, "trial_type": "single-stim", "stimulus": "<p id=\"stim\">1</p>", "internal_node_id": "0.0-160.0-9.0", "time_elapsed": 1511046, "key_press": -1, "trial_index": 223}, "uniqueid": "MTK1456:324G5B4FB4FIYFLWUXKDBAUSCRL07P", "dateTime": 1515894739027}, {"current_trial": 224, "trialdata": {"rt": -1, "trial_type": "single-stim", "stimulus": "<p id=\"stim\">+</p>", "internal_node_id": "0.0-161.0-0.0", "time_elapsed": 1512548, "key_press": -1, "type": "FIXATION", "trial_index": 224}, "uniqueid": "MTK1456:324G5B4FB4FIYFLWUXKDBAUSCRL07P", "dateTime": 1515894740529}, {"current_trial": 225, "trialdata": {"rt": -1000, "trial_type": "single-audio", "word": "necklace", "stimulus": "/static/audio/wordpool/NECKLACE.wav", "conditions": [24, 1600, "a", 24000], "internal_node_id": "0.0-162.0", "trial": 6, "time_elapsed": 1515093, "serialpos": 0, "key_press": -1, "wordID": 939, "type": "PRES_AUD", "trial_index": 225}, "uniqueid": "MTK1456:324G5B4FB4FIYFLWUXKDBAUSCRL07P", "dateTime": 1515894743075}, {"current_trial": 226, "trialdata": {"rt": -1000, "trial_type": "single-audio", "word": "farmer", "stimulus": "/static/audio/wordpool/FARMER.wav", "conditions": [24, 1600, "a", 24000], "internal_node_id": "0.0-163.0", "trial": 6, "time_elapsed": 1517785, "serialpos": 1, "key_press": -1, "wordID": 552, "type": "PRES_AUD", "trial_index": 226}, "uniqueid": "MTK1456:324G5B4FB4FIYFLWUXKDBAUSCRL07P", "dateTime": 1515894745766}, {"current_trial": 227, "trialdata": {"rt": -1000, "trial_type": "single-audio", "word": "goblin", "stimulus": "/static/audio/wordpool/GOBLIN.wav", "conditions": [24, 1600, "a", 24000], "internal_node_id": "0.0-164.0", "trial": 6, "time_elapsed": 1520374, "serialpos": 2, "key_press": -1, "wordID": 644, "type": "PRES_AUD", "trial_index": 227}, "uniqueid": "MTK1456:324G5B4FB4FIYFLWUXKDBAUSCRL07P", "dateTime": 1515894748355}, {"current_trial": 228, "trialdata": {"rt": -1000, "trial_type": "single-audio", "word": "candy", "stimulus": "/static/audio/wordpool/CANDY.wav", "conditions": [24, 1600, "a", 24000], "internal_node_id": "0.0-165.0", "trial": 6, "time_elapsed": 1523102, "serialpos": 3, "key_press": -1, "wordID": 229, "type": "PRES_AUD", "trial_index": 228}, "uniqueid": "MTK1456:324G5B4FB4FIYFLWUXKDBAUSCRL07P", "dateTime": 1515894751083}, {"current_trial": 229, "trialdata": {"rt": -1000, "trial_type": "single-audio", "word": "flask", "stimulus": "/static/audio/wordpool/FLASK.wav", "conditions": [24, 1600, "a", 24000], "internal_node_id": "0.0-166.0", "trial": 6, "time_elapsed": 1525632, "serialpos": 4, "key_press": -1, "wordID": 575, "type": "PRES_AUD", "trial_index": 229}, "uniqueid": "MTK1456:324G5B4FB4FIYFLWUXKDBAUSCRL07P", "dateTime": 1515894753613}, {"current_trial": 230, "trialdata": {"rt": -1000, "trial_type": "single-audio", "word": "padding", "stimulus": "/static/audio/wordpool/PADDING.wav", "conditions": [24, 1600, "a", 24000], "internal_node_id": "0.0-167.0", "trial": 6, "time_elapsed": 1528419, "serialpos": 5, "key_press": -1, "wordID": 998, "type": "PRES_AUD", "trial_index": 230}, "uniqueid": "MTK1456:324G5B4FB4FIYFLWUXKDBAUSCRL07P", "dateTime": 1515894756400}, {"current_trial": 231, "trialdata": {"rt": -1000, "trial_type": "single-audio", "word": "truck", "stimulus": "/static/audio/wordpool/TRUCK.wav", "conditions": [24, 1600, "a", 24000], "internal_node_id": "0.0-168.0", "trial": 6, "time_elapsed": 1530845, "serialpos": 6, "key_press": -1, "wordID": 1511, "type": "PRES_AUD", "trial_index": 231}, "uniqueid": "MTK1456:324G5B4FB4FIYFLWUXKDBAUSCRL07P", "dateTime": 1515894758826}, {"current_trial": 232, "trialdata": {"rt": -1000, "trial_type": "single-audio", "word": "yacht", "stimulus": "/static/audio/wordpool/YACHT.wav", "conditions": [24, 1600, "a", 24000], "internal_node_id": "0.0-169.0", "trial": 6, "time_elapsed": 1533490, "serialpos": 7, "key_press": -1, "wordID": 1628, "type": "PRES_AUD", "trial_index": 232}, "uniqueid": "MTK1456:324G5B4FB4FIYFLWUXKDBAUSCRL07P", "dateTime": 1515894761471}, {"current_trial": 233, "trialdata": {"rt": -1000, "trial_type": "single-audio", "word": "wasp", "stimulus": "/static/audio/wordpool/WASP.wav", "conditions": [24, 1600, "a", 24000], "internal_node_id": "0.0-170.0", "trial": 6, "time_elapsed": 1535976, "serialpos": 8, "key_press": -1, "wordID": 1592, "type": "PRES_AUD", "trial_index": 233}, "uniqueid": "MTK1456:324G5B4FB4FIYFLWUXKDBAUSCRL07P", "dateTime": 1515894763957}, {"current_trial": 234, "trialdata": {"rt": -1000, "trial_type": "single-audio", "word": "pastry", "stimulus": "/static/audio/wordpool/PASTRY.wav", "conditions": [24, 1600, "a", 24000], "internal_node_id": "0.0-171.0", "trial": 6, "time_elapsed": 1538490, "serialpos": 9, "key_press": -1, "wordID": 1021, "type": "PRES_AUD", "trial_index": 234}, "uniqueid": "MTK1456:324G5B4FB4FIYFLWUXKDBAUSCRL07P", "dateTime": 1515894766472}, {"current_trial": 235, "trialdata": {"rt": -1000, "trial_type": "single-audio", "word": "doughnut", "stimulus": "/static/audio/wordpool/DOUGHNUT.wav", "conditions": [24, 1600, "a", 24000], "internal_node_id": "0.0-172.0", "trial": 6, "time_elapsed": 1541204, "serialpos": 10, "key_press": -1, "wordID": 489, "type": "PRES_AUD", "trial_index": 235}, "uniqueid": "MTK1456:324G5B4FB4FIYFLWUXKDBAUSCRL07P", "dateTime": 1515894769185}, {"current_trial": 236, "trialdata": {"rt": -1000, "trial_type": "single-audio", "word": "handbag", "stimulus": "/static/audio/wordpool/HANDBAG.wav", "conditions": [24, 1600, "a", 24000], "internal_node_id": "0.0-173.0", "trial": 6, "time_elapsed": 1544001, "serialpos": 11, "key_press": -1, "wordID": 683, "type": "PRES_AUD", "trial_index": 236}, "uniqueid": "MTK1456:324G5B4FB4FIYFLWUXKDBAUSCRL07P", "dateTime": 1515894771982}, {"current_trial": 237, "trialdata": {"rt": -1000, "trial_type": "single-audio", "word": "inmate", "stimulus": "/static/audio/wordpool/INMATE.wav", "conditions": [24, 1600, "a", 24000], "internal_node_id": "0.0-174.0", "trial": 6, "time_elapsed": 1546442, "serialpos": 12, "key_press": -1, "wordID": 737, "type": "PRES_AUD", "trial_index": 237}, "uniqueid": "MTK1456:324G5B4FB4FIYFLWUXKDBAUSCRL07P", "dateTime": 1515894774423}, {"current_trial": 238, "trialdata": {"rt": -1000, "trial_type": "single-audio", "word": "cocktail", "stimulus": "/static/audio/wordpool/COCKTAIL.wav", "conditions": [24, 1600, "a", 24000], "internal_node_id": "0.0-175.0", "trial": 6, "time_elapsed": 1548849, "serialpos": 13, "key_press": -1, "wordID": 337, "type": "PRES_AUD", "trial_index": 238}, "uniqueid": "MTK1456:324G5B4FB4FIYFLWUXKDBAUSCRL07P", "dateTime": 1515894776831}, {"current_trial": 239, "trialdata": {"rt": -1000, "trial_type": "single-audio", "word": "racket", "stimulus": "/static/audio/wordpool/RACKET.wav", "conditions": [24, 1600, "a", 24000], "internal_node_id": "0.0-176.0", "trial": 6, "time_elapsed": 1551390, "serialpos": 14, "key_press": -1, "wordID": 1154, "type": "PRES_AUD", "trial_index": 239}, "uniqueid": "MTK1456:324G5B4FB4FIYFLWUXKDBAUSCRL07P", "dateTime": 1515894779371}, {"current_trial": 240, "trialdata": {"rt": -1000, "trial_type": "single-audio", "word": "relish", "stimulus": "/static/audio/wordpool/RELISH.wav", "conditions": [24, 1600, "a", 24000], "internal_node_id": "0.0-177.0", "trial": 6, "time_elapsed": 1554047, "serialpos": 15, "key_press": -1, "wordID": 1182, "type": "PRES_AUD", "trial_index": 240}, "uniqueid": "MTK1456:324G5B4FB4FIYFLWUXKDBAUSCRL07P", "dateTime": 1515894782028}, {"current_trial": 241, "trialdata": {"rt": -1000, "trial_type": "single-audio", "word": "student", "stimulus": "/static/audio/wordpool/STUDENT.wav", "conditions": [24, 1600, "a", 24000], "internal_node_id": "0.0-178.0", "trial": 6, "time_elapsed": 1556491, "serialpos": 16, "key_press": -1, "wordID": 1394, "type": "PRES_AUD", "trial_index": 241}, "uniqueid": "MTK1456:324G5B4FB4FIYFLWUXKDBAUSCRL07P", "dateTime": 1515894784472}, {"current_trial": 242, "trialdata": {"rt": -1000, "trial_type": "single-audio", "word": "trombone", "stimulus": "/static/audio/wordpool/TROMBONE.wav", "conditions": [24, 1600, "a", 24000], "internal_node_id": "0.0-179.0", "trial": 6, "time_elapsed": 1559205, "serialpos": 17, "key_press": -1, "wordID": 1507, "type": "PRES_AUD", "trial_index": 242}, "uniqueid": "MTK1456:324G5B4FB4FIYFLWUXKDBAUSCRL07P", "dateTime": 1515894787186}, {"current_trial": 243, "trialdata": {"rt": -1000, "trial_type": "single-audio", "word": "piano", "stimulus": "/static/audio/wordpool/PIANO.wav", "conditions": [24, 1600, "a", 24000], "internal_node_id": "0.0-180.0", "trial": 6, "time_elapsed": 1562001, "serialpos": 18, "key_press": -1, "wordID": 1056, "type": "PRES_AUD", "trial_index": 243}, "uniqueid": "MTK1456:324G5B4F