{"condition": 0, "counterbalance": 2717, "assignmentId": "39GXDJN2OUL2RURV7Z08A3GDFN88VA", "workerId": "MTK1030", "hitId": "3P0I4CQYVYEG4RGMEOPY47T7LSFWO3", "currenttrial": 626, "bonus": 0, "data": [{"uniqueid": "MTK1030:39GXDJN2OUL2RURV7Z08A3GDFN88VA", "current_trial": 0, "dateTime": 1513011540916, "trialdata": {"rt": 7144, "key_press": 32, "type": "INSTRUCTIONS", "trial_type": "text", "trial_index": 0, "time_elapsed": 7147, "internal_node_id": "0.0-0.0"}}, {"uniqueid": "MTK1030:39GXDJN2OUL2RURV7Z08A3GDFN88VA", "current_trial": 1, "dateTime": 1513011549161, "trialdata": {"rt": 8244, "key_press": 13, "type": "INSTRUCTIONS", "trial_type": "text", "trial_index": 1, "time_elapsed": 15393, "internal_node_id": "0.0-1.0"}}, {"uniqueid": "MTK1030:39GXDJN2OUL2RURV7Z08A3GDFN88VA", "current_trial": 2, "dateTime": 1513011573177, "trialdata": {"rt": [24008], "responses": ["ocean"], "type": "AUDIO_TEST", "trial_type": "audio-test", "trial_index": 2, "time_elapsed": 39409, "internal_node_id": "0.0-2.0"}}, {"uniqueid": "MTK1030:39GXDJN2OUL2RURV7Z08A3GDFN88VA", "current_trial": 3, "dateTime": 1513011588720, "trialdata": {"rt": [15540], "responses": ["crystal"], "type": "AUDIO_TEST", "trial_type": "audio-test", "trial_index": 3, "time_elapsed": 54952, "internal_node_id": "0.0-3.0"}}, {"uniqueid": "MTK1030:39GXDJN2OUL2RURV7Z08A3GDFN88VA", "current_trial": 4, "dateTime": 1513011595488, "trialdata": {"rt": [6764], "responses": ["spice"], "type": "AUDIO_TEST", "trial_type": "audio-test", "trial_index": 4, "time_elapsed": 61720, "internal_node_id": "0.0-4.0"}}, {"uniqueid": "MTK1030:39GXDJN2OUL2RURV7Z08A3GDFN88VA", "current_trial": 5, "dateTime": 1513011615706, "trialdata": {"rt": 19465, "responses": "{\"Q0\":\"10 pm\",\"Q1\":\"7 am\",\"Q2\":\"8\"}", "type": "SLEEP_SURVEY", "trial_type": "survey-text", "trial_index": 5, "time_elapsed": 81938, "internal_node_id": "0.0-5.0"}}, {"uniqueid": "MTK1030:39GXDJN2OUL2RURV7Z08A3GDFN88VA", "current_trial": 6, "dateTime": 1513011781198, "trialdata": {"rt": 164491, "key_press": 40, "type": "INSTRUCTIONS", "trial_type": "text", "trial_index": 6, "time_elapsed": 247430, "internal_node_id": "0.0-6.0"}}, {"uniqueid": "MTK1030:39GXDJN2OUL2RURV7Z08A3GDFN88VA", "current_trial": 7, "dateTime": 1513011805934, "trialdata": {"rt": 24234, "key_press": 32, "type": "INSTRUCTIONS", "trial_type": "text", "trial_index": 7, "time_elapsed": 272166, "internal_node_id": "0.0-7.0"}}, {"uniqueid": "MTK1030:39GXDJN2OUL2RURV7Z08A3GDFN88VA", "current_trial": 8, "dateTime": 1513011824198, "trialdata": {"rt": 17762, "key_press": 32, "type": "INSTRUCTIONS", "trial_type": "text", "trial_index": 8, "time_elapsed": 290429, "internal_node_id": "0.0-8.0"}}, {"uniqueid": "MTK1030:39GXDJN2OUL2RURV7Z08A3GDFN88VA", "current_trial": 9, "dateTime": 1513011843204, "trialdata": {"rt": [3450, 6010, 12594, 17618], "responses": ["10", "15", "23", "17"], "num1": [1, 2, 9, 6, 1], "num2": [6, 6, 6, 5, 9], "num3": [3, 7, 8, 6, 6], "type": "DISTRACTOR", "conditions": [18, 1200, "a", 18000], "trial": 0, "trial_type": "math-distractor", "trial_index": 9, "time_elapsed": 309436, "internal_node_id": "0.0-9.0"}}, {"uniqueid": "MTK1030:39GXDJN2OUL2RURV7Z08A3GDFN88VA", "current_trial": 10, "dateTime": 1513011846208, "trialdata": {"rt": -1, "stimulus": "<p id=\"stim\">10</p>", "key_press": -1, "trial_type": "single-stim", "trial_index": 10, "time_elapsed": 312440, "internal_node_id": "0.0-10.0-0.0"}}, {"uniqueid": "MTK1030:39GXDJN2OUL2RURV7Z08A3GDFN88VA", "current_trial": 11, "dateTime": 1513011847209, "trialdata": {"rt": -1, "stimulus": "<p id=\"stim\">9</p>", "key_press": -1, "trial_type": "single-stim", "trial_index": 11, "time_elapsed": 313441, "internal_node_id": "0.0-10.0-1.0"}}, {"uniqueid": "MTK1030:39GXDJN2OUL2RURV7Z08A3GDFN88VA", "current_trial": 12, "dateTime": 1513011848210, "trialdata": {"rt": -1, "stimulus": "<p id=\"stim\">8</p>", "key_press": -1, "trial_type": "single-stim", "trial_index": 12, "time_elapsed": 314442, "internal_node_id": "0.0-10.0-2.0"}}, {"uniqueid": "MTK1030:39GXDJN2OUL2RURV7Z08A3GDFN88VA", "current_trial": 13, "dateTime": 1513011849212, "trialdata": {"rt": -1, "stimulus": "<p id=\"stim\">7</p>", "key_press": -1, "trial_type": "single-stim", "trial_index": 13, "time_elapsed": 315444, "internal_node_id": "0.0-10.0-3.0"}}, {"uniqueid": "MTK1030:39GXDJN2OUL2RURV7Z08A3GDFN88VA", "current_trial": 14, "dateTime": 1513011850213, "trialdata": {"rt": -1, "stimulus": "<p id=\"stim\">6</p>", "key_press": -1, "trial_type": "single-stim", "trial_index": 14, "time_elapsed": 316445, "internal_node_id": "0.0-10.0-4.0"}}, {"uniqueid": "MTK1030:39GXDJN2OUL2RURV7Z08A3GDFN88VA", "current_trial": 15, "dateTime": 1513011851215, "trialdata": {"rt": -1, "stimulus": "<p id=\"stim\">5</p>", "key_press": -1, "trial_type": "single-stim", "trial_index": 15, "time_elapsed": 317447, "internal_node_id": "0.0-10.0-5.0"}}, {"uniqueid": "MTK1030:39GXDJN2OUL2RURV7Z08A3GDFN88VA", "current_trial": 16, "dateTime": 1513011852216, "trialdata": {"rt": -1, "stimulus": "<p id=\"stim\">4</p>", "key_press": -1, "trial_type": "single-stim", "trial_index": 16, "time_elapsed": 318448, "internal_node_id": "0.0-10.0-6.0"}}, {"uniqueid": "MTK1030:39GXDJN2OUL2RURV7Z08A3GDFN88VA", "current_trial": 17, "dateTime": 1513011853217, "trialdata": {"rt": -1, "stimulus": "<p id=\"stim\">3</p>", "key_press": -1, "trial_type": "single-stim", "trial_index": 17, "time_elapsed": 319449, "internal_node_id": "0.0-10.0-7.0"}}, {"uniqueid": "MTK1030:39GXDJN2OUL2RURV7Z08A3GDFN88VA", "current_trial": 18, "dateTime": 1513011854218, "trialdata": {"rt": -1, "stimulus": "<p id=\"stim\">2</p>", "key_press": -1, "trial_type": "single-stim", "trial_index": 18, "time_elapsed": 320450, "internal_node_id": "0.0-10.0-8.0"}}, {"uniqueid": "MTK1030:39GXDJN2OUL2RURV7Z08A3GDFN88VA", "current_trial": 19, "dateTime": 1513011855220, "trialdata": {"rt": -1, "stimulus": "<p id=\"stim\">1</p>", "key_press": -1, "trial_type": "single-stim", "trial_index": 19, "time_elapsed": 321452, "internal_node_id": "0.0-10.0-9.0"}}, {"uniqueid": "MTK1030:39GXDJN2OUL2RURV7Z08A3GDFN88VA", "current_trial": 20, "dateTime": 1513011856722, "trialdata": {"rt": -1, "stimulus": "<p id=\"stim\">+</p>", "key_press": -1, "type": "FIXATION", "trial_type": "single-stim", "trial_index": 20, "time_elapsed": 322954, "internal_node_id": "0.0-11.0-0.0"}}, {"uniqueid": "MTK1030:39GXDJN2OUL2RURV7Z08A3GDFN88VA", "current_trial": 21, "dateTime": 1513011858800, "trialdata": {"rt": -1000, "stimulus": "/static/audio/wordpool/TUTU.wav", "key_press": -1, "type": "PRES_AUD", "word": "tutu", "wordID": 1523, "conditions": [18, 1200, "a", 18000], "trial": 0, "serialpos": 0, "trial_type": "single-audio", "trial_index": 21, "time_elapsed": 325032, "internal_node_id": "0.0-12.0"}}, {"uniqueid": "MTK1030:39GXDJN2OUL2RURV7Z08A3GDFN88VA", "current_trial": 22, "dateTime": 1513011860877, "trialdata": {"rt": -1000, "stimulus": "/static/audio/wordpool/CRITIC.wav", "key_press": -1, "type": "PRES_AUD", "word": "critic", "wordID": 409, "conditions": [18, 1200, "a", 18000], "trial": 0, "serialpos": 1, "trial_type": "single-audio", "trial_index": 22, "time_elapsed": 327109, "internal_node_id": "0.0-13.0"}}, {"uniqueid": "MTK1030:39GXDJN2OUL2RURV7Z08A3GDFN88VA", "current_trial": 23, "dateTime": 1513011863204, "trialdata": {"rt": -1000, "stimulus": "/static/audio/wordpool/KNIFE.wav", "key_press": -1, "type": "PRES_AUD", "word": "knife", "wordID": 784, "conditions": [18, 1200, "a", 18000], "trial": 0, "serialpos": 2, "trial_type": "single-audio", "trial_index": 23, "time_elapsed": 329436, "internal_node_id": "0.0-14.0"}}, {"uniqueid": "MTK1030:39GXDJN2OUL2RURV7Z08A3GDFN88VA", "current_trial": 24, "dateTime": 1513011865510, "trialdata": {"rt": -1000, "stimulus": "/static/audio/wordpool/PRINCESS.wav", "key_press": -1, "type": "PRES_AUD", "word": "princess", "wordID": 1124, "conditions": [18, 1200, "a", 18000], "trial": 0, "serialpos": 3, "trial_type": "single-audio", "trial_index": 24, "time_elapsed": 331742, "internal_node_id": "0.0-15.0"}}, {"uniqueid": "MTK1030:39GXDJN2OUL2RURV7Z08A3GDFN88VA", "current_trial": 25, "dateTime": 1513011867846, "trialdata": {"rt": -1000, "stimulus": "/static/audio/wordpool/STONE.wav", "key_press": -1, "type": "PRES_AUD", "word": "stone", "wordID": 1384, "conditions": [18, 1200, "a", 18000], "trial": 0, "serialpos": 4, "trial_type": "single-audio", "trial_index": 25, "time_elapsed": 334078, "internal_node_id": "0.0-16.0"}}, {"uniqueid": "MTK1030:39GXDJN2OUL2RURV7Z08A3GDFN88VA", "current_trial": 26, "dateTime": 1513011869873, "trialdata": {"rt": -1000, "stimulus": "/static/audio/wordpool/PACKAGE.wav", "key_press": -1, "type": "PRES_AUD", "word": "package", "wordID": 996, "conditions": [18, 1200, "a", 18000], "trial": 0, "serialpos": 5, "trial_type": "single-audio", "trial_index": 26, "time_elapsed": 336105, "internal_node_id": "0.0-17.0"}}, {"uniqueid": "MTK1030:39GXDJN2OUL2RURV7Z08A3GDFN88VA", "current_trial": 27, "dateTime": 1513011872101, "trialdata": {"rt": -1000, "stimulus": "/static/audio/wordpool/STAPLE.wav", "key_press": -1, "type": "PRES_AUD", "word": "staple", "wordID": 1370, "conditions": [18, 1200, "a", 18000], "trial": 0, "serialpos": 6, "trial_type": "single-audio", "trial_index": 27, "time_elapsed": 338333, "internal_node_id": "0.0-18.0"}}, {"uniqueid": "MTK1030:39GXDJN2OUL2RURV7Z08A3GDFN88VA", "current_trial": 28, "dateTime": 1513011874276, "trialdata": {"rt": -1000, "stimulus": "/static/audio/wordpool/BUG.wav", "key_press": -1, "type": "PRES_AUD", "word": "bug", "wordID": 186, "conditions": [18, 1200, "a", 18000], "trial": 0, "serialpos": 7, "trial_type": "single-audio", "trial_index": 28, "time_elapsed": 340508, "internal_node_id": "0.0-19.0"}}, {"uniqueid": "MTK1030:39GXDJN2OUL2RURV7Z08A3GDFN88VA", "current_trial": 29, "dateTime": 1513011876406, "trialdata": {"rt": -1000, "stimulus": "/static/audio/wordpool/BRIEFCASE.wav", "key_press": -1, "type": "PRES_AUD", "word": "briefcase", "wordID": 174, "conditions": [18, 1200, "a", 18000], "trial": 0, "serialpos": 8, "trial_type": "single-audio", "trial_index": 29, "time_elapsed": 342638, "internal_node_id": "0.0-20.0"}}, {"uniqueid": "MTK1030:39GXDJN2OUL2RURV7Z08A3GDFN88VA", "current_trial": 30, "dateTime": 1513011878566, "trialdata": {"rt": -1000, "stimulus": "/static/audio/wordpool/SHELF.wav", "key_press": -1, "type": "PRES_AUD", "word": "shelf", "wordID": 1279, "conditions": [18, 1200, "a", 18000], "trial": 0, "serialpos": 9, "trial_type": "single-audio", "trial_index": 30, "time_elapsed": 344798, "internal_node_id": "0.0-21.0"}}, {"uniqueid": "MTK1030:39GXDJN2OUL2RURV7Z08A3GDFN88VA", "current_trial": 31, "dateTime": 1513011880681, "trialdata": {"rt": -1000, "stimulus": "/static/audio/wordpool/SKIRT.wav", "key_press": -1, "type": "PRES_AUD", "word": "skirt", "wordID": 1318, "conditions": [18, 1200, "a", 18000], "trial": 0, "serialpos": 10, "trial_type": "single-audio", "trial_index": 31, "time_elapsed": 346913, "internal_node_id": "0.0-22.0"}}, {"uniqueid": "MTK1030:39GXDJN2OUL2RURV7Z08A3GDFN88VA", "current_trial": 32, "dateTime": 1513011882731, "trialdata": {"rt": -1000, "stimulus": "/static/audio/wordpool/MILDEW.wav", "key_press": -1, "type": "PRES_AUD", "word": "mildew", "wordID": 892, "conditions": [18, 1200, "a", 18000], "trial": 0, "serialpos": 11, "trial_type": "single-audio", "trial_index": 32, "time_elapsed": 348963, "internal_node_id": "0.0-23.0"}}, {"uniqueid": "MTK1030:39GXDJN2OUL2RURV7Z08A3GDFN88VA", "current_trial": 33, "dateTime": 1513011885032, "trialdata": {"rt": -1000, "stimulus": "/static/audio/wordpool/WOMAN.wav", "key_press": -1, "type": "PRES_AUD", "word": "woman", "wordID": 1619, "conditions": [18, 1200, "a", 18000], "trial": 0, "serialpos": 12, "trial_type": "single-audio", "trial_index": 33, "time_elapsed": 351264, "internal_node_id": "0.0-24.0"}}, {"uniqueid": "MTK1030:39GXDJN2OUL2RURV7Z08A3GDFN88VA", "current_trial": 34, "dateTime": 1513011887080, "trialdata": {"rt": -1000, "stimulus": "/static/audio/wordpool/THIEF.wav", "key_press": -1, "type": "PRES_AUD", "word": "thief", "wordID": 1455, "conditions": [18, 1200, "a", 18000], "trial": 0, "serialpos": 13, "trial_type": "single-audio", "trial_index": 34, "time_elapsed": 353312, "internal_node_id": "0.0-25.0"}}, {"uniqueid": "MTK1030:39GXDJN2OUL2RURV7Z08A3GDFN88VA", "current_trial": 35, "dateTime": 1513011889360, "trialdata": {"rt": -1000, "stimulus": "/static/audio/wordpool/CHILD.wav", "key_press": -1, "type": "PRES_AUD", "word": "child", "wordID": 298, "conditions": [18, 1200, "a", 18000], "trial": 0, "serialpos": 14, "trial_type": "single-audio", "trial_index": 35, "time_elapsed": 355592, "internal_node_id": "0.0-26.0"}}, {"uniqueid": "MTK1030:39GXDJN2OUL2RURV7Z08A3GDFN88VA", "current_trial": 36, "dateTime": 1513011891710, "trialdata": {"rt": -1000, "stimulus": "/static/audio/wordpool/COOK.wav", "key_press": -1, "type": "PRES_AUD", "word": "cook", "wordID": 371, "conditions": [18, 1200, "a", 18000], "trial": 0, "serialpos": 15, "trial_type": "single-audio", "trial_index": 36, "time_elapsed": 357942, "internal_node_id": "0.0-27.0"}}, {"uniqueid": "MTK1030:39GXDJN2OUL2RURV7Z08A3GDFN88VA", "current_trial": 37, "dateTime": 1513011894039, "trialdata": {"rt": -1000, "stimulus": "/static/audio/wordpool/PLATE.wav", "key_press": -1, "type": "PRES_AUD", "word": "plate", "wordID": 1085, "conditions": [18, 1200, "a", 18000], "trial": 0, "serialpos": 16, "trial_type": "single-audio", "trial_index": 37, "time_elapsed": 360271, "internal_node_id": "0.0-28.0"}}, {"uniqueid": "MTK1030:39GXDJN2OUL2RURV7Z08A3GDFN88VA", "current_trial": 38, "dateTime": 1513011896047, "trialdata": {"rt": -1000, "stimulus": "/static/audio/wordpool/STALLION.wav", "key_press": -1, "type": "PRES_AUD", "word": "stallion", "wordID": 1368, "conditions": [18, 1200, "a", 18000], "trial": 0, "serialpos": 17, "trial_type": "single-audio", "trial_index": 38, "time_elapsed": 362279, "internal_node_id": "0.0-29.0"}}, {"uniqueid": "MTK1030:39GXDJN2OUL2RURV7Z08A3GDFN88VA", "current_trial": 39, "dateTime": 1513011897357, "trialdata": {"rt": -1, "stimulus": "", "key_press": -1, "type": "PRE_RECALL_DELAY", "trial_type": "single-stim", "trial_index": 39, "time_elapsed": 363589, "internal_node_id": "0.0-30.0-0.0"}}, {"uniqueid": "MTK1030:39GXDJN2OUL2RURV7Z08A3GDFN88VA", "current_trial": 40, "dateTime": 1513011897858, "trialdata": {"rt": -1000, "stimulus": "/static/audio/400Hz.wav", "key_press": -1, "type": "PRE_RECALL_ALERT", "trial_type": "single-audio", "trial_index": 40, "time_elapsed": 364090, "internal_node_id": "0.0-31.0"}}, {"uniqueid": "MTK1030:39GXDJN2OUL2RURV7Z08A3GDFN88VA", "current_trial": 41, "dateTime": 1513011957864, "trialdata": {"rt": [4144, 4288, 6015, 7407, 8471, 10271, 12127, 24391, 49711], "recwords": ["tutu", "", "princess", "child", "cook", "stallion", "breifcase", "bug", "lamp"], "type": "FREE_RECALL", "conditions": [18, 1200, "a", 18000], "trial": 0, "trial_type": "free-recall", "trial_index": 41, "time_elapsed": 424093, "internal_node_id": "0.0-32.0-0.0"}}, {"uniqueid": "MTK1030:39GXDJN2OUL2RURV7Z08A3GDFN88VA", "current_trial": 42, "dateTime": 1513011962316, "trialdata": {"rt": 2450, "key_press": 32, "type": "INSTRUCTIONS", "trial_type": "text", "trial_index": 42, "time_elapsed": 428548, "internal_node_id": "0.0-33.0"}}, {"uniqueid": "MTK1030:39GXDJN2OUL2RURV7Z08A3GDFN88VA", "current_trial": 43, "dateTime": 1513011982320, "trialdata": {"rt": [6525, 11437, 14533, 16724], "responses": ["14", "16", "13", "11"], "num1": [3, 8, 4, 1, 2], "num2": [8, 6, 3, 9, 8], "num3": [3, 2, 6, 1, 4], "type": "DISTRACTOR", "conditions": [18, 1200, "v", 18000], "trial": 1, "trial_type": "math-distractor", "trial_index": 43, "time_elapsed": 448552, "internal_node_id": "0.0-34.0"}}, {"uniqueid": "MTK1030:39GXDJN2OUL2RURV7Z08A3GDFN88VA", "current_trial": 44, "dateTime": 1513011985323, "trialdata": {"rt": -1, "stimulus": "<p id=\"stim\">10</p>", "key_press": -1, "trial_type": "single-stim", "trial_index": 44, "time_elapsed": 451554, "internal_node_id": "0.0-35.0-0.0"}}, {"uniqueid": "MTK1030:39GXDJN2OUL2RURV7Z08A3GDFN88VA", "current_trial": 45, "dateTime": 1513011986324, "trialdata": {"rt": -1, "stimulus": "<p id=\"stim\">9</p>", "key_press": -1, "trial_type": "single-stim", "trial_index": 45, "time_elapsed": 452556, "internal_node_id": "0.0-35.0-1.0"}}, {"uniqueid": "MTK1030:39GXDJN2OUL2RURV7Z08A3GDFN88VA", "current_trial": 46, "dateTime": 1513011987325, "trialdata": {"rt": -1, "stimulus": "<p id=\"stim\">8</p>", "key_press": -1, "trial_type": "single-stim", "trial_index": 46, "time_elapsed": 453557, "internal_node_id": "0.0-35.0-2.0"}}, {"uniqueid": "MTK1030:39GXDJN2OUL2RURV7Z08A3GDFN88VA", "current_trial": 47, "dateTime": 1513011988328, "trialdata": {"rt": -1, "stimulus": "<p id=\"stim\">7</p>", "key_press": -1, "trial_type": "single-stim", "trial_index": 47, "time_elapsed": 454559, "internal_node_id": "0.0-35.0-3.0"}}, {"uniqueid": "MTK1030:39GXDJN2OUL2RURV7Z08A3GDFN88VA", "current_trial": 48, "dateTime": 1513011989329, "trialdata": {"rt": -1, "stimulus": "<p id=\"stim\">6</p>", "key_press": -1, "trial_type": "single-stim", "trial_index": 48, "time_elapsed": 455561, "internal_node_id": "0.0-35.0-4.0"}}, {"uniqueid": "MTK1030:39GXDJN2OUL2RURV7Z08A3GDFN88VA", "current_trial": 49, "dateTime": 1513011990331, "trialdata": {"rt": -1, "stimulus": "<p id=\"stim\">5</p>", "key_press": -1, "trial_type": "single-stim", "trial_index": 49, "time_elapsed": 456563, "internal_node_id": "0.0-35.0-5.0"}}, {"uniqueid": "MTK1030:39GXDJN2OUL2RURV7Z08A3GDFN88VA", "current_trial": 50, "dateTime": 1513011991332, "trialdata": {"rt": -1, "stimulus": "<p id=\"stim\">4</p>", "key_press": -1, "trial_type": "single-stim", "trial_index": 50, "time_elapsed": 457564, "internal_node_id": "0.0-35.0-6.0"}}, {"uniqueid": "MTK1030:39GXDJN2OUL2RURV7Z08A3GDFN88VA", "current_trial": 51, "dateTime": 1513011992333, "trialdata": {"rt": -1, "stimulus": "<p id=\"stim\">3</p>", "key_press": -1, "trial_type": "single-stim", "trial_index": 51, "time_elapsed": 458565, "internal_node_id": "0.0-35.0-7.0"}}, {"uniqueid": "MTK1030:39GXDJN2OUL2RURV7Z08A3GDFN88VA", "current_trial": 52, "dateTime": 1513011993335, "trialdata": {"rt": -1, "stimulus": "<p id=\"stim\">2</p>", "key_press": -1, "trial_type": "single-stim", "trial_index": 52, "time_elapsed": 459567, "internal_node_id": "0.0-35.0-8.0"}}, {"uniqueid": "MTK1030:39GXDJN2OUL2RURV7Z08A3GDFN88VA", "current_trial": 53, "dateTime": 1513011994337, "trialdata": {"rt": -1, "stimulus": "<p id=\"stim\">1</p>", "key_press": -1, "trial_type": "single-stim", "trial_index": 53, "time_elapsed": 460569, "internal_node_id": "0.0-35.0-9.0"}}, {"uniqueid": "MTK1030:39GXDJN2OUL2RURV7Z08A3GDFN88VA", "current_trial": 54, "dateTime": 1513011995838, "trialdata": {"rt": -1, "stimulus": "<p id=\"stim\">+</p>", "key_press": -1, "type": "FIXATION", "trial_type": "single-stim", "trial_index": 54, "time_elapsed": 462070, "internal_node_id": "0.0-36.0-0.0"}}, {"uniqueid": "MTK1030:39GXDJN2OUL2RURV7Z08A3GDFN88VA", "current_trial": 55, "dateTime": 1513011997040, "trialdata": {"rt": -1, "stimulus": "<p id=\"stim\">FEMALE</p>", "key_press": -1, "type": "PRES_VIS", "word": "female", "wordID": 558, "conditions": [18, 1200, "v", 18000], "trial": 1, "serialpos": 0, "trial_type": "single-stim", "trial_index": 55, "time_elapsed": 463271, "internal_node_id": "0.0-37.0"}}, {"uniqueid": "MTK1030:39GXDJN2OUL2RURV7Z08A3GDFN88VA", "current_trial": 56, "dateTime": 1513011999237, "trialdata": {"rt": -1, "stimulus": "<p id=\"stim\">FLUTE</p>", "key_press": -1, "type": "PRES_VIS", "word": "flute", "wordID": 584, "conditions": [18, 1200, "v", 18000], "trial": 1, "serialpos": 1, "trial_type": "single-stim", "trial_index": 56, "time_elapsed": 465469, "internal_node_id": "0.0-38.0"}}, {"uniqueid": "MTK1030:39GXDJN2OUL2RURV7Z08A3GDFN88VA", "current_trial": 57, "dateTime": 1513012001281, "trialdata": {"rt": -1, "stimulus": "<p id=\"stim\">DOUGHNUT</p>", "key_press": -1, "type": "PRES_VIS", "word": "doughnut", "wordID": 489, "conditions": [18, 1200, "v", 18000], "trial": 1, "serialpos": 2, "trial_type": "single-stim", "trial_index": 57, "time_elapsed": 467513, "internal_node_id": "0.0-39.0"}}, {"uniqueid": "MTK1030:39GXDJN2OUL2RURV7Z08A3GDFN88VA", "current_trial": 58, "dateTime": 1513012003677, "trialdata": {"rt": -1, "stimulus": "<p id=\"stim\">PUPPY</p>", "key_press": -1, "type": "PRES_VIS", "word": "puppy", "wordID": 1143, "conditions": [18, 1200, "v", 18000], "trial": 1, "serialpos": 3, "trial_type": "single-stim", "trial_index": 58, "time_elapsed": 469909, "internal_node_id": "0.0-40.0"}}, {"uniqueid": "MTK1030:39GXDJN2OUL2RURV7Z08A3GDFN88VA", "current_trial": 59, "dateTime": 1513012005875, "trialdata": {"rt": -1, "stimulus": "<p id=\"stim\">CUSTARD</p>", "key_press": -1, "type": "PRES_VIS", "word": "custard", "wordID": 428, "conditions": [18, 1200, "v", 18000], "trial": 1, "serialpos": 4, "trial_type": "single-stim", "trial_index": 59, "time_elapsed": 472107, "internal_node_id": "0.0-41.0"}}, {"uniqueid": "MTK1030:39GXDJN2OUL2RURV7Z08A3GDFN88VA", "current_trial": 60, "dateTime": 1513012007902, "trialdata": {"rt": -1, "stimulus": "<p id=\"stim\">SPARROW</p>", "key_press": -1, "type": "PRES_VIS", "word": "sparrow", "wordID": 1346, "conditions": [18, 1200, "v", 18000], "trial": 1, "serialpos": 5, "trial_type": "single-stim", "trial_index": 60, "time_elapsed": 474134, "internal_node_id": "0.0-42.0"}}, {"uniqueid": "MTK1030:39GXDJN2OUL2RURV7Z08A3GDFN88VA", "current_trial": 61, "dateTime": 1513012010158, "trialdata": {"rt": -1, "stimulus": "<p id=\"stim\">PANTHER</p>", "key_press": -1, "type": "PRES_VIS", "word": "panther", "wordID": 1008, "conditions": [18, 1200, "v", 18000], "trial": 1, "serialpos": 6, "trial_type": "single-stim", "trial_index": 61, "time_elapsed": 476390, "internal_node_id": "0.0-43.0"}}, {"uniqueid": "MTK1030:39GXDJN2OUL2RURV7Z08A3GDFN88VA", "current_trial": 62, "dateTime": 1513012012320, "trialdata": {"rt": -1, "stimulus": "<p id=\"stim\">HOSTESS</p>", "key_press": -1, "type": "PRES_VIS", "word": "hostess", "wordID": 722, "conditions": [18, 1200, "v", 18000], "trial": 1, "serialpos": 7, "trial_type": "single-stim", "trial_index": 62, "time_elapsed": 478552, "internal_node_id": "0.0-44.0"}}, {"uniqueid": "MTK1030:39GXDJN2OUL2RURV7Z08A3GDFN88VA", "current_trial": 63, "dateTime": 1513012014460, "trialdata": {"rt": -1, "stimulus": "<p id=\"stim\">MARKER</p>", "key_press": -1, "type": "PRES_VIS", "word": "marker", "wordID": 869, "conditions": [18, 1200, "v", 18000], "trial": 1, "serialpos": 8, "trial_type": "single-stim", "trial_index": 63, "time_elapsed": 480692, "internal_node_id": "0.0-45.0"}}, {"uniqueid": "MTK1030:39GXDJN2OUL2RURV7Z08A3GDFN88VA", "current_trial": 64, "dateTime": 1513012016575, "trialdata": {"rt": -1, "stimulus": "<p id=\"stim\">SHRUB</p>", "key_press": -1, "type": "PRES_VIS", "word": "shrub", "wordID": 1298, "conditions": [18, 1200, "v", 18000], "trial": 1, "serialpos": 9, "trial_type": "single-stim", "trial_index": 64, "time_elapsed": 482807, "internal_node_id": "0.0-46.0"}}, {"uniqueid": "MTK1030:39GXDJN2OUL2RURV7Z08A3GDFN88VA", "current_trial": 65, "dateTime": 1513012018718, "trialdata": {"rt": -1, "stimulus": "<p id=\"stim\">YACHT</p>", "key_press": -1, "type": "PRES_VIS", "word": "yacht", "wordID": 1628, "conditions": [18, 1200, "v", 18000], "trial": 1, "serialpos": 10, "trial_type": "single-stim", "trial_index": 65, "time_elapsed": 484949, "internal_node_id": "0.0-47.0"}}, {"uniqueid": "MTK1030:39GXDJN2OUL2RURV7Z08A3GDFN88VA", "current_trial": 66, "dateTime": 1513012020784, "trialdata": {"rt": -1, "stimulus": "<p id=\"stim\">FLEET</p>", "key_press": -1, "type": "PRES_VIS", "word": "fleet", "wordID": 577, "conditions": [18, 1200, "v", 18000], "trial": 1, "serialpos": 11, "trial_type": "single-stim", "trial_index": 66, "time_elapsed": 487016, "internal_node_id": "0.0-48.0"}}, {"uniqueid": "MTK1030:39GXDJN2OUL2RURV7Z08A3GDFN88VA", "current_trial": 67, "dateTime": 1513012022999, "trialdata": {"rt": -1, "stimulus": "<p id=\"stim\">SKETCH</p>", "key_press": -1, "type": "PRES_VIS", "word": "sketch", "wordID": 1314, "conditions": [18, 1200, "v", 18000], "trial": 1, "serialpos": 12, "trial_type": "single-stim", "trial_index": 67, "time_elapsed": 489231, "internal_node_id": "0.0-49.0"}}, {"uniqueid": "MTK1030:39GXDJN2OUL2RURV7Z08A3GDFN88VA", "current_trial": 68, "dateTime": 1513012025214, "trialdata": {"rt": -1, "stimulus": "<p id=\"stim\">HOOD</p>", "key_press": -1, "type": "PRES_VIS", "word": "hood", "wordID": 713, "conditions": [18, 1200, "v", 18000], "trial": 1, "serialpos": 13, "trial_type": "single-stim", "trial_index": 68, "time_elapsed": 491443, "internal_node_id": "0.0-50.0"}}, {"uniqueid": "MTK1030:39GXDJN2OUL2RURV7Z08A3GDFN88VA", "current_trial": 69, "dateTime": 1513012027539, "trialdata": {"rt": -1, "stimulus": "<p id=\"stim\">STOVE</p>", "key_press": -1, "type": "PRES_VIS", "word": "stove", "wordID": 1387, "conditions": [18, 1200, "v", 18000], "trial": 1, "serialpos": 14, "trial_type": "single-stim", "trial_index": 69, "time_elapsed": 493770, "internal_node_id": "0.0-51.0"}}, {"uniqueid": "MTK1030:39GXDJN2OUL2RURV7Z08A3GDFN88VA", "current_trial": 70, "dateTime": 1513012029883, "trialdata": {"rt": -1, "stimulus": "<p id=\"stim\">HEADBAND</p>", "key_press": -1, "type": "PRES_VIS", "word": "headband", "wordID": 695, "conditions": [18, 1200, "v", 18000], "trial": 1, "serialpos": 15, "trial_type": "single-stim", "trial_index": 70, "time_elapsed": 496115, "internal_node_id": "0.0-52.0"}}, {"uniqueid": "MTK1030:39GXDJN2OUL2RURV7Z08A3GDFN88VA", "current_trial": 71, "dateTime": 1513012032081, "trialdata": {"rt": -1, "stimulus": "<p id=\"stim\">FOREHEAD</p>", "key_press": -1, "type": "PRES_VIS", "word": "forehead", "wordID": 591, "conditions": [18, 1200, "v", 18000], "trial": 1, "serialpos": 16, "trial_type": "single-stim", "trial_index": 71, "time_elapsed": 498313, "internal_node_id": "0.0-53.0"}}, {"uniqueid": "MTK1030:39GXDJN2OUL2RURV7Z08A3GDFN88VA", "current_trial": 72, "dateTime": 1513012034350, "trialdata": {"rt": -1, "stimulus": "<p id=\"stim\">SURVEY</p>", "key_press": -1, "type": "PRES_VIS", "word": "survey", "wordID": 1413, "conditions": [18, 1200, "v", 18000], "trial": 1, "serialpos": 17, "trial_type": "single-stim", "trial_index": 72, "time_elapsed": 500582, "internal_node_id": "0.0-54.0"}}, {"uniqueid": "MTK1030:39GXDJN2OUL2RURV7Z08A3GDFN88VA", "current_trial": 73, "dateTime": 1513012036531, "trialdata": {"rt": -1, "stimulus": "", "key_press": -1, "type": "PRE_RECALL_DELAY", "trial_type": "single-stim", "trial_index": 73, "time_elapsed": 502763, "internal_node_id": "0.0-55.0-0.0"}}, {"uniqueid": "MTK1030:39GXDJN2OUL2RURV7Z08A3GDFN88VA", "current_trial": 74, "dateTime": 1513012037034, "trialdata": {"rt": -1000, "stimulus": "/static/audio/400Hz.wav", "key_press": -1, "type": "PRE_RECALL_ALERT", "trial_type": "single-audio", "trial_index": 74, "time_elapsed": 503266, "internal_node_id": "0.0-56.0"}}, {"uniqueid": "MTK1030:39GXDJN2OUL2RURV7Z08A3GDFN88VA", "current_trial": 75, "dateTime": 1513012097040, "trialdata": {"rt": [2471, 3951, 5319, 6399, 12911, 23127, 50254], "recwords": ["survey", "headband", "female", "flute", "forehead", "fleet", "doughnut"], "type": "FREE_RECALL", "conditions": [18, 1200, "v", 18000], "trial": 1, "trial_type": "free-recall", "trial_index": 75, "time_elapsed": 563269, "internal_node_id": "0.0-57.0-0.0"}}, {"uniqueid": "MTK1030:39GXDJN2OUL2RURV7Z08A3GDFN88VA", "current_trial": 76, "dateTime": 1513012102198, "trialdata": {"rt": 3152, "key_press": 32, "type": "INSTRUCTIONS", "trial_type": "text", "trial_index": 76, "time_elapsed": 568426, "internal_node_id": "0.0-58.0"}}, {"uniqueid": "MTK1030:39GXDJN2OUL2RURV7Z08A3GDFN88VA", "current_trial": 77, "dateTime": 1513012127202, "trialdata": {"rt": [3961, 7049, 8873, 12441, 16921, 20073, 23585], "responses": ["11", "17", "10", "14", "16", "17", "19"], "num1": [4, 7, 5, 5, 8, 3, 9, 5], "num2": [2, 3, 3, 1, 5, 5, 4, 8], "num3": [5, 7, 2, 8, 3, 9, 6, 6], "type": "DISTRACTOR", "conditions": [12, 800, "v", 24000], "trial": 2, "trial_type": "math-distractor", "trial_index": 77, "time_elapsed": 593434, "internal_node_id": "0.0-59.0"}}, {"uniqueid": "MTK1030:39GXDJN2OUL2RURV7Z08A3GDFN88VA", "current_trial": 78, "dateTime": 1513012130204, "trialdata": {"rt": -1, "stimulus": "<p id=\"stim\">10</p>", "key_press": -1, "trial_type": "single-stim", "trial_index": 78, "time_elapsed": 596436, "internal_node_id": "0.0-60.0-0.0"}}, {"uniqueid": "MTK1030:39GXDJN2OUL2RURV7Z08A3GDFN88VA", "current_trial": 79, "dateTime": 1513012131206, "trialdata": {"rt": -1, "stimulus": "<p id=\"stim\">9</p>", "key_press": -1, "trial_type": "single-stim", "trial_index": 79, "time_elapsed": 597438, "internal_node_id": "0.0-60.0-1.0"}}, {"uniqueid": "MTK1030:39GXDJN2OUL2RURV7Z08A3GDFN88VA", "current_trial": 80, "dateTime": 1513012132207, "trialdata": {"rt": -1, "stimulus": "<p id=\"stim\">8</p>", "key_press": -1, "trial_type": "single-stim", "trial_index": 80, "time_elapsed": 598439, "internal_node_id": "0.0-60.0-2.0"}}, {"uniqueid": "MTK1030:39GXDJN2OUL2RURV7Z08A3GDFN88VA", "current_trial": 81, "dateTime": 1513012133209, "trialdata": {"rt": -1, "stimulus": "<p id=\"stim\">7</p>", "key_press": -1, "trial_type": "single-stim", "trial_index": 81, "time_elapsed": 599441, "internal_node_id": "0.0-60.0-3.0"}}, {"uniqueid": "MTK1030:39GXDJN2OUL2RURV7Z08A3GDFN88VA", "current_trial": 82, "dateTime": 1513012134210, "trialdata": {"rt": -1, "stimulus": "<p id=\"stim\">6</p>", "key_press": -1, "trial_type": "single-stim", "trial_index": 82, "time_elapsed": 600442, "internal_node_id": "0.0-60.0-4.0"}}, {"uniqueid": "MTK1030:39GXDJN2OUL2RURV7Z08A3GDFN88VA", "current_trial": 83, "dateTime": 1513012135211, "trialdata": {"rt": -1, "stimulus": "<p id=\"stim\">5</p>", "key_press": -1, "trial_type": "single-stim", "trial_index": 83, "time_elapsed": 601443, "internal_node_id": "0.0-60.0-5.0"}}, {"uniqueid": "MTK1030:39GXDJN2OUL2RURV7Z08A3GDFN88VA", "current_trial": 84, "dateTime": 1513012136212, "trialdata": {"rt": -1, "stimulus": "<p id=\"stim\">4</p>", "key_press": -1, "trial_type": "single-stim", "trial_index": 84, "time_elapsed": 602444, "internal_node_id": "0.0-60.0-6.0"}}, {"uniqueid": "MTK1030:39GXDJN2OUL2RURV7Z08A3GDFN88VA", "current_trial": 85, "dateTime": 1513012137214, "trialdata": {"rt": -1, "stimulus": "<p id=\"stim\">3</p>", "key_press": -1, "trial_type": "single-stim", "trial_index": 85, "time_elapsed": 603446, "internal_node_id": "0.0-60.0-7.0"}}, {"uniqueid": "MTK1030:39GXDJN2OUL2RURV7Z08A3GDFN88VA", "current_trial": 86, "dateTime": 1513012138215, "trialdata": {"rt": -1, "stimulus": "<p id=\"stim\">2</p>", "key_press": -1, "trial_type": "single-stim", "trial_index": 86, "time_elapsed": 604447, "internal_node_id": "0.0-60.0-8.0"}}, {"uniqueid": "MTK1030:39GXDJN2OUL2RURV7Z08A3GDFN88VA", "current_trial": 87, "dateTime": 1513012139216, "trialdata": {"rt": -1, "stimulus": "<p id=\"stim\">1</p>", "key_press": -1, "trial_type": "single-stim", "trial_index": 87, "time_elapsed": 605448, "internal_node_id": "0.0-60.0-9.0"}}, {"uniqueid": "MTK1030:39GXDJN2OUL2RURV7Z08A3GDFN88VA", "current_trial": 88, "dateTime": 1513012140718, "trialdata": {"rt": -1, "stimulus": "<p id=\"stim\">+</p>", "key_press": -1, "type": "FIXATION", "trial_type": "single-stim", "trial_index": 88, "time_elapsed": 606950, "internal_node_id": "0.0-61.0-0.0"}}, {"uniqueid": "MTK1030:39GXDJN2OUL2RURV7Z08A3GDFN88VA", "current_trial": 89, "dateTime": 1513012141520, "trialdata": {"rt": -1, "stimulus": "<p id=\"stim\">TYPIST</p>", "key_press": -1, "type": "PRES_VIS", "word": "typist", "wordID": 1531, "conditions": [12, 800, "v", 24000], "trial": 2, "serialpos": 0, "trial_type": "single-stim", "trial_index": 89, "time_elapsed": 607752, "internal_node_id": "0.0-62.0"}}, {"uniqueid": "MTK1030:39GXDJN2OUL2RURV7Z08A3GDFN88VA", "current_trial": 90, "dateTime": 1513012143450, "trialdata": {"rt": -1, "stimulus": "<p id=\"stim\">SHARK</p>", "key_press": -1, "type": "PRES_VIS", "word": "shark", "wordID": 1274, "conditions": [12, 800, "v", 24000], "trial": 2, "serialpos": 1, "trial_type": "single-stim", "trial_index": 90, "time_elapsed": 609682, "internal_node_id": "0.0-63.0"}}, {"uniqueid": "MTK1030:39GXDJN2OUL2RURV7Z08A3GDFN88VA", "current_trial": 91, "dateTime": 1513012145251, "trialdata": {"rt": -1, "stimulus": "<p id=\"stim\">PLAZA</p>", "key_press": -1, "type": "PRES_VIS", "word": "plaza", "wordID": 1087, "conditions": [12, 800, "v", 24000], "trial": 2, "serialpos": 2, "trial_type": "single-stim", "trial_index": 91, "time_elapsed": 611483, "internal_node_id": "0.0-64.0"}}, {"uniqueid": "MTK1030:39GXDJN2OUL2RURV7Z08A3GDFN88VA", "current_trial": 92, "dateTime": 1513012147032, "trialdata": {"rt": -1, "stimulus": "<p id=\"stim\">SIDEWALK</p>", "key_press": -1, "type": "PRES_VIS", "word": "sidewalk", "wordID": 1302, "conditions": [12, 800, "v", 24000], "trial": 2, "serialpos": 3, "trial_type": "single-stim", "trial_index": 92, "time_elapsed": 613264, "internal_node_id": "0.0-65.0"}}, {"uniqueid": "MTK1030:39GXDJN2OUL2RURV7Z08A3GDFN88VA", "current_trial": 93, "dateTime": 1513012148765, "trialdata": {"rt": -1, "stimulus": "<p id=\"stim\">TOASTER</p>", "key_press": -1, "type": "PRES_VIS", "word": "toaster", "wordID": 1471, "conditions": [12, 800, "v", 24000], "trial": 2, "serialpos": 4, "trial_type": "single-stim", "trial_index": 93, "time_elapsed": 614997, "internal_node_id": "0.0-66.0"}}, {"uniqueid": "MTK1030:39GXDJN2OUL2RURV7Z08A3GDFN88VA", "current_trial": 94, "dateTime": 1513012150550, "trialdata": {"rt": -1, "stimulus": "<p id=\"stim\">DRAGON</p>", "key_press": -1, "type": "PRES_VIS", "word": "dragon", "wordID": 491, "conditions": [12, 800, "v", 24000], "trial": 2, "serialpos": 5, "trial_type": "single-stim", "trial_index": 94, "time_elapsed": 616782, "internal_node_id": "0.0-67.0"}}, {"uniqueid": "MTK1030:39GXDJN2OUL2RURV7Z08A3GDFN88VA", "current_trial": 95, "dateTime": 1513012152179, "trialdata": {"rt": -1, "stimulus": "<p id=\"stim\">MUFFIN</p>", "key_press": -1, "type": "PRES_VIS", "word": "muffin", "wordID": 928, "conditions": [12, 800, "v", 24000], "trial": 2, "serialpos": 6, "trial_type": "single-stim", "trial_index": 95, "time_elapsed": 618411, "internal_node_id": "0.0-68.0"}}, {"uniqueid": "MTK1030:39GXDJN2OUL2RURV7Z08A3GDFN88VA", "current_trial": 96, "dateTime": 1513012153994, "trialdata": {"rt": -1, "stimulus": "<p id=\"stim\">PERCH</p>", "key_press": -1, "type": "PRES_VIS", "word": "perch", "wordID": 1047, "conditions": [12, 800, "v", 24000], "trial": 2, "serialpos": 7, "trial_type": "single-stim", "trial_index": 96, "time_elapsed": 620226, "internal_node_id": "0.0-69.0"}}, {"uniqueid": "MTK1030:39GXDJN2OUL2RURV7Z08A3GDFN88VA", "current_trial": 97, "dateTime": 1513012155974, "trialdata": {"rt": -1, "stimulus": "<p id=\"stim\">JUNGLE</p>", "key_press": -1, "type": "PRES_VIS", "word": "jungle", "wordID": 763, "conditions": [12, 800, "v", 24000], "trial": 2, "serialpos": 8, "trial_type": "single-stim", "trial_index": 97, "time_elapsed": 622206, "internal_node_id": "0.0-70.0"}}, {"uniqueid": "MTK1030:39GXDJN2OUL2RURV7Z08A3GDFN88VA", "current_trial": 98, "dateTime": 1513012157661, "trialdata": {"rt": -1, "stimulus": "<p id=\"stim\">GROUND</p>", "key_press": -1, "type": "PRES_VIS", "word": "ground", "wordID": 665, "conditions": [12, 800, "v", 24000], "trial": 2, "serialpos": 9, "trial_type": "single-stim", "trial_index": 98, "time_elapsed": 623893, "internal_node_id": "0.0-71.0"}}, {"uniqueid": "MTK1030:39GXDJN2OUL2RURV7Z08A3GDFN88VA", "current_trial": 99, "dateTime": 1513012159422, "trialdata": {"rt": -1, "stimulus": "<p id=\"stim\">BINDER</p>", "key_press": -1, "type": "PRES_VIS", "word": "binder", "wordID": 126, "conditions": [12, 800, "v", 24000], "trial": 2, "serialpos": 10, "trial_type": "single-stim", "trial_index": 99, "time_elapsed": 625654, "internal_node_id": "0.0-72.0"}}, {"uniqueid": "MTK1030:39GXDJN2OUL2RURV7Z08A3GDFN88VA", "current_trial": 100, "dateTime": 1513012161173, "trialdata": {"rt": -1, "stimulus": "<p id=\"stim\">DOLPHIN</p>", "key_press": -1, "type": "PRES_VIS", "word": "dolphin", "wordID": 482, "conditions": [12, 800, "v", 24000], "trial": 2, "serialpos": 11, "trial_type": "single-stim", "trial_index": 100, "time_elapsed": 627405, "internal_node_id": "0.0-73.0"}}, {"uniqueid": "MTK1030:39GXDJN2OUL2RURV7Z08A3GDFN88VA", "current_trial": 101, "dateTime": 1513012163562, "trialdata": {"rt": -1, "stimulus": "", "key_press": -1, "type": "PRE_RECALL_DELAY", "trial_type": "single-stim", "trial_index": 101, "time_elapsed": 629794, "internal_node_id": "0.0-74.0-0.0"}}, {"uniqueid": "MTK1030:39GXDJN2OUL2RURV7Z08A3GDFN88VA", "current_trial": 102, "dateTime": 1513012164063, "trialdata": {"rt": -1000, "stimulus": "/static/audio/400Hz.wav", "key_press": -1, "type": "PRE_RECALL_ALERT", "trial_type": "single-audio", "trial_index": 102, "time_elapsed": 630295, "internal_node_id": "0.0-75.0"}}, {"uniqueid": "MTK1030:39GXDJN2OUL2RURV7Z08A3GDFN88VA", "current_trial": 103, "dateTime": 1513012224069, "trialdata": {"rt": [1575, 3351, 5167, 9015, 10591, 14015, 18623], "recwords": ["binder", "dolphin", "shark", "sidewalk", "typist", "plaza", "toaster"], "type": "FREE_RECALL", "conditions": [12, 800, "v", 24000], "trial": 2, "trial_type": "free-recall", "trial_index": 103, "time_elapsed": 690298, "internal_node_id": "0.0-76.0-0.0"}}, {"uniqueid": "MTK1030:39GXDJN2OUL2RURV7Z08A3GDFN88VA", "current_trial": 104, "dateTime": 1513012227792, "trialdata": {"rt": 1722, "key_press": 13, "type": "INSTRUCTIONS", "trial_type": "text", "trial_index": 104, "time_elapsed": 694024, "internal_node_id": "0.0-77.0"}}, {"uniqueid": "MTK1030:39GXDJN2OUL2RURV7Z08A3GDFN88VA", "current_trial": 105, "dateTime": 1513012253795, "trialdata": {"rt": [3910, 6606, 8246, 12182, 13917, 15805, 20149], "responses": ["21", "19", "15", "15", "9", "8", "17"], "num1": [9, 9, 5, 2, 4, 3, 8, 1], "num2": [3, 6, 5, 8, 1, 1, 5, 9], "num3": [9, 4, 5, 5, 4, 4, 4, 8], "type": "DISTRACTOR", "conditions": [24, 1600, "a", 24000], "trial": 3, "trial_type": "math-distractor", "trial_index": 105, "time_elapsed": 720027, "internal_node_id": "0.0-78.0"}}, {"uniqueid": "MTK1030:39GXDJN2OUL2RURV7Z08A3GDFN88VA", "current_trial": 106, "dateTime": 1513012256797, "trialdata": {"rt": -1, "stimulus": "<p id=\"stim\">10</p>", "key_press": -1, "trial_type": "single-stim", "trial_index": 106, "time_elapsed": 723029, "internal_node_id": "0.0-79.0-0.0"}}, {"uniqueid": "MTK1030:39GXDJN2OUL2RURV7Z08A3GDFN88VA", "current_trial": 107, "dateTime": 1513012257799, "trialdata": {"rt": -1, "stimulus": "<p id=\"stim\">9</p>", "key_press": -1, "trial_type": "single-stim", "trial_index": 107, "time_elapsed": 724031, "internal_node_id": "0.0-79.0-1.0"}}, {"uniqueid": "MTK1030:39GXDJN2OUL2RURV7Z08A3GDFN88VA", "current_trial": 108, "dateTime": 1513012258800, "trialdata": {"rt": -1, "stimulus": "<p id=\"stim\">8</p>", "key_press": -1, "trial_type": "single-stim", "trial_index": 108, "time_elapsed": 725032, "internal_node_id": "0.0-79.0-2.0"}}, {"uniqueid": "MTK1030:39GXDJN2OUL2RURV7Z08A3GDFN88VA", "current_trial": 109, "dateTime": 1513012259802, "trialdata": {"rt": -1, "stimulus": "<p id=\"stim\">7</p>", "key_press": -1, "trial_type": "single-stim", "trial_index": 109, "time_elapsed": 726034, "internal_node_id": "0.0-79.0-3.0"}}, {"uniqueid": "MTK1030:39GXDJN2OUL2RURV7Z08A3GDFN88VA", "current_trial": 110, "dateTime": 1513012260803, "trialdata": {"rt": -1, "stimulus": "<p id=\"stim\">6</p>", "key_press": -1, "trial_type": "single-stim", "trial_index": 110, "time_elapsed": 727035, "internal_node_id": "0.0-79.0-4.0"}}, {"uniqueid": "MTK1030:39GXDJN2OUL2RURV7Z08A3GDFN88VA", "current_trial": 111, "dateTime": 1513012261805, "trialdata": {"rt": -1, "stimulus": "<p id=\"stim\">5</p>", "key_press": -1, "trial_type": "single-stim", "trial_index": 111, "time_elapsed": 728036, "internal_node_id": "0.0-79.0-5.0"}}, {"uniqueid": "MTK1030:39GXDJN2OUL2RURV7Z08A3GDFN88VA", "current_trial": 112, "dateTime": 1513012262806, "trialdata": {"rt": -1, "stimulus": "<p id=\"stim\">4</p>", "key_press": -1, "trial_type": "single-stim", "trial_index": 112, "time_elapsed": 729038, "internal_node_id": "0.0-79.0-6.0"}}, {"uniqueid": "MTK1030:39GXDJN2OUL2RURV7Z08A3GDFN88VA", "current_trial": 113, "dateTime": 1513012263807, "trialdata": {"rt": -1, "stimulus": "<p id=\"stim\">3</p>", "key_press": -1, "trial_type": "single-stim", "trial_index": 113, "time_elapsed": 730039, "internal_node_id": "0.0-79.0-7.0"}}, {"uniqueid": "MTK1030:39GXDJN2OUL2RURV7Z08A3GDFN88VA", "current_trial": 114, "dateTime": 1513012264809, "trialdata": {"rt": -1, "stimulus": "<p id=\"stim\">2</p>", "key_press": -1, "trial_type": "single-stim", "trial_index": 114, "time_elapsed": 731041, "internal_node_id": "0.0-79.0-8.0"}}, {"uniqueid": "MTK1030:39GXDJN2OUL2RURV7Z08A3GDFN88VA", "current_trial": 115, "dateTime": 1513012265810, "trialdata": {"rt": -1, "stimulus": "<p id=\"stim\">1</p>", "key_press": -1, "trial_type": "single-stim", "trial_index": 115, "time_elapsed": 732042, "internal_node_id": "0.0-79.0-9.0"}}, {"uniqueid": "MTK1030:39GXDJN2OUL2RURV7Z08A3GDFN88VA", "current_trial": 116, "dateTime": 1513012267311, "trialdata": {"rt": -1, "stimulus": "<p id=\"stim\">+</p>", "key_press": -1, "type": "FIXATION", "trial_type": "single-stim", "trial_index": 116, "time_elapsed": 733543, "internal_node_id": "0.0-80.0-0.0"}}, {"uniqueid": "MTK1030:39GXDJN2OUL2RURV7Z08A3GDFN88VA", "current_trial": 117, "dateTime": 1513012270060, "trialdata": {"rt": -1000, "stimulus": "/static/audio/wordpool/TILE.wav", "key_press": -1, "type": "PRES_AUD", "word": "tile", "wordID": 1467, "conditions": [24, 1600, "a", 24000], "trial": 3, "serialpos": 0, "trial_type": "single-audio", "trial_index": 117, "time_elapsed": 736292, "internal_node_id": "0.0-81.0"}}, {"uniqueid": "MTK1030:39GXDJN2OUL2RURV7Z08A3GDFN88VA", "current_trial": 118, "dateTime": 1513012272609, "trialdata": {"rt": -1000, "stimulus": "/static/audio/wordpool/PIANO.wav", "key_press": -1, "type": "PRES_AUD", "word": "piano", "wordID": 1056, "conditions": [24, 1600, "a", 24000], "trial": 3, "serialpos": 1, "trial_type": "single-audio", "trial_index": 118, "time_elapsed": 738841, "internal_node_id": "0.0-82.0"}}, {"uniqueid": "MTK1030:39GXDJN2OUL2RURV7Z08A3GDFN88VA", "current_trial": 119, "dateTime": 1513012275394, "trialdata": {"rt": -1000, "stimulus": "/static/audio/wordpool/BUNNY.wav", "key_press": -1, "type": "PRES_AUD", "word": "bunny", "wordID": 197, "conditions": [24, 1600, "a", 24000], "trial": 3, "serialpos": 2, "trial_type": "single-audio", "trial_index": 119, "time_elapsed": 741626, "internal_node_id": "0.0-83.0"}}, {"uniqueid": "MTK1030:39GXDJN2OUL2RURV7Z08A3GDFN88VA", "current_trial": 120, "dateTime": 1513012278180, "trialdata": {"rt": -1000, "stimulus": "/static/audio/wordpool/CHIPMUNK.wav", "key_press": -1, "type": "PRES_AUD", "word": "chipmunk", "wordID": 303, "conditions": [24, 1600, "a", 24000], "trial": 3, "serialpos": 3, "trial_type": "single-audio", "trial_index": 120, "time_elapsed": 744412, "internal_node_id": "0.0-84.0"}}, {"uniqueid": "MTK1030:39GXDJN2OUL2RURV7Z08A3GDFN88VA", "current_trial": 121, "dateTime": 1513012280778, "trialdata": {"rt": -1000, "stimulus": "/static/audio/wordpool/PARSLEY.wav", "key_press": -1, "type": "PRES_AUD", "word": "parsley", "wordID": 1015, "conditions": [24, 1600, "a", 24000], "trial": 3, "serialpos": 4, "trial_type": "single-audio", "trial_index": 121, "time_elapsed": 747010, "internal_node_id": "0.0-85.0"}}, {"uniqueid": "MTK1030:39GXDJN2OUL2RURV7Z08A3GDFN88VA", "current_trial": 122, "dateTime": 1513012283466, "trialdata": {"rt": -1000, "stimulus": "/static/audio/wordpool/RUG.wav", "key_press": -1, "type": "PRES_AUD", "word": "rug", "wordID": 1214, "conditions": [24, 1600, "a", 24000], "trial": 3, "serialpos": 5, "trial_type": "single-audio", "trial_index": 122, "time_elapsed": 749698, "internal_node_id": "0.0-86.0"}}, {"uniqueid": "MTK1030:39GXDJN2OUL2RURV7Z08A3GDFN88VA", "current_trial": 123, "dateTime": 1513012286018, "trialdata": {"rt": -1000, "stimulus": "/static/audio/wordpool/HAWK.wav", "key_press": -1, "type": "PRES_AUD", "word": "hawk", "wordID": 691, "conditions": [24, 1600, "a", 24000], "trial": 3, "serialpos": 6, "trial_type": "single-audio", "trial_index": 123, "time_elapsed": 752250, "internal_node_id": "0.0-87.0"}}, {"uniqueid": "MTK1030:39GXDJN2OUL2RURV7Z08A3GDFN88VA", "current_trial": 124, "dateTime": 1513012288560, "trialdata": {"rt": -1000, "stimulus": "/static/audio/wordpool/SPIDER.wav", "key_press": -1, "type": "PRES_AUD", "word": "spider", "wordID": 1350, "conditions": [24, 1600, "a", 24000], "trial": 3, "serialpos": 7, "trial_type": "single-audio", "trial_index": 124, "time_elapsed": 754792, "internal_node_id": "0.0-88.0"}}, {"uniqueid": "MTK1030:39GXDJN2OUL2RURV7Z08A3GDFN88VA", "current_trial": 125, "dateTime": 1513012290962, "trialdata": {"rt": -1000, "stimulus": "/static/audio/wordpool/PECAN.wav", "key_press": -1, "type": "PRES_AUD", "word": "pecan", "wordID": 1035, "conditions": [24, 1600, "a", 24000], "trial": 3, "serialpos": 8, "trial_type": "single-audio", "trial_index": 125, "time_elapsed": 757193, "internal_node_id": "0.0-89.0"}}, {"uniqueid": "MTK1030:39GXDJN2OUL2RURV7Z08A3GDFN88VA", "current_trial": 126, "dateTime": 1513012293567, "trialdata": {"rt": -1000, "stimulus": "/static/audio/wordpool/BRICK.wav", "key_press": -1, "type": "PRES_AUD", "word": "brick", "wordID": 171, "conditions": [24, 1600, "a", 24000], "trial": 3, "serialpos": 9, "trial_type": "single-audio", "trial_index": 126, "time_elapsed": 759799, "internal_node_id": "0.0-90.0"}}, {"uniqueid": "MTK1030:39GXDJN2OUL2RURV7Z08A3GDFN88VA", "current_trial": 127, "dateTime": 1513012296156, "trialdata": {"rt": -1000, "stimulus": "/static/audio/wordpool/CHURCH.wav", "key_press": -1, "type": "PRES_AUD", "word": "church", "wordID": 306, "conditions": [24, 1600, "a", 24000], "trial": 3, "serialpos": 10, "trial_type": "single-audio", "trial_index": 127, "time_elapsed": 762387, "internal_node_id": "0.0-91.0"}}, {"uniqueid": "MTK1030:39GXDJN2OUL2RURV7Z08A3GDFN88VA", "current_trial": 128, "dateTime": 1513012298719, "trialdata": {"rt": -1000, "stimulus": "/static/audio/wordpool/DRIVER.wav", "key_press": -1, "type": "PRES_AUD", "word": "driver", "wordID": 498, "conditions": [24, 1600, "a", 24000], "trial": 3, "serialpos": 11, "trial_type": "single-audio", "trial_index": 128, "time_elapsed": 764951, "internal_node_id": "0.0-92.0"}}, {"uniqueid": "MTK1030:39GXDJN2OUL2RURV7Z08A3GDFN88VA", "current_trial": 129, "dateTime": 1513012301325, "trialdata": {"rt": -1000, "stimulus": "/static/audio/wordpool/APPLE.wav", "key_press": -1, "type": "PRES_AUD", "word": "apple", "wordID": 32, "conditions": [24, 1600, "a", 24000], "trial": 3, "serialpos": 12, "trial_type": "single-audio", "trial_index": 129, "time_elapsed": 767557, "internal_node_id": "0.0-93.0"}}, {"uniqueid": "MTK1030:39GXDJN2OUL2RURV7Z08A3GDFN88VA", "current_trial": 130, "dateTime": 1513012304114, "trialdata": {"rt": -1000, "stimulus": "/static/audio/wordpool/CARRIAGE.wav", "key_press": -1, "type": "PRES_AUD", "word": "carriage", "wordID": 247, "conditions": [24, 1600, "a", 24000], "trial": 3, "serialpos": 13, "trial_type": "single-audio", "trial_index": 130, "time_elapsed": 770345, "internal_node_id": "0.0-94.0"}}, {"uniqueid": "MTK1030:39GXDJN2OUL2RURV7Z08A3GDFN88VA", "current_trial": 131, "dateTime": 1513012306876, "trialdata": {"rt": -1000, "stimulus": "/static/audio/wordpool/HAND.wav", "key_press": -1, "type": "PRES_AUD", "word": "hand", "wordID": 682, "conditions": [24, 1600, "a", 24000], "trial": 3, "serialpos": 14, "trial_type": "single-audio", "trial_index": 131, "time_elapsed": 773108, "internal_node_id": "0.0-95.0"}}, {"uniqueid": "MTK1030:39GXDJN2OUL2RURV7Z08A3GDFN88VA", "current_trial": 132, "dateTime": 1513012309493, "trialdata": {"rt": -1000, "stimulus": "/static/audio/wordpool/REPORT.wav", "key_press": -1, "type": "PRES_AUD", "word": "report", "wordID": 1183, "conditions": [24, 1600, "a", 24000], "trial": 3, "serialpos": 15, "trial_type": "single-audio", "trial_index": 132, "time_elapsed": 775725, "internal_node_id": "0.0-96.0"}}, {"uniqueid": "MTK1030:39GXDJN2OUL2RURV7Z08A3GDFN88VA", "current_trial": 133, "dateTime": 1513012312044, "trialdata": {"rt": -1000, "stimulus": "/static/audio/wordpool/GRAPE.wav", "key_press": -1, "type": "PRES_AUD", "word": "grape", "wordID": 653, "conditions": [24, 1600, "a", 24000], "trial": 3, "serialpos": 16, "trial_type": "single-audio", "trial_index": 133, "time_elapsed": 778276, "internal_node_id": "0.0-97.0"}}, {"uniqueid": "MTK1030:39GXDJN2OUL2RURV7Z08A3GDFN88VA", "current_trial": 134, "dateTime": 1513012314642, "trialdata": {"rt": -1000, "stimulus": "/static/audio/wordpool/HONEY.wav", "key_press": -1, "type": "PRES_AUD", "word": "honey", "wordID": 712, "conditions": [24, 1600, "a", 24000], "trial": 3, "serialpos": 17, "trial_type": "single-audio", "trial_index": 134, "time_elapsed": 780874, "internal_node_id": "0.0-98.0"}}, {"uniqueid": "MTK1030:39GXDJN2OUL2RURV7Z08A3GDFN88VA", "current_trial": 135, "dateTime": 1513012317047, "trialdata": {"rt": -1000, "stimulus": "/static/audio/wordpool/PRIMATE.wav", "key_press": -1, "type": "PRES_AUD", "word": "primate", "wordID": 1122, "conditions": [24, 1600, "a", 24000], "trial": 3, "serialpos": 18, "trial_type": "single-audio", "trial_index": 135, "time_elapsed": 783279, "internal_node_id": "0.0-99.0"}}, {"uniqueid": "MTK1030:39GXDJN2OUL2RURV7Z08A3GDFN88VA", "current_trial": 136, "dateTime": 1513012319786, "trialdata": {"rt": -1000, "stimulus": "/static/audio/wordpool/WITNESS.wav", "key_press": -1, "type": "PRES_AUD", "word": "witness", "wordID": 1617, "conditions": [24, 1600, "a", 24000], "trial": 3, "serialpos": 19, "trial_type": "single-audio", "trial_index": 136, "time_elapsed": 786017, "internal_node_id": "0.0-100.0"}}, {"uniqueid": "MTK1030:39GXDJN2OUL2RURV7Z08A3GDFN88VA", "current_trial": 137, "dateTime": 1513012322479, "trialdata": {"rt": -1000, "stimulus": "/static/audio/wordpool/ONION.wav", "key_press": -1, "type": "PRES_AUD", "word": "onion", "wordID": 976, "conditions": [24, 1600, "a", 24000], "trial": 3, "serialpos": 20, "trial_type": "single-audio", "trial_index": 137, "time_elapsed": 788711, "internal_node_id": "0.0-101.0"}}, {"uniqueid": "MTK1030:39GXDJN2OUL2RURV7Z08A3GDFN88VA", "current_trial": 138, "dateTime": 1513012325176, "trialdata": {"rt": -1000, "stimulus": "/static/audio/wordpool/JUGGLER.wav", "key_press": -1, "type": "PRES_AUD", "word": "juggler", "wordID": 762, "conditions": [24, 1600, "a", 24000], "trial": 3, "serialpos": 21, "trial_type": "single-audio", "trial_index": 138, "time_elapsed": 791408, "internal_node_id": "0.0-102.0"}}, {"uniqueid": "MTK1030:39GXDJN2OUL2RURV7Z08A3GDFN88VA", "current_trial": 139, "dateTime": 1513012327771, "trialdata": {"rt": -1000, "stimulus": "/static/audio/wordpool/GUITAR.wav", "key_press": -1, "type": "PRES_AUD", "word": "guitar", "wordID": 669, "conditions": [24, 1600, "a", 24000], "trial": 3, "serialpos": 22, "trial_type": "single-audio", "trial_index": 139, "time_elapsed": 794002, "internal_node_id": "0.0-103.0"}}, {"uniqueid": "MTK1030:39GXDJN2OUL2RURV7Z08A3GDFN88VA", "current_trial": 140, "dateTime": 1513012330472, "trialdata": {"rt": -1000, "stimulus": "/static/audio/wordpool/CROWN.wav", "key_press": -1, "type": "PRES_AUD", "word": "crown", "wordID": 414, "conditions": [24, 1600, "a", 24000], "trial": 3, "serialpos": 23, "trial_type": "single-audio", "trial_index": 140, "time_elapsed": 796704, "internal_node_id": "0.0-104.0"}}, {"uniqueid": "MTK1030:39GXDJN2OUL2RURV7Z08A3GDFN88VA", "current_trial": 141, "dateTime": 1513012331708, "trialdata": {"rt": -1, "stimulus": "", "key_press": -1, "type": "PRE_RECALL_DELAY", "trial_type": "single-stim", "trial_index": 141, "time_elapsed": 797940, "internal_node_id": "0.0-105.0-0.0"}}, {"uniqueid": "MTK1030:39GXDJN2OUL2RURV7Z08A3GDFN88VA", "current_trial": 142, "dateTime": 1513012332209, "trialdata": {"rt": -1000, "stimulus": "/static/audio/400Hz.wav", "key_press": -1, "type": "PRE_RECALL_ALERT", "trial_type": "single-audio", "trial_index": 142, "time_elapsed": 798441, "internal_node_id": "0.0-106.0"}}, {"uniqueid": "MTK1030:39GXDJN2OUL2RURV7Z08A3GDFN88VA", "current_trial": 143, "dateTime": 1513012392217, "trialdata": {"rt": [3323, 5155, 6411, 7803, 15115, 17235, 21491, 22739], "recwords": ["crown", "parsley", "bunny", "jugglar", "carrot", "grape", "piano", "guitar"], "type": "FREE_RECALL", "conditions": [24, 1600, "a", 24000], "trial": 3, "trial_type": "free-recall", "trial_index": 143, "time_elapsed": 858445, "internal_node_id": "0.0-107.0-0.0"}}, {"uniqueid": "MTK1030:39GXDJN2OUL2RURV7Z08A3GDFN88VA", "current_trial": 144, "dateTime": 1513012395430, "trialdata": {"rt": 1213, "key_press": 13, "type": "INSTRUCTIONS", "trial_type": "text", "trial_index": 144, "time_elapsed": 861662, "internal_node_id": "0.0-108.0"}}, {"uniqueid": "MTK1030:39GXDJN2OUL2RURV7Z08A3GDFN88VA", "current_trial": 145, "dateTime": 1513012421435, "trialdata": {"rt": [2470, 4502, 6926, 8582, 12517, 15901, 18910, 22101], "responses": ["14", "15", "12", "16", "19", "20", "18", "22"], "num1": [2, 6, 3, 7, 6, 6, 4, 6, 3], "num2": [6, 2, 7, 7, 5, 5, 7, 8, 8], "num3": [6, 7, 2, 2, 8, 9, 7, 8, 9], "type": "DISTRACTOR", "conditions": [12, 800, "a", 24000], "trial": 4, "trial_type": "math-distractor", "trial_index": 145, "time_elapsed": 887667, "internal_node_id": "0.0-109.0"}}, {"uniqueid": "MTK1030:39GXDJN2OUL2RURV7Z08A3GDFN88VA", "current_trial": 146, "dateTime": 1513012424437, "trialdata": {"rt": -1, "stimulus": "<p id=\"stim\">10</p>", "key_press": -1, "trial_type": "single-stim", "trial_index": 146, "time_elapsed": 890669, "internal_node_id": "0.0-110.0-0.0"}}, {"uniqueid": "MTK1030:39GXDJN2OUL2RURV7Z08A3GDFN88VA", "current_trial": 147, "dateTime": 1513012425439, "trialdata": {"rt": -1, "stimulus": "<p id=\"stim\">9</p>", "key_press": -1, "trial_type": "single-stim", "trial_index": 147, "time_elapsed": 891671, "internal_node_id": "0.0-110.0-1.0"}}, {"uniqueid": "MTK1030:39GXDJN2OUL2RURV7Z08A3GDFN88VA", "current_trial": 148, "dateTime": 1513012426440, "trialdata": {"rt": -1, "stimulus": "<p id=\"stim\">8</p>", "key_press": -1, "trial_type": "single-stim", "trial_index": 148, "time_elapsed": 892672, "internal_node_id": "0.0-110.0-2.0"}}, {"uniqueid": "MTK1030:39GXDJN2OUL2RURV7Z08A3GDFN88VA", "current_trial": 149, "dateTime": 1513012427442, "trialdata": {"rt": -1, "stimulus": "<p id=\"stim\">7</p>", "key_press": -1, "trial_type": "single-stim", "trial_index": 149, "time_elapsed": 893674, "internal_node_id": "0.0-110.0-3.0"}}, {"uniqueid": "MTK1030:39GXDJN2OUL2RURV7Z08A3GDFN88VA", "current_trial": 150, "dateTime": 1513012428443, "trialdata": {"rt": -1, "stimulus": "<p id=\"stim\">6</p>", "key_press": -1, "trial_type": "single-stim", "trial_index": 150, "time_elapsed": 894675, "internal_node_id": "0.0-110.0-4.0"}}, {"uniqueid": "MTK1030:39GXDJN2OUL2RURV7Z08A3GDFN88VA", "current_trial": 151, "dateTime": 1513012429444, "trialdata": {"rt": -1, "stimulus": "<p id=\"stim\">5</p>", "key_press": -1, "trial_type": "single-stim", "trial_index": 151, "time_elapsed": 895676, "internal_node_id": "0.0-110.0-5.0"}}, {"uniqueid": "MTK1030:39GXDJN2OUL2RURV7Z08A3GDFN88VA", "current_trial": 152, "dateTime": 1513012430446, "trialdata": {"rt": -1, "stimulus": "<p id=\"stim\">4</p>", "key_press": -1, "trial_type": "single-stim", "trial_index": 152, "time_elapsed": 896678, "internal_node_id": "0.0-110.0-6.0"}}, {"uniqueid": "MTK1030:39GXDJN2OUL2RURV7Z08A3GDFN88VA", "current_trial": 153, "dateTime": 1513012431447, "trialdata": {"rt": -1, "stimulus": "<p id=\"stim\">3</p>", "key_press": -1, "trial_type": "single-stim", "trial_index": 153, "time_elapsed": 897679, "internal_node_id": "0.0-110.0-7.0"}}, {"uniqueid": "MTK1030:39GXDJN2OUL2RURV7Z08A3GDFN88VA", "current_trial": 154, "dateTime": 1513012432448, "trialdata": {"rt": -1, "stimulus": "<p id=\"stim\">2</p>", "key_press": -1, "trial_type": "single-stim", "trial_index": 154, "time_elapsed": 898680, "internal_node_id": "0.0-110.0-8.0"}}, {"uniqueid": "MTK1030:39GXDJN2OUL2RURV7Z08A3GDFN88VA", "current_trial": 155, "dateTime": 1513012433449, "trialdata": {"rt": -1, "stimulus": "<p id=\"stim\">1</p>", "key_press": -1, "trial_type": "single-stim", "trial_index": 155, "time_elapsed": 899681, "internal_node_id": "0.0-110.0-9.0"}}, {"uniqueid": "MTK1030:39GXDJN2OUL2RURV7Z08A3GDFN88VA", "current_trial": 156, "dateTime": 1513012434950, "trialdata": {"rt": -1, "stimulus": "<p id=\"stim\">+</p>", "key_press": -1, "type": "FIXATION", "trial_type": "single-stim", "trial_index": 156, "time_elapsed": 901182, "internal_node_id": "0.0-111.0-0.0"}}, {"uniqueid": "MTK1030:39GXDJN2OUL2RURV7Z08A3GDFN88VA", "current_trial": 157, "dateTime": 1513012436850, "trialdata": {"rt": -1000, "stimulus": "/static/audio/wordpool/DRILL.wav", "key_press": -1, "type": "PRES_AUD", "word": "drill", "wordID": 496, "conditions": [12, 800, "a", 24000], "trial": 4, "serialpos": 0, "trial_type": "single-audio", "trial_index": 157, "time_elapsed": 903082, "internal_node_id": "0.0-112.0"}}, {"uniqueid": "MTK1030:39GXDJN2OUL2RURV7Z08A3GDFN88VA", "current_trial": 158, "dateTime": 1513012438732, "trialdata": {"rt": -1000, "stimulus": "/static/audio/wordpool/CIGAR.wav", "key_press": -1, "type": "PRES_AUD", "word": "cigar", "wordID": 307, "conditions": [12, 800, "a", 24000], "trial": 4, "serialpos": 1, "trial_type": "single-audio", "trial_index": 158, "time_elapsed": 904964, "internal_node_id": "0.0-113.0"}}, {"uniqueid": "MTK1030:39GXDJN2OUL2RURV7Z08A3GDFN88VA", "current_trial": 159, "dateTime": 1513012440655, "trialdata": {"rt": -1000, "stimulus": "/static/audio/wordpool/CONCERT.wav", "key_press": -1, "type": "PRES_AUD", "word": "concert", "wordID": 359, "conditions": [12, 800, "a", 24000], "trial": 4, "serialpos": 2, "trial_type": "single-audio", "trial_index": 159, "time_elapsed": 906886, "internal_node_id": "0.0-114.0"}}, {"uniqueid": "MTK1030:39GXDJN2OUL2RURV7Z08A3GDFN88VA", "current_trial": 160, "dateTime": 1513012442337, "trialdata": {"rt": -1000, "stimulus": "/static/audio/wordpool/TWISTER.wav", "key_press": -1, "type": "PRES_AUD", "word": "twister", "wordID": 1529, "conditions": [12, 800, "a", 24000], "trial": 4, "serialpos": 3, "trial_type": "single-audio", "trial_index": 160, "time_elapsed": 908569, "internal_node_id": "0.0-115.0"}}, {"uniqueid": "MTK1030:39GXDJN2OUL2RURV7Z08A3GDFN88VA", "current_trial": 161, "dateTime": 1513012444014, "trialdata": {"rt": -1000, "stimulus": "/static/audio/wordpool/CANAL.wav", "key_press": -1, "type": "PRES_AUD", "word": "canal", "wordID": 225, "conditions": [12, 800, "a", 24000], "trial": 4, "serialpos": 4, "trial_type": "single-audio", "trial_index": 161, "time_elapsed": 910245, "internal_node_id": "0.0-116.0"}}, {"uniqueid": "MTK1030:39GXDJN2OUL2RURV7Z08A3GDFN88VA", "current_trial": 162, "dateTime": 1513012445644, "trialdata": {"rt": -1000, "stimulus": "/static/audio/wordpool/COUCH.wav", "key_press": -1, "type": "PRES_AUD", "word": "couch", "wordID": 385, "conditions": [12, 800, "a", 24000], "trial": 4, "serialpos": 5, "trial_type": "single-audio", "trial_index": 162, "time_elapsed": 911876, "internal_node_id": "0.0-117.0"}}, {"uniqueid": "MTK1030:39GXDJN2OUL2RURV7Z08A3GDFN88VA", "current_trial": 163, "dateTime": 1513012447492, "trialdata": {"rt": -1000, "stimulus": "/static/audio/wordpool/PENGUIN.wav", "key_press": -1, "type": "PRES_AUD", "word": "penguin", "wordID": 1043, "conditions": [12, 800, "a", 24000], "trial": 4, "serialpos": 6, "trial_type": "single-audio", "trial_index": 163, "time_elapsed": 913724, "internal_node_id": "0.0-118.0"}}, {"uniqueid": "MTK1030:39GXDJN2OUL2RURV7Z08A3GDFN88VA", "current_trial": 164, "dateTime": 1513012449363, "trialdata": {"rt": -1000, "stimulus": "/static/audio/wordpool/IGLOO.wav", "key_press": -1, "type": "PRES_AUD", "word": "igloo", "wordID": 733, "conditions": [12, 800, "a", 24000], "trial": 4, "serialpos": 7, "trial_type": "single-audio", "trial_index": 164, "time_elapsed": 915595, "internal_node_id": "0.0-119.0"}}, {"uniqueid": "MTK1030:39GXDJN2OUL2RURV7Z08A3GDFN88VA", "current_trial": 165, "dateTime": 1513012451347, "trialdata": {"rt": -1000, "stimulus": "/static/audio/wordpool/RAZOR.wav", "key_press": -1, "type": "PRES_AUD", "word": "razor", "wordID": 1170, "conditions": [12, 800, "a", 24000], "trial": 4, "serialpos": 8, "trial_type": "single-audio", "trial_index": 165, "time_elapsed": 917579, "internal_node_id": "0.0-120.0"}}, {"uniqueid": "MTK1030:39GXDJN2OUL2RURV7Z08A3GDFN88VA", "current_trial": 166, "dateTime": 1513012453126, "trialdata": {"rt": -1000, "stimulus": "/static/audio/wordpool/SCALPEL.wav", "key_press": -1, "type": "PRES_AUD", "word": "scalpel", "wordID": 1242, "conditions": [12, 800, "a", 24000], "trial": 4, "serialpos": 9, "trial_type": "single-audio", "trial_index": 166, "time_elapsed": 919358, "internal_node_id": "0.0-121.0"}}, {"uniqueid": "MTK1030:39GXDJN2OUL2RURV7Z08A3GDFN88VA", "current_trial": 167, "dateTime": 1513012455024, "trialdata": {"rt": -1000, "stimulus": "/static/audio/wordpool/COCOON.wav", "key_press": -1, "type": "PRES_AUD", "word": "cocoon", "wordID": 338, "conditions": [12, 800, "a", 24000], "trial": 4, "serialpos": 10, "trial_type": "single-audio", "trial_index": 167, "time_elapsed": 921256, "internal_node_id": "0.0-122.0"}}, {"uniqueid": "MTK1030:39GXDJN2OUL2RURV7Z08A3GDFN88VA", "current_trial": 168, "dateTime": 1513012456659, "trialdata": {"rt": -1000, "stimulus": "/static/audio/wordpool/LAKE.wav", "key_press": -1, "type": "PRES_AUD", "word": "lake", "wordID": 795, "conditions": [12, 800, "a", 24000], "trial": 4, "serialpos": 11, "trial_type": "single-audio", "trial_index": 168, "time_elapsed": 922891, "internal_node_id": "0.0-123.0"}}, {"uniqueid": "MTK1030:39GXDJN2OUL2RURV7Z08A3GDFN88VA", "current_trial": 169, "dateTime": 1513012458016, "trialdata": {"rt": -1, "stimulus": "", "key_press": -1, "type": "PRE_RECALL_DELAY", "trial_type": "single-stim", "trial_index": 169, "time_elapsed": 924248, "internal_node_id": "0.0-124.0-0.0"}}, {"uniqueid": "MTK1030:39GXDJN2OUL2RURV7Z08A3GDFN88VA", "current_trial": 170, "dateTime": 1513012458517, "trialdata": {"rt": -1000, "stimulus": "/static/audio/400Hz.wav", "key_press": -1, "type": "PRE_RECALL_ALERT", "trial_type": "single-audio", "trial_index": 170, "time_elapsed": 924749, "internal_node_id": "0.0-125.0"}}, {"uniqueid": "MTK1030:39GXDJN2OUL2RURV7Z08A3GDFN88VA", "current_trial": 171, "dateTime": 1513012518523, "trialdata": {"rt": [2542, 3470, 4502, 6262, 9446, 12286, 14486, 16622], "recwords": ["cocoon", "lake", "razor", "scapel", "twister", "canal", "drill", "cigar"], "type": "FREE_RECALL", "conditions": [12, 800, "a", 24000], "trial": 4, "trial_type": "free-recall", "trial_index": 171, "time_elapsed": 984752, "internal_node_id": "0.0-126.0-0.0"}}, {"uniqueid": "MTK1030:39GXDJN2OUL2RURV7Z08A3GDFN88VA", "current_trial": 172, "dateTime": 1513012521501, "trialdata": {"rt": 976, "key_press": 13, "type": "INSTRUCTIONS", "trial_type": "text", "trial_index": 172, "time_elapsed": 987733, "internal_node_id": "0.0-127.0"}}, {"uniqueid": "MTK1030:39GXDJN2OUL2RURV7Z08A3GDFN88VA", "current_trial": 173, "dateTime": 1513012535504, "trialdata": {"rt": [2829, 5005, 7525], "responses": ["20", "16", "12"], "num1": [6, 7, 8, 5], "num2": [7, 1, 3, 9], "num3": [7, 8, 1, 7], "type": "DISTRACTOR", "conditions": [24, 1600, "v", 12000], "trial": 5, "trial_type": "math-distractor", "trial_index": 173, "time_elapsed": 1001736, "internal_node_id": "0.0-128.0"}}, {"uniqueid": "MTK1030:39GXDJN2OUL2RURV7Z08A3GDFN88VA", "current_trial": 174, "dateTime": 1513012538506, "trialdata": {"rt": -1, "stimulus": "<p id=\"stim\">10</p>", "key_press": -1, "trial_type": "single-stim", "trial_index": 174, "time_elapsed": 1004738, "internal_node_id": "0.0-129.0-0.0"}}, {"uniqueid": "MTK1030:39GXDJN2OUL2RURV7Z08A3GDFN88VA", "current_trial": 175, "dateTime": 1513012539508, "trialdata": {"rt": -1, "stimulus": "<p id=\"stim\">9</p>", "key_press": -1, "trial_type": "single-stim", "trial_index": 175, "time_elapsed": 1005740, "internal_node_id": "0.0-129.0-1.0"}}, {"uniqueid": "MTK1030:39GXDJN2OUL2RURV7Z08A3GDFN88VA", "current_trial": 176, "dateTime": 1513012540509, "trialdata": {"rt": -1, "stimulus": "<p id=\"stim\">8</p>", "key_press": -1, "trial_type": "single-stim", "trial_index": 176, "time_elapsed": 1006741, "internal_node_id": "0.0-129.0-2.0"}}, {"uniqueid": "MTK1030:39GXDJN2OUL2RURV7Z08A3GDFN88VA", "current_trial": 177, "dateTime": 1513012541510, "trialdata": {"rt": -1, "stimulus": "<p id=\"stim\">7</p>", "key_press": -1, "trial_type": "single-stim", "trial_index": 177, "time_elapsed": 1007742, "internal_node_id": "0.0-129.0-3.0"}}, {"uniqueid": "MTK1030:39GXDJN2OUL2RURV7Z08A3GDFN88VA", "current_trial": 178, "dateTime": 1513012542513, "trialdata": {"rt": -1, "stimulus": "<p id=\"stim\">6</p>", "key_press": -1, "trial_type": "single-stim", "trial_index": 178, "time_elapsed": 1008745, "internal_node_id": "0.0-129.0-4.0"}}, {"uniqueid": "MTK1030:39GXDJN2OUL2RURV7Z08A3GDFN88VA", "current_trial": 179, "dateTime": 1513012543514, "trialdata": {"rt": -1, "stimulus": "<p id=\"stim\">5</p>", "key_press": -1, "trial_type": "single-stim", "trial_index": 179, "time_elapsed": 1009746, "internal_node_id": "0.0-129.0-5.0"}}, {"uniqueid": "MTK1030:39GXDJN2OUL2RURV7Z08A3GDFN88VA", "current_trial": 180, "dateTime": 1513012544515, "trialdata": {"rt": -1, "stimulus": "<p id=\"stim\">4</p>", "key_press": -1, "trial_type": "single-stim", "trial_index": 180, "time_elapsed": 1010747, "internal_node_id": "0.0-129.0-6.0"}}, {"uniqueid": "MTK1030:39GXDJN2OUL2RURV7Z08A3GDFN88VA", "current_trial": 181, "dateTime": 1513012545516, "trialdata": {"rt": -1, "stimulus": "<p id=\"stim\">3</p>", "key_press": -1, "trial_type": "single-stim", "trial_index": 181, "time_elapsed": 1011748, "internal_node_id": "0.0-129.0-7.0"}}, {"uniqueid": "MTK1030:39GXDJN2OUL2RURV7Z08A3GDFN88VA", "current_trial": 182, "dateTime": 1513012546518, "trialdata": {"rt": -1, "stimulus": "<p id=\"stim\">2</p>", "key_press": -1, "trial_type": "single-stim", "trial_index": 182, "time_elapsed": 1012750, "internal_node_id": "0.0-129.0-8.0"}}, {"uniqueid": "MTK1030:39GXDJN2OUL2RURV7Z08A3GDFN88VA", "current_trial": 183, "dateTime": 1513012547520, "trialdata": {"rt": -1, "stimulus": "<p id=\"stim\">1</p>", "key_press": -1, "trial_type": "single-stim", "trial_index": 183, "time_elapsed": 1013751, "internal_node_id": "0.0-129.0-9.0"}}, {"uniqueid": "MTK1030:39GXDJN2OUL2RURV7Z08A3GDFN88VA", "current_trial": 184, "dateTime": 1513012549021, "trialdata": {"rt": -1, "stimulus": "<p id=\"stim\">+</p>", "key_press": -1, "type": "FIXATION", "trial_type": "single-stim", "trial_index": 184, "time_elapsed": 1015253, "internal_node_id": "0.0-130.0-0.0"}}, {"uniqueid": "MTK1030:39GXDJN2OUL2RURV7Z08A3GDFN88VA", "current_trial": 185, "dateTime": 1513012550623, "trialdata": {"rt": -1, "stimulus": "<p id=\"stim\">DRESSER</p>", "key_press": -1, "type": "PRES_VIS", "word": "dresser", "wordID": 495, "conditions": [24, 1600, "v", 12000], "trial": 5, "serialpos": 0, "trial_type": "single-stim", "trial_index": 185, "time_elapsed": 1016855, "internal_node_id": "0.0-131.0"}}, {"uniqueid": "MTK1030:39GXDJN2OUL2RURV7Z08A3GDFN88VA", "current_trial": 186, "dateTime": 1513012553040, "trialdata": {"rt": -1, "stimulus": "<p id=\"stim\">EUROPE</p>", "key_press": -1, "type": "PRES_VIS", "word": "europe", "wordID": 540, "conditions": [24, 1600, "v", 12000], "trial": 5, "serialpos": 1, "trial_type": "single-stim", "trial_index": 186, "time_elapsed": 1019272, "internal_node_id": "0.0-132.0"}}, {"uniqueid": "MTK1030:39GXDJN2OUL2RURV7Z08A3GDFN88VA", "current_trial": 187, "dateTime": 1513012555504, "trialdata": {"rt": -1, "stimulus": "<p id=\"stim\">EGYPT</p>", "key_press": -1, "type": "PRES_VIS", "word": "egypt", "wordID": 518, "conditions": [24, 1600, "v", 12000], "trial": 5, "serialpos": 2, "trial_type": "single-stim", "trial_index": 187, "time_elapsed": 1021735, "internal_node_id": "0.0-133.0"}}, {"uniqueid": "MTK1030:39GXDJN2OUL2RURV7Z08A3GDFN88VA", "current_trial": 188, "dateTime": 1513012558040, "trialdata": {"rt": -1, "stimulus": "<p id=\"stim\">LIZARD</p>", "key_press": -1, "type": "PRES_VIS", "word": "lizard", "wordID": 833, "conditions": [24, 1600, "v", 12000], "trial": 5, "serialpos": 3, "trial_type": "single-stim", "trial_index": 188, "time_elapsed": 1024272, "internal_node_id": "0.0-134.0"}}, {"uniqueid": "MTK1030:39GXDJN2OUL2RURV7Z08A3GDFN88VA", "current_trial": 189, "dateTime": 1513012560516, "trialdata": {"rt": -1, "stimulus": "<p id=\"stim\">BABY</p>", "key_press": -1, "type": "PRES_VIS", "word": "baby", "wordID": 63, "conditions": [24, 1600, "v", 12000], "trial": 5, "serialpos": 4, "trial_type": "single-stim", "trial_index": 189, "time_elapsed": 1026748, "internal_node_id": "0.0-135.0"}}, {"uniqueid": "MTK1030:39GXDJN2OUL2RURV7Z08A3GDFN88VA", "current_trial": 190, "dateTime": 1513012563263, "trialdata": {"rt": -1, "stimulus": "<p id=\"stim\">LETTUCE</p>", "key_press": -1, "type": "PRES_VIS", "word": "lettuce", "wordID": 813, "conditions": [24, 1600, "v", 12000], "trial": 5, "serialpos": 5, "trial_type": "single-stim", "trial_index": 190, "time_elapsed": 1029495, "internal_node_id": "0.0-136.0"}}, {"uniqueid": "MTK1030:39GXDJN2OUL2RURV7Z08A3GDFN88VA", "current_trial": 191, "dateTime": 1513012565857, "trialdata": {"rt": -1, "stimulus": "<p id=\"stim\">LONDON</p>", "key_press": -1, "type": "PRES_VIS", "word": "london", "wordID": 842, "conditions": [24, 1600, "v", 12000], "trial": 5, "serialpos": 6, "trial_type": "single-stim", "trial_index": 191, "time_elapsed": 1032089, "internal_node_id": "0.0-137.0"}}, {"uniqueid": "MTK1030:39GXDJN2OUL2RURV7Z08A3GDFN88VA", "current_trial": 192, "dateTime": 1513012568391, "trialdata": {"rt": -1, "stimulus": "<p id=\"stim\">BEAVER</p>", "key_press": -1, "type": "PRES_VIS", "word": "beaver", "wordID": 108, "conditions": [24, 1600, "v", 12000], "trial": 5, "serialpos": 7, "trial_type": "single-stim", "trial_index": 192, "time_elapsed": 1034623, "internal_node_id": "0.0-138.0"}}, {"uniqueid": "MTK1030:39GXDJN2OUL2RURV7Z08A3GDFN88VA", "current_trial": 193, "dateTime": 1513012571111, "trialdata": {"rt": -1, "stimulus": "<p id=\"stim\">CUPBOARD</p>", "key_press": -1, "type": "PRES_VIS", "word": "cupboard", "wordID": 424, "conditions": [24, 1600, "v", 12000], "trial": 5, "serialpos": 8, "trial_type": "single-stim", "trial_index": 193, "time_elapsed": 1037343, "internal_node_id": "0.0-139.0"}}, {"uniqueid": "MTK1030:39GXDJN2OUL2RURV7Z08A3GDFN88VA", "current_trial": 194, "dateTime": 1513012573639, "trialdata": {"rt": -1, "stimulus": "<p id=\"stim\">CURTAIN</p>", "key_press": -1, "type": "PRES_VIS", "word": "curtain", "wordID": 426, "conditions": [24, 1600, "v", 12000], "trial": 5, "serialpos": 9, "trial_type": "single-stim", "trial_index": 194, "time_elapsed": 1039871, "internal_node_id": "0.0-140.0"}}, {"uniqueid": "MTK1030:39GXDJN2OUL2RURV7Z08A3GDFN88VA", "current_trial": 195, "dateTime": 1513012576219, "trialdata": {"rt": -1, "stimulus": "<p id=\"stim\">PORTRAIT</p>", "key_press": -1, "type": "PRES_VIS", "word": "portrait", "wordID": 1110, "conditions": [24, 1600, "v", 12000], "trial": 5, "serialpos": 10, "trial_type": "single-stim", "trial_index": 195, "time_elapsed": 1042451, "internal_node_id": "0.0-141.0"}}, {"uniqueid": "MTK1030:39GXDJN2OUL2RURV7Z08A3GDFN88VA", "current_trial": 196, "dateTime": 1513012579008, "trialdata": {"rt": -1, "stimulus": "<p id=\"stim\">KITCHEN</p>", "key_press": -1, "type": "PRES_VIS", "word": "kitchen", "wordID": 777, "conditions": [24, 1600, "v", 12000], "trial": 5, "serialpos": 11, "trial_type": "single-stim", "trial_index": 196, "time_elapsed": 1045240, "internal_node_id": "0.0-142.0"}}, {"uniqueid": "MTK1030:39GXDJN2OUL2RURV7Z08A3GDFN88VA", "current_trial": 197, "dateTime": 1513012581572, "trialdata": {"rt": -1, "stimulus": "<p id=\"stim\">WAITER</p>", "key_press": -1, "type": "PRES_VIS", "word": "waiter", "wordID": 1579, "conditions": [24, 1600, "v", 12000], "trial": 5, "serialpos": 12, "trial_type": "single-stim", "trial_index": 197, "time_elapsed": 1047804, "internal_node_id": "0.0-143.0"}}, {"uniqueid": "MTK1030:39GXDJN2OUL2RURV7Z08A3GDFN88VA", "current_trial": 198, "dateTime": 1513012584009, "trialdata": {"rt": -1, "stimulus": "<p id=\"stim\">DONOR</p>", "key_press": -1, "type": "PRES_VIS", "word": "donor", "wordID": 484, "conditions": [24, 1600, "v", 12000], "trial": 5, "serialpos": 13, "trial_type": "single-stim", "trial_index": 198, "time_elapsed": 1050241, "internal_node_id": "0.0-144.0"}}, {"uniqueid": "MTK1030:39GXDJN2OUL2RURV7Z08A3GDFN88VA", "current_trial": 199, "dateTime": 1513012586416, "trialdata": {"rt": -1, "stimulus": "<p id=\"stim\">DRUG</p>", "key_press": -1, "type": "PRES_VIS", "word": "drug", "wordID": 500, "conditions": [24, 1600, "v", 12000], "trial": 5, "serialpos": 14, "trial_type": "single-stim", "trial_index": 199, "time_elapsed": 1052648, "internal_node_id": "0.0-145.0"}}, {"uniqueid": "MTK1030:39GXDJN2OUL2RURV7Z08A3GDFN88VA", "current_trial": 200, "dateTime": 1513012589201, "trialdata": {"rt": -1, "stimulus": "<p id=\"stim\">LIVER</p>", "key_press": -1, "type": "PRES_VIS", "word": "liver", "wordID": 832, "conditions": [24, 1600, "v", 12000], "trial": 5, "serialpos": 15, "trial_type": "single-stim", "trial_index": 200, "time_elapsed": 1055433, "internal_node_id": "0.0-146.0"}}, {"uniqueid": "MTK1030:39GXDJN2OUL2RURV7Z08A3GDFN88VA", "current_trial": 201, "dateTime": 1513012591622, "trialdata": {"rt": -1, "stimulus": "<p id=\"stim\">EAGLE</p>", "key_press": -1, "type": "PRES_VIS", "word": "eagle", "wordID": 511, "conditions": [24, 1600, "v", 12000], "trial": 5, "serialpos": 16, "trial_type": "single-stim", "trial_index": 201, "time_elapsed": 1057854, "internal_node_id": "0.0-147.0"}}, {"uniqueid": "MTK1030:39GXDJN2OUL2RURV7Z08A3GDFN88VA", "current_trial": 202, "dateTime": 1513012594286, "trialdata": {"rt": -1, "stimulus": "<p id=\"stim\">FRAGRANCE</p>", "key_press": -1, "type": "PRES_VIS", "word": "fragrance", "wordID": 598, "conditions": [24, 1600, "v", 12000], "trial": 5, "serialpos": 17, "trial_type": "single-stim", "trial_index": 202, "time_elapsed": 1060518, "internal_node_id": "0.0-148.0"}}, {"uniqueid": "MTK1030:39GXDJN2OUL2RURV7Z08A3GDFN88VA", "current_trial": 203, "dateTime": 1513012596741, "trialdata": {"rt": -1, "stimulus": "<p id=\"stim\">LAMP</p>", "key_press": -1, "type": "PRES_VIS", "word": "lamp", "wordID": 797, "conditions": [24, 1600, "v", 12000], "trial": 5, "serialpos": 18, "trial_type": "single-stim", "trial_index": 203, "time_elapsed": 1062973, "internal_node_id": "0.0-149.0"}}, {"uniqueid": "MTK1030:39GXDJN2OUL2RURV7Z08A3GDFN88VA", "current_trial": 204, "dateTime": 1513012599174, "trialdata": {"rt": -1, "stimulus": "<p id=\"stim\">NOVEL</p>", "key_press": -1, "type": "PRES_VIS", "word": "novel", "wordID": 959, "conditions": [24, 1600, "v", 12000], "trial": 5, "serialpos": 19, "trial_type": "single-stim", "trial_index": 204, "time_elapsed": 1065406, "internal_node_id": "0.0-150.0"}}, {"uniqueid": "MTK1030:39GXDJN2OUL2RURV7Z08A3GDFN88VA", "current_trial": 205, "dateTime": 1513012601903, "trialdata": {"rt": -1, "stimulus": "<p id=\"stim\">TORTOISE</p>", "key_press": -1, "type": "PRES_VIS", "word": "tortoise", "wordID": 1485, "conditions": [24, 1600, "v", 12000], "trial": 5, "serialpos": 20, "trial_type": "single-stim", "trial_index": 205, "time_elapsed": 1068135, "internal_node_id": "0.0-151.0"}}, {"uniqueid": "MTK1030:39GXDJN2OUL2RURV7Z08A3GDFN88VA", "current_trial": 206, "dateTime": 1513012604515, "trialdata": {"rt": -1, "stimulus": "<p id=\"stim\">MAMMAL</p>", "key_press": -1, "type": "PRES_VIS", "word": "mammal", "wordID": 860, "conditions": [24, 1600, "v", 12000], "trial": 5, "serialpos": 21, "trial_type": "single-stim", "trial_index": 206, "time_elapsed": 1070747, "internal_node_id": "0.0-152.0"}}, {"uniqueid": "MTK1030:39GXDJN2OUL2RURV7Z08A3GDFN88VA", "current_trial": 207, "dateTime": 1513012607287, "trialdata": {"rt": -1, "stimulus": "<p id=\"stim\">CASHIER</p>", "key_press": -1, "type": "PRES_VIS", "word": "cashier", "wordID": 253, "conditions": [24, 1600, "v", 12000], "trial": 5, "serialpos": 22, "trial_type": "single-stim", "trial_index": 207, "time_elapsed": 1073519, "internal_node_id": "0.0-153.0"}}, {"uniqueid": "MTK1030:39GXDJN2OUL2RURV7Z08A3GDFN88VA", "current_trial": 208, "dateTime": 1513012609765, "trialdata": {"rt": -1, "stimulus": "<p id=\"stim\">PARTNER</p>", "key_press": -1, "type": "PRES_VIS", "word": "partner", "wordID": 1016, "conditions": [24, 1600, "v", 12000], "trial": 5, "serialpos": 23, "trial_type": "single-stim", "trial_index": 208, "time_elapsed": 1075997, "internal_node_id": "0.0-154.0"}}, {"uniqueid": "MTK1030:39GXDJN2OUL2RURV7Z08A3GDFN88VA", "current_trial": 209, "dateTime": 1513012611979, "trialdata": {"rt": -1, "stimulus": "", "key_press": -1, "type": "PRE_RECALL_DELAY", "trial_type": "single-stim", "trial_index": 209, "time_elapsed": 1078211, "internal_node_id": "0.0-155.0-0.0"}}, {"uniqueid": "MTK1030:39GXDJN2OUL2RURV7Z08A3GDFN88VA", "current_trial": 210, "dateTime": 1513012612481, "trialdata": {"rt": -1000, "stimulus": "/static/audio/400Hz.wav", "key_press": -1, "type": "PRE_RECALL_ALERT", "trial_type": "single-audio", "trial_index": 210, "time_elapsed": 1078713, "internal_node_id": "0.0-156.0"}}, {"uniqueid": "MTK1030:39GXDJN2OUL2RURV7Z08A3GDFN88VA", "current_trial": 211, "dateTime": 1513012672487, "trialdata": {"rt": [2441, 3833, 5185, 6313, 7593, 10689, 15201, 17017, 19841, 22561, 30337, 33081], "recwords": ["cashier", "partner", "liver", "donor", "eagle", "baby", "europe", "beaver", "cupboard", "lettuce", "tortoise", "mammal"], "type": "FREE_RECALL", "conditions": [24, 1600, "v", 12000], "trial": 5, "trial_type": "free-recall", "trial_index": 211, "time_elapsed": 1138715, "internal_node_id": "0.0-157.0-0.0"}}, {"uniqueid": "MTK1030:39GXDJN2OUL2RURV7Z08A3GDFN88VA", "current_trial": 212, "dateTime": 1513012675595, "trialdata": {"rt": 1106, "key_press": 13, "type": "INSTRUCTIONS", "trial_type": "text", "trial_index": 212, "time_elapsed": 1141827, "internal_node_id": "0.0-158.0"}}, {"uniqueid": "MTK1030:39GXDJN2OUL2RURV7Z08A3GDFN88VA", "current_trial": 213, "dateTime": 1513012689598, "trialdata": {"rt": [3413, 5653, 7109, 8765], "responses": ["20", "16", "9", "11"], "num1": [9, 6, 3, 1, 7], "num2": [6, 5, 3, 4, 5], "num3": [5, 5, 3, 6, 8], "type": "DISTRACTOR", "conditions": [12, 1600, "v", 12000], "trial": 6, "trial_type": "math-distractor", "trial_index": 213, "time_elapsed": 1155830, "internal_node_id": "0.0-159.0"}}, {"uniqueid": "MTK1030:39GXDJN2OUL2RURV7Z08A3GDFN88VA", "current_trial": 214, "dateTime": 1513012692600, "trialdata": {"rt": -1, "stimulus": "<p id=\"stim\">10</p>", "key_press": -1, "trial_type": "single-stim", "trial_index": 214, "time_elapsed": 1158832, "internal_node_id": "0.0-160.0-0.0"}}, {"uniqueid": "MTK1030:39GXDJN2OUL2RURV7Z08A3GDFN88VA", "current_trial": 215, "dateTime": 1513012693601, "trialdata": {"rt": -1, "stimulus": "<p id=\"stim\">9</p>", "key_press": -1, "trial_type": "single-stim", "trial_index": 215, "time_elapsed": 1159833, "internal_node_id": "0.0-160.0-1.0"}}, {"uniqueid": "MTK1030:39GXDJN2OUL2RURV7Z08A3GDFN88VA", "current_trial": 216, "dateTime": 1513012694602, "trialdata": {"rt": -1, "stimulus": "<p id=\"stim\">8</p>", "key_press": -1, "trial_type": "single-stim", "trial_index": 216, "time_elapsed": 1160834, "internal_node_id": "0.0-160.0-2.0"}}, {"uniqueid": "MTK1030:39GXDJN2OUL2RURV7Z08A3GDFN88VA", "current_trial": 217, "dateTime": 1513012695603, "trialdata": {"rt": -1, "stimulus": "<p id=\"stim\">7</p>", "key_press": -1, "trial_type": "single-stim", "trial_index": 217, "time_elapsed": 1161835, "internal_node_id": "0.0-160.0-3.0"}}, {"uniqueid": "MTK1030:39GXDJN2OUL2RURV7Z08A3GDFN88VA", "current_trial": 218, "dateTime": 1513012696605, "trialdata": {"rt": -1, "stimulus": "<p id=\"stim\">6</p>", "key_press": -1, "trial_type": "single-stim", "trial_index": 218, "time_elapsed": 1162836, "internal_node_id": "0.0-160.0-4.0"}}, {"uniqueid": "MTK1030:39GXDJN2OUL2RURV7Z08A3GDFN88VA", "current_trial": 219, "dateTime": 1513012697606, "trialdata": {"rt": -1, "stimulus": "<p id=\"stim\">5</p>", "key_press": -1, "trial_type": "single-stim", "trial_index": 219, "time_elapsed": 1163838, "internal_node_id": "0.0-160.0-5.0"}}, {"uniqueid": "MTK1030:39GXDJN2OUL2RURV7Z08A3GDFN88VA", "current_trial": 220, "dateTime": 1513012698607, "trialdata": {"rt": -1, "stimulus": "<p id=\"stim\">4</p>", "key_press": -1, "trial_type": "single-stim", "trial_index": 220, "time_elapsed": 1164839, "internal_node_id": "0.0-160.0-6.0"}}, {"uniqueid": "MTK1030:39GXDJN2OUL2RURV7Z08A3GDFN88VA", "current_trial": 221, "dateTime": 1513012699609, "trialdata": {"rt": -1, "stimulus": "<p id=\"stim\">3</p>", "key_press": -1, "trial_type": "single-stim", "trial_index": 221, "time_elapsed": 1165841, "internal_node_id": "0.0-160.0-7.0"}}, {"uniqueid": "MTK1030:39GXDJN2OUL2RURV7Z08A3GDFN88VA", "current_trial": 222, "dateTime": 1513012700611, "trialdata": {"rt": -1, "stimulus": "<p id=\"stim\">2</p>", "key_press": -1, "trial_type": "single-stim", "trial_index": 222, "time_elapsed": 1166842, "internal_node_id": "0.0-160.0-8.0"}}, {"uniqueid": "MTK1030:39GXDJN2OUL2RURV7Z08A3GDFN88VA", "current_trial": 223, "dateTime": 1513012701612, "trialdata": {"rt": -1, "stimulus": "<p id=\"stim\">1</p>", "key_press": -1, "trial_type": "single-stim", "trial_index": 223, "time_elapsed": 1167844, "internal_node_id": "0.0-160.0-9.0"}}, {"uniqueid": "MTK1030:39GXDJN2OUL2RURV7Z08A3GDFN88VA", "current_trial": 224, "dateTime": 1513012703113, "trialdata": {"rt": -1, "stimulus": "<p id=\"stim\">+</p>", "key_press": -1, "type": "FIXATION", "trial_type": "single-stim", "trial_index": 224, "time_elapsed": 1169345, "internal_node_id": "0.0-161.0-0.0"}}, {"uniqueid": "MTK1030:39GXDJN2OUL2RURV7Z08A3GDFN88VA", "current_trial": 225, "dateTime": 1513012704715, "trialdata": {"rt": -1, "stimulus": "<p id=\"stim\">BADGE</p>", "key_press": -1, "type": "PRES_VIS", "word": "badge", "wordID": 67, "conditions": [12, 1600, "v", 12000], "trial": 6, "serialpos": 0, "trial_type": "single-stim", "trial_index": 225, "time_elapsed": 1170946, "internal_node_id": "0.0-162.0"}}, {"uniqueid": "MTK1030:39GXDJN2OUL2RURV7Z08A3GDFN88VA", "current_trial": 226, "dateTime": 1513012707457, "trialdata": {"rt": -1, "stimulus": "<p id=\"stim\">APRON</p>", "key_press": -1, "type": "PRES_VIS", "word": "apron", "wordID": 34, "conditions": [12, 1600, "v", 12000], "trial": 6, "serialpos": 1, "trial_type": "single-stim", "trial_index": 226, "time_elapsed": 1173689, "internal_node_id": "0.0-163.0"}}, {"uniqueid": "MTK1030:39GXDJN2OUL2RURV7Z08A3GDFN88VA", "current_trial": 227, "dateTime": 1513012709995, "trialdata": {"rt": -1, "stimulus": "<p id=\"stim\">TRUCK</p>", "key_press": -1, "type": "PRES_VIS", "word": "truck", "wordID": 1511, "conditions": [12, 1600, "v", 12000], "trial": 6, "serialpos": 2, "trial_type": "single-stim", "trial_index": 227, "time_elapsed": 1176227, "internal_node_id": "0.0-164.0"}}, {"uniqueid": "MTK1030:39GXDJN2OUL2RURV7Z08A3GDFN88VA", "current_trial": 228, "dateTime": 1513012712538, "trialdata": {"rt": -1, "stimulus": "<p id=\"stim\">DINER</p>", "key_press": -1, "type": "PRES_VIS", "word": "diner", "wordID": 466, "conditions": [12, 1600, "v", 12000], "trial": 6, "serialpos": 3, "trial_type": "single-stim", "trial_index": 228, "time_elapsed": 1178770, "internal_node_id": "0.0-165.0"}}, {"uniqueid": "MTK1030:39GXDJN2OUL2RURV7Z08A3GDFN88VA", "current_trial": 229, "dateTime": 1513012715016, "trialdata": {"rt": -1, "stimulus": "<p id=\"stim\">FOOT</p>", "key_press": -1, "type": "PRES_VIS", "word": "foot", "wordID": 589, "conditions": [12, 1600, "v", 12000], "trial": 6, "serialpos": 4, "trial_type": "single-stim", "trial_index": 229, "time_elapsed": 1181248, "internal_node_id": "0.0-166.0"}}, {"uniqueid": "MTK1030:39GXDJN2OUL2RURV7Z08A3GDFN88VA", "current_trial": 230, "dateTime": 1513012717649, "trialdata": {"rt": -1, "stimulus": "<p id=\"stim\">STICKER</p>", "key_press": -1, "type": "PRES_VIS", "word": "sticker", "wordID": 1381, "conditions": [12, 1600, "v", 12000], "trial": 6, "serialpos": 5, "trial_type": "single-stim", "trial_index": 230, "time_elapsed": 1183880, "internal_node_id": "0.0-167.0"}}, {"uniqueid": "MTK1030:39GXDJN2OUL2RURV7Z08A3GDFN88VA", "current_trial": 231, "dateTime": 1513012720143, "trialdata": {"rt": -1, "stimulus": "<p id=\"stim\">SCULPTURE</p>", "key_press": -1, "type": "PRES_VIS", "word": "sculpture", "wordID": 1257, "conditions": [12, 1600, "v", 12000], "trial": 6, "serialpos": 6, "trial_type": "single-stim", "trial_index": 231, "time_elapsed": 1186375, "internal_node_id": "0.0-168.0"}}, {"uniqueid": "MTK1030:39GXDJN2OUL2RURV7Z08A3GDFN88VA", "current_trial": 232, "dateTime": 1513012722837, "trialdata": {"rt": -1, "stimulus": "<p id=\"stim\">PICNIC</p>", "key_press": -1, "type": "PRES_VIS", "word": "picnic", "wordID": 1059, "conditions": [12, 1600, "v", 12000], "trial": 6, "serialpos": 7, "trial_type": "single-stim", "trial_index": 232, "time_elapsed": 1189068, "internal_node_id": "0.0-169.0"}}, {"uniqueid": "MTK1030:39GXDJN2OUL2RURV7Z08A3GDFN88VA", "current_trial": 233, "dateTime": 1513012725591, "trialdata": {"rt": -1, "stimulus": "<p id=\"stim\">LABEL</p>", "key_press": -1, "type": "PRES_VIS", "word": "label", "wordID": 789, "conditions": [12, 1600, "v", 12000], "trial": 6, "serialpos": 8, "trial_type": "single-stim", "trial_index": 233, "time_elapsed": 1191823, "internal_node_id": "0.0-170.0"}}, {"uniqueid": "MTK1030:39GXDJN2OUL2RURV7Z08A3GDFN88VA", "current_trial": 234, "dateTime": 1513012728001, "trialdata": {"rt": -1, "stimulus": "<p id=\"stim\">CLOTHES</p>", "key_press": -1, "type": "PRES_VIS", "word": "clothes", "wordID": 326, "conditions": [12, 1600, "v", 12000], "trial": 6, "serialpos": 9, "trial_type": "single-stim", "trial_index": 234, "time_elapsed": 1194233, "internal_node_id": "0.0-171.0"}}, {"uniqueid": "MTK1030:39GXDJN2OUL2RURV7Z08A3GDFN88VA", "current_trial": 235, "dateTime": 1513012730521, "trialdata": {"rt": -1, "stimulus": "<p id=\"stim\">WARDROBE</p>", "key_press": -1, "type": "PRES_VIS", "word": "wardrobe", "wordID": 1586, "conditions": [12, 1600, "v", 12000], "trial": 6, "serialpos": 10, "trial_type": "single-stim", "trial_index": 235, "time_elapsed": 1196753, "internal_node_id": "0.0-172.0"}}, {"uniqueid": "MTK1030:39GXDJN2OUL2RURV7Z08A3GDFN88VA", "current_trial": 236, "dateTime": 1513012733027, "trialdata": {"rt": -1, "stimulus": "<p id=\"stim\">JOURNAL</p>", "key_press": -1, "type": "PRES_VIS", "word": "journal", "wordID": 759, "conditions": [12, 1600, "v", 12000], "trial": 6, "serialpos": 11, "trial_type": "single-stim", "trial_index": 236, "time_elapsed": 1199259, "internal_node_id": "0.0-173.0"}}, {"uniqueid": "MTK1030:39GXDJN2OUL2RURV7Z08A3GDFN88VA", "current_trial": 237, "dateTime": 1513012735235, "trialdata": {"rt": -1, "stimulus": "", "key_press": -1, "type": "PRE_RECALL_DELAY", "trial_type": "single-stim", "trial_index": 237, "time_elapsed": 1201467, "internal_node_id": "0.0-174.0-0.0"}}, {"uniqueid": "MTK1030:39GXDJN2OUL2RURV7Z08A3GDFN88VA", "current_trial": 238, "dateTime": 1513012735737, "trialdata": {"rt": -1000, "stimulus": "/static/audio/400Hz.wav", "key_press": -1, "type": "PRE_RECALL_ALERT", "trial_type": "single-audio", "trial_index": 238, "time_elapsed": 1201969, "internal_node_id": "0.0-175.0"}}, {"uniqueid": "MTK1030:39GXDJN2OUL2RURV7Z08A3GDFN88VA", "current_trial": 239, "dateTime": 1513012795744, "trialdata": {"rt": [3551, 5079, 8814, 12623, 14942, 17838, 24006, 26582, 33054], "recwords": ["wardrobe", "clothes", "apron", "journal", "picnic", "sticker", "sculpture", "truck", "diner"], "type": "FREE_RECALL", "conditions": [12, 1600, "v", 12000], "trial": 6, "trial_type": "free-recall", "trial_index": 239, "time_elapsed": 1261972, "internal_node_id": "0.0-176.0-0.0"}}, {"uniqueid": "MTK1030:39GXDJN2OUL2RURV7Z08A3GDFN88VA", "current_trial": 240, "dateTime": 1513012798665, "trialdata": {"rt": 921, "key_press": 13, "type": "INSTRUCTIONS", "trial_type": "text", "trial_index": 240, "time_elapsed": 1264897, "internal_node_id": "0.0-177.0"}}, {"uniqueid": "MTK1030:39GXDJN2OUL2RURV7Z08A3GDFN88VA", "current_trial": 241, "dateTime": 1513012824669, "trialdata": {"rt": [1958, 4678, 9846, 11958, 13502, 16174, 17910, 19502, 23662], "responses": ["16", "15", "16", "17", "13", "19", "13", "16", "18"], "num1": [7, 8, 8, 7, 5, 9, 6, 7, 6, 9], "num2": [8, 1, 4, 3, 5, 5, 1, 2, 7, 5], "num3": [1, 6, 5, 7, 3, 5, 6, 7, 5, 3], "type": "DISTRACTOR", "conditions": [12, 1600, "a", 24000], "trial": 7, "trial_type": "math-distractor", "trial_index": 241, "time_elapsed": 1290901, "internal_node_id": "0.0-178.0"}}, {"uniqueid": "MTK1030:39GXDJN2OUL2RURV7Z08A3GDFN88VA", "current_trial": 242, "dateTime": 1513012827671, "trialdata": {"rt": -1, "stimulus": "<p id=\"stim\">10</p>", "key_press": -1, "trial_type": "single-stim", "trial_index": 242, "time_elapsed": 1293903, "internal_node_id": "0.0-179.0-0.0"}}, {"uniqueid": "MTK1030:39GXDJN2OUL2RURV7Z08A3GDFN88VA", "current_trial": 243, "dateTime": 1513012828673, "trialdata": {"rt": -1, "stimulus": "<p id=\"stim\">9</p>", "key_press": -1, "trial_type": "single-stim", "trial_index": 243, "time_elapsed": 1294904, "internal_node_id": "0.0-179.0-1.0"}}, {"uniqueid": "MTK1030:39GXDJN2OUL2RURV7Z08A3GDFN88VA", "current_trial": 244, "dateTime": 1513012829674, "trialdata": {"rt": -1, "stimulus": "<p id=\"stim\">8</p>", "key_press": -1, "trial_type": "single-stim", "trial_index": 244, "time_elapsed": 1295906, "internal_node_id": "0.0-179.0-2.0"}}, {"uniqueid": "MTK1030:39GXDJN2OUL2RURV7Z08A3GDFN88VA", "current_trial": 245, "dateTime": 1513012830676, "trialdata": {"rt": -1, "stimulus": "<p id=\"stim\">7</p>", "key_press": -1, "trial_type": "single-stim", "trial_index": 245, "time_elapsed": 1296908, "internal_node_id": "0.0-179.0-3.0"}}, {"uniqueid": "MTK1030:39GXDJN2OUL2RURV7Z08A3GDFN88VA", "current_trial": 246, "dateTime": 1513012831677, "trialdata": {"rt": -1, "stimulus": "<p id=\"stim\">6</p>", "key_press": -1, "trial_type": "single-stim", "trial_index": 246, "time_elapsed": 1297909, "internal_node_id": "0.0-179.0-4.0"}}, {"uniqueid": "MTK1030:39GXDJN2OUL2RURV7Z08A3GDFN88VA", "current_trial": 247, "dateTime": 1513012832679, "trialdata": {"rt": -1, "stimulus": "<p id=\"stim\">5</p>", "key_press": -1, "trial_type": "single-stim", "trial_index": 247, "time_elapsed": 1298911, "internal_node_id": "0.0-179.0-5.0"}}, {"uniqueid": "MTK1030:39GXDJN2OUL2RURV7Z08A3GDFN88VA", "current_trial": 248, "dateTime": 1513012833680, "trialdata": {"rt": -1, "stimulus": "<p id=\"stim\">4</p>", "key_press": -1, "trial_type": "single-stim", "trial_index": 248, "time_elapsed": 1299912, "internal_node_id": "0.0-179.0-6.0"}}, {"uniqueid": "MTK1030:39GXDJN2OUL2RURV7Z08A3GDFN88VA", "current_trial": 249, "dateTime": 1513012834682, "trialdata": {"rt": -1, "stimulus": "<p id=\"stim\">3</p>", "key_press": -1, "trial_type": "single-stim", "trial_index": 249, "time_elapsed": 1300913, "internal_node_id": "0.0-179.0-7.0"}}, {"uniqueid": "MTK1030:39GXDJN2OUL2RURV7Z08A3GDFN88VA", "current_trial": 250, "dateTime": 1513012835683, "trialdata": {"rt": -1, "stimulus": "<p id=\"stim\">2</p>", "key_press": -1, "trial_type": "single-stim", "trial_index": 250, "time_elapsed": 1301915, "internal_node_id": "0.0-179.0-8.0"}}, {"uniqueid": "MTK1030:39GXDJN2OUL2RURV7Z08A3GDFN88VA", "current_trial": 251, "dateTime": 1513012836685, "trialdata": {"rt": -1, "stimulus": "<p id=\"stim\">1</p>", "key_press": -1, "trial_type": "single-stim", "trial_index": 251, "time_elapsed": 1302917, "internal_node_id": "0.0-179.0-9.0"}}, {"uniqueid": "MTK1030:39GXDJN2OUL2RURV7Z08A3GDFN88VA", "current_trial": 252, "dateTime": 1513012838187, "trialdata": {"rt": -1, "stimulus": "<p id=\"stim\">+</p>", "key_press": -1, "type": "FIXATION", "trial_type": "single-stim", "trial_index": 252, "time_elapsed": 1304419, "internal_node_id": "0.0-180.0-0.0"}}, {"uniqueid": "MTK1030:39GXDJN2OUL2RURV7Z08A3GDFN88VA", "current_trial": 253, "dateTime": 1513012840794, "trialdata": {"rt": -1000, "stimulus": "/static/audio/wordpool/BREAST.wav", "key_press": -1, "type": "PRES_AUD", "word": "breast", "wordID": 170, "conditions": [12, 1600, "a", 24000], "trial": 7, "serialpos": 0, "trial_type": "single-audio", "trial_index": 253, "time_elapsed": 1307026, "internal_node_id": "0.0-181.0"}}, {"uniqueid": "MTK1030:39GXDJN2OUL2RURV7Z08A3GDFN88VA", "current_trial": 254, "dateTime": 1513012843445, "trialdata": {"rt": -1000, "stimulus": "/static/audio/wordpool/SHOULDER.wav", "key_press": -1, "type": "PRES_AUD", "word": "shoulder", "wordID": 1293, "conditions": [12, 1600, "a", 24000], "trial": 7, "serialpos": 1, "trial_type": "single-audio", "trial_index": 254, "time_elapsed": 1309677, "internal_node_id": "0.0-182.0"}}, {"uniqueid": "MTK1030:39GXDJN2OUL2RURV7Z08A3GDFN88VA", "current_trial": 255, "dateTime": 1513012846142, "trialdata": {"rt": -1000, "stimulus": "/static/audio/wordpool/BLENDER.wav", "key_press": -1, "type": "PRES_AUD", "word": "blender", "wordID": 135, "conditions": [12, 1600, "a", 24000], "trial": 7, "serialpos": 2, "trial_type": "single-audio", "trial_index": 255, "time_elapsed": 1312374, "internal_node_id": "0.0-183.0"}}, {"uniqueid": "MTK1030:39GXDJN2OUL2RURV7Z08A3GDFN88VA", "current_trial": 256, "dateTime": 1513012848908, "trialdata": {"rt": -1000, "stimulus": "/static/audio/wordpool/PATROL.wav", "key_press": -1, "type": "PRES_AUD", "word": "patrol", "wordID": 1026, "conditions": [12, 1600, "a", 24000], "trial": 7, "serialpos": 3, "trial_type": "single-audio", "trial_index": 256, "time_elapsed": 1315140, "internal_node_id": "0.0-184.0"}}, {"uniqueid": "MTK1030:39GXDJN2OUL2RURV7Z08A3GDFN88VA", "current_trial": 257, "dateTime": 1513012851693, "trialdata": {"rt": -1000, "stimulus": "/static/audio/wordpool/WIFE.wav", "key_press": -1, "type": "PRES_AUD", "word": "wife", "wordID": 1608, "conditions": [12, 1600, "a", 24000], "trial": 7, "serialpos": 4, "trial_type": "single-audio", "trial_index": 257, "time_elapsed": 1317924, "internal_node_id": "0.0-185.0"}}, {"uniqueid": "MTK1030:39GXDJN2OUL2RURV7Z08A3GDFN88VA", "current_trial": 258, "dateTime": 1513012854294, "trialdata": {"rt": -1000, "stimulus": "/static/audio/wordpool/VICTIM.wav", "key_press": -1, "type": "PRES_AUD", "word": "victim", "wordID": 1561, "conditions": [12, 1600, "a", 24000], "trial": 7, "serialpos": 5, "trial_type": "single-audio", "trial_index": 258, "time_elapsed": 1320526, "internal_node_id": "0.0-186.0"}}, {"uniqueid": "MTK1030:39GXDJN2OUL2RURV7Z08A3GDFN88VA", "current_trial": 259, "dateTime": 1513012856989, "trialdata": {"rt": -1000, "stimulus": "/static/audio/wordpool/SUSPECT.wav", "key_press": -1, "type": "PRES_AUD", "word": "suspect", "wordID": 1414, "conditions": [12, 1600, "a", 24000], "trial": 7, "serialpos": 6, "trial_type": "single-audio", "trial_index": 259, "time_elapsed": 1323221, "internal_node_id": "0.0-187.0"}}, {"uniqueid": "MTK1030:39GXDJN2OUL2RURV7Z08A3GDFN88VA", "current_trial": 260, "dateTime": 1513012859769, "trialdata": {"rt": -1000, "stimulus": "/static/audio/wordpool/HIGHWAY.wav", "key_press": -1, "type": "PRES_AUD", "word": "highway", "wordID": 706, "conditions": [12, 1600, "a", 24000], "trial": 7, "serialpos": 7, "trial_type": "single-audio", "trial_index": 260, "time_elapsed": 1326001, "internal_node_id": "0.0-188.0"}}, {"uniqueid": "MTK1030:39GXDJN2OUL2RURV7Z08A3GDFN88VA", "current_trial": 261, "dateTime": 1513012862393, "trialdata": {"rt": -1000, "stimulus": "/static/audio/wordpool/SKILLET.wav", "key_press": -1, "type": "PRES_AUD", "word": "skillet", "wordID": 1316, "conditions": [12, 1600, "a", 24000], "trial": 7, "serialpos": 8, "trial_type": "single-audio", "trial_index": 261, "time_elapsed": 1328625, "internal_node_id": "0.0-189.0"}}, {"uniqueid": "MTK1030:39GXDJN2OUL2RURV7Z08A3GDFN88VA", "current_trial": 262, "dateTime": 1513012864898, "trialdata": {"rt": -1000, "stimulus": "/static/audio/wordpool/LION.wav", "key_press": -1, "type": "PRES_AUD", "word": "lion", "wordID": 826, "conditions": [12, 1600, "a", 24000], "trial": 7, "serialpos": 9, "trial_type": "single-audio", "trial_index": 262, "time_elapsed": 1331130, "internal_node_id": "0.0-190.0"}}, {"uniqueid": "MTK1030:39GXDJN2OUL2RURV7Z08A3GDFN88VA", "current_trial": 263, "dateTime": 1513012867519, "trialdata": {"rt": -1000, "stimulus": "/static/audio/wordpool/BUCKET.wav", "key_press": -1, "type": "PRES_AUD", "word": "bucket", "wordID": 183, "conditions": [12, 1600, "a", 24000], "trial": 7, "serialpos": 10, "trial_type": "single-audio", "trial_index": 263, "time_elapsed": 1333751, "internal_node_id": "0.0-191.0"}}, {"uniqueid": "MTK1030:39GXDJN2OUL2RURV7Z08A3GDFN88VA", "current_trial": 264, "dateTime": 1513012869939, "trialdata": {"rt": -1000, "stimulus": "/static/audio/wordpool/RIFLE.wav", "key_press": -1, "type": "PRES_AUD", "word": "rifle", "wordID": 1191, "conditions": [12, 1600, "a", 24000], "trial": 7, "serialpos": 11, "trial_type": "single-audio", "trial_index": 264, "time_elapsed": 1336170, "internal_node_id": "0.0-192.0"}}, {"uniqueid": "MTK1030:39GXDJN2OUL2RURV7Z08A3GDFN88VA", "current_trial": 265, "dateTime": 1513012871214, "trialdata": {"rt": -1, "stimulus": "", "key_press": -1, "type": "PRE_RECALL_DELAY", "trial_type": "single-stim", "trial_index": 265, "time_elapsed": 1337446, "internal_node_id": "0.0-193.0-0.0"}}, {"uniqueid": "MTK1030:39GXDJN2OUL2RURV7Z08A3GDFN88VA", "current_trial": 266, "dateTime": 1513012871715, "trialdata": {"rt": -1000, "stimulus": "/static/audio/400Hz.wav", "key_press": -1, "type": "PRE_RECALL_ALERT", "trial_type": "single-audio", "trial_index": 266, "time_elapsed": 1337947, "internal_node_id": "0.0-194.0"}}, {"uniqueid": "MTK1030:39GXDJN2OUL2RURV7Z08A3GDFN88VA", "current_trial": 267, "dateTime": 1513012931722, "trialdata": {"rt": [1268, 2228, 3484, 4636, 6092, 10228, 11460, 18212, 25980], "recwords": ["breast", "wife", "victim", "highway", "patrol", "bucket", "rifel", "shoulder", "suspect"], "type": "FREE_RECALL", "conditions": [12, 1600, "a", 24000], "trial": 7, "trial_type": "free-recall", "trial_index": 267, "time_elapsed": 1397950, "internal_node_id": "0.0-195.0-0.0"}}, {"uniqueid": "MTK1030:39GXDJN2OUL2RURV7Z08A3GDFN88VA", "current_trial": 268, "dateTime": 1513012934768, "trialdata": {"rt": 1044, "key_press": 13, "type": "INSTRUCTIONS", "trial_type": "text", "trial_index": 268, "time_elapsed": 1401000, "internal_node_id": "0.0-196.0"}}, {"uniqueid": "MTK1030:39GXDJN2OUL2RURV7Z08A3GDFN88VA", "current_trial": 269, "dateTime": 1513012960773, "trialdata": {"rt": [3820, 8428, 9956, 11508, 13092, 16572, 18988, 20500], "responses": ["15", "16", "8", "12", "17", "16", "13", "15"], "num1": [5, 6, 1, 3, 8, 5, 9, 5, 4], "num2": [2, 4, 4, 7, 8, 7, 4, 5, 5], "num3": [8, 6, 3, 2, 1, 4, 1, 5, 8], "type": "DISTRACTOR", "conditions": [24, 800, "a", 24000], "trial": 8, "trial_type": "math-distractor", "trial_index": 269, "time_elapsed": 1427005, "internal_node_id": "0.0-197.0"}}, {"uniqueid": "MTK1030:39GXDJN2OUL2RURV7Z08A3GDFN88VA", "current_trial": 270, "dateTime": 1513012963775, "trialdata": {"rt": -1, "stimulus": "<p id=\"stim\">10</p>", "key_press": -1, "trial_type": "single-stim", "trial_index": 270, "time_elapsed": 1430007, "internal_node_id": "0.0-198.0-0.0"}}, {"uniqueid": "MTK1030:39GXDJN2OUL2RURV7Z08A3GDFN88VA", "current_trial": 271, "dateTime": 1513012964776, "trialdata": {"rt": -1, "stimulus": "<p id=\"stim\">9</p>", "key_press": -1, "trial_type": "single-stim", "trial_index": 271, "time_elapsed": 1431008, "internal_node_id": "0.0-198.0-1.0"}}, {"uniqueid": "MTK1030:39GXDJN2OUL2RURV7Z08A3GDFN88VA", "current_trial": 272, "dateTime": 1513012965777, "trialdata": {"rt": -1, "stimulus": "<p id=\"stim\">8</p>", "key_press": -1, "trial_type": "single-stim", "trial_index": 272, "time_elapsed": 1432009, "internal_node_id": "0.0-198.0-