{"assignmentId": "3M81GAB8A1QTOKTLOCQ8VI769WDBQA", "workerId": "MTK1621", "questiondata": {"origin": "United States", "strat-rehearsal": "20", "marital": "Single", "education": "Bachelor's degree", "ethnicity": "Not Hispanic", "color_depth": 24, "distracted": "No", "wrote-notes": "No", "strat-other": "I don't really know that I created full sentences but I used a combination of short phrases and like items. For example in one it was like the BUTCHER used a POISON SWORD to slay the FARMER while he was getting MILK. Then I'd also be thinking but GARLIC was needed to kill the vampire in the SWAMP. Then for others it was just a lot of things that went together like animals. Then there were also some words that just stuck out because they were enunciated very clearly, like PIANO and PARSLEY.", "screen_width": 1536, "avail_screen_width": 1536, "avail_screen_height": 824, "strat-image": "10", "language": "English", "gender": "Female", "age": "32", "gender_other": "", "race": ["White"], "strat-categorize": "80", "pixel_depth": 24, "strat-spatial": "0", "strat-story": "75", "race_other": "", "screen_height": 864}, "bonus": 0, "hitId": "306W7JMRYY5LVWVVCG46K7QMXF8B81", "counterbalance": 1844, "useragent": "Mozilla/5.0 (Windows NT 10.0; Win64; x64) AppleWebKit/537.36 (KHTML, like Gecko) Chrome/63.0.3239.132 Safari/537.36", "eventdata": [{"eventtype": "initialized", "interval": 0, "value": null, "timestamp": 1516048073672}, {"eventtype": "window_resize", "interval": 0, "value": [1540, 816], "timestamp": 1516048073672}, {"eventtype": "focus", "interval": 13861, "value": "off", "timestamp": 1516048087533}, {"eventtype": "focus", "interval": 24359, "value": "on", "timestamp": 1516048111892}, {"eventtype": "window_resize", "interval": 5914, "value": [1536, 774], "timestamp": 1516048117806}, {"eventtype": "focus", "interval": 147656, "value": "off", "timestamp": 1516048265462}, {"eventtype": "focus", "interval": 22284, "value": "on", "timestamp": 1516048287746}, {"eventtype": "focus", "interval": 357199, "value": "off", "timestamp": 1516048644945}, {"eventtype": "focus", "interval": 73884, "value": "on", "timestamp": 1516048718829}, {"eventtype": "focus", "interval": 1708736, "value": "off", "timestamp": 1516050427565}, {"eventtype": "focus", "interval": 8155, "value": "on", "timestamp": 1516050435720}], "data": [{"current_trial": 0, "trialdata": {"rt": 4454, "trial_type": "text", "internal_node_id": "0.0-0.0", "time_elapsed": 4456, "key_press": 32, "type": "INSTRUCTIONS", "trial_index": 0}, "uniqueid": "MTK1621:3M81GAB8A1QTOKTLOCQ8VI769WDBQA", "dateTime": 1516048115065}, {"current_trial": 1, "trialdata": {"rt": 13401, "trial_type": "text", "internal_node_id": "0.0-1.0", "time_elapsed": 17858, "key_press": 32, "type": "INSTRUCTIONS", "trial_index": 1}, "uniqueid": "MTK1621:3M81GAB8A1QTOKTLOCQ8VI769WDBQA", "dateTime": 1516048128467}, {"current_trial": 2, "trialdata": {"rt": [4317], "trial_type": "audio-test", "responses": ["ocean"], "internal_node_id": "0.0-2.0", "time_elapsed": 22184, "type": "AUDIO_TEST", "trial_index": 2}, "uniqueid": "MTK1621:3M81GAB8A1QTOKTLOCQ8VI769WDBQA", "dateTime": 1516048132793}, {"current_trial": 3, "trialdata": {"rt": [5510], "trial_type": "audio-test", "responses": ["crystal"], "internal_node_id": "0.0-3.0", "time_elapsed": 27696, "type": "AUDIO_TEST", "trial_index": 3}, "uniqueid": "MTK1621:3M81GAB8A1QTOKTLOCQ8VI769WDBQA", "dateTime": 1516048138305}, {"current_trial": 4, "trialdata": {"rt": [3715], "trial_type": "audio-test", "responses": ["spice"], "internal_node_id": "0.0-4.0", "time_elapsed": 31415, "type": "AUDIO_TEST", "trial_index": 4}, "uniqueid": "MTK1621:3M81GAB8A1QTOKTLOCQ8VI769WDBQA", "dateTime": 1516048142024}, {"current_trial": 5, "trialdata": {"rt": 28874, "trial_type": "survey-text", "responses": "{\"Q0\":\"12:30\",\"Q1\":\"8:20\",\"Q2\":\"4\"}", "internal_node_id": "0.0-5.0", "time_elapsed": 61042, "type": "SLEEP_SURVEY", "trial_index": 5}, "uniqueid": "MTK1621:3M81GAB8A1QTOKTLOCQ8VI769WDBQA", "dateTime": 1516048171651}, {"current_trial": 6, "trialdata": {"rt": 20715, "trial_type": "text", "internal_node_id": "0.0-6.0", "time_elapsed": 82759, "key_press": 13, "type": "INSTRUCTIONS", "trial_index": 6}, "uniqueid": "MTK1621:3M81GAB8A1QTOKTLOCQ8VI769WDBQA", "dateTime": 1516048193368}, {"current_trial": 7, "trialdata": {"rt": 8935, "trial_type": "text", "internal_node_id": "0.0-7.0", "time_elapsed": 92196, "key_press": 13, "type": "INSTRUCTIONS", "trial_index": 7}, "uniqueid": "MTK1621:3M81GAB8A1QTOKTLOCQ8VI769WDBQA", "dateTime": 1516048202805}, {"current_trial": 8, "trialdata": {"rt": 7220, "trial_type": "text", "internal_node_id": "0.0-8.0", "time_elapsed": 99917, "key_press": 13, "type": "INSTRUCTIONS", "trial_index": 8}, "uniqueid": "MTK1621:3M81GAB8A1QTOKTLOCQ8VI769WDBQA", "dateTime": 1516048210526}, {"current_trial": 9, "trialdata": {"rt": [3676, 5246, 7826, 9705, 11470, 13024, 14676, 17441], "trial_type": "math-distractor", "key_times": [1699, 1832, 3676, 4833, 4950, 5246, 7341, 7469, 7826, 9150, 9488, 9705, 10840, 11163, 11470, 12767, 13024, 14277, 14495, 14676, 16761, 17154, 17441], "responses": ["14", "14", "15", "17", "19", "6", "15", "10"], "num2": [5, 7, 6, 9, 9, 2, 6, 3, 4], "num3": [3, 4, 2, 4, 1, 3, 4, 6, 9], "conditions": [18, 1200, "a", 18000], "internal_node_id": "0.0-9.0", "key_presses": [49, 52, 13, 49, 52, 13, 49, 53, 13, 49, 55, 13, 49, 57, 13, 54, 13, 49, 53, 13, 49, 48, 13], "trial": 0, "time_elapsed": 118923, "type": "DISTRACTOR", "trial_index": 9, "num1": [6, 3, 7, 4, 9, 1, 5, 1, 1]}, "uniqueid": "MTK1621:3M81GAB8A1QTOKTLOCQ8VI769WDBQA", "dateTime": 1516048229532}, {"current_trial": 10, "trialdata": {"rt": -1, "trial_type": "single-stim", "stimulus": "<p id=\"stim\">10</p>", "internal_node_id": "0.0-10.0-0.0", "time_elapsed": 121925, "key_press": -1, "trial_index": 10}, "uniqueid": "MTK1621:3M81GAB8A1QTOKTLOCQ8VI769WDBQA", "dateTime": 1516048232534}, {"current_trial": 11, "trialdata": {"rt": -1, "trial_type": "single-stim", "stimulus": "<p id=\"stim\">9</p>", "internal_node_id": "0.0-10.0-1.0", "time_elapsed": 122926, "key_press": -1, "trial_index": 11}, "uniqueid": "MTK1621:3M81GAB8A1QTOKTLOCQ8VI769WDBQA", "dateTime": 1516048233536}, {"current_trial": 12, "trialdata": {"rt": -1, "trial_type": "single-stim", "stimulus": "<p id=\"stim\">8</p>", "internal_node_id": "0.0-10.0-2.0", "time_elapsed": 123928, "key_press": -1, "trial_index": 12}, "uniqueid": "MTK1621:3M81GAB8A1QTOKTLOCQ8VI769WDBQA", "dateTime": 1516048234537}, {"current_trial": 13, "trialdata": {"rt": -1, "trial_type": "single-stim", "stimulus": "<p id=\"stim\">7</p>", "internal_node_id": "0.0-10.0-3.0", "time_elapsed": 124930, "key_press": -1, "trial_index": 13}, "uniqueid": "MTK1621:3M81GAB8A1QTOKTLOCQ8VI769WDBQA", "dateTime": 1516048235539}, {"current_trial": 14, "trialdata": {"rt": -1, "trial_type": "single-stim", "stimulus": "<p id=\"stim\">6</p>", "internal_node_id": "0.0-10.0-4.0", "time_elapsed": 125932, "key_press": -1, "trial_index": 14}, "uniqueid": "MTK1621:3M81GAB8A1QTOKTLOCQ8VI769WDBQA", "dateTime": 1516048236541}, {"current_trial": 15, "trialdata": {"rt": -1, "trial_type": "single-stim", "stimulus": "<p id=\"stim\">5</p>", "internal_node_id": "0.0-10.0-5.0", "time_elapsed": 126933, "key_press": -1, "trial_index": 15}, "uniqueid": "MTK1621:3M81GAB8A1QTOKTLOCQ8VI769WDBQA", "dateTime": 1516048237542}, {"current_trial": 16, "trialdata": {"rt": -1, "trial_type": "single-stim", "stimulus": "<p id=\"stim\">4</p>", "internal_node_id": "0.0-10.0-6.0", "time_elapsed": 127935, "key_press": -1, "trial_index": 16}, "uniqueid": "MTK1621:3M81GAB8A1QTOKTLOCQ8VI769WDBQA", "dateTime": 1516048238544}, {"current_trial": 17, "trialdata": {"rt": -1, "trial_type": "single-stim", "stimulus": "<p id=\"stim\">3</p>", "internal_node_id": "0.0-10.0-7.0", "time_elapsed": 128936, "key_press": -1, "trial_index": 17}, "uniqueid": "MTK1621:3M81GAB8A1QTOKTLOCQ8VI769WDBQA", "dateTime": 1516048239545}, {"current_trial": 18, "trialdata": {"rt": -1, "trial_type": "single-stim", "stimulus": "<p id=\"stim\">2</p>", "internal_node_id": "0.0-10.0-8.0", "time_elapsed": 129938, "key_press": -1, "trial_index": 18}, "uniqueid": "MTK1621:3M81GAB8A1QTOKTLOCQ8VI769WDBQA", "dateTime": 1516048240547}, {"current_trial": 19, "trialdata": {"rt": -1, "trial_type": "single-stim", "stimulus": "<p id=\"stim\">1</p>", "internal_node_id": "0.0-10.0-9.0", "time_elapsed": 130939, "key_press": -1, "trial_index": 19}, "uniqueid": "MTK1621:3M81GAB8A1QTOKTLOCQ8VI769WDBQA", "dateTime": 1516048241548}, {"current_trial": 20, "trialdata": {"rt": -1, "trial_type": "single-stim", "stimulus": "<p id=\"stim\">+</p>", "internal_node_id": "0.0-11.0-0.0", "time_elapsed": 132441, "key_press": -1, "type": "FIXATION", "trial_index": 20}, "uniqueid": "MTK1621:3M81GAB8A1QTOKTLOCQ8VI769WDBQA", "dateTime": 1516048243050}, {"current_trial": 21, "trialdata": {"rt": -1000, "trial_type": "single-audio", "word": "pluto", "stimulus": "/static/audio/wordpool/PLUTO.wav", "conditions": [18, 1200, "a", 18000], "internal_node_id": "0.0-12.0", "trial": 0, "time_elapsed": 134587, "serialpos": 0, "key_press": -1, "wordID": 1091, "type": "PRES_AUD", "trial_index": 21}, "uniqueid": "MTK1621:3M81GAB8A1QTOKTLOCQ8VI769WDBQA", "dateTime": 1516048245196}, {"current_trial": 22, "trialdata": {"rt": -1000, "trial_type": "single-audio", "word": "coffee", "stimulus": "/static/audio/wordpool/COFFEE.wav", "conditions": [18, 1200, "a", 18000], "internal_node_id": "0.0-13.0", "trial": 0, "time_elapsed": 136976, "serialpos": 1, "key_press": -1, "wordID": 340, "type": "PRES_AUD", "trial_index": 22}, "uniqueid": "MTK1621:3M81GAB8A1QTOKTLOCQ8VI769WDBQA", "dateTime": 1516048247585}, {"current_trial": 23, "trialdata": {"rt": -1000, "trial_type": "single-audio", "word": "peanut", "stimulus": "/static/audio/wordpool/PEANUT.wav", "conditions": [18, 1200, "a", 18000], "internal_node_id": "0.0-14.0", "trial": 0, "time_elapsed": 139312, "serialpos": 2, "key_press": -1, "wordID": 1031, "type": "PRES_AUD", "trial_index": 23}, "uniqueid": "MTK1621:3M81GAB8A1QTOKTLOCQ8VI769WDBQA", "dateTime": 1516048249921}, {"current_trial": 24, "trialdata": {"rt": -1000, "trial_type": "single-audio", "word": "garbage", "stimulus": "/static/audio/wordpool/GARBAGE.wav", "conditions": [18, 1200, "a", 18000], "internal_node_id": "0.0-15.0", "trial": 0, "time_elapsed": 141451, "serialpos": 3, "key_press": -1, "wordID": 621, "type": "PRES_AUD", "trial_index": 24}, "uniqueid": "MTK1621:3M81GAB8A1QTOKTLOCQ8VI769WDBQA", "dateTime": 1516048252060}, {"current_trial": 25, "trialdata": {"rt": -1000, "trial_type": "single-audio", "word": "award", "stimulus": "/static/audio/wordpool/AWARD.wav", "conditions": [18, 1200, "a", 18000], "internal_node_id": "0.0-16.0", "trial": 0, "time_elapsed": 143537, "serialpos": 4, "key_press": -1, "wordID": 62, "type": "PRES_AUD", "trial_index": 25}, "uniqueid": "MTK1621:3M81GAB8A1QTOKTLOCQ8VI769WDBQA", "dateTime": 1516048254146}, {"current_trial": 26, "trialdata": {"rt": -1000, "trial_type": "single-audio", "word": "picture", "stimulus": "/static/audio/wordpool/PICTURE.wav", "conditions": [18, 1200, "a", 18000], "internal_node_id": "0.0-17.0", "trial": 0, "time_elapsed": 145941, "serialpos": 5, "key_press": -1, "wordID": 1060, "type": "PRES_AUD", "trial_index": 26}, "uniqueid": "MTK1621:3M81GAB8A1QTOKTLOCQ8VI769WDBQA", "dateTime": 1516048256550}, {"current_trial": 27, "trialdata": {"rt": -1000, "trial_type": "single-audio", "word": "expert", "stimulus": "/static/audio/wordpool/EXPERT.wav", "conditions": [18, 1200, "a", 18000], "internal_node_id": "0.0-18.0", "trial": 0, "time_elapsed": 148027, "serialpos": 6, "key_press": -1, "wordID": 542, "type": "PRES_AUD", "trial_index": 27}, "uniqueid": "MTK1621:3M81GAB8A1QTOKTLOCQ8VI769WDBQA", "dateTime": 1516048258636}, {"current_trial": 28, "trialdata": {"rt": -1000, "trial_type": "single-audio", "word": "jelly", "stimulus": "/static/audio/wordpool/JELLY.wav", "conditions": [18, 1200, "a", 18000], "internal_node_id": "0.0-19.0", "trial": 0, "time_elapsed": 150338, "serialpos": 7, "key_press": -1, "wordID": 754, "type": "PRES_AUD", "trial_index": 28}, "uniqueid": "MTK1621:3M81GAB8A1QTOKTLOCQ8VI769WDBQA", "dateTime": 1516048260947}, {"current_trial": 29, "trialdata": {"rt": -1000, "trial_type": "single-audio", "word": "wrist", "stimulus": "/static/audio/wordpool/WRIST.wav", "conditions": [18, 1200, "a", 18000], "internal_node_id": "0.0-20.0", "trial": 0, "time_elapsed": 152569, "serialpos": 8, "key_press": -1, "wordID": 1625, "type": "PRES_AUD", "trial_index": 29}, "uniqueid": "MTK1621:3M81GAB8A1QTOKTLOCQ8VI769WDBQA", "dateTime": 1516048263178}, {"current_trial": 30, "trialdata": {"rt": -1000, "trial_type": "single-audio", "word": "iceberg", "stimulus": "/static/audio/wordpool/ICEBERG.wav", "conditions": [18, 1200, "a", 18000], "internal_node_id": "0.0-21.0", "trial": 0, "time_elapsed": 154777, "serialpos": 9, "key_press": -1, "wordID": 730, "type": "PRES_AUD", "trial_index": 30}, "uniqueid": "MTK1621:3M81GAB8A1QTOKTLOCQ8VI769WDBQA", "dateTime": 1516048265386}, {"current_trial": 31, "trialdata": {"rt": -1000, "trial_type": "single-audio", "word": "powder", "stimulus": "/static/audio/wordpool/POWDER.wav", "conditions": [18, 1200, "a", 18000], "internal_node_id": "0.0-22.0", "trial": 0, "time_elapsed": 157122, "serialpos": 10, "key_press": -1, "wordID": 1116, "type": "PRES_AUD", "trial_index": 31}, "uniqueid": "MTK1621:3M81GAB8A1QTOKTLOCQ8VI769WDBQA", "dateTime": 1516048267731}, {"current_trial": 32, "trialdata": {"rt": -1000, "trial_type": "single-audio", "word": "sunset", "stimulus": "/static/audio/wordpool/SUNSET.wav", "conditions": [18, 1200, "a", 18000], "internal_node_id": "0.0-23.0", "trial": 0, "time_elapsed": 159289, "serialpos": 11, "key_press": -1, "wordID": 1407, "type": "PRES_AUD", "trial_index": 32}, "uniqueid": "MTK1621:3M81GAB8A1QTOKTLOCQ8VI769WDBQA", "dateTime": 1516048269899}, {"current_trial": 33, "trialdata": {"rt": -1000, "trial_type": "single-audio", "word": "mammal", "stimulus": "/static/audio/wordpool/MAMMAL.wav", "conditions": [18, 1200, "a", 18000], "internal_node_id": "0.0-24.0", "trial": 0, "time_elapsed": 161696, "serialpos": 12, "key_press": -1, "wordID": 860, "type": "PRES_AUD", "trial_index": 33}, "uniqueid": "MTK1621:3M81GAB8A1QTOKTLOCQ8VI769WDBQA", "dateTime": 1516048272305}, {"current_trial": 34, "trialdata": {"rt": -1000, "trial_type": "single-audio", "word": "worker", "stimulus": "/static/audio/wordpool/WORKER.wav", "conditions": [18, 1200, "a", 18000], "internal_node_id": "0.0-25.0", "trial": 0, "time_elapsed": 164096, "serialpos": 13, "key_press": -1, "wordID": 1620, "type": "PRES_AUD", "trial_index": 34}, "uniqueid": "MTK1621:3M81GAB8A1QTOKTLOCQ8VI769WDBQA", "dateTime": 1516048274705}, {"current_trial": 35, "trialdata": {"rt": -1000, "trial_type": "single-audio", "word": "velvet", "stimulus": "/static/audio/wordpool/VELVET.wav", "conditions": [18, 1200, "a", 18000], "internal_node_id": "0.0-26.0", "trial": 0, "time_elapsed": 166377, "serialpos": 14, "key_press": -1, "wordID": 1554, "type": "PRES_AUD", "trial_index": 35}, "uniqueid": "MTK1621:3M81GAB8A1QTOKTLOCQ8VI769WDBQA", "dateTime": 1516048276986}, {"current_trial": 36, "trialdata": {"rt": -1000, "trial_type": "single-audio", "word": "outlaw", "stimulus": "/static/audio/wordpool/OUTLAW.wav", "conditions": [18, 1200, "a", 18000], "internal_node_id": "0.0-27.0", "trial": 0, "time_elapsed": 168572, "serialpos": 15, "key_press": -1, "wordID": 988, "type": "PRES_AUD", "trial_index": 36}, "uniqueid": "MTK1621:3M81GAB8A1QTOKTLOCQ8VI769WDBQA", "dateTime": 1516048279181}, {"current_trial": 37, "trialdata": {"rt": -1000, "trial_type": "single-audio", "word": "cowboy", "stimulus": "/static/audio/wordpool/COWBOY.wav", "conditions": [18, 1200, "a", 18000], "internal_node_id": "0.0-28.0", "trial": 0, "time_elapsed": 170881, "serialpos": 16, "key_press": -1, "wordID": 394, "type": "PRES_AUD", "trial_index": 37}, "uniqueid": "MTK1621:3M81GAB8A1QTOKTLOCQ8VI769WDBQA", "dateTime": 1516048281490}, {"current_trial": 38, "trialdata": {"rt": -1000, "trial_type": "single-audio", "word": "viking", "stimulus": "/static/audio/wordpool/VIKING.wav", "conditions": [18, 1200, "a", 18000], "internal_node_id": "0.0-29.0", "trial": 0, "time_elapsed": 173102, "serialpos": 17, "key_press": -1, "wordID": 1564, "type": "PRES_AUD", "trial_index": 38}, "uniqueid": "MTK1621:3M81GAB8A1QTOKTLOCQ8VI769WDBQA", "dateTime": 1516048283712}, {"current_trial": 39, "trialdata": {"rt": -1, "trial_type": "single-stim", "stimulus": "", "internal_node_id": "0.0-30.0-0.0", "time_elapsed": 174476, "key_press": -1, "type": "PRE_RECALL_DELAY", "trial_index": 39}, "uniqueid": "MTK1621:3M81GAB8A1QTOKTLOCQ8VI769WDBQA", "dateTime": 1516048285085}, {"current_trial": 40, "trialdata": {"rt": -1000, "trial_type": "single-audio", "stimulus": "/static/audio/400Hz.wav", "internal_node_id": "0.0-31.0", "time_elapsed": 174977, "key_press": -1, "type": "PRE_RECALL_ALERT", "trial_index": 40}, "uniqueid": "MTK1621:3M81GAB8A1QTOKTLOCQ8VI769WDBQA", "dateTime": 1516048285586}, {"current_trial": 41, "trialdata": {"rt": [3916, 5952, 7679, 9317, 11399, 14720, 17234, 21888, 26799, 51797], "recwords": ["camel", "outlaw", "viking", "jelly", "mammal", "peanut", "sunset", "velvet", "coffee", "pluto"], "key_times": [2610, 2747, 2864, 3069, 3235, 3916, 4475, 4582, 4732, 4898, 5153, 5506, 5586, 5671, 5952, 6617, 6703, 6886, 7071, 7156, 7290, 7679, 8181, 8614, 8727, 8874, 8975, 9317, 9865, 10090, 10522, 10669, 10816, 10912, 11399, 13789, 13884, 13965, 14072, 14252, 14405, 14720, 15338, 15439, 15530, 15685, 15845, 15942, 17234, 19935, 20123, 20354, 20585, 20795, 20907, 21888, 25706, 25839, 25978, 26137, 26279, 26456, 26799, 50704, 50774, 51123, 51257, 51300, 51797], "trial_type": "free-recall", "conditions": [18, 1200, "a", 18000], "internal_node_id": "0.0-32.0-0.0", "key_presses": [67, 65, 77, 69, 76, 13, 79, 85, 84, 76, 79, 8, 65, 87, 13, 86, 73, 75, 73, 78, 71, 13, 74, 69, 76, 76, 89, 13, 77, 65, 77, 77, 65, 76, 13, 80, 69, 65, 78, 85, 84, 13, 83, 85, 78, 83, 69, 84, 13, 86, 69, 76, 86, 69, 84, 13, 67, 79, 70, 70, 69, 69, 13, 80, 76, 85, 84, 79, 13], "trial": 0, "time_elapsed": 234980, "type": "FREE_RECALL", "trial_index": 41}, "uniqueid": "MTK1621:3M81GAB8A1QTOKTLOCQ8VI769WDBQA", "dateTime": 1516048345590}, {"current_trial": 42, "trialdata": {"rt": 1741, "trial_type": "text", "internal_node_id": "0.0-33.0", "time_elapsed": 238724, "key_press": 32, "type": "INSTRUCTIONS", "trial_index": 42}, "uniqueid": "MTK1621:3M81GAB8A1QTOKTLOCQ8VI769WDBQA", "dateTime": 1516048349333}, {"current_trial": 43, "trialdata": {"rt": [1775, 3005, 6566, 8580, 10203, 12011, 13291, 15160, 17824], "trial_type": "math-distractor", "key_times": [1425, 1510, 1775, 2694, 2806, 3005, 4765, 4872, 5695, 5806, 6216, 6356, 6566, 8193, 8368, 8580, 9899, 10203, 11566, 11699, 12011, 12942, 13054, 13291, 14780, 15026, 15160, 17521, 17718, 17824], "responses": ["14", "14", "20", "21", "9", "19", "19", "16", "15"], "num2": [4, 9, 8, 8, 1, 9, 5, 7, 5, 8], "num3": [4, 4, 4, 6, 2, 8, 5, 2, 7, 4], "conditions": [18, 1200, "a", 18000], "internal_node_id": "0.0-34.0", "key_presses": [49, 52, 13, 49, 52, 13, 50, 48, 8, 8, 50, 48, 13, 50, 49, 13, 57, 13, 49, 57, 13, 49, 57, 13, 49, 54, 13, 49, 53, 13], "trial": 1, "time_elapsed": 258728, "type": "DISTRACTOR", "trial_index": 43, "num1": [6, 1, 8, 7, 6, 2, 9, 7, 3, 9]}, "uniqueid": "MTK1621:3M81GAB8A1QTOKTLOCQ8VI769WDBQA", "dateTime": 1516048369337}, {"current_trial": 44, "trialdata": {"rt": -1, "trial_type": "single-stim", "stimulus": "<p id=\"stim\">10</p>", "internal_node_id": "0.0-35.0-0.0", "time_elapsed": 261730, "key_press": -1, "trial_index": 44}, "uniqueid": "MTK1621:3M81GAB8A1QTOKTLOCQ8VI769WDBQA", "dateTime": 1516048372339}, {"current_trial": 45, "trialdata": {"rt": -1, "trial_type": "single-stim", "stimulus": "<p id=\"stim\">9</p>", "internal_node_id": "0.0-35.0-1.0", "time_elapsed": 262731, "key_press": -1, "trial_index": 45}, "uniqueid": "MTK1621:3M81GAB8A1QTOKTLOCQ8VI769WDBQA", "dateTime": 1516048373340}, {"current_trial": 46, "trialdata": {"rt": -1, "trial_type": "single-stim", "stimulus": "<p id=\"stim\">8</p>", "internal_node_id": "0.0-35.0-2.0", "time_elapsed": 263733, "key_press": -1, "trial_index": 46}, "uniqueid": "MTK1621:3M81GAB8A1QTOKTLOCQ8VI769WDBQA", "dateTime": 1516048374342}, {"current_trial": 47, "trialdata": {"rt": -1, "trial_type": "single-stim", "stimulus": "<p id=\"stim\">7</p>", "internal_node_id": "0.0-35.0-3.0", "time_elapsed": 264734, "key_press": -1, "trial_index": 47}, "uniqueid": "MTK1621:3M81GAB8A1QTOKTLOCQ8VI769WDBQA", "dateTime": 1516048375343}, {"current_trial": 48, "trialdata": {"rt": -1, "trial_type": "single-stim", "stimulus": "<p id=\"stim\">6</p>", "internal_node_id": "0.0-35.0-4.0", "time_elapsed": 265735, "key_press": -1, "trial_index": 48}, "uniqueid": "MTK1621:3M81GAB8A1QTOKTLOCQ8VI769WDBQA", "dateTime": 1516048376344}, {"current_trial": 49, "trialdata": {"rt": -1, "trial_type": "single-stim", "stimulus": "<p id=\"stim\">5</p>", "internal_node_id": "0.0-35.0-5.0", "time_elapsed": 266737, "key_press": -1, "trial_index": 49}, "uniqueid": "MTK1621:3M81GAB8A1QTOKTLOCQ8VI769WDBQA", "dateTime": 1516048377346}, {"current_trial": 50, "trialdata": {"rt": -1, "trial_type": "single-stim", "stimulus": "<p id=\"stim\">4</p>", "internal_node_id": "0.0-35.0-6.0", "time_elapsed": 267738, "key_press": -1, "trial_index": 50}, "uniqueid": "MTK1621:3M81GAB8A1QTOKTLOCQ8VI769WDBQA", "dateTime": 1516048378347}, {"current_trial": 51, "trialdata": {"rt": -1, "trial_type": "single-stim", "stimulus": "<p id=\"stim\">3</p>", "internal_node_id": "0.0-35.0-7.0", "time_elapsed": 268739, "key_press": -1, "trial_index": 51}, "uniqueid": "MTK1621:3M81GAB8A1QTOKTLOCQ8VI769WDBQA", "dateTime": 1516048379348}, {"current_trial": 52, "trialdata": {"rt": -1, "trial_type": "single-stim", "stimulus": "<p id=\"stim\">2</p>", "internal_node_id": "0.0-35.0-8.0", "time_elapsed": 269741, "key_press": -1, "trial_index": 52}, "uniqueid": "MTK1621:3M81GAB8A1QTOKTLOCQ8VI769WDBQA", "dateTime": 1516048380350}, {"current_trial": 53, "trialdata": {"rt": -1, "trial_type": "single-stim", "stimulus": "<p id=\"stim\">1</p>", "internal_node_id": "0.0-35.0-9.0", "time_elapsed": 270742, "key_press": -1, "trial_index": 53}, "uniqueid": "MTK1621:3M81GAB8A1QTOKTLOCQ8VI769WDBQA", "dateTime": 1516048381351}, {"current_trial": 54, "trialdata": {"rt": -1, "trial_type": "single-stim", "stimulus": "<p id=\"stim\">+</p>", "internal_node_id": "0.0-36.0-0.0", "time_elapsed": 272243, "key_press": -1, "type": "FIXATION", "trial_index": 54}, "uniqueid": "MTK1621:3M81GAB8A1QTOKTLOCQ8VI769WDBQA", "dateTime": 1516048382853}, {"current_trial": 55, "trialdata": {"rt": -1000, "trial_type": "single-audio", "word": "hero", "stimulus": "/static/audio/wordpool/HERO.wav", "conditions": [18, 1200, "a", 18000], "internal_node_id": "0.0-37.0", "trial": 1, "time_elapsed": 274591, "serialpos": 0, "key_press": -1, "wordID": 705, "type": "PRES_AUD", "trial_index": 55}, "uniqueid": "MTK1621:3M81GAB8A1QTOKTLOCQ8VI769WDBQA", "dateTime": 1516048385200}, {"current_trial": 56, "trialdata": {"rt": -1000, "trial_type": "single-audio", "word": "carrot", "stimulus": "/static/audio/wordpool/CARROT.wav", "conditions": [18, 1200, "a", 18000], "internal_node_id": "0.0-38.0", "trial": 1, "time_elapsed": 276789, "serialpos": 1, "key_press": -1, "wordID": 248, "type": "PRES_AUD", "trial_index": 56}, "uniqueid": "MTK1621:3M81GAB8A1QTOKTLOCQ8VI769WDBQA", "dateTime": 1516048387398}, {"current_trial": 57, "trialdata": {"rt": -1000, "trial_type": "single-audio", "word": "panther", "stimulus": "/static/audio/wordpool/PANTHER.wav", "conditions": [18, 1200, "a", 18000], "internal_node_id": "0.0-39.0", "trial": 1, "time_elapsed": 278863, "serialpos": 2, "key_press": -1, "wordID": 1008, "type": "PRES_AUD", "trial_index": 57}, "uniqueid": "MTK1621:3M81GAB8A1QTOKTLOCQ8VI769WDBQA", "dateTime": 1516048389472}, {"current_trial": 58, "trialdata": {"rt": -1000, "trial_type": "single-audio", "word": "cashew", "stimulus": "/static/audio/wordpool/CASHEW.wav", "conditions": [18, 1200, "a", 18000], "internal_node_id": "0.0-40.0", "trial": 1, "time_elapsed": 281242, "serialpos": 3, "key_press": -1, "wordID": 252, "type": "PRES_AUD", "trial_index": 58}, "uniqueid": "MTK1621:3M81GAB8A1QTOKTLOCQ8VI769WDBQA", "dateTime": 1516048391851}, {"current_trial": 59, "trialdata": {"rt": -1000, "trial_type": "single-audio", "word": "chauffeur", "stimulus": "/static/audio/wordpool/CHAUFFEUR.wav", "conditions": [18, 1200, "a", 18000], "internal_node_id": "0.0-41.0", "trial": 1, "time_elapsed": 283586, "serialpos": 4, "key_press": -1, "wordID": 282, "type": "PRES_AUD", "trial_index": 59}, "uniqueid": "MTK1621:3M81GAB8A1QTOKTLOCQ8VI769WDBQA", "dateTime": 1516048394195}, {"current_trial": 60, "trialdata": {"rt": -1000, "trial_type": "single-audio", "word": "spouse", "stimulus": "/static/audio/wordpool/SPOUSE.wav", "conditions": [18, 1200, "a", 18000], "internal_node_id": "0.0-42.0", "trial": 1, "time_elapsed": 285679, "serialpos": 5, "key_press": -1, "wordID": 1357, "type": "PRES_AUD", "trial_index": 60}, "uniqueid": "MTK1621:3M81GAB8A1QTOKTLOCQ8VI769WDBQA", "dateTime": 1516048396288}, {"current_trial": 61, "trialdata": {"rt": -1000, "trial_type": "single-audio", "word": "globe", "stimulus": "/static/audio/wordpool/GLOBE.wav", "conditions": [18, 1200, "a", 18000], "internal_node_id": "0.0-43.0", "trial": 1, "time_elapsed": 287987, "serialpos": 6, "key_press": -1, "wordID": 640, "type": "PRES_AUD", "trial_index": 61}, "uniqueid": "MTK1621:3M81GAB8A1QTOKTLOCQ8VI769WDBQA", "dateTime": 1516048398596}, {"current_trial": 62, "trialdata": {"rt": -1000, "trial_type": "single-audio", "word": "ox", "stimulus": "/static/audio/wordpool/OX.wav", "conditions": [18, 1200, "a", 18000], "internal_node_id": "0.0-44.0", "trial": 1, "time_elapsed": 290016, "serialpos": 7, "key_press": -1, "wordID": 993, "type": "PRES_AUD", "trial_index": 62}, "uniqueid": "MTK1621:3M81GAB8A1QTOKTLOCQ8VI769WDBQA", "dateTime": 1516048400626}, {"current_trial": 63, "trialdata": {"rt": -1000, "trial_type": "single-audio", "word": "gallon", "stimulus": "/static/audio/wordpool/GALLON.wav", "conditions": [18, 1200, "a", 18000], "internal_node_id": "0.0-45.0", "trial": 1, "time_elapsed": 292347, "serialpos": 8, "key_press": -1, "wordID": 617, "type": "PRES_AUD", "trial_index": 63}, "uniqueid": "MTK1621:3M81GAB8A1QTOKTLOCQ8VI769WDBQA", "dateTime": 1516048402956}, {"current_trial": 64, "trialdata": {"rt": -1000, "trial_type": "single-audio", "word": "mattress", "stimulus": "/static/audio/wordpool/MATTRESS.wav", "conditions": [18, 1200, "a", 18000], "internal_node_id": "0.0-46.0", "trial": 1, "time_elapsed": 294746, "serialpos": 9, "key_press": -1, "wordID": 878, "type": "PRES_AUD", "trial_index": 64}, "uniqueid": "MTK1621:3M81GAB8A1QTOKTLOCQ8VI769WDBQA", "dateTime": 1516048405355}, {"current_trial": 65, "trialdata": {"rt": -1000, "trial_type": "single-audio", "word": "branch", "stimulus": "/static/audio/wordpool/BRANCH.wav", "conditions": [18, 1200, "a", 18000], "internal_node_id": "0.0-47.0", "trial": 1, "time_elapsed": 296945, "serialpos": 10, "key_press": -1, "wordID": 167, "type": "PRES_AUD", "trial_index": 65}, "uniqueid": "MTK1621:3M81GAB8A1QTOKTLOCQ8VI769WDBQA", "dateTime": 1516048407554}, {"current_trial": 66, "trialdata": {"rt": -1000, "trial_type": "single-audio", "word": "pigment", "stimulus": "/static/audio/wordpool/PIGMENT.wav", "conditions": [18, 1200, "a", 18000], "internal_node_id": "0.0-48.0", "trial": 1, "time_elapsed": 299181, "serialpos": 11, "key_press": -1, "wordID": 1065, "type": "PRES_AUD", "trial_index": 66}, "uniqueid": "MTK1621:3M81GAB8A1QTOKTLOCQ8VI769WDBQA", "dateTime": 1516048409790}, {"current_trial": 67, "trialdata": {"rt": -1000, "trial_type": "single-audio", "word": "snail", "stimulus": "/static/audio/wordpool/SNAIL.wav", "conditions": [18, 1200, "a", 18000], "internal_node_id": "0.0-49.0", "trial": 1, "time_elapsed": 301579, "serialpos": 12, "key_press": -1, "wordID": 1331, "type": "PRES_AUD", "trial_index": 67}, "uniqueid": "MTK1621:3M81GAB8A1QTOKTLOCQ8VI769WDBQA", "dateTime": 1516048412189}, {"current_trial": 68, "trialdata": {"rt": -1000, "trial_type": "single-audio", "word": "stamp", "stimulus": "/static/audio/wordpool/STAMP.wav", "conditions": [18, 1200, "a", 18000], "internal_node_id": "0.0-50.0", "trial": 1, "time_elapsed": 303905, "serialpos": 13, "key_press": -1, "wordID": 1369, "type": "PRES_AUD", "trial_index": 68}, "uniqueid": "MTK1621:3M81GAB8A1QTOKTLOCQ8VI769WDBQA", "dateTime": 1516048414516}, {"current_trial": 69, "trialdata": {"rt": -1000, "trial_type": "single-audio", "word": "slide", "stimulus": "/static/audio/wordpool/SLIDE.wav", "conditions": [18, 1200, "a", 18000], "internal_node_id": "0.0-51.0", "trial": 1, "time_elapsed": 306042, "serialpos": 14, "key_press": -1, "wordID": 1325, "type": "PRES_AUD", "trial_index": 69}, "uniqueid": "MTK1621:3M81GAB8A1QTOKTLOCQ8VI769WDBQA", "dateTime": 1516048416651}, {"current_trial": 70, "trialdata": {"rt": -1000, "trial_type": "single-audio", "word": "pasta", "stimulus": "/static/audio/wordpool/PASTA.wav", "conditions": [18, 1200, "a", 18000], "internal_node_id": "0.0-52.0", "trial": 1, "time_elapsed": 308430, "serialpos": 15, "key_press": -1, "wordID": 1020, "type": "PRES_AUD", "trial_index": 70}, "uniqueid": "MTK1621:3M81GAB8A1QTOKTLOCQ8VI769WDBQA", "dateTime": 1516048419039}, {"current_trial": 71, "trialdata": {"rt": -1000, "trial_type": "single-audio", "word": "truck", "stimulus": "/static/audio/wordpool/TRUCK.wav", "conditions": [18, 1200, "a", 18000], "internal_node_id": "0.0-53.0", "trial": 1, "time_elapsed": 310482, "serialpos": 16, "key_press": -1, "wordID": 1511, "type": "PRES_AUD", "trial_index": 71}, "uniqueid": "MTK1621:3M81GAB8A1QTOKTLOCQ8VI769WDBQA", "dateTime": 1516048421091}, {"current_trial": 72, "trialdata": {"rt": -1000, "trial_type": "single-audio", "word": "seal", "stimulus": "/static/audio/wordpool/SEAL.wav", "conditions": [18, 1200, "a", 18000], "internal_node_id": "0.0-54.0", "trial": 1, "time_elapsed": 312834, "serialpos": 17, "key_press": -1, "wordID": 1261, "type": "PRES_AUD", "trial_index": 72}, "uniqueid": "MTK1621:3M81GAB8A1QTOKTLOCQ8VI769WDBQA", "dateTime": 1516048423443}, {"current_trial": 73, "trialdata": {"rt": -1, "trial_type": "single-stim", "stimulus": "", "internal_node_id": "0.0-55.0-0.0", "time_elapsed": 314188, "key_press": -1, "type": "PRE_RECALL_DELAY", "trial_index": 73}, "uniqueid": "MTK1621:3M81GAB8A1QTOKTLOCQ8VI769WDBQA", "dateTime": 1516048424797}, {"current_trial": 74, "trialdata": {"rt": -1000, "trial_type": "single-audio", "stimulus": "/static/audio/400Hz.wav", "internal_node_id": "0.0-56.0", "time_elapsed": 314691, "key_press": -1, "type": "PRE_RECALL_ALERT", "trial_index": 74}, "uniqueid": "MTK1621:3M81GAB8A1QTOKTLOCQ8VI769WDBQA", "dateTime": 1516048425301}, {"current_trial": 75, "trialdata": {"rt": [3008, 4584, 7330, 9513, 12087, 13967, 21343, 24828, 51354], "recwords": ["hero", "carrot", "pasta", "cashew", "ox", "gallon", "truck", "snail", "chauffer"], "key_times": [2255, 2498, 2611, 2664, 3008, 3410, 3612, 3692, 3883, 3979, 4184, 4584, 6308, 6442, 6657, 6748, 6977, 7330, 8247, 8411, 8605, 8777, 8914, 9005, 9513, 11614, 11812, 12087, 12908, 13124, 13220, 13360, 13574, 13664, 13967, 19886, 19998, 20546, 20663, 20823, 21343, 22909, 23038, 23228, 23411, 23485, 24828, 49262, 49474, 49741, 49896, 50148, 50374, 50616, 50719, 51354], "trial_type": "free-recall", "conditions": [18, 1200, "a", 18000], "internal_node_id": "0.0-57.0-0.0", "key_presses": [72, 69, 82, 79, 13, 67, 65, 82, 82, 79, 84, 13, 80, 65, 83, 84, 65, 13, 67, 65, 83, 72, 69, 87, 13, 79, 88, 13, 71, 65, 76, 76, 79, 78, 13, 84, 82, 85, 67, 75, 13, 83, 78, 65, 73, 76, 13, 67, 72, 65, 85, 70, 70, 69, 82, 13], "trial": 1, "time_elapsed": 374694, "type": "FREE_RECALL", "trial_index": 75}, "uniqueid": "MTK1621:3M81GAB8A1QTOKTLOCQ8VI769WDBQA", "dateTime": 1516048485304}, {"current_trial": 76, "trialdata": {"rt": 2432, "trial_type": "text", "internal_node_id": "0.0-58.0", "time_elapsed": 379129, "key_press": 32, "type": "INSTRUCTIONS", "trial_index": 76}, "uniqueid": "MTK1621:3M81GAB8A1QTOKTLOCQ8VI769WDBQA", "dateTime": 1516048489739}, {"current_trial": 77, "trialdata": {"rt": [5380, 7313, 8805, 11371, 13492, 15172, 17315, 19126, 20840, 23614], "trial_type": "math-distractor", "key_times": [5062, 5169, 5380, 6551, 6741, 7313, 8511, 8623, 8805, 10903, 11074, 11371, 13020, 13213, 13492, 14863, 14996, 15172, 17032, 17154, 17315, 18581, 18966, 19126, 20296, 20603, 20840, 23170, 23338, 23614], "responses": ["23", "19", "12", "18", "18", "14", "21", "14", "19", "18"], "num2": [7, 4, 3, 9, 6, 1, 9, 6, 4, 3, 9], "num3": [7, 9, 2, 3, 4, 5, 5, 7, 6, 6, 7], "conditions": [12, 1600, "a", 24000], "internal_node_id": "0.0-59.0", "key_presses": [50, 51, 13, 49, 57, 13, 49, 50, 13, 49, 56, 13, 49, 56, 13, 49, 52, 13, 50, 49, 13, 49, 52, 13, 49, 57, 13, 49, 56, 13], "trial": 2, "time_elapsed": 404133, "type": "DISTRACTOR", "trial_index": 77, "num1": [9, 6, 7, 6, 8, 8, 7, 1, 9, 9, 2]}, "uniqueid": "MTK1621:3M81GAB8A1QTOKTLOCQ8VI769WDBQA", "dateTime": 1516048514742}, {"current_trial": 78, "trialdata": {"rt": -1, "trial_type": "single-stim", "stimulus": "<p id=\"stim\">10</p>", "internal_node_id": "0.0-60.0-0.0", "time_elapsed": 407137, "key_press": -1, "trial_index": 78}, "uniqueid": "MTK1621:3M81GAB8A1QTOKTLOCQ8VI769WDBQA", "dateTime": 1516048517746}, {"current_trial": 79, "trialdata": {"rt": -1, "trial_type": "single-stim", "stimulus": "<p id=\"stim\">9</p>", "internal_node_id": "0.0-60.0-1.0", "time_elapsed": 408138, "key_press": -1, "trial_index": 79}, "uniqueid": "MTK1621:3M81GAB8A1QTOKTLOCQ8VI769WDBQA", "dateTime": 1516048518747}, {"current_trial": 80, "trialdata": {"rt": -1, "trial_type": "single-stim", "stimulus": "<p id=\"stim\">8</p>", "internal_node_id": "0.0-60.0-2.0", "time_elapsed": 409139, "key_press": -1, "trial_index": 80}, "uniqueid": "MTK1621:3M81GAB8A1QTOKTLOCQ8VI769WDBQA", "dateTime": 1516048519748}, {"current_trial": 81, "trialdata": {"rt": -1, "trial_type": "single-stim", "stimulus": "<p id=\"stim\">7</p>", "internal_node_id": "0.0-60.0-3.0", "time_elapsed": 410141, "key_press": -1, "trial_index": 81}, "uniqueid": "MTK1621:3M81GAB8A1QTOKTLOCQ8VI769WDBQA", "dateTime": 1516048520751}, {"current_trial": 82, "trialdata": {"rt": -1, "trial_type": "single-stim", "stimulus": "<p id=\"stim\">6</p>", "internal_node_id": "0.0-60.0-4.0", "time_elapsed": 411144, "key_press": -1, "trial_index": 82}, "uniqueid": "MTK1621:3M81GAB8A1QTOKTLOCQ8VI769WDBQA", "dateTime": 1516048521753}, {"current_trial": 83, "trialdata": {"rt": -1, "trial_type": "single-stim", "stimulus": "<p id=\"stim\">5</p>", "internal_node_id": "0.0-60.0-5.0", "time_elapsed": 412146, "key_press": -1, "trial_index": 83}, "uniqueid": "MTK1621:3M81GAB8A1QTOKTLOCQ8VI769WDBQA", "dateTime": 1516048522755}, {"current_trial": 84, "trialdata": {"rt": -1, "trial_type": "single-stim", "stimulus": "<p id=\"stim\">4</p>", "internal_node_id": "0.0-60.0-6.0", "time_elapsed": 413147, "key_press": -1, "trial_index": 84}, "uniqueid": "MTK1621:3M81GAB8A1QTOKTLOCQ8VI769WDBQA", "dateTime": 1516048523756}, {"current_trial": 85, "trialdata": {"rt": -1, "trial_type": "single-stim", "stimulus": "<p id=\"stim\">3</p>", "internal_node_id": "0.0-60.0-7.0", "time_elapsed": 414148, "key_press": -1, "trial_index": 85}, "uniqueid": "MTK1621:3M81GAB8A1QTOKTLOCQ8VI769WDBQA", "dateTime": 1516048524757}, {"current_trial": 86, "trialdata": {"rt": -1, "trial_type": "single-stim", "stimulus": "<p id=\"stim\">2</p>", "internal_node_id": "0.0-60.0-8.0", "time_elapsed": 415149, "key_press": -1, "trial_index": 86}, "uniqueid": "MTK1621:3M81GAB8A1QTOKTLOCQ8VI769WDBQA", "dateTime": 1516048525758}, {"current_trial": 87, "trialdata": {"rt": -1, "trial_type": "single-stim", "stimulus": "<p id=\"stim\">1</p>", "internal_node_id": "0.0-60.0-9.0", "time_elapsed": 416151, "key_press": -1, "trial_index": 87}, "uniqueid": "MTK1621:3M81GAB8A1QTOKTLOCQ8VI769WDBQA", "dateTime": 1516048526760}, {"current_trial": 88, "trialdata": {"rt": -1, "trial_type": "single-stim", "stimulus": "<p id=\"stim\">+</p>", "internal_node_id": "0.0-61.0-0.0", "time_elapsed": 417653, "key_press": -1, "type": "FIXATION", "trial_index": 88}, "uniqueid": "MTK1621:3M81GAB8A1QTOKTLOCQ8VI769WDBQA", "dateTime": 1516048528262}, {"current_trial": 89, "trialdata": {"rt": -1000, "trial_type": "single-audio", "word": "lightning", "stimulus": "/static/audio/wordpool/LIGHTNING.wav", "conditions": [12, 1600, "a", 24000], "internal_node_id": "0.0-62.0", "trial": 2, "time_elapsed": 420238, "serialpos": 0, "key_press": -1, "wordID": 819, "type": "PRES_AUD", "trial_index": 89}, "uniqueid": "MTK1621:3M81GAB8A1QTOKTLOCQ8VI769WDBQA", "dateTime": 1516048530847}, {"current_trial": 90, "trialdata": {"rt": -1000, "trial_type": "single-audio", "word": "crib", "stimulus": "/static/audio/wordpool/CRIB.wav", "conditions": [12, 1600, "a", 24000], "internal_node_id": "0.0-63.0", "trial": 2, "time_elapsed": 423028, "serialpos": 1, "key_press": -1, "wordID": 406, "type": "PRES_AUD", "trial_index": 90}, "uniqueid": "MTK1621:3M81GAB8A1QTOKTLOCQ8VI769WDBQA", "dateTime": 1516048533637}, {"current_trial": 91, "trialdata": {"rt": -1000, "trial_type": "single-audio", "word": "blouse", "stimulus": "/static/audio/wordpool/BLOUSE.wav", "conditions": [12, 1600, "a", 24000], "internal_node_id": "0.0-64.0", "trial": 2, "time_elapsed": 425521, "serialpos": 2, "key_press": -1, "wordID": 138, "type": "PRES_AUD", "trial_index": 91}, "uniqueid": "MTK1621:3M81GAB8A1QTOKTLOCQ8VI769WDBQA", "dateTime": 1516048536130}, {"current_trial": 92, "trialdata": {"rt": -1000, "trial_type": "single-audio", "word": "wardrobe", "stimulus": "/static/audio/wordpool/WARDROBE.wav", "conditions": [12, 1600, "a", 24000], "internal_node_id": "0.0-65.0", "trial": 2, "time_elapsed": 428092, "serialpos": 3, "key_press": -1, "wordID": 1586, "type": "PRES_AUD", "trial_index": 92}, "uniqueid": "MTK1621:3M81GAB8A1QTOKTLOCQ8VI769WDBQA", "dateTime": 1516048538701}, {"current_trial": 93, "trialdata": {"rt": -1000, "trial_type": "single-audio", "word": "snack", "stimulus": "/static/audio/wordpool/SNACK.wav", "conditions": [12, 1600, "a", 24000], "internal_node_id": "0.0-66.0", "trial": 2, "time_elapsed": 430717, "serialpos": 4, "key_press": -1, "wordID": 1330, "type": "PRES_AUD", "trial_index": 93}, "uniqueid": "MTK1621:3M81GAB8A1QTOKTLOCQ8VI769WDBQA", "dateTime": 1516048541326}, {"current_trial": 94, "trialdata": {"rt": -1000, "trial_type": "single-audio", "word": "victim", "stimulus": "/static/audio/wordpool/VICTIM.wav", "conditions": [12, 1600, "a", 24000], "internal_node_id": "0.0-67.0", "trial": 2, "time_elapsed": 433280, "serialpos": 5, "key_press": -1, "wordID": 1561, "type": "PRES_AUD", "trial_index": 94}, "uniqueid": "MTK1621:3M81GAB8A1QTOKTLOCQ8VI769WDBQA", "dateTime": 1516048543889}, {"current_trial": 95, "trialdata": {"rt": -1000, "trial_type": "single-audio", "word": "breast", "stimulus": "/static/audio/wordpool/BREAST.wav", "conditions": [12, 1600, "a", 24000], "internal_node_id": "0.0-68.0", "trial": 2, "time_elapsed": 435754, "serialpos": 6, "key_press": -1, "wordID": 170, "type": "PRES_AUD", "trial_index": 95}, "uniqueid": "MTK1621:3M81GAB8A1QTOKTLOCQ8VI769WDBQA", "dateTime": 1516048546363}, {"current_trial": 96, "trialdata": {"rt": -1000, "trial_type": "single-audio", "word": "passage", "stimulus": "/static/audio/wordpool/PASSAGE.wav", "conditions": [12, 1600, "a", 24000], "internal_node_id": "0.0-69.0", "trial": 2, "time_elapsed": 438253, "serialpos": 7, "key_press": -1, "wordID": 1018, "type": "PRES_AUD", "trial_index": 96}, "uniqueid": "MTK1621:3M81GAB8A1QTOKTLOCQ8VI769WDBQA", "dateTime": 1516048548862}, {"current_trial": 97, "trialdata": {"rt": -1000, "trial_type": "single-audio", "word": "doughnut", "stimulus": "/static/audio/wordpool/DOUGHNUT.wav", "conditions": [12, 1600, "a", 24000], "internal_node_id": "0.0-70.0", "trial": 2, "time_elapsed": 441047, "serialpos": 8, "key_press": -1, "wordID": 489, "type": "PRES_AUD", "trial_index": 97}, "uniqueid": "MTK1621:3M81GAB8A1QTOKTLOCQ8VI769WDBQA", "dateTime": 1516048551656}, {"current_trial": 98, "trialdata": {"rt": -1000, "trial_type": "single-audio", "word": "ozone", "stimulus": "/static/audio/wordpool/OZONE.wav", "conditions": [12, 1600, "a", 24000], "internal_node_id": "0.0-71.0", "trial": 2, "time_elapsed": 443608, "serialpos": 9, "key_press": -1, "wordID": 995, "type": "PRES_AUD", "trial_index": 98}, "uniqueid": "MTK1621:3M81GAB8A1QTOKTLOCQ8VI769WDBQA", "dateTime": 1516048554218}, {"current_trial": 99, "trialdata": {"rt": -1000, "trial_type": "single-audio", "word": "suspect", "stimulus": "/static/audio/wordpool/SUSPECT.wav", "conditions": [12, 1600, "a", 24000], "internal_node_id": "0.0-72.0", "trial": 2, "time_elapsed": 446063, "serialpos": 10, "key_press": -1, "wordID": 1414, "type": "PRES_AUD", "trial_index": 99}, "uniqueid": "MTK1621:3M81GAB8A1QTOKTLOCQ8VI769WDBQA", "dateTime": 1516048556672}, {"current_trial": 100, "trialdata": {"rt": -1000, "trial_type": "single-audio", "word": "swimmer", "stimulus": "/static/audio/wordpool/SWIMMER.wav", "conditions": [12, 1600, "a", 24000], "internal_node_id": "0.0-73.0", "trial": 2, "time_elapsed": 448554, "serialpos": 11, "key_press": -1, "wordID": 1419, "type": "PRES_AUD", "trial_index": 100}, "uniqueid": "MTK1621:3M81GAB8A1QTOKTLOCQ8VI769WDBQA", "dateTime": 1516048559164}, {"current_trial": 101, "trialdata": {"rt": -1, "trial_type": "single-stim", "stimulus": "", "internal_node_id": "0.0-74.0-0.0", "time_elapsed": 449804, "key_press": -1, "type": "PRE_RECALL_DELAY", "trial_index": 101}, "uniqueid": "MTK1621:3M81GAB8A1QTOKTLOCQ8VI769WDBQA", "dateTime": 1516048560414}, {"current_trial": 102, "trialdata": {"rt": -1000, "trial_type": "single-audio", "stimulus": "/static/audio/400Hz.wav", "internal_node_id": "0.0-75.0", "time_elapsed": 450305, "key_press": -1, "type": "PRE_RECALL_ALERT", "trial_index": 102}, "uniqueid": "MTK1621:3M81GAB8A1QTOKTLOCQ8VI769WDBQA", "dateTime": 1516048560914}, {"current_trial": 103, "trialdata": {"rt": [3287, 5080, 7796, 10248, 12433, 19799, 21966, 47602], "recwords": ["swimmer", "suspect", "victim", "breast", "lightning", "snack", "donut", "blouse"], "key_times": [1139, 1374, 1470, 1588, 1757, 1875, 1954, 3287, 3877, 4028, 4129, 4319, 4420, 4577, 4821, 5080, 5455, 5606, 5697, 5958, 6075, 6176, 7796, 8374, 8486, 8620, 8878, 9081, 9166, 10248, 10870, 11057, 11078, 11158, 11339, 11462, 11672, 11806, 11919, 12433, 17826, 18036, 18984, 19160, 19302, 19799, 20353, 20569, 20698, 21072, 21398, 21966, 45509, 45658, 46024, 46210, 46472, 46621, 47602], "trial_type": "free-recall", "conditions": [12, 1600, "a", 24000], "internal_node_id": "0.0-76.0-0.0", "key_presses": [83, 87, 73, 77, 77, 69, 82, 13, 83, 85, 83, 80, 69, 67, 84, 13, 86, 73, 67, 84, 73, 77, 13, 66, 82, 69, 65, 83, 84, 13, 76, 73, 71, 72, 84, 78, 73, 78, 71, 13, 83, 78, 65, 67, 75, 13, 68, 79, 78, 85, 84, 13, 66, 76, 79, 85, 83, 69, 13], "trial": 2, "time_elapsed": 510307, "type": "FREE_RECALL", "trial_index": 103}, "uniqueid": "MTK1621:3M81GAB8A1QTOKTLOCQ8VI769WDBQA", "dateTime": 1516048620917}, {"current_trial": 104, "trialdata": {"rt": 1395, "trial_type": "text", "internal_node_id": "0.0-77.0", "time_elapsed": 513704, "key_press": 32, "type": "INSTRUCTIONS", "trial_index": 104}, "uniqueid": "MTK1621:3M81GAB8A1QTOKTLOCQ8VI769WDBQA", "dateTime": 1516048624313}, {"current_trial": 105, "trialdata": {"rt": [1926, 3616, 5314, 7007, 9110, 11276], "trial_type": "math-distractor", "key_times": [1398, 1651, 1926, 3149, 3388, 3616, 4900, 5121, 5314, 6562, 6679, 7007, 8663, 8862, 9110, 11069, 11276], "responses": ["16", "18", "13", "12", "19", "9"], "num2": [7, 8, 3, 2, 9, 1, 5], "num3": [7, 1, 4, 9, 2, 5, 8], "conditions": [24, 1600, "a", 12000], "internal_node_id": "0.0-78.0", "key_presses": [49, 54, 13, 49, 56, 13, 49, 51, 13, 49, 50, 13, 49, 57, 13, 57, 13], "trial": 3, "time_elapsed": 527709, "type": "DISTRACTOR", "trial_index": 105, "num1": [2, 9, 6, 1, 8, 3, 8]}, "uniqueid": "MTK1621:3M81GAB8A1QTOKTLOCQ8VI769WDBQA", "dateTime": 1516048638318}, {"current_trial": 106, "trialdata": {"rt": -1, "trial_type": "single-stim", "stimulus": "<p id=\"stim\">10</p>", "internal_node_id": "0.0-79.0-0.0", "time_elapsed": 530711, "key_press": -1, "trial_index": 106}, "uniqueid": "MTK1621:3M81GAB8A1QTOKTLOCQ8VI769WDBQA", "dateTime": 1516048641320}, {"current_trial": 107, "trialdata": {"rt": -1, "trial_type": "single-stim", "stimulus": "<p id=\"stim\">9</p>", "internal_node_id": "0.0-79.0-1.0", "time_elapsed": 531713, "key_press": -1, "trial_index": 107}, "uniqueid": "MTK1621:3M81GAB8A1QTOKTLOCQ8VI769WDBQA", "dateTime": 1516048642322}, {"current_trial": 108, "trialdata": {"rt": -1, "trial_type": "single-stim", "stimulus": "<p id=\"stim\">8</p>", "internal_node_id": "0.0-79.0-2.0", "time_elapsed": 532715, "key_press": -1, "trial_index": 108}, "uniqueid": "MTK1621:3M81GAB8A1QTOKTLOCQ8VI769WDBQA", "dateTime": 1516048643324}, {"current_trial": 109, "trialdata": {"rt": -1, "trial_type": "single-stim", "stimulus": "<p id=\"stim\">7</p>", "internal_node_id": "0.0-79.0-3.0", "time_elapsed": 533717, "key_press": -1, "trial_index": 109}, "uniqueid": "MTK1621:3M81GAB8A1QTOKTLOCQ8VI769WDBQA", "dateTime": 1516048644326}, {"current_trial": 110, "trialdata": {"rt": -1, "trial_type": "single-stim", "stimulus": "<p id=\"stim\">6</p>", "internal_node_id": "0.0-79.0-4.0", "time_elapsed": 534718, "key_press": -1, "trial_index": 110}, "uniqueid": "MTK1621:3M81GAB8A1QTOKTLOCQ8VI769WDBQA", "dateTime": 1516048645327}, {"current_trial": 111, "trialdata": {"rt": -1, "trial_type": "single-stim", "stimulus": "<p id=\"stim\">5</p>", "internal_node_id": "0.0-79.0-5.0", "time_elapsed": 535721, "key_press": -1, "trial_index": 111}, "uniqueid": "MTK1621:3M81GAB8A1QTOKTLOCQ8VI769WDBQA", "dateTime": 1516048646330}, {"current_trial": 112, "trialdata": {"rt": -1, "trial_type": "single-stim", "stimulus": "<p id=\"stim\">4</p>", "internal_node_id": "0.0-79.0-6.0", "time_elapsed": 536721, "key_press": -1, "trial_index": 112}, "uniqueid": "MTK1621:3M81GAB8A1QTOKTLOCQ8VI769WDBQA", "dateTime": 1516048647330}, {"current_trial": 113, "trialdata": {"rt": -1, "trial_type": "single-stim", "stimulus": "<p id=\"stim\">3</p>", "internal_node_id": "0.0-79.0-7.0", "time_elapsed": 537724, "key_press": -1, "trial_index": 113}, "uniqueid": "MTK1621:3M81GAB8A1QTOKTLOCQ8VI769WDBQA", "dateTime": 1516048648333}, {"current_trial": 114, "trialdata": {"rt": -1, "trial_type": "single-stim", "stimulus": "<p id=\"stim\">2</p>", "internal_node_id": "0.0-79.0-8.0", "time_elapsed": 538726, "key_press": -1, "trial_index": 114}, "uniqueid": "MTK1621:3M81GAB8A1QTOKTLOCQ8VI769WDBQA", "dateTime": 1516048649335}, {"current_trial": 115, "trialdata": {"rt": -1, "trial_type": "single-stim", "stimulus": "<p id=\"stim\">1</p>", "internal_node_id": "0.0-79.0-9.0", "time_elapsed": 539728, "key_press": -1, "trial_index": 115}, "uniqueid": "MTK1621:3M81GAB8A1QTOKTLOCQ8VI769WDBQA", "dateTime": 1516048650337}, {"current_trial": 116, "trialdata": {"rt": -1, "trial_type": "single-stim", "stimulus": "<p id=\"stim\">+</p>", "internal_node_id": "0.0-80.0-0.0", "time_elapsed": 541229, "key_press": -1, "type": "FIXATION", "trial_index": 116}, "uniqueid": "MTK1621:3M81GAB8A1QTOKTLOCQ8VI769WDBQA", "dateTime": 1516048651838}, {"current_trial": 117, "trialdata": {"rt": -1000, "trial_type": "single-audio", "word": "picnic", "stimulus": "/static/audio/wordpool/PICNIC.wav", "conditions": [24, 1600, "a", 12000], "internal_node_id": "0.0-81.0", "trial": 3, "time_elapsed": 544034, "serialpos": 0, "key_press": -1, "wordID": 1059, "type": "PRES_AUD", "trial_index": 117}, "uniqueid": "MTK1621:3M81GAB8A1QTOKTLOCQ8VI769WDBQA", "dateTime": 1516048654643}, {"current_trial": 118, "trialdata": {"rt": -1000, "trial_type": "single-audio", "word": "clam", "stimulus": "/static/audio/wordpool/CLAM.wav", "conditions": [24, 1600, "a", 12000], "internal_node_id": "0.0-82.0", "trial": 3, "time_elapsed": 546494, "serialpos": 1, "key_press": -1, "wordID": 314, "type": "PRES_AUD", "trial_index": 118}, "uniqueid": "MTK1621:3M81GAB8A1QTOKTLOCQ8VI769WDBQA", "dateTime": 1516048657103}, {"current_trial": 119, "trialdata": {"rt": -1000, "trial_type": "single-audio", "word": "bunny", "stimulus": "/static/audio/wordpool/BUNNY.wav", "conditions": [24, 1600, "a", 12000], "internal_node_id": "0.0-83.0", "trial": 3, "time_elapsed": 548942, "serialpos": 2, "key_press": -1, "wordID": 197, "type": "PRES_AUD", "trial_index": 119}, "uniqueid": "MTK1621:3M81GAB8A1QTOKTLOCQ8VI769WDBQA", "dateTime": 1516048659551}, {"current_trial": 120, "trialdata": {"rt": -1000, "trial_type": "single-audio", "word": "crab", "stimulus": "/static/audio/wordpool/CRAB.wav", "conditions": [24, 1600, "a", 12000], "internal_node_id": "0.0-84.0", "trial": 3, "time_elapsed": 551517, "serialpos": 3, "key_press": -1, "wordID": 396, "type": "PRES_AUD", "trial_index": 120}, "uniqueid": "MTK1621:3M81GAB8A1QTOKTLOCQ8VI769WDBQA", "dateTime": 1516048662126}, {"current_trial": 121, "trialdata": {"rt": -1000, "trial_type": "single-audio", "word": "lagoon", "stimulus": "/static/audio/wordpool/LAGOON.wav", "conditions": [24, 1600, "a", 12000], "internal_node_id": "0.0-85.0", "trial": 3, "time_elapsed": 553949, "serialpos": 4, "key_press": -1, "wordID": 794, "type": "PRES_AUD", "trial_index": 121}, "uniqueid": "MTK1621:3M81GAB8A1QTOKTLOCQ8VI769WDBQA", "dateTime": 1516048664558}, {"current_trial": 122, "trialdata": {"rt": -1000, "trial_type": "single-audio", "word": "dress", "stimulus": "/static/audio/wordpool/DRESS.wav", "conditions": [24, 1600, "a", 12000], "internal_node_id": "0.0-86.0", "trial": 3, "time_elapsed": 556535, "serialpos": 5, "key_press": -1, "wordID": 494, "type": "PRES_AUD", "trial_index": 122}, "uniqueid": "MTK1621:3M81GAB8A1QTOKTLOCQ8VI769WDBQA", "dateTime": 1516048667144}, {"current_trial": 123, "trialdata": {"rt": -1000, "trial_type": "single-audio", "word": "tutu", "stimulus": "/static/audio/wordpool/TUTU.wav", "conditions": [24, 1600, "a", 12000], "internal_node_id": "0.0-87.0", "trial": 3, "time_elapsed": 559281, "serialpos": 6, "key_press": -1, "wordID": 1523, "type": "PRES_AUD", "trial_index": 123}, "uniqueid": "MTK1621:3M81GAB8A1QTOKTLOCQ8VI769WDBQA", "dateTime": 1516048669890}, {"current_trial": 124, "trialdata": {"rt": -1000, "trial_type": "single-audio", "word": "cafe", "stimulus": "/static/audio/wordpool/CAFE.wav", "conditions": [24, 1600, "a", 12000], "internal_node_id": "0.0-88.0", "trial": 3, "time_elapsed": 561917, "serialpos": 7, "key_press": -1, "wordID": 215, "type": "PRES_AUD", "trial_index": 124}, "uniqueid": "MTK1621:3M81GAB8A1QTOKTLOCQ8VI769WDBQA", "dateTime": 1516048672526}, {"current_trial": 125, "trialdata": {"rt": -1000, "trial_type": "single-audio", "word": "scallop", "stimulus": "/static/audio/wordpool/SCALLOP.wav", "conditions": [24, 1600, "a", 12000], "internal_node_id": "0.0-89.0", "trial": 3, "time_elapsed": 564358, "serialpos": 8, "key_press": -1, "wordID": 1241, "type": "PRES_AUD", "trial_index": 125}, "uniqueid": "MTK1621:3M81GAB8A1QTOKTLOCQ8VI769WDBQA", "dateTime": 1516048674967}, {"current_trial": 126, "trialdata": {"rt": -1000, "trial_type": "single-audio", "word": "cocktail", "stimulus": "/static/audio/wordpool/COCKTAIL.wav", "conditions": [24, 1600, "a", 12000], "internal_node_id": "0.0-90.0", "trial": 3, "time_elapsed": 567142, "serialpos": 9, "key_press": -1, "wordID": 337, "type": "PRES_AUD", "trial_index": 126}, "uniqueid": "MTK1621:3M81GAB8A1QTOKTLOCQ8VI769WDBQA", "dateTime": 1516048677752}, {"current_trial": 127, "trialdata": {"rt": -1000, "trial_type": "single-audio", "word": "shelf", "stimulus": "/static/audio/wordpool/SHELF.wav", "conditions": [24, 1600, "a", 12000], "internal_node_id": "0.0-91.0", "trial": 3, "time_elapsed": 569688, "serialpos": 10, "key_press": -1, "wordID": 1279, "type": "PRES_AUD", "trial_index": 127}, "uniqueid": "MTK1621:3M81GAB8A1QTOKTLOCQ8VI769WDBQA", "dateTime": 1516048680297}, {"current_trial": 128, "trialdata": {"rt": -1000, "trial_type": "single-audio", "word": "lady", "stimulus": "/static/audio/wordpool/LADY.wav", "conditions": [24, 1600, "a", 12000], "internal_node_id": "0.0-92.0", "trial": 3, "time_elapsed": 572107, "serialpos": 11, "key_press": -1, "wordID": 793, "type": "PRES_AUD", "trial_index": 128}, "uniqueid": "MTK1621:3M81GAB8A1QTOKTLOCQ8VI769WDBQA", "dateTime": 1516048682716}, {"current_trial": 129, "trialdata": {"rt": -1000, "trial_type": "single-audio", "word": "dashboard", "stimulus": "/static/audio/wordpool/DASHBOARD.wav", "conditions": [24, 1600, "a", 12000], "internal_node_id": "0.0-93.0", "trial": 3, "time_elapsed": 574914, "serialpos": 12, "key_press": -1, "wordID": 440, "type": "PRES_AUD", "trial_index": 129}, "uniqueid": "MTK1621:3M81GAB8A1QTOKTLOCQ8VI769WDBQA", "dateTime": 1516048685523}, {"current_trial": 130, "trialdata": {"rt": -1000, "trial_type": "single-audio", "word": "teacher", "stimulus": "/static/audio/wordpool/TEACHER.wav", "conditions": [24, 1600, "a", 12000], "internal_node_id": "0.0-94.0", "trial": 3, "time_elapsed": 577488, "serialpos": 13, "key_press": -1, "wordID": 1439, "type": "PRES_AUD", "trial_index": 130}, "uniqueid": "MTK1621:3M81GAB8A1QTOKTLOCQ8VI769WDBQA", "dateTime": 1516048688097}, {"current_trial": 131, "trialdata": {"rt": -1000, "trial_type": "single-audio", "word": "trombone", "stimulus": "/static/audio/wordpool/TROMBONE.wav", "conditions": [24, 1600, "a", 12000], "internal_node_id": "0.0-95.0", "trial": 3, "time_elapsed": 580031, "serialpos": 14, "key_press": -1, "wordID": 1507, "type": "PRES_AUD", "trial_index": 131}, "uniqueid": "MTK1621:3M81GAB8A1QTOKTLOCQ8VI769WDBQA", "dateTime": 1516048690640}, {"current_trial": 132, "trialdata": {"rt": -1000, "trial_type": "single-audio", "word": "climber", "stimulus": "/static/audio/wordpool/CLIMBER.wav", "conditions": [24, 1600, "a", 12000], "internal_node_id": "0.0-96.0", "trial": 3, "time_elapsed": 582459, "serialpos": 15, "key_press": -1, "wordID": 322, "type": "PRES_AUD", "trial_index": 132}, "uniqueid": "MTK1621:3M81GAB8A1QTOKTLOCQ8VI769WDBQA", "dateTime": 1516048693068}, {"current_trial": 133, "trialdata": {"rt": -1000, "trial_type": "single-audio", "word": "hiker", "stimulus": "/static/audio/wordpool/HIKER.wav", "conditions": [24, 1600, "a", 12000], "internal_node_id": "0.0-97.0", "trial": 3, "time_elapsed": 584889, "serialpos": 16, "key_press": -1, "wordID": 707, "type": "PRES_AUD", "trial_index": 133}, "uniqueid": "MTK1621:3M81GAB8A1QTOKTLOCQ8VI769WDBQA", "dateTime": 1516048695499}, {"current_trial": 134, "trialdata": {"rt": -1000, "trial_type": "single-audio", "word": "cousin", "stimulus": "/static/audio/wordpool/COUSIN.wav", "conditions": [24, 1600, "a", 12000], "internal_node_id": "0.0-98.0", "trial": 3, "time_elapsed": 587367, "serialpos": 17, "key_press": -1, "wordID": 391, "type": "PRES_AUD", "trial_index": 134}, "uniqueid": "MTK1621:3M81GAB8A1QTOKTLOCQ8VI769WDBQA", "dateTime": 1516048697976}, {"current_trial": 135, "trialdata": {"rt": -1000, "trial_type": "single-audio", "word": "cellar", "stimulus": "/static/audio/wordpool/CELLAR.wav", "conditions": [24, 1600, "a", 12000], "internal_node_id": "0.0-99.0", "trial": 3, "time_elapsed": 589887, "serialpos": 18, "key_press": -1, "wordID": 266, "type": "PRES_AUD", "trial_index": 135}, "uniqueid": "MTK1621:3M81GAB8A1QTOKTLOCQ8VI769WDBQA", "dateTime": 1516048700496}, {"current_trial": 136, "trialdata": {"rt": -1000, "trial_type": "single-audio", "word": "custard", "stimulus": "/static/audio/wordpool/CUSTARD.wav", "conditions": [24, 1600, "a", 12000], "internal_node_id": "0.0-100.0", "trial": 3, "time_elapsed": 592606, "serialpos": 19, "key_press": -1, "wordID": 428, "type": "PRES_AUD", "trial_index": 136}, "uniqueid": "MTK1621:3M81GAB8A1QTOKTLOCQ8VI769WDBQA", "dateTime": 1516048703215}, {"current_trial": 137, "trialdata": {"rt": -1000, "trial_type": "single-audio", "word": "fiddle", "stimulus": "/static/audio/wordpool/FIDDLE.wav", "conditions": [24, 1600, "a", 12000], "internal_node_id": "0.0-101.0", "trial": 3, "time_elapsed": 595337, "serialpos": 20, "key_press": -1, "wordID": 560, "type": "PRES_AUD", "trial_index": 137}, "uniqueid": "MTK1621:3M81GAB8A1QTOKTLOCQ8VI769WDBQA", "dateTime": 1516048705946}, {"current_trial": 138, "trialdata": {"rt": -1000, "trial_type": "single-audio", "word": "basement", "stimulus": "/static/audio/wordpool/BASEMENT.wav", "conditions": [24, 1600, "a", 12000], "internal_node_id": "0.0-102.0", "trial": 3, "time_elapsed": 597884, "serialpos": 21, "key_press": -1, "wordID": 93, "type": "PRES_AUD", "trial_index": 138}, "uniqueid": "MTK1621:3M81GAB8A1QTOKTLOCQ8VI769WDBQA", "dateTime": 1516048708493}, {"current_trial": 139, "trialdata": {"rt": -1000, "trial_type": "single-audio", "word": "film", "stimulus": "/static/audio/wordpool/FILM.wav", "conditions": [24, 1600, "a", 12000], "internal_node_id": "0.0-103.0", "trial": 3, "time_elapsed": 600574, "serialpos": 22, "key_press": -1, "wordID": 564, "type": "PRES_AUD", "trial_index": 139}, "uniqueid": "MTK1621:3M81GAB8A1QTOKTLOCQ8VI769WDBQA", "dateTime": 1516048711183}, {"current_trial": 140, "trialdata": {"rt": -1000, "trial_type": "single-audio", "word": "shorts", "stimulus": "/static/audio/wordpool/SHORTS.wav", "conditions": [24, 1600, "a", 12000], "internal_node_id": "0.0-104.0", "trial": 3, "time_elapsed": 603339, "serialpos": 23, "key_press": -1, "wordID": 1292, "type": "PRES_AUD", "trial_index": 140}, "uniqueid": "MTK1621:3M81GAB8A1QTOKTLOCQ8VI769WDBQA", "dateTime": 1516048713948}, {"current_trial": 141, "trialdata": {"rt": -1, "trial_type": "single-stim", "stimulus": "", "internal_node_id": "0.0-105.0-0.0", "time_elapsed": 604647, "key_press": -1, "type": "PRE_RECALL_DELAY", "trial_index": 141}, "uniqueid": "MTK1621:3M81GAB8A1QTOKTLOCQ8VI769WDBQA", "dateTime": 1516048715256}, {"current_trial": 142, "trialdata": {"rt": -1000, "trial_type": "single-audio", "stimulus": "/static/audio/400Hz.wav", "internal_node_id": "0.0-106.0", "time_elapsed": 605149, "key_press": -1, "type": "PRE_RECALL_ALERT", "trial_index": 142}, "uniqueid": "MTK1621:3M81GAB8A1QTOKTLOCQ8VI769WDBQA", "dateTime": 1516048715758}, {"current_trial": 143, "trialdata": {"rt": [4857, 6002, 7374, 10625, 11832, 13203, 17986, 20731, 24205, 27060, 28866, 41717], "recwords": ["shorts", "film", "basement", "hiker", "climber", "cousin", "bunny", "clam", "shrimp", "cocktail", "lagoon", "tutu"], "key_times": [4055, 4178, 4345, 4430, 4510, 4690, 4857, 5163, 5269, 5370, 5628, 6002, 6261, 6405, 6589, 6675, 6824, 6936, 7043, 7189, 7374, 9616, 9723, 9916, 10065, 10172, 10625, 10841, 10953, 11184, 11296, 11419, 11620, 11674, 11832, 12088, 12215, 12317, 12502, 12647, 12748, 13203, 16248, 16401, 16475, 16680, 16781, 17986, 18789, 18946, 19127, 19370, 20731, 22021, 22149, 22350, 22488, 22690, 22951, 23069, 23657, 24205, 24668, 24774, 24978, 25047, 25237, 25415, 25522, 25644, 27060, 27770, 27866, 28075, 28187, 28356, 28555, 28866, 39799, 39953, 40191, 40422, 41717], "trial_type": "free-recall", "conditions": [24, 1600, "a", 12000], "internal_node_id": "0.0-107.0-0.0", "key_presses": [83, 72, 79, 82, 84, 83, 13, 70, 73, 76, 77, 13, 66, 65, 83, 69, 77, 69, 78, 84, 13, 72, 73, 75, 69, 82, 13, 67, 76, 73, 77, 66, 69, 82, 13, 67, 79, 85, 83, 73, 78, 13, 66, 85, 78, 78, 89, 13, 67, 76, 65, 77, 13, 83, 72, 82, 73, 77, 80, 80, 8, 13, 67, 79, 67, 75, 84, 65, 73, 76, 13, 76, 65, 71, 79, 79, 78, 13, 84, 85, 84, 85, 13], "trial": 3, "time_elapsed": 665150, "type": "FREE_RECALL", "trial_index": 143}, "uniqueid": "MTK1621:3M81GAB8A1QTOKTLOCQ8VI769WDBQA", "dateTime": 1516048775761}, {"current_trial": 144, "trialdata": {"rt": 880, "trial_type": "text", "internal_node_id": "0.0-108.0", "time_elapsed": 668032, "key_press": 32, "type": "INSTRUCTIONS", "trial_index": 144}, "uniqueid": "MTK1621:3M81GAB8A1QTOKTLOCQ8VI769WDBQA", "dateTime": 1516048778641}, {"current_trial": 145, "trialdata": {"rt": [3523, 5315, 6718, 9730, 11976, 15022, 16405, 18129, 20027, 21639], "trial_type": "math-distractor", "key_times": [2668, 3039, 3523, 4531, 4633, 5315, 6366, 6558, 6718, 9287, 9470, 9730, 11654, 11864, 11976, 14702, 14841, 15022, 16077, 16232, 16405, 17824, 17952, 18129, 19656, 19763, 20027, 21342, 21553, 21639], "responses": ["10", "13", "11", "18", "14", "14", "19", "15", "20", "15"], "num2": [6, 1, 4, 3, 5, 3, 5, 4, 5, 3, 8], "num3": [3, 9, 6, 9, 7, 9, 9, 5, 6, 7, 9], "conditions": [24, 1600, "a", 24000], "internal_node_id": "0.0-109.0", "key_presses": [49, 48, 13, 49, 51, 13, 49, 49, 13, 49, 56, 13, 49, 52, 13, 49, 52, 13, 49, 57, 13, 49, 53, 13, 50, 48, 13, 49, 53, 13], "trial": 4, "time_elapsed": 694035, "type": "DISTRACTOR", "trial_index": 145, "num1": [1, 3, 1, 6, 2, 2, 5, 6, 9, 5, 5]}, "uniqueid": "MTK1621:3M81GAB8A1QTOKTLOCQ8VI769WDBQA", "dateTime": 1516048804644}, {"current_trial": 146, "trialdata": {"rt": -1, "trial_type": "single-stim", "stimulus": "<p id=\"stim\">10</p>", "internal_node_id": "0.0-110.0-0.0", "time_elapsed": 697038, "key_press": -1, "trial_index": 146}, "uniqueid": "MTK1621:3M81GAB8A1QTOKTLOCQ8VI769WDBQA", "dateTime": 1516048807647}, {"current_trial": 147, "trialdata": {"rt": -1, "trial_type": "single-stim", "stimulus": "<p id=\"stim\">9</p>", "internal_node_id": "0.0-110.0-1.0", "time_elapsed": 698040, "key_press": -1, "trial_index": 147}, "uniqueid": "MTK1621:3M81GAB8A1QTOKTLOCQ8VI769WDBQA", "dateTime": 1516048808649}, {"current_trial": 148, "trialdata": {"rt": -1, "trial_type": "single-stim", "stimulus": "<p id=\"stim\">8</p>", "internal_node_id": "0.0-110.0-2.0", "time_elapsed": 699043, "key_press": -1, "trial_index": 148}, "uniqueid": "MTK1621:3M81GAB8A1QTOKTLOCQ8VI769WDBQA", "dateTime": 1516048809652}, {"current_trial": 149, "trialdata": {"rt": -1, "trial_type": "single-stim", "stimulus": "<p id=\"stim\">7</p>", "internal_node_id": "0.0-110.0-3.0", "time_elapsed": 700044, "key_press": -1, "trial_index": 149}, "uniqueid": "MTK1621:3M81GAB8A1QTOKTLOCQ8VI769WDBQA", "dateTime": 1516048810653}, {"current_trial": 150, "trialdata": {"rt": -1, "trial_type": "single-stim", "stimulus": "<p id=\"stim\">6</p>", "internal_node_id": "0.0-110.0-4.0", "time_elapsed": 701045, "key_press": -1, "trial_index": 150}, "uniqueid": "MTK1621:3M81GAB8A1QTOKTLOCQ8VI769WDBQA", "dateTime": 1516048811654}, {"current_trial": 151, "trialdata": {"rt": -1, "trial_type": "single-stim", "stimulus": "<p id=\"stim\">5</p>", "internal_node_id": "0.0-110.0-5.0", "time_elapsed": 702047, "key_press": -1, "trial_index": 151}, "uniqueid": "MTK1621:3M81GAB8A1QTOKTLOCQ8VI769WDBQA", "dateTime": 1516048812656}, {"current_trial": 152, "trialdata": {"rt": -1, "trial_type": "single-stim", "stimulus": "<p id=\"stim\">4</p>", "internal_node_id": "0.0-110.0-6.0", "time_elapsed": 703049, "key_press": -1, "trial_index": 152}, "uniqueid": "MTK1621:3M81GAB8A1QTOKTLOCQ8VI769WDBQA", "dateTime": 1516048813658}, {"current_trial": 153, "trialdata": {"rt": -1, "trial_type": "single-stim", "stimulus": "<p id=\"stim\">3</p>", "internal_node_id": "0.0-110.0-7.0", "time_elapsed": 704050, "key_press": -1, "trial_index": 153}, "uniqueid": "MTK1621:3M81GAB8A1QTOKTLOCQ8VI769WDBQA", "dateTime": 1516048814659}, {"current_trial": 154, "trialdata": {"rt": -1, "trial_type": "single-stim", "stimulus": "<p id=\"stim\">2</p>", "internal_node_id": "0.0-110.0-8.0", "time_elapsed": 705051, "key_press": -1, "trial_index": 154}, "uniqueid": "MTK1621:3M81GAB8A1QTOKTLOCQ8VI769WDBQA", "dateTime": 1516048815660}, {"current_trial": 155, "trialdata": {"rt": -1, "trial_type": "single-stim", "stimulus": "<p id=\"stim\">1</p>", "internal_node_id": "0.0-110.0-9.0", "time_elapsed": 706053, "key_press": -1, "trial_index": 155}, "uniqueid": "MTK1621:3M81GAB8A1QTOKTLOCQ8VI769WDBQA", "dateTime": 1516048816662}, {"current_trial": 156, "trialdata": {"rt": -1, "trial_type": "single-stim", "stimulus": "<p id=\"stim\">+</p>", "internal_node_id": "0.0-111.0-0.0", "time_elapsed": 707554, "key_press": -1, "type": "FIXATION", "trial_index": 156}, "uniqueid": "MTK1621:3M81GAB8A1QTOKTLOCQ8VI769WDBQA", "dateTime": 1516048818163}, {"current_trial": 157, "trialdata": {"rt": -1000, "trial_type": "single-audio", "word": "plaza", "stimulus": "/static/audio/wordpool/PLAZA.wav", "conditions": [24, 1600, "a", 24000], "internal_node_id": "0.0-112.0", "trial": 4, "time_elapsed": 710003, "serialpos": 0, "key_press": -1, "wordID": 1087, "type": "PRES_AUD", "trial_index": 157}, "uniqueid": "MTK1621:3M81GAB8A1QTOKTLOCQ8VI769WDBQA", "dateTime": 1516048820612}, {"current_trial": 158, "trialdata": {"rt": -1000, "trial_type": "single-audio", "word": "paddle", "stimulus": "/static/audio/wordpool/PADDLE.wav", "conditions": [24, 1600, "a", 24000], "internal_node_id": "0.0-113.0", "trial": 4, "time_elapsed": 712471, "serialpos": 1, "key_press": -1, "wordID": 999, "type": "PRES_AUD", "trial_index": 158}, "uniqueid": "MTK1621:3M81GAB8A1QTOKTLOCQ8VI769WDBQA", "dateTime": 1516048823080}, {"current_trial": 159, "trialdata": {"rt": -1000, "trial_type": "single-audio", "word": "supper", "stimulus": "/static/audio/wordpool/SUPPER.wav", "conditions": [24, 1600, "a", 24000], "internal_node_id": "0.0-114.0", "trial": 4, "time_elapsed": 715165, "serialpos": 2, "key_press": -1, "wordID": 1410, "type": "PRES_AUD", "trial_index": 159}, "uniqueid": "MTK1621:3M81GAB8A1QTOKTLOCQ8VI769WDBQA", "dateTime": 1516048825774}, {"current_trial": 160, "trialdata": {"rt": -1000, "trial_type": "single-audio", "word": "lunch", "stimulus": "/static/audio/wordpool/LUNCH.wav", "conditions": [24, 1600, "a", 24000], "internal_node_id": "0.0-115.0", "trial": 4, "time_elapsed": 717946, "serialpos": 3, "key_press": -1, "wordID": 848, "type": "PRES_AUD", "trial_index": 160}, "uniqueid": "MTK1621:3M81GAB8A1QTOKTLOCQ8VI769WDBQA", "dateTime": 1516048828555}, {"current_trial": 161, "trialdata": {"rt": -1000, "trial_type": "single-audio", "word": "blender", "stimulus": "/static/audio/wordpool/BLENDER.wav", "conditions": [24, 1600, "a", 24000], "internal_node_id": "0.0-116.0", "trial": 4, "time_elapsed": 720661, "serialpos": 4, "key_press": -1, "wordID": 135, "type": "PRES_AUD", "trial_index": 161}, "uniqueid": "MTK1621:3M81GAB8A1QTOKTLOCQ8VI769WDBQA", "dateTime": 1516048831270}, {"current_trial": 162, "trialdata": {"rt": -1000, "trial_type": "single-audio", "word": "actress", "stimulus": "/static/audio/wordpool/ACTRESS.wav", "conditions": [24, 1600, "a", 24000], "internal_node_id": "0.0-117.0", "trial": 4, "time_elapsed": 723181, "serialpos": 5, "key_press": -1, "wordID": 5, "type": "PRES_AUD", "trial_index": 162}, "uniqueid": "MTK1621:3M81GAB8A1QTOKTLOCQ8VI769WDBQA", "dateTime": 1516048833790}, {"current_trial": 163, "trialdata": {"rt": -1000, "trial_type": "single-audio", "word": "woman", "stimulus": "/static/audio/wordpool/WOMAN.wav", "conditions": [24, 1600, "a", 24000], "internal_node_id": "0.0-118.0", "trial": 4, "time_elapsed": 725751, "serialpos": 6, "key_press": -1, "wordID": 1619, "type": "PRES_AUD", "trial_index": 163}, "uniqueid": "MTK1621:3M81GAB8A1QTOKTLOCQ8VI769WDBQA", "dateTime": 1516048836360}, {"current_trial": 164, "trialdata": {"rt": -1000, "trial_type": "single-audio", "word": "maple", "stimulus": "/static/audio/wordpool/MAPLE.wav", "conditions": [24, 1600, "a", 24000], "internal_node_id": "0.0-119.0", "trial": 4, "time_elapsed": 728389, "serialpos": 7, "key_press": -1, "wordID": 865, "type": "PRES_AUD", "trial_index": 164}, "uniqueid": "MTK1621:3M81GAB8A1QTOKTLOCQ8VI769WDBQA", "dateTime": 1516048838998}, {"current_trial": 165, "trialdata": {"rt": -1000, "trial_type": "single-audio", "word": "baby", "stimulus": "/static/audio/wordpool/BABY.wav", "conditions": [24, 1600, "a", 24000], "internal_node_id": "0.0-120.0", "trial": 4, "time_elapsed": 730914, "serialpos": 8, "key_press": -1, "wordID": 63, "type": "PRES_AUD", "trial_index": 165}, "uniqueid": "MTK1621:3M81GAB8A1QTOKTLOCQ8VI769WDBQA", "dateTime": 1516048841523}, {"current_trial": 166, "trialdata": {"rt": -1000, "trial_type": "single-audio", "word": "skillet", "stimulus": "/static/audio/wordpool/SKILLET.wav", "conditions": [24, 1600, "a", 24000], "internal_node_id": "0.0-121.0", "trial": 4, "time_elapsed": 733493, "serialpos": 9, "key_press": -1, "wordID": 1316, "type": "PRES_AUD", "trial_index": 166}, "uniqueid": "MTK1621:3M81GAB8A1QTOKTLOCQ8VI769WDBQA", "dateTime": 1516048844102}, {"current_trial": 167, "trialdata": {"rt": -1000, "trial_type": "single-audio", "word": "tortoise", "stimulus": "/static/audio/wordpool/TORTOISE.wav", "conditions": [24, 1600, "a", 24000], "internal_node_id": "0.0-122.0", "trial": 4, "time_elapsed": 735952, "serialpos": 10, "key_press": -1, "wordID": 1485, "type": "PRES_AUD", "trial_index": 167}, "uniqueid": "MTK1621:3M81GAB8A1QTOKTLOCQ8VI769WDBQA", "dateTime": 1516048846561}, {"current_trial": 168, "trialdata": {"rt": -1000, "trial_type": "single-audio", "word": "leg", "stimulus": "/static/audio/wordpool/LEG.wav", "conditions": [24, 1600, "a", 24000], "internal_node_id": "0.0-123.0", "trial": 4, "time_elapsed": 738364, "serialpos": 11, "key_press": -1, "wordID": 808, "type": "PRES_AUD", "trial_index": 168}, "uniqueid": "MTK1621:3M81GAB8A1QTOKTLOCQ8VI769WDBQA", "dateTime": 1516048848973}, {"current_trial": 169, "trialdata": {"rt": -1000, "trial_type": "single-audio", "word": "knife", "stimulus": "/static/audio/wordpool/KNIFE.wav", "conditions": [24, 1600, "a", 24000], "internal_node_id": "0.0-124.0", "trial": 4, "time_elapsed": 740817, "serialpos": 12, "key_press": -1, "wordID": 784, "type": "PRES_AUD", "trial_index": 169}, "uniqueid": "MTK1621:3M81GAB8A1QTOKTLOCQ8VI769WDBQA", "dateTime": 1516048851426}, {"current_trial": 170, "trialdata": {"rt": -1000, "trial_type": "single-audio", "word": "shoulder", "stimulus": "/static/audio/wordpool/SHOULDER.wav", "conditions": [24, 1600, "a", 24000], "internal_node_id": "0.0-125.0", "trial": 4, "time_elapsed": 743405, "serialpos": 13, "key_press": -1, "wordID": 1293, "type": "PRES_AUD", "trial_index": 170}, "uniqueid": "MTK1621:3M81GAB8A1QTOKTLOCQ8VI769WDBQA", "dateTime": 1516048854014}, {"current_trial": 171, "trialdata": {"rt": -1000, "trial_type": "single-audio", "word": "world", "stimulus": "/static/audio/wordpool/WORLD.wav", "conditions": [24, 1600, "a", 24000], "internal_node_id": "0.0-126.0", "trial": 4, "time_elapsed": 745993, "serialpos": 14, "key_press": -1, "wordID": 1621, "type": "PRES_AUD", "trial_index": 171}, "uniqueid": "MTK1621:3M81GAB8A1QTOKTLOCQ8VI769WDBQA", "dateTime": 1516048856602}, {"current_trial": 172, "trialdata": {"rt": -1000, "trial_type": "single-audio", "word": "country", "stimulus": "/static/audio/wordpool/COUNTRY.wav", "conditions": [24, 1600, "a", 24000], "internal_node_id": "0.0-127.0", "trial": 4, "time_elapsed": 748469, "serialpos": 15, "key_press": -1, "wordID": 387, "type": "PRES_AUD", "trial_index": 172}, "uniqueid": "MTK1621:3M81GAB8A1QTOKTLOCQ8VI769WDBQA", "dateTime": 1516048859078}, {"current_trial": 173, "trialdata": {"rt": -1000, "trial_type": "single-audio", "word": "office", "stimulus": "/static/audio/wordpool/OFFICE.wav", "conditions": [24, 1600, "a", 24000], "internal_node_id": "0.0-128.0", "trial": 4, "time_elapsed": 751235, "serialpos": 16, "key_press": -1, "wordID": 971, "type": "PRES_AUD", "trial_index": 173}, "uniqueid": "MTK1621:3M81GAB8A1QTOKTLOCQ8VI769WDBQA", "dateTime": 1516048861844}, {"current_trial": 174, "trialdata": {"rt": -1000, "trial_type": "single-audio", "word": "heart", "stimulus": "/static/audio/wordpool/HEART.wav", "conditions": [24, 1600, "a", 24000], "internal_node_id": "0.0-129.0", "trial": 4, "time_elapsed": 753692, "serialpos": 17, "key_press": -1, "wordID": 696, "type": "PRES_AUD", "trial_index": 174}, "uniqueid": "MTK1621:3M81GAB8A1QTOKTLOCQ8VI769WDBQA", "dateTime": 1516048864301}, {"current_trial": 175, "trialdata": {"rt": -1000, "trial_type": "single-audio", "word": "onion", "stimulus": "/static/audio/wordpool/ONION.wav", "conditions": [24, 1600, "a", 24000], "internal_node_id": "0.0-130.0", "trial": 4, "time_elapsed": 756417, "serialpos": 18, "key_press": -1, "wordID": 976, "type": "PRES_AUD", "trial_index": 175}, "uniqueid": "MTK1621:3M81GAB8A1QTOKTLOCQ8VI769WDBQA", "dateTime": 1516048867026}, {"current_trial": 176, "trialdata": {"rt": -1000, "trial_type": "single-audio", "word": "goblin", "stimulus": "/static/audio/wordpool/GOBLIN.wav", "conditions": [24, 1600, "a", 24000], "internal_node_id": "0.0-131.0", "trial": 4, "time_elapsed": 759047, "serialpos": 19, "key_press": -1, "wordID": 644, "type": "PRES_AUD", "trial_index": 176}, "uniqueid": "MTK1621:3M81GAB8A1QTOKTLOCQ8VI769WDBQA", "dateTime": 1516048869656}, {"current_trial": 177, "trialdata": {"rt": -1000, "trial_type": "single-audio", "word": "slope", "stimulus": "/static/audio/wordpool/SLOPE.wav", "conditions": [24, 1600, "a", 24000], "internal_node_id": "0.0-132.0", "trial": 4, "time_elapsed": 761655, "serialpos": 20, "key_press": -1, "wordID": 1327, "type": "PRES_AUD", "trial_index": 177}, "uniqueid": "MTK1621:3M81GAB8A1QTOKTLOCQ8VI769WDBQA", "dateTime": 1516048872264}, {"current_trial": 178, "trialdata": {"rt": -1000, "trial_type": "single-audio", "word": "arm", "stimulus": "/static/audio/wordpool/ARM.wav", "conditions": [24, 1600, "a", 24000], "internal_node_id": "0.0-133.0", "trial": 4, "time_elapsed": 764329, "serialpos": 21, "key_press": -1, "wordID": 37, "type": "PRES_AUD", "trial_index": 178}, "uniqueid": "MTK1621:3M81GAB8A1QTOKTLOCQ8VI769WDBQA", "dateTime": 1516048874938}, {"current_trial": 179, "trialdata": {"rt": -1000, "trial_type": "single-audio", "word": "umpire", "stimulus": "/static/audio/wordpool/UMPIRE.wav", "conditions": [24, 1600, "a", 24000], "internal_node_id": "0.0-134.0", "trial": 4, "time_elapsed": 766970, "serialpos": 22, "key_press": -1, "wordID": 1534, "type": "PRES_AUD", "trial_index": 179}, "uniqueid": "MTK1621:3M81GAB8A1QTOKTLOCQ8VI769WDBQA", "dateTime": 1516048877579}, {"current_trial": 180, "trialdata": {"rt": -1000, "trial_type": "single-audio", "word": "cricket", "stimulus": "/static/audio/wordpool/CRICKET.wav", "conditions": [24, 1600, "a", 24000], "internal_node_id": "0.0-135.0", "trial": 4, "time_elapsed": 769450, "serialpos": 23, "key_press": -1, "wordID": 407, "type": "PRES_AUD", "trial_index": 180}, "uniqueid": "MTK1621:3M81GAB8A1QTOKTLOCQ8VI769WDBQA", "dateTime": 1516048880059}, {"current_trial": 181, "trialdata": {"rt": -1, "trial_type": "single-stim", "stimulus": "", "internal_node_id": "0.0-136.0-0.0", "time_elapsed": 770818, "key_press": -1, "type": "PRE_RECALL_DELAY", "trial_index": 181}, "uniqueid": "MTK1621:3M81GAB8A1QTOKTLOCQ8VI769WDBQA", "dateTime": 1516048881427}, {"current_trial": 182, "trialdata": {"rt": -1000, "trial_type": "single-audio", "stimulus": "/static/audio/400Hz.wav", "internal_node_id": "0.0-137.0", "time_elapsed": 771320, "key_press": -1, "type": "PRE_RECALL_ALERT", "trial_index": 182}, "uniqueid": "MTK1621:3M81GAB8A1QTOKTLOCQ8VI769WDBQA", "dateTime": 1516048881929}, {"current_trial": 183, "trialdata": {"rt": [2730, 6466, 9417, 11000, 12551, 13914, 17896, 20459, 24782, 33014, 38002, 46011], "recwords": ["cricket", "umpire", "woman", "baby", "onion", "lunch", "blender", "maple", "leg", "tortoise", "world", "county"], "key_times": [1712, 1939, 2100, 2227, 2328, 2521, 2628, 2730, 3251, 3458, 3670, 4031, 4189, 4312, 6466, 8630, 8726, 8812, 8934, 9068, 9417, 9770, 10011, 10183, 10359, 11000, 11770, 11839, 12057, 12149, 12276, 12551, 12885, 13084, 13284, 13448, 13561, 13914, 14282, 14578, 14847, 15012, 15102, 15318, 15414, 17896, 19202, 19397, 19497, 19604, 19855, 20459, 23761, 24251, 24379, 24782, 30081, 30274, 30788, 31033, 31140, 31391, 31598, 31710, 33014, 36135, 36304, 36536, 36766, 36944, 38002, 40391, 40594, 40717, 41104, 41478, 42463, 46011], "trial_type": "free-recall", "conditions": [24, 1600, "a", 24000], "internal_node_id": "0.0-138.0-0.0", "key_presses": [67, 82, 73, 67, 75, 69, 84, 13, 85, 77, 80, 73, 82, 69, 13, 87, 79, 77, 65, 78, 13, 66, 65, 66, 89, 13, 79, 78, 73, 79, 78, 13, 76, 85, 78, 67, 72, 13, 66, 76, 69, 78, 68, 69, 82, 13, 77, 65, 80, 76, 69, 13, 76, 69, 71, 13, 84, 79, 82, 84, 79, 73, 83, 69, 13, 87, 79, 82, 76, 68, 13, 67, 79, 85, 78, 84, 89, 13], "trial": 4, "time_elapsed": 831322, "type": "FREE_RECALL", "trial_index": 183}, "uniqueid": "MTK1621:3M81GAB8A1QTOKTLOCQ8VI769WDBQA", "dateTime": 1516048941933}, {"current_trial": 184, "trialdata": {"rt": 1228, "trial_type": "text", "internal_node_id": "0.0-139.0", "time_elapsed": 834555, "key_press": 32, "type": "INSTRUCTIONS", "trial_index": 184}, "uniqueid": "MTK1621:3M81GAB8A1QTOKTLOCQ8VI769WDBQA", "dateTime": 1516048945164}, {"current_trial": 185, "trialdata": {"rt": [4527, 6392, 8417, 10490, 11857], "trial_type": "math-distractor", "key_times": [4132, 4244, 4527, 6131, 6248, 6392, 8172, 8273, 8417, 9971, 10289, 10490, 11416, 11690, 11857], "responses": ["23", "13", "14", "17", "17"], "num2": [7, 2, 6, 8, 9, 5], "num3": [8, 6, 6, 7, 1, 7], "conditions": [24, 800, "a", 12000], "internal_node_id": "0.0-140.0", "key_presses": [50, 51, 13, 49, 51, 13, 49, 52, 13, 49, 55, 13, 49, 55, 13], "trial": 5, "time_elapsed": 848558, "type": "DISTRACTOR", "trial_index": 185, "num1": [7, 5, 2, 2, 7, 5]}, "uniqueid": "MTK1621:3M81GAB8A1QTOKTLOCQ8VI769WDBQA", "dateTime": 1516048959167}, {"current_trial": 186, "trialdata": {"rt": -1, "trial_type": "single-stim", "stimulus": "<p id=\"stim\">10</p>", "internal_node_id": "0.0-141.0-0.0", "time_elapsed": 851560, "key_press": -1, "trial_index": 186}, "uniqueid": "MTK1621:3M81GAB8A1QTOKTLOCQ8VI769WDBQA", "dateTime": 1516048962169}, {"current_trial": 187, "trialdata": {"rt": -1, "trial_type": "single-stim", "stimulus": "<p id=\"stim\">9</p>", "internal_node_id": "0.0-141.0-1.0", "time_elapsed": 852562, "key_press": -1, "trial_index": 187}, "uniqueid": "MTK1621:3M81GAB8A1QTOKTLOCQ8VI769WDBQA", "dateTime": 1516048963171}, {"current_trial": 188, "trialdata": {"rt": -1, "trial_type": "single-stim", "stimulus": "<p id=\"stim\">8</p>", "internal_node_id": "0.0-141.0-2.0", "time_elapsed": 853563, "key_press": -1, "trial_index": 188}, "uniqueid": "MTK1621:3M81GAB8A1QTOKTLOCQ8VI769WDBQA", "dateTime": 1516048964172}, {"current_trial": 189, "trialdata": {"rt": -1, "trial_type": "single-stim", "stimulus": "<p id=\"stim\">7</p>", "internal_node_id": "0.0-141.0-3.0", "time_elapsed": 854565, "key_press": -1, "trial_index": 189}, "uniqueid": "MTK1621:3M81GAB8A1QTOKTLOCQ8VI769WDBQA", "dateTime": 1516048965174}, {"current_trial": 190, "trialdata": {"rt": -1, "trial_type": "single-stim", "stimulus": "<p id=\"stim\">6</p>", "internal_node_id": "0.0-141.0-4.0", "time_elapsed": 855566, "key_press": -1, "trial_index": 190}, "uniqueid": "MTK1621:3M81GAB8A1QTOKTLOCQ8VI769WDBQA", "dateTime": 1516048966175}, {"current_trial": 191, "trialdata": {"rt": -1, "trial_type": "single-stim", "stimulus": "<p id=\"stim\">5</p>", "internal_node_id": "0.0-141.0-5.0", "time_elapsed": 856567, "key_press": -1, "trial_index": 191}, "uniqueid": "MTK1621:3M81GAB8A1QTOKTLOCQ8VI769WDBQA", "dateTime": 1516048967176}, {"current_trial": 192, "trialdata": {"rt": -1, "trial_type": "single-stim", "stimulus": "<p id=\"stim\">4</p>", "internal_node_id": "0.0-141.0-6.0", "time_elapsed": 857568, "key_press": -1, "trial_index": 192}, "uniqueid": "MTK1621:3M81GAB8A1QTOKTLOCQ8VI769WDBQA", "dateTime": 1516048968178}, {"current_trial": 193, "trialdata": {"rt": -1, "trial_type": "single-stim", "stimulus": "<p id=\"stim\">3</p>", "internal_node_id": "0.0-141.0-7.0", "time_elapsed": 858570, "key_press": -1, "trial_index": 193}, "uniqueid": "MTK1621:3M81GAB8A1QTOKTLOCQ8VI769WDBQA", "dateTime": 1516048969179}, {"current_trial": 194, "trialdata": {"rt": -1, "trial_type": "single-stim", "stimulus": "<p id=\"stim\">2</p>", "internal_node_id": "0.0-141.0-8.0", "time_elapsed": 859571, "key_press": -1, "trial_index": 194}, "uniqueid": "MTK1621:3M81GAB8A1QTOKTLOCQ8VI769WDBQA", "dateTime": 1516048970180}, {"current_trial": 195, "trialdata": {"rt": -1, "trial_type": "single-stim", "stimulus": "<p id=\"stim\">1</p>", "internal_node_id": "0.0-141.0-9.0", "time_elapsed": 860573, "key_press": -1, "trial_index": 195}, "uniqueid": "MTK1621:3M81GAB8A1QTOKTLOCQ8VI769WDBQA", "dateTime": 1516048971182}, {"current_trial": 196, "trialdata": {"rt": -1, "trial_type": "single-stim", "stimulus": "<p id=\"stim\">+</p>", "internal_node_id": "0.0-142.0-0.0", "time_elapsed": 862074, "key_press": -1, "type": "FIXATION", "trial_index": 196}, "uniqueid": "MTK1621:3M81GAB8A1QTOKTLOCQ8VI769WDBQA", "dateTime": 1516048972683}, {"current_trial": 197, "trialdata": {"rt": -1000, "trial_type": "single-audio", "word": "barley", "stimulus": "/static/audio/wordpool/BARLEY.wav", "conditions": [24, 800, "a", 12000], "internal_node_id": "0.0-143.0", "trial": 5, "time_elapsed": 863755, "serialpos": 0, "key_press": -1, "wordID": 87, "type": "PRES_AUD", "trial_index": 197}, "uniqueid": "MTK1621:3M81GAB8A1QTOKTLOCQ8VI769WDBQA", "dateTime": 1516048974364}, {"current_trial": 198, "trialdata": {"rt": -1000, "trial_type": "single-audio", "word": "grape", "stimulus": "/static/audio/wordpool/GRAPE.wav", "conditions": [24, 800, "a", 12000], "internal_node_id": "0.0-144.0", "trial": 5, "time_elapsed": 865543, "serialpos": 1, "key_press": -1, "wordID": 653, "type": "PRES_AUD", "trial_index": 198}, "uniqueid": "MTK1621:3M81GAB8A1QTOKTLOCQ8VI769WDBQA", "dateTime": 1516048976152}, {"current_trial": 199, "trialdata": {"rt": -1000, "trial_type": "single-audio", "word": "coin", "stimulus": "/static/audio/wordpool/COIN.wav", "conditions": [24, 800, "a", 12000], "internal_node_id": "0.0-145.0", "trial": 5, "time_elapsed": 867477, "serialpos": 2, "key_press": -1, "wordID": 342, "type": "PRES_AUD", "trial_index": 199}, "uniqueid": "MTK1621:3M81GAB8A1QTOKTLOCQ8VI769WDBQA", "dateTime": 1516048978086}, {"current_trial": 200, "trialdata": {"rt": -1000, "trial_type": "single-audio", "word": "window", "stimulus": "/static/audio/wordpool/WINDOW.wav", "conditions": [24, 800, "a", 12000], "internal_node_id": "0.0-146.0", "trial": 5, "time_elapsed": 869170, "serialpos": 3, "key_press": -1, "wordID": 1610, "type": "PRES_AUD", "trial_index": 200}, "uniqueid": "MTK1621:3M81GAB8A1QTOKTLOCQ8VI769WDBQA", "dateTime": 1516048979779}, {"current_trial": 201, "trialdata": {"rt": -1000, "trial_type": "single-audio", "word": "soda", "stimulus": "/static/audio/wordpool/SODA.wav", "conditions": [24, 800, "a", 12000], "internal_node_id": "0.0-147.0", "trial": 5, "time_elapsed": 870958, "serialpos": 4, "key_press": -1, "wordID": 1340, "type": "PRES_AUD", "trial_index": 201}, "uniqueid": "MTK1621:3M81GAB8A1QTOKTLOCQ8VI769WDBQA", "dateTime": 1516048981567}, {"current_trial": 202, "trialdata": {"rt": -1000, "trial_type": "single-audio", "word": "blockade", "stimulus": "/static/audio/wordpool/BLOCKADE.wav", "conditions": [24, 800, "a", 12000], "internal_node_id": "0.0-148.0", "trial": 5, "time_elapsed": 872731, "serialpos": 5, "key_press": -1, "wordID": 136, "type": "PRES_AUD", "trial_index": 202}, "uniqueid": "MTK1621:3M81GAB8A1QTOKTLOCQ8VI769WDBQA", "dateTime": 1516048983340}, {"current_trial": 203, "trialdata": {"rt": -1000, "trial_type": "single-audio", "word": "flask", "stimulus": "/static/audio/wordpool/FLASK.wav", "conditions": [24, 800, "a", 12000], "internal_node_id": "0.0-149.0", "trial": 5, "time_elapsed": 874627, "serialpos": 6, "key_press": -1, "wordID": 575, "type": "PRES_AUD", "trial_index": 203}, "uniqueid": "MTK1621:3M81GAB8A1QTOKTLOCQ8VI769WDBQA", "dateTime": 1516048985236}, {"current_trial": 204, "trialdata": {"rt": -1000, "trial_type": "single-audio", "word": "wrench", "stimulus": "/static/audio/wordpool/WRENCH.wav", "conditions": [24, 800, "a", 12000], "internal_node_id": "0.0-150.0", "trial": 5, "time_elapsed": 876507, "serialpos": 7, "key_press": -1, "wordID": 1624, "type": "PRES_AUD", "trial_index": 204}, "uniqueid": "MTK1621:3M81GAB8A1QTOKTLOCQ8VI769WDBQA", "dateTime": 1516048987117}, {"current_trial": 205, "trialdata": {"rt": -1000, "trial_type": "single-audio", "word": "ghetto", "stimulus": "/static/audio/wordpool/GHETTO.wav", "conditions": [24, 800, "a", 12000], "internal_node_id": "0.0-151.0", "trial": 5, "time_elapsed": 878276, "serialpos": 8, "key_press": -1, "wordID": 632, "type": "PRES_AUD", "trial_index": 205}, "uniqueid": "MTK1621:3M81GAB8A1QTOKTLOCQ8VI769WDBQA", "dateTime": 1516048988885}, {"current_trial": 206, "trialdata": {"rt": -1000, "trial_type": "single-audio", "word": "london", "stimulus": "/static/audio/wordpool/LONDON.wav", "conditions": [24, 800, "a", 12000], "internal_node_id": "0.0-152.0", "trial": 5, "time_elapsed": 880207, "serialpos": 9, "key_press": -1, "wordID": 842, "type": "PRES_AUD", "trial_index": 206}, "uniqueid": "MTK1621:3M81GAB8A1QTOKTLOCQ8VI769WDBQA", "dateTime": 1516048990816}, {"current_trial": 207, "trialdata": {"rt": -1000, "trial_type": "single-audio", "word": "rebel", "stimulus": "/static/audio/wordpool/REBEL.wav", "conditions": [24, 800, "a", 12000], "internal_node_id": "0.0-153.0", "trial": 5, "time_elapsed": 881847, "serialpos": 10, "key_press": -1, "wordID": 1171, "type": "PRES_AUD", "trial_index": 207}, "uniqueid": "MTK1621:3M81GAB8A1QTOKTLOCQ8VI769WDBQA", "dateTime": 1516048992456}, {"current_trial": 208, "trialdata": {"rt": -1000, "trial_type": "single-audio", "word": "beaker", "stimulus": "/static/audio/wordpool/BEAKER.wav", "conditions": [24, 800, "a", 12000], "internal_node_id": "0.0-154.0", "trial": 5, "time_elapsed": 883538, "serialpos": 11, "key_press": -1, "wordID": 103, "type": "PRES_AUD", "trial_index": 208}, "uniqueid": "MTK1621:3M81GAB8A1QTOKTLOCQ8VI769WDBQA", "dateTime": 1516048994147}, {"current_trial": 209, "trialdata": {"rt": -1000, "trial_type": "single-audio", "word": "scissors", "stimulus": "/static/audio/wordpool/SCISSORS.wav", "conditions": [24, 800, "a", 12000], "internal_node_id": "0.0-155.0", "trial": 5, "time_elapsed": 885193, "serialpos": 12, "key_press": -1, "wordID": 1249, "type": "PRES_AUD", "trial_index": 209}, "uniqueid": "MTK1621:3M81GAB8A1QTOKTLOCQ8VI769WDBQA", "dateTime": 1516048995802}, {"current_trial": 210, "trialdata": {"rt": -1000, "trial_type": "single-audio", "word": "sandwich", "stimulus": "/static/audio/wordpool/SANDWICH.wav", "conditions": [24, 800, "a", 12000], "internal_node_id": "0.0-156.0", "trial": 5, "time_elapsed": 886983, "serialpos": 13, "key_press": -1, "wordID": 1231, "type": "PRES_AUD", "trial_index": 210}, "uniqueid": "MTK1621:3M81GAB8A1QTOKTLOCQ8VI769WDBQA", "dateTime": 1516048997592}, {"current_trial": 211, "trialdata": {"rt": -1000, "trial_type": "single-audio", "word": "airplane", "stimulus": "/static/audio/wordpool/AIRPLANE.wav", "conditions": [24, 800, "a", 12000], "internal_node_id": "0.0-157.0", "trial": 5, "time_elapsed": 888718, "serialpos": 14, "key_press": -1, "wordID": 11, "type": "PRES_AUD", "trial_index": 211}, "uniqueid": "MTK1621:3M81GAB8A1QTOKTLOCQ8VI769WDBQA", "dateTime": 1516048999327}, {"current_trial": 212, "trialdata": {"rt": -1000, "trial_type": "single-audio", "word": "twister", "stimulus": "/static/audio/wordpool/TWISTER.wav", "conditions": [24, 800, "a", 12000], "internal_node_id": "0.0-158.0", "trial": 5, "time_elapsed": 890635, "serialpos": 15, "key_press": -1, "wordID": 1529, "type": "PRES_AUD", "trial_index": 212}, "uniqueid": "MTK1621:3M81GAB8A1QTOKTLOCQ8VI769WDBQA", "dateTime": 1516049001244}, {"current_trial": 213, "trialdata": {"rt": -1000, "trial_type": "single-audio", "word": "raft", "stimulus": "/static/audio/wordpool/RAFT.wav", "conditions": [24, 800, "a", 12000], "internal_node_id": "0.0-159.0", "trial": 5, "time_elapsed": 892573, "serialpos": 16, "key_press": -1, "wordID": 1158, "type": "PRES_AUD", "trial_index": 213}, "uniqueid": "MTK1621:3M81GAB8A1QTOKTLOCQ8VI769WDBQA", "dateTime": 1516049003182}, {"current_trial": 214, "trialdata": {"rt": -1000, "trial_type": "single-audio", "word": "notebook", "stimulus": "/static/audio/wordpool/NOTEBOOK.wav", "conditions": [24, 800, "a", 12000], "internal_node_id": "0.0-160.0", "trial": 5, "time_elapsed": 894219, "serialpos": 17, "key_press": -1, "wordID": 958, "type": "PRES_AUD", "trial_index": 214}, "uniqueid": "MTK1621:3M81GAB8A1QTOKTLOCQ8VI769WDBQA", "dateTime": 1516049004828}, {"current_trial": 215, "trialdata": {"rt": -1000, "trial_type": "single-audio", "word": "uncle", "stimulus": "/static/audio/wordpool/UNCLE.wav", "conditions": [24, 800, "a", 12000], "internal_node_id": "0.0-161.0", "trial": 5, "time_elapsed": 895822, "serialpos": 18, "key_press": -1, "wordID": 1535, "type": "PRES_AUD", "trial_index": 215}, "uniqueid": "MTK1621:3M81GAB8A1QTOKTLOCQ8VI769WDBQA", "dateTime": 1516049006431}, {"current_trial": 216, "trialdata": {"rt": -1000, "trial_type": "single-audio", "word": "dustpan", "stimulus": "/static/audio/wordpool/DUSTPAN.wav", "conditions": [24, 800, "a", 12000], "internal_node_id": "0.0-162.0", "trial": 5, "time_elapsed": 897764, "serialpos": 19, "key_press": -1, "wordID": 508, "type": "PRES_AUD", "trial_index": 216}, "uniqueid": "MTK1621:3M81GAB8A1QTOKTLOCQ8VI769WDBQA", "dateTime": 1516049008373}, {"current_trial": 217, "trialdata": {"rt": -1000, "trial_type": "single-audio", "word": "sausage", "stimulus": "/static/audio/wordpool/SAUSAGE.wav", "conditions": [24, 800, "a", 12000], "internal_node_id": "0.0-163.0", "trial": 5, "time_elapsed": 899383, "serialpos": 20, "key_press": -1, "wordID": 1237, "type": "PRES_AUD", "trial_index": 217}, "uniqueid": "MTK1621:3M81GAB8A1QTOKTLOCQ8VI769WDBQA", "dateTime": 1516049009992}, {"current_trial": 218, "trialdata": {"rt": -1000, "trial_type": "single-audio", "word": "bacon", "stimulus": "/static/audio/wordpool/BACON.wav", "conditions": [24, 800, "a", 12000], "internal_node_id": "0.0-164.0", "trial": 5, "time_elapsed": 901259, "serialpos": 21, "key_press": -1, "wordID": 66, "type": "PRES_AUD", "trial_index": 218}, "uniqueid": "MTK1621:3M81GAB8A1QTOKTLOCQ8VI769WDBQA", "dateTime": 1516049011868}, {"current_trial": 219, "trialdata": {"rt": -1000, "trial_type": "single-audio", "word": "rocket", "stimulus": "/static/audio/wordpool/ROCKET.wav", "conditions": [24, 800, "a", 12000], "internal_node_id": "0.0-165.0", "trial": 5, "time_elapsed": 902877, "serialpos": 22, "key_press": -1, "wordID": 1201, "type": "PRES_AUD", "trial_index": 219}, "uniqueid": "MTK1621:3M81GAB8A1QTOKTLOCQ8VI769WDBQA", "dateTime": 1516049013486}, {"current_trial": 220, "trialdata": {"rt": -1000, "trial_type": "single-audio", "word": "daughter", "stimulus": "/static/audio/wordpool/DAUGHTER.wav", "conditions": [24, 800, "a", 12000], "internal_node_id": "0.0-166.0", "trial": 5, "time_elapsed": 904817, "serialpos": 23, "key_press": -1, "wordID": 441, "type": "PRES_AUD", "trial_index": 220}, "uniqueid": "MTK1621:3M81GAB8A1QTOKTLOCQ8VI769WDBQA", "dateTime": 1516049015427}, {"current_trial": 221, "trialdata": {"rt": -1, "trial_type": "single-stim", "stimulus": "", "internal_node_id": "0.0-167.0-0.0", "time_elapsed": 906123, "key_press": -1, "type": "PRE_RECALL_DELAY", "trial_index": 221}, "uniqueid": "MTK1621:3M81GAB8A1QTOKTLOCQ8VI769WDBQA", "dateTime": 1516049016732}, {"current_trial": 222, "trialdata": {"rt": -1000, "trial_type": "single-audio", "stimulus": "/static/audio/400Hz.wav", "internal_node_id": "0.0-168.0", "time_elapsed": 906627, "key_press": -1, "type": "PRE_RECALL_ALERT", "trial_index": 222}, "uniqueid": "MTK1621:3M81GAB8A1QTOKTLOCQ8VI769WDBQA", "dateTime": 1516049017236}, {"current_trial": 223, "trialdata": {"rt": [3266, 5178, 6924, 8285, 9949, 19470, 21019, 22415, 26550, 27956, 32692, 54435], "recwords": ["daughter", "rocket", "sausage", "bacon", "uncle", "grape", "soda", "coin", "barley", "flask", "rebel", "ghetto"], "key_times": [1937, 2060, 2188, 2305, 2396, 2537, 2787, 2905, 3266, 3470, 3627, 3864, 3999, 4190, 4361, 4821, 4918, 5178, 5794, 5981, 6110, 6336, 6527, 6644, 6740, 6924, 7401, 7524, 7630, 7867, 7979, 8285, 8655, 8767, 8962, 9069, 9262, 9949, 18532, 18744, 18846, 19006, 19180, 19470, 20341, 20490, 20667, 20752, 21019, 21347, 21443, 21545, 21834, 22415, 25101, 25256, 25352, 25625, 25731, 25828, 26550, 26882, 27028, 27185, 27451, 27568, 27956, 30735, 30836, 31081, 31273, 31374, 32692, 53503, 53599, 53754, 53813, 53991, 54034, 54435], "trial_type": "free-recall", "conditions": [24, 800, "a", 12000], "internal_node_id": "0.0-169.0-0.0", "key_presses": [68, 65, 85, 71, 72, 84, 69, 82, 13, 82, 79, 67, 75, 69, 89, 8, 84, 13, 83, 65, 85, 83, 65, 71, 69, 13, 66, 65, 67, 79, 78, 13, 85, 78, 67, 76, 69, 13, 71, 82, 65, 80, 69, 13, 83, 79, 68, 65, 13, 67, 79, 73, 78, 13, 66, 65, 82, 76, 69, 89, 13, 70, 76, 65, 83, 75, 13, 82, 69, 66, 69, 76, 13, 71, 72, 69, 84, 84, 79, 13], "trial": 5, "time_elapsed": 966630, "type": "FREE_RECALL", "trial_index": 223}, "uniqueid": "MTK1621:3M81GAB8A1QTOKTLOCQ8VI769WDBQA", "dateTime": 1516049077242}, {"current_trial": 224, "trialdata": {"rt": 1383, "trial_type": "text", "internal_node_id": "0.0-170.0", "time_elapsed": 970017, "key_press": 32, "type": "INSTRUCTIONS", "trial_index": 224}, "uniqueid": "MTK1621:3M81GAB8A1QTOKTLOCQ8VI769WDBQA", "dateTime": 1516049080626}, {"current_trial": 225, "trialdata": {"rt": [2321, 3887, 5761, 7377, 8763, 10583, 13100, 16393, 18023, 20225, 22313, 23967], "trial_type": "math-distractor", "key_times": [1858, 2079, 2321, 3673, 3887, 5198, 5598, 5761, 7054, 7227, 7377, 8357, 8597, 8763, 10326, 10413, 10583, 12722, 12968, 13100, 16104, 16243, 16393, 17633, 17867, 18023, 19260, 19764, 19952, 20027, 20225, 21626, 22076, 22313, 23721, 23844, 23967], "responses": ["11", "6", "18", "11", "15", "24", "14", "21", "15", "10", "19", "14"], "num2": [5, 1, 8, 2, 8, 9, 1, 9, 4, 3, 9, 3, 5], "num3": [2, 2, 5, 2, 5, 9, 7, 4, 4, 2, 4, 6, 8], "conditions": [24, 800, "a", 24000], "internal_node_id": "0.0-171.0", "key_presses": [49, 49, 13, 54, 13, 49, 56, 13, 49, 49, 13, 49, 53, 13, 50, 52, 13, 49, 52, 13, 50, 49, 13, 49, 53, 13, 53, 8, 49, 48, 13, 49, 57, 13, 49, 52, 13], "trial": 6, "time_elapsed": 996019, "type": "DISTRACTOR", "trial_index": 225, "num1": [4, 3, 5, 7, 2, 6, 6, 8, 7, 5, 6, 5, 8]}, "uniqueid": "MTK1621:3M81GAB8A1QTOKTLOCQ8VI769WDBQA", "dateTime": 1516049106628}, {"current_trial": 226, "trialdata": {"rt": -1, "trial_type": "single-stim", "stimulus": "<p id=\"stim\">10</p>", "internal_node_id": "0.0-172.0-0.0", "time_elapsed": 999020, "key_press": -1, "trial_index": 226}, "uniqueid": "MTK1621:3M81GAB8A1QTOKTLOCQ8VI769WDBQA", "dateTime": 1516049109630}, {"current_trial": 227, "trialdata": {"rt": -1, "trial_type": "single-stim", "stimulus": "<p id=\"stim\">9</p>", "internal_node_id": "0.0-172.0-1.0", "time_elapsed": 1000023, "key_press": -1, "trial_index": 227}, "uniqueid": "MTK1621:3M81GAB8A1QTOKTLOCQ8VI769WDBQA", "dateTime": 1516049110632}, {"current_trial": 228, "trialdata": {"rt": -1, "trial_type": "single-stim", "stimulus": "<p id=\"stim\">8</p>", "internal_node_id": "0.0-172.0-2.0", "time_elapsed": 1001024, "key_press": -1, "trial_index": 228}, "uniqueid": "MTK1621:3M81GAB8A1QTOKTLOCQ8VI769WDBQA", "dateTime": 1516049111633}, {"current_trial": 229, "trialdata": {"rt": -1, "trial_type": "single-stim", "stimulus": "<p id=\"stim\">7</p>", "internal_node_id": "0.0-172.0-3.0", "time_elapsed": 1002027, "key_press": -1, "trial_index": 229}, "uniqueid": "MTK1621:3M81GAB8A1QTOKTLOCQ8VI769WDBQA", "dateTime": 1516049112636}, {"current_trial": 230, "trialdata": {"rt": -1, "trial_type": "single-stim", "stimulus": "<p id=\"stim\">6</p>", "internal_node_id": "0.0-172.0-4.0", "time_elapsed": 1003028, "key_press": -1, "trial_index": 230}, "uniqueid": "MTK1621:3M81GAB8A1QTOKTLOCQ8VI769WDBQA", "dateTime": 1516049113638}, {"current_trial": 231, "trialdata": {"rt": -1, "trial_type": "single-stim", "stimulus": "<p id=\"stim\">5</p>", "internal_node_id": "0.0-172.0-5.0", "time_elapsed": 1004030, "key_press": -1, "trial_index": 231}, "uniqueid": "MTK1621:3M81GAB8A1QTOKTLOCQ8VI769WDBQA", "dateTime": 1516049114639}, {"current_trial": 232, "trialdata": {"rt": -1, "trial_type": "single-stim", "stimulus": "<p id=\"stim\">4</p>", "internal_node_id": "0.0-172.0-6.0", "time_elapsed": 1005032, "key_press": -1, "trial_index": 232}, "uniqueid": "MTK1621:3M81GAB8A1QTOKTLOCQ8VI769WDBQA", "dateTime": 1516049115641}, {"current_trial": 233, "trialdata": {"rt": -1, "trial_type": "single-stim", "stimulus": "<p id=\"stim\">3</p>", "internal_node_id": "0.0-172.0-7.0", "time_elapsed": 1006033, "key_press": -1, "trial_index": 233}, "uniqueid": "MTK1621:3M81GAB8A1QTOKTLOCQ8VI769WDBQA", "dateTime": 1516049116642}, {"current_trial": 234, "trialdata": {"rt": -1, "trial_type": "single-stim", "stimulus": "<p id=\"stim\">2</p>", "internal_node_id": "0.0-172.0-8.0", "time_elapsed": 1007034, "key_press": -1, "trial_index": 234}, "uniqueid": "MTK1621:3M81GAB8A1QTOKTLOCQ8VI769WDBQA", "dateTime": 1516049117643}, {"current_trial": 235, "trialdata": {"rt": -1, "trial_type": "single-stim", "stimulus": "<p id=\"stim\">1</p>", "internal_node_id": "0.0-172.0-9.0", "time_elapsed": 1008036, "key_press": -1, "trial_index": 235}, "uniqueid": "MTK1621:3M81GAB8A1QTOKTLOCQ8VI769WDBQA", "dateTime": 1516049118645}, {"current_trial": 236, "trialdata": {"rt": -1, "trial_type": "single-stim", "stimulus": "<p id=\"stim\">+</p>", "internal_node_id": "0.0-173.0-0.0", "time_elapsed": 1009537, "key_press": -1, "type": "FIXATION", "trial_index": 236}, "uniqueid": "MTK1621:3M81GAB8A1QTOKTLOCQ8VI769WDBQA", "dateTime": 1516049120146}, {"current_trial": 237, "trialdata": {"rt": -1000, "trial_type": "single-audio", "word": "ankle", "stimulus": "/static/audio/wordpool/ANKLE.wav", "conditions": [24, 800, "a", 24000], "internal_node_id": "0.0-174.0", "trial": 6, "time_elapsed": 1011542, "serialpos": 0, "key_press": -1, "wordID": 23, "type": "PRES_AUD", "trial_index": 237}, "uniqueid": "MTK1621:3M81GAB8A1QTOKTLOCQ8VI769WDBQA", "dateTime": 1516049122151}, {"current_trial": 238, "trialdata": {"rt": -1000, "trial_type": "single-audio", "word": "penguin", "stimulus": "/static/audio/wordpool/PENGUIN.wav", "conditions": [24, 800, "a", 24000], "internal_node_id": "0.0-175.0", "trial": 6, "time_elapsed": 1013232, "serialpos": 1, "key_press": -1, "wordID": 1043, "type": "PRES_AUD", "trial_index": 238}, "uniqueid": "MTK1621:3M81GAB8A1QTOKTLOCQ8VI769WDBQA", "dateTime": 1516049123841}, {"current_trial": 239, "trialdata": {"rt": -1000, "trial_type": "single-audio", "word": "inmate", "stimulus": "/static/audio/wordpool/INMATE.wav", "conditions": [24, 800, "a", 24000], "internal_node_id": "0.0-176.0", "trial": 6, "time_elapsed": 1014997, "serialpos": 2, "key_press": -1, "wordID": 737, "type": "PRES_AUD", "trial_index": 239}, "uniqueid": "MTK1621:3M81GAB8A1QTOKTLOCQ8VI769WDBQA", "dateTime": 1516049125606}, {"current_trial": 240, "trialdata": {"rt": -1000, "trial_type": "single-audio", "word": "beaver", "stimulus": "/static/audio/wordpool/BEAVER.wav", "conditions": [24, 800, "a", 24000], "internal_node_id": "0.0-177.0", "trial": 6, "time_elapsed": 1016821, "serialpos": 3, "key_press": -1, "wordID": 108, "type": "PRES_AUD", "trial_index": 240}, "uniqueid": "MTK1621:3M81GAB8A1QTOKTLOCQ8VI769WDBQA", "dateTime": 1516049127430}, {"current_trial": 241, "trialdata": {"rt": -1000, "trial_type": "single-audio", "word": "balloon", "stimulus": "/static/audio/wordpool/BALLOON.wav", "conditions": [24, 800, "a", 24000], "internal_node_id": "0.0-178.0", "trial": 6, "time_elapsed": 1018685, "serialpos": 4, "key_press": -1, "wordID": 74, "type": "PRES_AUD", "trial_index": 241}, "uniqueid": "MTK1621:3M81GAB8A1QTOKTLOCQ8VI769WDBQA", "dateTime": 1516049129295}, {"current_trial": 242, "trialdata": {"rt": -1000, "trial_type": "single-audio", "word": "razor", "stimulus": "/static/audio/wordpool/RAZOR.wav", "conditions": [24, 800, "a", 24000], "internal_node_id": "0.0-179.0", "trial": 6, "time_elapsed": 1020542, "serialpos": 5, "key_press": -1, "wordID": 1170, "type": "PRES_AUD", "trial_index": 242}, "uniqueid": "MTK1621:3M81GAB8A1QTOKTLOCQ8VI769WDBQA", "dateTime": 1516049131151}, {"current_trial": 243, "trialdata": {"rt": -1000, "trial_type": "single-audio", "word": "dragon", "stimulus": "/static/audio/wordpool/DRAGON.w