{"assignmentId": "3TVRFO09GLMPAQG913AU3TZ4HQ5XL0", "workerId": "MTK1574", "questiondata": {"origin": "United States", "strat-rehearsal": "3", "marital": "Married/Domestic Partnership", "education": "Some college", "ethnicity": "Not Hispanic", "color_depth": 24, "distracted": "No", "wrote-notes": "Yes", "strat-other": "", "screen_width": 1366, "avail_screen_width": 1366, "avail_screen_height": 728, "strat-image": "10", "language": "english", "gender": "Male", "age": "70", "gender_other": "", "race": ["White"], "strat-categorize": "38", "pixel_depth": 24, "strat-spatial": "2", "strat-story": "28", "race_other": "", "screen_height": 768}, "bonus": 0, "hitId": "3PZDSVZ3J5OMD4XQ33J2UQABCIR4ND", "counterbalance": 1680, "useragent": "Mozilla/5.0 (Windows NT 10.0; Win64; x64) AppleWebKit/537.36 (KHTML, like Gecko) Chrome/63.0.3239.132 Safari/537.36", "eventdata": [{"eventtype": "initialized", "interval": 0, "value": null, "timestamp": 1516037561255}, {"eventtype": "window_resize", "interval": 0, "value": [1366, 721], "timestamp": 1516037561255}, {"eventtype": "window_resize", "interval": 8417, "value": [1366, 768], "timestamp": 1516037569672}, {"eventtype": "focus", "interval": 101818, "value": "off", "timestamp": 1516037671490}, {"eventtype": "focus", "interval": 1, "value": "on", "timestamp": 1516037671491}, {"eventtype": "focus", "interval": 21679, "value": "off", "timestamp": 1516037693170}, {"eventtype": "focus", "interval": 0, "value": "on", "timestamp": 1516037693170}, {"eventtype": "focus", "interval": 154000, "value": "off", "timestamp": 1516037847170}, {"eventtype": "focus", "interval": 0, "value": "on", "timestamp": 1516037847170}, {"eventtype": "window_resize", "interval": 7565, "value": [1366, 719], "timestamp": 1516037854735}], "data": [{"current_trial": 0, "trialdata": {"rt": 16918, "trial_type": "text", "internal_node_id": "0.0-0.0", "time_elapsed": 16920, "key_press": 32, "type": "INSTRUCTIONS", "trial_index": 0}, "uniqueid": "MTK1574:3TVRFO09GLMPAQG913AU3TZ4HQ5XL0", "dateTime": 1516037598452}, {"current_trial": 1, "trialdata": {"rt": 24485, "trial_type": "text", "internal_node_id": "0.0-1.0", "time_elapsed": 41408, "key_press": 32, "type": "INSTRUCTIONS", "trial_index": 1}, "uniqueid": "MTK1574:3TVRFO09GLMPAQG913AU3TZ4HQ5XL0", "dateTime": 1516037622939}, {"current_trial": 2, "trialdata": {"rt": [38997, 65533, 218764, 267716], "trial_type": "audio-test", "responses": ["ok", "oj", "ojay", "ocean"], "internal_node_id": "0.0-2.0", "time_elapsed": 309143, "type": "AUDIO_TEST", "trial_index": 2}, "uniqueid": "MTK1574:3TVRFO09GLMPAQG913AU3TZ4HQ5XL0", "dateTime": 1516037890674}, {"current_trial": 3, "trialdata": {"rt": [18949], "trial_type": "audio-test", "responses": ["crystal"], "internal_node_id": "0.0-3.0", "time_elapsed": 328095, "type": "AUDIO_TEST", "trial_index": 3}, "uniqueid": "MTK1574:3TVRFO09GLMPAQG913AU3TZ4HQ5XL0", "dateTime": 1516037909626}, {"current_trial": 4, "trialdata": {"rt": [20765], "trial_type": "audio-test", "responses": ["spice"], "internal_node_id": "0.0-4.0", "time_elapsed": 348863, "type": "AUDIO_TEST", "trial_index": 4}, "uniqueid": "MTK1574:3TVRFO09GLMPAQG913AU3TZ4HQ5XL0", "dateTime": 1516037930394}, {"current_trial": 5, "trialdata": {"rt": 52679, "trial_type": "survey-text", "responses": "{\"Q0\":\"11:00\",\"Q1\":\"8:15\",\"Q2\":\"5\"}", "internal_node_id": "0.0-5.0", "time_elapsed": 402295, "type": "SLEEP_SURVEY", "trial_index": 5}, "uniqueid": "MTK1574:3TVRFO09GLMPAQG913AU3TZ4HQ5XL0", "dateTime": 1516037983826}, {"current_trial": 6, "trialdata": {"rt": 65000, "trial_type": "text", "internal_node_id": "0.0-6.0", "time_elapsed": 468296, "key_press": 32, "type": "INSTRUCTIONS", "trial_index": 6}, "uniqueid": "MTK1574:3TVRFO09GLMPAQG913AU3TZ4HQ5XL0", "dateTime": 1516038049827}, {"current_trial": 7, "trialdata": {"rt": 31746, "trial_type": "text", "internal_node_id": "0.0-7.0", "time_elapsed": 500543, "key_press": 32, "type": "INSTRUCTIONS", "trial_index": 7}, "uniqueid": "MTK1574:3TVRFO09GLMPAQG913AU3TZ4HQ5XL0", "dateTime": 1516038082074}, {"current_trial": 8, "trialdata": {"rt": 8819, "trial_type": "text", "internal_node_id": "0.0-8.0", "time_elapsed": 509863, "key_press": 32, "type": "INSTRUCTIONS", "trial_index": 8}, "uniqueid": "MTK1574:3TVRFO09GLMPAQG913AU3TZ4HQ5XL0", "dateTime": 1516038091394}, {"current_trial": 9, "trialdata": {"rt": [4923, 9835, 15595], "trial_type": "math-distractor", "key_times": [4020, 4396, 4923, 8909, 9395, 9835, 14332, 15043, 15595], "responses": ["18", "21", "13"], "num2": [3, 9, 6, 4], "num3": [9, 6, 5, 8], "conditions": [18, 1200, "a", 18000], "internal_node_id": "0.0-9.0", "key_presses": [49, 56, 13, 50, 49, 13, 49, 51, 13], "trial": 0, "time_elapsed": 528869, "type": "DISTRACTOR", "trial_index": 9, "num1": [2, 8, 2, 2]}, "uniqueid": "MTK1574:3TVRFO09GLMPAQG913AU3TZ4HQ5XL0", "dateTime": 1516038110400}, {"current_trial": 10, "trialdata": {"rt": -1, "trial_type": "single-stim", "stimulus": "<p id=\"stim\">10</p>", "internal_node_id": "0.0-10.0-0.0", "time_elapsed": 531873, "key_press": -1, "trial_index": 10}, "uniqueid": "MTK1574:3TVRFO09GLMPAQG913AU3TZ4HQ5XL0", "dateTime": 1516038113404}, {"current_trial": 11, "trialdata": {"rt": -1, "trial_type": "single-stim", "stimulus": "<p id=\"stim\">9</p>", "internal_node_id": "0.0-10.0-1.0", "time_elapsed": 532874, "key_press": -1, "trial_index": 11}, "uniqueid": "MTK1574:3TVRFO09GLMPAQG913AU3TZ4HQ5XL0", "dateTime": 1516038114405}, {"current_trial": 12, "trialdata": {"rt": -1, "trial_type": "single-stim", "stimulus": "<p id=\"stim\">8</p>", "internal_node_id": "0.0-10.0-2.0", "time_elapsed": 533875, "key_press": -1, "trial_index": 12}, "uniqueid": "MTK1574:3TVRFO09GLMPAQG913AU3TZ4HQ5XL0", "dateTime": 1516038115406}, {"current_trial": 13, "trialdata": {"rt": -1, "trial_type": "single-stim", "stimulus": "<p id=\"stim\">7</p>", "internal_node_id": "0.0-10.0-3.0", "time_elapsed": 534877, "key_press": -1, "trial_index": 13}, "uniqueid": "MTK1574:3TVRFO09GLMPAQG913AU3TZ4HQ5XL0", "dateTime": 1516038116408}, {"current_trial": 14, "trialdata": {"rt": -1, "trial_type": "single-stim", "stimulus": "<p id=\"stim\">6</p>", "internal_node_id": "0.0-10.0-4.0", "time_elapsed": 535879, "key_press": -1, "trial_index": 14}, "uniqueid": "MTK1574:3TVRFO09GLMPAQG913AU3TZ4HQ5XL0", "dateTime": 1516038117410}, {"current_trial": 15, "trialdata": {"rt": -1, "trial_type": "single-stim", "stimulus": "<p id=\"stim\">5</p>", "internal_node_id": "0.0-10.0-5.0", "time_elapsed": 536880, "key_press": -1, "trial_index": 15}, "uniqueid": "MTK1574:3TVRFO09GLMPAQG913AU3TZ4HQ5XL0", "dateTime": 1516038118411}, {"current_trial": 16, "trialdata": {"rt": -1, "trial_type": "single-stim", "stimulus": "<p id=\"stim\">4</p>", "internal_node_id": "0.0-10.0-6.0", "time_elapsed": 537882, "key_press": -1, "trial_index": 16}, "uniqueid": "MTK1574:3TVRFO09GLMPAQG913AU3TZ4HQ5XL0", "dateTime": 1516038119413}, {"current_trial": 17, "trialdata": {"rt": -1, "trial_type": "single-stim", "stimulus": "<p id=\"stim\">3</p>", "internal_node_id": "0.0-10.0-7.0", "time_elapsed": 538883, "key_press": -1, "trial_index": 17}, "uniqueid": "MTK1574:3TVRFO09GLMPAQG913AU3TZ4HQ5XL0", "dateTime": 1516038120414}, {"current_trial": 18, "trialdata": {"rt": -1, "trial_type": "single-stim", "stimulus": "<p id=\"stim\">2</p>", "internal_node_id": "0.0-10.0-8.0", "time_elapsed": 539885, "key_press": -1, "trial_index": 18}, "uniqueid": "MTK1574:3TVRFO09GLMPAQG913AU3TZ4HQ5XL0", "dateTime": 1516038121416}, {"current_trial": 19, "trialdata": {"rt": -1, "trial_type": "single-stim", "stimulus": "<p id=\"stim\">1</p>", "internal_node_id": "0.0-10.0-9.0", "time_elapsed": 540886, "key_press": -1, "trial_index": 19}, "uniqueid": "MTK1574:3TVRFO09GLMPAQG913AU3TZ4HQ5XL0", "dateTime": 1516038122418}, {"current_trial": 20, "trialdata": {"rt": -1, "trial_type": "single-stim", "stimulus": "<p id=\"stim\">+</p>", "internal_node_id": "0.0-11.0-0.0", "time_elapsed": 542389, "key_press": -1, "type": "FIXATION", "trial_index": 20}, "uniqueid": "MTK1574:3TVRFO09GLMPAQG913AU3TZ4HQ5XL0", "dateTime": 1516038123920}, {"current_trial": 21, "trialdata": {"rt": -1000, "trial_type": "single-audio", "word": "slide", "stimulus": "/static/audio/wordpool/SLIDE.wav", "conditions": [18, 1200, "a", 18000], "internal_node_id": "0.0-12.0", "trial": 0, "time_elapsed": 544569, "serialpos": 0, "key_press": -1, "wordID": 1325, "type": "PRES_AUD", "trial_index": 21}, "uniqueid": "MTK1574:3TVRFO09GLMPAQG913AU3TZ4HQ5XL0", "dateTime": 1516038126100}, {"current_trial": 22, "trialdata": {"rt": -1000, "trial_type": "single-audio", "word": "gift", "stimulus": "/static/audio/wordpool/GIFT.wav", "conditions": [18, 1200, "a", 18000], "internal_node_id": "0.0-13.0", "trial": 0, "time_elapsed": 546654, "serialpos": 1, "key_press": -1, "wordID": 634, "type": "PRES_AUD", "trial_index": 22}, "uniqueid": "MTK1574:3TVRFO09GLMPAQG913AU3TZ4HQ5XL0", "dateTime": 1516038128185}, {"current_trial": 23, "trialdata": {"rt": -1000, "trial_type": "single-audio", "word": "dress", "stimulus": "/static/audio/wordpool/DRESS.wav", "conditions": [18, 1200, "a", 18000], "internal_node_id": "0.0-14.0", "trial": 0, "time_elapsed": 548812, "serialpos": 2, "key_press": -1, "wordID": 494, "type": "PRES_AUD", "trial_index": 23}, "uniqueid": "MTK1574:3TVRFO09GLMPAQG913AU3TZ4HQ5XL0", "dateTime": 1516038130343}, {"current_trial": 24, "trialdata": {"rt": -1000, "trial_type": "single-audio", "word": "france", "stimulus": "/static/audio/wordpool/FRANCE.wav", "conditions": [18, 1200, "a", 18000], "internal_node_id": "0.0-15.0", "trial": 0, "time_elapsed": 550904, "serialpos": 3, "key_press": -1, "wordID": 600, "type": "PRES_AUD", "trial_index": 24}, "uniqueid": "MTK1574:3TVRFO09GLMPAQG913AU3TZ4HQ5XL0", "dateTime": 1516038132435}, {"current_trial": 25, "trialdata": {"rt": -1000, "trial_type": "single-audio", "word": "slope", "stimulus": "/static/audio/wordpool/SLOPE.wav", "conditions": [18, 1200, "a", 18000], "internal_node_id": "0.0-16.0", "trial": 0, "time_elapsed": 552972, "serialpos": 4, "key_press": -1, "wordID": 1327, "type": "PRES_AUD", "trial_index": 25}, "uniqueid": "MTK1574:3TVRFO09GLMPAQG913AU3TZ4HQ5XL0", "dateTime": 1516038134503}, {"current_trial": 26, "trialdata": {"rt": -1000, "trial_type": "single-audio", "word": "scotch", "stimulus": "/static/audio/wordpool/SCOTCH.wav", "conditions": [18, 1200, "a", 18000], "internal_node_id": "0.0-17.0", "trial": 0, "time_elapsed": 555137, "serialpos": 5, "key_press": -1, "wordID": 1250, "type": "PRES_AUD", "trial_index": 26}, "uniqueid": "MTK1574:3TVRFO09GLMPAQG913AU3TZ4HQ5XL0", "dateTime": 1516038136668}, {"current_trial": 27, "trialdata": {"rt": -1000, "trial_type": "single-audio", "word": "motor", "stimulus": "/static/audio/wordpool/MOTOR.wav", "conditions": [18, 1200, "a", 18000], "internal_node_id": "0.0-18.0", "trial": 0, "time_elapsed": 557354, "serialpos": 6, "key_press": -1, "wordID": 921, "type": "PRES_AUD", "trial_index": 27}, "uniqueid": "MTK1574:3TVRFO09GLMPAQG913AU3TZ4HQ5XL0", "dateTime": 1516038138885}, {"current_trial": 28, "trialdata": {"rt": -1000, "trial_type": "single-audio", "word": "slug", "stimulus": "/static/audio/wordpool/SLUG.wav", "conditions": [18, 1200, "a", 18000], "internal_node_id": "0.0-19.0", "trial": 0, "time_elapsed": 559611, "serialpos": 7, "key_press": -1, "wordID": 1328, "type": "PRES_AUD", "trial_index": 28}, "uniqueid": "MTK1574:3TVRFO09GLMPAQG913AU3TZ4HQ5XL0", "dateTime": 1516038141143}, {"current_trial": 29, "trialdata": {"rt": -1000, "trial_type": "single-audio", "word": "cocktail", "stimulus": "/static/audio/wordpool/COCKTAIL.wav", "conditions": [18, 1200, "a", 18000], "internal_node_id": "0.0-20.0", "trial": 0, "time_elapsed": 561615, "serialpos": 8, "key_press": -1, "wordID": 337, "type": "PRES_AUD", "trial_index": 29}, "uniqueid": "MTK1574:3TVRFO09GLMPAQG913AU3TZ4HQ5XL0", "dateTime": 1516038143146}, {"current_trial": 30, "trialdata": {"rt": -1000, "trial_type": "single-audio", "word": "ankle", "stimulus": "/static/audio/wordpool/ANKLE.wav", "conditions": [18, 1200, "a", 18000], "internal_node_id": "0.0-21.0", "trial": 0, "time_elapsed": 563663, "serialpos": 9, "key_press": -1, "wordID": 23, "type": "PRES_AUD", "trial_index": 30}, "uniqueid": "MTK1574:3TVRFO09GLMPAQG913AU3TZ4HQ5XL0", "dateTime": 1516038145195}, {"current_trial": 31, "trialdata": {"rt": -1000, "trial_type": "single-audio", "word": "diver", "stimulus": "/static/audio/wordpool/DIVER.wav", "conditions": [18, 1200, "a", 18000], "internal_node_id": "0.0-22.0", "trial": 0, "time_elapsed": 565896, "serialpos": 10, "key_press": -1, "wordID": 475, "type": "PRES_AUD", "trial_index": 31}, "uniqueid": "MTK1574:3TVRFO09GLMPAQG913AU3TZ4HQ5XL0", "dateTime": 1516038147428}, {"current_trial": 32, "trialdata": {"rt": -1000, "trial_type": "single-audio", "word": "piston", "stimulus": "/static/audio/wordpool/PISTON.wav", "conditions": [18, 1200, "a", 18000], "internal_node_id": "0.0-23.0", "trial": 0, "time_elapsed": 567959, "serialpos": 11, "key_press": -1, "wordID": 1075, "type": "PRES_AUD", "trial_index": 32}, "uniqueid": "MTK1574:3TVRFO09GLMPAQG913AU3TZ4HQ5XL0", "dateTime": 1516038149490}, {"current_trial": 33, "trialdata": {"rt": -1000, "trial_type": "single-audio", "word": "perfume", "stimulus": "/static/audio/wordpool/PERFUME.wav", "conditions": [18, 1200, "a", 18000], "internal_node_id": "0.0-24.0", "trial": 0, "time_elapsed": 570192, "serialpos": 12, "key_press": -1, "wordID": 1048, "type": "PRES_AUD", "trial_index": 33}, "uniqueid": "MTK1574:3TVRFO09GLMPAQG913AU3TZ4HQ5XL0", "dateTime": 1516038151723}, {"current_trial": 34, "trialdata": {"rt": -1000, "trial_type": "single-audio", "word": "crib", "stimulus": "/static/audio/wordpool/CRIB.wav", "conditions": [18, 1200, "a", 18000], "internal_node_id": "0.0-25.0", "trial": 0, "time_elapsed": 572587, "serialpos": 13, "key_press": -1, "wordID": 406, "type": "PRES_AUD", "trial_index": 34}, "uniqueid": "MTK1574:3TVRFO09GLMPAQG913AU3TZ4HQ5XL0", "dateTime": 1516038154118}, {"current_trial": 35, "trialdata": {"rt": -1000, "trial_type": "single-audio", "word": "report", "stimulus": "/static/audio/wordpool/REPORT.wav", "conditions": [18, 1200, "a", 18000], "internal_node_id": "0.0-26.0", "trial": 0, "time_elapsed": 574696, "serialpos": 14, "key_press": -1, "wordID": 1183, "type": "PRES_AUD", "trial_index": 35}, "uniqueid": "MTK1574:3TVRFO09GLMPAQG913AU3TZ4HQ5XL0", "dateTime": 1516038156227}, {"current_trial": 36, "trialdata": {"rt": -1000, "trial_type": "single-audio", "word": "glass", "stimulus": "/static/audio/wordpool/GLASS.wav", "conditions": [18, 1200, "a", 18000], "internal_node_id": "0.0-27.0", "trial": 0, "time_elapsed": 577035, "serialpos": 15, "key_press": -1, "wordID": 638, "type": "PRES_AUD", "trial_index": 36}, "uniqueid": "MTK1574:3TVRFO09GLMPAQG913AU3TZ4HQ5XL0", "dateTime": 1516038158566}, {"current_trial": 37, "trialdata": {"rt": -1000, "trial_type": "single-audio", "word": "goblin", "stimulus": "/static/audio/wordpool/GOBLIN.wav", "conditions": [18, 1200, "a", 18000], "internal_node_id": "0.0-28.0", "trial": 0, "time_elapsed": 579239, "serialpos": 16, "key_press": -1, "wordID": 644, "type": "PRES_AUD", "trial_index": 37}, "uniqueid": "MTK1574:3TVRFO09GLMPAQG913AU3TZ4HQ5XL0", "dateTime": 1516038160770}, {"current_trial": 38, "trialdata": {"rt": -1000, "trial_type": "single-audio", "word": "pistol", "stimulus": "/static/audio/wordpool/PISTOL.wav", "conditions": [18, 1200, "a", 18000], "internal_node_id": "0.0-29.0", "trial": 0, "time_elapsed": 581562, "serialpos": 17, "key_press": -1, "wordID": 1074, "type": "PRES_AUD", "trial_index": 38}, "uniqueid": "MTK1574:3TVRFO09GLMPAQG913AU3TZ4HQ5XL0", "dateTime": 1516038163094}, {"current_trial": 39, "trialdata": {"rt": -1, "trial_type": "single-stim", "stimulus": "", "internal_node_id": "0.0-30.0-0.0", "time_elapsed": 582956, "key_press": -1, "type": "PRE_RECALL_DELAY", "trial_index": 39}, "uniqueid": "MTK1574:3TVRFO09GLMPAQG913AU3TZ4HQ5XL0", "dateTime": 1516038164487}, {"current_trial": 40, "trialdata": {"rt": -1000, "trial_type": "single-audio", "stimulus": "/static/audio/400Hz.wav", "internal_node_id": "0.0-31.0", "time_elapsed": 583457, "key_press": -1, "type": "PRE_RECALL_ALERT", "trial_index": 40}, "uniqueid": "MTK1574:3TVRFO09GLMPAQG913AU3TZ4HQ5XL0", "dateTime": 1516038164988}, {"current_trial": 41, "trialdata": {"rt": [8980, 14851, 19260, 23683, 37507, 46923], "recwords": ["pistol", "goblin", "glass", "fish", "perfume", "kitchen"], "key_times": [5724, 6308, 7108, 7675, 7996, 8307, 8980, 10340, 11140, 11819, 12260, 12651, 13403, 14851, 16100, 16483, 16772, 17348, 17724, 19260, 21123, 21435, 21908, 22283, 23683, 33532, 34019, 34308, 34620, 35219, 35923, 36387, 37507, 44411, 44652, 44963, 45387, 45732, 45979, 46483, 46923, 58396, 58667, 59115, 59467], "trial_type": "free-recall", "conditions": [18, 1200, "a", 18000], "internal_node_id": "0.0-32.0-0.0", "key_presses": [80, 73, 83, 84, 79, 76, 13, 71, 79, 66, 76, 73, 78, 13, 71, 76, 65, 83, 83, 13, 70, 73, 83, 72, 13, 80, 69, 82, 70, 85, 77, 69, 13, 75, 73, 84, 67, 72, 69, 78, 13, 70, 73, 83, 72], "trial": 0, "time_elapsed": 643460, "type": "FREE_RECALL", "trial_index": 41}, "uniqueid": "MTK1574:3TVRFO09GLMPAQG913AU3TZ4HQ5XL0", "dateTime": 1516038224993}, {"current_trial": 42, "trialdata": {"rt": 3559, "trial_type": "text", "internal_node_id": "0.0-33.0", "time_elapsed": 649023, "key_press": 32, "type": "INSTRUCTIONS", "trial_index": 42}, "uniqueid": "MTK1574:3TVRFO09GLMPAQG913AU3TZ4HQ5XL0", "dateTime": 1516038230554}, {"current_trial": 43, "trialdata": {"rt": [3558, 7318, 11086, 14526], "trial_type": "math-distractor", "key_times": [2863, 3174, 3558, 6270, 6855, 7318, 10142, 10551, 11086, 13535, 14094, 14526, 17190, 17758], "responses": ["12", "19", "20", "15"], "num2": [8, 7, 4, 3, 5], "num3": [1, 4, 9, 9, 4], "conditions": [18, 1200, "a", 18000], "internal_node_id": "0.0-34.0", "key_presses": [49, 50, 13, 49, 57, 13, 50, 48, 13, 49, 53, 13, 49, 55], "trial": 1, "time_elapsed": 669025, "type": "DISTRACTOR", "trial_index": 43, "num1": [3, 8, 7, 3, 8]}, "uniqueid": "MTK1574:3TVRFO09GLMPAQG913AU3TZ4HQ5XL0", "dateTime": 1516038250556}, {"current_trial": 44, "trialdata": {"rt": -1, "trial_type": "single-stim", "stimulus": "<p id=\"stim\">10</p>", "internal_node_id": "0.0-35.0-0.0", "time_elapsed": 672028, "key_press": -1, "trial_index": 44}, "uniqueid": "MTK1574:3TVRFO09GLMPAQG913AU3TZ4HQ5XL0", "dateTime": 1516038253559}, {"current_trial": 45, "trialdata": {"rt": -1, "trial_type": "single-stim", "stimulus": "<p id=\"stim\">9</p>", "internal_node_id": "0.0-35.0-1.0", "time_elapsed": 673029, "key_press": -1, "trial_index": 45}, "uniqueid": "MTK1574:3TVRFO09GLMPAQG913AU3TZ4HQ5XL0", "dateTime": 1516038254561}, {"current_trial": 46, "trialdata": {"rt": -1, "trial_type": "single-stim", "stimulus": "<p id=\"stim\">8</p>", "internal_node_id": "0.0-35.0-2.0", "time_elapsed": 674031, "key_press": -1, "trial_index": 46}, "uniqueid": "MTK1574:3TVRFO09GLMPAQG913AU3TZ4HQ5XL0", "dateTime": 1516038255562}, {"current_trial": 47, "trialdata": {"rt": -1, "trial_type": "single-stim", "stimulus": "<p id=\"stim\">7</p>", "internal_node_id": "0.0-35.0-3.0", "time_elapsed": 675034, "key_press": -1, "trial_index": 47}, "uniqueid": "MTK1574:3TVRFO09GLMPAQG913AU3TZ4HQ5XL0", "dateTime": 1516038256565}, {"current_trial": 48, "trialdata": {"rt": -1, "trial_type": "single-stim", "stimulus": "<p id=\"stim\">6</p>", "internal_node_id": "0.0-35.0-4.0", "time_elapsed": 676036, "key_press": -1, "trial_index": 48}, "uniqueid": "MTK1574:3TVRFO09GLMPAQG913AU3TZ4HQ5XL0", "dateTime": 1516038257567}, {"current_trial": 49, "trialdata": {"rt": -1, "trial_type": "single-stim", "stimulus": "<p id=\"stim\">5</p>", "internal_node_id": "0.0-35.0-5.0", "time_elapsed": 677037, "key_press": -1, "trial_index": 49}, "uniqueid": "MTK1574:3TVRFO09GLMPAQG913AU3TZ4HQ5XL0", "dateTime": 1516038258569}, {"current_trial": 50, "trialdata": {"rt": -1, "trial_type": "single-stim", "stimulus": "<p id=\"stim\">4</p>", "internal_node_id": "0.0-35.0-6.0", "time_elapsed": 678038, "key_press": -1, "trial_index": 50}, "uniqueid": "MTK1574:3TVRFO09GLMPAQG913AU3TZ4HQ5XL0", "dateTime": 1516038259570}, {"current_trial": 51, "trialdata": {"rt": -1, "trial_type": "single-stim", "stimulus": "<p id=\"stim\">3</p>", "internal_node_id": "0.0-35.0-7.0", "time_elapsed": 679040, "key_press": -1, "trial_index": 51}, "uniqueid": "MTK1574:3TVRFO09GLMPAQG913AU3TZ4HQ5XL0", "dateTime": 1516038260571}, {"current_trial": 52, "trialdata": {"rt": -1, "trial_type": "single-stim", "stimulus": "<p id=\"stim\">2</p>", "internal_node_id": "0.0-35.0-8.0", "time_elapsed": 680041, "key_press": -1, "trial_index": 52}, "uniqueid": "MTK1574:3TVRFO09GLMPAQG913AU3TZ4HQ5XL0", "dateTime": 1516038261572}, {"current_trial": 53, "trialdata": {"rt": -1, "trial_type": "single-stim", "stimulus": "<p id=\"stim\">1</p>", "internal_node_id": "0.0-35.0-9.0", "time_elapsed": 681043, "key_press": -1, "trial_index": 53}, "uniqueid": "MTK1574:3TVRFO09GLMPAQG913AU3TZ4HQ5XL0", "dateTime": 1516038262574}, {"current_trial": 54, "trialdata": {"rt": -1, "trial_type": "single-stim", "stimulus": "<p id=\"stim\">+</p>", "internal_node_id": "0.0-36.0-0.0", "time_elapsed": 682544, "key_press": -1, "type": "FIXATION", "trial_index": 54}, "uniqueid": "MTK1574:3TVRFO09GLMPAQG913AU3TZ4HQ5XL0", "dateTime": 1516038264075}, {"current_trial": 55, "trialdata": {"rt": -1000, "trial_type": "single-audio", "word": "church", "stimulus": "/static/audio/wordpool/CHURCH.wav", "conditions": [18, 1200, "a", 18000], "internal_node_id": "0.0-37.0", "trial": 1, "time_elapsed": 684762, "serialpos": 0, "key_press": -1, "wordID": 306, "type": "PRES_AUD", "trial_index": 55}, "uniqueid": "MTK1574:3TVRFO09GLMPAQG913AU3TZ4HQ5XL0", "dateTime": 1516038266293}, {"current_trial": 56, "trialdata": {"rt": -1000, "trial_type": "single-audio", "word": "tombstone", "stimulus": "/static/audio/wordpool/TOMBSTONE.wav", "conditions": [18, 1200, "a", 18000], "internal_node_id": "0.0-38.0", "trial": 1, "time_elapsed": 686825, "serialpos": 1, "key_press": -1, "wordID": 1477, "type": "PRES_AUD", "trial_index": 56}, "uniqueid": "MTK1574:3TVRFO09GLMPAQG913AU3TZ4HQ5XL0", "dateTime": 1516038268356}, {"current_trial": 57, "trialdata": {"rt": -1000, "trial_type": "single-audio", "word": "statue", "stimulus": "/static/audio/wordpool/STATUE.wav", "conditions": [18, 1200, "a", 18000], "internal_node_id": "0.0-39.0", "trial": 1, "time_elapsed": 689013, "serialpos": 2, "key_press": -1, "wordID": 1373, "type": "PRES_AUD", "trial_index": 57}, "uniqueid": "MTK1574:3TVRFO09GLMPAQG913AU3TZ4HQ5XL0", "dateTime": 1516038270544}, {"current_trial": 58, "trialdata": {"rt": -1000, "trial_type": "single-audio", "word": "chemist", "stimulus": "/static/audio/wordpool/CHEMIST.wav", "conditions": [18, 1200, "a", 18000], "internal_node_id": "0.0-40.0", "trial": 1, "time_elapsed": 691079, "serialpos": 3, "key_press": -1, "wordID": 291, "type": "PRES_AUD", "trial_index": 58}, "uniqueid": "MTK1574:3TVRFO09GLMPAQG913AU3TZ4HQ5XL0", "dateTime": 1516038272610}, {"current_trial": 59, "trialdata": {"rt": -1000, "trial_type": "single-audio", "word": "lamp", "stimulus": "/static/audio/wordpool/LAMP.wav", "conditions": [18, 1200, "a", 18000], "internal_node_id": "0.0-41.0", "trial": 1, "time_elapsed": 693123, "serialpos": 4, "key_press": -1, "wordID": 797, "type": "PRES_AUD", "trial_index": 59}, "uniqueid": "MTK1574:3TVRFO09GLMPAQG913AU3TZ4HQ5XL0", "dateTime": 1516038274654}, {"current_trial": 60, "trialdata": {"rt": -1000, "trial_type": "single-audio", "word": "camel", "stimulus": "/static/audio/wordpool/CAMEL.wav", "conditions": [18, 1200, "a", 18000], "internal_node_id": "0.0-42.0", "trial": 1, "time_elapsed": 695408, "serialpos": 5, "key_press": -1, "wordID": 222, "type": "PRES_AUD", "trial_index": 60}, "uniqueid": "MTK1574:3TVRFO09GLMPAQG913AU3TZ4HQ5XL0", "dateTime": 1516038276939}, {"current_trial": 61, "trialdata": {"rt": -1000, "trial_type": "single-audio", "word": "queen", "stimulus": "/static/audio/wordpool/QUEEN.wav", "conditions": [18, 1200, "a", 18000], "internal_node_id": "0.0-43.0", "trial": 1, "time_elapsed": 697704, "serialpos": 6, "key_press": -1, "wordID": 1148, "type": "PRES_AUD", "trial_index": 61}, "uniqueid": "MTK1574:3TVRFO09GLMPAQG913AU3TZ4HQ5XL0", "dateTime": 1516038279235}, {"current_trial": 62, "trialdata": {"rt": -1000, "trial_type": "single-audio", "word": "husband", "stimulus": "/static/audio/wordpool/HUSBAND.wav", "conditions": [18, 1200, "a", 18000], "internal_node_id": "0.0-44.0", "trial": 1, "time_elapsed": 700038, "serialpos": 7, "key_press": -1, "wordID": 727, "type": "PRES_AUD", "trial_index": 62}, "uniqueid": "MTK1574:3TVRFO09GLMPAQG913AU3TZ4HQ5XL0", "dateTime": 1516038281569}, {"current_trial": 63, "trialdata": {"rt": -1000, "trial_type": "single-audio", "word": "rooster", "stimulus": "/static/audio/wordpool/ROOSTER.wav", "conditions": [18, 1200, "a", 18000], "internal_node_id": "0.0-45.0", "trial": 1, "time_elapsed": 702104, "serialpos": 8, "key_press": -1, "wordID": 1208, "type": "PRES_AUD", "trial_index": 63}, "uniqueid": "MTK1574:3TVRFO09GLMPAQG913AU3TZ4HQ5XL0", "dateTime": 1516038283635}, {"current_trial": 64, "trialdata": {"rt": -1000, "trial_type": "single-audio", "word": "rocket", "stimulus": "/static/audio/wordpool/ROCKET.wav", "conditions": [18, 1200, "a", 18000], "internal_node_id": "0.0-46.0", "trial": 1, "time_elapsed": 704137, "serialpos": 9, "key_press": -1, "wordID": 1201, "type": "PRES_AUD", "trial_index": 64}, "uniqueid": "MTK1574:3TVRFO09GLMPAQG913AU3TZ4HQ5XL0", "dateTime": 1516038285668}, {"current_trial": 65, "trialdata": {"rt": -1000, "trial_type": "single-audio", "word": "tablet", "stimulus": "/static/audio/wordpool/TABLET.wav", "conditions": [18, 1200, "a", 18000], "internal_node_id": "0.0-47.0", "trial": 1, "time_elapsed": 706188, "serialpos": 10, "key_press": -1, "wordID": 1426, "type": "PRES_AUD", "trial_index": 65}, "uniqueid": "MTK1574:3TVRFO09GLMPAQG913AU3TZ4HQ5XL0", "dateTime": 1516038287719}, {"current_trial": 66, "trialdata": {"rt": -1000, "trial_type": "single-audio", "word": "banker", "stimulus": "/static/audio/wordpool/BANKER.wav", "conditions": [18, 1200, "a", 18000], "internal_node_id": "0.0-48.0", "trial": 1, "time_elapsed": 708438, "serialpos": 11, "key_press": -1, "wordID": 83, "type": "PRES_AUD", "trial_index": 66}, "uniqueid": "MTK1574:3TVRFO09GLMPAQG913AU3TZ4HQ5XL0", "dateTime": 1516038289969}, {"current_trial": 67, "trialdata": {"rt": -1000, "trial_type": "single-audio", "word": "uncle", "stimulus": "/static/audio/wordpool/UNCLE.wav", "conditions": [18, 1200, "a", 18000], "internal_node_id": "0.0-49.0", "trial": 1, "time_elapsed": 710580, "serialpos": 12, "key_press": -1, "wordID": 1535, "type": "PRES_AUD", "trial_index": 67}, "uniqueid": "MTK1574:3TVRFO09GLMPAQG913AU3TZ4HQ5XL0", "dateTime": 1516038292111}, {"current_trial": 68, "trialdata": {"rt": -1000, "trial_type": "single-audio", "word": "lodge", "stimulus": "/static/audio/wordpool/LODGE.wav", "conditions": [18, 1200, "a", 18000], "internal_node_id": "0.0-50.0", "trial": 1, "time_elapsed": 712617, "serialpos": 13, "key_press": -1, "wordID": 838, "type": "PRES_AUD", "trial_index": 68}, "uniqueid": "MTK1574:3TVRFO09GLMPAQG913AU3TZ4HQ5XL0", "dateTime": 1516038294150}, {"current_trial": 69, "trialdata": {"rt": -1000, "trial_type": "single-audio", "word": "partner", "stimulus": "/static/audio/wordpool/PARTNER.wav", "conditions": [18, 1200, "a", 18000], "internal_node_id": "0.0-51.0", "trial": 1, "time_elapsed": 714713, "serialpos": 14, "key_press": -1, "wordID": 1016, "type": "PRES_AUD", "trial_index": 69}, "uniqueid": "MTK1574:3TVRFO09GLMPAQG913AU3TZ4HQ5XL0", "dateTime": 1516038296244}, {"current_trial": 70, "trialdata": {"rt": -1000, "trial_type": "single-audio", "word": "mummy", "stimulus": "/static/audio/wordpool/MUMMY.wav", "conditions": [18, 1200, "a", 18000], "internal_node_id": "0.0-52.0", "trial": 1, "time_elapsed": 716764, "serialpos": 15, "key_press": -1, "wordID": 931, "type": "PRES_AUD", "trial_index": 70}, "uniqueid": "MTK1574:3TVRFO09GLMPAQG913AU3TZ4HQ5XL0", "dateTime": 1516038298295}, {"current_trial": 71, "trialdata": {"rt": -1000, "trial_type": "single-audio", "word": "turkey", "stimulus": "/static/audio/wordpool/TURKEY.wav", "conditions": [18, 1200, "a", 18000], "internal_node_id": "0.0-53.0", "trial": 1, "time_elapsed": 718797, "serialpos": 16, "key_press": -1, "wordID": 1519, "type": "PRES_AUD", "trial_index": 71}, "uniqueid": "MTK1574:3TVRFO09GLMPAQG913AU3TZ4HQ5XL0", "dateTime": 1516038300329}, {"current_trial": 72, "trialdata": {"rt": -1000, "trial_type": "single-audio", "word": "whistle", "stimulus": "/static/audio/wordpool/WHISTLE.wav", "conditions": [18, 1200, "a", 18000], "internal_node_id": "0.0-54.0", "trial": 1, "time_elapsed": 721173, "serialpos": 17, "key_press": -1, "wordID": 1605, "type": "PRES_AUD", "trial_index": 72}, "uniqueid": "MTK1574:3TVRFO09GLMPAQG913AU3TZ4HQ5XL0", "dateTime": 1516038302704}, {"current_trial": 73, "trialdata": {"rt": -1, "trial_type": "single-stim", "stimulus": "", "internal_node_id": "0.0-55.0-0.0", "time_elapsed": 722435, "key_press": -1, "type": "PRE_RECALL_DELAY", "trial_index": 73}, "uniqueid": "MTK1574:3TVRFO09GLMPAQG913AU3TZ4HQ5XL0", "dateTime": 1516038303966}, {"current_trial": 74, "trialdata": {"rt": -1000, "trial_type": "single-audio", "stimulus": "/static/audio/400Hz.wav", "internal_node_id": "0.0-56.0", "time_elapsed": 722936, "key_press": -1, "type": "PRE_RECALL_ALERT", "trial_index": 74}, "uniqueid": "MTK1574:3TVRFO09GLMPAQG913AU3TZ4HQ5XL0", "dateTime": 1516038304467}, {"current_trial": 75, "trialdata": {"rt": [12005, 17581, 24725, 34861, 41053, 48861], "recwords": ["mummy", "partner", "pistol", "tablet", "rooster", "mural"], "key_times": [2509, 2941, 3765, 3901, 4781, 6222, 7853, 10917, 12005, 12973, 13805, 14357, 14797, 15301, 15717, 16221, 17581, 19365, 20670, 22165, 22613, 22941, 23637, 24725, 32461, 32909, 33325, 33829, 34277, 34557, 34861, 37327, 37861, 38021, 38709, 39069, 39581, 39965, 41053, 47205, 47605, 47918, 48213, 48406, 48861], "trial_type": "free-recall", "conditions": [18, 1200, "a", 18000], "internal_node_id": "0.0-57.0-0.0", "key_presses": [77, 85, 77, 77, 85, 37, 89, 46, 13, 80, 65, 82, 84, 78, 69, 82, 13, 80, 73, 83, 84, 79, 76, 13, 84, 65, 66, 76, 69, 84, 13, 82, 79, 79, 83, 84, 69, 82, 13, 77, 85, 82, 65, 76, 13], "trial": 1, "time_elapsed": 782939, "type": "FREE_RECALL", "trial_index": 75}, "uniqueid": "MTK1574:3TVRFO09GLMPAQG913AU3TZ4HQ5XL0", "dateTime": 1516038364472}, {"current_trial": 76, "trialdata": {"rt": 4713, "trial_type": "text", "internal_node_id": "0.0-58.0", "time_elapsed": 789655, "key_press": 32, "type": "INSTRUCTIONS", "trial_index": 76}, "uniqueid": "MTK1574:3TVRFO09GLMPAQG913AU3TZ4HQ5XL0", "dateTime": 1516038371186}, {"current_trial": 77, "trialdata": {"rt": [3453, 6885, 10381], "trial_type": "math-distractor", "key_times": [2198, 2781, 3453, 5813, 6357, 6885, 9805, 9989, 10381], "responses": ["15", "14", "22"], "num2": [6, 5, 6, 7], "num3": [6, 5, 7, 3], "conditions": [24, 800, "a", 12000], "internal_node_id": "0.0-59.0", "key_presses": [49, 53, 13, 49, 52, 13, 50, 50, 13], "trial": 2, "time_elapsed": 802658, "type": "DISTRACTOR", "trial_index": 77, "num1": [3, 4, 9, 2]}, "uniqueid": "MTK1574:3TVRFO09GLMPAQG913AU3TZ4HQ5XL0", "dateTime": 1516038384189}, {"current_trial": 78, "trialdata": {"rt": -1, "trial_type": "single-stim", "stimulus": "<p id=\"stim\">10</p>", "internal_node_id": "0.0-60.0-0.0", "time_elapsed": 805661, "key_press": -1, "trial_index": 78}, "uniqueid": "MTK1574:3TVRFO09GLMPAQG913AU3TZ4HQ5XL0", "dateTime": 1516038387192}, {"current_trial": 79, "trialdata": {"rt": -1, "trial_type": "single-stim", "stimulus": "<p id=\"stim\">9</p>", "internal_node_id": "0.0-60.0-1.0", "time_elapsed": 806663, "key_press": -1, "trial_index": 79}, "uniqueid": "MTK1574:3TVRFO09GLMPAQG913AU3TZ4HQ5XL0", "dateTime": 1516038388194}, {"current_trial": 80, "trialdata": {"rt": -1, "trial_type": "single-stim", "stimulus": "<p id=\"stim\">8</p>", "internal_node_id": "0.0-60.0-2.0", "time_elapsed": 807664, "key_press": -1, "trial_index": 80}, "uniqueid": "MTK1574:3TVRFO09GLMPAQG913AU3TZ4HQ5XL0", "dateTime": 1516038389195}, {"current_trial": 81, "trialdata": {"rt": -1, "trial_type": "single-stim", "stimulus": "<p id=\"stim\">7</p>", "internal_node_id": "0.0-60.0-3.0", "time_elapsed": 808665, "key_press": -1, "trial_index": 81}, "uniqueid": "MTK1574:3TVRFO09GLMPAQG913AU3TZ4HQ5XL0", "dateTime": 1516038390196}, {"current_trial": 82, "trialdata": {"rt": -1, "trial_type": "single-stim", "stimulus": "<p id=\"stim\">6</p>", "internal_node_id": "0.0-60.0-4.0", "time_elapsed": 809667, "key_press": -1, "trial_index": 82}, "uniqueid": "MTK1574:3TVRFO09GLMPAQG913AU3TZ4HQ5XL0", "dateTime": 1516038391198}, {"current_trial": 83, "trialdata": {"rt": -1, "trial_type": "single-stim", "stimulus": "<p id=\"stim\">5</p>", "internal_node_id": "0.0-60.0-5.0", "time_elapsed": 810669, "key_press": -1, "trial_index": 83}, "uniqueid": "MTK1574:3TVRFO09GLMPAQG913AU3TZ4HQ5XL0", "dateTime": 1516038392200}, {"current_trial": 84, "trialdata": {"rt": -1, "trial_type": "single-stim", "stimulus": "<p id=\"stim\">4</p>", "internal_node_id": "0.0-60.0-6.0", "time_elapsed": 811670, "key_press": -1, "trial_index": 84}, "uniqueid": "MTK1574:3TVRFO09GLMPAQG913AU3TZ4HQ5XL0", "dateTime": 1516038393201}, {"current_trial": 85, "trialdata": {"rt": -1, "trial_type": "single-stim", "stimulus": "<p id=\"stim\">3</p>", "internal_node_id": "0.0-60.0-7.0", "time_elapsed": 812671, "key_press": -1, "trial_index": 85}, "uniqueid": "MTK1574:3TVRFO09GLMPAQG913AU3TZ4HQ5XL0", "dateTime": 1516038394202}, {"current_trial": 86, "trialdata": {"rt": -1, "trial_type": "single-stim", "stimulus": "<p id=\"stim\">2</p>", "internal_node_id": "0.0-60.0-8.0", "time_elapsed": 813672, "key_press": -1, "trial_index": 86}, "uniqueid": "MTK1574:3TVRFO09GLMPAQG913AU3TZ4HQ5XL0", "dateTime": 1516038395203}, {"current_trial": 87, "trialdata": {"rt": -1, "trial_type": "single-stim", "stimulus": "<p id=\"stim\">1</p>", "internal_node_id": "0.0-60.0-9.0", "time_elapsed": 814673, "key_press": -1, "trial_index": 87}, "uniqueid": "MTK1574:3TVRFO09GLMPAQG913AU3TZ4HQ5XL0", "dateTime": 1516038396205}, {"current_trial": 88, "trialdata": {"rt": -1, "trial_type": "single-stim", "stimulus": "<p id=\"stim\">+</p>", "internal_node_id": "0.0-61.0-0.0", "time_elapsed": 816174, "key_press": -1, "type": "FIXATION", "trial_index": 88}, "uniqueid": "MTK1574:3TVRFO09GLMPAQG913AU3TZ4HQ5XL0", "dateTime": 1516038397705}, {"current_trial": 89, "trialdata": {"rt": -1000, "trial_type": "single-audio", "word": "shirt", "stimulus": "/static/audio/wordpool/SHIRT.wav", "conditions": [24, 800, "a", 12000], "internal_node_id": "0.0-62.0", "trial": 2, "time_elapsed": 817901, "serialpos": 0, "key_press": -1, "wordID": 1286, "type": "PRES_AUD", "trial_index": 89}, "uniqueid": "MTK1574:3TVRFO09GLMPAQG913AU3TZ4HQ5XL0", "dateTime": 1516038399432}, {"current_trial": 90, "trialdata": {"rt": -1000, "trial_type": "single-audio", "word": "skirt", "stimulus": "/static/audio/wordpool/SKIRT.wav", "conditions": [24, 800, "a", 12000], "internal_node_id": "0.0-63.0", "trial": 2, "time_elapsed": 819683, "serialpos": 1, "key_press": -1, "wordID": 1318, "type": "PRES_AUD", "trial_index": 90}, "uniqueid": "MTK1574:3TVRFO09GLMPAQG913AU3TZ4HQ5XL0", "dateTime": 1516038401214}, {"current_trial": 91, "trialdata": {"rt": -1000, "trial_type": "single-audio", "word": "knife", "stimulus": "/static/audio/wordpool/KNIFE.wav", "conditions": [24, 800, "a", 12000], "internal_node_id": "0.0-64.0", "trial": 2, "time_elapsed": 821620, "serialpos": 2, "key_press": -1, "wordID": 784, "type": "PRES_AUD", "trial_index": 91}, "uniqueid": "MTK1574:3TVRFO09GLMPAQG913AU3TZ4HQ5XL0", "dateTime": 1516038403151}, {"current_trial": 92, "trialdata": {"rt": -1000, "trial_type": "single-audio", "word": "headband", "stimulus": "/static/audio/wordpool/HEADBAND.wav", "conditions": [24, 800, "a", 12000], "internal_node_id": "0.0-65.0", "trial": 2, "time_elapsed": 823265, "serialpos": 3, "key_press": -1, "wordID": 695, "type": "PRES_AUD", "trial_index": 92}, "uniqueid": "MTK1574:3TVRFO09GLMPAQG913AU3TZ4HQ5XL0", "dateTime": 1516038404796}, {"current_trial": 93, "trialdata": {"rt": -1000, "trial_type": "single-audio", "word": "donor", "stimulus": "/static/audio/wordpool/DONOR.wav", "conditions": [24, 800, "a", 12000], "internal_node_id": "0.0-66.0", "trial": 2, "time_elapsed": 825025, "serialpos": 4, "key_press": -1, "wordID": 484, "type": "PRES_AUD", "trial_index": 93}, "uniqueid": "MTK1574:3TVRFO09GLMPAQG913AU3TZ4HQ5XL0", "dateTime": 1516038406556}, {"current_trial": 94, "trialdata": {"rt": -1000, "trial_type": "single-audio", "word": "mammal", "stimulus": "/static/audio/wordpool/MAMMAL.wav", "conditions": [24, 800, "a", 12000], "internal_node_id": "0.0-67.0", "trial": 2, "time_elapsed": 826762, "serialpos": 5, "key_press": -1, "wordID": 860, "type": "PRES_AUD", "trial_index": 94}, "uniqueid": "MTK1574:3TVRFO09GLMPAQG913AU3TZ4HQ5XL0", "dateTime": 1516038408293}, {"current_trial": 95, "trialdata": {"rt": -1000, "trial_type": "single-audio", "word": "dresser", "stimulus": "/static/audio/wordpool/DRESSER.wav", "conditions": [24, 800, "a", 12000], "internal_node_id": "0.0-68.0", "trial": 2, "time_elapsed": 828525, "serialpos": 6, "key_press": -1, "wordID": 495, "type": "PRES_AUD", "trial_index": 95}, "uniqueid": "MTK1574:3TVRFO09GLMPAQG913AU3TZ4HQ5XL0", "dateTime": 1516038410056}, {"current_trial": 96, "trialdata": {"rt": -1000, "trial_type": "single-audio", "word": "honey", "stimulus": "/static/audio/wordpool/HONEY.wav", "conditions": [24, 800, "a", 12000], "internal_node_id": "0.0-69.0", "trial": 2, "time_elapsed": 830300, "serialpos": 7, "key_press": -1, "wordID": 712, "type": "PRES_AUD", "trial_index": 96}, "uniqueid": "MTK1574:3TVRFO09GLMPAQG913AU3TZ4HQ5XL0", "dateTime": 1516038411831}, {"current_trial": 97, "trialdata": {"rt": -1000, "trial_type": "single-audio", "word": "grape", "stimulus": "/static/audio/wordpool/GRAPE.wav", "conditions": [24, 800, "a", 12000], "internal_node_id": "0.0-70.0", "trial": 2, "time_elapsed": 832215, "serialpos": 8, "key_press": -1, "wordID": 653, "type": "PRES_AUD", "trial_index": 97}, "uniqueid": "MTK1574:3TVRFO09GLMPAQG913AU3TZ4HQ5XL0", "dateTime": 1516038413746}, {"current_trial": 98, "trialdata": {"rt": -1000, "trial_type": "single-audio", "word": "agent", "stimulus": "/static/audio/wordpool/AGENT.wav", "conditions": [24, 800, "a", 12000], "internal_node_id": "0.0-71.0", "trial": 2, "time_elapsed": 833950, "serialpos": 9, "key_press": -1, "wordID": 9, "type": "PRES_AUD", "trial_index": 98}, "uniqueid": "MTK1574:3TVRFO09GLMPAQG913AU3TZ4HQ5XL0", "dateTime": 1516038415481}, {"current_trial": 99, "trialdata": {"rt": -1000, "trial_type": "single-audio", "word": "stallion", "stimulus": "/static/audio/wordpool/STALLION.wav", "conditions": [24, 800, "a", 12000], "internal_node_id": "0.0-72.0", "trial": 2, "time_elapsed": 835933, "serialpos": 10, "key_press": -1, "wordID": 1368, "type": "PRES_AUD", "trial_index": 99}, "uniqueid": "MTK1574:3TVRFO09GLMPAQG913AU3TZ4HQ5XL0", "dateTime": 1516038417464}, {"current_trial": 100, "trialdata": {"rt": -1000, "trial_type": "single-audio", "word": "maple", "stimulus": "/static/audio/wordpool/MAPLE.wav", "conditions": [24, 800, "a", 12000], "internal_node_id": "0.0-73.0", "trial": 2, "time_elapsed": 837670, "serialpos": 11, "key_press": -1, "wordID": 865, "type": "PRES_AUD", "trial_index": 100}, "uniqueid": "MTK1574:3TVRFO09GLMPAQG913AU3TZ4HQ5XL0", "dateTime": 1516038419201}, {"current_trial": 101, "trialdata": {"rt": -1000, "trial_type": "single-audio", "word": "table", "stimulus": "/static/audio/wordpool/TABLE.wav", "conditions": [24, 800, "a", 12000], "internal_node_id": "0.0-74.0", "trial": 2, "time_elapsed": 839629, "serialpos": 12, "key_press": -1, "wordID": 1425, "type": "PRES_AUD", "trial_index": 101}, "uniqueid": "MTK1574:3TVRFO09GLMPAQG913AU3TZ4HQ5XL0", "dateTime": 1516038421160}, {"current_trial": 102, "trialdata": {"rt": -1000, "trial_type": "single-audio", "word": "concert", "stimulus": "/static/audio/wordpool/CONCERT.wav", "conditions": [24, 800, "a", 12000], "internal_node_id": "0.0-75.0", "trial": 2, "time_elapsed": 841277, "serialpos": 13, "key_press": -1, "wordID": 359, "type": "PRES_AUD", "trial_index": 102}, "uniqueid": "MTK1574:3TVRFO09GLMPAQG913AU3TZ4HQ5XL0", "dateTime": 1516038422808}, {"current_trial": 103, "trialdata": {"rt": -1000, "trial_type": "single-audio", "word": "student", "stimulus": "/static/audio/wordpool/STUDENT.wav", "conditions": [24, 800, "a", 12000], "internal_node_id": "0.0-76.0", "trial": 2, "time_elapsed": 843193, "serialpos": 14, "key_press": -1, "wordID": 1394, "type": "PRES_AUD", "trial_index": 103}, "uniqueid": "MTK1574:3TVRFO09GLMPAQG913AU3TZ4HQ5XL0", "dateTime": 1516038424724}, {"current_trial": 104, "trialdata": {"rt": -1000, "trial_type": "single-audio", "word": "college", "stimulus": "/static/audio/wordpool/COLLEGE.wav", "conditions": [24, 800, "a", 12000], "internal_node_id": "0.0-77.0", "trial": 2, "time_elapsed": 845086, "serialpos": 15, "key_press": -1, "wordID": 345, "type": "PRES_AUD", "trial_index": 104}, "uniqueid": "MTK1574:3TVRFO09GLMPAQG913AU3TZ4HQ5XL0", "dateTime": 1516038426618}, {"current_trial": 105, "trialdata": {"rt": -1000, "trial_type": "single-audio", "word": "tuba", "stimulus": "/static/audio/wordpool/TUBA.wav", "conditions": [24, 800, "a", 12000], "internal_node_id": "0.0-78.0", "trial": 2, "time_elapsed": 846758, "serialpos": 16, "key_press": -1, "wordID": 1514, "type": "PRES_AUD", "trial_index": 105}, "uniqueid": "MTK1574:3TVRFO09GLMPAQG913AU3TZ4HQ5XL0", "dateTime": 1516038428289}, {"current_trial": 106, "trialdata": {"rt": -1000, "trial_type": "single-audio", "word": "banjo", "stimulus": "/static/audio/wordpool/BANJO.wav", "conditions": [24, 800, "a", 12000], "internal_node_id": "0.0-79.0", "trial": 2, "time_elapsed": 848595, "serialpos": 17, "key_press": -1, "wordID": 81, "type": "PRES_AUD", "trial_index": 106}, "uniqueid": "MTK1574:3TVRFO09GLMPAQG913AU3TZ4HQ5XL0", "dateTime": 1516038430126}, {"current_trial": 107, "trialdata": {"rt": -1000, "trial_type": "single-audio", "word": "flashlight", "stimulus": "/static/audio/wordpool/FLASHLIGHT.wav", "conditions": [24, 800, "a", 12000], "internal_node_id": "0.0-80.0", "trial": 2, "time_elapsed": 850218, "serialpos": 18, "key_press": -1, "wordID": 574, "type": "PRES_AUD", "trial_index": 107}, "uniqueid": "MTK1574:3TVRFO09GLMPAQG913AU3TZ4HQ5XL0", "dateTime": 1516038431749}, {"current_trial": 108, "trialdata": {"rt": -1000, "trial_type": "single-audio", "word": "paddle", "stimulus": "/static/audio/wordpool/PADDLE.wav", "conditions": [24, 800, "a", 12000], "internal_node_id": "0.0-81.0", "trial": 2, "time_elapsed": 852184, "serialpos": 19, "key_press": -1, "wordID": 999, "type": "PRES_AUD", "trial_index": 108}, "uniqueid": "MTK1574:3TVRFO09GLMPAQG913AU3TZ4HQ5XL0", "dateTime": 1516038433715}, {"current_trial": 109, "trialdata": {"rt": -1000, "trial_type": "single-audio", "word": "couch", "stimulus": "/static/audio/wordpool/COUCH.wav", "conditions": [24, 800, "a", 12000], "internal_node_id": "0.0-82.0", "trial": 2, "time_elapsed": 853818, "serialpos": 20, "key_press": -1, "wordID": 385, "type": "PRES_AUD", "trial_index": 109}, "uniqueid": "MTK1574:3TVRFO09GLMPAQG913AU3TZ4HQ5XL0", "dateTime": 1516038435349}, {"current_trial": 110, "trialdata": {"rt": -1000, "trial_type": "single-audio", "word": "atom", "stimulus": "/static/audio/wordpool/ATOM.wav", "conditions": [24, 800, "a", 12000], "internal_node_id": "0.0-83.0", "trial": 2, "time_elapsed": 855759, "serialpos": 21, "key_press": -1, "wordID": 54, "type": "PRES_AUD", "trial_index": 110}, "uniqueid": "MTK1574:3TVRFO09GLMPAQG913AU3TZ4HQ5XL0", "dateTime": 1516038437290}, {"current_trial": 111, "trialdata": {"rt": -1000, "trial_type": "single-audio", "word": "crater", "stimulus": "/static/audio/wordpool/CRATER.wav", "conditions": [24, 800, "a", 12000], "internal_node_id": "0.0-84.0", "trial": 2, "time_elapsed": 857681, "serialpos": 22, "key_press": -1, "wordID": 399, "type": "PRES_AUD", "trial_index": 111}, "uniqueid": "MTK1574:3TVRFO09GLMPAQG913AU3TZ4HQ5XL0", "dateTime": 1516038439212}, {"current_trial": 112, "trialdata": {"rt": -1000, "trial_type": "single-audio", "word": "guitar", "stimulus": "/static/audio/wordpool/GUITAR.wav", "conditions": [24, 800, "a", 12000], "internal_node_id": "0.0-85.0", "trial": 2, "time_elapsed": 859462, "serialpos": 23, "key_press": -1, "wordID": 669, "type": "PRES_AUD", "trial_index": 112}, "uniqueid": "MTK1574:3TVRFO09GLMPAQG913AU3TZ4HQ5XL0", "dateTime": 1516038440993}, {"current_trial": 113, "trialdata": {"rt": -1, "trial_type": "single-stim", "stimulus": "", "internal_node_id": "0.0-86.0-0.0", "time_elapsed": 860823, "key_press": -1, "type": "PRE_RECALL_DELAY", "trial_index": 113}, "uniqueid": "MTK1574:3TVRFO09GLMPAQG913AU3TZ4HQ5XL0", "dateTime": 1516038442354}, {"current_trial": 114, "trialdata": {"rt": -1000, "trial_type": "single-audio", "stimulus": "/static/audio/400Hz.wav", "internal_node_id": "0.0-87.0", "time_elapsed": 861324, "key_press": -1, "type": "PRE_RECALL_ALERT", "trial_index": 114}, "uniqueid": "MTK1574:3TVRFO09GLMPAQG913AU3TZ4HQ5XL0", "dateTime": 1516038442855}, {"current_trial": 115, "trialdata": {"rt": [5361, 9633, 12601, 16433, 20281, 24417, 27249, 32785, 45649], "recwords": ["gutar", "student", "apple", "tracer", "guitar", "student", "apple", "tracer", "racer"], "key_times": [2594, 3122, 3497, 3994, 4634, 5361, 6266, 6577, 6985, 7609, 8185, 8497, 8945, 9633, 10481, 10849, 11009, 11537, 12089, 12601, 13441, 13769, 14106, 14825, 15145, 15617, 16433, 17241, 17985, 18297, 18833, 19178, 19689, 20281, 21033, 21377, 21849, 22545, 22794, 23066, 23673, 24417, 25689, 26050, 26186, 26729, 26986, 27249, 30377, 30609, 30874, 31209, 31529, 31817, 32785, 43906, 44241, 44554, 44922, 45274, 45649], "trial_type": "free-recall", "conditions": [24, 800, "a", 12000], "internal_node_id": "0.0-88.0-0.0", "key_presses": [71, 85, 84, 65, 82, 13, 83, 84, 85, 68, 69, 78, 84, 13, 65, 80, 80, 76, 69, 13, 84, 82, 65, 67, 69, 82, 13, 71, 85, 73, 84, 65, 82, 13, 83, 84, 85, 68, 69, 78, 84, 13, 65, 80, 80, 76, 69, 13, 84, 82, 65, 67, 69, 82, 13, 82, 65, 67, 69, 82, 13], "trial": 2, "time_elapsed": 921326, "type": "FREE_RECALL", "trial_index": 115}, "uniqueid": "MTK1574:3TVRFO09GLMPAQG913AU3TZ4HQ5XL0", "dateTime": 1516038502859}, {"current_trial": 116, "trialdata": {"rt": 9245, "trial_type": "text", "internal_node_id": "0.0-89.0", "time_elapsed": 932575, "key_press": 32, "type": "INSTRUCTIONS", "trial_index": 116}, "uniqueid": "MTK1574:3TVRFO09GLMPAQG913AU3TZ4HQ5XL0", "dateTime": 1516038514106}, {"current_trial": 117, "trialdata": {"rt": [4085, 7589, 11101], "trial_type": "math-distractor", "key_times": [2885, 3285, 4085, 6989, 7221, 7589, 9750, 10749, 11101], "responses": ["10", "12", "19"], "num2": [7, 4, 6, 4], "num3": [1, 1, 6, 6], "conditions": [12, 800, "a", 12000], "internal_node_id": "0.0-90.0", "key_presses": [49, 48, 13, 49, 50, 13, 49, 57, 13], "trial": 3, "time_elapsed": 946578, "type": "DISTRACTOR", "trial_index": 117, "num1": [2, 7, 7, 4]}, "uniqueid": "MTK1574:3TVRFO09GLMPAQG913AU3TZ4HQ5XL0", "dateTime": 1516038528109}, {"current_trial": 118, "trialdata": {"rt": -1, "trial_type": "single-stim", "stimulus": "<p id=\"stim\">10</p>", "internal_node_id": "0.0-91.0-0.0", "time_elapsed": 949581, "key_press": -1, "trial_index": 118}, "uniqueid": "MTK1574:3TVRFO09GLMPAQG913AU3TZ4HQ5XL0", "dateTime": 1516038531112}, {"current_trial": 119, "trialdata": {"rt": -1, "trial_type": "single-stim", "stimulus": "<p id=\"stim\">9</p>", "internal_node_id": "0.0-91.0-1.0", "time_elapsed": 950582, "key_press": -1, "trial_index": 119}, "uniqueid": "MTK1574:3TVRFO09GLMPAQG913AU3TZ4HQ5XL0", "dateTime": 1516038532113}, {"current_trial": 120, "trialdata": {"rt": -1, "trial_type": "single-stim", "stimulus": "<p id=\"stim\">8</p>", "internal_node_id": "0.0-91.0-2.0", "time_elapsed": 951584, "key_press": -1, "trial_index": 120}, "uniqueid": "MTK1574:3TVRFO09GLMPAQG913AU3TZ4HQ5XL0", "dateTime": 1516038533115}, {"current_trial": 121, "trialdata": {"rt": -1, "trial_type": "single-stim", "stimulus": "<p id=\"stim\">7</p>", "internal_node_id": "0.0-91.0-3.0", "time_elapsed": 952585, "key_press": -1, "trial_index": 121}, "uniqueid": "MTK1574:3TVRFO09GLMPAQG913AU3TZ4HQ5XL0", "dateTime": 1516038534116}, {"current_trial": 122, "trialdata": {"rt": -1, "trial_type": "single-stim", "stimulus": "<p id=\"stim\">6</p>", "internal_node_id": "0.0-91.0-4.0", "time_elapsed": 953587, "key_press": -1, "trial_index": 122}, "uniqueid": "MTK1574:3TVRFO09GLMPAQG913AU3TZ4HQ5XL0", "dateTime": 1516038535118}, {"current_trial": 123, "trialdata": {"rt": -1, "trial_type": "single-stim", "stimulus": "<p id=\"stim\">5</p>", "internal_node_id": "0.0-91.0-5.0", "time_elapsed": 954588, "key_press": -1, "trial_index": 123}, "uniqueid": "MTK1574:3TVRFO09GLMPAQG913AU3TZ4HQ5XL0", "dateTime": 1516038536119}, {"current_trial": 124, "trialdata": {"rt": -1, "trial_type": "single-stim", "stimulus": "<p id=\"stim\">4</p>", "internal_node_id": "0.0-91.0-6.0", "time_elapsed": 955590, "key_press": -1, "trial_index": 124}, "uniqueid": "MTK1574:3TVRFO09GLMPAQG913AU3TZ4HQ5XL0", "dateTime": 1516038537121}, {"current_trial": 125, "trialdata": {"rt": -1, "trial_type": "single-stim", "stimulus": "<p id=\"stim\">3</p>", "internal_node_id": "0.0-91.0-7.0", "time_elapsed": 956592, "key_press": -1, "trial_index": 125}, "uniqueid": "MTK1574:3TVRFO09GLMPAQG913AU3TZ4HQ5XL0", "dateTime": 1516038538123}, {"current_trial": 126, "trialdata": {"rt": -1, "trial_type": "single-stim", "stimulus": "<p id=\"stim\">2</p>", "internal_node_id": "0.0-91.0-8.0", "time_elapsed": 957593, "key_press": -1, "trial_index": 126}, "uniqueid": "MTK1574:3TVRFO09GLMPAQG913AU3TZ4HQ5XL0", "dateTime": 1516038539124}, {"current_trial": 127, "trialdata": {"rt": -1, "trial_type": "single-stim", "stimulus": "<p id=\"stim\">1</p>", "internal_node_id": "0.0-91.0-9.0", "time_elapsed": 958595, "key_press": -1, "trial_index": 127}, "uniqueid": "MTK1574:3TVRFO09GLMPAQG913AU3TZ4HQ5XL0", "dateTime": 1516038540126}, {"current_trial": 128, "trialdata": {"rt": -1, "trial_type": "single-stim", "stimulus": "<p id=\"stim\">+</p>", "internal_node_id": "0.0-92.0-0.0", "time_elapsed": 960096, "key_press": -1, "type": "FIXATION", "trial_index": 128}, "uniqueid": "MTK1574:3TVRFO09GLMPAQG913AU3TZ4HQ5XL0", "dateTime": 1516038541627}, {"current_trial": 129, "trialdata": {"rt": -1000, "trial_type": "single-audio", "word": "rebel", "stimulus": "/static/audio/wordpool/REBEL.wav", "conditions": [12, 800, "a", 12000], "internal_node_id": "0.0-93.0", "trial": 3, "time_elapsed": 961978, "serialpos": 0, "key_press": -1, "wordID": 1171, "type": "PRES_AUD", "trial_index": 129}, "uniqueid": "MTK1574:3TVRFO09GLMPAQG913AU3TZ4HQ5XL0", "dateTime": 1516038543509}, {"current_trial": 130, "trialdata": {"rt": -1000, "trial_type": "single-audio", "word": "palace", "stimulus": "/static/audio/wordpool/PALACE.wav", "conditions": [12, 800, "a", 12000], "internal_node_id": "0.0-94.0", "trial": 3, "time_elapsed": 963651, "serialpos": 1, "key_press": -1, "wordID": 1005, "type": "PRES_AUD", "trial_index": 130}, "uniqueid": "MTK1574:3TVRFO09GLMPAQG913AU3TZ4HQ5XL0", "dateTime": 1516038545182}, {"current_trial": 131, "trialdata": {"rt": -1000, "trial_type": "single-audio", "word": "girl", "stimulus": "/static/audio/wordpool/GIRL.wav", "conditions": [12, 800, "a", 12000], "internal_node_id": "0.0-95.0", "trial": 3, "time_elapsed": 965556, "serialpos": 2, "key_press": -1, "wordID": 636, "type": "PRES_AUD", "trial_index": 131}, "uniqueid": "MTK1574:3TVRFO09GLMPAQG913AU3TZ4HQ5XL0", "dateTime": 1516038547087}, {"current_trial": 132, "trialdata": {"rt": -1000, "trial_type": "single-audio", "word": "princess", "stimulus": "/static/audio/wordpool/PRINCESS.wav", "conditions": [12, 800, "a", 12000], "internal_node_id": "0.0-96.0", "trial": 3, "time_elapsed": 967451, "serialpos": 3, "key_press": -1, "wordID": 1124, "type": "PRES_AUD", "trial_index": 132}, "uniqueid": "MTK1574:3TVRFO09GLMPAQG913AU3TZ4HQ5XL0", "dateTime": 1516038548982}, {"current_trial": 133, "trialdata": {"rt": -1000, "trial_type": "single-audio", "word": "leg", "stimulus": "/static/audio/wordpool/LEG.wav", "conditions": [12, 800, "a", 12000], "internal_node_id": "0.0-97.0", "trial": 3, "time_elapsed": 969393, "serialpos": 4, "key_press": -1, "wordID": 808, "type": "PRES_AUD", "trial_index": 133}, "uniqueid": "MTK1574:3TVRFO09GLMPAQG913AU3TZ4HQ5XL0", "dateTime": 1516038550924}, {"current_trial": 134, "trialdata": {"rt": -1000, "trial_type": "single-audio", "word": "velvet", "stimulus": "/static/audio/wordpool/VELVET.wav", "conditions": [12, 800, "a", 12000], "internal_node_id": "0.0-98.0", "trial": 3, "time_elapsed": 971112, "serialpos": 5, "key_press": -1, "wordID": 1554, "type": "PRES_AUD", "trial_index": 134}, "uniqueid": "MTK1574:3TVRFO09GLMPAQG913AU3TZ4HQ5XL0", "dateTime": 1516038552643}, {"current_trial": 135, "trialdata": {"rt": -1000, "trial_type": "single-audio", "word": "cobra", "stimulus": "/static/audio/wordpool/COBRA.wav", "conditions": [12, 800, "a", 12000], "internal_node_id": "0.0-99.0", "trial": 3, "time_elapsed": 972803, "serialpos": 6, "key_press": -1, "wordID": 335, "type": "PRES_AUD", "trial_index": 135}, "uniqueid": "MTK1574:3TVRFO09GLMPAQG913AU3TZ4HQ5XL0", "dateTime": 1516038554334}, {"current_trial": 136, "trialdata": {"rt": -1000, "trial_type": "single-audio", "word": "missile", "stimulus": "/static/audio/wordpool/MISSILE.wav", "conditions": [12, 800, "a", 12000], "internal_node_id": "0.0-100.0", "trial": 3, "time_elapsed": 974463, "serialpos": 7, "key_press": -1, "wordID": 899, "type": "PRES_AUD", "trial_index": 136}, "uniqueid": "MTK1574:3TVRFO09GLMPAQG913AU3TZ4HQ5XL0", "dateTime": 1516038555994}, {"current_trial": 137, "trialdata": {"rt": -1000, "trial_type": "single-audio", "word": "daughter", "stimulus": "/static/audio/wordpool/DAUGHTER.wav", "conditions": [12, 800, "a", 12000], "internal_node_id": "0.0-101.0", "trial": 3, "time_elapsed": 976111, "serialpos": 8, "key_press": -1, "wordID": 441, "type": "PRES_AUD", "trial_index": 137}, "uniqueid": "MTK1574:3TVRFO09GLMPAQG913AU3TZ4HQ5XL0", "dateTime": 1516038557642}, {"current_trial": 138, "trialdata": {"rt": -1000, "trial_type": "single-audio", "word": "coffee", "stimulus": "/static/audio/wordpool/COFFEE.wav", "conditions": [12, 800, "a", 12000], "internal_node_id": "0.0-102.0", "trial": 3, "time_elapsed": 977988, "serialpos": 9, "key_press": -1, "wordID": 340, "type": "PRES_AUD", "trial_index": 138}, "uniqueid": "MTK1574:3TVRFO09GLMPAQG913AU3TZ4HQ5XL0", "dateTime": 1516038559519}, {"current_trial": 139, "trialdata": {"rt": -1000, "trial_type": "single-audio", "word": "virus", "stimulus": "/static/audio/wordpool/VIRUS.wav", "conditions": [12, 800, "a", 12000], "internal_node_id": "0.0-103.0", "trial": 3, "time_elapsed": 979889, "serialpos": 10, "key_press": -1, "wordID": 1571, "type": "PRES_AUD", "trial_index": 139}, "uniqueid": "MTK1574:3TVRFO09GLMPAQG913AU3TZ4HQ5XL0", "dateTime": 1516038561420}, {"current_trial": 140, "trialdata": {"rt": -1000, "trial_type": "single-audio", "word": "silk", "stimulus": "/static/audio/wordpool/SILK.wav", "conditions": [12, 800, "a", 12000], "internal_node_id": "0.0-104.0", "trial": 3, "time_elapsed": 981634, "serialpos": 11, "key_press": -1, "wordID": 1306, "type": "PRES_AUD", "trial_index": 140}, "uniqueid": "MTK1574:3TVRFO09GLMPAQG913AU3TZ4HQ5XL0", "dateTime": 1516038563166}, {"current_trial": 141, "trialdata": {"rt": -1, "trial_type": "single-stim", "stimulus": "", "internal_node_id": "0.0-105.0-0.0", "time_elapsed": 982857, "key_press": -1, "type": "PRE_RECALL_DELAY", "trial_index": 141}, "uniqueid": "MTK1574:3TVRFO09GLMPAQG913AU3TZ4HQ5XL0", "dateTime": 1516038564388}, {"current_trial": 142, "trialdata": {"rt": -1000, "trial_type": "single-audio", "stimulus": "/static/audio/400Hz.wav", "internal_node_id": "0.0-106.0", "time_elapsed": 983359, "key_press": -1, "type": "PRE_RECALL_ALERT", "trial_index": 142}, "uniqueid": "MTK1574:3TVRFO09GLMPAQG913AU3TZ4HQ5XL0", "dateTime": 1516038564890}, {"current_trial": 143, "trialdata": {"rt": [4174, 9742, 13998, 17574, 20318, 28182, 44958], "recwords": ["silk", "missle", "silent", "velvet", "girl", "tuba", "silent"], "key_times": [1958, 2326, 2902, 3438, 4174, 5078, 5486, 6886, 7118, 7606, 8366, 9742, 10886, 11190, 11798, 12182, 12926, 13390, 13998, 14806, 15086, 15510, 16054, 16390, 17046, 17574, 18270, 18686, 18982, 19710, 20318, 26534, 26878, 27471, 27782, 28182, 41838, 42222, 42902, 43118, 43982, 44614, 44958], "trial_type": "free-recall", "conditions": [12, 800, "a", 12000], "internal_node_id": "0.0-107.0-0.0", "key_presses": [83, 73, 76, 75, 13, 77, 73, 83, 83, 76, 69, 13, 83, 73, 76, 69, 78, 84, 13, 86, 69, 76, 86, 69, 84, 13, 71, 73, 82, 76, 13, 84, 85, 66, 65, 13, 83, 73, 76, 69, 78, 84, 13], "trial": 3, "time_elapsed": 1043362, "type": "FREE_RECALL", "trial_index": 143}, "uniqueid": "MTK1574:3TVRFO09GLMPAQG913AU3TZ4HQ5XL0", "dateTime": 1516038624896}, {"current_trial": 144, "trialdata": {"rt": 5145, "trial_type": "text", "internal_node_id": "0.0-108.0", "time_elapsed": 1050511, "key_press": 32, "type": "INSTRUCTIONS", "trial_index": 144}, "uniqueid": "MTK1574:3TVRFO09GLMPAQG913AU3TZ4HQ5XL0", "dateTime": 1516038632042}, {"current_trial": 145, "trialdata": {"rt": [3581, 7229, 11085, 15581, 19045, 21901], "trial_type": "math-distractor", "key_times": [3037, 3581, 6797, 7229, 10013, 10285, 11085, 14845, 15285, 15581, 18405, 18645, 19045, 20957, 21485, 21901], "responses": ["7", "9", "18", "13", "21", "15"], "num2": [4, 6, 9, 5, 4, 7, 8], "num3": [1, 1, 5, 6, 9, 5, 6], "conditions": [24, 1600, "a", 24000], "internal_node_id": "0.0-109.0", "key_presses": [55, 13, 57, 13, 49, 56, 13, 49, 51, 13, 50, 49, 13, 49, 53, 13], "trial": 4, "time_elapsed": 1076515, "type": "DISTRACTOR", "trial_index": 145, "num1": [2, 2, 4, 2, 8, 3, 4]}, "uniqueid": "MTK1574:3TVRFO09GLMPAQG913AU3TZ4HQ5XL0", "dateTime": 1516038658046}, {"current_trial": 146, "trialdata": {"rt": -1, "trial_type": "single-stim", "stimulus": "<p id=\"stim\">10</p>", "internal_node_id": "0.0-110.0-0.0", "time_elapsed": 1079518, "key_press": -1, "trial_index": 146}, "uniqueid": "MTK1574:3TVRFO09GLMPAQG913AU3TZ4HQ5XL0", "dateTime": 1516038661049}, {"current_trial": 147, "trialdata": {"rt": -1, "trial_type": "single-stim", "stimulus": "<p id=\"stim\">9</p>", "internal_node_id": "0.0-110.0-1.0", "time_elapsed": 1080521, "key_press": -1, "trial_index": 147}, "uniqueid": "MTK1574:3TVRFO09GLMPAQG913AU3TZ4HQ5XL0", "dateTime": 1516038662052}, {"current_trial": 148, "trialdata": {"rt": -1, "trial_type": "single-stim", "stimulus": "<p id=\"stim\">8</p>", "internal_node_id": "0.0-110.0-2.0", "time_elapsed": 1081522, "key_press": -1, "trial_index": 148}, "uniqueid": "MTK1574:3TVRFO09GLMPAQG913AU3TZ4HQ5XL0", "dateTime": 1516038663053}, {"current_trial": 149, "trialdata": {"rt": -1, "trial_type": "single-stim", "stimulus": "<p id=\"stim\">7</p>", "internal_node_id": "0.0-110.0-3.0", "time_elapsed": 1082524, "key_press": -1, "trial_index": 149}, "uniqueid": "MTK1574:3TVRFO09GLMPAQG913AU3TZ4HQ5XL0", "dateTime": 1516038664055}, {"current_trial": 150, "trialdata": {"rt": -1, "trial_type": "single-stim", "stimulus": "<p id=\"stim\">6</p>", "internal_node_id": "0.0-110.0-4.0", "time_elapsed": 1083525, "key_press": -1, "trial_index": 150}, "uniqueid": "MTK1574:3TVRFO09GLMPAQG913AU3TZ4HQ5XL0", "dateTime": 1516038665056}, {"current_trial": 151, "trialdata": {"rt": -1, "trial_type": "single-stim", "stimulus": "<p id=\"stim\">5</p>", "internal_node_id": "0.0-110.0-5.0", "time_elapsed": 1084526, "key_press": -1, "trial_index": 151}, "uniqueid": "MTK1574:3TVRFO09GLMPAQG913AU3TZ4HQ5XL0", "dateTime": 1516038666057}, {"current_trial": 152, "trialdata": {"rt": -1, "trial_type": "single-stim", "stimulus": "<p id=\"stim\">4</p>", "internal_node_id": "0.0-110.0-6.0", "time_elapsed": 1085528, "key_press": -1, "trial_index": 152}, "uniqueid": "MTK1574:3TVRFO09GLMPAQG913AU3TZ4HQ5XL0", "dateTime": 1516038667059}, {"current_trial": 153, "trialdata": {"rt": -1, "trial_type": "single-stim", "stimulus": "<p id=\"stim\">3</p>", "internal_node_id": "0.0-110.0-7.0", "time_elapsed": 1086529, "key_press": -1, "trial_index": 153}, "uniqueid": "MTK1574:3TVRFO09GLMPAQG913AU3TZ4HQ5XL0", "dateTime": 1516038668061}, {"current_trial": 154, "trialdata": {"rt": -1, "trial_type": "single-stim", "stimulus": "<p id=\"stim\">2</p>", "internal_node_id": "0.0-110.0-8.0", "time_elapsed": 1087531, "key_press": -1, "trial_index": 154}, "uniqueid": "MTK1574:3TVRFO09GLMPAQG913AU3TZ4HQ5XL0", "dateTime": 1516038669062}, {"current_trial": 155, "trialdata": {"rt": -1, "trial_type": "single-stim", "stimulus": "<p id=\"stim\">1</p>", "internal_node_id": "0.0-110.0-9.0", "time_elapsed": 1088532, "key_press": -1, "trial_index": 155}, "uniqueid": "MTK1574:3TVRFO09GLMPAQG913AU3TZ4HQ5XL0", "dateTime": 1516038670063}, {"current_trial": 156, "trialdata": {"rt": -1, "trial_type": "single-stim", "stimulus": "<p id=\"stim\">+</p>", "internal_node_id": "0.0-111.0-0.0", "time_elapsed": 1090034, "key_press": -1, "type": "FIXATION", "trial_index": 156}, "uniqueid": "MTK1574:3TVRFO09GLMPAQG913AU3TZ4HQ5XL0", "dateTime": 1516038671565}, {"current_trial": 157, "trialdata": {"rt": -1000, "trial_type": "single-audio", "word": "waiter", "stimulus": "/static/audio/wordpool/WAITER.wav", "conditions": [24, 1600, "a", 24000], "internal_node_id": "0.0-112.0", "trial": 4, "time_elapsed": 1092541, "serialpos": 0, "key_press": -1, "wordID": 1579, "type": "PRES_AUD", "trial_index": 157}, "uniqueid": "MTK1574:3TVRFO09GLMPAQG913AU3TZ4HQ5XL0", "dateTime": 1516038674072}, {"current_trial": 158, "trialdata": {"rt": -1000, "trial_type": "single-audio", "word": "cashier", "stimulus": "/static/audio/wordpool/CASHIER.wav", "conditions": [24, 1600, "a", 24000], "internal_node_id": "0.0-113.0", "trial": 4, "time_elapsed": 1095065, "serialpos": 1, "key_press": -1, "wordID": 253, "type": "PRES_AUD", "trial_index": 158}, "uniqueid": "MTK1574:3TVRFO09GLMPAQG913AU3TZ4HQ5XL0", "dateTime": 1516038676596}, {"current_trial": 159, "trialdata": {"rt": -1000, "trial_type": "single-audio", "word": "oyster", "stimulus": "/static/audio/wordpool/OYSTER.wav", "conditions": [24, 1600, "a", 24000], "internal_node_id": "0.0-114.0", "trial": 4, "time_elapsed": 1097781, "serialpos": 2, "key_press": -1, "wordID": 994, "type": "PRES_AUD", "trial_index": 159}, "uniqueid": "MTK1574:3TVRFO09GLMPAQG913AU3TZ4HQ5XL0", "dateTime": 1516038679312}, {"current_trial": 160, "trialdata": {"rt": -1000, "trial_type": "single-audio", "word": "sister", "stimulus": "/static/audio/wordpool/SISTER.wav", "conditions": [24, 1600, "a", 24000], "internal_node_id": "0.0-115.0", "trial": 4, "time_elapsed": 1100376, "serialpos": 3, "key_press": -1, "wordID": 1311, "type": "PRES_AUD", "trial_index": 160}, "uniqueid": "MTK1574:3TVRFO09GLMPAQG913AU3TZ4HQ5XL0", "dateTime": 1516038681907}, {"current_trial": 161, "trialdata": {"rt": -1000, "trial_type": "single-audio", "word": "fleet", "stimulus": "/static/audio/wordpool/FLEET.wav", "conditions": [24, 1600, "a", 24000], "internal_node_id": "0.0-116.0", "trial": 4, "time_elapsed": 1103047, "serialpos": 4, "key_press": -1, "wordID": 577, "type": "PRES_AUD", "trial_index": 161}, "uniqueid": "MTK1574:3TVRFO09GLMPAQG913AU3TZ4HQ5XL0", "dateTime": 1516038684578}, {"current_trial": 162, "trialdata": {"rt": -1000, "trial_type": "single-audio", "word": "antler", "stimulus": "/static/audio/wordpool/ANTLER.wav", "conditions": [24, 1600, "a", 24000], "internal_node_id": "0.0-117.0", "trial": 4, "time_elapsed": 1105538, "serialpos": 5, "key_press": -1, "wordID": 28, "type": "PRES_AUD", "trial_index": 162}, "uniqueid": "MTK1574:3TVRFO09GLMPAQG913AU3TZ4HQ5XL0", "dateTime": 1516038687069}, {"current_trial": 163, "trialdata": {"rt": -1000, "trial_type": "single-audio", "word": "cod", "stimulus": "/static/audio/wordpool/COD.wav", "conditions": [24, 1600, "a", 24000], "internal_node_id": "0.0-118.0", "trial": 4, "time_elapsed": 1108132, "serialpos": 6, "key_press": -1, "wordID": 339, "type": "PRES_AUD", "trial_index": 163}, "uniqueid": "MTK1574:3TVRFO09GLMPAQG913AU3TZ4HQ5XL0", "dateTime": 1516038689663}, {"current_trial": 164, "trialdata": {"rt": -1000, "trial_type": "single-audio", "word": "picnic", "stimulus": "/static/audio/wordpool/PICNIC.wav", "conditions": [24, 1600, "a", 24000], "internal_node_id": "0.0-119.0", "trial": 4, "time_elapsed": 1110912, "serialpos": 7, "key_press": -1, "wordID": 1059, "type": "PRES_AUD", "trial_index": 164}, "uniqueid": "MTK1574:3TVRFO09GLMPAQG913AU3TZ4HQ5XL0", "dateTime": 1516038692443}, {"current_trial": 165, "trialdata": {"rt": -1000, "trial_type": "single-audio", "word": "seafood", "stimulus": "/static/audio/wordpool/SEAFOOD.wav", "conditions": [24, 1600, "a", 24000], "internal_node_id": "0.0-120.0", "trial": 4, "time_elapsed": 1113458, "serialpos": 8, "key_press": -1, "wordID": 1259, "type": "PRES_AUD", "trial_index": 165}, "uniqueid": "MTK1574:3TVRFO09GLMPAQG913AU3TZ4HQ5XL0", "dateTime": 1516038694989}, {"current_trial": 166, "trialdata": {"rt": -1000, "trial_type": "single-audio", "word": "scarecrow", "stimulus": "/static/audio/wordpool/SCARECROW.wav", "conditions": [24, 1600, "a", 24000], "internal_node_id": "0.0-121.0", "trial": 4, "time_elapsed": 1115958, "serialpos": 9, "key_press": -1, "wordID": 1244, "type": "PRES_AUD", "trial_index": 166}, "uniqueid": "MTK1574:3TVRFO09GLMPAQG913AU3TZ4HQ5XL0", "dateTime": 1516038697489}, {"current_trial": 167, "trialdata": {"rt": -1000, "trial_type": "single-audio", "word": "drink", "stimulus": "/static/audio/wordpool/DRINK.wav", "conditions": [24, 1600, "a", 24000], "internal_node_id": "0.0-122.0", "trial": 4, "time_elapsed": 1118656, "serialpos": 10, "key_press": -1, "wordID": 497, "type": "PRES_AUD", "trial_index": 167}, "uniqueid": "MTK1574:3TVRFO09GLMPAQG913AU3TZ4HQ5XL0", "dateTime": 1516038700187}, {"current_trial": 168, "trialdata": {"rt": -1000, "trial_type": "single-audio", "word": "cabin", "stimulus": "/static/audio/wordpool/CABIN.wav", "conditions": [24, 1600, "a", 24000], "internal_node_id": "0.0-123.0", "trial": 4, "time_elapsed": 1121119, "serialpos": 11, "key_press": -1, "wordID": 210, "type": "PRES_AUD", "trial_index": 168}, "uniqueid": "MTK1574:3TVRFO09GLMPAQG913AU3TZ4HQ5XL0", "dateTime": 1516038702650}, {"current_trial": 169, "trialdata": {"rt": -1000, "trial_type": "single-audio", "word": "robber", "stimulus": "/static/audio/wordpool/ROBBER.wav", "conditions": [24, 1600, "a", 24000], "internal_node_id": "0.0-124.0", "trial": 4, "time_elapsed": 1123616, "serialpos": 12, "key_press": -1, "wordID": 1196, "type": "PRES_AUD", "trial_index": 169}, "uniqueid": "MTK1574:3TVRFO09GLMPAQG913AU3TZ4HQ5XL0", "dateTime": 1516038705147}, {"current_trial": 170, "trialdata": {"rt": -1000, "trial_type": "single-audio", "word": "soda", "stimulus": "/static/audio/wordpool/SODA.wav", "conditions": [24, 1600, "a", 24000], "internal_node_id": "0.0-125.0", "trial": 4, "time_elapsed": 1126081, "serialpos": 13, "key_press": -1, "wordID": 1340, "type": "PRES_AUD", "trial_index": 170}, "uniqueid": "MTK1574:3TVRFO09GLMPAQG913AU3TZ4HQ5XL0", "dateTime": 1516038707612}, {"current_trial": 171, "trialdata": {"rt": -1000, "trial_type": "single-audio", "word": "candy", "stimulus": "/static/audio/wordpool/CANDY.wav", "conditions": [24, 1600, "a", 24000], "internal_node_id": "0.0-126.0", "trial": 4, "time_elapsed": 1128522, "serialpos": 14, "key_press": -1, "wordID": 229, "type": "PRES_AUD", "trial_index": 171}, "uniqueid": "MTK1574:3TVRFO09GLMPAQG913AU3TZ4HQ5XL0", "dateTime": 1516038710053}, {"current_trial": 172, "trialdata": {"rt": -1000, "trial_type": "single-audio", "word": "bullet", "stimulus": "/static/audio/wordpool/BULLET.wav", "conditions": [24, 1600, "a", 24000], "internal_node_id": "0.0-127.0", "trial": 4, "time_elapsed": 1131108, "serialpos": 15, "key_press": -1, "wordID": 193, "type": "PRES_AUD", "trial_index": 172}, "uniqueid": "MTK1574:3TVRFO09GLMPAQG913AU3TZ4HQ5XL0", "dateTime": 1516038712640}, {"current_trial": 173, "trialdata": {"rt": -1000, "trial_type": "single-audio", "word": "body", "stimulus": "/static/audio/wordpool/BODY.wav", "conditions": [24, 1600, "a", 24000], "internal_node_id": "0.0-128.0", "trial": 4, "time_elapsed": 1133754, "serialpos": 16, "key_press": -1, "wordID": 144, "type": "PRES_AUD", "trial_index": 173}, "uniqueid": "MTK1574:3TVRFO09GLMPAQG913AU3TZ4HQ5XL0", "dateTime": 1516038715285}, {"current_trial": 174, "trialdata": {"rt": -1000, "trial_type": "single-audio", "word": "shelf", "stimulus": "/static/audio/wordpool/SHELF.wav", "conditions": [24, 1600, "a", 24000], "internal_node_id": "0.0-129.0", "trial": 4, "time_elapsed": 1136492, "serialpos": 17, "key_press": -1, "wordID": 1279, "type": "PRES_AUD", "trial_index": 174}, "uniqueid": "MTK1574:3TVRFO09GLMPAQG913AU3TZ4HQ5XL0", "dateTime": 1516038718023}, {"current_trial": 175, "trialdata": {"rt": -1000, "trial_type": "single-audio", "word": "suspect", "stimulus": "/static/audio/wordpool/SUSPECT.wav", "conditions": [24, 1600, "a", 24000], "internal_node_id": "0.0-130.0", "trial": 4, "time_elapsed": 1139054, "serialpos": 18, "key_press": -1, "wordID": 1414, "type": "PRES_AUD", "trial_index": 175}, "uniqueid": "MTK1574:3TVRFO09GLMPAQG913AU3TZ4HQ5XL0", "dateTime": 1516038720585}, {"current_trial": 176, "trialdata": {"rt": -1000, "trial_type": "single-audio", "word": "trench", "stimulus": "/static/audio/wordpool/TRENCH.wav", "conditions": [24, 1600, "a", 24000], "internal_node_id": "0.0-131.0", "trial": 4, "time_elapsed": 1141704, "serialpos": 19, "key_press": -1, "wordID": 1502, "type": "PRES_AUD", "trial_index": 176}, "uniqueid": "MTK1574:3TVRFO09GLMPAQG913AU3TZ4HQ5XL0", "dateTime": 1516038723235}, {"current_trial": 177, "trialdata": {"rt": -1000, "trial_type": "single-audio", "word": "package", "stimulus": "/static/audio/wordpool/PACKAGE.wav", "conditions": [24, 1600, "a", 24000], "internal_node_id": "0.0-132.0", "trial": 4, "time_elapsed": 1144400, "serialpos": 20, "key_press": -1, "wordID": 996, "type": "PRES_AUD", "trial_index": 177}, "uniqueid": "MTK1574:3TVRFO09GLMPAQG913AU3TZ4HQ5XL0", "dateTime": 1516038725931}, {"current_trial": 178, "trialdata": {"rt": -1000, "trial_type": "single-audio", "word": "sphinx", "stimulus": "/static/audio/wordpool/SPHINX.wav", "conditions": [24, 1600, "a", 24000], "internal_node_id": "0.0-133.0", "trial": 4, "time_elapsed": 1146967, "serialpos": 21, "key_press": -1, "wordID": 1348, "type": "PRES_AUD", "trial_index": 178}, "uniqueid": "MTK1574:3TVRFO09GLMPAQG913AU3TZ4HQ5XL0", "dateTime": 1516038728499}, {"current_trial": 179, "trialdata": {"rt": -1000, "trial_type": "single-audio", "word": "fungus", "stimulus": "/static/audio/wordpool/FUNGUS.wav", "conditions": [24, 1600, "a", 24000], "internal_node_id": "0.0-134.0", "trial": 4, "time_elapsed": 1149646, "serialpos": 22, "key_press": -1, "wordID": 613, "type": "PRES_AUD", "trial_index": 179}, "uniqueid": "MTK1574:3TVRFO09GLMPAQG913AU3TZ4HQ5XL0", "dateTime": 1516038731178}, {"current_trial": 180, "trialdata": {"rt": -1000, "trial_type": "single-audio", "word": "doughnut", "stimulus": "/static/audio/wordpool/DOUGHNUT.wav", "conditions": [24, 1600, "a", 24000], "internal_node_id": "0.0-135.0", "trial": 4, "time_elapsed": 1152325, "serialpos": 23, "key_press": -1, "wordID": 489, "type": "PRES_AUD", "trial_index": 180}, "uniqueid": "MTK1574:3TVRFO09GLMPAQG913AU3TZ4HQ5XL0", "dateTime": 1516038733856}, {"current_trial": 181, "trialdata": {"rt": -1, "trial_type": "single-stim", "stimulus": "", "internal_node_id": "0.0-136.0-0.0", "time_elapsed": 1153535, "key_press": -1, "type": "PRE_RECALL_DELAY", "trial_index": 181}, "uniqueid": "MTK1574:3TVRFO09GLMPAQG913AU3TZ4HQ5XL0", "dateTime": 1516038735067}, {"current_trial": 182, "trialdata": {"rt": -1000, "trial_type": "single-audio", "stimulus": "/static/audio/400Hz.wav", "internal_node_id": "0.0-137.0", "time_elapsed": 1154037, "key_press": -1, "type": "PRE_RECALL_ALERT", "trial_index": 182}, "uniqueid": "MTK1574:3TVRFO09GLMPAQG913AU3TZ4HQ5XL0", "dateTime": 1516038735568}, {"current_trial": 183, "trialdata": {"rt": [4768, 8872, 13248, 16560, 20328, 24136, 30064, 35480], "recwords": ["fish", "fungus", "donut", "bullet", "body", "self", "seafood", "shelf"], "key_times": [1744, 2224, 2632, 3096, 4768, 5504, 5872, 6616, 6928, 7408, 8288, 8872, 9744, 10169, 11168, 11568, 12392, 13248, 14217, 14649, 15192, 15344, 15632, 16008, 16560, 17312, 17856, 19128, 19592, 20328, 20880, 21176, 21544, 22552, 24136, 27088, 27312, 27632, 28208, 28832, 28992, 29424, 30064, 32312, 33561, 34128, 34617, 34880, 35480], "trial_type": "free-recall", "conditions": [24, 1600, "a", 24000], "internal_node_id": "0.0-138.0-0.0", "key_presses": [70, 73, 83, 72, 13, 70, 85, 78, 71, 85, 83, 13, 68, 79, 78, 85, 84, 13, 66, 85, 76, 76, 69, 84, 13, 66, 79, 68, 89, 13, 83, 69, 76, 70, 13, 83, 69, 65, 70, 79, 79, 68, 13, 83, 72, 69, 76, 70, 13], "trial": 4, "time_elapsed": 1214040, "type": "FREE_RECALL", "trial_index": 183}, "uniqueid": "MTK1574:3TVRFO09GLMPAQG913AU3TZ4HQ5XL0", "dateTime": 1516038795574}, {"current_trial": 184, "trialdata": {"rt": 3211, "trial_type": "text", "internal_node_id": "0.0-139.0", "time_elapsed": 1219255, "key_press": 32, "type": "INSTRUCTIONS", "trial_index": 184}, "uniqueid": "MTK1574:3TVRFO09GLMPAQG913AU3TZ4HQ5XL0", "dateTime": 1516038800786}, {"current_trial": 185, "trialdata": {"rt": [2870, 6534, 9198], "trial_type": "math-distractor", "key_times": [2238, 2438, 2870, 5678, 6038, 6534, 8614, 8918, 9198, 11830], "responses": ["17", "18", "12"], "num2": [1, 7, 1, 9], "num3": [7, 6, 7, 2], "conditions": [24, 1600, "a", 12000], "internal_node_id": "0.0-140.0", "key_presses": [49, 55, 13, 49, 56, 13, 49, 50, 13, 49], "trial": 5, "time_elapsed": 1233257, "type": "DISTRACTOR", "trial_index": 185, "num1": [9, 5, 4, 5]}, "uniqueid": "MTK1574:3TVRFO09GLMPAQG913AU3TZ4HQ5XL0", "dateTime": 1516038814789}, {"current_trial": 186, "trialdata": {"rt": -1, "trial_type": "single-stim", "stimulus": "<p id=\"stim\">10</p>", "internal_node_id": "0.0-141.0-0.0", "time_elapsed": 1236259, "key_press": -1, "trial_index": 186}, "uniqueid": "MTK1574:3TVRFO09GLMPAQG913AU3TZ4HQ5XL0", "dateTime": 1516038817790}, {"current_trial": 187, "trialdata": {"rt": -1, "trial_type": "single-stim", "stimulus": "<p id=\"stim\">9</p>", "internal_node_id": "0.0-141.0-1.0", "time_elapsed": 1237260, "key_press": -1, "trial_index": 187}, "uniqueid": "MTK1574:3TVRFO09GLMPAQG913AU3TZ4HQ5XL0", "dateTime": 1516038818791}, {"current_trial": 188, "trialdata": {"rt": -1, "trial_type": "single-stim", "stimulus": "<p id=\"stim\">8</p>", "internal_node_id": "0.0-141.0-2.0", "time_elapsed": 1238262, "key_press": -1, "trial_index": 188}, "uniqueid": "MTK1574:3TVRFO09GLMPAQG913AU3TZ4HQ5XL0", "dateTime": 1516038819793}, {"current_trial": 189, "trialdata": {"rt": -1, "trial_type": "single-stim", "stimulus": "<p id=\"stim\">7</p>", "internal_node_id": "0.0-141.0-3.0", "time_elapsed": 1239263, "key_press": -1, "trial_index": 189}, "uniqueid": "MTK1574:3TVRFO09GLMPAQG913AU3TZ4HQ5XL0", "dateTime": 1516038820794}, {"current_trial": 190, "trialdata": {"rt": -1, "trial_type": "single-stim", "stimulus": "<p id=\"stim\">6</p>", "internal_node_id": "0.0-141.0-4.0", "time_elapsed": 1240266, "key_press": -1, "trial_index": 190}, "uniqueid": "MTK1574:3TVRFO09GLMPAQG913AU3TZ4HQ5XL0", "dateTime": 1516038821797}, {"current_trial": 191, "trialdata": {"rt": -1, "trial_type": "single-stim", "stimulus": "<p id=\"stim\">5</p>", "internal_node_id": "0.0-141.0-5.0", "time_elapsed": 1241267, "key_press": -1, "trial_index": 191}, "uniqueid": "MTK1574:3TVRFO09GLMPAQG913AU3TZ4HQ5XL0", "dateTime": 1516038822798}, {"current_trial": 192, "trialdata": {"rt": -1, "trial_type": "single-stim", "stimulus": "<p id=\"stim\">4</p>", "internal_node_id": "0.0-141.0-6.0", "time_elapsed": 1242268, "key_press": -1, "trial_index": 192}, "uniqueid": "MTK1574:3TVRFO09GLMPAQG913AU3TZ4HQ5XL0", "dateTime": 1516038823799}, {"current_trial": 193, "trialdata": {"rt": -1, "trial_type": "single-stim", "stimulus": "<p id=\"stim\">3</p>", "internal_node_id": "0.0-141.0-7.0", "time_elapsed": 1243269, "key_press": -1, "trial_index": 193}, "uniqueid": "MTK1574:3TVRFO09GLMPAQG913AU3TZ4HQ5XL0", "dateTime": 1516038824800}, {"current_trial": 194, "trialdata": {"rt": -1, "trial_type": "single-stim", "stimulus": "<p id=\"stim\">2</p>", "internal_node_id": "0.0-141.0-8.0", "time_elapsed": 1244271, "key_press": -1, "trial_index": 194}, "uniqueid": "MTK1574:3TVRFO09GLMPAQG913AU3TZ4HQ5XL0", "dateTime": 1516038825802}, {"current_trial": 195, "trialdata": {"rt": -1, "trial_type": "single-stim", "stimulus": "<p id=\"stim\">1</p>", "internal_node_id": "0.0-141.0-9.0", "time_elapsed": 1245273, "key_press": -1, "trial_index": 195}, "uniqueid": "MTK1574:3TVRFO09GLMPAQG913AU3TZ4HQ5XL0", "dateTime": 1516038826804}, {"current_trial": 196, "trialdata": {"rt": -1, "trial_type": "single-stim", "stimulus": "<p id=\"stim\">+</p>", "internal_node_id": "0.0-142.0-0.0", "time_elapsed": 1246776, "key_press": -1, "type": "FIXATION", "trial_index": 196}, "uniqueid": "MTK1574:3TVRFO09GLMPAQG913AU3TZ4HQ5XL0", "dateTime": 1516038828307}, {"current_trial": 197, "trialdata": {"rt": -1000, "trial_type": "single-audio", "word": "police", "stimulus": "/static/audio/wordpool/POLICE.wav", "conditions": [24, 1600, "a", 12000], "internal_node_id": "0.0-143.0", "trial": 5, "time_elapsed": 1249301, "serialpos": 0, "key_press": -1, "wordID": 1097, "type": "PRES_AUD", "trial_index": 197}, "uniqueid": "MTK1574:3TVRFO09GLMPAQG913AU3TZ4HQ5XL0", "dateTime": 1516038830832}, {"current_trial": 198, "trialdata": {"rt": -1000, "trial_type": "single-audio", "word": "transplant", "stimulus": "/static/audio/wordpool/TRANSPLANT.wav", "conditions": [24, 1600, "a", 12000], "internal_node_id": "0.0-144.0", "trial": 5, "time_elapsed": 1252036, "serialpos": 1, "key_press": -1, "wordID": 1495, "type": "PRES_AUD", "trial_index": 198}, "uniqueid": "MTK1574:3TVRFO09GLMPAQG913AU3TZ4HQ5XL0", "dateTime": 1516038833567}, {"current_trial": 199, "trialdata": {"rt": -1000, "trial_type": "single-audio", "word": "spool", "stimulus": "/static/audio/wordpool/SPOOL.wav", "conditions": [24, 1600, "a", 12000], "internal_node_id": "0.0-145.0", "trial": 5, "time_elapsed": 1254720, "serialpos": 2, "key_press": -1, "wordID": 1355, "type": "PRES_AUD", "trial_index": 199}, "uniqueid": "MTK1574:3TVRFO09GLMPAQG913AU3TZ4HQ5XL0", "dateTime": 1516038836251}, {"current_trial": 200, "trialdata": {"rt": -1000, "trial_type": "single-audio", "word": "nomad", "stimulus": "/static/audio/wordpool/NOMAD.wav", "conditions": [24, 1600, "a", 12000], "internal_node_id": "0.0-146.0", "trial": 5, "time_elapsed": 1257324, "serialpos": 3, "key_press": -1, "wordID": 954, "type": "PRES_AUD", "trial_index": 200}, "uniqueid": "MTK1574:3TVRFO09GLMPAQG913AU3TZ4HQ5XL0", "dateTime": 1516038838856}, {"current_trial": 201, "trialdata": {"rt": -1000, "trial_type": "single-audio", "word": "tourist", "stimulus": "/static/audio/wordpool/TOURIST.wav", "conditions": [24, 1600, "a", 12000], "internal_node_id": "0.0-147.0", "trial": 5, "time_elapsed": 1259950, "serialpos": 4, "key_press": -1, "wordID": 1487, "type": "PRES_AUD", "trial_index": 201}, "uniqueid": "MTK1574:3TVRFO09GLMPAQG913AU3TZ4HQ5XL0", "dateTime": 1516038841481}, {"current_trial": 202, "trialdata": {"rt": -1000, "trial_type": "single-audio", "word": "patrol", "stimulus": "/static/audio/wordpool/PATROL.wav", "conditions": [24, 1600, "a", 12000], "internal_node_id": "0.0-148.0", "trial": 5, "time_elapsed": 1262662, "serialpos": 5, "key_press": -1, "wordID": 1026, "type": "PRES_AUD", "trial_index": 202}, "uniqueid": "MTK1574:3TVRFO09GLMPAQG913AU3TZ4HQ5XL0", "dateTime": 1516038844194}, {"current_trial": 203, "trialdata": {"rt": -1000, "trial_type": "single-audio", "word": "switch", "stimulus": "/static/audio/wordpool/SWITCH.wav", "conditions": [24, 1600, "a", 12000], "internal_node_id": "0.0-149.0", "trial": 5, "time_elapsed": 1265206, "serialpos": 6, "key_press": -1, "wordID": 1421, "type": "PRES_AUD", "trial_index": 203}, "uniqueid": "MTK1574:3TVRFO09GLMPAQG913AU3TZ4HQ5XL0", "dateTime": 1516038846737}, {"current_trial": 204, "trialdata": {"rt": -1000, "trial_type": "single-audio", "word": "grill", "stimulus": "/static/audio/wordpool/GRILL.wav", "conditions": [24, 1600, "a", 12000], "internal_node_id": "0.0-150.0", "trial": 5, "time_elapsed": 1267742, "serialpos": 7, "key_press": -1, "wordID": 660, "type": "PRES_AUD", "trial_index": 204}, "uniqueid": "MTK1574:3TVRFO09GLMPAQG913AU3TZ4HQ5XL0", "dateTime": 1516038849273}, {"current_trial": 205, "trialdata": {"rt": -1000, "trial_type": "single-audio", "word": "supper", "stimulus": "/static/audio/wordpool/SUPPER.wav", "conditions": [24, 1600, "a", 12000], "internal_node_id": "0.0-151.0", "trial": 5, "time_elapsed": 1270493, "serialpos": 8, "key_press": -1, "wordID": 1410, "type": "PRES_AUD", "trial_index": 205}, "uniqueid": "MTK1574:3TVRFO09GLMPAQG913AU3TZ4HQ5XL0", "dateTime": 1516038852024}, {"current_trial": 206, "trialdata": {"rt": -1000, "trial_type": "single-audio", "word": "lunch", "stimulus": "/static/audio/wordpool/LUNCH.wav", "conditions": [24, 1600, "a", 12000], "internal_node_id": "0.0-152.0", "trial": 5, "time_elapsed": 1273093, "serialpos": 9, "key_press": -1, "wordID": 848, "type": "PRES_AUD", "trial_index": 206}, "uniqueid": "MTK1574:3TVRFO09GLMPAQG913AU3TZ4HQ5XL0", "dateTime": 1516038854624}, {"current_trial": 207, "trialdata": {"rt": -1000, "trial_type": "single-audio", "word": "luggage", "stimulus": "/static/audio/wordpool/LUGGAGE.wav", "conditions": [24, 1600, "a", 12000], "internal_node_id": "0.0-153.0", "trial": 5, "time_elapsed": 1275699, "serialpos": 10, "key_press": -1, "wordID": 846, "type": "PRES_AUD", "trial_index": 207}, "uniqueid": "MTK1574:3TVRFO09GLMPAQG913AU3TZ4HQ5XL0", "dateTime": 1516038857230}, {"current_trial": 208, "trialdata": {"rt": -1000, "trial_type": "single-audio", "word": "wrench", "stimulus": "/static/audio/wordpool/WRENCH.wav", "conditions": [24, 1600, "a", 12000], "internal_node_id": "0.0-154.0", "trial": 5, "time_elapsed": 1278315, "serialpos": 11, "key_press": -1, "wordID": 1624, "type": "PRES_AUD", "trial_index": 208}, "uniqueid": "MTK1574:3TVRFO09GLMPAQG913AU3TZ4HQ5XL0", "dateTime": 1516038859847}, {"current_trial": 209, "trialdata": {"rt": -1000, "trial_type": "single-audio", "word": "hamper", "stimulus": "/static/audio/wordpool/HAMPER.wav", "conditions": [24, 1600, "a", 12000], "internal_node_id": "0.0-155.0", "trial": 5, "time_elapsed": 1281006, "serialpos": 12, "key_press": -1, "wordID": 681, "type": "PRES_AUD", "trial_index": 209}, "uniqueid": "MTK1574:3TVRFO09GLMPAQG913AU3TZ4HQ5XL0", "dateTime": 1516038862537}, {"current_trial": 210, "trialdata": {"rt": -1000, "trial_type": "single-audio", "word": "citrus", "stimulus": "/static/audio/wordpool/CITRUS.wav", "conditions": [24, 1600, "a", 12000], "internal_node_id": "0.0-156.0", "trial": 5, "time_elapsed": 1283448, "serialpos": 13, "key_press": -1, "wordID": 312, "type": "PRES_AUD", "trial_index": 210}, "uniqueid": "MTK1574:3TVRFO09GLMPAQG913AU3TZ4HQ5XL0", "dateTime": 1516038864979}, {"current_trial": 211, "trialdata": {"rt": -1000, "trial_type": "single-audio", "word": "pepper", "stimulus": "/static/audio/wordpool/PEPPER.wav", "conditions": [24, 1600, "a", 12000], "internal_node_id": "0.0-157.0", "trial": 5, "time_elapsed": 1285937, "serialpos": 14, "key_press": -1, "wordID": 1046, "type": "PRES_AUD", "trial_index": 211}, "uniqueid": "MTK1574:3TVRFO09GLMPAQG913AU3TZ4HQ5XL0", "dateTime": 1516038867468}, {"current_trial": 212, "trialdata": {"rt": -1000, "trial_type": "single-audio", "word": "flower", "stimulus": "/static/audio/wordpool/FLOWER.wav", "conditions": [24, 1600, "a", 12000], "internal_node_id": "0.0-158.0", "trial": 5, "time_elapsed": 1288513, "serialpos": 15, "key_press": -1, "wordID": 583, "type": "PRES_AUD", "trial_index": 212}, "uniqueid": "MTK1574:3TVRFO09GLMPAQG913AU3TZ4HQ5XL0", "dateTime": 1516038870044}, {"current_trial": 213, "trialdata": {"rt": -1000, "trial_type": "single-audio", "word": "bug", "stimulus": "/static/audio/wordpool/BUG.wav", "conditions": [24, 1600, "a", 12000], "internal_node_id": "0.0-159.0", "trial": 5, "time_elapsed": 1290990, "serialpos": 16, "key_press": -1, "wordID": 186, "type": "PRES_AUD", "trial_index": 213}, "uniqueid": "MTK1574:3TVRFO09GLMPAQG913AU3TZ4HQ5XL0", "dateTime": 1516038872521}, {"current_trial": 214, "trialdata": {"rt": -1000, "trial_type": "single-audio", "word": "smog", "stimulus": "/static/audio/wordpool/SMOG.wav", "conditions": [24, 1600, "a", 12000], "internal_node_id": "0.0-160.0", "trial": 5, "time_elapsed": 1293675, "serialpos": 17, "key_press": -1, "wordID": 1329, "type": "PRES_AUD", "trial_index": 214}, "uniqueid": "MTK1574:3TVRFO09GLMPAQG913AU3TZ4HQ5XL0", "dateTime": 1516038875206}, {"current_trial": 215, "trialdata": {"rt": -1000, "trial_type": "single-audio", "word": "ozone", "stimulus": "/static/audio/wordpool/OZONE.wav", "conditions": [24, 1600, "a", 12000], "internal_node_id": "0.0-161.0", "trial": 5, "time_elapsed": 1296174, "serialpos": 18, "key_press": -1, "wordID": 995, "type": "PRES_AUD", "trial_index": 215}, "uniqueid": "MTK1574:3TVRFO09GLMPAQG913AU3TZ4HQ5XL0", "dateTime": 1516038877706}, {"current_trial": 216, "trialdata": {"rt": -1000, "trial_type": "single-audio", "word": "mister", "stimulus": "/static/audio/wordpool/MISTER.wav", "conditions": [24, 1600, "a", 12000], "internal_node_id": "0.0-162.0", "trial": 5, "time_elapsed": 1298895, "serialpos": 19, "key_press": -1, "wordID": 900, "type": "PRES_AUD", "trial_index": 216}, "uniqueid": "MTK1574:3TVRFO09GLMPAQG913AU3TZ4HQ5XL0", "dateTime": 1516038880427}, {"current_trial": 217, "trialdata": {"rt": -1000, "trial_type": "single-audio", "word": "clam", "stimulus": "/static/audio/wordpool/CLAM.wav", "conditions": [24, 1600, "a", 12000], "internal_node_id": "0.0-163.0", "trial": 5, "time_elapsed": 1301667, "serialpos": 20, "key_press": -1, "wordID": 314, "type": "PRES_AUD", "trial_index": 217}, "uniqueid": "MTK1574:3TVRFO09GLMPAQG913AU3TZ4HQ5XL0", "dateTime": 1516038883198}, {"current_trial": 218, "trialdata": {"rt": -1000, "trial_type": "single-audio", "word": "hook", "stimulus": "/static/audio/wordpool/HOOK.wav", "conditions": [24, 1600, "a", 12000], "internal_node_id": "0.0-164.0", "trial": 5, "time_elapsed": 1304109, "serialpos": 21, "key_press": -1, "wordID": 714, "type": "PRES_AUD", "trial_index": 218}, "uniqueid": "MTK1574:3TVRFO09GLMPAQG913AU3TZ4HQ5XL0", "dateTime": 1516038885640}, {"current_trial": 219, "trialdata": {"rt": -1000, "trial_type": "single-audio", "word": "fruit", "stimulus": "/static/audio/wordpool/FRUIT.wav", "conditions": [24, 1600, "a", 12000], "internal_node_id": "0.0-165.0", "trial": 5, "time_elapsed": 1306676, "serialpos": 22, "key_press": -1, "wordID": 609, "type": "PRES_AUD", "trial_index": 219}, "uniqueid": "MTK1574:3TVRFO09GLMPAQG913AU3TZ4HQ5XL0", "dateTime": 1516038888208}, {"current_trial": 220, "trialdata": {"rt": -1000, "trial_type": "single-audio", "word": "swimmer", "stimulus": "/static/audio/wordpool/SWIMMER.wav", "conditions": [24, 1600, "a", 12000], "internal_node_id": "0.0-166.0", "trial": 5, "time_elapsed": 1309413, "serialpos": 23, "key_press": -1, "wordID": 1419, "type": "PRES_AUD", "trial_index": 220}, "uniqueid": "MTK1574:3TVRFO09GLMPAQG913AU3TZ4HQ5XL0", "dateTime": 1516038890945}, {"current_trial": 221, "trialdata": {"rt": -1, "trial_type": "single-stim", "stimulus": "", "internal_node_id": "0.0-167.0-0.0", "time_elapsed": 1310781, "key_press": -1, "type": "PRE_RECALL_DELAY", "trial_index": 221}, "uniqueid": "MTK1574:3TVRFO09GLMPAQG913AU3TZ4HQ5XL0", "dateTime": 1516038892313}, {"current_trial": 222, "trialdata": {"rt": -1000, "trial_type": "single-audio", "stimulus": "/static/audio/400Hz.wav", "internal_node_id": "0.0-168.0", "time_elapsed": 1311283, "key_press": -1, "type": "PRE_RECALL_ALERT", "trial_index": 222}, "uniqueid": "MTK1574:3TVRFO09GLMPAQG913AU3TZ4HQ5XL0", "dateTime": 1516038892814}, {"current_trial": 223, "trialdata": {"rt": [5425, 9977, 13673, 17921, 38945, 45385, 57081], "recwords": ["mixer", "clamp", "soup", "wrench", "pepper", "ocean", "sugar"], "key_times": [2090, 2473, 3545, 3881, 4377, 5425, 6409, 6770, 7089, 7657, 8201, 9977, 11041, 11337, 11930, 12513, 13673, 14633, 15065, 15329, 15921, 16240, 16825, 17921, 35897, 36361, 36929, 37097, 37601, 38137, 38945, 43169, 43577, 44001, 44289, 44873, 45385, 55353, 55593, 56290, 56481, 56777, 57081], "trial_type": "free-recall", "conditions": [24, 1600, "a", 12000], "internal_node_id": "0.0-169.0-0.0", "key_presses": [77, 73, 88, 69, 82, 13, 67, 76, 65, 77, 80, 13, 83, 79, 85, 80, 13, 87, 82, 69, 78, 67, 72, 13, 80, 69, 80, 80, 69, 82, 13, 79, 67, 69, 65, 78, 13, 83, 85, 71, 65, 82, 13], "trial": 5, "time_elapsed": 1371287, "type": "FREE_RECALL", "trial_index": 223}, "uniqueid": "MTK1574:3TVRFO09GLMPAQG913AU3TZ4HQ5XL0", "dateTime": 1516038952821}, {"current_trial": 224, "trialdata": {"rt": 3170, "trial_type": "text", "internal_node_id": "0.0-170.0", "time_elapsed": 1376462, "key_press": 32, "type": "INSTRUCTIONS", "trial_index": 224}, "uniqueid": "MTK1574:3TVRFO09GLMPAQG913AU3TZ4HQ5XL0", "dateTime": 1516038957993}, {"current_trial": 225, "trialdata": {"rt": [10821], "trial_type": "math-distractor", "key_times": [2246, 2910, 10821], "responses": ["16"], "num2": [7, 6], "num3": [6, 8], "conditions": [24, 1600, "a", 12000], "internal_node_id": "0.0-171.0", "key_presses": [49, 54, 13], "trial": 6, "time_elapsed": 1390466, "type": "DISTRACTOR", "trial_index": 225, "num1": [3, 5]}, "uniqueid": "MTK1574:3TVRFO09GLMPAQG913AU3TZ4HQ5XL0", "dateTime": 1516038971997}, {"current_trial": 226, "trialdata": {"rt": -1, "trial_type": "single-stim", "stimulus": "<p id=\"stim\">10</p>", "internal_node_id": "0.0-172.0-0.0", "time_elapsed": 1393468, "key_press": -1, "trial_index": 226}, "uniqueid": "MTK1574:3TVRFO09GLMPAQG913AU3TZ4HQ5XL0", "dateTime": 1516038974999}, {"current_trial": 227, "trialdata": {"rt": -1, "trial_type": "single-stim", "stimulus": "<p id=\"stim\">9</p>", "internal_node_id": "0.0-172.0-1.0", "time_elapsed": 1394470, "key_press": -1, "trial_index": 227}, "uniqueid": "MTK1574:3TVRFO09GLMPAQG913AU3TZ4HQ5XL0", "dateTime": 1516038976001}, {"current_trial": 228, "trialdata": {"rt": -1, "trial_type": "single-stim", "stimulus": "<p id=\"stim\">8</p>", "internal_node_id": "0.0-172.0-2.0", "time_elapsed": 1395471, "key_press": -1, "trial_index": 228}, "uniqueid": "MTK1574:3TVRFO09GLMPAQG913AU3TZ4HQ5XL0", "dateTime": 1516038977002}, {"current_trial": 229, "trialdata": {"rt": -1, "trial_type": "single-stim", "stimulus": "<p id=\"stim\">7</p>", "internal_node_id": "0.0-172.0-3.0", "time_elapsed": 1396472, "key_press": -1, "trial_index": 229}, "uniqueid": "MTK1574:3TVRFO09GLMPAQG913AU3TZ4HQ5XL0", "dateTime": 1516038978003}, {"current_trial": 230, "trialdata": {"rt": -1, "trial_type": "single-stim", "stimulus": "<p id=\"stim\">6</p>", "internal_node_id": "0.0-172.0-4.0", "time_elapsed": 1397474, "key_press": -1, "trial_index": 230}, "uniqueid": "MTK1574:3TVRFO09GLMPAQG913AU3TZ4HQ5XL0", "dateTime": 1516038979005}, {"current_trial": 231, "trialdata": {"rt": -1, "trial_type": "single-stim", "stimulus": "<p id=\"stim\">5</p>", "internal_node_id": "0.0-172.0-5.0", "time_elapsed": 1398475, "key_press": -1, "trial_index": 231}, "uniqueid": "MTK1574:3TVRFO09GLMPAQG913AU3TZ4HQ5XL0", "dateTime": 1516038980006}, {"current_trial": 232, "trialdata": {"rt": -1, "trial_type": "single-stim", "stimulus": "<p id=\"stim\">4</p>", "internal_node_id": "0.0-172.0-6.0", "time_elapsed": 1399476, "key_press": -1, "trial_index": 232}, "uniqueid": "MTK1574:3TVRFO09GLMPAQG913AU3TZ4HQ5XL0", "dateTime": 1516038981007}, {"current_trial": 233, "trialdata": {"rt": -1, "trial_type": "single-stim", "stimulus": "<p id=\"stim\">3</p>", "internal_node_id": "0.0-172.0-7.0", "time_elapsed": 1400478, "key_press": -1, "trial_index": 233}, "uniqueid": "MTK1574:3TVRFO09GLMPAQG913AU3TZ4HQ5XL0", "dateTime": 1516038982010}, {"current_trial": 234, "trialdata": {"rt": -1, "trial_type": "single-stim", "stimulus": "<p id=\"stim\">2</p>", "internal_node_id": "0.0-172.0-8.0", "time_elapsed": 1401480, "key_press": -1, "trial_index": 234}, "uniqueid": "MTK1574:3TVRFO09GLMPAQG913AU3TZ4HQ5XL0", "dateTime": 1516038983011}, {"current_trial": 235, "trialdata": {"rt": -1, "trial_type": "single-stim", "stimulus": "<p id=\"stim\">1</p>", "internal_node_id": "0.0-172.0-9.0", "time_elapsed": 1402482, "key_press": -1, "trial_index": 235}, "uniqueid": "MTK1574:3TVRFO09GLMPAQG913AU3TZ4HQ5XL0", "dateTime": 1516038984013}, {"current_trial": 236, "trialdata": {"rt": -1, "trial_type": "single-stim", "stimulus": "<p id=\"stim\">+</p>", "internal_node_id": "0.0-173.0-0.0", "time_elapsed": 1403983, "key_press": -1, "type": "FIXATION", "trial_index": 236}, "uniqueid": "MTK1574:3TVRFO09GLMPAQG913AU3TZ4HQ5XL0", "dateTime": 1516038985514}, {"current_trial": 237, "trialdata": {"rt": -1000, "trial_type": "single-audio", "word": "hostess", "stimulus": "/static/audio/wordpool/HOSTESS.wav", "conditions": [24, 1600, "a", 12000], "internal_node_id": "0.0-174.0", "trial": 6, "time_elapsed": 1406707, "serialpos": 0, "key_press": -1, "wordID": 722, "type": "PRES_AUD", "trial_index": 237}, "uniqueid": "MTK1574:3TVRFO09GLMPAQG913AU3TZ4HQ5XL0", "dateTime": 1516038988238}, {"current_trial": 238, "trialdata": {"rt": -1000, "trial_type": "single-audio", "word": "waitress", "stimulus": "/static/audio/wordpool/WAITRESS.wav", "conditions": [24, 1600, "a", 12000], "internal_node_id": "0.0-175.0", "trial": 6, "time_elapsed": 1409358, "serialpos": 1, "key_press": -1, "wordID": 1580, "type": "PRES_AUD", "trial_index": 238}, "uniqueid": "MTK1574:3TVRFO09GLMPAQG913AU3TZ4HQ5XL0", "dateTime": 1516038990889}, {"current_trial": 239, "trialdata": {"rt": -1000, "trial_type": "single-audio", "word": "blade", "stimulus": "/static/audio/wordpool/BLADE.wav", "conditions": [24, 1600, "a", 12000], "internal_node_id": "0.0-176.0", "trial": 6, "time_elapsed": 1411841, "serialpos": 2, "key_press": -1, "wordID": 133, "type": "PRES_AUD", "trial_index": 239}, "uniqueid": "MTK1574:3TVRFO09GLMPAQG913AU3TZ4HQ5XL0", "dateTime": 1516038993373}, {"current_trial": 240, "trialdata": {"rt": -1000, "trial_type": "single-audio", "word": "bucket", "stimulus": "/static/audio/wordpool/BUCKET.wav", "conditions": [24, 1600, "a", 12000], "internal_node_id": "0.0-177.0", "trial": 6, "time_elapsed": 1414419, "serialpos": 3, "key_press": -1, "wordID": 183, "type": "PRES_AUD", "trial_index": 240}, "uniqueid": "MTK1574:3TVRFO09GLMPAQG913AU3TZ4HQ5XL0", "dateTime": 1516038995950}, {"current_trial": 241, "trialdata": {"rt": -1000, "trial_type": "single-audio", "word": "mildew", "stimulus": "/static/audio/wordpool/MILDEW.wav", "conditions": [24, 1600, "a", 12000], "internal_node_id": "0.0-178.0", "trial": 6, "time_elapsed": 1417030, "serialpos": 4, "key_press": -1, "wordID": 892, "type": "PRES_AUD", "trial_index": 241}, "uniqueid": "MTK1574:3TVRFO09GLMPAQG913AU3TZ4HQ5XL0", "dateTime": 1516038998561}, {"current_trial": 242, "trialdata": {"rt": -1000, "trial_type": "single-audio", "word": "plaid", "stimulus": "/static/audio/wordpool/PLAID.wav", "conditions": [24, 1600, "a", 12000], "internal_node_id": "0.0-179.0", "trial": 6, "time_elapsed": 1419529, "serialpos": 5, "key_press": -1, "wordID": 1079, "type": "PRES_AUD", "trial_index": 242}, "uniqueid": "MTK1574:3TVRFO09GLMPAQG913AU3TZ4HQ5XL0", "dateTime": 1516039001060}, {"current_trial": 243, "trialdata": {"rt": -1000, "trial_type": "single-audio", "word": "razor", "stimulus": "/static/audio/wordpool/RAZOR.wav", "conditions": [24, 1600, "a", 12000], "internal_node_id": "0.0-180.0", "trial": 6, "time_elapsed": 1422032, "serialpos": 6, "key_press": -1, "wordID": 1170, "type": "PRES_AUD", "trial_index": 243}, "uniqueid": "MTK1574:3TVRFO09GLMPAQG913AU3TZ4HQ5XL0", "dateTime": 1516039003563}, {"current_trial": 244, "trialdata": {"rt": -1000, "trial_type": "single-audio", "word": "dashboard", "stimulus": "/static/audio/wordpool/DASHBOARD.wav", "conditions": [24, 1600, "a", 12000], "internal_node_id": "0.0-181.0", "trial": 6, "time_elapsed": 1424658, "serialpos": 7, "key_press": -1, "wordID": 440, "type": "PRES_AUD", "trial_index": 244}, "uniqueid": "MTK1574:3TVRFO09GLMPAQG913AU3TZ4HQ5XL0", "dateTime": 1516039006189}, {"current_trial": 245, "trialdata": {"rt": -1000, "trial_type": "single-audio", "word": "softball", "stimulus": "/static/audio/wordpool/SOFTBALL.wav", "conditions": [24, 1600, "a", 12000], "internal_node_id": "0.0-182.0", "trial": 6, "time_elapsed": 1427373, "serialpos": 8, "key_press": -1, "wordID": 1342, "type": "PRES_AUD", "trial_index": 245}, "uniqueid": "MTK1574:3TVRFO09GLMPAQG913AU3TZ4HQ5XL0", "dateTime": 1516039008904}, {"current_trial": 246, "trialdata": {"rt": -1000, "trial_type": "single-audio", "word": "valve", "stimulus": "/static/audio/wordpool/VALVE.wav", "conditions": [24, 1600, "a", 12000], "internal_node_id": "0.0-183.0", "trial": 6, "time_elapsed": 1429871, "serialpos": 9, "key_press": -1, "wordID": 1545, "type": "PRES_AUD", "trial_index": 246}, "uniqueid": "MTK1574:3TVRFO09GLMPAQG913AU3TZ4HQ5XL0", "dateTime": 1516039011402}, {"current_trial": 247, "trialdata": {"rt": -1000, "trial_type": "single-audio", "word": "apron", "stimulus": "/static/audio/wordpool/APRON.wav", "conditions": [24, 1600, "a", 12000], "internal_node_id": "0.0-184.0", "trial": 6, "time_elapsed": 1432373, "serialpos": 10, "key_press": -1, "wordID": 34, "type": "PRES_AUD", "trial_index": 247}, "uniqueid": "MTK1574:3TVRFO09GLMPAQG913AU3TZ4HQ5XL0", "dateTime": 1516039013904}, {"current_trial": 248, "trialdata": {"rt": -1000, "trial_type": "single-audio", "word": "pecan", "stimulus": "/static/audio/wordpool/PECAN.wav", "conditions": [24, 1600, "a", 12000], "internal_node_id": "0.0-185.0", "trial": 6, "time_elapsed": 1434830, "serialpos": 11, "key_press": -1, "wordID": 1035, "type": "PRES_AUD", "trial_index": 248}, "uniqueid": "MTK1574:3TVRFO09GLMPAQG913AU3TZ4HQ5XL0", "dateTime": 1516039016361}, {"current_trial": 249, "trialdata": {"rt": -1000, "trial_type": "single-audio", "word": "spider", "stimulus": "/static/audio/wordpool/SPIDER.wav", "conditions": [24, 1600, "a", 12000], "internal_node_id": "0.0-186.0", "trial": 6, "time_elapsed": 1437605, "serialpos": 12, "key_press": -1, "wordID": 1350, "type": "PRES_AUD", "trial_index": 249}, "uniqueid": "MTK1574:3TVRFO09GLMPAQG913AU3TZ4HQ5XL0", "dateTime": 1516039019136}, {"current_trial": 250, "trialdata": {"rt": -1000, "trial_type": "single-audio", "word": "plaster", "stimulus": "/static/audio/wordpool/PLASTER.wav", "conditions": [24, 1600, "a", 12000], "internal_node_id": "0.0-187.0", "trial": 6, "time_elapsed": 1440146, "serialpos": 13, "key_press": -1, "wordID": 1084, "type": "PRES_AUD", "trial_index": 250}, "uniqueid": "MTK1574:3TVRFO09GLMPAQG913AU3TZ4HQ5XL0", "dateTime": 1516039021677}, {"current_trial": 251, "trialdata": {"rt": -1000, "trial_type": "single-audio", "word": "blueprint", "stimulus": "/static/audio/wordpool/BLUEPRINT.wav", "conditions": [24, 1600, "a", 12000], "internal_node_id": "0.0-188.0", "trial": 6, "time_elapsed": 1442636, "serialpos": 14, "key_press": -1, "wordID": 141, "type": "PRES_AUD", "trial_index": 251}, "uniqueid": "MTK1574:3TVRFO09GLMPAQG913AU3TZ4HQ5XL0", "dateTime": 1516039024167}, {"current_trial": 252, "trialdata": {"rt": -1000, "trial_type": "single-audio", "word": "clothes", "stimulus": "/static/audio/wordpool/CLOTHES.wav", "conditions": [24, 1600, "a", 12000], "internal_node_id": "0.0-189.0", "trial": 6, "time_elapsed": 1445388, "serialpos": 15, "key_press": -1, "wordID": 326, "type": "PRES_AUD", "trial_index": 252}, "uniqueid": "MTK1574:3TVRFO09GLMPAQG913AU3TZ4HQ5XL0", "dateTime": 1516039026919}, {"current_trial": 253, "trialdata": {"rt": -1000, "