{"assignmentId": "39PAAFCODN7LPEJJAXB31ZC0WN6TVA", "workerId": "MTK1755", "questiondata": {"origin": "United States", "strat-rehearsal": "81", "marital": "Married/Domestic Partnership", "education": "Bachelor's degree", "ethnicity": "Not Hispanic", "color_depth": 24, "distracted": "No", "wrote-notes": "No", "strat-other": "I tried to know that peach is fruit, students and teachers combine and then I would make a sentence.", "screen_width": 1280, "avail_screen_width": 1280, "avail_screen_height": 709, "strat-image": "73", "language": "English", "gender": "Female", "age": "48", "gender_other": "", "race": ["White"], "strat-categorize": "86", "pixel_depth": 24, "strat-spatial": "2", "strat-story": "58", "race_other": "", "screen_height": 800}, "bonus": 0, "hitId": "39WSF6KUV2SMNRUVTOVSI1M7FPGOEO", "counterbalance": 565, "useragent": "Mozilla/5.0 (Macintosh; Intel Mac OS X 10_13_2) AppleWebKit/537.36 (KHTML, like Gecko) Chrome/63.0.3239.132 Safari/537.36", "eventdata": [{"eventtype": "initialized", "interval": 0, "value": null, "timestamp": 1516295512655}, {"eventtype": "window_resize", "interval": 0, "value": [1280, 658], "timestamp": 1516295512655}], "data": [{"current_trial": 0, "trialdata": {"rt": 2197, "trial_type": "text", "internal_node_id": "0.0-0.0", "time_elapsed": 2199, "key_press": 32, "type": "INSTRUCTIONS", "trial_index": 0}, "uniqueid": "MTK1755:39PAAFCODN7LPEJJAXB31ZC0WN6TVA", "dateTime": 1516295524782}, {"current_trial": 1, "trialdata": {"rt": 11534, "trial_type": "text", "internal_node_id": "0.0-1.0", "time_elapsed": 13735, "key_press": 32, "type": "INSTRUCTIONS", "trial_index": 1}, "uniqueid": "MTK1755:39PAAFCODN7LPEJJAXB31ZC0WN6TVA", "dateTime": 1516295536317}, {"current_trial": 2, "trialdata": {"rt": [10986], "trial_type": "audio-test", "responses": ["ocean"], "internal_node_id": "0.0-2.0", "time_elapsed": 24737, "type": "AUDIO_TEST", "trial_index": 2}, "uniqueid": "MTK1755:39PAAFCODN7LPEJJAXB31ZC0WN6TVA", "dateTime": 1516295547319}, {"current_trial": 3, "trialdata": {"rt": [6248], "trial_type": "audio-test", "responses": ["crystal"], "internal_node_id": "0.0-3.0", "time_elapsed": 30992, "type": "AUDIO_TEST", "trial_index": 3}, "uniqueid": "MTK1755:39PAAFCODN7LPEJJAXB31ZC0WN6TVA", "dateTime": 1516295553574}, {"current_trial": 4, "trialdata": {"rt": [4575], "trial_type": "audio-test", "responses": ["spice"], "internal_node_id": "0.0-4.0", "time_elapsed": 35573, "type": "AUDIO_TEST", "trial_index": 4}, "uniqueid": "MTK1755:39PAAFCODN7LPEJJAXB31ZC0WN6TVA", "dateTime": 1516295558155}, {"current_trial": 5, "trialdata": {"rt": 14363, "trial_type": "survey-text", "responses": "{\"Q0\":\"11pm\",\"Q1\":\"7am\",\"Q2\":\"5\"}", "internal_node_id": "0.0-5.0", "time_elapsed": 50693, "type": "SLEEP_SURVEY", "trial_index": 5}, "uniqueid": "MTK1755:39PAAFCODN7LPEJJAXB31ZC0WN6TVA", "dateTime": 1516295573275}, {"current_trial": 6, "trialdata": {"rt": 21312, "trial_type": "text", "internal_node_id": "0.0-6.0", "time_elapsed": 73009, "key_press": 32, "type": "INSTRUCTIONS", "trial_index": 6}, "uniqueid": "MTK1755:39PAAFCODN7LPEJJAXB31ZC0WN6TVA", "dateTime": 1516295595591}, {"current_trial": 7, "trialdata": {"rt": 4669, "trial_type": "text", "internal_node_id": "0.0-7.0", "time_elapsed": 78181, "key_press": 32, "type": "INSTRUCTIONS", "trial_index": 7}, "uniqueid": "MTK1755:39PAAFCODN7LPEJJAXB31ZC0WN6TVA", "dateTime": 1516295600763}, {"current_trial": 8, "trialdata": {"rt": 5967, "trial_type": "text", "internal_node_id": "0.0-8.0", "time_elapsed": 84651, "key_press": 32, "type": "INSTRUCTIONS", "trial_index": 8}, "uniqueid": "MTK1755:39PAAFCODN7LPEJJAXB31ZC0WN6TVA", "dateTime": 1516295607233}, {"current_trial": 9, "trialdata": {"rt": [4436, 7370, 15059], "trial_type": "math-distractor", "key_times": [3452, 3598, 4436, 6320, 6689, 7370, 14261, 14452, 15059, 17086, 17520], "responses": ["13", "16", "21"], "num2": [6, 6, 9, 2], "num3": [4, 4, 5, 6], "conditions": [18, 1200, "a", 18000], "internal_node_id": "0.0-9.0", "key_presses": [49, 51, 13, 49, 54, 13, 50, 49, 13, 49, 54], "trial": 0, "time_elapsed": 103664, "type": "DISTRACTOR", "trial_index": 9, "num1": [3, 6, 7, 8]}, "uniqueid": "MTK1755:39PAAFCODN7LPEJJAXB31ZC0WN6TVA", "dateTime": 1516295626247}, {"current_trial": 10, "trialdata": {"rt": -1, "trial_type": "single-stim", "stimulus": "<p id=\"stim\">10</p>", "internal_node_id": "0.0-10.0-0.0", "time_elapsed": 106671, "key_press": -1, "trial_index": 10}, "uniqueid": "MTK1755:39PAAFCODN7LPEJJAXB31ZC0WN6TVA", "dateTime": 1516295629253}, {"current_trial": 11, "trialdata": {"rt": -1, "trial_type": "single-stim", "stimulus": "<p id=\"stim\">9</p>", "internal_node_id": "0.0-10.0-1.0", "time_elapsed": 107675, "key_press": -1, "trial_index": 11}, "uniqueid": "MTK1755:39PAAFCODN7LPEJJAXB31ZC0WN6TVA", "dateTime": 1516295630257}, {"current_trial": 12, "trialdata": {"rt": -1, "trial_type": "single-stim", "stimulus": "<p id=\"stim\">8</p>", "internal_node_id": "0.0-10.0-2.0", "time_elapsed": 108679, "key_press": -1, "trial_index": 12}, "uniqueid": "MTK1755:39PAAFCODN7LPEJJAXB31ZC0WN6TVA", "dateTime": 1516295631261}, {"current_trial": 13, "trialdata": {"rt": -1, "trial_type": "single-stim", "stimulus": "<p id=\"stim\">7</p>", "internal_node_id": "0.0-10.0-3.0", "time_elapsed": 109683, "key_press": -1, "trial_index": 13}, "uniqueid": "MTK1755:39PAAFCODN7LPEJJAXB31ZC0WN6TVA", "dateTime": 1516295632265}, {"current_trial": 14, "trialdata": {"rt": -1, "trial_type": "single-stim", "stimulus": "<p id=\"stim\">6</p>", "internal_node_id": "0.0-10.0-4.0", "time_elapsed": 110687, "key_press": -1, "trial_index": 14}, "uniqueid": "MTK1755:39PAAFCODN7LPEJJAXB31ZC0WN6TVA", "dateTime": 1516295633269}, {"current_trial": 15, "trialdata": {"rt": -1, "trial_type": "single-stim", "stimulus": "<p id=\"stim\">5</p>", "internal_node_id": "0.0-10.0-5.0", "time_elapsed": 111691, "key_press": -1, "trial_index": 15}, "uniqueid": "MTK1755:39PAAFCODN7LPEJJAXB31ZC0WN6TVA", "dateTime": 1516295634273}, {"current_trial": 16, "trialdata": {"rt": -1, "trial_type": "single-stim", "stimulus": "<p id=\"stim\">4</p>", "internal_node_id": "0.0-10.0-6.0", "time_elapsed": 112695, "key_press": -1, "trial_index": 16}, "uniqueid": "MTK1755:39PAAFCODN7LPEJJAXB31ZC0WN6TVA", "dateTime": 1516295635277}, {"current_trial": 17, "trialdata": {"rt": -1, "trial_type": "single-stim", "stimulus": "<p id=\"stim\">3</p>", "internal_node_id": "0.0-10.0-7.0", "time_elapsed": 113700, "key_press": -1, "trial_index": 17}, "uniqueid": "MTK1755:39PAAFCODN7LPEJJAXB31ZC0WN6TVA", "dateTime": 1516295636282}, {"current_trial": 18, "trialdata": {"rt": -1, "trial_type": "single-stim", "stimulus": "<p id=\"stim\">2</p>", "internal_node_id": "0.0-10.0-8.0", "time_elapsed": 114703, "key_press": -1, "trial_index": 18}, "uniqueid": "MTK1755:39PAAFCODN7LPEJJAXB31ZC0WN6TVA", "dateTime": 1516295637285}, {"current_trial": 19, "trialdata": {"rt": -1, "trial_type": "single-stim", "stimulus": "<p id=\"stim\">1</p>", "internal_node_id": "0.0-10.0-9.0", "time_elapsed": 115707, "key_press": -1, "trial_index": 19}, "uniqueid": "MTK1755:39PAAFCODN7LPEJJAXB31ZC0WN6TVA", "dateTime": 1516295638289}, {"current_trial": 20, "trialdata": {"rt": -1, "trial_type": "single-stim", "stimulus": "<p id=\"stim\">+</p>", "internal_node_id": "0.0-11.0-0.0", "time_elapsed": 117210, "key_press": -1, "type": "FIXATION", "trial_index": 20}, "uniqueid": "MTK1755:39PAAFCODN7LPEJJAXB31ZC0WN6TVA", "dateTime": 1516295639793}, {"current_trial": 21, "trialdata": {"rt": -1000, "trial_type": "single-audio", "word": "body", "stimulus": "/static/audio/wordpool/BODY.wav", "conditions": [18, 1200, "a", 18000], "internal_node_id": "0.0-12.0", "trial": 0, "time_elapsed": 119454, "serialpos": 0, "key_press": -1, "wordID": 144, "type": "PRES_AUD", "trial_index": 21}, "uniqueid": "MTK1755:39PAAFCODN7LPEJJAXB31ZC0WN6TVA", "dateTime": 1516295642036}, {"current_trial": 22, "trialdata": {"rt": -53.56009070294476, "trial_type": "single-audio", "word": "lodge", "stimulus": "/static/audio/wordpool/LODGE.wav", "conditions": [18, 1200, "a", 18000], "internal_node_id": "0.0-13.0", "trial": 0, "time_elapsed": 121648, "serialpos": 1, "key_press": 66, "wordID": 838, "type": "PRES_AUD", "trial_index": 22}, "uniqueid": "MTK1755:39PAAFCODN7LPEJJAXB31ZC0WN6TVA", "dateTime": 1516295644230}, {"current_trial": 23, "trialdata": {"rt": -1000, "trial_type": "single-audio", "word": "smog", "stimulus": "/static/audio/wordpool/SMOG.wav", "conditions": [18, 1200, "a", 18000], "internal_node_id": "0.0-14.0", "trial": 0, "time_elapsed": 123819, "serialpos": 2, "key_press": -1, "wordID": 1329, "type": "PRES_AUD", "trial_index": 23}, "uniqueid": "MTK1755:39PAAFCODN7LPEJJAXB31ZC0WN6TVA", "dateTime": 1516295646401}, {"current_trial": 24, "trialdata": {"rt": -1000, "trial_type": "single-audio", "word": "radish", "stimulus": "/static/audio/wordpool/RADISH.wav", "conditions": [18, 1200, "a", 18000], "internal_node_id": "0.0-15.0", "trial": 0, "time_elapsed": 125868, "serialpos": 3, "key_press": -1, "wordID": 1157, "type": "PRES_AUD", "trial_index": 24}, "uniqueid": "MTK1755:39PAAFCODN7LPEJJAXB31ZC0WN6TVA", "dateTime": 1516295648451}, {"current_trial": 25, "trialdata": {"rt": -1000, "trial_type": "single-audio", "word": "bug", "stimulus": "/static/audio/wordpool/BUG.wav", "conditions": [18, 1200, "a", 18000], "internal_node_id": "0.0-16.0", "trial": 0, "time_elapsed": 127954, "serialpos": 4, "key_press": -1, "wordID": 186, "type": "PRES_AUD", "trial_index": 25}, "uniqueid": "MTK1755:39PAAFCODN7LPEJJAXB31ZC0WN6TVA", "dateTime": 1516295650536}, {"current_trial": 26, "trialdata": {"rt": -1000, "trial_type": "single-audio", "word": "silk", "stimulus": "/static/audio/wordpool/SILK.wav", "conditions": [18, 1200, "a", 18000], "internal_node_id": "0.0-17.0", "trial": 0, "time_elapsed": 129990, "serialpos": 5, "key_press": -1, "wordID": 1306, "type": "PRES_AUD", "trial_index": 26}, "uniqueid": "MTK1755:39PAAFCODN7LPEJJAXB31ZC0WN6TVA", "dateTime": 1516295652572}, {"current_trial": 27, "trialdata": {"rt": -1000, "trial_type": "single-audio", "word": "ghetto", "stimulus": "/static/audio/wordpool/GHETTO.wav", "conditions": [18, 1200, "a", 18000], "internal_node_id": "0.0-18.0", "trial": 0, "time_elapsed": 132143, "serialpos": 6, "key_press": -1, "wordID": 632, "type": "PRES_AUD", "trial_index": 27}, "uniqueid": "MTK1755:39PAAFCODN7LPEJJAXB31ZC0WN6TVA", "dateTime": 1516295654726}, {"current_trial": 28, "trialdata": {"rt": -1000, "trial_type": "single-audio", "word": "pecan", "stimulus": "/static/audio/wordpool/PECAN.wav", "conditions": [18, 1200, "a", 18000], "internal_node_id": "0.0-19.0", "trial": 0, "time_elapsed": 134210, "serialpos": 7, "key_press": -1, "wordID": 1035, "type": "PRES_AUD", "trial_index": 28}, "uniqueid": "MTK1755:39PAAFCODN7LPEJJAXB31ZC0WN6TVA", "dateTime": 1516295656792}, {"current_trial": 29, "trialdata": {"rt": -1000, "trial_type": "single-audio", "word": "freezer", "stimulus": "/static/audio/wordpool/FREEZER.wav", "conditions": [18, 1200, "a", 18000], "internal_node_id": "0.0-20.0", "trial": 0, "time_elapsed": 136544, "serialpos": 8, "key_press": -1, "wordID": 603, "type": "PRES_AUD", "trial_index": 29}, "uniqueid": "MTK1755:39PAAFCODN7LPEJJAXB31ZC0WN6TVA", "dateTime": 1516295659126}, {"current_trial": 30, "trialdata": {"rt": -1000, "trial_type": "single-audio", "word": "seafood", "stimulus": "/static/audio/wordpool/SEAFOOD.wav", "conditions": [18, 1200, "a", 18000], "internal_node_id": "0.0-21.0", "trial": 0, "time_elapsed": 138843, "serialpos": 9, "key_press": -1, "wordID": 1259, "type": "PRES_AUD", "trial_index": 30}, "uniqueid": "MTK1755:39PAAFCODN7LPEJJAXB31ZC0WN6TVA", "dateTime": 1516295661425}, {"current_trial": 31, "trialdata": {"rt": -1000, "trial_type": "single-audio", "word": "lumber", "stimulus": "/static/audio/wordpool/LUMBER.wav", "conditions": [18, 1200, "a", 18000], "internal_node_id": "0.0-22.0", "trial": 0, "time_elapsed": 141118, "serialpos": 10, "key_press": -1, "wordID": 847, "type": "PRES_AUD", "trial_index": 31}, "uniqueid": "MTK1755:39PAAFCODN7LPEJJAXB31ZC0WN6TVA", "dateTime": 1516295663701}, {"current_trial": 32, "trialdata": {"rt": -1000, "trial_type": "single-audio", "word": "lover", "stimulus": "/static/audio/wordpool/LOVER.wav", "conditions": [18, 1200, "a", 18000], "internal_node_id": "0.0-23.0", "trial": 0, "time_elapsed": 143382, "serialpos": 11, "key_press": -1, "wordID": 845, "type": "PRES_AUD", "trial_index": 32}, "uniqueid": "MTK1755:39PAAFCODN7LPEJJAXB31ZC0WN6TVA", "dateTime": 1516295665964}, {"current_trial": 33, "trialdata": {"rt": -1000, "trial_type": "single-audio", "word": "asia", "stimulus": "/static/audio/wordpool/ASIA.wav", "conditions": [18, 1200, "a", 18000], "internal_node_id": "0.0-24.0", "trial": 0, "time_elapsed": 145404, "serialpos": 12, "key_press": -1, "wordID": 45, "type": "PRES_AUD", "trial_index": 33}, "uniqueid": "MTK1755:39PAAFCODN7LPEJJAXB31ZC0WN6TVA", "dateTime": 1516295667986}, {"current_trial": 34, "trialdata": {"rt": -1000, "trial_type": "single-audio", "word": "omelet", "stimulus": "/static/audio/wordpool/OMELET.wav", "conditions": [18, 1200, "a", 18000], "internal_node_id": "0.0-25.0", "trial": 0, "time_elapsed": 147742, "serialpos": 13, "key_press": -1, "wordID": 975, "type": "PRES_AUD", "trial_index": 34}, "uniqueid": "MTK1755:39PAAFCODN7LPEJJAXB31ZC0WN6TVA", "dateTime": 1516295670324}, {"current_trial": 35, "trialdata": {"rt": -1000, "trial_type": "single-audio", "word": "drill", "stimulus": "/static/audio/wordpool/DRILL.wav", "conditions": [18, 1200, "a", 18000], "internal_node_id": "0.0-26.0", "trial": 0, "time_elapsed": 149878, "serialpos": 14, "key_press": -1, "wordID": 496, "type": "PRES_AUD", "trial_index": 35}, "uniqueid": "MTK1755:39PAAFCODN7LPEJJAXB31ZC0WN6TVA", "dateTime": 1516295672460}, {"current_trial": 36, "trialdata": {"rt": -1000, "trial_type": "single-audio", "word": "pimple", "stimulus": "/static/audio/wordpool/PIMPLE.wav", "conditions": [18, 1200, "a", 18000], "internal_node_id": "0.0-27.0", "trial": 0, "time_elapsed": 152205, "serialpos": 15, "key_press": -1, "wordID": 1070, "type": "PRES_AUD", "trial_index": 36}, "uniqueid": "MTK1755:39PAAFCODN7LPEJJAXB31ZC0WN6TVA", "dateTime": 1516295674787}, {"current_trial": 37, "trialdata": {"rt": -1000, "trial_type": "single-audio", "word": "crown", "stimulus": "/static/audio/wordpool/CROWN.wav", "conditions": [18, 1200, "a", 18000], "internal_node_id": "0.0-28.0", "trial": 0, "time_elapsed": 154388, "serialpos": 16, "key_press": -1, "wordID": 414, "type": "PRES_AUD", "trial_index": 37}, "uniqueid": "MTK1755:39PAAFCODN7LPEJJAXB31ZC0WN6TVA", "dateTime": 1516295676970}, {"current_trial": 38, "trialdata": {"rt": -1000, "trial_type": "single-audio", "word": "branch", "stimulus": "/static/audio/wordpool/BRANCH.wav", "conditions": [18, 1200, "a", 18000], "internal_node_id": "0.0-29.0", "trial": 0, "time_elapsed": 156641, "serialpos": 17, "key_press": -1, "wordID": 167, "type": "PRES_AUD", "trial_index": 38}, "uniqueid": "MTK1755:39PAAFCODN7LPEJJAXB31ZC0WN6TVA", "dateTime": 1516295679223}, {"current_trial": 39, "trialdata": {"rt": -1, "trial_type": "single-stim", "stimulus": "", "internal_node_id": "0.0-30.0-0.0", "time_elapsed": 157988, "key_press": -1, "type": "PRE_RECALL_DELAY", "trial_index": 39}, "uniqueid": "MTK1755:39PAAFCODN7LPEJJAXB31ZC0WN6TVA", "dateTime": 1516295680570}, {"current_trial": 40, "trialdata": {"rt": -1000, "trial_type": "single-audio", "stimulus": "/static/audio/400Hz.wav", "internal_node_id": "0.0-31.0", "time_elapsed": 158489, "key_press": -1, "type": "PRE_RECALL_ALERT", "trial_index": 40}, "uniqueid": "MTK1755:39PAAFCODN7LPEJJAXB31ZC0WN6TVA", "dateTime": 1516295681072}, {"current_trial": 41, "trialdata": {"rt": [2189, 5142, 6840, 8665, 9965, 12292, 14098, 19433, 24124, 58694], "recwords": ["body", "lodge", "smog", "pimple", "drill", "branch", "smog", "omlet", "cabin", ""], "key_times": [1074, 1301, 1568, 1824, 2189, 2864, 3057, 3342, 3951, 4141, 4375, 4541, 5142, 5438, 5734, 5979, 6401, 6840, 7404, 7643, 7856, 8085, 8272, 8432, 8665, 8991, 9170, 9397, 9579, 9712, 9965, 10595, 10695, 10877, 11031, 11241, 11897, 12292, 12990, 13116, 13307, 13480, 14098, 18273, 18437, 18625, 18748, 18982, 19433, 22784, 22903, 23107, 23191, 23388, 24124, 58694], "trial_type": "free-recall", "conditions": [18, 1200, "a", 18000], "internal_node_id": "0.0-32.0-0.0", "key_presses": [66, 79, 68, 89, 13, 76, 79, 71, 8, 68, 71, 69, 13, 83, 77, 79, 71, 13, 80, 73, 77, 80, 76, 69, 13, 68, 82, 73, 76, 76, 13, 66, 82, 65, 78, 67, 72, 13, 83, 77, 79, 71, 13, 79, 77, 76, 69, 84, 13, 67, 65, 66, 73, 78, 13, 32], "trial": 0, "time_elapsed": 218496, "type": "FREE_RECALL", "trial_index": 41}, "uniqueid": "MTK1755:39PAAFCODN7LPEJJAXB31ZC0WN6TVA", "dateTime": 1516295741081}, {"current_trial": 42, "trialdata": {"rt": 1817, "trial_type": "text", "internal_node_id": "0.0-33.0", "time_elapsed": 222322, "key_press": 32, "type": "INSTRUCTIONS", "trial_index": 42}, "uniqueid": "MTK1755:39PAAFCODN7LPEJJAXB31ZC0WN6TVA", "dateTime": 1516295744904}, {"current_trial": 43, "trialdata": {"rt": [3625, 6095, 9797, 13526], "trial_type": "math-distractor", "key_times": [2736, 3625, 5818, 5940, 6095, 9228, 9456, 9797, 12872, 13146, 13526, 17767], "responses": ["8", "12", "13", "13"], "num2": [1, 1, 6, 1, 8], "num3": [1, 9, 5, 5, 6], "conditions": [18, 1200, "a", 18000], "internal_node_id": "0.0-34.0", "key_presses": [56, 13, 49, 50, 13, 49, 51, 13, 49, 51, 13, 50], "trial": 1, "time_elapsed": 242328, "type": "DISTRACTOR", "trial_index": 43, "num1": [6, 2, 2, 7, 6]}, "uniqueid": "MTK1755:39PAAFCODN7LPEJJAXB31ZC0WN6TVA", "dateTime": 1516295764910}, {"current_trial": 44, "trialdata": {"rt": -1, "trial_type": "single-stim", "stimulus": "<p id=\"stim\">10</p>", "internal_node_id": "0.0-35.0-0.0", "time_elapsed": 245334, "key_press": -1, "trial_index": 44}, "uniqueid": "MTK1755:39PAAFCODN7LPEJJAXB31ZC0WN6TVA", "dateTime": 1516295767916}, {"current_trial": 45, "trialdata": {"rt": -1, "trial_type": "single-stim", "stimulus": "<p id=\"stim\">9</p>", "internal_node_id": "0.0-35.0-1.0", "time_elapsed": 246338, "key_press": -1, "trial_index": 45}, "uniqueid": "MTK1755:39PAAFCODN7LPEJJAXB31ZC0WN6TVA", "dateTime": 1516295768920}, {"current_trial": 46, "trialdata": {"rt": -1, "trial_type": "single-stim", "stimulus": "<p id=\"stim\">8</p>", "internal_node_id": "0.0-35.0-2.0", "time_elapsed": 247342, "key_press": -1, "trial_index": 46}, "uniqueid": "MTK1755:39PAAFCODN7LPEJJAXB31ZC0WN6TVA", "dateTime": 1516295769924}, {"current_trial": 47, "trialdata": {"rt": -1, "trial_type": "single-stim", "stimulus": "<p id=\"stim\">7</p>", "internal_node_id": "0.0-35.0-3.0", "time_elapsed": 248346, "key_press": -1, "trial_index": 47}, "uniqueid": "MTK1755:39PAAFCODN7LPEJJAXB31ZC0WN6TVA", "dateTime": 1516295770928}, {"current_trial": 48, "trialdata": {"rt": -1, "trial_type": "single-stim", "stimulus": "<p id=\"stim\">6</p>", "internal_node_id": "0.0-35.0-4.0", "time_elapsed": 249350, "key_press": -1, "trial_index": 48}, "uniqueid": "MTK1755:39PAAFCODN7LPEJJAXB31ZC0WN6TVA", "dateTime": 1516295771932}, {"current_trial": 49, "trialdata": {"rt": -1, "trial_type": "single-stim", "stimulus": "<p id=\"stim\">5</p>", "internal_node_id": "0.0-35.0-5.0", "time_elapsed": 250354, "key_press": -1, "trial_index": 49}, "uniqueid": "MTK1755:39PAAFCODN7LPEJJAXB31ZC0WN6TVA", "dateTime": 1516295772936}, {"current_trial": 50, "trialdata": {"rt": -1, "trial_type": "single-stim", "stimulus": "<p id=\"stim\">4</p>", "internal_node_id": "0.0-35.0-6.0", "time_elapsed": 251359, "key_press": -1, "trial_index": 50}, "uniqueid": "MTK1755:39PAAFCODN7LPEJJAXB31ZC0WN6TVA", "dateTime": 1516295773941}, {"current_trial": 51, "trialdata": {"rt": -1, "trial_type": "single-stim", "stimulus": "<p id=\"stim\">3</p>", "internal_node_id": "0.0-35.0-7.0", "time_elapsed": 252362, "key_press": -1, "trial_index": 51}, "uniqueid": "MTK1755:39PAAFCODN7LPEJJAXB31ZC0WN6TVA", "dateTime": 1516295774945}, {"current_trial": 52, "trialdata": {"rt": -1, "trial_type": "single-stim", "stimulus": "<p id=\"stim\">2</p>", "internal_node_id": "0.0-35.0-8.0", "time_elapsed": 253366, "key_press": -1, "trial_index": 52}, "uniqueid": "MTK1755:39PAAFCODN7LPEJJAXB31ZC0WN6TVA", "dateTime": 1516295775949}, {"current_trial": 53, "trialdata": {"rt": -1, "trial_type": "single-stim", "stimulus": "<p id=\"stim\">1</p>", "internal_node_id": "0.0-35.0-9.0", "time_elapsed": 254371, "key_press": -1, "trial_index": 53}, "uniqueid": "MTK1755:39PAAFCODN7LPEJJAXB31ZC0WN6TVA", "dateTime": 1516295776953}, {"current_trial": 54, "trialdata": {"rt": -1, "trial_type": "single-stim", "stimulus": "<p id=\"stim\">+</p>", "internal_node_id": "0.0-36.0-0.0", "time_elapsed": 255874, "key_press": -1, "type": "FIXATION", "trial_index": 54}, "uniqueid": "MTK1755:39PAAFCODN7LPEJJAXB31ZC0WN6TVA", "dateTime": 1516295778456}, {"current_trial": 55, "trialdata": {"rt": -1000, "trial_type": "single-audio", "word": "mars", "stimulus": "/static/audio/wordpool/MARS.wav", "conditions": [18, 1200, "a", 18000], "internal_node_id": "0.0-37.0", "trial": 1, "time_elapsed": 258149, "serialpos": 0, "key_press": -1, "wordID": 872, "type": "PRES_AUD", "trial_index": 55}, "uniqueid": "MTK1755:39PAAFCODN7LPEJJAXB31ZC0WN6TVA", "dateTime": 1516295780732}, {"current_trial": 56, "trialdata": {"rt": -1000, "trial_type": "single-audio", "word": "woman", "stimulus": "/static/audio/wordpool/WOMAN.wav", "conditions": [18, 1200, "a", 18000], "internal_node_id": "0.0-38.0", "trial": 1, "time_elapsed": 260457, "serialpos": 1, "key_press": -1, "wordID": 1619, "type": "PRES_AUD", "trial_index": 56}, "uniqueid": "MTK1755:39PAAFCODN7LPEJJAXB31ZC0WN6TVA", "dateTime": 1516295783039}, {"current_trial": 57, "trialdata": {"rt": -1000, "trial_type": "single-audio", "word": "marsh", "stimulus": "/static/audio/wordpool/MARSH.wav", "conditions": [18, 1200, "a", 18000], "internal_node_id": "0.0-39.0", "trial": 1, "time_elapsed": 262483, "serialpos": 2, "key_press": -1, "wordID": 873, "type": "PRES_AUD", "trial_index": 57}, "uniqueid": "MTK1755:39PAAFCODN7LPEJJAXB31ZC0WN6TVA", "dateTime": 1516295785065}, {"current_trial": 58, "trialdata": {"rt": -1000, "trial_type": "single-audio", "word": "velvet", "stimulus": "/static/audio/wordpool/VELVET.wav", "conditions": [18, 1200, "a", 18000], "internal_node_id": "0.0-40.0", "trial": 1, "time_elapsed": 264672, "serialpos": 3, "key_press": -1, "wordID": 1554, "type": "PRES_AUD", "trial_index": 58}, "uniqueid": "MTK1755:39PAAFCODN7LPEJJAXB31ZC0WN6TVA", "dateTime": 1516295787254}, {"current_trial": 59, "trialdata": {"rt": -1000, "trial_type": "single-audio", "word": "leader", "stimulus": "/static/audio/wordpool/LEADER.wav", "conditions": [18, 1200, "a", 18000], "internal_node_id": "0.0-41.0", "trial": 1, "time_elapsed": 266920, "serialpos": 4, "key_press": -1, "wordID": 806, "type": "PRES_AUD", "trial_index": 59}, "uniqueid": "MTK1755:39PAAFCODN7LPEJJAXB31ZC0WN6TVA", "dateTime": 1516295789502}, {"current_trial": 60, "trialdata": {"rt": -1000, "trial_type": "single-audio", "word": "flag", "stimulus": "/static/audio/wordpool/FLAG.wav", "conditions": [18, 1200, "a", 18000], "internal_node_id": "0.0-42.0", "trial": 1, "time_elapsed": 268938, "serialpos": 5, "key_press": -1, "wordID": 572, "type": "PRES_AUD", "trial_index": 60}, "uniqueid": "MTK1755:39PAAFCODN7LPEJJAXB31ZC0WN6TVA", "dateTime": 1516295791521}, {"current_trial": 61, "trialdata": {"rt": -1000, "trial_type": "single-audio", "word": "canal", "stimulus": "/static/audio/wordpool/CANAL.wav", "conditions": [18, 1200, "a", 18000], "internal_node_id": "0.0-43.0", "trial": 1, "time_elapsed": 271336, "serialpos": 6, "key_press": -1, "wordID": 225, "type": "PRES_AUD", "trial_index": 61}, "uniqueid": "MTK1755:39PAAFCODN7LPEJJAXB31ZC0WN6TVA", "dateTime": 1516295793918}, {"current_trial": 62, "trialdata": {"rt": -1000, "trial_type": "single-audio", "word": "casket", "stimulus": "/static/audio/wordpool/CASKET.wav", "conditions": [18, 1200, "a", 18000], "internal_node_id": "0.0-44.0", "trial": 1, "time_elapsed": 273676, "serialpos": 7, "key_press": -1, "wordID": 254, "type": "PRES_AUD", "trial_index": 62}, "uniqueid": "MTK1755:39PAAFCODN7LPEJJAXB31ZC0WN6TVA", "dateTime": 1516295796258}, {"current_trial": 63, "trialdata": {"rt": -1000, "trial_type": "single-audio", "word": "slide", "stimulus": "/static/audio/wordpool/SLIDE.wav", "conditions": [18, 1200, "a", 18000], "internal_node_id": "0.0-45.0", "trial": 1, "time_elapsed": 275899, "serialpos": 8, "key_press": -1, "wordID": 1325, "type": "PRES_AUD", "trial_index": 63}, "uniqueid": "MTK1755:39PAAFCODN7LPEJJAXB31ZC0WN6TVA", "dateTime": 1516295798481}, {"current_trial": 64, "trialdata": {"rt": -1000, "trial_type": "single-audio", "word": "coin", "stimulus": "/static/audio/wordpool/COIN.wav", "conditions": [18, 1200, "a", 18000], "internal_node_id": "0.0-46.0", "trial": 1, "time_elapsed": 278256, "serialpos": 9, "key_press": -1, "wordID": 342, "type": "PRES_AUD", "trial_index": 64}, "uniqueid": "MTK1755:39PAAFCODN7LPEJJAXB31ZC0WN6TVA", "dateTime": 1516295800838}, {"current_trial": 65, "trialdata": {"rt": -1000, "trial_type": "single-audio", "word": "bullet", "stimulus": "/static/audio/wordpool/BULLET.wav", "conditions": [18, 1200, "a", 18000], "internal_node_id": "0.0-47.0", "trial": 1, "time_elapsed": 280647, "serialpos": 10, "key_press": -1, "wordID": 193, "type": "PRES_AUD", "trial_index": 65}, "uniqueid": "MTK1755:39PAAFCODN7LPEJJAXB31ZC0WN6TVA", "dateTime": 1516295803229}, {"current_trial": 66, "trialdata": {"rt": -1000, "trial_type": "single-audio", "word": "valley", "stimulus": "/static/audio/wordpool/VALLEY.wav", "conditions": [18, 1200, "a", 18000], "internal_node_id": "0.0-48.0", "trial": 1, "time_elapsed": 282929, "serialpos": 11, "key_press": -1, "wordID": 1544, "type": "PRES_AUD", "trial_index": 66}, "uniqueid": "MTK1755:39PAAFCODN7LPEJJAXB31ZC0WN6TVA", "dateTime": 1516295805511}, {"current_trial": 67, "trialdata": {"rt": -1000, "trial_type": "single-audio", "word": "onion", "stimulus": "/static/audio/wordpool/ONION.wav", "conditions": [18, 1200, "a", 18000], "internal_node_id": "0.0-49.0", "trial": 1, "time_elapsed": 285013, "serialpos": 12, "key_press": -1, "wordID": 976, "type": "PRES_AUD", "trial_index": 67}, "uniqueid": "MTK1755:39PAAFCODN7LPEJJAXB31ZC0WN6TVA", "dateTime": 1516295807595}, {"current_trial": 68, "trialdata": {"rt": -1000, "trial_type": "single-audio", "word": "coffee", "stimulus": "/static/audio/wordpool/COFFEE.wav", "conditions": [18, 1200, "a", 18000], "internal_node_id": "0.0-50.0", "trial": 1, "time_elapsed": 287137, "serialpos": 13, "key_press": -1, "wordID": 340, "type": "PRES_AUD", "trial_index": 68}, "uniqueid": "MTK1755:39PAAFCODN7LPEJJAXB31ZC0WN6TVA", "dateTime": 1516295809721}, {"current_trial": 69, "trialdata": {"rt": -1000, "trial_type": "single-audio", "word": "sausage", "stimulus": "/static/audio/wordpool/SAUSAGE.wav", "conditions": [18, 1200, "a", 18000], "internal_node_id": "0.0-51.0", "trial": 1, "time_elapsed": 289506, "serialpos": 14, "key_press": -1, "wordID": 1237, "type": "PRES_AUD", "trial_index": 69}, "uniqueid": "MTK1755:39PAAFCODN7LPEJJAXB31ZC0WN6TVA", "dateTime": 1516295812088}, {"current_trial": 70, "trialdata": {"rt": -1000, "trial_type": "single-audio", "word": "fox", "stimulus": "/static/audio/wordpool/FOX.wav", "conditions": [18, 1200, "a", 18000], "internal_node_id": "0.0-52.0", "trial": 1, "time_elapsed": 291868, "serialpos": 15, "key_press": -1, "wordID": 597, "type": "PRES_AUD", "trial_index": 70}, "uniqueid": "MTK1755:39PAAFCODN7LPEJJAXB31ZC0WN6TVA", "dateTime": 1516295814450}, {"current_trial": 71, "trialdata": {"rt": -1000, "trial_type": "single-audio", "word": "drawing", "stimulus": "/static/audio/wordpool/DRAWING.wav", "conditions": [18, 1200, "a", 18000], "internal_node_id": "0.0-53.0", "trial": 1, "time_elapsed": 293999, "serialpos": 16, "key_press": -1, "wordID": 493, "type": "PRES_AUD", "trial_index": 71}, "uniqueid": "MTK1755:39PAAFCODN7LPEJJAXB31ZC0WN6TVA", "dateTime": 1516295816581}, {"current_trial": 72, "trialdata": {"rt": -1000, "trial_type": "single-audio", "word": "typist", "stimulus": "/static/audio/wordpool/TYPIST.wav", "conditions": [18, 1200, "a", 18000], "internal_node_id": "0.0-54.0", "trial": 1, "time_elapsed": 296239, "serialpos": 17, "key_press": -1, "wordID": 1531, "type": "PRES_AUD", "trial_index": 72}, "uniqueid": "MTK1755:39PAAFCODN7LPEJJAXB31ZC0WN6TVA", "dateTime": 1516295818822}, {"current_trial": 73, "trialdata": {"rt": -1, "trial_type": "single-stim", "stimulus": "", "internal_node_id": "0.0-55.0-0.0", "time_elapsed": 297598, "key_press": -1, "type": "PRE_RECALL_DELAY", "trial_index": 73}, "uniqueid": "MTK1755:39PAAFCODN7LPEJJAXB31ZC0WN6TVA", "dateTime": 1516295820180}, {"current_trial": 74, "trialdata": {"rt": -1000, "trial_type": "single-audio", "stimulus": "/static/audio/400Hz.wav", "internal_node_id": "0.0-56.0", "time_elapsed": 298100, "key_press": -1, "type": "PRE_RECALL_ALERT", "trial_index": 74}, "uniqueid": "MTK1755:39PAAFCODN7LPEJJAXB31ZC0WN6TVA", "dateTime": 1516295820682}, {"current_trial": 75, "trialdata": {"rt": [2797, 4871, 7435, 9374, 12059, 13002, 15723, 25122, 29389, 34967, 45016, 46774], "recwords": ["typist", "mars", "woman", "drawing", "velvet", "", "leader", "typist", "slide", "canal", "valley", ""], "key_times": [918, 1147, 1614, 1902, 2164, 2447, 2797, 3948, 4080, 4238, 4675, 4871, 5076, 5304, 6051, 6558, 6784, 6916, 7064, 7435, 7729, 7931, 8118, 8299, 8557, 8767, 8902, 9374, 10794, 10992, 11260, 11585, 11735, 11902, 12059, 13002, 13607, 14342, 14499, 14624, 14890, 15066, 15166, 15723, 21809, 22099, 23768, 23984, 24150, 24489, 25122, 28246, 28406, 28668, 28900, 29109, 29389, 29691, 29848, 29993, 30193, 30349, 31298, 31477, 32481, 32753, 32989, 33674, 33822, 34469, 34967, 40644, 42014, 42937, 43147, 44064, 44233, 45016, 46774], "trial_type": "free-recall", "conditions": [18, 1200, "a", 18000], "internal_node_id": "0.0-57.0-0.0", "key_presses": [84, 89, 80, 73, 83, 84, 13, 77, 65, 82, 83, 13, 87, 80, 8, 79, 77, 65, 78, 13, 68, 82, 65, 87, 73, 78, 71, 13, 86, 69, 76, 86, 69, 84, 32, 186, 8, 76, 69, 65, 68, 69, 82, 13, 84, 89, 80, 73, 83, 84, 13, 83, 76, 73, 68, 69, 13, 67, 65, 76, 65, 78, 8, 8, 8, 78, 76, 8, 65, 76, 13, 86, 65, 76, 76, 69, 89, 13, 13], "trial": 1, "time_elapsed": 358107, "type": "FREE_RECALL", "trial_index": 75}, "uniqueid": "MTK1755:39PAAFCODN7LPEJJAXB31ZC0WN6TVA", "dateTime": 1516295880691}, {"current_trial": 76, "trialdata": {"rt": 2137, "trial_type": "text", "internal_node_id": "0.0-58.0", "time_elapsed": 362251, "key_press": 32, "type": "INSTRUCTIONS", "trial_index": 76}, "uniqueid": "MTK1755:39PAAFCODN7LPEJJAXB31ZC0WN6TVA", "dateTime": 1516295884833}, {"current_trial": 77, "trialdata": {"rt": [4216, 6216, 10221, 15552, 17949, 21617, 23863], "trial_type": "math-distractor", "key_times": [1843, 2301, 3308, 3512, 4216, 5704, 5911, 6216, 9852, 10003, 10221, 13085, 13895, 14464, 15271, 15552, 17603, 17949, 20869, 21306, 21617, 23431, 23863], "responses": ["16", "14", "21", "14", "8", "16", "8"], "num2": [6, 8, 6, 2, 1, 9, 5, 7], "num3": [6, 4, 9, 9, 3, 4, 2, 7], "conditions": [12, 800, "a", 24000], "internal_node_id": "0.0-59.0", "key_presses": [49, 53, 8, 54, 13, 49, 52, 13, 50, 49, 13, 50, 8, 49, 52, 13, 56, 13, 49, 54, 13, 56, 13], "trial": 2, "time_elapsed": 387260, "type": "DISTRACTOR", "trial_index": 77, "num1": [4, 2, 6, 3, 4, 3, 1, 8]}, "uniqueid": "MTK1755:39PAAFCODN7LPEJJAXB31ZC0WN6TVA", "dateTime": 1516295909842}, {"current_trial": 78, "trialdata": {"rt": -1, "trial_type": "single-stim", "stimulus": "<p id=\"stim\">10</p>", "internal_node_id": "0.0-60.0-0.0", "time_elapsed": 390266, "key_press": -1, "trial_index": 78}, "uniqueid": "MTK1755:39PAAFCODN7LPEJJAXB31ZC0WN6TVA", "dateTime": 1516295912849}, {"current_trial": 79, "trialdata": {"rt": -1, "trial_type": "single-stim", "stimulus": "<p id=\"stim\">9</p>", "internal_node_id": "0.0-60.0-1.0", "time_elapsed": 391271, "key_press": -1, "trial_index": 79}, "uniqueid": "MTK1755:39PAAFCODN7LPEJJAXB31ZC0WN6TVA", "dateTime": 1516295913853}, {"current_trial": 80, "trialdata": {"rt": -1, "trial_type": "single-stim", "stimulus": "<p id=\"stim\">8</p>", "internal_node_id": "0.0-60.0-2.0", "time_elapsed": 392275, "key_press": -1, "trial_index": 80}, "uniqueid": "MTK1755:39PAAFCODN7LPEJJAXB31ZC0WN6TVA", "dateTime": 1516295914857}, {"current_trial": 81, "trialdata": {"rt": -1, "trial_type": "single-stim", "stimulus": "<p id=\"stim\">7</p>", "internal_node_id": "0.0-60.0-3.0", "time_elapsed": 393279, "key_press": -1, "trial_index": 81}, "uniqueid": "MTK1755:39PAAFCODN7LPEJJAXB31ZC0WN6TVA", "dateTime": 1516295915861}, {"current_trial": 82, "trialdata": {"rt": -1, "trial_type": "single-stim", "stimulus": "<p id=\"stim\">6</p>", "internal_node_id": "0.0-60.0-4.0", "time_elapsed": 394282, "key_press": -1, "trial_index": 82}, "uniqueid": "MTK1755:39PAAFCODN7LPEJJAXB31ZC0WN6TVA", "dateTime": 1516295916865}, {"current_trial": 83, "trialdata": {"rt": -1, "trial_type": "single-stim", "stimulus": "<p id=\"stim\">5</p>", "internal_node_id": "0.0-60.0-5.0", "time_elapsed": 395287, "key_press": -1, "trial_index": 83}, "uniqueid": "MTK1755:39PAAFCODN7LPEJJAXB31ZC0WN6TVA", "dateTime": 1516295917869}, {"current_trial": 84, "trialdata": {"rt": -1, "trial_type": "single-stim", "stimulus": "<p id=\"stim\">4</p>", "internal_node_id": "0.0-60.0-6.0", "time_elapsed": 396291, "key_press": -1, "trial_index": 84}, "uniqueid": "MTK1755:39PAAFCODN7LPEJJAXB31ZC0WN6TVA", "dateTime": 1516295918874}, {"current_trial": 85, "trialdata": {"rt": -1, "trial_type": "single-stim", "stimulus": "<p id=\"stim\">3</p>", "internal_node_id": "0.0-60.0-7.0", "time_elapsed": 397295, "key_press": -1, "trial_index": 85}, "uniqueid": "MTK1755:39PAAFCODN7LPEJJAXB31ZC0WN6TVA", "dateTime": 1516295919878}, {"current_trial": 86, "trialdata": {"rt": -1, "trial_type": "single-stim", "stimulus": "<p id=\"stim\">2</p>", "internal_node_id": "0.0-60.0-8.0", "time_elapsed": 398299, "key_press": -1, "trial_index": 86}, "uniqueid": "MTK1755:39PAAFCODN7LPEJJAXB31ZC0WN6TVA", "dateTime": 1516295920881}, {"current_trial": 87, "trialdata": {"rt": -1, "trial_type": "single-stim", "stimulus": "<p id=\"stim\">1</p>", "internal_node_id": "0.0-60.0-9.0", "time_elapsed": 399301, "key_press": -1, "trial_index": 87}, "uniqueid": "MTK1755:39PAAFCODN7LPEJJAXB31ZC0WN6TVA", "dateTime": 1516295921883}, {"current_trial": 88, "trialdata": {"rt": -1, "trial_type": "single-stim", "stimulus": "<p id=\"stim\">+</p>", "internal_node_id": "0.0-61.0-0.0", "time_elapsed": 400806, "key_press": -1, "type": "FIXATION", "trial_index": 88}, "uniqueid": "MTK1755:39PAAFCODN7LPEJJAXB31ZC0WN6TVA", "dateTime": 1516295923389}, {"current_trial": 89, "trialdata": {"rt": -1000, "trial_type": "single-audio", "word": "hound", "stimulus": "/static/audio/wordpool/HOUND.wav", "conditions": [12, 800, "a", 24000], "internal_node_id": "0.0-62.0", "trial": 2, "time_elapsed": 402713, "serialpos": 0, "key_press": -1, "wordID": 723, "type": "PRES_AUD", "trial_index": 89}, "uniqueid": "MTK1755:39PAAFCODN7LPEJJAXB31ZC0WN6TVA", "dateTime": 1516295925295}, {"current_trial": 90, "trialdata": {"rt": -1000, "trial_type": "single-audio", "word": "mummy", "stimulus": "/static/audio/wordpool/MUMMY.wav", "conditions": [12, 800, "a", 24000], "internal_node_id": "0.0-63.0", "trial": 2, "time_elapsed": 404542, "serialpos": 1, "key_press": -1, "wordID": 931, "type": "PRES_AUD", "trial_index": 90}, "uniqueid": "MTK1755:39PAAFCODN7LPEJJAXB31ZC0WN6TVA", "dateTime": 1516295927124}, {"current_trial": 91, "trialdata": {"rt": -1000, "trial_type": "single-audio", "word": "daisy", "stimulus": "/static/audio/wordpool/DAISY.wav", "conditions": [12, 800, "a", 24000], "internal_node_id": "0.0-64.0", "trial": 2, "time_elapsed": 406498, "serialpos": 2, "key_press": -1, "wordID": 434, "type": "PRES_AUD", "trial_index": 91}, "uniqueid": "MTK1755:39PAAFCODN7LPEJJAXB31ZC0WN6TVA", "dateTime": 1516295929080}, {"current_trial": 92, "trialdata": {"rt": -1000, "trial_type": "single-audio", "word": "queen", "stimulus": "/static/audio/wordpool/QUEEN.wav", "conditions": [12, 800, "a", 24000], "internal_node_id": "0.0-65.0", "trial": 2, "time_elapsed": 408332, "serialpos": 3, "key_press": -1, "wordID": 1148, "type": "PRES_AUD", "trial_index": 92}, "uniqueid": "MTK1755:39PAAFCODN7LPEJJAXB31ZC0WN6TVA", "dateTime": 1516295930915}, {"current_trial": 93, "trialdata": {"rt": -1000, "trial_type": "single-audio", "word": "judge", "stimulus": "/static/audio/wordpool/JUDGE.wav", "conditions": [12, 800, "a", 24000], "internal_node_id": "0.0-66.0", "trial": 2, "time_elapsed": 410225, "serialpos": 4, "key_press": -1, "wordID": 760, "type": "PRES_AUD", "trial_index": 93}, "uniqueid": "MTK1755:39PAAFCODN7LPEJJAXB31ZC0WN6TVA", "dateTime": 1516295932807}, {"current_trial": 94, "trialdata": {"rt": -1000, "trial_type": "single-audio", "word": "flower", "stimulus": "/static/audio/wordpool/FLOWER.wav", "conditions": [12, 800, "a", 24000], "internal_node_id": "0.0-67.0", "trial": 2, "time_elapsed": 412042, "serialpos": 5, "key_press": -1, "wordID": 583, "type": "PRES_AUD", "trial_index": 94}, "uniqueid": "MTK1755:39PAAFCODN7LPEJJAXB31ZC0WN6TVA", "dateTime": 1516295934624}, {"current_trial": 95, "trialdata": {"rt": -1000, "trial_type": "single-audio", "word": "snake", "stimulus": "/static/audio/wordpool/SNAKE.wav", "conditions": [12, 800, "a", 24000], "internal_node_id": "0.0-68.0", "trial": 2, "time_elapsed": 413708, "serialpos": 6, "key_press": -1, "wordID": 1332, "type": "PRES_AUD", "trial_index": 95}, "uniqueid": "MTK1755:39PAAFCODN7LPEJJAXB31ZC0WN6TVA", "dateTime": 1516295936290}, {"current_trial": 96, "trialdata": {"rt": -1000, "trial_type": "single-audio", "word": "garbage", "stimulus": "/static/audio/wordpool/GARBAGE.wav", "conditions": [12, 800, "a", 24000], "internal_node_id": "0.0-69.0", "trial": 2, "time_elapsed": 415699, "serialpos": 7, "key_press": -1, "wordID": 621, "type": "PRES_AUD", "trial_index": 96}, "uniqueid": "MTK1755:39PAAFCODN7LPEJJAXB31ZC0WN6TVA", "dateTime": 1516295938281}, {"current_trial": 97, "trialdata": {"rt": -1000, "trial_type": "single-audio", "word": "wrench", "stimulus": "/static/audio/wordpool/WRENCH.wav", "conditions": [12, 800, "a", 24000], "internal_node_id": "0.0-70.0", "trial": 2, "time_elapsed": 417522, "serialpos": 8, "key_press": -1, "wordID": 1624, "type": "PRES_AUD", "trial_index": 97}, "uniqueid": "MTK1755:39PAAFCODN7LPEJJAXB31ZC0WN6TVA", "dateTime": 1516295940104}, {"current_trial": 98, "trialdata": {"rt": -1000, "trial_type": "single-audio", "word": "picture", "stimulus": "/static/audio/wordpool/PICTURE.wav", "conditions": [12, 800, "a", 24000], "internal_node_id": "0.0-71.0", "trial": 2, "time_elapsed": 419228, "serialpos": 9, "key_press": -1, "wordID": 1060, "type": "PRES_AUD", "trial_index": 98}, "uniqueid": "MTK1755:39PAAFCODN7LPEJJAXB31ZC0WN6TVA", "dateTime": 1516295941811}, {"current_trial": 99, "trialdata": {"rt": -1000, "trial_type": "single-audio", "word": "stove", "stimulus": "/static/audio/wordpool/STOVE.wav", "conditions": [12, 800, "a", 24000], "internal_node_id": "0.0-72.0", "trial": 2, "time_elapsed": 420956, "serialpos": 10, "key_press": -1, "wordID": 1387, "type": "PRES_AUD", "trial_index": 99}, "uniqueid": "MTK1755:39PAAFCODN7LPEJJAXB31ZC0WN6TVA", "dateTime": 1516295943538}, {"current_trial": 100, "trialdata": {"rt": -1000, "trial_type": "single-audio", "word": "kitchen", "stimulus": "/static/audio/wordpool/KITCHEN.wav", "conditions": [12, 800, "a", 24000], "internal_node_id": "0.0-73.0", "trial": 2, "time_elapsed": 422677, "serialpos": 11, "key_press": -1, "wordID": 777, "type": "PRES_AUD", "trial_index": 100}, "uniqueid": "MTK1755:39PAAFCODN7LPEJJAXB31ZC0WN6TVA", "dateTime": 1516295945259}, {"current_trial": 101, "trialdata": {"rt": -1, "trial_type": "single-stim", "stimulus": "", "internal_node_id": "0.0-74.0-0.0", "time_elapsed": 423955, "key_press": -1, "type": "PRE_RECALL_DELAY", "trial_index": 101}, "uniqueid": "MTK1755:39PAAFCODN7LPEJJAXB31ZC0WN6TVA", "dateTime": 1516295946537}, {"current_trial": 102, "trialdata": {"rt": -1000, "trial_type": "single-audio", "stimulus": "/static/audio/400Hz.wav", "internal_node_id": "0.0-75.0", "time_elapsed": 424457, "key_press": -1, "type": "PRE_RECALL_ALERT", "trial_index": 102}, "uniqueid": "MTK1755:39PAAFCODN7LPEJJAXB31ZC0WN6TVA", "dateTime": 1516295947039}, {"current_trial": 103, "trialdata": {"rt": [1865, 4467, 6229, 7843, 10929, 13137, 18154, 20939, 21703, 55028], "recwords": ["stove", "kitchen", "hound", "mummy", "snake", "garden", "queen", "wrench", "", ""], "key_times": [658, 971, 1174, 1396, 1526, 1865, 2793, 2978, 3241, 3551, 3742, 3905, 4192, 4467, 5071, 5224, 5344, 5550, 5708, 6229, 6515, 6763, 7029, 7183, 7530, 7843, 9220, 9505, 9640, 10647, 10758, 10929, 11552, 11705, 11876, 12126, 12301, 12662, 13137, 13941, 14163, 14309, 14458, 14602, 15151, 15303, 15478, 15639, 15781, 16655, 16882, 17056, 17200, 17486, 18154, 19368, 19546, 19711, 20095, 20320, 20532, 20939, 21703, 55028], "trial_type": "free-recall", "conditions": [12, 800, "a", 24000], "internal_node_id": "0.0-76.0-0.0", "key_presses": [83, 84, 79, 86, 69, 13, 75, 73, 84, 67, 72, 69, 78, 13, 72, 79, 85, 78, 68, 13, 77, 85, 77, 77, 89, 13, 83, 78, 65, 75, 69, 13, 71, 65, 82, 68, 69, 78, 13, 87, 85, 69, 69, 78, 8, 8, 8, 8, 8, 81, 85, 69, 69, 78, 13, 87, 82, 69, 78, 67, 72, 13, 13, 32], "trial": 2, "time_elapsed": 484462, "type": "FREE_RECALL", "trial_index": 103}, "uniqueid": "MTK1755:39PAAFCODN7LPEJJAXB31ZC0WN6TVA", "dateTime": 1516296007047}, {"current_trial": 104, "trialdata": {"rt": 1895, "trial_type": "text", "internal_node_id": "0.0-77.0", "time_elapsed": 488366, "key_press": 32, "type": "INSTRUCTIONS", "trial_index": 104}, "uniqueid": "MTK1755:39PAAFCODN7LPEJJAXB31ZC0WN6TVA", "dateTime": 1516296010948}, {"current_trial": 105, "trialdata": {"rt": [3890, 5797, 8170], "trial_type": "math-distractor", "key_times": [3305, 3438, 3890, 5320, 5469, 5797, 7388, 7716, 8170, 11718], "responses": ["19", "12", "15"], "num2": [9, 1, 7, 1], "num3": [7, 3, 5, 5], "conditions": [24, 1600, "a", 12000], "internal_node_id": "0.0-78.0", "key_presses": [49, 57, 13, 49, 50, 13, 49, 53, 13, 49], "trial": 3, "time_elapsed": 502373, "type": "DISTRACTOR", "trial_index": 105, "num1": [3, 8, 3, 7]}, "uniqueid": "MTK1755:39PAAFCODN7LPEJJAXB31ZC0WN6TVA", "dateTime": 1516296024956}, {"current_trial": 106, "trialdata": {"rt": -1, "trial_type": "single-stim", "stimulus": "<p id=\"stim\">10</p>", "internal_node_id": "0.0-79.0-0.0", "time_elapsed": 505380, "key_press": -1, "trial_index": 106}, "uniqueid": "MTK1755:39PAAFCODN7LPEJJAXB31ZC0WN6TVA", "dateTime": 1516296027962}, {"current_trial": 107, "trialdata": {"rt": -1, "trial_type": "single-stim", "stimulus": "<p id=\"stim\">9</p>", "internal_node_id": "0.0-79.0-1.0", "time_elapsed": 506384, "key_press": -1, "trial_index": 107}, "uniqueid": "MTK1755:39PAAFCODN7LPEJJAXB31ZC0WN6TVA", "dateTime": 1516296028966}, {"current_trial": 108, "trialdata": {"rt": -1, "trial_type": "single-stim", "stimulus": "<p id=\"stim\">8</p>", "internal_node_id": "0.0-79.0-2.0", "time_elapsed": 507388, "key_press": -1, "trial_index": 108}, "uniqueid": "MTK1755:39PAAFCODN7LPEJJAXB31ZC0WN6TVA", "dateTime": 1516296029970}, {"current_trial": 109, "trialdata": {"rt": -1, "trial_type": "single-stim", "stimulus": "<p id=\"stim\">7</p>", "internal_node_id": "0.0-79.0-3.0", "time_elapsed": 508392, "key_press": -1, "trial_index": 109}, "uniqueid": "MTK1755:39PAAFCODN7LPEJJAXB31ZC0WN6TVA", "dateTime": 1516296030974}, {"current_trial": 110, "trialdata": {"rt": -1, "trial_type": "single-stim", "stimulus": "<p id=\"stim\">6</p>", "internal_node_id": "0.0-79.0-4.0", "time_elapsed": 509394, "key_press": -1, "trial_index": 110}, "uniqueid": "MTK1755:39PAAFCODN7LPEJJAXB31ZC0WN6TVA", "dateTime": 1516296031976}, {"current_trial": 111, "trialdata": {"rt": -1, "trial_type": "single-stim", "stimulus": "<p id=\"stim\">5</p>", "internal_node_id": "0.0-79.0-5.0", "time_elapsed": 510397, "key_press": -1, "trial_index": 111}, "uniqueid": "MTK1755:39PAAFCODN7LPEJJAXB31ZC0WN6TVA", "dateTime": 1516296032980}, {"current_trial": 112, "trialdata": {"rt": -1, "trial_type": "single-stim", "stimulus": "<p id=\"stim\">4</p>", "internal_node_id": "0.0-79.0-6.0", "time_elapsed": 511399, "key_press": -1, "trial_index": 112}, "uniqueid": "MTK1755:39PAAFCODN7LPEJJAXB31ZC0WN6TVA", "dateTime": 1516296033981}, {"current_trial": 113, "trialdata": {"rt": -1, "trial_type": "single-stim", "stimulus": "<p id=\"stim\">3</p>", "internal_node_id": "0.0-79.0-7.0", "time_elapsed": 512402, "key_press": -1, "trial_index": 113}, "uniqueid": "MTK1755:39PAAFCODN7LPEJJAXB31ZC0WN6TVA", "dateTime": 1516296034984}, {"current_trial": 114, "trialdata": {"rt": -1, "trial_type": "single-stim", "stimulus": "<p id=\"stim\">2</p>", "internal_node_id": "0.0-79.0-8.0", "time_elapsed": 513407, "key_press": -1, "trial_index": 114}, "uniqueid": "MTK1755:39PAAFCODN7LPEJJAXB31ZC0WN6TVA", "dateTime": 1516296035989}, {"current_trial": 115, "trialdata": {"rt": -1, "trial_type": "single-stim", "stimulus": "<p id=\"stim\">1</p>", "internal_node_id": "0.0-79.0-9.0", "time_elapsed": 514411, "key_press": -1, "trial_index": 115}, "uniqueid": "MTK1755:39PAAFCODN7LPEJJAXB31ZC0WN6TVA", "dateTime": 1516296036993}, {"current_trial": 116, "trialdata": {"rt": -1, "trial_type": "single-stim", "stimulus": "<p id=\"stim\">+</p>", "internal_node_id": "0.0-80.0-0.0", "time_elapsed": 515914, "key_press": -1, "type": "FIXATION", "trial_index": 116}, "uniqueid": "MTK1755:39PAAFCODN7LPEJJAXB31ZC0WN6TVA", "dateTime": 1516296038496}, {"current_trial": 117, "trialdata": {"rt": -1000, "trial_type": "single-audio", "word": "dresser", "stimulus": "/static/audio/wordpool/DRESSER.wav", "conditions": [24, 1600, "a", 12000], "internal_node_id": "0.0-81.0", "trial": 3, "time_elapsed": 518426, "serialpos": 0, "key_press": -1, "wordID": 495, "type": "PRES_AUD", "trial_index": 117}, "uniqueid": "MTK1755:39PAAFCODN7LPEJJAXB31ZC0WN6TVA", "dateTime": 1516296041008}, {"current_trial": 118, "trialdata": {"rt": -1000, "trial_type": "single-audio", "word": "rust", "stimulus": "/static/audio/wordpool/RUST.wav", "conditions": [24, 1600, "a", 12000], "internal_node_id": "0.0-82.0", "trial": 3, "time_elapsed": 521120, "serialpos": 1, "key_press": -1, "wordID": 1218, "type": "PRES_AUD", "trial_index": 118}, "uniqueid": "MTK1755:39PAAFCODN7LPEJJAXB31ZC0WN6TVA", "dateTime": 1516296043702}, {"current_trial": 119, "trialdata": {"rt": -1000, "trial_type": "single-audio", "word": "hook", "stimulus": "/static/audio/wordpool/HOOK.wav", "conditions": [24, 1600, "a", 12000], "internal_node_id": "0.0-83.0", "trial": 3, "time_elapsed": 523714, "serialpos": 2, "key_press": -1, "wordID": 714, "type": "PRES_AUD", "trial_index": 119}, "uniqueid": "MTK1755:39PAAFCODN7LPEJJAXB31ZC0WN6TVA", "dateTime": 1516296046296}, {"current_trial": 120, "trialdata": {"rt": -1000, "trial_type": "single-audio", "word": "frame", "stimulus": "/static/audio/wordpool/FRAME.wav", "conditions": [24, 1600, "a", 12000], "internal_node_id": "0.0-84.0", "trial": 3, "time_elapsed": 526199, "serialpos": 3, "key_press": -1, "wordID": 599, "type": "PRES_AUD", "trial_index": 120}, "uniqueid": "MTK1755:39PAAFCODN7LPEJJAXB31ZC0WN6TVA", "dateTime": 1516296048781}, {"current_trial": 121, "trialdata": {"rt": -1000, "trial_type": "single-audio", "word": "fireplace", "stimulus": "/static/audio/wordpool/FIREPLACE.wav", "conditions": [24, 1600, "a", 12000], "internal_node_id": "0.0-85.0", "trial": 3, "time_elapsed": 528608, "serialpos": 4, "key_press": -1, "wordID": 569, "type": "PRES_AUD", "trial_index": 121}, "uniqueid": "MTK1755:39PAAFCODN7LPEJJAXB31ZC0WN6TVA", "dateTime": 1516296051190}, {"current_trial": 122, "trialdata": {"rt": -1000, "trial_type": "single-audio", "word": "marine", "stimulus": "/static/audio/wordpool/MARINE.wav", "conditions": [24, 1600, "a", 12000], "internal_node_id": "0.0-86.0", "trial": 3, "time_elapsed": 531064, "serialpos": 5, "key_press": -1, "wordID": 868, "type": "PRES_AUD", "trial_index": 122}, "uniqueid": "MTK1755:39PAAFCODN7LPEJJAXB31ZC0WN6TVA", "dateTime": 1516296053647}, {"current_trial": 123, "trialdata": {"rt": -1000, "trial_type": "single-audio", "word": "college", "stimulus": "/static/audio/wordpool/COLLEGE.wav", "conditions": [24, 1600, "a", 12000], "internal_node_id": "0.0-87.0", "trial": 3, "time_elapsed": 533629, "serialpos": 6, "key_press": -1, "wordID": 345, "type": "PRES_AUD", "trial_index": 123}, "uniqueid": "MTK1755:39PAAFCODN7LPEJJAXB31ZC0WN6TVA", "dateTime": 1516296056212}, {"current_trial": 124, "trialdata": {"rt": -1000, "trial_type": "single-audio", "word": "student", "stimulus": "/static/audio/wordpool/STUDENT.wav", "conditions": [24, 1600, "a", 12000], "internal_node_id": "0.0-88.0", "trial": 3, "time_elapsed": 536127, "serialpos": 7, "key_press": -1, "wordID": 1394, "type": "PRES_AUD", "trial_index": 124}, "uniqueid": "MTK1755:39PAAFCODN7LPEJJAXB31ZC0WN6TVA", "dateTime": 1516296058709}, {"current_trial": 125, "trialdata": {"rt": -1000, "trial_type": "single-audio", "word": "wrist", "stimulus": "/static/audio/wordpool/WRIST.wav", "conditions": [24, 1600, "a", 12000], "internal_node_id": "0.0-89.0", "trial": 3, "time_elapsed": 538604, "serialpos": 8, "key_press": -1, "wordID": 1625, "type": "PRES_AUD", "trial_index": 125}, "uniqueid": "MTK1755:39PAAFCODN7LPEJJAXB31ZC0WN6TVA", "dateTime": 1516296061186}, {"current_trial": 126, "trialdata": {"rt": -1000, "trial_type": "single-audio", "word": "teacher", "stimulus": "/static/audio/wordpool/TEACHER.wav", "conditions": [24, 1600, "a", 12000], "internal_node_id": "0.0-90.0", "trial": 3, "time_elapsed": 541222, "serialpos": 9, "key_press": -1, "wordID": 1439, "type": "PRES_AUD", "trial_index": 126}, "uniqueid": "MTK1755:39PAAFCODN7LPEJJAXB31ZC0WN6TVA", "dateTime": 1516296063805}, {"current_trial": 127, "trialdata": {"rt": -1000, "trial_type": "single-audio", "word": "bathtub", "stimulus": "/static/audio/wordpool/BATHTUB.wav", "conditions": [24, 1600, "a", 12000], "internal_node_id": "0.0-91.0", "trial": 3, "time_elapsed": 543858, "serialpos": 10, "key_press": -1, "wordID": 99, "type": "PRES_AUD", "trial_index": 127}, "uniqueid": "MTK1755:39PAAFCODN7LPEJJAXB31ZC0WN6TVA", "dateTime": 1516296066440}, {"current_trial": 128, "trialdata": {"rt": -1000, "trial_type": "single-audio", "word": "finger", "stimulus": "/static/audio/wordpool/FINGER.wav", "conditions": [24, 1600, "a", 12000], "internal_node_id": "0.0-92.0", "trial": 3, "time_elapsed": 546627, "serialpos": 11, "key_press": -1, "wordID": 566, "type": "PRES_AUD", "trial_index": 128}, "uniqueid": "MTK1755:39PAAFCODN7LPEJJAXB31ZC0WN6TVA", "dateTime": 1516296069209}, {"current_trial": 129, "trialdata": {"rt": -1000, "trial_type": "single-audio", "word": "lagoon", "stimulus": "/static/audio/wordpool/LAGOON.wav", "conditions": [24, 1600, "a", 12000], "internal_node_id": "0.0-93.0", "trial": 3, "time_elapsed": 549308, "serialpos": 12, "key_press": -1, "wordID": 794, "type": "PRES_AUD", "trial_index": 129}, "uniqueid": "MTK1755:39PAAFCODN7LPEJJAXB31ZC0WN6TVA", "dateTime": 1516296071890}, {"current_trial": 130, "trialdata": {"rt": -1000, "trial_type": "single-audio", "word": "switch", "stimulus": "/static/audio/wordpool/SWITCH.wav", "conditions": [24, 1600, "a", 12000], "internal_node_id": "0.0-94.0", "trial": 3, "time_elapsed": 552075, "serialpos": 13, "key_press": -1, "wordID": 1421, "type": "PRES_AUD", "trial_index": 130}, "uniqueid": "MTK1755:39PAAFCODN7LPEJJAXB31ZC0WN6TVA", "dateTime": 1516296074657}, {"current_trial": 131, "trialdata": {"rt": -1000, "trial_type": "single-audio", "word": "donor", "stimulus": "/static/audio/wordpool/DONOR.wav", "conditions": [24, 1600, "a", 12000], "internal_node_id": "0.0-95.0", "trial": 3, "time_elapsed": 554818, "serialpos": 14, "key_press": -1, "wordID": 484, "type": "PRES_AUD", "trial_index": 131}, "uniqueid": "MTK1755:39PAAFCODN7LPEJJAXB31ZC0WN6TVA", "dateTime": 1516296077400}, {"current_trial": 132, "trialdata": {"rt": -1000, "trial_type": "single-audio", "word": "receipt", "stimulus": "/static/audio/wordpool/RECEIPT.wav", "conditions": [24, 1600, "a", 12000], "internal_node_id": "0.0-96.0", "trial": 3, "time_elapsed": 557540, "serialpos": 15, "key_press": -1, "wordID": 1172, "type": "PRES_AUD", "trial_index": 132}, "uniqueid": "MTK1755:39PAAFCODN7LPEJJAXB31ZC0WN6TVA", "dateTime": 1516296080122}, {"current_trial": 133, "trialdata": {"rt": -1000, "trial_type": "single-audio", "word": "france", "stimulus": "/static/audio/wordpool/FRANCE.wav", "conditions": [24, 1600, "a", 12000], "internal_node_id": "0.0-97.0", "trial": 3, "time_elapsed": 560176, "serialpos": 16, "key_press": -1, "wordID": 600, "type": "PRES_AUD", "trial_index": 133}, "uniqueid": "MTK1755:39PAAFCODN7LPEJJAXB31ZC0WN6TVA", "dateTime": 1516296082758}, {"current_trial": 134, "trialdata": {"rt": -1000, "trial_type": "single-audio", "word": "japan", "stimulus": "/static/audio/wordpool/JAPAN.wav", "conditions": [24, 1600, "a", 12000], "internal_node_id": "0.0-98.0", "trial": 3, "time_elapsed": 562951, "serialpos": 17, "key_press": -1, "wordID": 748, "type": "PRES_AUD", "trial_index": 134}, "uniqueid": "MTK1755:39PAAFCODN7LPEJJAXB31ZC0WN6TVA", "dateTime": 1516296085533}, {"current_trial": 135, "trialdata": {"rt": -1000, "trial_type": "single-audio", "word": "dolphin", "stimulus": "/static/audio/wordpool/DOLPHIN.wav", "conditions": [24, 1600, "a", 12000], "internal_node_id": "0.0-99.0", "trial": 3, "time_elapsed": 565737, "serialpos": 18, "key_press": -1, "wordID": 482, "type": "PRES_AUD", "trial_index": 135}, "uniqueid": "MTK1755:39PAAFCODN7LPEJJAXB31ZC0WN6TVA", "dateTime": 1516296088319}, {"current_trial": 136, "trialdata": {"rt": -1000, "trial_type": "single-audio", "word": "turtle", "stimulus": "/static/audio/wordpool/TURTLE.wav", "conditions": [24, 1600, "a", 12000], "internal_node_id": "0.0-100.0", "trial": 3, "time_elapsed": 568332, "serialpos": 19, "key_press": -1, "wordID": 1521, "type": "PRES_AUD", "trial_index": 136}, "uniqueid": "MTK1755:39PAAFCODN7LPEJJAXB31ZC0WN6TVA", "dateTime": 1516296090914}, {"current_trial": 137, "trialdata": {"rt": -1000, "trial_type": "single-audio", "word": "xerox", "stimulus": "/static/audio/wordpool/XEROX.wav", "conditions": [24, 1600, "a", 12000], "internal_node_id": "0.0-101.0", "trial": 3, "time_elapsed": 571057, "serialpos": 20, "key_press": -1, "wordID": 1627, "type": "PRES_AUD", "trial_index": 137}, "uniqueid": "MTK1755:39PAAFCODN7LPEJJAXB31ZC0WN6TVA", "dateTime": 1516296093639}, {"current_trial": 138, "trialdata": {"rt": -1000, "trial_type": "single-audio", "word": "stamp", "stimulus": "/static/audio/wordpool/STAMP.wav", "conditions": [24, 1600, "a", 12000], "internal_node_id": "0.0-102.0", "trial": 3, "time_elapsed": 573527, "serialpos": 21, "key_press": -1, "wordID": 1369, "type": "PRES_AUD", "trial_index": 138}, "uniqueid": "MTK1755:39PAAFCODN7LPEJJAXB31ZC0WN6TVA", "dateTime": 1516296096109}, {"current_trial": 139, "trialdata": {"rt": -1000, "trial_type": "single-audio", "word": "tortoise", "stimulus": "/static/audio/wordpool/TORTOISE.wav", "conditions": [24, 1600, "a", 12000], "internal_node_id": "0.0-103.0", "trial": 3, "time_elapsed": 576024, "serialpos": 22, "key_press": -1, "wordID": 1485, "type": "PRES_AUD", "trial_index": 139}, "uniqueid": "MTK1755:39PAAFCODN7LPEJJAXB31ZC0WN6TVA", "dateTime": 1516296098606}, {"current_trial": 140, "trialdata": {"rt": -1000, "trial_type": "single-audio", "word": "sword", "stimulus": "/static/audio/wordpool/SWORD.wav", "conditions": [24, 1600, "a", 12000], "internal_node_id": "0.0-104.0", "trial": 3, "time_elapsed": 578810, "serialpos": 23, "key_press": -1, "wordID": 1422, "type": "PRES_AUD", "trial_index": 140}, "uniqueid": "MTK1755:39PAAFCODN7LPEJJAXB31ZC0WN6TVA", "dateTime": 1516296101392}, {"current_trial": 141, "trialdata": {"rt": -1, "trial_type": "single-stim", "stimulus": "", "internal_node_id": "0.0-105.0-0.0", "time_elapsed": 580018, "key_press": -1, "type": "PRE_RECALL_DELAY", "trial_index": 141}, "uniqueid": "MTK1755:39PAAFCODN7LPEJJAXB31ZC0WN6TVA", "dateTime": 1516296102600}, {"current_trial": 142, "trialdata": {"rt": -1000, "trial_type": "single-audio", "stimulus": "/static/audio/400Hz.wav", "internal_node_id": "0.0-106.0", "time_elapsed": 580519, "key_press": -1, "type": "PRE_RECALL_ALERT", "trial_index": 142}, "uniqueid": "MTK1755:39PAAFCODN7LPEJJAXB31ZC0WN6TVA", "dateTime": 1516296103101}, {"current_trial": 143, "trialdata": {"rt": [3473, 5662, 7358, 8876, 10638, 12442, 14917, 19113, 19559, 23176, 27749, 34656, 37457, 52676], "recwords": ["sword", "rusty", "dresser", "hook", "teacher", "student", "marine", "dolphin", "", "lagoon", "turtle", "tortise", "wrist", "hook"], "key_times": [2066, 2296, 2727, 2899, 3215, 3473, 4171, 4375, 4571, 4812, 5060, 5662, 6011, 6198, 6291, 6477, 6624, 6751, 6879, 7358, 8063, 8210, 8370, 8553, 8876, 9449, 9553, 9697, 9895, 10066, 10179, 10303, 10638, 10946, 11241, 11419, 11572, 11740, 11852, 11962, 12442, 12897, 13075, 13158, 13285, 13843, 14105, 14267, 14917, 15532, 15678, 15861, 16144, 16375, 16547, 16562, 17208, 17353, 17627, 17795, 19113, 19559, 19713, 19942, 20137, 20267, 20734, 20896, 21067, 21204, 21799, 22021, 22364, 22525, 22662, 22858, 23176, 23838, 24285, 24860, 25142, 25331, 26153, 26493, 26754, 26988, 27125, 27749, 28075, 28291, 28447, 28674, 28859, 29000, 29180, 29804, 30738, 30911, 31071, 31245, 31394, 31532, 31705, 32961, 33306, 33518, 33754, 33922, 34070, 34656, 35616, 35854, 36381, 36700, 36913, 37457, 51415, 51885, 52027, 52181, 52676], "trial_type": "free-recall", "conditions": [24, 1600, "a", 12000], "internal_node_id": "0.0-107.0-0.0", "key_presses": [83, 87, 79, 82, 68, 13, 82, 85, 83, 84, 89, 13, 68, 82, 69, 83, 83, 69, 82, 13, 72, 79, 79, 75, 13, 84, 69, 65, 67, 72, 69, 82, 13, 83, 84, 85, 68, 69, 78, 84, 13, 16, 77, 65, 82, 73, 78, 69, 13, 68, 79, 76, 80, 72, 79, 73, 8, 8, 73, 78, 13, 186, 65, 71, 79, 79, 8, 8, 8, 8, 76, 65, 71, 79, 79, 78, 13, 84, 82, 8, 85, 84, 8, 82, 84, 76, 69, 13, 84, 80, 82, 84, 73, 83, 69, 220, 8, 8, 8, 8, 8, 8, 8, 79, 82, 84, 73, 83, 69, 13, 87, 82, 73, 83, 84, 13, 72, 79, 79, 75, 13], "trial": 3, "time_elapsed": 640526, "type": "FREE_RECALL", "trial_index": 143}, "uniqueid": "MTK1755:39PAAFCODN7LPEJJAXB31ZC0WN6TVA", "dateTime": 1516296163111}, {"current_trial": 144, "trialdata": {"rt": 1330, "trial_type": "text", "internal_node_id": "0.0-108.0", "time_elapsed": 643864, "key_press": 32, "type": "INSTRUCTIONS", "trial_index": 144}, "uniqueid": "MTK1755:39PAAFCODN7LPEJJAXB31ZC0WN6TVA", "dateTime": 1516296166446}, {"current_trial": 145, "trialdata": {"rt": [2335, 4134, 6514], "trial_type": "math-distractor", "key_times": [1833, 1967, 1994, 2335, 3542, 3839, 4134, 6235, 6514, 9791, 9958, 11152], "responses": ["189", "13", "9"], "num2": [8, 9, 3, 7], "num3": [9, 3, 1, 6], "conditions": [12, 800, "a", 12000], "internal_node_id": "0.0-109.0", "key_presses": [49, 56, 57, 13, 49, 51, 13, 57, 13, 50, 49, 8], "trial": 4, "time_elapsed": 657869, "type": "DISTRACTOR", "trial_index": 145, "num1": [1, 1, 5, 9]}, "uniqueid": "MTK1755:39PAAFCODN7LPEJJAXB31ZC0WN6TVA", "dateTime": 1516296180451}, {"current_trial": 146, "trialdata": {"rt": -1, "trial_type": "single-stim", "stimulus": "<p id=\"stim\">10</p>", "internal_node_id": "0.0-110.0-0.0", "time_elapsed": 660872, "key_press": -1, "trial_index": 146}, "uniqueid": "MTK1755:39PAAFCODN7LPEJJAXB31ZC0WN6TVA", "dateTime": 1516296183455}, {"current_trial": 147, "trialdata": {"rt": -1, "trial_type": "single-stim", "stimulus": "<p id=\"stim\">9</p>", "internal_node_id": "0.0-110.0-1.0", "time_elapsed": 661874, "key_press": -1, "trial_index": 147}, "uniqueid": "MTK1755:39PAAFCODN7LPEJJAXB31ZC0WN6TVA", "dateTime": 1516296184456}, {"current_trial": 148, "trialdata": {"rt": -1, "trial_type": "single-stim", "stimulus": "<p id=\"stim\">8</p>", "internal_node_id": "0.0-110.0-2.0", "time_elapsed": 662877, "key_press": -1, "trial_index": 148}, "uniqueid": "MTK1755:39PAAFCODN7LPEJJAXB31ZC0WN6TVA", "dateTime": 1516296185459}, {"current_trial": 149, "trialdata": {"rt": -1, "trial_type": "single-stim", "stimulus": "<p id=\"stim\">7</p>", "internal_node_id": "0.0-110.0-3.0", "time_elapsed": 663881, "key_press": -1, "trial_index": 149}, "uniqueid": "MTK1755:39PAAFCODN7LPEJJAXB31ZC0WN6TVA", "dateTime": 1516296186464}, {"current_trial": 150, "trialdata": {"rt": -1, "trial_type": "single-stim", "stimulus": "<p id=\"stim\">6</p>", "internal_node_id": "0.0-110.0-4.0", "time_elapsed": 664886, "key_press": -1, "trial_index": 150}, "uniqueid": "MTK1755:39PAAFCODN7LPEJJAXB31ZC0WN6TVA", "dateTime": 1516296187468}, {"current_trial": 151, "trialdata": {"rt": -1, "trial_type": "single-stim", "stimulus": "<p id=\"stim\">5</p>", "internal_node_id": "0.0-110.0-5.0", "time_elapsed": 665890, "key_press": -1, "trial_index": 151}, "uniqueid": "MTK1755:39PAAFCODN7LPEJJAXB31ZC0WN6TVA", "dateTime": 1516296188472}, {"current_trial": 152, "trialdata": {"rt": -1, "trial_type": "single-stim", "stimulus": "<p id=\"stim\">4</p>", "internal_node_id": "0.0-110.0-6.0", "time_elapsed": 666894, "key_press": -1, "trial_index": 152}, "uniqueid": "MTK1755:39PAAFCODN7LPEJJAXB31ZC0WN6TVA", "dateTime": 1516296189476}, {"current_trial": 153, "trialdata": {"rt": -1, "trial_type": "single-stim", "stimulus": "<p id=\"stim\">3</p>", "internal_node_id": "0.0-110.0-7.0", "time_elapsed": 667898, "key_press": -1, "trial_index": 153}, "uniqueid": "MTK1755:39PAAFCODN7LPEJJAXB31ZC0WN6TVA", "dateTime": 1516296190480}, {"current_trial": 154, "trialdata": {"rt": -1, "trial_type": "single-stim", "stimulus": "<p id=\"stim\">2</p>", "internal_node_id": "0.0-110.0-8.0", "time_elapsed": 668902, "key_press": -1, "trial_index": 154}, "uniqueid": "MTK1755:39PAAFCODN7LPEJJAXB31ZC0WN6TVA", "dateTime": 1516296191484}, {"current_trial": 155, "trialdata": {"rt": -1, "trial_type": "single-stim", "stimulus": "<p id=\"stim\">1</p>", "internal_node_id": "0.0-110.0-9.0", "time_elapsed": 669907, "key_press": -1, "trial_index": 155}, "uniqueid": "MTK1755:39PAAFCODN7LPEJJAXB31ZC0WN6TVA", "dateTime": 1516296192489}, {"current_trial": 156, "trialdata": {"rt": -1, "trial_type": "single-stim", "stimulus": "<p id=\"stim\">+</p>", "internal_node_id": "0.0-111.0-0.0", "time_elapsed": 671409, "key_press": -1, "type": "FIXATION", "trial_index": 156}, "uniqueid": "MTK1755:39PAAFCODN7LPEJJAXB31ZC0WN6TVA", "dateTime": 1516296193991}, {"current_trial": 157, "trialdata": {"rt": -1000, "trial_type": "single-audio", "word": "honey", "stimulus": "/static/audio/wordpool/HONEY.wav", "conditions": [12, 800, "a", 12000], "internal_node_id": "0.0-112.0", "trial": 4, "time_elapsed": 673124, "serialpos": 0, "key_press": -1, "wordID": 712, "type": "PRES_AUD", "trial_index": 157}, "uniqueid": "MTK1755:39PAAFCODN7LPEJJAXB31ZC0WN6TVA", "dateTime": 1516296195707}, {"current_trial": 158, "trialdata": {"rt": -1000, "trial_type": "single-audio", "word": "preacher", "stimulus": "/static/audio/wordpool/PREACHER.wav", "conditions": [12, 800, "a", 12000], "internal_node_id": "0.0-113.0", "trial": 4, "time_elapsed": 674878, "serialpos": 1, "key_press": -1, "wordID": 1118, "type": "PRES_AUD", "trial_index": 158}, "uniqueid": "MTK1755:39PAAFCODN7LPEJJAXB31ZC0WN6TVA", "dateTime": 1516296197460}, {"current_trial": 159, "trialdata": {"rt": -1000, "trial_type": "single-audio", "word": "turkey", "stimulus": "/static/audio/wordpool/TURKEY.wav", "conditions": [12, 800, "a", 12000], "internal_node_id": "0.0-114.0", "trial": 4, "time_elapsed": 676561, "serialpos": 2, "key_press": -1, "wordID": 1519, "type": "PRES_AUD", "trial_index": 159}, "uniqueid": "MTK1755:39PAAFCODN7LPEJJAXB31ZC0WN6TVA", "dateTime": 1516296199143}, {"current_trial": 160, "trialdata": {"rt": -1000, "trial_type": "single-audio", "word": "cashew", "stimulus": "/static/audio/wordpool/CASHEW.wav", "conditions": [12, 800, "a", 12000], "internal_node_id": "0.0-115.0", "trial": 4, "time_elapsed": 678378, "serialpos": 3, "key_press": -1, "wordID": 252, "type": "PRES_AUD", "trial_index": 160}, "uniqueid": "MTK1755:39PAAFCODN7LPEJJAXB31ZC0WN6TVA", "dateTime": 1516296200960}, {"current_trial": 161, "trialdata": {"rt": -1000, "trial_type": "single-audio", "word": "lizard", "stimulus": "/static/audio/wordpool/LIZARD.wav", "conditions": [12, 800, "a", 12000], "internal_node_id": "0.0-116.0", "trial": 4, "time_elapsed": 680294, "serialpos": 4, "key_press": -1, "wordID": 833, "type": "PRES_AUD", "trial_index": 161}, "uniqueid": "MTK1755:39PAAFCODN7LPEJJAXB31ZC0WN6TVA", "dateTime": 1516296202876}, {"current_trial": 162, "trialdata": {"rt": -1000, "trial_type": "single-audio", "word": "snail", "stimulus": "/static/audio/wordpool/SNAIL.wav", "conditions": [12, 800, "a", 12000], "internal_node_id": "0.0-117.0", "trial": 4, "time_elapsed": 682151, "serialpos": 5, "key_press": -1, "wordID": 1331, "type": "PRES_AUD", "trial_index": 162}, "uniqueid": "MTK1755:39PAAFCODN7LPEJJAXB31ZC0WN6TVA", "dateTime": 1516296204733}, {"current_trial": 163, "trialdata": {"rt": -1000, "trial_type": "single-audio", "word": "piston", "stimulus": "/static/audio/wordpool/PISTON.wav", "conditions": [12, 800, "a", 12000], "internal_node_id": "0.0-118.0", "trial": 4, "time_elapsed": 684119, "serialpos": 6, "key_press": -1, "wordID": 1075, "type": "PRES_AUD", "trial_index": 163}, "uniqueid": "MTK1755:39PAAFCODN7LPEJJAXB31ZC0WN6TVA", "dateTime": 1516296206701}, {"current_trial": 164, "trialdata": {"rt": -1000, "trial_type": "single-audio", "word": "airplane", "stimulus": "/static/audio/wordpool/AIRPLANE.wav", "conditions": [12, 800, "a", 12000], "internal_node_id": "0.0-119.0", "trial": 4, "time_elapsed": 686012, "serialpos": 7, "key_press": -1, "wordID": 11, "type": "PRES_AUD", "trial_index": 164}, "uniqueid": "MTK1755:39PAAFCODN7LPEJJAXB31ZC0WN6TVA", "dateTime": 1516296208594}, {"current_trial": 165, "trialdata": {"rt": -1000, "trial_type": "single-audio", "word": "novel", "stimulus": "/static/audio/wordpool/NOVEL.wav", "conditions": [12, 800, "a", 12000], "internal_node_id": "0.0-120.0", "trial": 4, "time_elapsed": 687904, "serialpos": 8, "key_press": -1, "wordID": 959, "type": "PRES_AUD", "trial_index": 165}, "uniqueid": "MTK1755:39PAAFCODN7LPEJJAXB31ZC0WN6TVA", "dateTime": 1516296210486}, {"current_trial": 166, "trialdata": {"rt": -1000, "trial_type": "single-audio", "word": "machine", "stimulus": "/static/audio/wordpool/MACHINE.wav", "conditions": [12, 800, "a", 12000], "internal_node_id": "0.0-121.0", "trial": 4, "time_elapsed": 689692, "serialpos": 9, "key_press": -1, "wordID": 851, "type": "PRES_AUD", "trial_index": 166}, "uniqueid": "MTK1755:39PAAFCODN7LPEJJAXB31ZC0WN6TVA", "dateTime": 1516296212274}, {"current_trial": 167, "trialdata": {"rt": -1000, "trial_type": "single-audio", "word": "valve", "stimulus": "/static/audio/wordpool/VALVE.wav", "conditions": [12, 800, "a", 12000], "internal_node_id": "0.0-122.0", "trial": 4, "time_elapsed": 691451, "serialpos": 10, "key_press": -1, "wordID": 1545, "type": "PRES_AUD", "trial_index": 167}, "uniqueid": "MTK1755:39PAAFCODN7LPEJJAXB31ZC0WN6TVA", "dateTime": 1516296214033}, {"current_trial": 168, "trialdata": {"rt": -1000, "trial_type": "single-audio", "word": "brandy", "stimulus": "/static/audio/wordpool/BRANDY.wav", "conditions": [12, 800, "a", 12000], "internal_node_id": "0.0-123.0", "trial": 4, "time_elapsed": 693332, "serialpos": 11, "key_press": -1, "wordID": 168, "type": "PRES_AUD", "trial_index": 168}, "uniqueid": "MTK1755:39PAAFCODN7LPEJJAXB31ZC0WN6TVA", "dateTime": 1516296215914}, {"current_trial": 169, "trialdata": {"rt": -1, "trial_type": "single-stim", "stimulus": "", "internal_node_id": "0.0-124.0-0.0", "time_elapsed": 694621, "key_press": -1, "type": "PRE_RECALL_DELAY", "trial_index": 169}, "uniqueid": "MTK1755:39PAAFCODN7LPEJJAXB31ZC0WN6TVA", "dateTime": 1516296217203}, {"current_trial": 170, "trialdata": {"rt": -1000, "trial_type": "single-audio", "stimulus": "/static/audio/400Hz.wav", "internal_node_id": "0.0-125.0", "time_elapsed": 695122, "key_press": -1, "type": "PRE_RECALL_ALERT", "trial_index": 170}, "uniqueid": "MTK1755:39PAAFCODN7LPEJJAXB31ZC0WN6TVA", "dateTime": 1516296217705}, {"current_trial": 171, "trialdata": {"rt": [2713, 4607, 6199, 7906, 13770, 16295, 59567], "recwords": ["brandy", "piston", "novel", "machine", "cashew", "honey", ""], "key_times": [1235, 1469, 1614, 1821, 2131, 2383, 2713, 3421, 3672, 3788, 4015, 4143, 4324, 4607, 5288, 5484, 5646, 5774, 5915, 6199, 6832, 6948, 7166, 7305, 7381, 7577, 7705, 7906, 11986, 12444, 12690, 12996, 13166, 13332, 13770, 14482, 14591, 14811, 14924, 15764, 16295, 59567], "trial_type": "free-recall", "conditions": [12, 800, "a", 12000], "internal_node_id": "0.0-126.0-0.0", "key_presses": [66, 82, 65, 78, 68, 89, 13, 80, 73, 83, 84, 79, 78, 13, 78, 79, 86, 69, 76, 13, 77, 65, 67, 72, 73, 78, 69, 13, 67, 65, 83, 72, 69, 87, 13, 72, 79, 78, 69, 89, 13, 32], "trial": 4, "time_elapsed": 755130, "type": "FREE_RECALL", "trial_index": 171}, "uniqueid": "MTK1755:39PAAFCODN7LPEJJAXB31ZC0WN6TVA", "dateTime": 1516296277715}, {"current_trial": 172, "trialdata": {"rt": 1289, "trial_type": "text", "internal_node_id": "0.0-127.0", "time_elapsed": 758426, "key_press": 32, "type": "INSTRUCTIONS", "trial_index": 172}, "uniqueid": "MTK1755:39PAAFCODN7LPEJJAXB31ZC0WN6TVA", "dateTime": 1516296281008}, {"current_trial": 173, "trialdata": {"rt": [2564, 5812, 10850], "trial_type": "math-distractor", "key_times": [2325, 2564, 5006, 5532, 5812, 10427, 10534, 10850], "responses": ["8", "18", "21"], "num2": [3, 6, 7, 2], "num3": [2, 8, 9, 7], "conditions": [24, 800, "a", 12000], "internal_node_id": "0.0-128.0", "key_presses": [56, 13, 49, 56, 13, 50, 49, 13], "trial": 5, "time_elapsed": 772432, "type": "DISTRACTOR", "trial_index": 173, "num1": [3, 4, 5, 1]}, "uniqueid": "MTK1755:39PAAFCODN7LPEJJAXB31ZC0WN6TVA", "dateTime": 1516296295014}, {"current_trial": 174, "trialdata": {"rt": -1, "trial_type": "single-stim", "stimulus": "<p id=\"stim\">10</p>", "internal_node_id": "0.0-129.0-0.0", "time_elapsed": 775437, "key_press": -1, "trial_index": 174}, "uniqueid": "MTK1755:39PAAFCODN7LPEJJAXB31ZC0WN6TVA", "dateTime": 1516296298019}, {"current_trial": 175, "trialdata": {"rt": -1, "trial_type": "single-stim", "stimulus": "<p id=\"stim\">9</p>", "internal_node_id": "0.0-129.0-1.0", "time_elapsed": 776441, "key_press": -1, "trial_index": 175}, "uniqueid": "MTK1755:39PAAFCODN7LPEJJAXB31ZC0WN6TVA", "dateTime": 1516296299023}, {"current_trial": 176, "trialdata": {"rt": -1, "trial_type": "single-stim", "stimulus": "<p id=\"stim\">8</p>", "internal_node_id": "0.0-129.0-2.0", "time_elapsed": 777445, "key_press": -1, "trial_index": 176}, "uniqueid": "MTK1755:39PAAFCODN7LPEJJAXB31ZC0WN6TVA", "dateTime": 1516296300027}, {"current_trial": 177, "trialdata": {"rt": -1, "trial_type": "single-stim", "stimulus": "<p id=\"stim\">7</p>", "internal_node_id": "0.0-129.0-3.0", "time_elapsed": 778449, "key_press": -1, "trial_index": 177}, "uniqueid": "MTK1755:39PAAFCODN7LPEJJAXB31ZC0WN6TVA", "dateTime": 1516296301032}, {"current_trial": 178, "trialdata": {"rt": -1, "trial_type": "single-stim", "stimulus": "<p id=\"stim\">6</p>", "internal_node_id": "0.0-129.0-4.0", "time_elapsed": 779453, "key_press": -1, "trial_index": 178}, "uniqueid": "MTK1755:39PAAFCODN7LPEJJAXB31ZC0WN6TVA", "dateTime": 1516296302036}, {"current_trial": 179, "trialdata": {"rt": -1, "trial_type": "single-stim", "stimulus": "<p id=\"stim\">5</p>", "internal_node_id": "0.0-129.0-5.0", "time_elapsed": 780458, "key_press": -1, "trial_index": 179}, "uniqueid": "MTK1755:39PAAFCODN7LPEJJAXB31ZC0WN6TVA", "dateTime": 1516296303040}, {"current_trial": 180, "trialdata": {"rt": -1, "trial_type": "single-stim", "stimulus": "<p id=\"stim\">4</p>", "internal_node_id": "0.0-129.0-6.0", "time_elapsed": 781462, "key_press": -1, "trial_index": 180}, "uniqueid": "MTK1755:39PAAFCODN7LPEJJAXB31ZC0WN6TVA", "dateTime": 1516296304044}, {"current_trial": 181, "trialdata": {"rt": -1, "trial_type": "single-stim", "stimulus": "<p id=\"stim\">3</p>", "internal_node_id": "0.0-129.0-7.0", "time_elapsed": 782466, "key_press": -1, "trial_index": 181}, "uniqueid": "MTK1755:39PAAFCODN7LPEJJAXB31ZC0WN6TVA", "dateTime": 1516296305048}, {"current_trial": 182, "trialdata": {"rt": -1, "trial_type": "single-stim", "stimulus": "<p id=\"stim\">2</p>", "internal_node_id": "0.0-129.0-8.0", "time_elapsed": 783470, "key_press": -1, "trial_index": 182}, "uniqueid": "MTK1755:39PAAFCODN7LPEJJAXB31ZC0WN6TVA", "dateTime": 1516296306052}, {"current_trial": 183, "trialdata": {"rt": -1, "trial_type": "single-stim", "stimulus": "<p id=\"stim\">1</p>", "internal_node_id": "0.0-129.0-9.0", "time_elapsed": 784474, "key_press": -1, "trial_index": 183}, "uniqueid": "MTK1755:39PAAFCODN7LPEJJAXB31ZC0WN6TVA", "dateTime": 1516296307056}, {"current_trial": 184, "trialdata": {"rt": -1, "trial_type": "single-stim", "stimulus": "<p id=\"stim\">+</p>", "internal_node_id": "0.0-130.0-0.0", "time_elapsed": 785977, "key_press": -1, "type": "FIXATION", "trial_index": 184}, "uniqueid": "MTK1755:39PAAFCODN7LPEJJAXB31ZC0WN6TVA", "dateTime": 1516296308559}, {"current_trial": 185, "trialdata": {"rt": -1000, "trial_type": "single-audio", "word": "forest", "stimulus": "/static/audio/wordpool/FOREST.wav", "conditions": [24, 800, "a", 12000], "internal_node_id": "0.0-131.0", "trial": 5, "time_elapsed": 787918, "serialpos": 0, "key_press": -1, "wordID": 592, "type": "PRES_AUD", "trial_index": 185}, "uniqueid": "MTK1755:39PAAFCODN7LPEJJAXB31ZC0WN6TVA", "dateTime": 1516296310501}, {"current_trial": 186, "trialdata": {"rt": -1000, "trial_type": "single-audio", "word": "spool", "stimulus": "/static/audio/wordpool/SPOOL.wav", "conditions": [24, 800, "a", 12000], "internal_node_id": "0.0-132.0", "trial": 5, "time_elapsed": 789896, "serialpos": 1, "key_press": -1, "wordID": 1355, "type": "PRES_AUD", "trial_index": 186}, "uniqueid": "MTK1755:39PAAFCODN7LPEJJAXB31ZC0WN6TVA", "dateTime": 1516296312478}, {"current_trial": 187, "trialdata": {"rt": -1000, "trial_type": "single-audio", "word": "diner", "stimulus": "/static/audio/wordpool/DINER.wav", "conditions": [24, 800, "a", 12000], "internal_node_id": "0.0-133.0", "trial": 5, "time_elapsed": 791567, "serialpos": 2, "key_press": -1, "wordID": 466, "type": "PRES_AUD", "trial_index": 187}, "uniqueid": "MTK1755:39PAAFCODN7LPEJJAXB31ZC0WN6TVA", "dateTime": 1516296314150}, {"current_trial": 188, "trialdata": {"rt": -1000, "trial_type": "single-audio", "word": "leopard", "stimulus": "/static/audio/wordpool/LEOPARD.wav", "conditions": [24, 800, "a", 12000], "internal_node_id": "0.0-134.0", "trial": 5, "time_elapsed": 793251, "serialpos": 3, "key_press": -1, "wordID": 811, "type": "PRES_AUD", "trial_index": 188}, "uniqueid": "MTK1755:39PAAFCODN7LPEJJAXB31ZC0WN6TVA", "dateTime": 1516296315833}, {"current_trial": 189, "trialdata": {"rt": -1000, "trial_type": "single-audio", "word": "panther", "stimulus": "/static/audio/wordpool/PANTHER.wav", "conditions": [24, 800, "a", 12000], "internal_node_id": "0.0-135.0", "trial": 5, "time_elapsed": 795157, "serialpos": 4, "key_press": -1, "wordID": 1008, "type": "PRES_AUD", "trial_index": 189}, "uniqueid": "MTK1755:39PAAFCODN7LPEJJAXB31ZC0WN6TVA", "dateTime": 1516296317740}, {"current_trial": 190, "trialdata": {"rt": -1000, "trial_type": "single-audio", "word": "butcher", "stimulus": "/static/audio/wordpool/BUTCHER.wav", "conditions": [24, 800, "a", 12000], "internal_node_id": "0.0-136.0", "trial": 5, "time_elapsed": 797081, "serialpos": 5, "key_press": -1, "wordID": 202, "type": "PRES_AUD", "trial_index": 190}, "uniqueid": "MTK1755:39PAAFCODN7LPEJJAXB31ZC0WN6TVA", "dateTime": 1516296319663}, {"current_trial": 191, "trialdata": {"rt": -1000, "trial_type": "single-audio", "word": "sheriff", "stimulus": "/static/audio/wordpool/SHERIFF.wav", "conditions": [24, 800, "a", 12000], "internal_node_id": "0.0-137.0", "trial": 5, "time_elapsed": 798760, "serialpos": 6, "key_press": -1, "wordID": 1283, "type": "PRES_AUD", "trial_index": 191}, "uniqueid": "MTK1755:39PAAFCODN7LPEJJAXB31ZC0WN6TVA", "dateTime": 1516296321342}, {"current_trial": 192, "trialdata": {"rt": -1000, "trial_type": "single-audio", "word": "sunset", "stimulus": "/static/audio/wordpool/SUNSET.wav", "conditions": [24, 800, "a", 12000], "internal_node_id": "0.0-138.0", "trial": 5, "time_elapsed": 800606, "serialpos": 7, "key_press": -1, "wordID": 1407, "type": "PRES_AUD", "trial_index": 192}, "uniqueid": "MTK1755:39PAAFCODN7LPEJJAXB31ZC0WN6TVA", "dateTime": 1516296323188}, {"current_trial": 193, "trialdata": {"rt": -1000, "trial_type": "single-audio", "word": "football", "stimulus": "/static/audio/wordpool/FOOTBALL.wav", "conditions": [24, 800, "a", 12000], "internal_node_id": "0.0-139.0", "trial": 5, "time_elapsed": 802469, "serialpos": 8, "key_press": -1, "wordID": 590, "type": "PRES_AUD", "trial_index": 193}, "uniqueid": "MTK1755:39PAAFCODN7LPEJJAXB31ZC0WN6TVA", "dateTime": 1516296325051}, {"current_trial": 194, "trialdata": {"rt": -1000, "trial_type": "single-audio", "word": "cafe", "stimulus": "/static/audio/wordpool/CAFE.wav", "conditions": [24, 800, "a", 12000], "internal_node_id": "0.0-140.0", "trial": 5, "time_elapsed": 804292, "serialpos": 9, "key_press": -1, "wordID": 215, "type": "PRES_AUD", "trial_index": 194}, "uniqueid": "MTK1755:39PAAFCODN7LPEJJAXB31ZC0WN6TVA", "dateTime": 1516296326874}, {"current_trial": 195, "trialdata": {"rt": -1000, "trial_type": "single-audio", "word": "picnic", "stimulus": "/static/audio/wordpool/PICNIC.wav", "conditions": [24, 800, "a", 12000], "internal_node_id": "0.0-141.0", "trial": 5, "time_elapsed": 806120, "serialpos": 10, "key_press": -1, "wordID": 1059, "type": "PRES_AUD", "trial_index": 195}, "uniqueid": "MTK1755:39PAAFCODN7LPEJJAXB31ZC0WN6TVA", "dateTime": 1516296328702}, {"current_trial": 196, "trialdata": {"rt": -1000, "trial_type": "single-audio", "word": "cocktail", "stimulus": "/static/audio/wordpool/COCKTAIL.wav", "conditions": [24, 800, "a", 12000], "internal_node_id": "0.0-142.0", "trial": 5, "time_elapsed": 807978, "serialpos": 11, "key_press": -1, "wordID": 337, "type": "PRES_AUD", "trial_index": 196}, "uniqueid": "MTK1755:39PAAFCODN7LPEJJAXB31ZC0WN6TVA", "dateTime": 1516296330560}, {"current_trial": 197, "trialdata": {"rt": -1000, "trial_type": "single-audio", "word": "film", "stimulus": "/static/audio/wordpool/FILM.wav", "conditions": [24, 800, "a", 12000], "internal_node_id": "0.0-143.0", "trial": 5, "time_elapsed": 809854, "serialpos": 12, "key_press": -1, "wordID": 564, "type": "PRES_AUD", "trial_index": 197}, "uniqueid": "MTK1755:39PAAFCODN7LPEJJAXB31ZC0WN6TVA", "dateTime": 1516296332436}, {"current_trial": 198, "trialdata": {"rt": -1000, "trial_type": "single-audio", "word": "beef", "stimulus": "/static/audio/wordpool/BEEF.wav", "conditions": [24, 800, "a", 12000], "internal_node_id": "0.0-144.0", "trial": 5, "time_elapsed": 811612, "serialpos": 13, "key_press": -1, "wordID": 112, "type": "PRES_AUD", "trial_index": 198}, "uniqueid": "MTK1755:39PAAFCODN7LPEJJAXB31ZC0WN6TVA", "dateTime": 1516296334194}, {"current_trial": 199, "trialdata": {"rt": -1000, "trial_type": "single-audio", "word": "rabbit", "stimulus": "/static/audio/wordpool/RABBIT.wav", "conditions": [24, 800, "a", 12000], "internal_node_id": "0.0-145.0", "trial": 5, "time_elapsed": 813429, "serialpos": 14, "key_press": -1, "wordID": 1151, "type": "PRES_AUD", "trial_index": 199}, "uniqueid": "MTK1755:39PAAFCODN7LPEJJAXB31ZC0WN6TVA", "dateTime": 1516296336012}, {"current_trial": 200, "trialdata": {"rt": -1000, "trial_type": "single-audio", "word": "shovel", "stimulus": "/static/audio/wordpool/SHOVEL.wav", "conditions": [24, 800, "a", 12000], "internal_node_id": "0.0-146.0", "trial": 5, "time_elapsed": 815217, "serialpos": 15, "key_press": -1, "wordID": 1294, "type": "PRES_AUD", "trial_index": 200}, "uniqueid": "MTK1755:39PAAFCODN7LPEJJAXB31ZC0WN6TVA", "dateTime": 1516296337799}, {"current_trial": 201, "trialdata": {"rt": -1000, "trial_type": "single-audio", "word": "tractor", "stimulus": "/static/audio/wordpool/TRACTOR.wav", "conditions": [24, 800, "a", 12000], "internal_node_id": "0.0-147.0", "trial": 5, "time_elapsed": 817156, "serialpos": 16, "key_press": -1, "wordID": 1492, "type": "PRES_AUD", "trial_index": 201}, "uniqueid": "MTK1755:39PAAFCODN7LPEJJAXB31ZC0WN6TVA", "dateTime": 1516296339738}, {"current_trial": 202, "trialdata": {"rt": -1000, "trial_type": "single-audio", "word": "truck", "stimulus": "/static/audio/wordpool/TRUCK.wav", "conditions": [24, 800, "a", 12000], "internal_node_id": "0.0-148.0", "trial": 5, "time_elapsed": 818811, "serialpos": 17, "key_press": -1, "wordID": 1511, "type": "PRES_AUD", "trial_index": 202}, "uniqueid": "MTK1755:39PAAFCODN7LPEJJAXB31ZC0WN6TVA", "dateTime": 1516296341393}, {"current_trial": 203, "trialdata": {"rt": -1000, "trial_type": "single-audio", "word": "army", "stimulus": "/static/audio/wordpool/ARMY.wav", "conditions": [24, 800, "a", 12000], "internal_node_id": "0.0-149.0", "trial": 5, "time_elapsed": 820587, "serialpos": 18, "key_press": -1, "wordID": 38, "type": "PRES_AUD", "trial_index": 203}, "uniqueid": "MTK1755:39PAAFCODN7LPEJJAXB31ZC0WN6TVA", "dateTime": 1516296343169}, {"current_trial": 204, "trialdata": {"rt": -1000, "trial_type": "single-audio", "word": "blouse", "stimulus": "/static/audio/wordpool/BLOUSE.wav", "conditions": [24, 800, "a", 12000], "internal_node_id": "0.0-150.0", "trial": 5, "time_elapsed": 822375, "serialpos": 19, "key_press": -1, "wordID": 138, "type": "PRES_AUD", "trial_index": 204}, "uniqueid": "MTK1755:39PAAFCODN7LPEJJAXB31ZC0WN6TVA", "dateTime": 1516296344957}, {"current_trial": 205, "trialdata": {"rt": -1000, "trial_type": "single-audio", "word": "spider", "stimulus": "/static/audio/wordpool/SPIDER.wav", "conditions": [24, 800, "a", 12000], "internal_node_id": "0.0-151.0", "trial": 5, "time_elapsed": 824066, "serialpos": 20, "key_press": -1, "wordID": 1350, "type": "PRES_AUD", "trial_index": 205}, "uniqueid": "MTK1755:39PAAFCODN7LPEJJAXB31ZC0WN6TVA", "dateTime": 1516296346648}, {"current_trial": 206, "trialdata": {"rt": -1000, "trial_type": "single-audio", "word": "lettuce", "stimulus": "/static/audio/wordpool/LETTUCE.wav", "conditions": [24, 800, "a", 12000], "internal_node_id": "0.0-152.0", "trial": 5, "time_elapsed": 826032, "serialpos": 21, "key_press": -1, "wordID": 813, "type": "PRES_AUD", "trial_index": 206}, "uniqueid": "MTK1755:39PAAFCODN7LPEJJAXB31ZC0WN6TVA", "dateTime": 1516296348614}, {"current_trial": 207, "trialdata": {"rt": -1000, "trial_type": "single-audio", "word": "peanut", "stimulus": "/static/audio/wordpool/PEANUT.wav", "conditions": [24, 800, "a", 12000], "internal_node_id": "0.0-153.0", "trial": 5, "time_elapsed": 827779, "serialpos": 22, "key_press": -1, "wordID": 1031, "type": "PRES_AUD", "trial_index": 207}, "uniqueid": "MTK1755:39PAAFCODN7LPEJJAXB31ZC0WN6TVA", "dateTime": 1516296350363}, {"current_trial": 208, "trialdata": {"rt": -1000, "trial_type": "single-audio", "word": "muffin", "stimulus": "/static/audio/wordpool/MUFFIN.wav", "conditions": [24, 800, "a", 12000], "internal_node_id": "0.0-154.0", "trial": 5, "time_elapsed": 829625, "serialpos": 23, "key_press": -1, "wordID": 928, "type": "PRES_AUD", "trial_index": 208}, "uniqueid": "MTK1755:39PAAFCODN7LPEJJAXB31ZC0WN6TVA", "dateTime": 1516296352208}, {"current_trial": 209, "trialdata": {"rt": -1, "trial_type": "single-stim", "stimulus": "", "internal_node_id": "0.0-155.0-0.0", "time_elapsed": 830845, "key_press": -1, "type": "PRE_RECALL_DELAY", "trial_index": 209}, "uniqueid": "MTK1755:39PAAFCODN7LPEJJAXB31ZC0WN6TVA", "dateTime": 1516296353427}, {"current_trial": 210, "trialdata": {"rt": -1000, "trial_type": "single-audio", "stimulus": "/static/audio/400Hz.wav", "internal_node_id": "0.0-156.0", "time_elapsed": 831346, "key_press": -1, "type": "PRE_RECALL_ALERT", "trial_index": 210}, "uniqueid": "MTK1755:39PAAFCODN7LPEJJAXB31ZC0WN6TVA", "dateTime": 1516296353928}, {"current_trial": 211, "trialdata": {"rt": [2194, 4224, 8485, 10587, 14198, 18266, 20389, 29657, 37485], "recwords": ["muffin", "lettuce", "peanut", "army", "panther", "leopard", "football", "tractor", "shovel"], "key_times": [881, 1134, 1464, 1606, 1752, 1936, 2194, 2843, 2970, 3169, 3321, 3534, 3689, 3898, 4224, 4731, 4949, 5334, 5467, 6073, 6240, 6375, 7046, 7209, 8056, 8186, 8485, 8788, 8885, 9067, 9446, 9909, 10587, 12432, 12556, 12997, 13160, 13359, 13485, 13582, 14198, 16200, 16341, 16509, 17111, 17263, 17439, 17707, 18266, 18685, 18854, 19011, 19115, 19348, 19474, 19624, 19772, 20389, 27835, 28032, 28222, 28445, 28703, 28935, 29077, 29657, 34796, 35451, 35612, 35817, 36062, 36901, 37485], "trial_type": "free-recall", "conditions": [24, 800, "a", 12000], "internal_node_id": "0.0-157.0-0.0", "key_presses": [77, 85, 70, 70, 73, 78, 13, 76, 69, 84, 84, 85, 67, 69, 13, 16, 80, 69, 65, 78, 73, 84, 8, 8, 85, 84, 13, 16, 65, 82, 77, 89, 13, 80, 65, 78, 84, 72, 69, 82, 13, 76, 69, 79, 80, 65, 82, 68, 13, 70, 79, 79, 84, 66, 65, 76, 76, 13, 84, 82, 65, 67, 84, 79, 82, 13, 83, 72, 79, 86, 69, 76, 13], "trial": 5, "time_elapsed": 891352, "type": "FREE_RECALL", "trial_index": 211}, "uniqueid": "MTK1755:39PAAFCODN7LPEJJAXB31ZC0WN6TVA", "dateTime": 1516296413937}, {"current_trial": 212, "trialdata": {"rt": 7085, "trial_type": "text", "internal_node_id": "0.0-158.0", "time_elapsed": 900446, "key_press": 78, "type": "INSTRUCTIONS", "trial_index": 212}, "uniqueid": "MTK1755:39PAAFCODN7LPEJJAXB31ZC0WN6TVA", "dateTime": 1516296423028}, {"current_trial": 213, "trialdata": {"rt": [2640, 8335, 10432], "trial_type": "math-distractor", "key_times": [1814, 1946, 2640, 6082, 6602, 8335, 9771, 9933, 10432], "responses": ["12", "19", "12"], "num2": [7, 7, 2, 6], "num3": [4, 6, 9, 3], "conditions": [24, 800, "a", 12000], "internal_node_id": "0.0-159.0", "key_presses": [49, 50, 13, 49, 57, 13, 49, 50, 13], "trial": 6, "time_elapsed": 914453, "type": "DISTRACTOR", "trial_index": 213, "num1": [1, 6, 1, 2]}, "uniqueid": "MTK1755:39PAAFCODN7LPEJJAXB31ZC0WN6TVA", "dateTime": 1516296437035}, {"current_trial": 214, "trialdata": {"rt": -1, "trial_type": "single-stim", "stimulus": "<p id=\"stim\">10</p>", "internal_node_id": "0.0-160.0-0.0", "time_elapsed": 917459, "key_press": -1, "trial_index": 214}, "uniqueid": "MTK1755:39PAAFCODN7LPEJJAXB31ZC0WN6TVA", "dateTime": 1516296440042}, {"current_trial": 215, "trialdata": {"rt": -1, "trial_type": "single-stim", "stimulus": "<p id=\"stim\">9</p>", "internal_node_id": "0.0-160.0-1.0", "time_elapsed": 918463, "key_press": -1, "trial_index": 215}, "uniqueid": "MTK1755:39PAAFCODN7LPEJJAXB31ZC0WN6TVA", "dateTime": 1516296441045}, {"current_trial": 216, "trialdata": {"rt": -1, "trial_type": "single-stim", "stimulus": "<p id=\"stim\">8</p>", "internal_node_id": "0.0-160.0-2.0", "time_elapsed": 919468, "key_press": -1, "trial_index": 216}, "uniqueid": "MTK1755:39PAAFCODN7LPEJJAXB31ZC0WN6TVA", "dateTime": 1516296442050}, {"current_trial": 217, "trialdata": {"rt": -1, "trial_type": "single-stim", "stimulus": "<p id=\"stim\">7</p>", "internal_node_id": "0.0-160.0-3.0", "time_elapsed": 920472, "key_press": -1, "trial_index": 217}, "uniqueid": "MTK1755:39PAAFCODN7LPEJJAXB31ZC0WN6TVA", "dateTime": 1516296443054}, {"current_trial": 218, "trialdata": {"rt": -1, "trial_type": "single-stim", "stimulus": "<p id=\"stim\">6</p>", "internal_node_id": "0.0-160.0-4.0", "time_elapsed": 921476, "key_press": -1, "trial_index": 218}, "uniqueid": "MTK1755:39PAAFCODN7LPEJJAXB31ZC0WN6TVA", "dateTime": 1516296444058}, {"current_trial": 219, "trialdata": {"rt": -1, "trial_type": "single-stim", "stimulus": "<p id=\"stim\">5</p>", "internal_node_id": "0.0-160.0-5.0", "time_elapsed": 922480, "key_press": -1, "trial_index": 219}, "uniqueid": "MTK1755:39PAAFCODN7LPEJJAXB31ZC0WN6TVA", "dateTime": 1516296445062}, {"current_trial": 220, "trialdata": {"rt": -1, "trial_type": "single-stim", "stimulus": "<p id=\"stim\">4</p>", "internal_node_id": "0.0-160.0-6.0", "time_elapsed": 923484, "key_press": -1, "trial_index": 220}, "uniqueid": "MTK1755:39PAAFCODN7LPEJJAXB31ZC0WN6TVA", "dateTime": 1516296446066}, {"current_trial": 221, "trialdata": {"rt": -1, "trial_type": "single-stim", "stimulus": "<p id=\"stim\">3</p>", "internal_node_id": "0.0-160.0-7.0", "time_elapsed": 924488, "key_press": -1, "trial_index": 221}, "uniqueid": "MTK1755:39PAAFCODN7LPEJJAXB31ZC0WN6TVA", "dateTime": 1516296447070}, {"current_trial": 222, "trialdata": {"rt": -1, "trial_type": "single-stim", "stimulus": "<p id=\"stim\">2</p>", "internal_node_id": "0.0-160.0-8.0", "time_elapsed": 925491, "key_press": -1, "trial_index": 222}, "uniqueid": "MTK1755:39PAAFCODN7LPEJJAXB31ZC0WN6TVA", "dateTime": 1516296448074}, {"current_trial": 223, "trialdata": {"rt": -1, "trial_type": "single-stim", "stimulus": "<p id=\"stim\">1</p>", "internal_node_id": "0.0-160.0-9.0", "time_elapsed": 926496, "key_press": -1, "trial_index": 223}, "uniqueid": "MTK1755:39PAAFCODN7LPEJJAXB31ZC0WN6TVA", "dateTime": 1516296449078}, {"current_trial": 224, "trialdata": {"rt": -1, "trial_type": "single-stim", "stimulus": "<p id=\"stim\">+</p>", "internal_node_id": "0.0-161.0-0.0", "time_elapsed": 928000, "key_press": -1, "type": "FIXATION", "trial_index": 224}, "uniqueid": "MTK1755:39PAAFCODN7LPEJJAXB31ZC0WN6TVA", "dateTime": 1516296450582}, {"current_trial": 225, "trialdata": {"rt": -1000, "trial_type": "single-audio", "word": "twister", "stimulus": "/static/audio/wordpool/TWISTER.wav", "conditions": [24, 800, "a", 12000], "internal_node_id": "0.0-162.0", "trial": 6, "time_elapsed": 929844, "serialpos": 0, "key_press": -1, "wordID": 1529, "type": "PRES_AUD", "trial_index": 225}, "uniqueid": "MTK1755:39PAAFCODN7LPEJJAXB31ZC0WN6TVA", "dateTime": 1516296452427}, {"current_trial": 226, "trialdata": {"rt": -1000, "trial_type": "single-audio", "word": "lace", "stimulus": "/static/audio/wordpool/LACE.wav", "conditions": [24, 800, "a", 12000], "internal_node_id": "0.0-163.0", "trial": 6, "time_elapsed": 931650, "serialpos": 1, "key_press": -1, "wordID": 791, "type": "PRES_AUD", "trial_index": 226}, "uniqueid": "MTK1755:39PAAFCODN7LPEJJAXB31ZC0WN6TVA", "dateTime": 1516296454232}, {"current_trial": 227, "trialdata": {"rt": -1000, "trial_type": "single-audio", "word": "pastry", "stimulus": "/static/audio/wordpool/PASTRY.wav", "conditions": [24, 800, "a", 12000], "internal_node_id": "0.0-164.0", "trial": 6, "time_elapsed": 933351, "serialpos": 2, "key_press": -1, "wordID": 1021, "type": "PRES_AUD", "trial_index": 227}, "uniqueid": "MTK1755:39PAAFCODN7LPEJJAXB31ZC0WN6TVA", "dateTime": 1516296455933}, {"current_trial": 228, "trialdata": {"rt": -1000, "trial_type": "single-audio", "word": "doughnut", "stimulus": "/static/audio/wordpool/DOUGHNUT.wav", "conditions": [24, 800, "a", 12000], "internal_node_id": "0.0-165.0", "trial": 6, "time_elapsed": 935152, "serialpos": 3, "key_press": -1, "wordID": 489, "type": "PRES_AUD", "trial_index": 228}, "uniqueid": "MTK1755:39PAAFCODN7LPEJJAXB31ZC0WN6TVA", "dateTime": 1516296457734}, {"current_trial": 229, "trialdata": {"rt": -1000, "trial_type": "single-audio", "word": "grape", "stimulus": "/static/audio/wordpool/GRAPE.wav", "conditions": [24, 800, "a", 12000], "internal_node_id": "0.0-166.0", "trial": 6, "time_elapsed": 936792, "serialpos": 4, "key_press": -1, "wordID": 653, "type": "PRES_AUD", "trial_index": 229}, "uniqueid": "MTK1755:39PAAFCODN7LPEJJAXB31ZC0WN6TVA", "dateTime": 1516296459374}, {"current_trial": 230, "trialdata": {"rt": -1000, "trial_type": "single-audio", "word": "gift", "stimulus": "/static/audio/wordpool/GIFT.wav", "conditions": [24, 800, "a", 12000], "internal_node_id": "0.0-167.0", "trial": 6, "time_elapsed": 938738, "serialpos": 5, "key_press": -1, "wordID": 634, "type": "PRES_AUD", "trial_index": 230}, "uniqueid": "MTK1755:39PAAFCODN7LPEJJAXB31ZC0WN6TVA", "dateTime": 1516296461320}, {"current_trial": 231, "trialdata": {"rt": -1000, "trial_type": "single-audio", "word": "chest", "stimulus": "/static/audio/wordpool/CHEST.wav", "conditions": [24, 800, "a", 12000], "internal_node_id": "0.0-168.0", "trial": 6, "time_elapsed": 940555, "serialpos": 6, "key_press": -1, "wordID": 294, "type": "PRES_AUD", "trial_index": 231}, "uniqueid": "MTK1755:39PAAFCODN7LPEJJAXB31ZC0WN6TVA", "dateTime": 1516296463138}, {"current_trial": 232, "trialdata": {"rt": -1000, "trial_type": "single-audio", "word": "plaid", "stimulus": "/static/audio/wordpool/PLAID.wav", "conditions": [24, 800, "a", 12000], "internal_node_id": "0.0-169.0", "trial": 6, "time_elapsed": 942279, "serialpos": 7, "key_press": -1, "wordID": 1079, "type": "PRES_AUD", "trial_index": 232}, "uniqueid": "MTK1755:39PAAFCODN7LPEJJAXB31ZC0WN6TVA", "dateTime": 1516296464861}, {"current_trial": 233, "trialdata": {"rt": -1000, "trial_type": "single-audio", "word": "cabbage", "stimulus": "/static/audio/wordpool/CABBAGE.wav", "conditions": [24, 800, "a", 12000], "internal_node_id": "0.0-170.0", "trial": 6, "time_elapsed": 944052, "serialpos": 8, "key_press": -1, "wordID": 209, "type": "PRES_AUD", "trial_index": 233}, "uniqueid": "MTK1755:39PAAFCODN7LPEJJAXB31ZC0WN6TVA", "dateTime": 1516296466634}, {"current_trial": 234, "trialdata": {"rt": -1000, "trial_type": "single-audio", "word": "mailman", "stimulus": "/static/audio/wordpool/MAILMAN.wav", "conditions": [24, 800, "a", 12000], "internal_node_id": "0.0-171.0", "trial": 6, "time_elapsed": 945745, "serialpos": 9, "key_press": -1, "wordID": 857, "type": "PRES_AUD", "trial_index": 234}, "uniqueid": "MTK1755:39PAAFCODN7LPEJJAXB31ZC0WN6TVA", "dateTime": 1516296468327}, {"current_trial": 235, "trialdata": {"rt": -1000, "trial_type": "single-audio", "word": "subway", "stimulus": "/static/audio/wordpool/SUBWAY.wav", "conditions": [24, 800, "a", 12000], "internal_node_id": "0.0-172.0", "trial": 6, "time_elapsed": 947707, "serialpos": 10, "key_press": -1, "wordID": 1399, "type": "PRES_AUD", "trial_index": 235}, "uniqueid": "MTK1755:39PAAFCODN7LPEJJAXB31ZC0WN6TVA", "dateTime": 1516296470289}, {"current_trial": 236, "trialdata": {"rt": -1000, "trial_type": "single-audio", "word": "perfume", "stimulus": "/static/audio/wordpool/PERFUME.wav", "conditions": [24, 800, "a", 12000], "internal_node_id": "0.0-173.0", "trial": 6, "time_elapsed": 949582, "serialpos": 11, "key_press": -1, "wordID": 1048, "type": "PRES_AUD", "trial_index": 236}, "uniqueid": "MTK1755:39PAAFCODN7LPEJJAXB31ZC0WN6TVA", "dateTime": 1516296472164}, {"current_trial": 237, "trialdata": {"rt": -1000, "trial_type": "single-audio", "word": "bucket", "stimulus": "/static/audio/wordpool/BUCKET.wav", "conditions": [24, 800, "a", 12000], "internal_node_id": "0.0-174.0", "trial": 6, "time_elapsed": 951521, "serialpos": 12, "key_press": -1, "wordID": 183, "type": "PRES_AUD", "trial_index": 237}, "uniqueid": "MTK1755:39PAAFCODN7LPEJJAXB31ZC0WN6TVA", "dateTime": 1516296474103}, {"current_trial": 238, "trialdata": {"rt": -1000, "trial_type": "single-audio", "word": "sandwich", "stimulus": "/static/audio/wordpool/SANDWICH.wav", "conditions": [24, 800, "a", 12000], "internal_node_id": "0.0-175.0", "trial": 6, "time_elapsed": 953169, "serialpos": 13, "key_press": -1, "wordID": 1231, "type": "PRES_AUD", "trial_index": 238}, "uniqueid": "MTK1755:39PAAFCODN7LPEJJAXB31ZC0WN6TVA", "dateTime": 1516296475751}, {"current_trial": 239, "trialdata": {"rt": -1000, "trial_type": "single-audio", "word": "atlas", "stimulus": "/static/audio/wordpool/ATLAS.wav", "conditions": [24, 800, "a", 12000], "internal_node_id": "0.0-176.0", "trial": 6, "time_elapsed": 955137, "serialpos": 14, "key_press": -1, "wordID": 52, "type": "PRES_AUD", "trial_index": 239}, "uniqueid": "MTK1755:39PAAFCODN7LPEJJAXB31ZC0WN6TVA", "dateTime": 1516296477719}, {"current_trial": 240, "trialdata": {"rt": -1000, "trial_type": "single-audio", "word": "nomad", "stimulus": "/static/audio/wordpool/NOMAD.wav", "conditions": [24, 800, "a", 12000], "internal_node_id": "0.0-177.0", "trial": 6, "time_elapsed": 956919, "serialpos": 15, "key_press": -1, "wordID": 954, "type": "PRES_AUD", "trial_index": 240}, "uniqueid": "MTK1755:39PAAFCODN7LPEJJAXB31ZC0WN6TVA", "dateTime": 1516296479501}, {"current_trial": 241, "trialdata": {"rt": -1000, "trial_type": "single-audio", "word": "plaza", "stimulus": "/static/audio/wordpool/PLAZA.wav", "conditions": [24, 800, "a", 12000], "internal_node_id": "0.0-178.0", "trial": 6, "time_elapsed": 958847, "serialpos": 16, "key_press": -1, "wordID": 1087, "type": "PRES_AUD", "trial_index": 241}, "uniqueid": "MTK1755:39PAAFCODN7LPEJJAXB31ZC0WN6TVA", "dateTime": 1516296481429}, {"current_trial": 242, "trialdata": {"rt": -1000, "trial_type": "single-audio", "word": "poison", "stimulus": "/static/audio/wordpool/POISON.wav", "conditions": [24, 800, "a", 12000], "internal_node_id": "0.0-179.0", "trial": 6, "time_elapsed": 960693, "serialpos": 17, "key_press": -1, "wordID": 1095, "type": "PRES_AUD", "trial_index": 242}, "uniqueid": "MTK1755:39PAAFCODN7LPEJJAXB31ZC0WN6TVA", "dateTime": 1516296483275}, {"current_trial": 243, "trialdata": {"rt": -1000, "trial_type": "single-audio", "word": "bison", "stimulus": "/static/audio/wordpool/BISON.wav", "conditions": [24, 800, "a", 12000], "internal_node_id": "0.0-180.0", "trial": 6, "time_elapsed": 962419, "serialpos": 18, "key_press": -1, "wordID": 130, "type": "PRES_AUD", "trial_index": 243}, "uniqueid": "MTK1755:39PAAFCODN7LPEJJAXB31ZC0WN6TVA", "dateTime": 1516296485001}, {"current_trial": 244, "trialdata": {"rt": -1000, "trial_type": "single-audio", "word": "citrus", "stimulus": "/static/audio/wordpool/CITRUS.wav", "conditions": [24, 800, "a", 12000], "internal_node_id": "0.0-181.0", "trial": 6, "time_elapsed": 964373, "serialpos": 19, "key_press": -1, "wordID": 312, "type": "PRES_AUD", "trial_index": 244}, "uniqueid": "MTK1755:39PAAFCODN7LPEJJAXB31ZC0WN6TVA", "dateTime": 1516296486955}, {"current_trial": 245, "trialdata": {"rt": -1000, "trial_type": "single-audio", "word": "knife", "stimulus": "/static/audio/wordpool/KNIFE.wav", "conditions": [24, 800, "a", 12000], "internal_node_id": "0.0-182.0", "trial": 6, "time_elapsed": 966200, "serialpos": 20, "key_press": -1, "wordID": 784, "type": "PRES_AUD", "trial_index": 245}, "uniqueid": "MTK1755:39PAAFCODN7LPEJJAXB31ZC0WN6TVA", "dateTime": 1516296488782}, {"current_trial": 246, "trialdata": {"rt": -1000, "trial_type": "single-audio", "word": "scalpel", "stimulus": "/static/audio/wordpool/SCALPEL.wav", "conditions": [24, 800, "a", 12000], "internal_node_id": "0.0-183.0", "trial": 6, "time_elapsed": 968088, "serialpos": 21, "key_press": -1, "wordID": 1242, "type": "PRES_AUD", "trial_index": 246}, "uniqueid": "MTK1755:39PAAFCODN7LPEJJAXB31ZC0WN6TVA", "dateTime": 1516296490670}, {"current_trial": 247, "trialdata": {"rt": -1000, "trial_type": "single-audio", "word": "razor", "stimulus": "/static/audio/wordpool/RAZOR.wav", "conditions": [24, 800, "a", 12000], "internal_node_id": "0.0-184.0", "trial": 6, "time_elapsed": 969923, "serialpos": 22, "key_press": -1, "wordID": 1170, "type": "PRES_AUD", "trial_index": 247}, "uniqueid": "MTK1755:39PAAFCODN7LPEJJAXB31ZC0WN6TVA", "dateTime": 1516296492505}, {"current_trial": 248, "trialdata": {"rt": -1000, "trial_type": "single-audio", "word": "sidewalk", "stimulus": "/static/audio/wordpool/SIDEWALK.wav", "conditions": [24, 800, "a", 12000], "internal_node_id": "0.0-185.0", "trial": 6, "time_elapsed": 971699, "serialpos": 23, "key_press": -1, "wordID": 1302, "type": "PRES_AUD", "trial_index": 248}, "uniqueid": "MTK1755:39PAAFCODN7LPEJJAXB31ZC0WN6TVA", "dateTime": 1516296494281}, {"current_trial": 249, "trialdata": {"rt": -1, "trial_type": "single-stim", "stimulus": "", "internal_node_id": "0.0-186.0-0.0", "time_elapsed": 972999, "key_press": -1, "type": "PRE_RECALL_DELAY", "trial_index": 249}, "uniqueid": "MTK1755:39PAAFCODN7LPEJJAXB31ZC0WN6TVA", "dateTime": 1516296495582}, {"current_trial": 250, "trialdata": {"rt": -1000, "trial_type": "single-audio", "stimulus": "/static/audio/400Hz.wav", "internal_node_id": "0.0-187.0", "time_elapsed": 973501, "key_press": -1, "type": "PRE_RECALL_ALERT", "trial_index": 250}, "uniqueid": "MTK1755:39PAAFCODN7LPEJJAXB31ZC0WN6