{"assignmentId": "3TVSS0C0E27Y43JO07GZN1VE20FWT1", "workerId": "MTK1601", "questiondata": {"origin": "United States", "strat-rehearsal": "19", "marital": "Single", "education": "Some college", "ethnicity": "Not Hispanic", "color_depth": 24, "distracted": "No", "wrote-notes": "No", "strat-other": "", "screen_width": 2048, "avail_screen_width": 2048, "avail_screen_height": 1152, "strat-image": "91", "language": "english", "gender": "Male", "age": "29", "gender_other": "", "race": ["White"], "strat-categorize": "97", "pixel_depth": 24, "strat-spatial": "49", "strat-story": "2", "race_other": "", "screen_height": 1152}, "bonus": 0, "hitId": "31YWE12TE0JO8LTD774IV4LJ5YS7XL", "counterbalance": 392, "useragent": "Mozilla/5.0 (Windows NT 10.0; Win64; x64) AppleWebKit/537.36 (KHTML, like Gecko) Chrome/63.0.3239.132 Safari/537.36", "eventdata": [{"eventtype": "initialized", "interval": 0, "value": null, "timestamp": 1516039688920}, {"eventtype": "window_resize", "interval": 0, "value": [2052, 1104], "timestamp": 1516039688920}, {"eventtype": "focus", "interval": 1241974, "value": "off", "timestamp": 1516040930894}, {"eventtype": "focus", "interval": 3713, "value": "on", "timestamp": 1516040934607}, {"eventtype": "focus", "interval": 132423, "value": "off", "timestamp": 1516041067030}, {"eventtype": "focus", "interval": 5063, "value": "on", "timestamp": 1516041072093}, {"eventtype": "focus", "interval": 464113, "value": "off", "timestamp": 1516041536206}, {"eventtype": "focus", "interval": 6719, "value": "on", "timestamp": 1516041542925}, {"eventtype": "focus", "interval": 487140, "value": "off", "timestamp": 1516042030065}, {"eventtype": "focus", "interval": 7621, "value": "on", "timestamp": 1516042037686}, {"eventtype": "focus", "interval": 415158, "value": "off", "timestamp": 1516042452844}, {"eventtype": "focus", "interval": 4792, "value": "on", "timestamp": 1516042457636}], "data": [{"current_trial": 0, "trialdata": {"rt": 2111, "trial_type": "text", "internal_node_id": "0.0-0.0", "time_elapsed": 2112, "key_press": 32, "type": "INSTRUCTIONS", "trial_index": 0}, "uniqueid": "MTK1601:3TVSS0C0E27Y43JO07GZN1VE20FWT1", "dateTime": 1516039691502}, {"current_trial": 1, "trialdata": {"rt": 3343, "trial_type": "text", "internal_node_id": "0.0-1.0", "time_elapsed": 5455, "key_press": 175, "type": "INSTRUCTIONS", "trial_index": 1}, "uniqueid": "MTK1601:3TVSS0C0E27Y43JO07GZN1VE20FWT1", "dateTime": 1516039694845}, {"current_trial": 2, "trialdata": {"rt": [6968], "trial_type": "audio-test", "responses": ["ocean"], "internal_node_id": "0.0-2.0", "time_elapsed": 12433, "type": "AUDIO_TEST", "trial_index": 2}, "uniqueid": "MTK1601:3TVSS0C0E27Y43JO07GZN1VE20FWT1", "dateTime": 1516039701823}, {"current_trial": 3, "trialdata": {"rt": [5837], "trial_type": "audio-test", "responses": ["crystal"], "internal_node_id": "0.0-3.0", "time_elapsed": 18273, "type": "AUDIO_TEST", "trial_index": 3}, "uniqueid": "MTK1601:3TVSS0C0E27Y43JO07GZN1VE20FWT1", "dateTime": 1516039707663}, {"current_trial": 4, "trialdata": {"rt": [4493], "trial_type": "audio-test", "responses": ["spice"], "internal_node_id": "0.0-4.0", "time_elapsed": 22769, "type": "AUDIO_TEST", "trial_index": 4}, "uniqueid": "MTK1601:3TVSS0C0E27Y43JO07GZN1VE20FWT1", "dateTime": 1516039712159}, {"current_trial": 5, "trialdata": {"rt": 23841, "trial_type": "survey-text", "responses": "{\"Q0\":\"11:30\",\"Q1\":\"9:00\",\"Q2\":\"4\"}", "internal_node_id": "0.0-5.0", "time_elapsed": 47363, "type": "SLEEP_SURVEY", "trial_index": 5}, "uniqueid": "MTK1601:3TVSS0C0E27Y43JO07GZN1VE20FWT1", "dateTime": 1516039736753}, {"current_trial": 6, "trialdata": {"rt": 36667, "trial_type": "text", "internal_node_id": "0.0-6.0", "time_elapsed": 85031, "key_press": 32, "type": "INSTRUCTIONS", "trial_index": 6}, "uniqueid": "MTK1601:3TVSS0C0E27Y43JO07GZN1VE20FWT1", "dateTime": 1516039774421}, {"current_trial": 7, "trialdata": {"rt": 18205, "trial_type": "text", "internal_node_id": "0.0-7.0", "time_elapsed": 103737, "key_press": 32, "type": "INSTRUCTIONS", "trial_index": 7}, "uniqueid": "MTK1601:3TVSS0C0E27Y43JO07GZN1VE20FWT1", "dateTime": 1516039793127}, {"current_trial": 8, "trialdata": {"rt": 11771, "trial_type": "text", "internal_node_id": "0.0-8.0", "time_elapsed": 116010, "key_press": 32, "type": "INSTRUCTIONS", "trial_index": 8}, "uniqueid": "MTK1601:3TVSS0C0E27Y43JO07GZN1VE20FWT1", "dateTime": 1516039805400}, {"current_trial": 9, "trialdata": {"rt": [5990, 9862, 16567], "trial_type": "math-distractor", "key_times": [5494, 5718, 5990, 9446, 9510, 9862, 15159, 15319, 15320, 16279, 16567], "responses": ["17", "13", "18"], "num2": [3, 3, 3, 5], "num3": [6, 3, 7, 4], "conditions": [18, 1200, "v", 18000], "internal_node_id": "0.0-9.0", "key_presses": [97, 103, 13, 97, 99, 13, 97, 104, 105, 8, 13], "trial": 0, "time_elapsed": 135014, "type": "DISTRACTOR", "trial_index": 9, "num1": [8, 7, 8, 2]}, "uniqueid": "MTK1601:3TVSS0C0E27Y43JO07GZN1VE20FWT1", "dateTime": 1516039824404}, {"current_trial": 10, "trialdata": {"rt": -1, "trial_type": "single-stim", "stimulus": "<p id=\"stim\">10</p>", "internal_node_id": "0.0-10.0-0.0", "time_elapsed": 138016, "key_press": -1, "trial_index": 10}, "uniqueid": "MTK1601:3TVSS0C0E27Y43JO07GZN1VE20FWT1", "dateTime": 1516039827406}, {"current_trial": 11, "trialdata": {"rt": -1, "trial_type": "single-stim", "stimulus": "<p id=\"stim\">9</p>", "internal_node_id": "0.0-10.0-1.0", "time_elapsed": 139018, "key_press": -1, "trial_index": 11}, "uniqueid": "MTK1601:3TVSS0C0E27Y43JO07GZN1VE20FWT1", "dateTime": 1516039828408}, {"current_trial": 12, "trialdata": {"rt": -1, "trial_type": "single-stim", "stimulus": "<p id=\"stim\">8</p>", "internal_node_id": "0.0-10.0-2.0", "time_elapsed": 140019, "key_press": -1, "trial_index": 12}, "uniqueid": "MTK1601:3TVSS0C0E27Y43JO07GZN1VE20FWT1", "dateTime": 1516039829409}, {"current_trial": 13, "trialdata": {"rt": -1, "trial_type": "single-stim", "stimulus": "<p id=\"stim\">7</p>", "internal_node_id": "0.0-10.0-3.0", "time_elapsed": 141021, "key_press": -1, "trial_index": 13}, "uniqueid": "MTK1601:3TVSS0C0E27Y43JO07GZN1VE20FWT1", "dateTime": 1516039830411}, {"current_trial": 14, "trialdata": {"rt": -1, "trial_type": "single-stim", "stimulus": "<p id=\"stim\">6</p>", "internal_node_id": "0.0-10.0-4.0", "time_elapsed": 142022, "key_press": -1, "trial_index": 14}, "uniqueid": "MTK1601:3TVSS0C0E27Y43JO07GZN1VE20FWT1", "dateTime": 1516039831412}, {"current_trial": 15, "trialdata": {"rt": -1, "trial_type": "single-stim", "stimulus": "<p id=\"stim\">5</p>", "internal_node_id": "0.0-10.0-5.0", "time_elapsed": 143023, "key_press": -1, "trial_index": 15}, "uniqueid": "MTK1601:3TVSS0C0E27Y43JO07GZN1VE20FWT1", "dateTime": 1516039832413}, {"current_trial": 16, "trialdata": {"rt": -1, "trial_type": "single-stim", "stimulus": "<p id=\"stim\">4</p>", "internal_node_id": "0.0-10.0-6.0", "time_elapsed": 144024, "key_press": -1, "trial_index": 16}, "uniqueid": "MTK1601:3TVSS0C0E27Y43JO07GZN1VE20FWT1", "dateTime": 1516039833414}, {"current_trial": 17, "trialdata": {"rt": -1, "trial_type": "single-stim", "stimulus": "<p id=\"stim\">3</p>", "internal_node_id": "0.0-10.0-7.0", "time_elapsed": 145026, "key_press": -1, "trial_index": 17}, "uniqueid": "MTK1601:3TVSS0C0E27Y43JO07GZN1VE20FWT1", "dateTime": 1516039834416}, {"current_trial": 18, "trialdata": {"rt": -1, "trial_type": "single-stim", "stimulus": "<p id=\"stim\">2</p>", "internal_node_id": "0.0-10.0-8.0", "time_elapsed": 146028, "key_press": -1, "trial_index": 18}, "uniqueid": "MTK1601:3TVSS0C0E27Y43JO07GZN1VE20FWT1", "dateTime": 1516039835418}, {"current_trial": 19, "trialdata": {"rt": -1, "trial_type": "single-stim", "stimulus": "<p id=\"stim\">1</p>", "internal_node_id": "0.0-10.0-9.0", "time_elapsed": 147029, "key_press": -1, "trial_index": 19}, "uniqueid": "MTK1601:3TVSS0C0E27Y43JO07GZN1VE20FWT1", "dateTime": 1516039836419}, {"current_trial": 20, "trialdata": {"rt": -1, "trial_type": "single-stim", "stimulus": "<p id=\"stim\">+</p>", "internal_node_id": "0.0-11.0-0.0", "time_elapsed": 148530, "key_press": -1, "type": "FIXATION", "trial_index": 20}, "uniqueid": "MTK1601:3TVSS0C0E27Y43JO07GZN1VE20FWT1", "dateTime": 1516039837920}, {"current_trial": 21, "trialdata": {"rt": -1, "trial_type": "single-stim", "word": "sandwich", "stimulus": "<p id=\"stim\">SANDWICH</p>", "conditions": [18, 1200, "v", 18000], "internal_node_id": "0.0-12.0", "trial": 0, "time_elapsed": 149732, "serialpos": 0, "key_press": -1, "wordID": 1231, "type": "PRES_VIS", "trial_index": 21}, "uniqueid": "MTK1601:3TVSS0C0E27Y43JO07GZN1VE20FWT1", "dateTime": 1516039839122}, {"current_trial": 22, "trialdata": {"rt": -1, "trial_type": "single-stim", "word": "stream", "stimulus": "<p id=\"stim\">STREAM</p>", "conditions": [18, 1200, "v", 18000], "internal_node_id": "0.0-13.0", "trial": 0, "time_elapsed": 151928, "serialpos": 1, "key_press": -1, "wordID": 1391, "type": "PRES_VIS", "trial_index": 22}, "uniqueid": "MTK1601:3TVSS0C0E27Y43JO07GZN1VE20FWT1", "dateTime": 1516039841318}, {"current_trial": 23, "trialdata": {"rt": -1, "trial_type": "single-stim", "word": "human", "stimulus": "<p id=\"stim\">HUMAN</p>", "conditions": [18, 1200, "v", 18000], "internal_node_id": "0.0-14.0", "trial": 0, "time_elapsed": 154108, "serialpos": 2, "key_press": -1, "wordID": 725, "type": "PRES_VIS", "trial_index": 23}, "uniqueid": "MTK1601:3TVSS0C0E27Y43JO07GZN1VE20FWT1", "dateTime": 1516039843498}, {"current_trial": 24, "trialdata": {"rt": -1, "trial_type": "single-stim", "word": "sticker", "stimulus": "<p id=\"stim\">STICKER</p>", "conditions": [18, 1200, "v", 18000], "internal_node_id": "0.0-15.0", "trial": 0, "time_elapsed": 156454, "serialpos": 3, "key_press": -1, "wordID": 1381, "type": "PRES_VIS", "trial_index": 24}, "uniqueid": "MTK1601:3TVSS0C0E27Y43JO07GZN1VE20FWT1", "dateTime": 1516039845844}, {"current_trial": 25, "trialdata": {"rt": -1, "trial_type": "single-stim", "word": "snack", "stimulus": "<p id=\"stim\">SNACK</p>", "conditions": [18, 1200, "v", 18000], "internal_node_id": "0.0-16.0", "trial": 0, "time_elapsed": 158594, "serialpos": 4, "key_press": -1, "wordID": 1330, "type": "PRES_VIS", "trial_index": 25}, "uniqueid": "MTK1601:3TVSS0C0E27Y43JO07GZN1VE20FWT1", "dateTime": 1516039847984}, {"current_trial": 26, "trialdata": {"rt": -1, "trial_type": "single-stim", "word": "female", "stimulus": "<p id=\"stim\">FEMALE</p>", "conditions": [18, 1200, "v", 18000], "internal_node_id": "0.0-17.0", "trial": 0, "time_elapsed": 160965, "serialpos": 5, "key_press": -1, "wordID": 558, "type": "PRES_VIS", "trial_index": 26}, "uniqueid": "MTK1601:3TVSS0C0E27Y43JO07GZN1VE20FWT1", "dateTime": 1516039850355}, {"current_trial": 27, "trialdata": {"rt": -1, "trial_type": "single-stim", "word": "bunny", "stimulus": "<p id=\"stim\">BUNNY</p>", "conditions": [18, 1200, "v", 18000], "internal_node_id": "0.0-18.0", "trial": 0, "time_elapsed": 163265, "serialpos": 6, "key_press": -1, "wordID": 197, "type": "PRES_VIS", "trial_index": 27}, "uniqueid": "MTK1601:3TVSS0C0E27Y43JO07GZN1VE20FWT1", "dateTime": 1516039852655}, {"current_trial": 28, "trialdata": {"rt": -1, "trial_type": "single-stim", "word": "queen", "stimulus": "<p id=\"stim\">QUEEN</p>", "conditions": [18, 1200, "v", 18000], "internal_node_id": "0.0-19.0", "trial": 0, "time_elapsed": 165325, "serialpos": 7, "key_press": -1, "wordID": 1148, "type": "PRES_VIS", "trial_index": 28}, "uniqueid": "MTK1601:3TVSS0C0E27Y43JO07GZN1VE20FWT1", "dateTime": 1516039854715}, {"current_trial": 29, "trialdata": {"rt": -1, "trial_type": "single-stim", "word": "harp", "stimulus": "<p id=\"stim\">HARP</p>", "conditions": [18, 1200, "v", 18000], "internal_node_id": "0.0-20.0", "trial": 0, "time_elapsed": 167410, "serialpos": 8, "key_press": -1, "wordID": 688, "type": "PRES_VIS", "trial_index": 29}, "uniqueid": "MTK1601:3TVSS0C0E27Y43JO07GZN1VE20FWT1", "dateTime": 1516039856800}, {"current_trial": 30, "trialdata": {"rt": -1, "trial_type": "single-stim", "word": "patient", "stimulus": "<p id=\"stim\">PATIENT</p>", "conditions": [18, 1200, "v", 18000], "internal_node_id": "0.0-21.0", "trial": 0, "time_elapsed": 169467, "serialpos": 9, "key_press": -1, "wordID": 1023, "type": "PRES_VIS", "trial_index": 30}, "uniqueid": "MTK1601:3TVSS0C0E27Y43JO07GZN1VE20FWT1", "dateTime": 1516039858857}, {"current_trial": 31, "trialdata": {"rt": -1, "trial_type": "single-stim", "word": "seal", "stimulus": "<p id=\"stim\">SEAL</p>", "conditions": [18, 1200, "v", 18000], "internal_node_id": "0.0-22.0", "trial": 0, "time_elapsed": 171760, "serialpos": 10, "key_press": -1, "wordID": 1261, "type": "PRES_VIS", "trial_index": 31}, "uniqueid": "MTK1601:3TVSS0C0E27Y43JO07GZN1VE20FWT1", "dateTime": 1516039861150}, {"current_trial": 32, "trialdata": {"rt": -1, "trial_type": "single-stim", "word": "shrub", "stimulus": "<p id=\"stim\">SHRUB</p>", "conditions": [18, 1200, "v", 18000], "internal_node_id": "0.0-23.0", "trial": 0, "time_elapsed": 173808, "serialpos": 11, "key_press": -1, "wordID": 1298, "type": "PRES_VIS", "trial_index": 32}, "uniqueid": "MTK1601:3TVSS0C0E27Y43JO07GZN1VE20FWT1", "dateTime": 1516039863199}, {"current_trial": 33, "trialdata": {"rt": -1, "trial_type": "single-stim", "word": "student", "stimulus": "<p id=\"stim\">STUDENT</p>", "conditions": [18, 1200, "v", 18000], "internal_node_id": "0.0-24.0", "trial": 0, "time_elapsed": 175846, "serialpos": 12, "key_press": -1, "wordID": 1394, "type": "PRES_VIS", "trial_index": 33}, "uniqueid": "MTK1601:3TVSS0C0E27Y43JO07GZN1VE20FWT1", "dateTime": 1516039865237}, {"current_trial": 34, "trialdata": {"rt": -1, "trial_type": "single-stim", "word": "freckle", "stimulus": "<p id=\"stim\">FRECKLE</p>", "conditions": [18, 1200, "v", 18000], "internal_node_id": "0.0-25.0", "trial": 0, "time_elapsed": 178118, "serialpos": 13, "key_press": -1, "wordID": 601, "type": "PRES_VIS", "trial_index": 34}, "uniqueid": "MTK1601:3TVSS0C0E27Y43JO07GZN1VE20FWT1", "dateTime": 1516039867508}, {"current_trial": 35, "trialdata": {"rt": -1, "trial_type": "single-stim", "word": "neutron", "stimulus": "<p id=\"stim\">NEUTRON</p>", "conditions": [18, 1200, "v", 18000], "internal_node_id": "0.0-26.0", "trial": 0, "time_elapsed": 180430, "serialpos": 14, "key_press": -1, "wordID": 946, "type": "PRES_VIS", "trial_index": 35}, "uniqueid": "MTK1601:3TVSS0C0E27Y43JO07GZN1VE20FWT1", "dateTime": 1516039869820}, {"current_trial": 36, "trialdata": {"rt": -1, "trial_type": "single-stim", "word": "record", "stimulus": "<p id=\"stim\">RECORD</p>", "conditions": [18, 1200, "v", 18000], "internal_node_id": "0.0-27.0", "trial": 0, "time_elapsed": 182700, "serialpos": 15, "key_press": -1, "wordID": 1175, "type": "PRES_VIS", "trial_index": 36}, "uniqueid": "MTK1601:3TVSS0C0E27Y43JO07GZN1VE20FWT1", "dateTime": 1516039872090}, {"current_trial": 37, "trialdata": {"rt": -1, "trial_type": "single-stim", "word": "plate", "stimulus": "<p id=\"stim\">PLATE</p>", "conditions": [18, 1200, "v", 18000], "internal_node_id": "0.0-28.0", "trial": 0, "time_elapsed": 184707, "serialpos": 16, "key_press": -1, "wordID": 1085, "type": "PRES_VIS", "trial_index": 37}, "uniqueid": "MTK1601:3TVSS0C0E27Y43JO07GZN1VE20FWT1", "dateTime": 1516039874097}, {"current_trial": 38, "trialdata": {"rt": -1, "trial_type": "single-stim", "word": "flute", "stimulus": "<p id=\"stim\">FLUTE</p>", "conditions": [18, 1200, "v", 18000], "internal_node_id": "0.0-29.0", "trial": 0, "time_elapsed": 186757, "serialpos": 17, "key_press": -1, "wordID": 584, "type": "PRES_VIS", "trial_index": 38}, "uniqueid": "MTK1601:3TVSS0C0E27Y43JO07GZN1VE20FWT1", "dateTime": 1516039876147}, {"current_trial": 39, "trialdata": {"rt": -1, "trial_type": "single-stim", "stimulus": "", "internal_node_id": "0.0-30.0-0.0", "time_elapsed": 189186, "key_press": -1, "type": "PRE_RECALL_DELAY", "trial_index": 39}, "uniqueid": "MTK1601:3TVSS0C0E27Y43JO07GZN1VE20FWT1", "dateTime": 1516039878576}, {"current_trial": 40, "trialdata": {"rt": -1000, "trial_type": "single-audio", "stimulus": "/static/audio/400Hz.wav", "internal_node_id": "0.0-31.0", "time_elapsed": 189687, "key_press": -1, "type": "PRE_RECALL_ALERT", "trial_index": 40}, "uniqueid": "MTK1601:3TVSS0C0E27Y43JO07GZN1VE20FWT1", "dateTime": 1516039879077}, {"current_trial": 41, "trialdata": {"rt": [3114, 4474, 6395, 7531, 10299, 11867], "recwords": ["flute", "plate", "sandwich", "bunny", "harp", "record"], "key_times": [1866, 2202, 2442, 2586, 2682, 3114, 3882, 3994, 4026, 4218, 4282, 4474, 4747, 4842, 4970, 5098, 5338, 5450, 5770, 5882, 6395, 6795, 6890, 7115, 7243, 7354, 7531, 9627, 9707, 9899, 9979, 10299, 10875, 10971, 11275, 11371, 11547, 11691, 11867], "trial_type": "free-recall", "conditions": [18, 1200, "v", 18000], "internal_node_id": "0.0-32.0-0.0", "key_presses": [70, 76, 85, 84, 69, 13, 80, 76, 65, 84, 69, 13, 83, 65, 78, 68, 87, 73, 67, 72, 13, 66, 85, 78, 78, 89, 13, 72, 65, 82, 80, 13, 82, 69, 67, 79, 82, 68, 13], "trial": 0, "time_elapsed": 249689, "type": "FREE_RECALL", "trial_index": 41}, "uniqueid": "MTK1601:3TVSS0C0E27Y43JO07GZN1VE20FWT1", "dateTime": 1516039939080}, {"current_trial": 42, "trialdata": {"rt": 1199, "trial_type": "text", "internal_node_id": "0.0-33.0", "time_elapsed": 252889, "key_press": 32, "type": "INSTRUCTIONS", "trial_index": 42}, "uniqueid": "MTK1601:3TVSS0C0E27Y43JO07GZN1VE20FWT1", "dateTime": 1516039942279}, {"current_trial": 43, "trialdata": {"rt": [5199, 7167, 9984, 12144], "trial_type": "math-distractor", "key_times": [4751, 4927, 5199, 6783, 6975, 7167, 9648, 9743, 9984, 11760, 11952, 12144], "responses": ["12", "11", "12", "10"], "num2": [1, 9, 8, 2, 4], "num3": [7, 1, 3, 5, 9], "conditions": [18, 1200, "v", 18000], "internal_node_id": "0.0-34.0", "key_presses": [97, 98, 13, 97, 97, 13, 97, 98, 13, 97, 96, 13], "trial": 1, "time_elapsed": 272892, "type": "DISTRACTOR", "trial_index": 43, "num1": [4, 1, 1, 3, 8]}, "uniqueid": "MTK1601:3TVSS0C0E27Y43JO07GZN1VE20FWT1", "dateTime": 1516039962282}, {"current_trial": 44, "trialdata": {"rt": -1, "trial_type": "single-stim", "stimulus": "<p id=\"stim\">10</p>", "internal_node_id": "0.0-35.0-0.0", "time_elapsed": 275894, "key_press": -1, "trial_index": 44}, "uniqueid": "MTK1601:3TVSS0C0E27Y43JO07GZN1VE20FWT1", "dateTime": 1516039965284}, {"current_trial": 45, "trialdata": {"rt": -1, "trial_type": "single-stim", "stimulus": "<p id=\"stim\">9</p>", "internal_node_id": "0.0-35.0-1.0", "time_elapsed": 276894, "key_press": -1, "trial_index": 45}, "uniqueid": "MTK1601:3TVSS0C0E27Y43JO07GZN1VE20FWT1", "dateTime": 1516039966284}, {"current_trial": 46, "trialdata": {"rt": -1, "trial_type": "single-stim", "stimulus": "<p id=\"stim\">8</p>", "internal_node_id": "0.0-35.0-2.0", "time_elapsed": 277896, "key_press": -1, "trial_index": 46}, "uniqueid": "MTK1601:3TVSS0C0E27Y43JO07GZN1VE20FWT1", "dateTime": 1516039967286}, {"current_trial": 47, "trialdata": {"rt": -1, "trial_type": "single-stim", "stimulus": "<p id=\"stim\">7</p>", "internal_node_id": "0.0-35.0-3.0", "time_elapsed": 278899, "key_press": -1, "trial_index": 47}, "uniqueid": "MTK1601:3TVSS0C0E27Y43JO07GZN1VE20FWT1", "dateTime": 1516039968289}, {"current_trial": 48, "trialdata": {"rt": -1, "trial_type": "single-stim", "stimulus": "<p id=\"stim\">6</p>", "internal_node_id": "0.0-35.0-4.0", "time_elapsed": 279900, "key_press": -1, "trial_index": 48}, "uniqueid": "MTK1601:3TVSS0C0E27Y43JO07GZN1VE20FWT1", "dateTime": 1516039969290}, {"current_trial": 49, "trialdata": {"rt": -1, "trial_type": "single-stim", "stimulus": "<p id=\"stim\">5</p>", "internal_node_id": "0.0-35.0-5.0", "time_elapsed": 280900, "key_press": -1, "trial_index": 49}, "uniqueid": "MTK1601:3TVSS0C0E27Y43JO07GZN1VE20FWT1", "dateTime": 1516039970290}, {"current_trial": 50, "trialdata": {"rt": -1, "trial_type": "single-stim", "stimulus": "<p id=\"stim\">4</p>", "internal_node_id": "0.0-35.0-6.0", "time_elapsed": 281901, "key_press": -1, "trial_index": 50}, "uniqueid": "MTK1601:3TVSS0C0E27Y43JO07GZN1VE20FWT1", "dateTime": 1516039971291}, {"current_trial": 51, "trialdata": {"rt": -1, "trial_type": "single-stim", "stimulus": "<p id=\"stim\">3</p>", "internal_node_id": "0.0-35.0-7.0", "time_elapsed": 282902, "key_press": -1, "trial_index": 51}, "uniqueid": "MTK1601:3TVSS0C0E27Y43JO07GZN1VE20FWT1", "dateTime": 1516039972292}, {"current_trial": 52, "trialdata": {"rt": -1, "trial_type": "single-stim", "stimulus": "<p id=\"stim\">2</p>", "internal_node_id": "0.0-35.0-8.0", "time_elapsed": 283903, "key_press": -1, "trial_index": 52}, "uniqueid": "MTK1601:3TVSS0C0E27Y43JO07GZN1VE20FWT1", "dateTime": 1516039973293}, {"current_trial": 53, "trialdata": {"rt": -1, "trial_type": "single-stim", "stimulus": "<p id=\"stim\">1</p>", "internal_node_id": "0.0-35.0-9.0", "time_elapsed": 284904, "key_press": -1, "trial_index": 53}, "uniqueid": "MTK1601:3TVSS0C0E27Y43JO07GZN1VE20FWT1", "dateTime": 1516039974294}, {"current_trial": 54, "trialdata": {"rt": -1, "trial_type": "single-stim", "stimulus": "<p id=\"stim\">+</p>", "internal_node_id": "0.0-36.0-0.0", "time_elapsed": 286406, "key_press": -1, "type": "FIXATION", "trial_index": 54}, "uniqueid": "MTK1601:3TVSS0C0E27Y43JO07GZN1VE20FWT1", "dateTime": 1516039975796}, {"current_trial": 55, "trialdata": {"rt": -1, "trial_type": "single-stim", "word": "sculpture", "stimulus": "<p id=\"stim\">SCULPTURE</p>", "conditions": [18, 1200, "v", 18000], "internal_node_id": "0.0-37.0", "trial": 1, "time_elapsed": 287607, "serialpos": 0, "key_press": -1, "wordID": 1257, "type": "PRES_VIS", "trial_index": 55}, "uniqueid": "MTK1601:3TVSS0C0E27Y43JO07GZN1VE20FWT1", "dateTime": 1516039976997}, {"current_trial": 56, "trialdata": {"rt": -1, "trial_type": "single-stim", "word": "flashlight", "stimulus": "<p id=\"stim\">FLASHLIGHT</p>", "conditions": [18, 1200, "v", 18000], "internal_node_id": "0.0-38.0", "trial": 1, "time_elapsed": 289649, "serialpos": 1, "key_press": -1, "wordID": 574, "type": "PRES_VIS", "trial_index": 56}, "uniqueid": "MTK1601:3TVSS0C0E27Y43JO07GZN1VE20FWT1", "dateTime": 1516039979039}, {"current_trial": 57, "trialdata": {"rt": -1, "trial_type": "single-stim", "word": "basement", "stimulus": "<p id=\"stim\">BASEMENT</p>", "conditions": [18, 1200, "v", 18000], "internal_node_id": "0.0-39.0", "trial": 1, "time_elapsed": 291669, "serialpos": 2, "key_press": -1, "wordID": 93, "type": "PRES_VIS", "trial_index": 57}, "uniqueid": "MTK1601:3TVSS0C0E27Y43JO07GZN1VE20FWT1", "dateTime": 1516039981059}, {"current_trial": 58, "trialdata": {"rt": -1, "trial_type": "single-stim", "word": "cigar", "stimulus": "<p id=\"stim\">CIGAR</p>", "conditions": [18, 1200, "v", 18000], "internal_node_id": "0.0-40.0", "trial": 1, "time_elapsed": 293970, "serialpos": 3, "key_press": -1, "wordID": 307, "type": "PRES_VIS", "trial_index": 58}, "uniqueid": "MTK1601:3TVSS0C0E27Y43JO07GZN1VE20FWT1", "dateTime": 1516039983360}, {"current_trial": 59, "trialdata": {"rt": -1, "trial_type": "single-stim", "word": "breast", "stimulus": "<p id=\"stim\">BREAST</p>", "conditions": [18, 1200, "v", 18000], "internal_node_id": "0.0-41.0", "trial": 1, "time_elapsed": 296340, "serialpos": 4, "key_press": -1, "wordID": 170, "type": "PRES_VIS", "trial_index": 59}, "uniqueid": "MTK1601:3TVSS0C0E27Y43JO07GZN1VE20FWT1", "dateTime": 1516039985730}, {"current_trial": 60, "trialdata": {"rt": -1, "trial_type": "single-stim", "word": "scissors", "stimulus": "<p id=\"stim\">SCISSORS</p>", "conditions": [18, 1200, "v", 18000], "internal_node_id": "0.0-42.0", "trial": 1, "time_elapsed": 298737, "serialpos": 5, "key_press": -1, "wordID": 1249, "type": "PRES_VIS", "trial_index": 60}, "uniqueid": "MTK1601:3TVSS0C0E27Y43JO07GZN1VE20FWT1", "dateTime": 1516039988127}, {"current_trial": 61, "trialdata": {"rt": -1, "trial_type": "single-stim", "word": "rattle", "stimulus": "<p id=\"stim\">RATTLE</p>", "conditions": [18, 1200, "v", 18000], "internal_node_id": "0.0-43.0", "trial": 1, "time_elapsed": 301007, "serialpos": 6, "key_press": -1, "wordID": 1169, "type": "PRES_VIS", "trial_index": 61}, "uniqueid": "MTK1601:3TVSS0C0E27Y43JO07GZN1VE20FWT1", "dateTime": 1516039990397}, {"current_trial": 62, "trialdata": {"rt": -1, "trial_type": "single-stim", "word": "garlic", "stimulus": "<p id=\"stim\">GARLIC</p>", "conditions": [18, 1200, "v", 18000], "internal_node_id": "0.0-44.0", "trial": 1, "time_elapsed": 303370, "serialpos": 7, "key_press": -1, "wordID": 623, "type": "PRES_VIS", "trial_index": 62}, "uniqueid": "MTK1601:3TVSS0C0E27Y43JO07GZN1VE20FWT1", "dateTime": 1516039992760}, {"current_trial": 63, "trialdata": {"rt": -1, "trial_type": "single-stim", "word": "plaster", "stimulus": "<p id=\"stim\">PLASTER</p>", "conditions": [18, 1200, "v", 18000], "internal_node_id": "0.0-45.0", "trial": 1, "time_elapsed": 305693, "serialpos": 8, "key_press": -1, "wordID": 1084, "type": "PRES_VIS", "trial_index": 63}, "uniqueid": "MTK1601:3TVSS0C0E27Y43JO07GZN1VE20FWT1", "dateTime": 1516039995084}, {"current_trial": 64, "trialdata": {"rt": -1, "trial_type": "single-stim", "word": "poet", "stimulus": "<p id=\"stim\">POET</p>", "conditions": [18, 1200, "v", 18000], "internal_node_id": "0.0-46.0", "trial": 1, "time_elapsed": 307871, "serialpos": 9, "key_press": -1, "wordID": 1094, "type": "PRES_VIS", "trial_index": 64}, "uniqueid": "MTK1601:3TVSS0C0E27Y43JO07GZN1VE20FWT1", "dateTime": 1516039997261}, {"current_trial": 65, "trialdata": {"rt": -1, "trial_type": "single-stim", "word": "egypt", "stimulus": "<p id=\"stim\">EGYPT</p>", "conditions": [18, 1200, "v", 18000], "internal_node_id": "0.0-47.0", "trial": 1, "time_elapsed": 310086, "serialpos": 10, "key_press": -1, "wordID": 518, "type": "PRES_VIS", "trial_index": 65}, "uniqueid": "MTK1601:3TVSS0C0E27Y43JO07GZN1VE20FWT1", "dateTime": 1516039999476}, {"current_trial": 66, "trialdata": {"rt": -1, "trial_type": "single-stim", "word": "handbag", "stimulus": "<p id=\"stim\">HANDBAG</p>", "conditions": [18, 1200, "v", 18000], "internal_node_id": "0.0-48.0", "trial": 1, "time_elapsed": 312159, "serialpos": 11, "key_press": -1, "wordID": 683, "type": "PRES_VIS", "trial_index": 66}, "uniqueid": "MTK1601:3TVSS0C0E27Y43JO07GZN1VE20FWT1", "dateTime": 1516040001549}, {"current_trial": 67, "trialdata": {"rt": -1, "trial_type": "single-stim", "word": "venus", "stimulus": "<p id=\"stim\">VENUS</p>", "conditions": [18, 1200, "v", 18000], "internal_node_id": "0.0-49.0", "trial": 1, "time_elapsed": 314516, "serialpos": 12, "key_press": -1, "wordID": 1556, "type": "PRES_VIS", "trial_index": 67}, "uniqueid": "MTK1601:3TVSS0C0E27Y43JO07GZN1VE20FWT1", "dateTime": 1516040003907}, {"current_trial": 68, "trialdata": {"rt": -1, "trial_type": "single-stim", "word": "foot", "stimulus": "<p id=\"stim\">FOOT</p>", "conditions": [18, 1200, "v", 18000], "internal_node_id": "0.0-50.0", "trial": 1, "time_elapsed": 316726, "serialpos": 13, "key_press": -1, "wordID": 589, "type": "PRES_VIS", "trial_index": 68}, "uniqueid": "MTK1601:3TVSS0C0E27Y43JO07GZN1VE20FWT1", "dateTime": 1516040006117}, {"current_trial": 69, "trialdata": {"rt": -1, "trial_type": "single-stim", "word": "jelly", "stimulus": "<p id=\"stim\">JELLY</p>", "conditions": [18, 1200, "v", 18000], "internal_node_id": "0.0-51.0", "trial": 1, "time_elapsed": 318795, "serialpos": 14, "key_press": -1, "wordID": 754, "type": "PRES_VIS", "trial_index": 69}, "uniqueid": "MTK1601:3TVSS0C0E27Y43JO07GZN1VE20FWT1", "dateTime": 1516040008185}, {"current_trial": 70, "trialdata": {"rt": -1, "trial_type": "single-stim", "word": "lapel", "stimulus": "<p id=\"stim\">LAPEL</p>", "conditions": [18, 1200, "v", 18000], "internal_node_id": "0.0-52.0", "trial": 1, "time_elapsed": 321023, "serialpos": 15, "key_press": -1, "wordID": 799, "type": "PRES_VIS", "trial_index": 70}, "uniqueid": "MTK1601:3TVSS0C0E27Y43JO07GZN1VE20FWT1", "dateTime": 1516040010413}, {"current_trial": 71, "trialdata": {"rt": -1, "trial_type": "single-stim", "word": "racket", "stimulus": "<p id=\"stim\">RACKET</p>", "conditions": [18, 1200, "v", 18000], "internal_node_id": "0.0-53.0", "trial": 1, "time_elapsed": 323416, "serialpos": 16, "key_press": -1, "wordID": 1154, "type": "PRES_VIS", "trial_index": 71}, "uniqueid": "MTK1601:3TVSS0C0E27Y43JO07GZN1VE20FWT1", "dateTime": 1516040012806}, {"current_trial": 72, "trialdata": {"rt": -1, "trial_type": "single-stim", "word": "scalpel", "stimulus": "<p id=\"stim\">SCALPEL</p>", "conditions": [18, 1200, "v", 18000], "internal_node_id": "0.0-54.0", "trial": 1, "time_elapsed": 325701, "serialpos": 17, "key_press": -1, "wordID": 1242, "type": "PRES_VIS", "trial_index": 72}, "uniqueid": "MTK1601:3TVSS0C0E27Y43JO07GZN1VE20FWT1", "dateTime": 1516040015091}, {"current_trial": 73, "trialdata": {"rt": -1, "trial_type": "single-stim", "stimulus": "", "internal_node_id": "0.0-55.0-0.0", "time_elapsed": 327893, "key_press": -1, "type": "PRE_RECALL_DELAY", "trial_index": 73}, "uniqueid": "MTK1601:3TVSS0C0E27Y43JO07GZN1VE20FWT1", "dateTime": 1516040017283}, {"current_trial": 74, "trialdata": {"rt": -1000, "trial_type": "single-audio", "stimulus": "/static/audio/400Hz.wav", "internal_node_id": "0.0-56.0", "time_elapsed": 328394, "key_press": -1, "type": "PRE_RECALL_ALERT", "trial_index": 74}, "uniqueid": "MTK1601:3TVSS0C0E27Y43JO07GZN1VE20FWT1", "dateTime": 1516040017784}, {"current_trial": 75, "trialdata": {"rt": [2358, 3526, 5654, 27816, 37529, 54363], "recwords": ["scalpel", "lapel", "racket", "basement", "cigar", "breast"], "key_times": [629, 869, 997, 1253, 1493, 1621, 1749, 2358, 2677, 2821, 2934, 3126, 3254, 3526, 4726, 4838, 5013, 5238, 5398, 5557, 5654, 26728, 26792, 26920, 27032, 27176, 27368, 27448, 27656, 27816, 36825, 36905, 37161, 37241, 37369, 37529, 53467, 53643, 53755, 53851, 53995, 54203, 54363], "trial_type": "free-recall", "conditions": [18, 1200, "v", 18000], "internal_node_id": "0.0-57.0-0.0", "key_presses": [83, 67, 65, 76, 80, 69, 76, 13, 76, 65, 80, 69, 76, 13, 82, 65, 67, 75, 69, 84, 13, 66, 65, 83, 69, 77, 69, 78, 84, 13, 67, 73, 71, 65, 82, 13, 66, 82, 69, 65, 83, 84, 13], "trial": 1, "time_elapsed": 388396, "type": "FREE_RECALL", "trial_index": 75}, "uniqueid": "MTK1601:3TVSS0C0E27Y43JO07GZN1VE20FWT1", "dateTime": 1516040077787}, {"current_trial": 76, "trialdata": {"rt": 20891, "trial_type": "text", "internal_node_id": "0.0-58.0", "time_elapsed": 411289, "key_press": 32, "type": "INSTRUCTIONS", "trial_index": 76}, "uniqueid": "MTK1601:3TVSS0C0E27Y43JO07GZN1VE20FWT1", "dateTime": 1516040100679}, {"current_trial": 77, "trialdata": {"rt": [4182, 7207, 11671, 14119, 18792], "trial_type": "math-distractor", "key_times": [3894, 4022, 4182, 6918, 7207, 11191, 11415, 11671, 13847, 13959, 14119, 18424, 18584, 18792], "responses": ["12", "9", "17", "12", "20"], "num2": [7, 5, 3, 2, 7, 7], "num3": [1, 2, 7, 1, 9, 8], "conditions": [12, 1600, "v", 24000], "internal_node_id": "0.0-59.0", "key_presses": [97, 98, 13, 105, 13, 97, 103, 13, 97, 98, 13, 98, 96, 13], "trial": 2, "time_elapsed": 436291, "type": "DISTRACTOR", "trial_index": 77, "num1": [4, 2, 8, 9, 4, 2]}, "uniqueid": "MTK1601:3TVSS0C0E27Y43JO07GZN1VE20FWT1", "dateTime": 1516040125681}, {"current_trial": 78, "trialdata": {"rt": -1, "trial_type": "single-stim", "stimulus": "<p id=\"stim\">10</p>", "internal_node_id": "0.0-60.0-0.0", "time_elapsed": 439293, "key_press": -1, "trial_index": 78}, "uniqueid": "MTK1601:3TVSS0C0E27Y43JO07GZN1VE20FWT1", "dateTime": 1516040128683}, {"current_trial": 79, "trialdata": {"rt": -1, "trial_type": "single-stim", "stimulus": "<p id=\"stim\">9</p>", "internal_node_id": "0.0-60.0-1.0", "time_elapsed": 440294, "key_press": -1, "trial_index": 79}, "uniqueid": "MTK1601:3TVSS0C0E27Y43JO07GZN1VE20FWT1", "dateTime": 1516040129684}, {"current_trial": 80, "trialdata": {"rt": -1, "trial_type": "single-stim", "stimulus": "<p id=\"stim\">8</p>", "internal_node_id": "0.0-60.0-2.0", "time_elapsed": 441295, "key_press": -1, "trial_index": 80}, "uniqueid": "MTK1601:3TVSS0C0E27Y43JO07GZN1VE20FWT1", "dateTime": 1516040130685}, {"current_trial": 81, "trialdata": {"rt": -1, "trial_type": "single-stim", "stimulus": "<p id=\"stim\">7</p>", "internal_node_id": "0.0-60.0-3.0", "time_elapsed": 442295, "key_press": -1, "trial_index": 81}, "uniqueid": "MTK1601:3TVSS0C0E27Y43JO07GZN1VE20FWT1", "dateTime": 1516040131685}, {"current_trial": 82, "trialdata": {"rt": -1, "trial_type": "single-stim", "stimulus": "<p id=\"stim\">6</p>", "internal_node_id": "0.0-60.0-4.0", "time_elapsed": 443297, "key_press": -1, "trial_index": 82}, "uniqueid": "MTK1601:3TVSS0C0E27Y43JO07GZN1VE20FWT1", "dateTime": 1516040132687}, {"current_trial": 83, "trialdata": {"rt": -1, "trial_type": "single-stim", "stimulus": "<p id=\"stim\">5</p>", "internal_node_id": "0.0-60.0-5.0", "time_elapsed": 444297, "key_press": -1, "trial_index": 83}, "uniqueid": "MTK1601:3TVSS0C0E27Y43JO07GZN1VE20FWT1", "dateTime": 1516040133687}, {"current_trial": 84, "trialdata": {"rt": -1, "trial_type": "single-stim", "stimulus": "<p id=\"stim\">4</p>", "internal_node_id": "0.0-60.0-6.0", "time_elapsed": 445299, "key_press": -1, "trial_index": 84}, "uniqueid": "MTK1601:3TVSS0C0E27Y43JO07GZN1VE20FWT1", "dateTime": 1516040134689}, {"current_trial": 85, "trialdata": {"rt": -1, "trial_type": "single-stim", "stimulus": "<p id=\"stim\">3</p>", "internal_node_id": "0.0-60.0-7.0", "time_elapsed": 446300, "key_press": -1, "trial_index": 85}, "uniqueid": "MTK1601:3TVSS0C0E27Y43JO07GZN1VE20FWT1", "dateTime": 1516040135690}, {"current_trial": 86, "trialdata": {"rt": -1, "trial_type": "single-stim", "stimulus": "<p id=\"stim\">2</p>", "internal_node_id": "0.0-60.0-8.0", "time_elapsed": 447302, "key_press": -1, "trial_index": 86}, "uniqueid": "MTK1601:3TVSS0C0E27Y43JO07GZN1VE20FWT1", "dateTime": 1516040136692}, {"current_trial": 87, "trialdata": {"rt": -1, "trial_type": "single-stim", "stimulus": "<p id=\"stim\">1</p>", "internal_node_id": "0.0-60.0-9.0", "time_elapsed": 448303, "key_press": -1, "trial_index": 87}, "uniqueid": "MTK1601:3TVSS0C0E27Y43JO07GZN1VE20FWT1", "dateTime": 1516040137693}, {"current_trial": 88, "trialdata": {"rt": -1, "trial_type": "single-stim", "stimulus": "<p id=\"stim\">+</p>", "internal_node_id": "0.0-61.0-0.0", "time_elapsed": 449804, "key_press": -1, "type": "FIXATION", "trial_index": 88}, "uniqueid": "MTK1601:3TVSS0C0E27Y43JO07GZN1VE20FWT1", "dateTime": 1516040139194}, {"current_trial": 89, "trialdata": {"rt": -1, "trial_type": "single-stim", "word": "carriage", "stimulus": "<p id=\"stim\">CARRIAGE</p>", "conditions": [12, 1600, "v", 24000], "internal_node_id": "0.0-62.0", "trial": 2, "time_elapsed": 451405, "serialpos": 0, "key_press": -1, "wordID": 247, "type": "PRES_VIS", "trial_index": 89}, "uniqueid": "MTK1601:3TVSS0C0E27Y43JO07GZN1VE20FWT1", "dateTime": 1516040140795}, {"current_trial": 90, "trialdata": {"rt": -1, "trial_type": "single-stim", "word": "spoon", "stimulus": "<p id=\"stim\">SPOON</p>", "conditions": [12, 1600, "v", 24000], "internal_node_id": "0.0-63.0", "trial": 2, "time_elapsed": 454189, "serialpos": 1, "key_press": -1, "wordID": 1356, "type": "PRES_VIS", "trial_index": 90}, "uniqueid": "MTK1601:3TVSS0C0E27Y43JO07GZN1VE20FWT1", "dateTime": 1516040143579}, {"current_trial": 91, "trialdata": {"rt": -1, "trial_type": "single-stim", "word": "lizard", "stimulus": "<p id=\"stim\">LIZARD</p>", "conditions": [12, 1600, "v", 24000], "internal_node_id": "0.0-64.0", "trial": 2, "time_elapsed": 456878, "serialpos": 2, "key_press": -1, "wordID": 833, "type": "PRES_VIS", "trial_index": 91}, "uniqueid": "MTK1601:3TVSS0C0E27Y43JO07GZN1VE20FWT1", "dateTime": 1516040146268}, {"current_trial": 92, "trialdata": {"rt": -1, "trial_type": "single-stim", "word": "sibling", "stimulus": "<p id=\"stim\">SIBLING</p>", "conditions": [12, 1600, "v", 24000], "internal_node_id": "0.0-65.0", "trial": 2, "time_elapsed": 459361, "serialpos": 3, "key_press": -1, "wordID": 1300, "type": "PRES_VIS", "trial_index": 92}, "uniqueid": "MTK1601:3TVSS0C0E27Y43JO07GZN1VE20FWT1", "dateTime": 1516040148751}, {"current_trial": 93, "trialdata": {"rt": -1, "trial_type": "single-stim", "word": "ozone", "stimulus": "<p id=\"stim\">OZONE</p>", "conditions": [12, 1600, "v", 24000], "internal_node_id": "0.0-66.0", "trial": 2, "time_elapsed": 461858, "serialpos": 4, "key_press": -1, "wordID": 995, "type": "PRES_VIS", "trial_index": 93}, "uniqueid": "MTK1601:3TVSS0C0E27Y43JO07GZN1VE20FWT1", "dateTime": 1516040151248}, {"current_trial": 94, "trialdata": {"rt": -1, "trial_type": "single-stim", "word": "citrus", "stimulus": "<p id=\"stim\">CITRUS</p>", "conditions": [12, 1600, "v", 24000], "internal_node_id": "0.0-67.0", "trial": 2, "time_elapsed": 464430, "serialpos": 5, "key_press": -1, "wordID": 312, "type": "PRES_VIS", "trial_index": 94}, "uniqueid": "MTK1601:3TVSS0C0E27Y43JO07GZN1VE20FWT1", "dateTime": 1516040153820}, {"current_trial": 95, "trialdata": {"rt": -1, "trial_type": "single-stim", "word": "leg", "stimulus": "<p id=\"stim\">LEG</p>", "conditions": [12, 1600, "v", 24000], "internal_node_id": "0.0-68.0", "trial": 2, "time_elapsed": 467101, "serialpos": 6, "key_press": -1, "wordID": 808, "type": "PRES_VIS", "trial_index": 95}, "uniqueid": "MTK1601:3TVSS0C0E27Y43JO07GZN1VE20FWT1", "dateTime": 1516040156491}, {"current_trial": 96, "trialdata": {"rt": -1, "trial_type": "single-stim", "word": "creature", "stimulus": "<p id=\"stim\">CREATURE</p>", "conditions": [12, 1600, "v", 24000], "internal_node_id": "0.0-69.0", "trial": 2, "time_elapsed": 469753, "serialpos": 7, "key_press": -1, "wordID": 402, "type": "PRES_VIS", "trial_index": 96}, "uniqueid": "MTK1601:3TVSS0C0E27Y43JO07GZN1VE20FWT1", "dateTime": 1516040159143}, {"current_trial": 97, "trialdata": {"rt": -1, "trial_type": "single-stim", "word": "juggler", "stimulus": "<p id=\"stim\">JUGGLER</p>", "conditions": [12, 1600, "v", 24000], "internal_node_id": "0.0-70.0", "trial": 2, "time_elapsed": 472551, "serialpos": 8, "key_press": -1, "wordID": 762, "type": "PRES_VIS", "trial_index": 97}, "uniqueid": "MTK1601:3TVSS0C0E27Y43JO07GZN1VE20FWT1", "dateTime": 1516040161941}, {"current_trial": 98, "trialdata": {"rt": -1, "trial_type": "single-stim", "word": "pistol", "stimulus": "<p id=\"stim\">PISTOL</p>", "conditions": [12, 1600, "v", 24000], "internal_node_id": "0.0-71.0", "trial": 2, "time_elapsed": 475145, "serialpos": 9, "key_press": -1, "wordID": 1074, "type": "PRES_VIS", "trial_index": 98}, "uniqueid": "MTK1601:3TVSS0C0E27Y43JO07GZN1VE20FWT1", "dateTime": 1516040164535}, {"current_trial": 99, "trialdata": {"rt": -1, "trial_type": "single-stim", "word": "knife", "stimulus": "<p id=\"stim\">KNIFE</p>", "conditions": [12, 1600, "v", 24000], "internal_node_id": "0.0-72.0", "trial": 2, "time_elapsed": 477929, "serialpos": 10, "key_press": -1, "wordID": 784, "type": "PRES_VIS", "trial_index": 99}, "uniqueid": "MTK1601:3TVSS0C0E27Y43JO07GZN1VE20FWT1", "dateTime": 1516040167319}, {"current_trial": 100, "trialdata": {"rt": -1, "trial_type": "single-stim", "word": "omelet", "stimulus": "<p id=\"stim\">OMELET</p>", "conditions": [12, 1600, "v", 24000], "internal_node_id": "0.0-73.0", "trial": 2, "time_elapsed": 480564, "serialpos": 11, "key_press": -1, "wordID": 975, "type": "PRES_VIS", "trial_index": 100}, "uniqueid": "MTK1601:3TVSS0C0E27Y43JO07GZN1VE20FWT1", "dateTime": 1516040169954}, {"current_trial": 101, "trialdata": {"rt": -1, "trial_type": "single-stim", "stimulus": "", "internal_node_id": "0.0-74.0-0.0", "time_elapsed": 482975, "key_press": -1, "type": "PRE_RECALL_DELAY", "trial_index": 101}, "uniqueid": "MTK1601:3TVSS0C0E27Y43JO07GZN1VE20FWT1", "dateTime": 1516040172366}, {"current_trial": 102, "trialdata": {"rt": -1000, "trial_type": "single-audio", "stimulus": "/static/audio/400Hz.wav", "internal_node_id": "0.0-75.0", "time_elapsed": 483477, "key_press": -1, "type": "PRE_RECALL_ALERT", "trial_index": 102}, "uniqueid": "MTK1601:3TVSS0C0E27Y43JO07GZN1VE20FWT1", "dateTime": 1516040172867}, {"current_trial": 103, "trialdata": {"rt": [1787, 5164, 7100, 9916], "recwords": ["omlet", "knife", "pistol", "juggler"], "key_times": [1003, 1116, 1275, 1419, 1563, 1787, 4414, 4540, 4716, 4940, 5052, 5164, 5548, 5772, 6268, 6588, 6716, 6892, 7100, 7692, 7836, 8124, 8268, 8636, 8956, 9036, 9916], "trial_type": "free-recall", "conditions": [12, 1600, "v", 24000], "internal_node_id": "0.0-76.0-0.0", "key_presses": [79, 77, 76, 69, 84, 13, 75, 78, 73, 70, 69, 13, 80, 73, 83, 84, 79, 76, 13, 74, 85, 71, 71, 76, 69, 82, 13], "trial": 2, "time_elapsed": 543478, "type": "FREE_RECALL", "trial_index": 103}, "uniqueid": "MTK1601:3TVSS0C0E27Y43JO07GZN1VE20FWT1", "dateTime": 1516040232869}, {"current_trial": 104, "trialdata": {"rt": 1311, "trial_type": "text", "internal_node_id": "0.0-77.0", "time_elapsed": 546791, "key_press": 32, "type": "INSTRUCTIONS", "trial_index": 104}, "uniqueid": "MTK1601:3TVSS0C0E27Y43JO07GZN1VE20FWT1", "dateTime": 1516040236181}, {"current_trial": 105, "trialdata": {"rt": [4768, 8800, 10304], "trial_type": "math-distractor", "key_times": [4431, 4543, 4768, 8400, 8608, 8800, 10048, 10304], "responses": ["18", "14", "9"], "num2": [7, 7, 3, 1], "num3": [7, 5, 3, 6], "conditions": [12, 800, "v", 12000], "internal_node_id": "0.0-78.0", "key_presses": [97, 104, 13, 97, 100, 13, 105, 13], "trial": 3, "time_elapsed": 560793, "type": "DISTRACTOR", "trial_index": 105, "num1": [4, 2, 3, 8]}, "uniqueid": "MTK1601:3TVSS0C0E27Y43JO07GZN1VE20FWT1", "dateTime": 1516040250183}, {"current_trial": 106, "trialdata": {"rt": -1, "trial_type": "single-stim", "stimulus": "<p id=\"stim\">10</p>", "internal_node_id": "0.0-79.0-0.0", "time_elapsed": 563795, "key_press": -1, "trial_index": 106}, "uniqueid": "MTK1601:3TVSS0C0E27Y43JO07GZN1VE20FWT1", "dateTime": 1516040253185}, {"current_trial": 107, "trialdata": {"rt": -1, "trial_type": "single-stim", "stimulus": "<p id=\"stim\">9</p>", "internal_node_id": "0.0-79.0-1.0", "time_elapsed": 564796, "key_press": -1, "trial_index": 107}, "uniqueid": "MTK1601:3TVSS0C0E27Y43JO07GZN1VE20FWT1", "dateTime": 1516040254186}, {"current_trial": 108, "trialdata": {"rt": 605, "trial_type": "single-stim", "stimulus": "<p id=\"stim\">8</p>", "internal_node_id": "0.0-79.0-2.0", "time_elapsed": 565798, "key_press": 174, "trial_index": 108}, "uniqueid": "MTK1601:3TVSS0C0E27Y43JO07GZN1VE20FWT1", "dateTime": 1516040255188}, {"current_trial": 109, "trialdata": {"rt": 131, "trial_type": "single-stim", "stimulus": "<p id=\"stim\">7</p>", "internal_node_id": "0.0-79.0-3.0", "time_elapsed": 566799, "key_press": 174, "trial_index": 109}, "uniqueid": "MTK1601:3TVSS0C0E27Y43JO07GZN1VE20FWT1", "dateTime": 1516040256189}, {"current_trial": 110, "trialdata": {"rt": 58, "trial_type": "single-stim", "stimulus": "<p id=\"stim\">6</p>", "internal_node_id": "0.0-79.0-4.0", "time_elapsed": 567800, "key_press": 174, "trial_index": 110}, "uniqueid": "MTK1601:3TVSS0C0E27Y43JO07GZN1VE20FWT1", "dateTime": 1516040257190}, {"current_trial": 111, "trialdata": {"rt": -1, "trial_type": "single-stim", "stimulus": "<p id=\"stim\">5</p>", "internal_node_id": "0.0-79.0-5.0", "time_elapsed": 568801, "key_press": -1, "trial_index": 111}, "uniqueid": "MTK1601:3TVSS0C0E27Y43JO07GZN1VE20FWT1", "dateTime": 1516040258191}, {"current_trial": 112, "trialdata": {"rt": -1, "trial_type": "single-stim", "stimulus": "<p id=\"stim\">4</p>", "internal_node_id": "0.0-79.0-6.0", "time_elapsed": 569802, "key_press": -1, "trial_index": 112}, "uniqueid": "MTK1601:3TVSS0C0E27Y43JO07GZN1VE20FWT1", "dateTime": 1516040259192}, {"current_trial": 113, "trialdata": {"rt": -1, "trial_type": "single-stim", "stimulus": "<p id=\"stim\">3</p>", "internal_node_id": "0.0-79.0-7.0", "time_elapsed": 570803, "key_press": -1, "trial_index": 113}, "uniqueid": "MTK1601:3TVSS0C0E27Y43JO07GZN1VE20FWT1", "dateTime": 1516040260193}, {"current_trial": 114, "trialdata": {"rt": -1, "trial_type": "single-stim", "stimulus": "<p id=\"stim\">2</p>", "internal_node_id": "0.0-79.0-8.0", "time_elapsed": 571804, "key_press": -1, "trial_index": 114}, "uniqueid": "MTK1601:3TVSS0C0E27Y43JO07GZN1VE20FWT1", "dateTime": 1516040261194}, {"current_trial": 115, "trialdata": {"rt": -1, "trial_type": "single-stim", "stimulus": "<p id=\"stim\">1</p>", "internal_node_id": "0.0-79.0-9.0", "time_elapsed": 572805, "key_press": -1, "trial_index": 115}, "uniqueid": "MTK1601:3TVSS0C0E27Y43JO07GZN1VE20FWT1", "dateTime": 1516040262195}, {"current_trial": 116, "trialdata": {"rt": -1, "trial_type": "single-stim", "stimulus": "<p id=\"stim\">+</p>", "internal_node_id": "0.0-80.0-0.0", "time_elapsed": 574307, "key_press": -1, "type": "FIXATION", "trial_index": 116}, "uniqueid": "MTK1601:3TVSS0C0E27Y43JO07GZN1VE20FWT1", "dateTime": 1516040263697}, {"current_trial": 117, "trialdata": {"rt": -1, "trial_type": "single-stim", "word": "cattle", "stimulus": "<p id=\"stim\">CATTLE</p>", "conditions": [12, 800, "v", 12000], "internal_node_id": "0.0-81.0", "trial": 3, "time_elapsed": 575108, "serialpos": 0, "key_press": -1, "wordID": 260, "type": "PRES_VIS", "trial_index": 117}, "uniqueid": "MTK1601:3TVSS0C0E27Y43JO07GZN1VE20FWT1", "dateTime": 1516040264498}, {"current_trial": 118, "trialdata": {"rt": -1, "trial_type": "single-stim", "word": "boyfriend", "stimulus": "<p id=\"stim\">BOYFRIEND</p>", "conditions": [12, 800, "v", 12000], "internal_node_id": "0.0-82.0", "trial": 3, "time_elapsed": 576874, "serialpos": 1, "key_press": -1, "wordID": 161, "type": "PRES_VIS", "trial_index": 118}, "uniqueid": "MTK1601:3TVSS0C0E27Y43JO07GZN1VE20FWT1", "dateTime": 1516040266264}, {"current_trial": 119, "trialdata": {"rt": -1, "trial_type": "single-stim", "word": "lover", "stimulus": "<p id=\"stim\">LOVER</p>", "conditions": [12, 800, "v", 12000], "internal_node_id": "0.0-83.0", "trial": 3, "time_elapsed": 578846, "serialpos": 2, "key_press": -1, "wordID": 845, "type": "PRES_VIS", "trial_index": 119}, "uniqueid": "MTK1601:3TVSS0C0E27Y43JO07GZN1VE20FWT1", "dateTime": 1516040268236}, {"current_trial": 120, "trialdata": {"rt": -1, "trial_type": "single-stim", "word": "bison", "stimulus": "<p id=\"stim\">BISON</p>", "conditions": [12, 800, "v", 12000], "internal_node_id": "0.0-84.0", "trial": 3, "time_elapsed": 580683, "serialpos": 3, "key_press": -1, "wordID": 130, "type": "PRES_VIS", "trial_index": 120}, "uniqueid": "MTK1601:3TVSS0C0E27Y43JO07GZN1VE20FWT1", "dateTime": 1516040270073}, {"current_trial": 121, "trialdata": {"rt": -1, "trial_type": "single-stim", "word": "tweezers", "stimulus": "<p id=\"stim\">TWEEZERS</p>", "conditions": [12, 800, "v", 12000], "internal_node_id": "0.0-85.0", "trial": 3, "time_elapsed": 582450, "serialpos": 4, "key_press": -1, "wordID": 1525, "type": "PRES_VIS", "trial_index": 121}, "uniqueid": "MTK1601:3TVSS0C0E27Y43JO07GZN1VE20FWT1", "dateTime": 1516040271840}, {"current_trial": 122, "trialdata": {"rt": -1, "trial_type": "single-stim", "word": "bank", "stimulus": "<p id=\"stim\">BANK</p>", "conditions": [12, 800, "v", 12000], "internal_node_id": "0.0-86.0", "trial": 3, "time_elapsed": 584118, "serialpos": 5, "key_press": -1, "wordID": 82, "type": "PRES_VIS", "trial_index": 122}, "uniqueid": "MTK1601:3TVSS0C0E27Y43JO07GZN1VE20FWT1", "dateTime": 1516040273508}, {"current_trial": 123, "trialdata": {"rt": -1, "trial_type": "single-stim", "word": "author", "stimulus": "<p id=\"stim\">AUTHOR</p>", "conditions": [12, 800, "v", 12000], "internal_node_id": "0.0-87.0", "trial": 3, "time_elapsed": 585837, "serialpos": 6, "key_press": -1, "wordID": 60, "type": "PRES_VIS", "trial_index": 123}, "uniqueid": "MTK1601:3TVSS0C0E27Y43JO07GZN1VE20FWT1", "dateTime": 1516040275227}, {"current_trial": 124, "trialdata": {"rt": -1, "trial_type": "single-stim", "word": "piston", "stimulus": "<p id=\"stim\">PISTON</p>", "conditions": [12, 800, "v", 12000], "internal_node_id": "0.0-88.0", "trial": 3, "time_elapsed": 587446, "serialpos": 7, "key_press": -1, "wordID": 1075, "type": "PRES_VIS", "trial_index": 124}, "uniqueid": "MTK1601:3TVSS0C0E27Y43JO07GZN1VE20FWT1", "dateTime": 1516040276836}, {"current_trial": 125, "trialdata": {"rt": -1, "trial_type": "single-stim", "word": "whiskers", "stimulus": "<p id=\"stim\">WHISKERS</p>", "conditions": [12, 800, "v", 12000], "internal_node_id": "0.0-89.0", "trial": 3, "time_elapsed": 589154, "serialpos": 8, "key_press": -1, "wordID": 1604, "type": "PRES_VIS", "trial_index": 125}, "uniqueid": "MTK1601:3TVSS0C0E27Y43JO07GZN1VE20FWT1", "dateTime": 1516040278544}, {"current_trial": 126, "trialdata": {"rt": -1, "trial_type": "single-stim", "word": "orchid", "stimulus": "<p id=\"stim\">ORCHID</p>", "conditions": [12, 800, "v", 12000], "internal_node_id": "0.0-90.0", "trial": 3, "time_elapsed": 590989, "serialpos": 9, "key_press": -1, "wordID": 981, "type": "PRES_VIS", "trial_index": 126}, "uniqueid": "MTK1601:3TVSS0C0E27Y43JO07GZN1VE20FWT1", "dateTime": 1516040280379}, {"current_trial": 127, "trialdata": {"rt": -1, "trial_type": "single-stim", "word": "atlas", "stimulus": "<p id=\"stim\">ATLAS</p>", "conditions": [12, 800, "v", 12000], "internal_node_id": "0.0-91.0", "trial": 3, "time_elapsed": 592868, "serialpos": 10, "key_press": -1, "wordID": 52, "type": "PRES_VIS", "trial_index": 127}, "uniqueid": "MTK1601:3TVSS0C0E27Y43JO07GZN1VE20FWT1", "dateTime": 1516040282258}, {"current_trial": 128, "trialdata": {"rt": -1, "trial_type": "single-stim", "word": "baby", "stimulus": "<p id=\"stim\">BABY</p>", "conditions": [12, 800, "v", 12000], "internal_node_id": "0.0-92.0", "trial": 3, "time_elapsed": 594489, "serialpos": 11, "key_press": -1, "wordID": 63, "type": "PRES_VIS", "trial_index": 128}, "uniqueid": "MTK1601:3TVSS0C0E27Y43JO07GZN1VE20FWT1", "dateTime": 1516040283879}, {"current_trial": 129, "trialdata": {"rt": -1, "trial_type": "single-stim", "stimulus": "", "internal_node_id": "0.0-93.0-0.0", "time_elapsed": 596781, "key_press": -1, "type": "PRE_RECALL_DELAY", "trial_index": 129}, "uniqueid": "MTK1601:3TVSS0C0E27Y43JO07GZN1VE20FWT1", "dateTime": 1516040286171}, {"current_trial": 130, "trialdata": {"rt": -1000, "trial_type": "single-audio", "stimulus": "/static/audio/400Hz.wav", "internal_node_id": "0.0-94.0", "time_elapsed": 597283, "key_press": -1, "type": "PRE_RECALL_ALERT", "trial_index": 130}, "uniqueid": "MTK1601:3TVSS0C0E27Y43JO07GZN1VE20FWT1", "dateTime": 1516040286673}, {"current_trial": 131, "trialdata": {"rt": [1769, 3529, 9114, 13754, 18155], "recwords": ["baby", "orchid", "boyfriend", "castle", "baby"], "key_times": [889, 1033, 1161, 1337, 1769, 2185, 2329, 2969, 3081, 3193, 3385, 3529, 3945, 4073, 4329, 5370, 5513, 5673, 5785, 6170, 6314, 6458, 6618, 6761, 6922, 7898, 8026, 8282, 8394, 8506, 8618, 8730, 8842, 9114, 12922, 13082, 13178, 13418, 13483, 13642, 13754, 17547, 17675, 17755, 17883, 18155], "trial_type": "free-recall", "conditions": [12, 800, "v", 12000], "internal_node_id": "0.0-95.0-0.0", "key_presses": [66, 65, 66, 89, 13, 79, 82, 67, 72, 73, 68, 13, 66, 79, 82, 70, 82, 73, 69, 8, 8, 8, 8, 8, 8, 79, 89, 70, 82, 73, 69, 78, 68, 13, 67, 65, 83, 84, 76, 69, 13, 66, 65, 66, 89, 13], "trial": 3, "time_elapsed": 657285, "type": "FREE_RECALL", "trial_index": 131}, "uniqueid": "MTK1601:3TVSS0C0E27Y43JO07GZN1VE20FWT1", "dateTime": 1516040346676}, {"current_trial": 132, "trialdata": {"rt": 1355, "trial_type": "text", "internal_node_id": "0.0-96.0", "time_elapsed": 660643, "key_press": 32, "type": "INSTRUCTIONS", "trial_index": 132}, "uniqueid": "MTK1601:3TVSS0C0E27Y43JO07GZN1VE20FWT1", "dateTime": 1516040350033}, {"current_trial": 133, "trialdata": {"rt": [4655, 8640, 11696], "trial_type": "math-distractor", "key_times": [4351, 4463, 4655, 8288, 8384, 8640, 11280, 11424, 11696], "responses": ["13", "16", "18"], "num2": [3, 4, 4, 5], "num3": [7, 3, 6, 8], "conditions": [24, 800, "v", 12000], "internal_node_id": "0.0-97.0", "key_presses": [97, 99, 13, 97, 102, 13, 97, 104, 13], "trial": 4, "time_elapsed": 674646, "type": "DISTRACTOR", "trial_index": 133, "num1": [3, 9, 8, 7]}, "uniqueid": "MTK1601:3TVSS0C0E27Y43JO07GZN1VE20FWT1", "dateTime": 1516040364036}, {"current_trial": 134, "trialdata": {"rt": -1, "trial_type": "single-stim", "stimulus": "<p id=\"stim\">10</p>", "internal_node_id": "0.0-98.0-0.0", "time_elapsed": 677648, "key_press": -1, "trial_index": 134}, "uniqueid": "MTK1601:3TVSS0C0E27Y43JO07GZN1VE20FWT1", "dateTime": 1516040367038}, {"current_trial": 135, "trialdata": {"rt": -1, "trial_type": "single-stim", "stimulus": "<p id=\"stim\">9</p>", "internal_node_id": "0.0-98.0-1.0", "time_elapsed": 678648, "key_press": -1, "trial_index": 135}, "uniqueid": "MTK1601:3TVSS0C0E27Y43JO07GZN1VE20FWT1", "dateTime": 1516040368038}, {"current_trial": 136, "trialdata": {"rt": -1, "trial_type": "single-stim", "stimulus": "<p id=\"stim\">8</p>", "internal_node_id": "0.0-98.0-2.0", "time_elapsed": 679649, "key_press": -1, "trial_index": 136}, "uniqueid": "MTK1601:3TVSS0C0E27Y43JO07GZN1VE20FWT1", "dateTime": 1516040369040}, {"current_trial": 137, "trialdata": {"rt": -1, "trial_type": "single-stim", "stimulus": "<p id=\"stim\">7</p>", "internal_node_id": "0.0-98.0-3.0", "time_elapsed": 680651, "key_press": -1, "trial_index": 137}, "uniqueid": "MTK1601:3TVSS0C0E27Y43JO07GZN1VE20FWT1", "dateTime": 1516040370041}, {"current_trial": 138, "trialdata": {"rt": -1, "trial_type": "single-stim", "stimulus": "<p id=\"stim\">6</p>", "internal_node_id": "0.0-98.0-4.0", "time_elapsed": 681651, "key_press": -1, "trial_index": 138}, "uniqueid": "MTK1601:3TVSS0C0E27Y43JO07GZN1VE20FWT1", "dateTime": 1516040371041}, {"current_trial": 139, "trialdata": {"rt": -1, "trial_type": "single-stim", "stimulus": "<p id=\"stim\">5</p>", "internal_node_id": "0.0-98.0-5.0", "time_elapsed": 682653, "key_press": -1, "trial_index": 139}, "uniqueid": "MTK1601:3TVSS0C0E27Y43JO07GZN1VE20FWT1", "dateTime": 1516040372043}, {"current_trial": 140, "trialdata": {"rt": -1, "trial_type": "single-stim", "stimulus": "<p id=\"stim\">4</p>", "internal_node_id": "0.0-98.0-6.0", "time_elapsed": 683654, "key_press": -1, "trial_index": 140}, "uniqueid": "MTK1601:3TVSS0C0E27Y43JO07GZN1VE20FWT1", "dateTime": 1516040373044}, {"current_trial": 141, "trialdata": {"rt": -1, "trial_type": "single-stim", "stimulus": "<p id=\"stim\">3</p>", "internal_node_id": "0.0-98.0-7.0", "time_elapsed": 684655, "key_press": -1, "trial_index": 141}, "uniqueid": "MTK1601:3TVSS0C0E27Y43JO07GZN1VE20FWT1", "dateTime": 1516040374045}, {"current_trial": 142, "trialdata": {"rt": -1, "trial_type": "single-stim", "stimulus": "<p id=\"stim\">2</p>", "internal_node_id": "0.0-98.0-8.0", "time_elapsed": 685656, "key_press": -1, "trial_index": 142}, "uniqueid": "MTK1601:3TVSS0C0E27Y43JO07GZN1VE20FWT1", "dateTime": 1516040375046}, {"current_trial": 143, "trialdata": {"rt": -1, "trial_type": "single-stim", "stimulus": "<p id=\"stim\">1</p>", "internal_node_id": "0.0-98.0-9.0", "time_elapsed": 686657, "key_press": -1, "trial_index": 143}, "uniqueid": "MTK1601:3TVSS0C0E27Y43JO07GZN1VE20FWT1", "dateTime": 1516040376047}, {"current_trial": 144, "trialdata": {"rt": -1, "trial_type": "single-stim", "stimulus": "<p id=\"stim\">+</p>", "internal_node_id": "0.0-99.0-0.0", "time_elapsed": 688158, "key_press": -1, "type": "FIXATION", "trial_index": 144}, "uniqueid": "MTK1601:3TVSS0C0E27Y43JO07GZN1VE20FWT1", "dateTime": 1516040377548}, {"current_trial": 145, "trialdata": {"rt": -1, "trial_type": "single-stim", "word": "antler", "stimulus": "<p id=\"stim\">ANTLER</p>", "conditions": [24, 800, "v", 12000], "internal_node_id": "0.0-100.0", "trial": 4, "time_elapsed": 688959, "serialpos": 0, "key_press": -1, "wordID": 28, "type": "PRES_VIS", "trial_index": 145}, "uniqueid": "MTK1601:3TVSS0C0E27Y43JO07GZN1VE20FWT1", "dateTime": 1516040378349}, {"current_trial": 146, "trialdata": {"rt": -1, "trial_type": "single-stim", "word": "cottage", "stimulus": "<p id=\"stim\">COTTAGE</p>", "conditions": [24, 800, "v", 12000], "internal_node_id": "0.0-101.0", "trial": 4, "time_elapsed": 690932, "serialpos": 1, "key_press": -1, "wordID": 383, "type": "PRES_VIS", "trial_index": 146}, "uniqueid": "MTK1601:3TVSS0C0E27Y43JO07GZN1VE20FWT1", "dateTime": 1516040380323}, {"current_trial": 147, "trialdata": {"rt": -1, "trial_type": "single-stim", "word": "world", "stimulus": "<p id=\"stim\">WORLD</p>", "conditions": [24, 800, "v", 12000], "internal_node_id": "0.0-102.0", "trial": 4, "time_elapsed": 692764, "serialpos": 2, "key_press": -1, "wordID": 1621, "type": "PRES_VIS", "trial_index": 147}, "uniqueid": "MTK1601:3TVSS0C0E27Y43JO07GZN1VE20FWT1", "dateTime": 1516040382154}, {"current_trial": 148, "trialdata": {"rt": -1, "trial_type": "single-stim", "word": "lunch", "stimulus": "<p id=\"stim\">LUNCH</p>", "conditions": [24, 800, "v", 12000], "internal_node_id": "0.0-103.0", "trial": 4, "time_elapsed": 694644, "serialpos": 3, "key_press": -1, "wordID": 848, "type": "PRES_VIS", "trial_index": 148}, "uniqueid": "MTK1601:3TVSS0C0E27Y43JO07GZN1VE20FWT1", "dateTime": 1516040384034}, {"current_trial": 149, "trialdata": {"rt": -1, "trial_type": "single-stim", "word": "supper", "stimulus": "<p id=\"stim\">SUPPER</p>", "conditions": [24, 800, "v", 12000], "internal_node_id": "0.0-104.0", "trial": 4, "time_elapsed": 696385, "serialpos": 4, "key_press": -1, "wordID": 1410, "type": "PRES_VIS", "trial_index": 149}, "uniqueid": "MTK1601:3TVSS0C0E27Y43JO07GZN1VE20FWT1", "dateTime": 1516040385775}, {"current_trial": 150, "trialdata": {"rt": -1, "trial_type": "single-stim", "word": "highway", "stimulus": "<p id=\"stim\">HIGHWAY</p>", "conditions": [24, 800, "v", 12000], "internal_node_id": "0.0-105.0", "trial": 4, "time_elapsed": 698301, "serialpos": 5, "key_press": -1, "wordID": 706, "type": "PRES_VIS", "trial_index": 150}, "uniqueid": "MTK1601:3TVSS0C0E27Y43JO07GZN1VE20FWT1", "dateTime": 1516040387691}, {"current_trial": 151, "trialdata": {"rt": -1, "trial_type": "single-stim", "word": "fragrance", "stimulus": "<p id=\"stim\">FRAGRANCE</p>", "conditions": [24, 800, "v", 12000], "internal_node_id": "0.0-106.0", "trial": 4, "time_elapsed": 700225, "serialpos": 6, "key_press": -1, "wordID": 598, "type": "PRES_VIS", "trial_index": 151}, "uniqueid": "MTK1601:3TVSS0C0E27Y43JO07GZN1VE20FWT1", "dateTime": 1516040389615}, {"current_trial": 152, "trialdata": {"rt": -1, "trial_type": "single-stim", "word": "cookbook", "stimulus": "<p id=\"stim\">COOKBOOK</p>", "conditions": [24, 800, "v", 12000], "internal_node_id": "0.0-107.0", "trial": 4, "time_elapsed": 701904, "serialpos": 7, "key_press": -1, "wordID": 372, "type": "PRES_VIS", "trial_index": 152}, "uniqueid": "MTK1601:3TVSS0C0E27Y43JO07GZN1VE20FWT1", "dateTime": 1516040391294}, {"current_trial": 153, "trialdata": {"rt": -1, "trial_type": "single-stim", "word": "cellar", "stimulus": "<p id=\"stim\">CELLAR</p>", "conditions": [24, 800, "v", 12000], "internal_node_id": "0.0-108.0", "trial": 4, "time_elapsed": 703737, "serialpos": 8, "key_press": -1, "wordID": 266, "type": "PRES_VIS", "trial_index": 153}, "uniqueid": "MTK1601:3TVSS0C0E27Y43JO07GZN1VE20FWT1", "dateTime": 1516040393127}, {"current_trial": 154, "trialdata": {"rt": -1, "trial_type": "single-stim", "word": "eagle", "stimulus": "<p id=\"stim\">EAGLE</p>", "conditions": [24, 800, "v", 12000], "internal_node_id": "0.0-109.0", "trial": 4, "time_elapsed": 705585, "serialpos": 9, "key_press": -1, "wordID": 511, "type": "PRES_VIS", "trial_index": 154}, "uniqueid": "MTK1601:3TVSS0C0E27Y43JO07GZN1VE20FWT1", "dateTime": 1516040394975}, {"current_trial": 155, "trialdata": {"rt": -1, "trial_type": "single-stim", "word": "barley", "stimulus": "<p id=\"stim\">BARLEY</p>", "conditions": [24, 800, "v", 12000], "internal_node_id": "0.0-110.0", "trial": 4, "time_elapsed": 707251, "serialpos": 10, "key_press": -1, "wordID": 87, "type": "PRES_VIS", "trial_index": 155}, "uniqueid": "MTK1601:3TVSS0C0E27Y43JO07GZN1VE20FWT1", "dateTime": 1516040396641}, {"current_trial": 156, "trialdata": {"rt": -1, "trial_type": "single-stim", "word": "globe", "stimulus": "<p id=\"stim\">GLOBE</p>", "conditions": [24, 800, "v", 12000], "internal_node_id": "0.0-111.0", "trial": 4, "time_elapsed": 709002, "serialpos": 11, "key_press": -1, "wordID": 640, "type": "PRES_VIS", "trial_index": 156}, "uniqueid": "MTK1601:3TVSS0C0E27Y43JO07GZN1VE20FWT1", "dateTime": 1516040398392}, {"current_trial": 157, "trialdata": {"rt": -1, "trial_type": "single-stim", "word": "dentist", "stimulus": "<p id=\"stim\">DENTIST</p>", "conditions": [24, 800, "v", 12000], "internal_node_id": "0.0-112.0", "trial": 4, "time_elapsed": 710665, "serialpos": 12, "key_press": -1, "wordID": 446, "type": "PRES_VIS", "trial_index": 157}, "uniqueid": "MTK1601:3TVSS0C0E27Y43JO07GZN1VE20FWT1", "dateTime": 1516040400055}, {"current_trial": 158, "trialdata": {"rt": -1, "trial_type": "single-stim", "word": "braces", "stimulus": "<p id=\"stim\">BRACES</p>", "conditions": [24, 800, "v", 12000], "internal_node_id": "0.0-113.0", "trial": 4, "time_elapsed": 712421, "serialpos": 13, "key_press": -1, "wordID": 163, "type": "PRES_VIS", "trial_index": 158}, "uniqueid": "MTK1601:3TVSS0C0E27Y43JO07GZN1VE20FWT1", "dateTime": 1516040401811}, {"current_trial": 159, "trialdata": {"rt": -1, "trial_type": "single-stim", "word": "europe", "stimulus": "<p id=\"stim\">EUROPE</p>", "conditions": [24, 800, "v", 12000], "internal_node_id": "0.0-114.0", "trial": 4, "time_elapsed": 714187, "serialpos": 14, "key_press": -1, "wordID": 540, "type": "PRES_VIS", "trial_index": 159}, "uniqueid": "MTK1601:3TVSS0C0E27Y43JO07GZN1VE20FWT1", "dateTime": 1516040403577}, {"current_trial": 160, "trialdata": {"rt": -1, "trial_type": "single-stim", "word": "cod", "stimulus": "<p id=\"stim\">COD</p>", "conditions": [24, 800, "v", 12000], "internal_node_id": "0.0-115.0", "trial": 4, "time_elapsed": 716071, "serialpos": 15, "key_press": -1, "wordID": 339, "type": "PRES_VIS", "trial_index": 160}, "uniqueid": "MTK1601:3TVSS0C0E27Y43JO07GZN1VE20FWT1", "dateTime": 1516040405461}, {"current_trial": 161, "trialdata": {"rt": -1, "trial_type": "single-stim", "word": "transplant", "stimulus": "<p id=\"stim\">TRANSPLANT</p>", "conditions": [24, 800, "v", 12000], "internal_node_id": "0.0-116.0", "trial": 4, "time_elapsed": 717858, "serialpos": 16, "key_press": -1, "wordID": 1495, "type": "PRES_VIS", "trial_index": 161}, "uniqueid": "MTK1601:3TVSS0C0E27Y43JO07GZN1VE20FWT1", "dateTime": 1516040407248}, {"current_trial": 162, "trialdata": {"rt": -1, "trial_type": "single-stim", "word": "tablet", "stimulus": "<p id=\"stim\">TABLET</p>", "conditions": [24, 800, "v", 12000], "internal_node_id": "0.0-117.0", "trial": 4, "time_elapsed": 719814, "serialpos": 17, "key_press": -1, "wordID": 1426, "type": "PRES_VIS", "trial_index": 162}, "uniqueid": "MTK1601:3TVSS0C0E27Y43JO07GZN1VE20FWT1", "dateTime": 1516040409205}, {"current_trial": 163, "trialdata": {"rt": -1, "trial_type": "single-stim", "word": "carrot", "stimulus": "<p id=\"stim\">CARROT</p>", "conditions": [24, 800, "v", 12000], "internal_node_id": "0.0-118.0", "trial": 4, "time_elapsed": 721752, "serialpos": 18, "key_press": -1, "wordID": 248, "type": "PRES_VIS", "trial_index": 163}, "uniqueid": "MTK1601:3TVSS0C0E27Y43JO07GZN1VE20FWT1", "dateTime": 1516040411142}, {"current_trial": 164, "trialdata": {"rt": -1, "trial_type": "single-stim", "word": "lagoon", "stimulus": "<p id=\"stim\">LAGOON</p>", "conditions": [24, 800, "v", 12000], "internal_node_id": "0.0-119.0", "trial": 4, "time_elapsed": 723568, "serialpos": 19, "key_press": -1, "wordID": 794, "type": "PRES_VIS", "trial_index": 164}, "uniqueid": "MTK1601:3TVSS0C0E27Y43JO07GZN1VE20FWT1", "dateTime": 1516040412958}, {"current_trial": 165, "trialdata": {"rt": -1, "trial_type": "single-stim", "word": "saddle", "stimulus": "<p id=\"stim\">SADDLE</p>", "conditions": [24, 800, "v", 12000], "internal_node_id": "0.0-120.0", "trial": 4, "time_elapsed": 725494, "serialpos": 20, "key_press": -1, "wordID": 1220, "type": "PRES_VIS", "trial_index": 165}, "uniqueid": "MTK1601:3TVSS0C0E27Y43JO07GZN1VE20FWT1", "dateTime": 1516040414884}, {"current_trial": 166, "trialdata": {"rt": -1, "trial_type": "single-stim", "word": "cobra", "stimulus": "<p id=\"stim\">COBRA</p>", "conditions": [24, 800, "v", 12000], "internal_node_id": "0.0-121.0", "trial": 4, "time_elapsed": 727463, "serialpos": 21, "key_press": -1, "wordID": 335, "type": "PRES_VIS", "trial_index": 166}, "uniqueid": "MTK1601:3TVSS0C0E27Y43JO07GZN1VE20FWT1", "dateTime": 1516040416853}, {"current_trial": 167, "trialdata": {"rt": -1, "trial_type": "single-stim", "word": "snake", "stimulus": "<p id=\"stim\">SNAKE</p>", "conditions": [24, 800, "v", 12000], "internal_node_id": "0.0-122.0", "trial": 4, "time_elapsed": 729106, "serialpos": 22, "key_press": -1, "wordID": 1332, "type": "PRES_VIS", "trial_index": 167}, "uniqueid": "MTK1601:3TVSS0C0E27Y43JO07GZN1VE20FWT1", "dateTime": 1516040418496}, {"current_trial": 168, "trialdata": {"rt": -1, "trial_type": "single-stim", "word": "kidney", "stimulus": "<p id=\"stim\">KIDNEY</p>", "conditions": [24, 800, "v", 12000], "internal_node_id": "0.0-123.0", "trial": 4, "time_elapsed": 730778, "serialpos": 23, "key_press": -1, "wordID": 775, "type": "PRES_VIS", "trial_index": 168}, "uniqueid": "MTK1601:3TVSS0C0E27Y43JO07GZN1VE20FWT1", "dateTime": 1516040420168}, {"current_trial": 169, "trialdata": {"rt": -1, "trial_type": "single-stim", "stimulus": "", "internal_node_id": "0.0-124.0-0.0", "time_elapsed": 733192, "key_press": -1, "type": "PRE_RECALL_DELAY", "trial_index": 169}, "uniqueid": "MTK1601:3TVSS0C0E27Y43JO07GZN1VE20FWT1", "dateTime": 1516040422582}, {"current_trial": 170, "trialdata": {"rt": -1000, "trial_type": "single-audio", "stimulus": "/static/audio/400Hz.wav", "internal_node_id": "0.0-125.0", "time_elapsed": 733694, "key_press": -1, "type": "PRE_RECALL_ALERT", "trial_index": 170}, "uniqueid": "MTK1601:3TVSS0C0E27Y43JO07GZN1VE20FWT1", "dateTime": 1516040423084}, {"current_trial": 171, "trialdata": {"rt": [1339, 2443, 3771, 6188, 7788], "recwords": ["kidney", "snake", "cobra", "doctor", "braces"], "key_times": [427, 619, 779, 875, 1003, 1195, 1339, 1771, 1931, 2043, 2139, 2267, 2443, 2731, 2859, 3307, 3435, 3548, 3771, 4107, 4587, 5004, 5084, 5244, 5563, 5676, 5788, 6188, 6908, 7036, 7116, 7292, 7420, 7564, 7788], "trial_type": "free-recall", "conditions": [24, 800, "v", 12000], "internal_node_id": "0.0-126.0-0.0", "key_presses": [75, 73, 68, 78, 69, 89, 13, 83, 78, 65, 75, 69, 13, 67, 79, 66, 82, 65, 13, 67, 8, 68, 79, 67, 84, 79, 82, 13, 66, 82, 65, 67, 69, 83, 13], "trial": 4, "time_elapsed": 793696, "type": "FREE_RECALL", "trial_index": 171}, "uniqueid": "MTK1601:3TVSS0C0E27Y43JO07GZN1VE20FWT1", "dateTime": 1516040483087}, {"current_trial": 172, "trialdata": {"rt": 4048, "trial_type": "text", "internal_node_id": "0.0-127.0", "time_elapsed": 799745, "key_press": 32, "type": "INSTRUCTIONS", "trial_index": 172}, "uniqueid": "MTK1601:3TVSS0C0E27Y43JO07GZN1VE20FWT1", "dateTime": 1516040489135}, {"current_trial": 173, "trialdata": {"rt": [2174, 6687, 9951, 13632, 15680, 19872, 22816], "trial_type": "math-distractor", "key_times": [1918, 2174, 5278, 5391, 6335, 6463, 6687, 9504, 9727, 9951, 13247, 13391, 13632, 15136, 15424, 15680, 19520, 19712, 19872, 22448, 22576, 22816], "responses": ["9", "13", "14", "15", "18", "11", "13"], "num2": [1, 7, 9, 9, 9, 5, 4, 6], "num3": [7, 3, 2, 4, 8, 4, 6, 3], "conditions": [12, 800, "v", 24000], "internal_node_id": "0.0-128.0", "key_presses": [105, 13, 97, 102, 8, 99, 13, 97, 100, 13, 97, 101, 13, 97, 104, 13, 97, 97, 13, 97, 99, 13], "trial": 5, "time_elapsed": 825748, "type": "DISTRACTOR", "trial_index": 173, "num1": [1, 3, 3, 2, 1, 2, 3, 8]}, "uniqueid": "MTK1601:3TVSS0C0E27Y43JO07GZN1VE20FWT1", "dateTime": 1516040515138}, {"current_trial": 174, "trialdata": {"rt": -1, "trial_type": "single-stim", "stimulus": "<p id=\"stim\">10</p>", "internal_node_id": "0.0-129.0-0.0", "time_elapsed": 828749, "key_press": -1, "trial_index": 174}, "uniqueid": "MTK1601:3TVSS0C0E27Y43JO07GZN1VE20FWT1", "dateTime": 1516040518139}, {"current_trial": 175, "trialdata": {"rt": -1, "trial_type": "single-stim", "stimulus": "<p id=\"stim\">9</p>", "internal_node_id": "0.0-129.0-1.0", "time_elapsed": 829750, "key_press": -1, "trial_index": 175}, "uniqueid": "MTK1601:3TVSS0C0E27Y43JO07GZN1VE20FWT1", "dateTime": 1516040519140}, {"current_trial": 176, "trialdata": {"rt": -1, "trial_type": "single-stim", "stimulus": "<p id=\"stim\">8</p>", "internal_node_id": "0.0-129.0-2.0", "time_elapsed": 830751, "key_press": -1, "trial_index": 176}, "uniqueid": "MTK1601:3TVSS0C0E27Y43JO07GZN1VE20FWT1", "dateTime": 1516040520141}, {"current_trial": 177, "trialdata": {"rt": -1, "trial_type": "single-stim", "stimulus": "<p id=\"stim\">7</p>", "internal_node_id": "0.0-129.0-3.0", "time_elapsed": 831753, "key_press": -1, "trial_index": 177}, "uniqueid": "MTK1601:3TVSS0C0E27Y43JO07GZN1VE20FWT1", "dateTime": 1516040521143}, {"current_trial": 178, "trialdata": {"rt": -1, "trial_type": "single-stim", "stimulus": "<p id=\"stim\">6</p>", "internal_node_id": "0.0-129.0-4.0", "time_elapsed": 832754, "key_press": -1, "trial_index": 178}, "uniqueid": "MTK1601:3TVSS0C0E27Y43JO07GZN1VE20FWT1", "dateTime": 1516040522144}, {"current_trial": 179, "trialdata": {"rt": -1, "trial_type": "single-stim", "stimulus": "<p id=\"stim\">5</p>", "internal_node_id": "0.0-129.0-5.0", "time_elapsed": 833754, "key_press": -1, "trial_index": 179}, "uniqueid": "MTK1601:3TVSS0C0E27Y43JO07GZN1VE20FWT1", "dateTime": 1516040523144}, {"current_trial": 180, "trialdata": {"rt": -1, "trial_type": "single-stim", "stimulus": "<p id=\"stim\">4</p>", "internal_node_id": "0.0-129.0-6.0", "time_elapsed": 834756, "key_press": -1, "trial_index": 180}, "uniqueid": "MTK1601:3TVSS0C0E27Y43JO07GZN1VE20FWT1", "dateTime": 1516040524146}, {"current_trial": 181, "trialdata": {"rt": -1, "trial_type": "single-stim", "stimulus": "<p id=\"stim\">3</p>", "internal_node_id": "0.0-129.0-7.0", "time_elapsed": 835757, "key_press": -1, "trial_index": 181}, "uniqueid": "MTK1601:3TVSS0C0E27Y43JO07GZN1VE20FWT1", "dateTime": 1516040525147}, {"current_trial": 182, "trialdata": {"rt": -1, "trial_type": "single-stim", "stimulus": "<p id=\"stim\">2</p>", "internal_node_id": "0.0-129.0-8.0", "time_elapsed": 836758, "key_press": -1, "trial_index": 182}, "uniqueid": "MTK1601:3TVSS0C0E27Y43JO07GZN1VE20FWT1", "dateTime": 1516040526148}, {"current_trial": 183, "trialdata": {"rt": -1, "trial_type": "single-stim", "stimulus": "<p id=\"stim\">1</p>", "internal_node_id": "0.0-129.0-9.0", "time_elapsed": 837759, "key_press": -1, "trial_index": 183}, "uniqueid": "MTK1601:3TVSS0C0E27Y43JO07GZN1VE20FWT1", "dateTime": 1516040527149}, {"current_trial": 184, "trialdata": {"rt": -1, "trial_type": "single-stim", "stimulus": "<p id=\"stim\">+</p>", "internal_node_id": "0.0-130.0-0.0", "time_elapsed": 839260, "key_press": -1, "type": "FIXATION", "trial_index": 184}, "uniqueid": "MTK1601:3TVSS0C0E27Y43JO07GZN1VE20FWT1", "dateTime": 1516040528650}, {"current_trial": 185, "trialdata": {"rt": -1, "trial_type": "single-stim", "word": "oyster", "stimulus": "<p id=\"stim\">OYSTER</p>", "conditions": [12, 800, "v", 24000], "internal_node_id": "0.0-131.0", "trial": 5, "time_elapsed": 840061, "serialpos": 0, "key_press": -1, "wordID": 994, "type": "PRES_VIS", "trial_index": 185}, "uniqueid": "MTK1601:3TVSS0C0E27Y43JO07GZN1VE20FWT1", "dateTime": 1516040529451}, {"current_trial": 186, "trialdata": {"rt": -1, "trial_type": "single-stim", "word": "radish", "stimulus": "<p id=\"stim\">RADISH</p>", "conditions": [12, 800, "v", 24000], "internal_node_id": "0.0-132.0", "trial": 5, "time_elapsed": 841793, "serialpos": 1, "key_press": -1, "wordID": 1157, "type": "PRES_VIS", "trial_index": 186}, "uniqueid": "MTK1601:3TVSS0C0E27Y43JO07GZN1VE20FWT1", "dateTime": 1516040531183}, {"current_trial": 187, "trialdata": {"rt": -1, "trial_type": "single-stim", "word": "spool", "stimulus": "<p id=\"stim\">SPOOL</p>", "conditions": [12, 800, "v", 24000], "internal_node_id": "0.0-133.0", "trial": 5, "time_elapsed": 843651, "serialpos": 2, "key_press": -1, "wordID": 1355, "type": "PRES_VIS", "trial_index": 187}, "uniqueid": "MTK1601:3TVSS0C0E27Y43JO07GZN1VE20FWT1", "dateTime": 1516040533041}, {"current_trial": 188, "trialdata": {"rt": -1, "trial_type": "single-stim", "word": "valve", "stimulus": "<p id=\"stim\">VALVE</p>", "conditions": [12, 800, "v", 24000], "internal_node_id": "0.0-134.0", "trial": 5, "time_elapsed": 845619, "serialpos": 3, "key_press": -1, "wordID": 1545, "type": "PRES_VIS", "trial_index": 188}, "uniqueid": "MTK1601:3TVSS0C0E27Y43JO07GZN1VE20FWT1", "dateTime": 1516040535009}, {"current_trial": 189, "trialdata": {"rt": -1, "trial_type": "single-stim", "word": "diner", "stimulus": "<p id=\"stim\">DINER</p>", "conditions": [12, 800, "v", 24000], "internal_node_id": "0.0-135.0", "trial": 5, "time_elapsed": 847490, "serialpos": 4, "key_press": -1, "wordID": 466, "type": "PRES_VIS", "trial_index": 189}, "uniqueid": "MTK1601:3TVSS0C0E27Y43JO07GZN1VE20FWT1", "dateTime": 1516040536880}, {"current_trial": 190, "trialdata": {"rt": -1, "trial_type": "single-stim", "word": "crayon", "stimulus": "<p id=\"stim\">CRAYON</p>", "conditions": [12, 800, "v", 24000], "internal_node_id": "0.0-136.0", "trial": 5, "time_elapsed": 849229, "serialpos": 5, "key_press": -1, "wordID": 400, "type": "PRES_VIS", "trial_index": 190}, "uniqueid": "MTK1601:3TVSS0C0E27Y43JO07GZN1VE20FWT1", "dateTime": 1516040538619}, {"current_trial": 191, "trialdata": {"rt": -1, "trial_type": "single-stim", "word": "washer", "stimulus": "<p id=\"stim\">WASHER</p>", "conditions": [12, 800, "v", 24000], "internal_node_id": "0.0-137.0", "trial": 5, "time_elapsed": 851228, "serialpos": 6, "key_press": -1, "wordID": 1591, "type": "PRES_VIS", "trial_index": 191}, "uniqueid": "MTK1601:3TVSS0C0E27Y43JO07GZN1VE20FWT1", "dateTime": 1516040540618}, {"current_trial": 192, "trialdata": {"rt": -1, "trial_type": "single-stim", "word": "crab", "stimulus": "<p id=\"stim\">CRAB</p>", "conditions": [12, 800, "v", 24000], "internal_node_id": "0.0-138.0", "trial": 5, "time_elapsed": 853043, "serialpos": 7, "key_press": -1, "wordID": 396, "type": "PRES_VIS", "trial_index": 192}, "uniqueid": "MTK1601:3TVSS0C0E27Y43JO07GZN1VE20FWT1", "dateTime": 1516040542433}, {"current_trial": 193, "trialdata": {"rt": -1, "trial_type": "single-stim", "word": "scotch", "stimulus": "<p id=\"stim\">SCOTCH</p>", "conditions": [12, 800, "v", 24000], "internal_node_id": "0.0-139.0", "trial": 5, "time_elapsed": 854890, "serialpos": 8, "key_press": -1, "wordID": 1250, "type": "PRES_VIS", "trial_index": 193}, "uniqueid": "MTK1601:3TVSS0C0E27Y43JO07GZN1VE20FWT1", "dateTime": 1516040544280}, {"current_trial": 194, "trialdata": {"rt": -1, "trial_type": "single-stim", "word": "tuba", "stimulus": "<p id=\"stim\">TUBA</p>", "conditions": [12, 800, "v", 24000], "internal_node_id": "0.0-140.0", "trial": 5, "time_elapsed": 856658, "serialpos": 9, "key_press": -1, "wordID": 1514, "type": "PRES_VIS", "trial_index": 194}, "uniqueid": "MTK1601:3TVSS0C0E27Y43JO07GZN1VE20FWT1", "dateTime": 1516040546048}, {"current_trial": 195, "trialdata": {"rt": -1, "trial_type": "single-stim", "word": "guitar", "stimulus": "<p id=\"stim\">GUITAR</p>", "conditions": [12, 800, "v", 24000], "internal_node_id": "0.0-141.0", "trial": 5, "time_elapsed": 858375, "serialpos": 10, "key_press": -1, "wordID": 669, "type": "PRES_VIS", "trial_index": 195}, "uniqueid": "MTK1601:3TVSS0C0E27Y43JO07GZN1VE20FWT1", "dateTime": 1516040547766}, {"current_trial": 196, "trialdata": {"rt": -1, "trial_type": "single-stim", "word": "yarn", "stimulus": "<p id=\"stim\">YARN</p>", "conditions": [12, 800, "v", 24000], "internal_node_id": "0.0-142.0", "trial": 5, "time_elapsed": 860328, "serialpos": 11, "key_press": -1, "wordID": 1630, "type": "PRES_VIS", "trial_index": 196}, "uniqueid": "MTK1601:3TVSS0C0E27Y43JO07GZN1VE20FWT1", "dateTime": 1516040549718}, {"current_trial": 197, "trialdata": {"rt": -1, "trial_type": "single-stim", "stimulus": "", "internal_node_id": "0.0-143.0-0.0", "time_elapsed": 862722, "key_press": -1, "type": "PRE_RECALL_DELAY", "trial_index": 197}, "uniqueid": "MTK1601:3TVSS0C0E27Y43JO07GZN1VE20FWT1", "dateTime": 1516040552112}, {"current_trial": 198, "trialdata": {"rt": -1000, "trial_type": "single-audio", "stimulus": "/static/audio/400Hz.wav", "internal_node_id": "0.0-144.0", "time_elapsed": 863224, "key_press": -1, "type": "PRE_RECALL_ALERT", "trial_index": 198}, "uniqueid": "MTK1601:3TVSS0C0E27Y43JO07GZN1VE20FWT1", "dateTime": 1516040552614}, {"current_trial": 199, "trialdata": {"rt": [1919, 3711, 5247, 7215, 9711, 11280, 14112, 17376], "recwords": ["yarn", "guitar", "tuba", "spool", "oyster", "radish", "dinner", "valve"], "key_times": [1231, 1311, 1439, 1551, 1919, 2575, 2670, 2863, 2991, 3119, 3295, 3711, 4191, 4751, 4927, 5055, 5247, 6143, 6431, 6688, 6815, 6991, 7215, 8767, 8991, 9119, 9343, 9424, 9551, 9711, 9935, 10047, 10447, 10671, 10799, 10928, 11280, 13312, 13440, 13664, 13808, 13872, 13968, 14112, 16704, 16880, 17024, 17152, 17232, 17376], "trial_type": "free-recall", "conditions": [12, 800, "v", 24000], "internal_node_id": "0.0-145.0-0.0", "key_presses": [89, 65, 82, 78, 13, 71, 85, 73, 84, 65, 82, 13, 84, 85, 66, 65, 13, 83, 80, 79, 79, 76, 13, 79, 89, 83, 84, 69, 82, 13, 82, 65, 68, 73, 83, 72, 13, 68, 73, 78, 78, 69, 82, 13, 86, 65, 76, 86, 69, 13], "trial": 5, "time_elapsed": 923225, "type": "FREE_RECALL", "trial_index": 199}, "uniqueid": "MTK1601:3TVSS0C0E27Y43JO07GZN1VE20FWT1", "dateTime": 1516040612618}, {"current_trial": 200, "trialdata": {"rt": 4449, "trial_type": "text", "internal_node_id": "0.0-146.0", "time_elapsed": 929679, "key_press": 32, "type": "INSTRUCTIONS", "trial_index": 200}, "uniqueid": "MTK1601:3TVSS0C0E27Y43JO07GZN1VE20FWT1", "dateTime": 1516040619069}, {"current_trial": 201, "trialdata": {"rt": [1406, 4383, 9615], "trial_type": "math-distractor", "key_times": [1151, 1406, 3983, 4159, 4383, 9312, 9456, 9615], "responses": ["9", "14", "22"], "num2": [3, 4, 9, 3], "num3": [3, 1, 8, 7], "conditions": [24, 1600, "v", 12000], "internal_node_id": "0.0-147.0", "key_presses": [105, 13, 97, 100, 13, 98, 98, 13], "trial": 6, "time_elapsed": 943682, "type": "DISTRACTOR", "trial_index": 201, "num1": [3, 9, 5, 4]}, "uniqueid": "MTK1601:3TVSS0C0E27Y43JO07GZN1VE20FWT1", "dateTime": 1516040633072}, {"current_trial": 202, "trialdata": {"rt": -1, "trial_type": "single-stim", "stimulus": "<p id=\"stim\">10</p>", "internal_node_id": "0.0-148.0-0.0", "time_elapsed": 946684, "key_press": -1, "trial_index": 202}, "uniqueid": "MTK1601:3TVSS0C0E27Y43JO07GZN1VE20FWT1", "dateTime": 1516040636074}, {"current_trial": 203, "trialdata": {"rt": -1, "trial_type": "single-stim", "stimulus": "<p id=\"stim\">9</p>", "internal_node_id": "0.0-148.0-1.0", "time_elapsed": 947684, "key_press": -1, "trial_index": 203}, "uniqueid": "MTK1601:3TVSS0C0E27Y43JO07GZN1VE20FWT1", "dateTime": 1516040637075}, {"current_trial": 204, "trialdata": {"rt": -1, "trial_type": "single-stim", "stimulus": "<p id=\"stim\">8</p>", "internal_node_id": "0.0-148.0-2.0", "time_elapsed": 948686, "key_press": -1, "trial_index": 204}, "uniqueid": "MTK1601:3TVSS0C0E27Y43JO07GZN1VE20FWT1", "dateTime": 1516040638076}, {"current_trial": 205, "trialdata": {"rt": -1, "trial_type": "single-stim", "stimulus": "<p id=\"stim\">7</p>", "internal_node_id": "0.0-148.0-3.0", "time_elapsed": 949687, "key_press": -1, "trial_index": 205}, "uniqueid": "MTK1601:3TVSS0C0E27Y43JO07GZN1VE20FWT1", "dateTime": 1516040639078}, {"current_trial": 206, "trialdata": {"rt": -1, "trial_type": "single-stim", "stimulus": "<p id=\"stim\">6</p>", "internal_node_id": "0.0-148.0-4.0", "time_elapsed": 950688, "key_press": -1, "trial_index": 206}, "uniqueid": "MTK1601:3TVSS0C0E27Y43JO07GZN1VE20FWT1", "dateTime": 1516040640078}, {"current_trial": 207, "trialdata": {"rt": -1, "trial_type": "single-stim", "stimulus": "<p id=\"stim\">5</p>", "internal_node_id": "0.0-148.0-5.0", "time_elapsed": 951690, "key_press": -1, "trial_index": 207}, "uniqueid": "MTK1601:3TVSS0C0E27Y43JO07GZN1VE20FWT1", "dateTime": 1516040641080}, {"current_trial": 208, "trialdata": {"rt": -1, "trial_type": "single-stim", "stimulus": "<p id=\"stim\">4</p>", "internal_node_id": "0.0-148.0-6.0", "time_elapsed": 952691, "key_press": -1, "trial_index": 208}, "uniqueid": "MTK1601:3TVSS0C0E27Y43JO07GZN1VE20FWT1", "dateTime": 1516040642081}, {"current_trial": 209, "trialdata": {"rt": -1, "trial_type": "single-stim", "stimulus": "<p id=\"stim\">3</p>", "internal_node_id": "0.0-148.0-7.0", "time_elapsed": 953692, "key_press": -1, "trial_index": 209}, "uniqueid": "MTK1601:3TVSS0C0E27Y43JO07GZN1VE20FWT1", "dateTime": 1516040643082}, {"current_trial": 210, "trialdata": {"rt": -1, "trial_type": "single-stim", "stimulus": "<p id=\"stim\">2</p>", "internal_node_id": "0.0-148.0-8.0", "time_elapsed": 954693, "key_press": -1, "trial_index": 210}, "uniqueid": "MTK1601:3TVSS0C0E27Y43JO07GZN1VE20FWT1", "dateTime": 1516040644083}, {"current_trial": 211, "trialdata": {"rt": -1, "trial_type": "single-stim", "stimulus": "<p id=\"stim\">1</p>", "internal_node_id": "0.0-148.0-9.0", "time_elapsed": 955694, "key_press": -1, "trial_index": 211}, "uniqueid": "MTK1601:3TVSS0C0E27Y43JO07GZN1VE20FWT1", "dateTime": 1516040645084}, {"current_trial": 212, "trialdata": {"rt": -1, "trial_type": "single-stim", "stimulus": "<p id=\"stim\">+</p>", "internal_node_id": "0.0-149.0-0.0", "time_elapsed": 957195, "key_press": -1, "type": "FIXATION", "trial_index": 212}, "uniqueid": "MTK1601:3TVSS0C0E27Y43JO07GZN1VE20FWT1", "dateTime": 1516040646586}, {"current_trial": 213, "trialdata": {"rt": -1, "trial_type": "single-stim", "word": "robber", "stimulus": "<p id=\"stim\">ROBBER</p>", "conditions": [24, 1600, "v", 12000], "internal_node_id": "0.0-150.0", "trial": 6, "time_elapsed": 958797, "serialpos": 0, "key_press": -1, "wordID": 1196, "type": "PRES_VIS", "trial_index": 213}, "uniqueid": "MTK1601:3TVSS0C0E27Y43JO07GZN1VE20FWT1", "dateTime": 1516040648187}, {"current_trial": 214, "trialdata": {"rt": -1, "trial_type": "single-stim", "word": "suspect", "stimulus": "<p id=\"stim\">SUSPECT</p>", "conditions": [24, 1600, "v", 12000], "internal_node_id": "0.0-151.0", "trial": 6, "time_elapsed": 961330, "serialpos": 1, "key_press": -1, "wordID": 1414, "type": "PRES_VIS", "trial_index": 214}, "uniqueid": "MTK1601:3TVSS0C0E27Y43JO07GZN1VE20FWT1", "dateTime": 1516040650720}, {"current_trial": 215, "trialdata": {"rt": -1, "trial_type": "single-stim", "word": "couch", "stimulus": "<p id=\"stim\">COUCH</p>", "conditions": [24, 1600, "v", 12000], "internal_node_id": "0.0-152.0", "trial": 6, "time_elapsed": 964082, "serialpos": 2, "key_press": -1, "wordID": 385, "type": "PRES_VIS", "trial_index": 215}, "uniqueid": "MTK1601:3TVSS0C0E27Y43JO07GZN1VE20FWT1", "dateTime": 1516040653472}, {"current_trial": 216, "trialdata": {"rt": -1, "trial_type": "single-stim", "word": "award", "stimulus": "<p id=\"stim\">AWARD</p>", "conditions": [24, 1600, "v", 12000], "internal_node_id": "0.0-153.0", "trial": 6, "time_elapsed": 966800, "serialpos": 3, "key_press": -1, "wordID": 62, "type": "PRES_VIS", "trial_index": 216}, "uniqueid": "MTK1601:3TVSS0C0E27Y43JO07GZN1VE20FWT1", "dateTime": 1516040656190}, {"current_trial": 217, "trialdata": {"rt": -1, "trial_type": "single-stim", "word": "pasta", "stimulus": "<p id=\"stim\">PASTA</p>", "conditions": [24, 1600, "v", 12000], "internal_node_id": "0.0-154.0", "trial": 6, "time_elapsed": 969245, "serialpos": 4, "key_press": -1, "wordID": 1020, "type": "PRES_VIS", "trial_index": 217}, "uniqueid": "MTK1601:3TVSS0C0E27Y43JO07GZN1VE20FWT1", "dateTime": 1516040658635}, {"current_trial": 218, "trialdata": {"rt": -1, "trial_type": "single-stim", "word": "jello", "stimulus": "<p id=\"stim\">JELLO</p>", "conditions": [24, 1600, "v", 12000], "internal_node_id": "0.0-155.0", "trial": 6, "time_elapsed": 971866, "serialpos": 5, "key_press": -1, "wordID": 753, "type": "PRES_VIS", "trial_index": 218}, "uniqueid": "MTK1601:3TVSS0C0E27Y43JO07GZN1VE20FWT1", "dateTime": 1516040661256}, {"current_trial": 219, "trialdata": {"rt": -1, "trial_type": "single-stim", "word": "softball", "stimulus": "<p id=\"stim\">SOFTBALL</p>", "conditions": [24, 1600, "v", 12000], "internal_node_id": "0.0-156.0", "trial": 6, "time_elapsed": 974598, "serialpos": 6, "key_press": -1, "wordID": 1342, "type": "PRES_VIS", "trial_index": 219}, "uniqueid": "MTK1601:3TVSS0C0E27Y43JO07GZN1VE20FWT1", "dateTime": 1516040663988}, {"current_trial": 220, "trialdata": {"rt": -1, "trial_type": "single-stim", "word": "mattress", "stimulus": "<p id=\"stim\">MATTRESS</p>", "conditions": [24, 1600, "v", 12000], "internal_node_id": "0.0-157.0", "trial": 6, "time_elapsed": 977370, "serialpos": 7, "key_press": -1, "wordID": 878, "type": "PRES_VIS", "trial_index": 220}, "uniqueid": "MTK1601:3TVSS0C0E27Y43JO07GZN1VE20FWT1", "dateTime": 1516040666761}, {"current_trial": 221, "trialdata": {"rt": -1, "trial_type": "single-stim", "word": "waitress", "stimulus": "<p id=\"stim\">WAITRESS</p>", "conditions": [24, 1600, "v", 12000], "internal_node_id": "0.0-158.0", "trial": 6, "time_elapsed": 980110, "serialpos": 8, "key_press": -1, "wordID": 1580, "type": "PRES_VIS", "trial_index": 221}, "uniqueid": "MTK1601:3TVSS0C0E27Y43JO07GZN1VE20FWT1", "dateTime": 1516040669500}, {"current_trial": 222, "trialdata": {"rt": -1, "trial_type": "single-stim", "word": "kitchen", "stimulus": "<p id=\"stim\">KITCHEN</p>", "conditions": [24, 1600, "v", 12000], "internal_node_id": "0.0-159.0", "trial": 6, "time_elapsed": 982551, "serialpos": 9, "key_press": -1, "wordID": 777, "type": "PRES_VIS", "trial_index": 222}, "uniqueid": "MTK1601:3TVSS0C0E27Y43JO07GZN1VE20FWT1", "dateTime": 1516040671941}, {"current_trial": 223, "trialdata": {"rt": -1, "trial_type": "single-stim", "word": "asia", "stimulus": "<p id=\"stim\">ASIA</p>", "conditions": [24, 1600, "v", 12000], "internal_node_id": "0.0-160.0", "trial": 6, "time_elapsed": 985335, "serialpos": 10, "key_press": -1, "wordID": 45, "type": "PRES_VIS", "trial_index": 223}, "uniqueid": "MTK1601:3TVSS0C0E27Y43JO07GZN1VE20FWT1", "dateTime": 1516040674725}, {"current_trial": 224, "trialdata": {"rt": -1, "trial_type": "single-stim", "word": "country", "stimulus": "<p id=\"stim\">COUNTRY</p>", "conditions": [24, 1600, "v", 12000], "internal_node_id": "0.0-161.0", "trial": 6, "time_elapsed": 987962, "serialpos": 11, "key_press": -1, "wordID": 387, "type": "PRES_VIS", "trial_index": 224}, "uniqueid": "MTK1601:3TVSS0C0E27Y43JO07GZN1VE20FWT1", "dateTime": 1516040677352}, {"current_trial": 225, "trialdata": {"rt": -1, "trial_type": "single-stim", "word": "muffin", "stimulus": "<p id=\"stim\">MUFFIN</p>", "conditions": [24, 1600, "v", 12000], "internal_node_id": "0.0-162.0", "trial": 6, "time_elapsed": 990586, "serialpos": 12, "key_press": -1, "wordID": 928, "type": "PRES_VIS", "trial_index": 225}, "uniqueid": "MTK1601:3TVSS0C0E27Y43JO07GZN1VE20FWT1", "dateTime": 1516040679976}, {"current_trial": 226, "trialdata": {"rt": -1, "trial_type": "single-stim", "word": "fox", "stimulus": "<p id=\"stim\">FOX</p>", "conditions": [24, 1600, "v", 12000], "internal_node_id": "0.0-163.0", "trial": 6, "time_elapsed": 993196, "serialpos": 13, "key_press": -1, "wordID": 597, "type": "PRES_VIS", "trial_index": 226}, "uniqueid": "MTK1601:3TVSS0C0E27Y43JO07GZN1VE20FWT1", "dateTime": 1516040682586}, {"current_trial": 227, "trialdata": {"rt": -1, "trial_type": "single-stim", "word": "skirt", "stimulus": "<p id=\"stim\">SKIRT</p>", "conditions": [24, 1600, "v", 12000], "internal_node_id": "0.0-164.0", "trial": 6, "time_elapsed": 995701, "serialpos": 14, "key_press": -1, "wordID": 1318, "type": "PRES_VIS", "trial_index": 227}, "uniqueid": "MTK1601:3TVSS0C0E27Y43JO07GZN1VE20FWT1", "dateTime": 1516040685092}, {"current_trial": 228, "trialdata": {"rt": -1, "trial_type": "single-stim", "word": "zipper", "stimulus": "<p id=\"stim\">ZIPPER</p>", "conditions": [24, 1600, "v", 12000], "internal_node_id": "0.0-165.0", "trial": 6, "time_elapsed": 998249, "serialpos": 15, "key_press": -1, "wordID": 1635, "type": "PRES_VIS", "trial_index": 228}, "uniqueid": "MTK1601:3TVSS0C0E27Y43JO07GZN1VE20FWT1", "dateTime": 1516040687639}, {"current_trial": 229, "trialdata": {"rt": -1, "trial_type": "single-stim", "word": "knapsack", "stimulus": "<p id=\"stim\">KNAPSACK</p>", "conditions": [24, 1600, "v", 12000], "internal_node_id": "0.0-166.0", "trial": 6, "time_elapsed": 1000855, "serialpos": 16, "key_press": -1, "wordID": 782, "type": "PRES_VIS", "trial_index": 229}, "uniqueid": "MTK1601:3TVSS0C0E27Y43JO07GZN1VE20FWT1", "dateTime": 1516040690245}, {"current_trial": 230, "trialdata": {"rt": -1, "trial_type": "single-stim", "word": "sketch", "stimulus": "<p id=\"stim\">SKETCH</p>", "conditions": [24, 1600, "v", 12000], "internal_node_id": "0.0-167.0", "trial": 6, "time_elapsed": 1003278, "serialpos": 17, "key_press": -1, "wordID": 1314, "type": "PRES_VIS", "trial_index": 230}, "uniqueid": "MTK1601:3TVSS0C0E27Y43JO07GZN1VE20FWT1", "dateTime": 1516040692668}, {"current_trial": 231, "trialdata": {"rt": -1, "trial_type": "single-stim", "word": "custard", "stimulus": "<p id=\"stim\">CUSTARD</p>", "conditions": [24, 1600, "v", 12000], "internal_node_id": "0.0-168.0", "trial": 6, "time_elapsed": 1005801, "serialpos": 18, "key_press": -1, "wordID": 428, "type": "PRES_VIS", "trial_index": 231}, "uniqueid": "MTK1601:3TVSS0C0E27Y43JO07GZN1VE20FWT1", "dateTime": 1516040695191}, {"current_trial": 232, "trialdata": {"rt": -1, "trial_type": "single-stim", "word": "wife", "stimulus": "<p id=\"stim\">WIFE</p>", "conditions": [24, 1600, "v", 12000], "internal_node_id": "0.0-169.0", "trial": 6, "time_elapsed": 1008521, "serialpos": 19, "key_press": -1, "wordID": 1608, "type": "PRES_VIS", "trial_index": 232}, "uniqueid": "MTK1601:3TVSS0C0E27Y43JO07GZN1VE20FWT1", "dateTime": 1516040697911}, {"current_trial": 233, "trialdata": {"rt": -1, "trial_type": "single-stim", "word": "spouse", "stimulus": "<p id=\"stim\">SPOUSE</p>", "conditions": [24, 1600, "v", 12000], "internal_node_id": "0.0-170.0", "trial": 6, "time_elapsed": 1011091, "serialpos": 20, "key_press": -1, "wordID": 1357, "type": "PRES_VIS", "trial_index": 233}, "uniqueid": "MTK1601:3TVSS0C0E27Y43JO07GZN1VE20FWT1", "dateTime": 1516040700481}, {"current_trial": 234, "trialdata": {"rt": -1, "trial_type": "single-stim", "word": "twig", "stimulus": "<p id=\"stim\">TWIG</p>", "conditions": [24, 1600, "v", 12000], "internal_node_id": "0.0-171.0", "trial": 6, "time_elapsed": 1013786, "serialpos": 21, "key_press": -1, "wordID": 1526, "type": "PRES_VIS", "trial_index": 234}, "uniqueid": "MTK1601:3TVSS0C0E27Y43JO07GZN1VE20FWT1", "dateTime": 1516040703176}, {"current_trial": 235, "trialdata": {"rt": -1, "trial_type": "single-stim", "word": "trout", "stimulus": "<p id=\"stim\">TROUT</p>", "conditions": [24, 1600, "v", 12000], "internal_node_id": "0.0-172.0", "trial": 6, "time_elapsed": 1016458, "serialpos": 22, "key_press": -1, "wordID": 1510, "type": "PRES_VIS", "trial_index": 235}, "uniqueid": "MTK1601:3TVSS0C0E27Y43JO07GZN1VE20FWT1", "dateTime": 1516040705848}, {"current_trial": 236, "trialdata": {"rt": -1, "trial_type": "single-stim", "word": "hound", "stimulus": "<p id=\"stim\">HOUND</p>", "conditions": [24, 1600, "v", 12000], "internal_node_id": "0.0-173.0", "trial": 6, "time_elapsed": 1019007, "serialpos": 23, "key_press": -1, "wordID": 723, "type": "PRES_VIS", "trial_index": 236}, "uniqueid": "MTK1601:3TVSS0C0E27Y43JO07GZN1VE20FWT1", "dateTime": 1516040708397}, {"current_trial": 237, "trialdata": {"rt": -1, "trial_type": "single-stim", "stimulus": "", "internal_node_id": "0.0-174.0-0.0", "time_elapsed": 1021437, "key_press": -1, "type": "PRE_RECALL_DELAY", "trial_index": 237}, "uniqueid": "MTK1601:3TVSS0C0E27Y43JO07GZN1VE20FWT1", "dateTime": 1516040710827}, {"current_trial": 238, "trialdata": {"rt": -1000, "trial_type": "single-audio", "stimulus": "/static/audio/400Hz.wav", "internal_node_id": "0.0-175.0", "time_elapsed": 1021938, "key_press": -1, "type": "PRE_RECALL_ALERT", "trial_index": 238}, "uniqueid": "MTK1601:3TVSS0C0E27Y43JO07GZN1VE20FWT1", "dateTime": 1516040711328}, {"current_trial": 239, "trialdata": {"rt": [1494, 3030, 5927, 7415, 11831, 14935, 18248, 23496, 31001, 32601, 51483, 58188], "recwords": ["hound", "trout", "spouse", "wife", "robber", "suspect", "jello", "custard", "twig", "kitchen", "award", "hound"], "key_times": [678, 822, 902, 1030, 1174, 1494, 1782, 1878, 2182, 2278, 2758, 3030, 3222, 3318, 4567, 4678, 5622, 5734, 5927, 6310, 6407, 6550, 7127, 7415, 10999, 11127, 11367, 11527, 11591, 11671, 11831, 12247, 12407, 12583, 13575, 13655, 13879, 14167, 14935, 17288, 17416, 17623, 17768, 17976, 18248, 18984, 19128, 19352, 19512, 19608, 19800, 20312, 20812, 20845, 20878, 20911, 20944, 20977, 21010, 21043, 21076, 21109, 21142, 21175, 21208, 21352, 21576, 21688, 22056, 22232, 22328, 23112, 23496, 29097, 29513, 29657, 29801, 30361, 30489, 30665, 31001, 31353, 31561, 31673, 31961, 32057, 32169, 32297, 32601, 50795, 50923, 51051, 51259, 51323, 51483, 57612, 57724, 57852, 57948, 58060, 58188], "trial_type": "free-recall", "conditions": [24, 1600, "v", 12000], "internal_node_id": "0.0-176.0-0.0", "key_presses": [72, 79, 85, 78, 68, 13, 84, 82, 79, 85, 84, 13, 83, 80, 79, 85, 83, 69, 13, 87, 73, 70, 69, 13, 82, 79, 66, 66, 69, 82, 13, 83, 85, 83, 80, 69, 67, 84, 13, 74, 69, 76, 76, 79, 13, 85, 83, 84, 65, 82, 68, 8, 8, 8, 8, 8, 8, 8, 8, 8, 8, 8, 8, 8, 8, 67, 85, 83, 84, 65, 82, 68, 13, 87, 8, 8, 84, 87, 73, 71, 13, 75, 73, 84, 67, 72, 69, 78, 13, 65, 87, 65, 82, 68, 13, 72, 79, 85, 78, 68, 13], "trial": 6, "time_elapsed": 1081940, "type": "FREE_RECALL", "trial_index": 239}, "uniqueid": "MTK1601:3TVSS0C0E27Y43JO07GZN1VE20FWT1", "dateTime": 1516040771331}, {"current_trial": 240, "trialdata": {"rt": 2440, "trial_type": "text", "internal_node_id": "0.0-177.0", "time_elapsed": 1086383, "key_press": 32, "type": "INSTRUCTIONS", "trial_index": 240}, "uniqueid": "MTK1601:3TVSS0C0E27Y43JO07GZN1VE20FWT1", "dateTime": 1516040775773}, {"current_trial": 241, "trialdata": {"rt": [4191, 6607, 11760], "trial_type": "math-distractor", "key_times": [3855, 4191, 6287, 6383, 6607, 11296, 11520, 11760], "responses": ["9", "12", "14"], "num2": [3, 1, 5, 7], "num3": [2, 8, 6, 8], "conditions": [24, 1600, "v", 12000], "internal_node_id": "0.0-178.0", "key_presses": [105, 13, 97, 98, 13, 97, 100, 13], "trial": 7, "time_elapsed": 1100385, "type": "DISTRACTOR", "trial_index": 241, "num1": [4, 3, 3, 1]}, "uniqueid": "MTK1601:3TVSS0C0E27Y43JO07GZN1VE20FWT1", "dateTime": 1516040789776}, {"current_trial": 242, "trialdata": {"rt": -1, "trial_type": "single-stim", "stimulus": "<p id=\"stim\">10</p>", "internal_node_id": "0.0-179.0-0.0", "time_elapsed": 1103386, "key_press": -1, "trial_index": 242}, "uniqueid": "MTK1601:3TVSS0C0E27Y43JO07GZN1VE20FWT1", "dateTime": 1516040792776}, {"current_trial": 243, "trialdata": {"rt": -1, "trial_type": "single-stim", "stimulus": "<p id=\"stim\">9</p>", "internal_node_id": "0.0-179.0-1.0", "time_elapsed": 1104387, "key_press": -1, "trial_index": 243}, "uniqueid": "MTK1601:3TVSS0C0E27Y43JO07GZN1VE20FWT1", "dateTime": 1516040793777}, {"current_trial": 244, "trialdata": {"rt": -1, "trial_type": "single-stim", "stimulus": "<p id=\"stim\">8</p>", "internal_node_id": "0.0-179.0-2.0", "time_elapsed": 1105388, "key_press": -1, "trial_index": 244}, "uniqueid": "MTK1601:3TVSS0C0E27Y43JO07GZN1VE20FWT1", "dateTime": 1516040794778}, {"current_trial": 245, "trialdata": {"rt": -1, "trial_type": "single-stim", "stimulus": "<p id=\"stim\">7</p>", "internal_node_id": "0.0-179.0-3.0", "time_elapsed": 1106390, "key_press": -1, "trial_index": 245}, "uniqueid": "MTK1601:3TVSS0C0E27Y43JO07GZN1VE20FWT1", "dateTime": 1516040795780}, {"current_trial": 246, "trialdata": {"rt": -1, "trial_type": "single-stim", "stimulus": "<p id=\"stim\">6</p>", "internal_node_id": "0.0-179.0-4.0", "time_elapsed": 1107391, "key_press": -1, "trial_index": 246}, "uniqueid": "MTK1601:3TVSS0C0E27Y43JO07GZN1VE20FWT1", "dateTime": 1516040796781}, {"current_trial": 247, "trialdata": {"rt": -1, "trial_type": "single-stim", "stimulus": "<p id=\"stim\">5</p>", "internal_node_id": "0.0-179.0-5.0", "time_elapsed": 1108392, "key_press": -1, "trial_index": 247}, "uniqueid": "MTK1601:3TVSS0C0E27Y43JO07GZN1VE20FWT1", "dateTime": 1516040797782}, {"current_trial": 248, "trialdata": {"rt": -1, "trial_type": "single-stim", "stimulus": "<p id=\"stim\">4</p>", "internal_node_id": "0.0-179.0-6.0", "time_elapsed": 1109393, "key_press": -1, "trial_index": 248}, "uniqueid": "MTK1601:3TVSS0C0E27Y43JO07GZN1VE20FWT1", "dateTime": 1516040798783}, {"current_trial": 249, "trialdata": {"rt": -1, "trial_type": "single-stim", "stimulus": "<p id=\"stim\">3</p>", "internal_node_id": "0.0-179.0-7.0", "time_elapsed": 1110394, "key_press": -1, "trial_index": 249}, "uniqueid": "MTK1601:3TVSS0C0E27Y43JO07GZN1VE20FWT1", "dateTime": 1516040799784}, {"current_trial": 250, "trialdata": {"rt": -1, "trial_type": "single-stim", "stimulus": "<p id=\"stim\">2</p>", "internal_node_id": "0.0-179.0-8.0", "time_elapsed": 1111396, "key_press": -1, "trial_index": 250}, "uniqueid": "MTK1601:3TVSS0C0E27Y43JO07GZN1VE20FWT1", "dateTime": 1516040800786}, {"current_trial": 251, "trialdata": {"rt": -1, "trial_type": "single-stim", "stimulus": "<p id=\"stim\">1</p>", "internal_node_id": "0.0-179.0-9.0", "time_elapsed": 1112396, "key_press": -1, "trial_index": 251}, "uniqueid": "MTK1601:3TVSS0C0E27Y43JO07GZN1VE20FWT1", "dateTime": 1516040801786}, {"current_trial": 252, "trialdata": {"rt": -1, "trial_type": "single-stim", "stimulus": "<p id=\"stim\">+</p>", "internal_node_id": "0.0-180.0-0.0", "time_elapsed": 1113898, "key_press": -1, "type": "FIXATION", "trial_index": 252}, "uniqueid": "MTK1601:3TVSS0C0E27Y43JO07GZN1VE20FWT1", "dateTime": 1516040803288}, {"current_trial": 253, "trialdata": {"rt": -1, "trial_type": "single-stim", "word": "typist", "stimulus": "<p id=\"stim\">TYPIST</p>", "conditions": [24, 1600, "v", 12000], "internal_node_id": "0.0-181.0", "trial": 7, "time_elapsed": 1115499, "serialpos": 0, "key_press": -1, "wordID": 1531, "type": "PRES_VIS", "trial_index": 253}, "uniqueid": "MTK1601:3TVSS0C0E27Y43JO07GZN1VE20FWT1", "dateTime": 1516040804889}, {"current_trial": 254, "trialdata": {"rt": -1, "trial_type": "single-stim", "word": "vagrant", "stimulus": "<p id=\"stim\">VAGRANT</p>", "conditions": [24, 1600, "v", 12000], "internal_node_id": "0.0-182.0", "trial": 7, "time_elapsed": 1118168, "serialpos": 1, "key_press": -1, "wordID": 1543, "type": "PRES_VIS", "trial_index": 254}, "uniqueid": "MTK1601:3TVSS0C0E27Y43JO07GZN1VE20FWT1", "dateTime": 1516040807558}, {"current_trial": 255, "trialdata": {"rt": -1, "trial_type": "single-stim", "word": "canal", "stimulus": "<p id=\"stim\">CANAL</p>", "conditions": [24, 1600, "v", 12000], "internal_node_id": "0.0-183.0", "trial": 7, "time_elapsed": 1120693, "serialpos": 2, "key_press": -1, "wordID": 225, "type": "PRES_VIS", "trial_index": 255}, "uniqueid": "MTK1601:3TVSS0C0E27Y43JO07GZN1VE20FWT1", "dateTime": 1516040810083}, {"current_trial": 256, "trialdata": {"rt": -1, "trial_type": "single-stim", "word": "clamp", "stimulus": "<p id=\"stim\">CLAMP</p>", "conditions": [24, 1600, "v", 12000], "internal_node_id": "0.0-184.0", "trial": 7, "time_elapsed": 1123116, "serialpos": 3, "key_press": -1, "wordID": 315, "type": "PRES_VIS", "trial_index": 256}, "uniqueid": "MTK1601:3TVSS0C0E27Y43JO07GZN1VE20FWT1", "dateTime": 1516040812506}, {"current_trial": 257, "trialdata": {"rt": -1, "trial_type": "single-stim", "word": "ketchup", "stimulus": "<p id=\"stim\">KETCHUP</p>", "conditions": [24, 1600, "v", 12000], "internal_node_id": "0.0-185.0", "trial": 7, "time_elapsed": 1125761, "serialpos": 4, "key_press": -1, "wordID": 770, "type": "PRES_VIS", "trial_index": 257}, "uniqueid": "MTK1601:3TVSS0C0E27Y43JO07GZN1VE20FWT1", "dateTime": 1516040815151}, {"current_trial": 258, "trialdata": {"rt": -1, "trial_type": "single-stim", "word": "comet", "stimulus": "<p id=\"stim\">COMET</p>", "conditions": [24, 1600, "v", 12000], "internal_node_id": "0.0-186.0", "trial": 7, "time_elapsed": 1128451, "serialpos": 5, "key_press": -1, "wordID": 352, "type": "PRES_VIS", "trial_index": 258}, "uniqueid": "MTK1601:3TVSS0C0E27Y43JO07GZN1VE20FWT1", "dateTime": 1516040817841}, {"current_trial": 259, "trialdata": {"rt": -1, "trial