{"assignmentId": "3ATTHHXXWBVNKP83G0DHBD7C1ZRIXE", "workerId": "MTK1648", "questiondata": {"origin": "Uzbekistan", "strat-rehearsal": "80", "marital": "Married/Domestic Partnership", "education": "Bachelor's degree", "ethnicity": "Not Hispanic", "color_depth": 24, "distracted": "No", "wrote-notes": "No", "strat-other": "", "screen_width": 1920, "avail_screen_width": 1920, "avail_screen_height": 1160, "strat-image": "89", "language": "Russian", "gender": "Female", "age": "31", "gender_other": "", "race": ["Asian"], "strat-categorize": "87", "pixel_depth": 24, "strat-spatial": "58", "strat-story": "89", "race_other": "", "screen_height": 1200}, "bonus": 0, "hitId": "3Z33IC0JC0T0IFCBMP1KLFF4KHL9VH", "counterbalance": 50, "useragent": "Mozilla/5.0 (Windows NT 6.1; Win64; x64) AppleWebKit/537.36 (KHTML, like Gecko) Chrome/63.0.3239.132 Safari/537.36", "eventdata": [{"eventtype": "initialized", "interval": 0, "value": null, "timestamp": 1516120391999}, {"eventtype": "window_resize", "interval": 0, "value": [1920, 1154], "timestamp": 1516120391999}, {"eventtype": "focus", "interval": 181923, "value": "off", "timestamp": 1516120573922}, {"eventtype": "focus", "interval": 6337, "value": "on", "timestamp": 1516120580259}], "data": [{"current_trial": 0, "trialdata": {"rt": 5288, "trial_type": "text", "internal_node_id": "0.0-0.0", "time_elapsed": 5291, "key_press": 32, "type": "INSTRUCTIONS", "trial_index": 0}, "uniqueid": "MTK1648:3ATTHHXXWBVNKP83G0DHBD7C1ZRIXE", "dateTime": 1516120397665}, {"current_trial": 1, "trialdata": {"rt": 8302, "trial_type": "text", "internal_node_id": "0.0-1.0", "time_elapsed": 13595, "key_press": 32, "type": "INSTRUCTIONS", "trial_index": 1}, "uniqueid": "MTK1648:3ATTHHXXWBVNKP83G0DHBD7C1ZRIXE", "dateTime": 1516120405969}, {"current_trial": 2, "trialdata": {"rt": [9003], "trial_type": "audio-test", "responses": ["ocean"], "internal_node_id": "0.0-2.0", "time_elapsed": 22619, "type": "AUDIO_TEST", "trial_index": 2}, "uniqueid": "MTK1648:3ATTHHXXWBVNKP83G0DHBD7C1ZRIXE", "dateTime": 1516120414993}, {"current_trial": 3, "trialdata": {"rt": [7052], "trial_type": "audio-test", "responses": ["crystal"], "internal_node_id": "0.0-3.0", "time_elapsed": 29675, "type": "AUDIO_TEST", "trial_index": 3}, "uniqueid": "MTK1648:3ATTHHXXWBVNKP83G0DHBD7C1ZRIXE", "dateTime": 1516120422049}, {"current_trial": 4, "trialdata": {"rt": [5676], "trial_type": "audio-test", "responses": ["spice"], "internal_node_id": "0.0-4.0", "time_elapsed": 35355, "type": "AUDIO_TEST", "trial_index": 4}, "uniqueid": "MTK1648:3ATTHHXXWBVNKP83G0DHBD7C1ZRIXE", "dateTime": 1516120427729}, {"current_trial": 5, "trialdata": {"rt": 15889, "trial_type": "survey-text", "responses": "{\"Q0\":\"10 pm\",\"Q1\":\"6 am\",\"Q2\":\"4\"}", "internal_node_id": "0.0-5.0", "time_elapsed": 51996, "type": "SLEEP_SURVEY", "trial_index": 5}, "uniqueid": "MTK1648:3ATTHHXXWBVNKP83G0DHBD7C1ZRIXE", "dateTime": 1516120444370}, {"current_trial": 6, "trialdata": {"rt": 3157, "trial_type": "text", "internal_node_id": "0.0-6.0", "time_elapsed": 56154, "key_press": 32, "type": "INSTRUCTIONS", "trial_index": 6}, "uniqueid": "MTK1648:3ATTHHXXWBVNKP83G0DHBD7C1ZRIXE", "dateTime": 1516120448528}, {"current_trial": 7, "trialdata": {"rt": 3692, "trial_type": "text", "internal_node_id": "0.0-7.0", "time_elapsed": 60346, "key_press": 32, "type": "INSTRUCTIONS", "trial_index": 7}, "uniqueid": "MTK1648:3ATTHHXXWBVNKP83G0DHBD7C1ZRIXE", "dateTime": 1516120452720}, {"current_trial": 8, "trialdata": {"rt": 6124, "trial_type": "text", "internal_node_id": "0.0-8.0", "time_elapsed": 66970, "key_press": 32, "type": "INSTRUCTIONS", "trial_index": 8}, "uniqueid": "MTK1648:3ATTHHXXWBVNKP83G0DHBD7C1ZRIXE", "dateTime": 1516120459345}, {"current_trial": 9, "trialdata": {"rt": [2196, 6772, 8372, 11030, 13286, 15270], "trial_type": "math-distractor", "key_times": [1461, 1572, 2196, 6084, 6244, 6772, 7924, 8116, 8372, 10662, 10838, 11030, 12310, 13030, 13286, 14870, 15046, 15270, 17654], "responses": ["10", "16", "12", "11", "14", "11"], "num2": [2, 5, 6, 5, 4, 1, 6], "num3": [4, 3, 2, 2, 5, 2, 8], "conditions": [18, 1200, "v", 18000], "internal_node_id": "0.0-9.0", "key_presses": [97, 96, 13, 97, 102, 13, 97, 98, 13, 97, 97, 13, 97, 100, 13, 97, 97, 13, 97], "trial": 0, "time_elapsed": 85975, "type": "DISTRACTOR", "trial_index": 9, "num1": [4, 8, 4, 4, 5, 7, 1]}, "uniqueid": "MTK1648:3ATTHHXXWBVNKP83G0DHBD7C1ZRIXE", "dateTime": 1516120478349}, {"current_trial": 10, "trialdata": {"rt": -1, "trial_type": "single-stim", "stimulus": "<p id=\"stim\">10</p>", "internal_node_id": "0.0-10.0-0.0", "time_elapsed": 88975, "key_press": -1, "trial_index": 10}, "uniqueid": "MTK1648:3ATTHHXXWBVNKP83G0DHBD7C1ZRIXE", "dateTime": 1516120481350}, {"current_trial": 11, "trialdata": {"rt": -1, "trial_type": "single-stim", "stimulus": "<p id=\"stim\">9</p>", "internal_node_id": "0.0-10.0-1.0", "time_elapsed": 89976, "key_press": -1, "trial_index": 11}, "uniqueid": "MTK1648:3ATTHHXXWBVNKP83G0DHBD7C1ZRIXE", "dateTime": 1516120482350}, {"current_trial": 12, "trialdata": {"rt": -1, "trial_type": "single-stim", "stimulus": "<p id=\"stim\">8</p>", "internal_node_id": "0.0-10.0-2.0", "time_elapsed": 90976, "key_press": -1, "trial_index": 12}, "uniqueid": "MTK1648:3ATTHHXXWBVNKP83G0DHBD7C1ZRIXE", "dateTime": 1516120483350}, {"current_trial": 13, "trialdata": {"rt": -1, "trial_type": "single-stim", "stimulus": "<p id=\"stim\">7</p>", "internal_node_id": "0.0-10.0-3.0", "time_elapsed": 91977, "key_press": -1, "trial_index": 13}, "uniqueid": "MTK1648:3ATTHHXXWBVNKP83G0DHBD7C1ZRIXE", "dateTime": 1516120484351}, {"current_trial": 14, "trialdata": {"rt": -1, "trial_type": "single-stim", "stimulus": "<p id=\"stim\">6</p>", "internal_node_id": "0.0-10.0-4.0", "time_elapsed": 92979, "key_press": -1, "trial_index": 14}, "uniqueid": "MTK1648:3ATTHHXXWBVNKP83G0DHBD7C1ZRIXE", "dateTime": 1516120485353}, {"current_trial": 15, "trialdata": {"rt": -1, "trial_type": "single-stim", "stimulus": "<p id=\"stim\">5</p>", "internal_node_id": "0.0-10.0-5.0", "time_elapsed": 93979, "key_press": -1, "trial_index": 15}, "uniqueid": "MTK1648:3ATTHHXXWBVNKP83G0DHBD7C1ZRIXE", "dateTime": 1516120486353}, {"current_trial": 16, "trialdata": {"rt": -1, "trial_type": "single-stim", "stimulus": "<p id=\"stim\">4</p>", "internal_node_id": "0.0-10.0-6.0", "time_elapsed": 94979, "key_press": -1, "trial_index": 16}, "uniqueid": "MTK1648:3ATTHHXXWBVNKP83G0DHBD7C1ZRIXE", "dateTime": 1516120487353}, {"current_trial": 17, "trialdata": {"rt": -1, "trial_type": "single-stim", "stimulus": "<p id=\"stim\">3</p>", "internal_node_id": "0.0-10.0-7.0", "time_elapsed": 95980, "key_press": -1, "trial_index": 17}, "uniqueid": "MTK1648:3ATTHHXXWBVNKP83G0DHBD7C1ZRIXE", "dateTime": 1516120488354}, {"current_trial": 18, "trialdata": {"rt": -1, "trial_type": "single-stim", "stimulus": "<p id=\"stim\">2</p>", "internal_node_id": "0.0-10.0-8.0", "time_elapsed": 96980, "key_press": -1, "trial_index": 18}, "uniqueid": "MTK1648:3ATTHHXXWBVNKP83G0DHBD7C1ZRIXE", "dateTime": 1516120489354}, {"current_trial": 19, "trialdata": {"rt": -1, "trial_type": "single-stim", "stimulus": "<p id=\"stim\">1</p>", "internal_node_id": "0.0-10.0-9.0", "time_elapsed": 97980, "key_press": -1, "trial_index": 19}, "uniqueid": "MTK1648:3ATTHHXXWBVNKP83G0DHBD7C1ZRIXE", "dateTime": 1516120490354}, {"current_trial": 20, "trialdata": {"rt": -1, "trial_type": "single-stim", "stimulus": "<p id=\"stim\">+</p>", "internal_node_id": "0.0-11.0-0.0", "time_elapsed": 99480, "key_press": -1, "type": "FIXATION", "trial_index": 20}, "uniqueid": "MTK1648:3ATTHHXXWBVNKP83G0DHBD7C1ZRIXE", "dateTime": 1516120491854}, {"current_trial": 21, "trialdata": {"rt": -1, "trial_type": "single-stim", "word": "barley", "stimulus": "<p id=\"stim\">BARLEY</p>", "conditions": [18, 1200, "v", 18000], "internal_node_id": "0.0-12.0", "trial": 0, "time_elapsed": 100680, "serialpos": 0, "key_press": -1, "wordID": 87, "type": "PRES_VIS", "trial_index": 21}, "uniqueid": "MTK1648:3ATTHHXXWBVNKP83G0DHBD7C1ZRIXE", "dateTime": 1516120493054}, {"current_trial": 22, "trialdata": {"rt": -1, "trial_type": "single-stim", "word": "sibling", "stimulus": "<p id=\"stim\">SIBLING</p>", "conditions": [18, 1200, "v", 18000], "internal_node_id": "0.0-13.0", "trial": 0, "time_elapsed": 102898, "serialpos": 1, "key_press": -1, "wordID": 1300, "type": "PRES_VIS", "trial_index": 22}, "uniqueid": "MTK1648:3ATTHHXXWBVNKP83G0DHBD7C1ZRIXE", "dateTime": 1516120495272}, {"current_trial": 23, "trialdata": {"rt": -1, "trial_type": "single-stim", "word": "victim", "stimulus": "<p id=\"stim\">VICTIM</p>", "conditions": [18, 1200, "v", 18000], "internal_node_id": "0.0-14.0", "trial": 0, "time_elapsed": 105243, "serialpos": 2, "key_press": -1, "wordID": 1561, "type": "PRES_VIS", "trial_index": 23}, "uniqueid": "MTK1648:3ATTHHXXWBVNKP83G0DHBD7C1ZRIXE", "dateTime": 1516120497617}, {"current_trial": 24, "trialdata": {"rt": -1, "trial_type": "single-stim", "word": "server", "stimulus": "<p id=\"stim\">SERVER</p>", "conditions": [18, 1200, "v", 18000], "internal_node_id": "0.0-15.0", "trial": 0, "time_elapsed": 107343, "serialpos": 3, "key_press": -1, "wordID": 1271, "type": "PRES_VIS", "trial_index": 24}, "uniqueid": "MTK1648:3ATTHHXXWBVNKP83G0DHBD7C1ZRIXE", "dateTime": 1516120499717}, {"current_trial": 25, "trialdata": {"rt": -1, "trial_type": "single-stim", "word": "trombone", "stimulus": "<p id=\"stim\">TROMBONE</p>", "conditions": [18, 1200, "v", 18000], "internal_node_id": "0.0-16.0", "trial": 0, "time_elapsed": 109464, "serialpos": 4, "key_press": -1, "wordID": 1507, "type": "PRES_VIS", "trial_index": 25}, "uniqueid": "MTK1648:3ATTHHXXWBVNKP83G0DHBD7C1ZRIXE", "dateTime": 1516120501838}, {"current_trial": 26, "trialdata": {"rt": -1, "trial_type": "single-stim", "word": "braces", "stimulus": "<p id=\"stim\">BRACES</p>", "conditions": [18, 1200, "v", 18000], "internal_node_id": "0.0-17.0", "trial": 0, "time_elapsed": 111528, "serialpos": 5, "key_press": -1, "wordID": 163, "type": "PRES_VIS", "trial_index": 26}, "uniqueid": "MTK1648:3ATTHHXXWBVNKP83G0DHBD7C1ZRIXE", "dateTime": 1516120503902}, {"current_trial": 27, "trialdata": {"rt": -1, "trial_type": "single-stim", "word": "picnic", "stimulus": "<p id=\"stim\">PICNIC</p>", "conditions": [18, 1200, "v", 18000], "internal_node_id": "0.0-18.0", "trial": 0, "time_elapsed": 113686, "serialpos": 6, "key_press": -1, "wordID": 1059, "type": "PRES_VIS", "trial_index": 27}, "uniqueid": "MTK1648:3ATTHHXXWBVNKP83G0DHBD7C1ZRIXE", "dateTime": 1516120506060}, {"current_trial": 28, "trialdata": {"rt": -1, "trial_type": "single-stim", "word": "bullet", "stimulus": "<p id=\"stim\">BULLET</p>", "conditions": [18, 1200, "v", 18000], "internal_node_id": "0.0-19.0", "trial": 0, "time_elapsed": 115998, "serialpos": 7, "key_press": -1, "wordID": 193, "type": "PRES_VIS", "trial_index": 28}, "uniqueid": "MTK1648:3ATTHHXXWBVNKP83G0DHBD7C1ZRIXE", "dateTime": 1516120508372}, {"current_trial": 29, "trialdata": {"rt": -1, "trial_type": "single-stim", "word": "sausage", "stimulus": "<p id=\"stim\">SAUSAGE</p>", "conditions": [18, 1200, "v", 18000], "internal_node_id": "0.0-20.0", "trial": 0, "time_elapsed": 118396, "serialpos": 8, "key_press": -1, "wordID": 1237, "type": "PRES_VIS", "trial_index": 29}, "uniqueid": "MTK1648:3ATTHHXXWBVNKP83G0DHBD7C1ZRIXE", "dateTime": 1516120510770}, {"current_trial": 30, "trialdata": {"rt": -1, "trial_type": "single-stim", "word": "brandy", "stimulus": "<p id=\"stim\">BRANDY</p>", "conditions": [18, 1200, "v", 18000], "internal_node_id": "0.0-21.0", "trial": 0, "time_elapsed": 120599, "serialpos": 9, "key_press": -1, "wordID": 168, "type": "PRES_VIS", "trial_index": 30}, "uniqueid": "MTK1648:3ATTHHXXWBVNKP83G0DHBD7C1ZRIXE", "dateTime": 1516120512973}, {"current_trial": 31, "trialdata": {"rt": -1, "trial_type": "single-stim", "word": "scarecrow", "stimulus": "<p id=\"stim\">SCARECROW</p>", "conditions": [18, 1200, "v", 18000], "internal_node_id": "0.0-22.0", "trial": 0, "time_elapsed": 122989, "serialpos": 10, "key_press": -1, "wordID": 1244, "type": "PRES_VIS", "trial_index": 31}, "uniqueid": "MTK1648:3ATTHHXXWBVNKP83G0DHBD7C1ZRIXE", "dateTime": 1516120515363}, {"current_trial": 32, "trialdata": {"rt": -1, "trial_type": "single-stim", "word": "glass", "stimulus": "<p id=\"stim\">GLASS</p>", "conditions": [18, 1200, "v", 18000], "internal_node_id": "0.0-23.0", "trial": 0, "time_elapsed": 125284, "serialpos": 11, "key_press": -1, "wordID": 638, "type": "PRES_VIS", "trial_index": 32}, "uniqueid": "MTK1648:3ATTHHXXWBVNKP83G0DHBD7C1ZRIXE", "dateTime": 1516120517658}, {"current_trial": 33, "trialdata": {"rt": -1, "trial_type": "single-stim", "word": "crater", "stimulus": "<p id=\"stim\">CRATER</p>", "conditions": [18, 1200, "v", 18000], "internal_node_id": "0.0-24.0", "trial": 0, "time_elapsed": 127435, "serialpos": 12, "key_press": -1, "wordID": 399, "type": "PRES_VIS", "trial_index": 33}, "uniqueid": "MTK1648:3ATTHHXXWBVNKP83G0DHBD7C1ZRIXE", "dateTime": 1516120519809}, {"current_trial": 34, "trialdata": {"rt": -1, "trial_type": "single-stim", "word": "dime", "stimulus": "<p id=\"stim\">DIME</p>", "conditions": [18, 1200, "v", 18000], "internal_node_id": "0.0-25.0", "trial": 0, "time_elapsed": 129650, "serialpos": 13, "key_press": -1, "wordID": 465, "type": "PRES_VIS", "trial_index": 34}, "uniqueid": "MTK1648:3ATTHHXXWBVNKP83G0DHBD7C1ZRIXE", "dateTime": 1516120522024}, {"current_trial": 35, "trialdata": {"rt": -1, "trial_type": "single-stim", "word": "cross", "stimulus": "<p id=\"stim\">CROSS</p>", "conditions": [18, 1200, "v", 18000], "internal_node_id": "0.0-26.0", "trial": 0, "time_elapsed": 131749, "serialpos": 14, "key_press": -1, "wordID": 412, "type": "PRES_VIS", "trial_index": 35}, "uniqueid": "MTK1648:3ATTHHXXWBVNKP83G0DHBD7C1ZRIXE", "dateTime": 1516120524123}, {"current_trial": 36, "trialdata": {"rt": -1, "trial_type": "single-stim", "word": "forest", "stimulus": "<p id=\"stim\">FOREST</p>", "conditions": [18, 1200, "v", 18000], "internal_node_id": "0.0-27.0", "trial": 0, "time_elapsed": 133922, "serialpos": 15, "key_press": -1, "wordID": 592, "type": "PRES_VIS", "trial_index": 36}, "uniqueid": "MTK1648:3ATTHHXXWBVNKP83G0DHBD7C1ZRIXE", "dateTime": 1516120526296}, {"current_trial": 37, "trialdata": {"rt": -1, "trial_type": "single-stim", "word": "gift", "stimulus": "<p id=\"stim\">GIFT</p>", "conditions": [18, 1200, "v", 18000], "internal_node_id": "0.0-28.0", "trial": 0, "time_elapsed": 136240, "serialpos": 16, "key_press": -1, "wordID": 634, "type": "PRES_VIS", "trial_index": 37}, "uniqueid": "MTK1648:3ATTHHXXWBVNKP83G0DHBD7C1ZRIXE", "dateTime": 1516120528614}, {"current_trial": 38, "trialdata": {"rt": -1, "trial_type": "single-stim", "word": "velvet", "stimulus": "<p id=\"stim\">VELVET</p>", "conditions": [18, 1200, "v", 18000], "internal_node_id": "0.0-29.0", "trial": 0, "time_elapsed": 138434, "serialpos": 17, "key_press": -1, "wordID": 1554, "type": "PRES_VIS", "trial_index": 38}, "uniqueid": "MTK1648:3ATTHHXXWBVNKP83G0DHBD7C1ZRIXE", "dateTime": 1516120530808}, {"current_trial": 39, "trialdata": {"rt": -1, "trial_type": "single-stim", "stimulus": "", "internal_node_id": "0.0-30.0-0.0", "time_elapsed": 140919, "key_press": -1, "type": "PRE_RECALL_DELAY", "trial_index": 39}, "uniqueid": "MTK1648:3ATTHHXXWBVNKP83G0DHBD7C1ZRIXE", "dateTime": 1516120533293}, {"current_trial": 40, "trialdata": {"rt": -1000, "trial_type": "single-audio", "stimulus": "/static/audio/400Hz.wav", "internal_node_id": "0.0-31.0", "time_elapsed": 141420, "key_press": -1, "type": "PRE_RECALL_ALERT", "trial_index": 40}, "uniqueid": "MTK1648:3ATTHHXXWBVNKP83G0DHBD7C1ZRIXE", "dateTime": 1516120533794}, {"current_trial": 41, "trialdata": {"rt": [3291, 6300, 9180, 12140, 16827, 30508, 58716], "recwords": ["barley", "cross", "victim", "sibling", "diet", "crime", "schedule"], "key_times": [1388, 1579, 2011, 2251, 2507, 2955, 3291, 4043, 4763, 4939, 5291, 5499, 6300, 6748, 6988, 7180, 7628, 8012, 8252, 9180, 9500, 9820, 10092, 10300, 10604, 10828, 10956, 12140, 15451, 15643, 15931, 16075, 16827, 28188, 28524, 28940, 29244, 29708, 30508, 56123, 56363, 56683, 56859, 57083, 57275, 57723, 57883, 58716], "trial_type": "free-recall", "conditions": [18, 1200, "v", 18000], "internal_node_id": "0.0-32.0-0.0", "key_presses": [66, 65, 82, 76, 69, 89, 13, 67, 82, 79, 83, 83, 13, 86, 73, 67, 84, 73, 77, 13, 83, 73, 66, 76, 73, 78, 71, 13, 68, 73, 69, 84, 13, 67, 82, 73, 77, 69, 13, 83, 67, 72, 69, 68, 85, 76, 69, 13], "trial": 0, "time_elapsed": 201423, "type": "FREE_RECALL", "trial_index": 41}, "uniqueid": "MTK1648:3ATTHHXXWBVNKP83G0DHBD7C1ZRIXE", "dateTime": 1516120593799}, {"current_trial": 42, "trialdata": {"rt": 7448, "trial_type": "text", "internal_node_id": "0.0-33.0", "time_elapsed": 210874, "key_press": 13, "type": "INSTRUCTIONS", "trial_index": 42}, "uniqueid": "MTK1648:3ATTHHXXWBVNKP83G0DHBD7C1ZRIXE", "dateTime": 1516120603248}, {"current_trial": 43, "trialdata": {"rt": [2414, 6767, 11615, 14110, 16478], "trial_type": "math-distractor", "key_times": [1774, 1934, 2414, 3662, 3934, 5695, 6143, 6767, 10959, 11278, 11615, 13518, 13726, 14110, 15838, 16030, 16478], "responses": ["15", "14", "23", "16", "15"], "num2": [5, 4, 8, 5, 2, 6], "num3": [9, 6, 6, 4, 8, 5], "conditions": [18, 1200, "v", 18000], "internal_node_id": "0.0-34.0", "key_presses": [97, 101, 13, 97, 102, 8, 100, 13, 98, 99, 13, 97, 102, 13, 97, 101, 13], "trial": 1, "time_elapsed": 230875, "type": "DISTRACTOR", "trial_index": 43, "num1": [1, 4, 9, 7, 5, 6]}, "uniqueid": "MTK1648:3ATTHHXXWBVNKP83G0DHBD7C1ZRIXE", "dateTime": 1516120623250}, {"current_trial": 44, "trialdata": {"rt": -1, "trial_type": "single-stim", "stimulus": "<p id=\"stim\">10</p>", "internal_node_id": "0.0-35.0-0.0", "time_elapsed": 233876, "key_press": -1, "trial_index": 44}, "uniqueid": "MTK1648:3ATTHHXXWBVNKP83G0DHBD7C1ZRIXE", "dateTime": 1516120626250}, {"current_trial": 45, "trialdata": {"rt": -1, "trial_type": "single-stim", "stimulus": "<p id=\"stim\">9</p>", "internal_node_id": "0.0-35.0-1.0", "time_elapsed": 234876, "key_press": -1, "trial_index": 45}, "uniqueid": "MTK1648:3ATTHHXXWBVNKP83G0DHBD7C1ZRIXE", "dateTime": 1516120627250}, {"current_trial": 46, "trialdata": {"rt": -1, "trial_type": "single-stim", "stimulus": "<p id=\"stim\">8</p>", "internal_node_id": "0.0-35.0-2.0", "time_elapsed": 235876, "key_press": -1, "trial_index": 46}, "uniqueid": "MTK1648:3ATTHHXXWBVNKP83G0DHBD7C1ZRIXE", "dateTime": 1516120628250}, {"current_trial": 47, "trialdata": {"rt": -1, "trial_type": "single-stim", "stimulus": "<p id=\"stim\">7</p>", "internal_node_id": "0.0-35.0-3.0", "time_elapsed": 236877, "key_press": -1, "trial_index": 47}, "uniqueid": "MTK1648:3ATTHHXXWBVNKP83G0DHBD7C1ZRIXE", "dateTime": 1516120629251}, {"current_trial": 48, "trialdata": {"rt": -1, "trial_type": "single-stim", "stimulus": "<p id=\"stim\">6</p>", "internal_node_id": "0.0-35.0-4.0", "time_elapsed": 237877, "key_press": -1, "trial_index": 48}, "uniqueid": "MTK1648:3ATTHHXXWBVNKP83G0DHBD7C1ZRIXE", "dateTime": 1516120630251}, {"current_trial": 49, "trialdata": {"rt": -1, "trial_type": "single-stim", "stimulus": "<p id=\"stim\">5</p>", "internal_node_id": "0.0-35.0-5.0", "time_elapsed": 238877, "key_press": -1, "trial_index": 49}, "uniqueid": "MTK1648:3ATTHHXXWBVNKP83G0DHBD7C1ZRIXE", "dateTime": 1516120631251}, {"current_trial": 50, "trialdata": {"rt": -1, "trial_type": "single-stim", "stimulus": "<p id=\"stim\">4</p>", "internal_node_id": "0.0-35.0-6.0", "time_elapsed": 239877, "key_press": -1, "trial_index": 50}, "uniqueid": "MTK1648:3ATTHHXXWBVNKP83G0DHBD7C1ZRIXE", "dateTime": 1516120632251}, {"current_trial": 51, "trialdata": {"rt": -1, "trial_type": "single-stim", "stimulus": "<p id=\"stim\">3</p>", "internal_node_id": "0.0-35.0-7.0", "time_elapsed": 240878, "key_press": -1, "trial_index": 51}, "uniqueid": "MTK1648:3ATTHHXXWBVNKP83G0DHBD7C1ZRIXE", "dateTime": 1516120633252}, {"current_trial": 52, "trialdata": {"rt": -1, "trial_type": "single-stim", "stimulus": "<p id=\"stim\">2</p>", "internal_node_id": "0.0-35.0-8.0", "time_elapsed": 241878, "key_press": -1, "trial_index": 52}, "uniqueid": "MTK1648:3ATTHHXXWBVNKP83G0DHBD7C1ZRIXE", "dateTime": 1516120634252}, {"current_trial": 53, "trialdata": {"rt": -1, "trial_type": "single-stim", "stimulus": "<p id=\"stim\">1</p>", "internal_node_id": "0.0-35.0-9.0", "time_elapsed": 242878, "key_press": -1, "trial_index": 53}, "uniqueid": "MTK1648:3ATTHHXXWBVNKP83G0DHBD7C1ZRIXE", "dateTime": 1516120635252}, {"current_trial": 54, "trialdata": {"rt": -1, "trial_type": "single-stim", "stimulus": "<p id=\"stim\">+</p>", "internal_node_id": "0.0-36.0-0.0", "time_elapsed": 244378, "key_press": -1, "type": "FIXATION", "trial_index": 54}, "uniqueid": "MTK1648:3ATTHHXXWBVNKP83G0DHBD7C1ZRIXE", "dateTime": 1516120636752}, {"current_trial": 55, "trialdata": {"rt": -1, "trial_type": "single-stim", "word": "turtle", "stimulus": "<p id=\"stim\">TURTLE</p>", "conditions": [18, 1200, "v", 18000], "internal_node_id": "0.0-37.0", "trial": 1, "time_elapsed": 245578, "serialpos": 0, "key_press": -1, "wordID": 1521, "type": "PRES_VIS", "trial_index": 55}, "uniqueid": "MTK1648:3ATTHHXXWBVNKP83G0DHBD7C1ZRIXE", "dateTime": 1516120637952}, {"current_trial": 56, "trialdata": {"rt": -1, "trial_type": "single-stim", "word": "playground", "stimulus": "<p id=\"stim\">PLAYGROUND</p>", "conditions": [18, 1200, "v", 18000], "internal_node_id": "0.0-38.0", "trial": 1, "time_elapsed": 247755, "serialpos": 1, "key_press": -1, "wordID": 1086, "type": "PRES_VIS", "trial_index": 56}, "uniqueid": "MTK1648:3ATTHHXXWBVNKP83G0DHBD7C1ZRIXE", "dateTime": 1516120640129}, {"current_trial": 57, "trialdata": {"rt": -1, "trial_type": "single-stim", "word": "lapel", "stimulus": "<p id=\"stim\">LAPEL</p>", "conditions": [18, 1200, "v", 18000], "internal_node_id": "0.0-39.0", "trial": 1, "time_elapsed": 249962, "serialpos": 2, "key_press": -1, "wordID": 799, "type": "PRES_VIS", "trial_index": 57}, "uniqueid": "MTK1648:3ATTHHXXWBVNKP83G0DHBD7C1ZRIXE", "dateTime": 1516120642336}, {"current_trial": 58, "trialdata": {"rt": -1, "trial_type": "single-stim", "word": "marrow", "stimulus": "<p id=\"stim\">MARROW</p>", "conditions": [18, 1200, "v", 18000], "internal_node_id": "0.0-40.0", "trial": 1, "time_elapsed": 252272, "serialpos": 3, "key_press": -1, "wordID": 871, "type": "PRES_VIS", "trial_index": 58}, "uniqueid": "MTK1648:3ATTHHXXWBVNKP83G0DHBD7C1ZRIXE", "dateTime": 1516120644646}, {"current_trial": 59, "trialdata": {"rt": -1, "trial_type": "single-stim", "word": "seafood", "stimulus": "<p id=\"stim\">SEAFOOD</p>", "conditions": [18, 1200, "v", 18000], "internal_node_id": "0.0-41.0", "trial": 1, "time_elapsed": 254447, "serialpos": 4, "key_press": -1, "wordID": 1259, "type": "PRES_VIS", "trial_index": 59}, "uniqueid": "MTK1648:3ATTHHXXWBVNKP83G0DHBD7C1ZRIXE", "dateTime": 1516120646821}, {"current_trial": 60, "trialdata": {"rt": -1, "trial_type": "single-stim", "word": "portrait", "stimulus": "<p id=\"stim\">PORTRAIT</p>", "conditions": [18, 1200, "v", 18000], "internal_node_id": "0.0-42.0", "trial": 1, "time_elapsed": 256497, "serialpos": 5, "key_press": -1, "wordID": 1110, "type": "PRES_VIS", "trial_index": 60}, "uniqueid": "MTK1648:3ATTHHXXWBVNKP83G0DHBD7C1ZRIXE", "dateTime": 1516120648871}, {"current_trial": 61, "trialdata": {"rt": -1, "trial_type": "single-stim", "word": "nurse", "stimulus": "<p id=\"stim\">NURSE</p>", "conditions": [18, 1200, "v", 18000], "internal_node_id": "0.0-43.0", "trial": 1, "time_elapsed": 258655, "serialpos": 6, "key_press": -1, "wordID": 962, "type": "PRES_VIS", "trial_index": 61}, "uniqueid": "MTK1648:3ATTHHXXWBVNKP83G0DHBD7C1ZRIXE", "dateTime": 1516120651029}, {"current_trial": 62, "trialdata": {"rt": -1, "trial_type": "single-stim", "word": "bunny", "stimulus": "<p id=\"stim\">BUNNY</p>", "conditions": [18, 1200, "v", 18000], "internal_node_id": "0.0-44.0", "trial": 1, "time_elapsed": 261020, "serialpos": 7, "key_press": -1, "wordID": 197, "type": "PRES_VIS", "trial_index": 62}, "uniqueid": "MTK1648:3ATTHHXXWBVNKP83G0DHBD7C1ZRIXE", "dateTime": 1516120653394}, {"current_trial": 63, "trialdata": {"rt": -1, "trial_type": "single-stim", "word": "seagull", "stimulus": "<p id=\"stim\">SEAGULL</p>", "conditions": [18, 1200, "v", 18000], "internal_node_id": "0.0-45.0", "trial": 1, "time_elapsed": 263229, "serialpos": 8, "key_press": -1, "wordID": 1260, "type": "PRES_VIS", "trial_index": 63}, "uniqueid": "MTK1648:3ATTHHXXWBVNKP83G0DHBD7C1ZRIXE", "dateTime": 1516120655603}, {"current_trial": 64, "trialdata": {"rt": -1, "trial_type": "single-stim", "word": "cashier", "stimulus": "<p id=\"stim\">CASHIER</p>", "conditions": [18, 1200, "v", 18000], "internal_node_id": "0.0-46.0", "trial": 1, "time_elapsed": 265519, "serialpos": 9, "key_press": -1, "wordID": 253, "type": "PRES_VIS", "trial_index": 64}, "uniqueid": "MTK1648:3ATTHHXXWBVNKP83G0DHBD7C1ZRIXE", "dateTime": 1516120657893}, {"current_trial": 65, "trialdata": {"rt": -1, "trial_type": "single-stim", "word": "padding", "stimulus": "<p id=\"stim\">PADDING</p>", "conditions": [18, 1200, "v", 18000], "internal_node_id": "0.0-47.0", "trial": 1, "time_elapsed": 267892, "serialpos": 10, "key_press": -1, "wordID": 998, "type": "PRES_VIS", "trial_index": 65}, "uniqueid": "MTK1648:3ATTHHXXWBVNKP83G0DHBD7C1ZRIXE", "dateTime": 1516120660266}, {"current_trial": 66, "trialdata": {"rt": -1, "trial_type": "single-stim", "word": "truck", "stimulus": "<p id=\"stim\">TRUCK</p>", "conditions": [18, 1200, "v", 18000], "internal_node_id": "0.0-48.0", "trial": 1, "time_elapsed": 270003, "serialpos": 11, "key_press": -1, "wordID": 1511, "type": "PRES_VIS", "trial_index": 66}, "uniqueid": "MTK1648:3ATTHHXXWBVNKP83G0DHBD7C1ZRIXE", "dateTime": 1516120662377}, {"current_trial": 67, "trialdata": {"rt": -1, "trial_type": "single-stim", "word": "fruit", "stimulus": "<p id=\"stim\">FRUIT</p>", "conditions": [18, 1200, "v", 18000], "internal_node_id": "0.0-49.0", "trial": 1, "time_elapsed": 272195, "serialpos": 12, "key_press": -1, "wordID": 609, "type": "PRES_VIS", "trial_index": 67}, "uniqueid": "MTK1648:3ATTHHXXWBVNKP83G0DHBD7C1ZRIXE", "dateTime": 1516120664569}, {"current_trial": 68, "trialdata": {"rt": -1, "trial_type": "single-stim", "word": "author", "stimulus": "<p id=\"stim\">AUTHOR</p>", "conditions": [18, 1200, "v", 18000], "internal_node_id": "0.0-50.0", "trial": 1, "time_elapsed": 274510, "serialpos": 13, "key_press": -1, "wordID": 60, "type": "PRES_VIS", "trial_index": 68}, "uniqueid": "MTK1648:3ATTHHXXWBVNKP83G0DHBD7C1ZRIXE", "dateTime": 1516120666886}, {"current_trial": 69, "trialdata": {"rt": -1, "trial_type": "single-stim", "word": "tombstone", "stimulus": "<p id=\"stim\">TOMBSTONE</p>", "conditions": [18, 1200, "v", 18000], "internal_node_id": "0.0-51.0", "trial": 1, "time_elapsed": 276566, "serialpos": 14, "key_press": -1, "wordID": 1477, "type": "PRES_VIS", "trial_index": 69}, "uniqueid": "MTK1648:3ATTHHXXWBVNKP83G0DHBD7C1ZRIXE", "dateTime": 1516120668940}, {"current_trial": 70, "trialdata": {"rt": -1, "trial_type": "single-stim", "word": "teacher", "stimulus": "<p id=\"stim\">TEACHER</p>", "conditions": [18, 1200, "v", 18000], "internal_node_id": "0.0-52.0", "trial": 1, "time_elapsed": 278585, "serialpos": 15, "key_press": -1, "wordID": 1439, "type": "PRES_VIS", "trial_index": 70}, "uniqueid": "MTK1648:3ATTHHXXWBVNKP83G0DHBD7C1ZRIXE", "dateTime": 1516120670959}, {"current_trial": 71, "trialdata": {"rt": -1, "trial_type": "single-stim", "word": "beef", "stimulus": "<p id=\"stim\">BEEF</p>", "conditions": [18, 1200, "v", 18000], "internal_node_id": "0.0-53.0", "trial": 1, "time_elapsed": 280954, "serialpos": 16, "key_press": -1, "wordID": 112, "type": "PRES_VIS", "trial_index": 71}, "uniqueid": "MTK1648:3ATTHHXXWBVNKP83G0DHBD7C1ZRIXE", "dateTime": 1516120673328}, {"current_trial": 72, "trialdata": {"rt": -1, "trial_type": "single-stim", "word": "jury", "stimulus": "<p id=\"stim\">JURY</p>", "conditions": [18, 1200, "v", 18000], "internal_node_id": "0.0-54.0", "trial": 1, "time_elapsed": 283083, "serialpos": 17, "key_press": -1, "wordID": 765, "type": "PRES_VIS", "trial_index": 72}, "uniqueid": "MTK1648:3ATTHHXXWBVNKP83G0DHBD7C1ZRIXE", "dateTime": 1516120675457}, {"current_trial": 73, "trialdata": {"rt": -1, "trial_type": "single-stim", "stimulus": "", "internal_node_id": "0.0-55.0-0.0", "time_elapsed": 285289, "key_press": -1, "type": "PRE_RECALL_DELAY", "trial_index": 73}, "uniqueid": "MTK1648:3ATTHHXXWBVNKP83G0DHBD7C1ZRIXE", "dateTime": 1516120677663}, {"current_trial": 74, "trialdata": {"rt": -1000, "trial_type": "single-audio", "stimulus": "/static/audio/400Hz.wav", "internal_node_id": "0.0-56.0", "time_elapsed": 285790, "key_press": -1, "type": "PRE_RECALL_ALERT", "trial_index": 74}, "uniqueid": "MTK1648:3ATTHHXXWBVNKP83G0DHBD7C1ZRIXE", "dateTime": 1516120678164}, {"current_trial": 75, "trialdata": {"rt": [2682, 4570, 8442, 11049, 13913, 17465, 25466, 35705, 39930], "recwords": ["juty", "beef", "tombstone", "nurse", "cashier", "seafood", "portrait", "turtle", "playground"], "key_times": [1433, 1626, 2122, 2250, 2682, 3034, 3514, 3674, 3882, 4570, 5114, 5322, 5578, 5994, 6570, 7018, 7226, 7610, 8122, 8442, 8890, 9146, 9370, 9946, 10105, 11049, 11337, 11610, 11769, 12249, 12505, 12825, 12953, 13913, 14265, 14409, 14729, 15065, 15465, 15673, 15929, 17465, 21754, 22026, 22314, 22682, 22810, 23402, 23706, 23930, 25466, 33273, 33497, 33993, 34329, 34667, 35337, 35705, 36281, 36538, 36778, 37402, 37898, 38234, 38442, 38762, 39034, 39722, 39930], "trial_type": "free-recall", "conditions": [18, 1200, "v", 18000], "internal_node_id": "0.0-57.0-0.0", "key_presses": [74, 85, 84, 89, 13, 66, 69, 69, 70, 13, 84, 79, 77, 66, 83, 84, 79, 78, 69, 13, 78, 85, 82, 83, 69, 13, 67, 65, 83, 72, 73, 69, 82, 13, 83, 69, 65, 70, 79, 79, 68, 13, 80, 79, 82, 84, 82, 65, 73, 84, 13, 84, 85, 82, 84, 76, 69, 13, 80, 76, 65, 89, 71, 82, 79, 85, 78, 68, 13], "trial": 1, "time_elapsed": 345792, "type": "FREE_RECALL", "trial_index": 75}, "uniqueid": "MTK1648:3ATTHHXXWBVNKP83G0DHBD7C1ZRIXE", "dateTime": 1516120738168}, {"current_trial": 76, "trialdata": {"rt": 4120, "trial_type": "text", "internal_node_id": "0.0-58.0", "time_elapsed": 351914, "key_press": 13, "type": "INSTRUCTIONS", "trial_index": 76}, "uniqueid": "MTK1648:3ATTHHXXWBVNKP83G0DHBD7C1ZRIXE", "dateTime": 1516120744288}, {"current_trial": 77, "trialdata": {"rt": [3254, 5287, 7399, 10343, 12214, 14902, 19206, 21895], "trial_type": "math-distractor", "key_times": [2518, 2710, 3254, 4568, 4775, 5287, 6855, 7031, 7399, 8951, 9976, 10343, 11559, 11798, 12214, 14246, 14422, 14902, 16806, 18678, 19206, 21302, 21494, 21895], "responses": ["22", "19", "11", "13", "14", "16", "15", "10"], "num2": [8, 4, 2, 2, 9, 3, 7, 5, 8], "num3": [7, 9, 5, 4, 4, 9, 3, 4, 9], "conditions": [12, 800, "v", 24000], "internal_node_id": "0.0-59.0", "key_presses": [98, 98, 13, 97, 105, 13, 97, 97, 13, 97, 99, 13, 97, 100, 13, 97, 102, 13, 97, 101, 13, 97, 96, 13], "trial": 2, "time_elapsed": 376915, "type": "DISTRACTOR", "trial_index": 77, "num1": [7, 6, 4, 7, 1, 4, 5, 1, 9]}, "uniqueid": "MTK1648:3ATTHHXXWBVNKP83G0DHBD7C1ZRIXE", "dateTime": 1516120769289}, {"current_trial": 78, "trialdata": {"rt": -1, "trial_type": "single-stim", "stimulus": "<p id=\"stim\">10</p>", "internal_node_id": "0.0-60.0-0.0", "time_elapsed": 379915, "key_press": -1, "trial_index": 78}, "uniqueid": "MTK1648:3ATTHHXXWBVNKP83G0DHBD7C1ZRIXE", "dateTime": 1516120772289}, {"current_trial": 79, "trialdata": {"rt": -1, "trial_type": "single-stim", "stimulus": "<p id=\"stim\">9</p>", "internal_node_id": "0.0-60.0-1.0", "time_elapsed": 380915, "key_press": -1, "trial_index": 79}, "uniqueid": "MTK1648:3ATTHHXXWBVNKP83G0DHBD7C1ZRIXE", "dateTime": 1516120773289}, {"current_trial": 80, "trialdata": {"rt": -1, "trial_type": "single-stim", "stimulus": "<p id=\"stim\">8</p>", "internal_node_id": "0.0-60.0-2.0", "time_elapsed": 381915, "key_press": -1, "trial_index": 80}, "uniqueid": "MTK1648:3ATTHHXXWBVNKP83G0DHBD7C1ZRIXE", "dateTime": 1516120774289}, {"current_trial": 81, "trialdata": {"rt": -1, "trial_type": "single-stim", "stimulus": "<p id=\"stim\">7</p>", "internal_node_id": "0.0-60.0-3.0", "time_elapsed": 382915, "key_press": -1, "trial_index": 81}, "uniqueid": "MTK1648:3ATTHHXXWBVNKP83G0DHBD7C1ZRIXE", "dateTime": 1516120775289}, {"current_trial": 82, "trialdata": {"rt": -1, "trial_type": "single-stim", "stimulus": "<p id=\"stim\">6</p>", "internal_node_id": "0.0-60.0-4.0", "time_elapsed": 383915, "key_press": -1, "trial_index": 82}, "uniqueid": "MTK1648:3ATTHHXXWBVNKP83G0DHBD7C1ZRIXE", "dateTime": 1516120776289}, {"current_trial": 83, "trialdata": {"rt": -1, "trial_type": "single-stim", "stimulus": "<p id=\"stim\">5</p>", "internal_node_id": "0.0-60.0-5.0", "time_elapsed": 384915, "key_press": -1, "trial_index": 83}, "uniqueid": "MTK1648:3ATTHHXXWBVNKP83G0DHBD7C1ZRIXE", "dateTime": 1516120777289}, {"current_trial": 84, "trialdata": {"rt": -1, "trial_type": "single-stim", "stimulus": "<p id=\"stim\">4</p>", "internal_node_id": "0.0-60.0-6.0", "time_elapsed": 385915, "key_press": -1, "trial_index": 84}, "uniqueid": "MTK1648:3ATTHHXXWBVNKP83G0DHBD7C1ZRIXE", "dateTime": 1516120778289}, {"current_trial": 85, "trialdata": {"rt": -1, "trial_type": "single-stim", "stimulus": "<p id=\"stim\">3</p>", "internal_node_id": "0.0-60.0-7.0", "time_elapsed": 386915, "key_press": -1, "trial_index": 85}, "uniqueid": "MTK1648:3ATTHHXXWBVNKP83G0DHBD7C1ZRIXE", "dateTime": 1516120779289}, {"current_trial": 86, "trialdata": {"rt": -1, "trial_type": "single-stim", "stimulus": "<p id=\"stim\">2</p>", "internal_node_id": "0.0-60.0-8.0", "time_elapsed": 387915, "key_press": -1, "trial_index": 86}, "uniqueid": "MTK1648:3ATTHHXXWBVNKP83G0DHBD7C1ZRIXE", "dateTime": 1516120780289}, {"current_trial": 87, "trialdata": {"rt": -1, "trial_type": "single-stim", "stimulus": "<p id=\"stim\">1</p>", "internal_node_id": "0.0-60.0-9.0", "time_elapsed": 388915, "key_press": -1, "trial_index": 87}, "uniqueid": "MTK1648:3ATTHHXXWBVNKP83G0DHBD7C1ZRIXE", "dateTime": 1516120781289}, {"current_trial": 88, "trialdata": {"rt": -1, "trial_type": "single-stim", "stimulus": "<p id=\"stim\">+</p>", "internal_node_id": "0.0-61.0-0.0", "time_elapsed": 390415, "key_press": -1, "type": "FIXATION", "trial_index": 88}, "uniqueid": "MTK1648:3ATTHHXXWBVNKP83G0DHBD7C1ZRIXE", "dateTime": 1516120782789}, {"current_trial": 89, "trialdata": {"rt": -1, "trial_type": "single-stim", "word": "muffin", "stimulus": "<p id=\"stim\">MUFFIN</p>", "conditions": [12, 800, "v", 24000], "internal_node_id": "0.0-62.0", "trial": 2, "time_elapsed": 391215, "serialpos": 0, "key_press": -1, "wordID": 928, "type": "PRES_VIS", "trial_index": 89}, "uniqueid": "MTK1648:3ATTHHXXWBVNKP83G0DHBD7C1ZRIXE", "dateTime": 1516120783589}, {"current_trial": 90, "trialdata": {"rt": -1, "trial_type": "single-stim", "word": "yacht", "stimulus": "<p id=\"stim\">YACHT</p>", "conditions": [12, 800, "v", 24000], "internal_node_id": "0.0-63.0", "trial": 2, "time_elapsed": 393005, "serialpos": 1, "key_press": -1, "wordID": 1628, "type": "PRES_VIS", "trial_index": 90}, "uniqueid": "MTK1648:3ATTHHXXWBVNKP83G0DHBD7C1ZRIXE", "dateTime": 1516120785379}, {"current_trial": 91, "trialdata": {"rt": -1, "trial_type": "single-stim", "word": "couch", "stimulus": "<p id=\"stim\">COUCH</p>", "conditions": [12, 800, "v", 24000], "internal_node_id": "0.0-64.0", "trial": 2, "time_elapsed": 394659, "serialpos": 2, "key_press": -1, "wordID": 385, "type": "PRES_VIS", "trial_index": 91}, "uniqueid": "MTK1648:3ATTHHXXWBVNKP83G0DHBD7C1ZRIXE", "dateTime": 1516120787033}, {"current_trial": 92, "trialdata": {"rt": -1, "trial_type": "single-stim", "word": "vagrant", "stimulus": "<p id=\"stim\">VAGRANT</p>", "conditions": [12, 800, "v", 24000], "internal_node_id": "0.0-65.0", "trial": 2, "time_elapsed": 396470, "serialpos": 3, "key_press": -1, "wordID": 1543, "type": "PRES_VIS", "trial_index": 92}, "uniqueid": "MTK1648:3ATTHHXXWBVNKP83G0DHBD7C1ZRIXE", "dateTime": 1516120788844}, {"current_trial": 93, "trialdata": {"rt": -1, "trial_type": "single-stim", "word": "preacher", "stimulus": "<p id=\"stim\">PREACHER</p>", "conditions": [12, 800, "v", 24000], "internal_node_id": "0.0-66.0", "trial": 2, "time_elapsed": 398195, "serialpos": 4, "key_press": -1, "wordID": 1118, "type": "PRES_VIS", "trial_index": 93}, "uniqueid": "MTK1648:3ATTHHXXWBVNKP83G0DHBD7C1ZRIXE", "dateTime": 1516120790569}, {"current_trial": 94, "trialdata": {"rt": -1, "trial_type": "single-stim", "word": "honey", "stimulus": "<p id=\"stim\">HONEY</p>", "conditions": [12, 800, "v", 24000], "internal_node_id": "0.0-67.0", "trial": 2, "time_elapsed": 399866, "serialpos": 5, "key_press": -1, "wordID": 712, "type": "PRES_VIS", "trial_index": 94}, "uniqueid": "MTK1648:3ATTHHXXWBVNKP83G0DHBD7C1ZRIXE", "dateTime": 1516120792240}, {"current_trial": 95, "trialdata": {"rt": -1, "trial_type": "single-stim", "word": "milk", "stimulus": "<p id=\"stim\">MILK</p>", "conditions": [12, 800, "v", 24000], "internal_node_id": "0.0-68.0", "trial": 2, "time_elapsed": 401544, "serialpos": 6, "key_press": -1, "wordID": 894, "type": "PRES_VIS", "trial_index": 95}, "uniqueid": "MTK1648:3ATTHHXXWBVNKP83G0DHBD7C1ZRIXE", "dateTime": 1516120793918}, {"current_trial": 96, "trialdata": {"rt": -1, "trial_type": "single-stim", "word": "fiddle", "stimulus": "<p id=\"stim\">FIDDLE</p>", "conditions": [12, 800, "v", 24000], "internal_node_id": "0.0-69.0", "trial": 2, "time_elapsed": 403221, "serialpos": 7, "key_press": -1, "wordID": 560, "type": "PRES_VIS", "trial_index": 96}, "uniqueid": "MTK1648:3ATTHHXXWBVNKP83G0DHBD7C1ZRIXE", "dateTime": 1516120795595}, {"current_trial": 97, "trialdata": {"rt": -1, "trial_type": "single-stim", "word": "tile", "stimulus": "<p id=\"stim\">TILE</p>", "conditions": [12, 800, "v", 24000], "internal_node_id": "0.0-70.0", "trial": 2, "time_elapsed": 405066, "serialpos": 8, "key_press": -1, "wordID": 1467, "type": "PRES_VIS", "trial_index": 97}, "uniqueid": "MTK1648:3ATTHHXXWBVNKP83G0DHBD7C1ZRIXE", "dateTime": 1516120797440}, {"current_trial": 98, "trialdata": {"rt": -1, "trial_type": "single-stim", "word": "mattress", "stimulus": "<p id=\"stim\">MATTRESS</p>", "conditions": [12, 800, "v", 24000], "internal_node_id": "0.0-71.0", "trial": 2, "time_elapsed": 406940, "serialpos": 9, "key_press": -1, "wordID": 878, "type": "PRES_VIS", "trial_index": 98}, "uniqueid": "MTK1648:3ATTHHXXWBVNKP83G0DHBD7C1ZRIXE", "dateTime": 1516120799314}, {"current_trial": 99, "trialdata": {"rt": -1, "trial_type": "single-stim", "word": "nomad", "stimulus": "<p id=\"stim\">NOMAD</p>", "conditions": [12, 800, "v", 24000], "internal_node_id": "0.0-72.0", "trial": 2, "time_elapsed": 408913, "serialpos": 10, "key_press": -1, "wordID": 954, "type": "PRES_VIS", "trial_index": 99}, "uniqueid": "MTK1648:3ATTHHXXWBVNKP83G0DHBD7C1ZRIXE", "dateTime": 1516120801287}, {"current_trial": 100, "trialdata": {"rt": -1, "trial_type": "single-stim", "word": "woman", "stimulus": "<p id=\"stim\">WOMAN</p>", "conditions": [12, 800, "v", 24000], "internal_node_id": "0.0-73.0", "trial": 2, "time_elapsed": 410791, "serialpos": 11, "key_press": -1, "wordID": 1619, "type": "PRES_VIS", "trial_index": 100}, "uniqueid": "MTK1648:3ATTHHXXWBVNKP83G0DHBD7C1ZRIXE", "dateTime": 1516120803165}, {"current_trial": 101, "trialdata": {"rt": -1, "trial_type": "single-stim", "stimulus": "", "internal_node_id": "0.0-74.0-0.0", "time_elapsed": 413105, "key_press": -1, "type": "PRE_RECALL_DELAY", "trial_index": 101}, "uniqueid": "MTK1648:3ATTHHXXWBVNKP83G0DHBD7C1ZRIXE", "dateTime": 1516120805479}, {"current_trial": 102, "trialdata": {"rt": -1000, "trial_type": "single-audio", "stimulus": "/static/audio/400Hz.wav", "internal_node_id": "0.0-75.0", "time_elapsed": 413605, "key_press": -1, "type": "PRE_RECALL_ALERT", "trial_index": 102}, "uniqueid": "MTK1648:3ATTHHXXWBVNKP83G0DHBD7C1ZRIXE", "dateTime": 1516120805979}, {"current_trial": 103, "trialdata": {"rt": [4691, 7011, 9939, 22853, 40195], "recwords": ["nomad", "woman", "preacher", "student", "muffin"], "key_times": [2676, 2868, 3236, 3476, 3732, 4691, 5236, 5427, 5747, 5923, 6131, 7011, 7491, 7715, 7859, 8243, 8595, 8899, 9123, 9251, 9939, 19892, 20340, 20628, 21172, 21316, 21716, 21859, 22853, 38596, 38804, 39300, 39475, 39635, 39843, 40195], "trial_type": "free-recall", "conditions": [12, 800, "v", 24000], "internal_node_id": "0.0-76.0-0.0", "key_presses": [78, 79, 77, 65, 68, 13, 87, 79, 77, 65, 78, 13, 80, 82, 69, 65, 67, 72, 69, 82, 13, 83, 84, 85, 68, 69, 78, 84, 13, 77, 85, 70, 70, 73, 78, 13], "trial": 2, "time_elapsed": 473606, "type": "FREE_RECALL", "trial_index": 103}, "uniqueid": "MTK1648:3ATTHHXXWBVNKP83G0DHBD7C1ZRIXE", "dateTime": 1516120865982}, {"current_trial": 104, "trialdata": {"rt": 2945, "trial_type": "text", "internal_node_id": "0.0-77.0", "time_elapsed": 478554, "key_press": 32, "type": "INSTRUCTIONS", "trial_index": 104}, "uniqueid": "MTK1648:3ATTHHXXWBVNKP83G0DHBD7C1ZRIXE", "dateTime": 1516120870928}, {"current_trial": 105, "trialdata": {"rt": [3103, 5599, 7998, 10286], "trial_type": "math-distractor", "key_times": [1999, 2191, 3103, 5103, 5599, 7359, 7567, 7998, 9743, 10286, 11774, 11982], "responses": ["11", "6", "13", "9"], "num2": [4, 1, 9, 5, 6], "num3": [3, 3, 2, 1, 2], "conditions": [24, 1600, "v", 12000], "internal_node_id": "0.0-78.0", "key_presses": [97, 97, 13, 102, 13, 97, 99, 13, 105, 13, 97, 96], "trial": 3, "time_elapsed": 492555, "type": "DISTRACTOR", "trial_index": 105, "num1": [4, 2, 2, 3, 2]}, "uniqueid": "MTK1648:3ATTHHXXWBVNKP83G0DHBD7C1ZRIXE", "dateTime": 1516120884929}, {"current_trial": 106, "trialdata": {"rt": -1, "trial_type": "single-stim", "stimulus": "<p id=\"stim\">10</p>", "internal_node_id": "0.0-79.0-0.0", "time_elapsed": 495555, "key_press": -1, "trial_index": 106}, "uniqueid": "MTK1648:3ATTHHXXWBVNKP83G0DHBD7C1ZRIXE", "dateTime": 1516120887929}, {"current_trial": 107, "trialdata": {"rt": -1, "trial_type": "single-stim", "stimulus": "<p id=\"stim\">9</p>", "internal_node_id": "0.0-79.0-1.0", "time_elapsed": 496555, "key_press": -1, "trial_index": 107}, "uniqueid": "MTK1648:3ATTHHXXWBVNKP83G0DHBD7C1ZRIXE", "dateTime": 1516120888929}, {"current_trial": 108, "trialdata": {"rt": -1, "trial_type": "single-stim", "stimulus": "<p id=\"stim\">8</p>", "internal_node_id": "0.0-79.0-2.0", "time_elapsed": 497555, "key_press": -1, "trial_index": 108}, "uniqueid": "MTK1648:3ATTHHXXWBVNKP83G0DHBD7C1ZRIXE", "dateTime": 1516120889929}, {"current_trial": 109, "trialdata": {"rt": -1, "trial_type": "single-stim", "stimulus": "<p id=\"stim\">7</p>", "internal_node_id": "0.0-79.0-3.0", "time_elapsed": 498555, "key_press": -1, "trial_index": 109}, "uniqueid": "MTK1648:3ATTHHXXWBVNKP83G0DHBD7C1ZRIXE", "dateTime": 1516120890929}, {"current_trial": 110, "trialdata": {"rt": -1, "trial_type": "single-stim", "stimulus": "<p id=\"stim\">6</p>", "internal_node_id": "0.0-79.0-4.0", "time_elapsed": 499555, "key_press": -1, "trial_index": 110}, "uniqueid": "MTK1648:3ATTHHXXWBVNKP83G0DHBD7C1ZRIXE", "dateTime": 1516120891929}, {"current_trial": 111, "trialdata": {"rt": -1, "trial_type": "single-stim", "stimulus": "<p id=\"stim\">5</p>", "internal_node_id": "0.0-79.0-5.0", "time_elapsed": 500557, "key_press": -1, "trial_index": 111}, "uniqueid": "MTK1648:3ATTHHXXWBVNKP83G0DHBD7C1ZRIXE", "dateTime": 1516120892931}, {"current_trial": 112, "trialdata": {"rt": -1, "trial_type": "single-stim", "stimulus": "<p id=\"stim\">4</p>", "internal_node_id": "0.0-79.0-6.0", "time_elapsed": 501557, "key_press": -1, "trial_index": 112}, "uniqueid": "MTK1648:3ATTHHXXWBVNKP83G0DHBD7C1ZRIXE", "dateTime": 1516120893931}, {"current_trial": 113, "trialdata": {"rt": -1, "trial_type": "single-stim", "stimulus": "<p id=\"stim\">3</p>", "internal_node_id": "0.0-79.0-7.0", "time_elapsed": 502557, "key_press": -1, "trial_index": 113}, "uniqueid": "MTK1648:3ATTHHXXWBVNKP83G0DHBD7C1ZRIXE", "dateTime": 1516120894931}, {"current_trial": 114, "trialdata": {"rt": -1, "trial_type": "single-stim", "stimulus": "<p id=\"stim\">2</p>", "internal_node_id": "0.0-79.0-8.0", "time_elapsed": 503558, "key_press": -1, "trial_index": 114}, "uniqueid": "MTK1648:3ATTHHXXWBVNKP83G0DHBD7C1ZRIXE", "dateTime": 1516120895932}, {"current_trial": 115, "trialdata": {"rt": -1, "trial_type": "single-stim", "stimulus": "<p id=\"stim\">1</p>", "internal_node_id": "0.0-79.0-9.0", "time_elapsed": 504559, "key_press": -1, "trial_index": 115}, "uniqueid": "MTK1648:3ATTHHXXWBVNKP83G0DHBD7C1ZRIXE", "dateTime": 1516120896933}, {"current_trial": 116, "trialdata": {"rt": -1, "trial_type": "single-stim", "stimulus": "<p id=\"stim\">+</p>", "internal_node_id": "0.0-80.0-0.0", "time_elapsed": 506059, "key_press": -1, "type": "FIXATION", "trial_index": 116}, "uniqueid": "MTK1648:3ATTHHXXWBVNKP83G0DHBD7C1ZRIXE", "dateTime": 1516120898433}, {"current_trial": 117, "trialdata": {"rt": -1, "trial_type": "single-stim", "word": "custard", "stimulus": "<p id=\"stim\">CUSTARD</p>", "conditions": [24, 1600, "v", 12000], "internal_node_id": "0.0-81.0", "trial": 3, "time_elapsed": 507659, "serialpos": 0, "key_press": -1, "wordID": 428, "type": "PRES_VIS", "trial_index": 117}, "uniqueid": "MTK1648:3ATTHHXXWBVNKP83G0DHBD7C1ZRIXE", "dateTime": 1516120900033}, {"current_trial": 118, "trialdata": {"rt": -1, "trial_type": "single-stim", "word": "fleet", "stimulus": "<p id=\"stim\">FLEET</p>", "conditions": [24, 1600, "v", 12000], "internal_node_id": "0.0-82.0", "trial": 3, "time_elapsed": 510289, "serialpos": 1, "key_press": -1, "wordID": 577, "type": "PRES_VIS", "trial_index": 118}, "uniqueid": "MTK1648:3ATTHHXXWBVNKP83G0DHBD7C1ZRIXE", "dateTime": 1516120902663}, {"current_trial": 119, "trialdata": {"rt": -1, "trial_type": "single-stim", "word": "finger", "stimulus": "<p id=\"stim\">FINGER</p>", "conditions": [24, 1600, "v", 12000], "internal_node_id": "0.0-83.0", "trial": 3, "time_elapsed": 513016, "serialpos": 2, "key_press": -1, "wordID": 566, "type": "PRES_VIS", "trial_index": 119}, "uniqueid": "MTK1648:3ATTHHXXWBVNKP83G0DHBD7C1ZRIXE", "dateTime": 1516120905390}, {"current_trial": 120, "trialdata": {"rt": -1, "trial_type": "single-stim", "word": "wrist", "stimulus": "<p id=\"stim\">WRIST</p>", "conditions": [24, 1600, "v", 12000], "internal_node_id": "0.0-84.0", "trial": 3, "time_elapsed": 515741, "serialpos": 3, "key_press": -1, "wordID": 1625, "type": "PRES_VIS", "trial_index": 120}, "uniqueid": "MTK1648:3ATTHHXXWBVNKP83G0DHBD7C1ZRIXE", "dateTime": 1516120908115}, {"current_trial": 121, "trialdata": {"rt": -1, "trial_type": "single-stim", "word": "garbage", "stimulus": "<p id=\"stim\">GARBAGE</p>", "conditions": [24, 1600, "v", 12000], "internal_node_id": "0.0-85.0", "trial": 3, "time_elapsed": 518401, "serialpos": 4, "key_press": -1, "wordID": 621, "type": "PRES_VIS", "trial_index": 121}, "uniqueid": "MTK1648:3ATTHHXXWBVNKP83G0DHBD7C1ZRIXE", "dateTime": 1516120910775}, {"current_trial": 122, "trialdata": {"rt": -1, "trial_type": "single-stim", "word": "valley", "stimulus": "<p id=\"stim\">VALLEY</p>", "conditions": [24, 1600, "v", 12000], "internal_node_id": "0.0-86.0", "trial": 3, "time_elapsed": 521080, "serialpos": 5, "key_press": -1, "wordID": 1544, "type": "PRES_VIS", "trial_index": 122}, "uniqueid": "MTK1648:3ATTHHXXWBVNKP83G0DHBD7C1ZRIXE", "dateTime": 1516120913454}, {"current_trial": 123, "trialdata": {"rt": -1, "trial_type": "single-stim", "word": "pudding", "stimulus": "<p id=\"stim\">PUDDING</p>", "conditions": [24, 1600, "v", 12000], "internal_node_id": "0.0-87.0", "trial": 3, "time_elapsed": 523873, "serialpos": 6, "key_press": -1, "wordID": 1138, "type": "PRES_VIS", "trial_index": 123}, "uniqueid": "MTK1648:3ATTHHXXWBVNKP83G0DHBD7C1ZRIXE", "dateTime": 1516120916247}, {"current_trial": 124, "trialdata": {"rt": -1, "trial_type": "single-stim", "word": "canal", "stimulus": "<p id=\"stim\">CANAL</p>", "conditions": [24, 1600, "v", 12000], "internal_node_id": "0.0-88.0", "trial": 3, "time_elapsed": 526474, "serialpos": 7, "key_press": -1, "wordID": 225, "type": "PRES_VIS", "trial_index": 124}, "uniqueid": "MTK1648:3ATTHHXXWBVNKP83G0DHBD7C1ZRIXE", "dateTime": 1516120918848}, {"current_trial": 125, "trialdata": {"rt": -1, "trial_type": "single-stim", "word": "infant", "stimulus": "<p id=\"stim\">INFANT</p>", "conditions": [24, 1600, "v", 12000], "internal_node_id": "0.0-89.0", "trial": 3, "time_elapsed": 529115, "serialpos": 8, "key_press": -1, "wordID": 736, "type": "PRES_VIS", "trial_index": 125}, "uniqueid": "MTK1648:3ATTHHXXWBVNKP83G0DHBD7C1ZRIXE", "dateTime": 1516120921489}, {"current_trial": 126, "trialdata": {"rt": -1, "trial_type": "single-stim", "word": "wife", "stimulus": "<p id=\"stim\">WIFE</p>", "conditions": [24, 1600, "v", 12000], "internal_node_id": "0.0-90.0", "trial": 3, "time_elapsed": 531635, "serialpos": 9, "key_press": -1, "wordID": 1608, "type": "PRES_VIS", "trial_index": 126}, "uniqueid": "MTK1648:3ATTHHXXWBVNKP83G0DHBD7C1ZRIXE", "dateTime": 1516120924009}, {"current_trial": 127, "trialdata": {"rt": -1, "trial_type": "single-stim", "word": "handbag", "stimulus": "<p id=\"stim\">HANDBAG</p>", "conditions": [24, 1600, "v", 12000], "internal_node_id": "0.0-91.0", "trial": 3, "time_elapsed": 534360, "serialpos": 10, "key_press": -1, "wordID": 683, "type": "PRES_VIS", "trial_index": 127}, "uniqueid": "MTK1648:3ATTHHXXWBVNKP83G0DHBD7C1ZRIXE", "dateTime": 1516120926734}, {"current_trial": 128, "trialdata": {"rt": -1, "trial_type": "single-stim", "word": "crab", "stimulus": "<p id=\"stim\">CRAB</p>", "conditions": [24, 1600, "v", 12000], "internal_node_id": "0.0-92.0", "trial": 3, "time_elapsed": 536810, "serialpos": 11, "key_press": -1, "wordID": 396, "type": "PRES_VIS", "trial_index": 128}, "uniqueid": "MTK1648:3ATTHHXXWBVNKP83G0DHBD7C1ZRIXE", "dateTime": 1516120929184}, {"current_trial": 129, "trialdata": {"rt": -1, "trial_type": "single-stim", "word": "temple", "stimulus": "<p id=\"stim\">TEMPLE</p>", "conditions": [24, 1600, "v", 12000], "internal_node_id": "0.0-93.0", "trial": 3, "time_elapsed": 539576, "serialpos": 12, "key_press": -1, "wordID": 1447, "type": "PRES_VIS", "trial_index": 129}, "uniqueid": "MTK1648:3ATTHHXXWBVNKP83G0DHBD7C1ZRIXE", "dateTime": 1516120931950}, {"current_trial": 130, "trialdata": {"rt": -1, "trial_type": "single-stim", "word": "sunrise", "stimulus": "<p id=\"stim\">SUNRISE</p>", "conditions": [24, 1600, "v", 12000], "internal_node_id": "0.0-94.0", "trial": 3, "time_elapsed": 542273, "serialpos": 13, "key_press": -1, "wordID": 1406, "type": "PRES_VIS", "trial_index": 130}, "uniqueid": "MTK1648:3ATTHHXXWBVNKP83G0DHBD7C1ZRIXE", "dateTime": 1516120934647}, {"current_trial": 131, "trialdata": {"rt": -1, "trial_type": "single-stim", "word": "husband", "stimulus": "<p id=\"stim\">HUSBAND</p>", "conditions": [24, 1600, "v", 12000], "internal_node_id": "0.0-95.0", "trial": 3, "time_elapsed": 544810, "serialpos": 14, "key_press": -1, "wordID": 727, "type": "PRES_VIS", "trial_index": 131}, "uniqueid": "MTK1648:3ATTHHXXWBVNKP83G0DHBD7C1ZRIXE", "dateTime": 1516120937184}, {"current_trial": 132, "trialdata": {"rt": -1, "trial_type": "single-stim", "word": "comet", "stimulus": "<p id=\"stim\">COMET</p>", "conditions": [24, 1600, "v", 12000], "internal_node_id": "0.0-96.0", "trial": 3, "time_elapsed": 547270, "serialpos": 15, "key_press": -1, "wordID": 352, "type": "PRES_VIS", "trial_index": 132}, "uniqueid": "MTK1648:3ATTHHXXWBVNKP83G0DHBD7C1ZRIXE", "dateTime": 1516120939644}, {"current_trial": 133, "trialdata": {"rt": -1, "trial_type": "single-stim", "word": "venus", "stimulus": "<p id=\"stim\">VENUS</p>", "conditions": [24, 1600, "v", 12000], "internal_node_id": "0.0-97.0", "trial": 3, "time_elapsed": 549915, "serialpos": 16, "key_press": -1, "wordID": 1556, "type": "PRES_VIS", "trial_index": 133}, "uniqueid": "MTK1648:3ATTHHXXWBVNKP83G0DHBD7C1ZRIXE", "dateTime": 1516120942289}, {"current_trial": 134, "trialdata": {"rt": -1, "trial_type": "single-stim", "word": "spouse", "stimulus": "<p id=\"stim\">SPOUSE</p>", "conditions": [24, 1600, "v", 12000], "internal_node_id": "0.0-98.0", "trial": 3, "time_elapsed": 552443, "serialpos": 17, "key_press": -1, "wordID": 1357, "type": "PRES_VIS", "trial_index": 134}, "uniqueid": "MTK1648:3ATTHHXXWBVNKP83G0DHBD7C1ZRIXE", "dateTime": 1516120944817}, {"current_trial": 135, "trialdata": {"rt": -1, "trial_type": "single-stim", "word": "spoon", "stimulus": "<p id=\"stim\">SPOON</p>", "conditions": [24, 1600, "v", 12000], "internal_node_id": "0.0-99.0", "trial": 3, "time_elapsed": 555057, "serialpos": 18, "key_press": -1, "wordID": 1356, "type": "PRES_VIS", "trial_index": 135}, "uniqueid": "MTK1648:3ATTHHXXWBVNKP83G0DHBD7C1ZRIXE", "dateTime": 1516120947431}, {"current_trial": 136, "trialdata": {"rt": -1, "trial_type": "single-stim", "word": "skillet", "stimulus": "<p id=\"stim\">SKILLET</p>", "conditions": [24, 1600, "v", 12000], "internal_node_id": "0.0-100.0", "trial": 3, "time_elapsed": 557724, "serialpos": 19, "key_press": -1, "wordID": 1316, "type": "PRES_VIS", "trial_index": 136}, "uniqueid": "MTK1648:3ATTHHXXWBVNKP83G0DHBD7C1ZRIXE", "dateTime": 1516120950098}, {"current_trial": 137, "trialdata": {"rt": -1, "trial_type": "single-stim", "word": "cocktail", "stimulus": "<p id=\"stim\">COCKTAIL</p>", "conditions": [24, 1600, "v", 12000], "internal_node_id": "0.0-101.0", "trial": 3, "time_elapsed": 560483, "serialpos": 20, "key_press": -1, "wordID": 337, "type": "PRES_VIS", "trial_index": 137}, "uniqueid": "MTK1648:3ATTHHXXWBVNKP83G0DHBD7C1ZRIXE", "dateTime": 1516120952858}, {"current_trial": 138, "trialdata": {"rt": -1, "trial_type": "single-stim", "word": "widow", "stimulus": "<p id=\"stim\">WIDOW</p>", "conditions": [24, 1600, "v", 12000], "internal_node_id": "0.0-102.0", "trial": 3, "time_elapsed": 562996, "serialpos": 21, "key_press": -1, "wordID": 1607, "type": "PRES_VIS", "trial_index": 138}, "uniqueid": "MTK1648:3ATTHHXXWBVNKP83G0DHBD7C1ZRIXE", "dateTime": 1516120955370}, {"current_trial": 139, "trialdata": {"rt": -1, "trial_type": "single-stim", "word": "kitchen", "stimulus": "<p id=\"stim\">KITCHEN</p>", "conditions": [24, 1600, "v", 12000], "internal_node_id": "0.0-103.0", "trial": 3, "time_elapsed": 565704, "serialpos": 22, "key_press": -1, "wordID": 777, "type": "PRES_VIS", "trial_index": 139}, "uniqueid": "MTK1648:3ATTHHXXWBVNKP83G0DHBD7C1ZRIXE", "dateTime": 1516120958078}, {"current_trial": 140, "trialdata": {"rt": -1, "trial_type": "single-stim", "word": "lizard", "stimulus": "<p id=\"stim\">LIZARD</p>", "conditions": [24, 1600, "v", 12000], "internal_node_id": "0.0-104.0", "trial": 3, "time_elapsed": 568498, "serialpos": 23, "key_press": -1, "wordID": 833, "type": "PRES_VIS", "trial_index": 140}, "uniqueid": "MTK1648:3ATTHHXXWBVNKP83G0DHBD7C1ZRIXE", "dateTime": 1516120960872}, {"current_trial": 141, "trialdata": {"rt": -1, "trial_type": "single-stim", "stimulus": "", "internal_node_id": "0.0-105.0-0.0", "time_elapsed": 570915, "key_press": -1, "type": "PRE_RECALL_DELAY", "trial_index": 141}, "uniqueid": "MTK1648:3ATTHHXXWBVNKP83G0DHBD7C1ZRIXE", "dateTime": 1516120963289}, {"current_trial": 142, "trialdata": {"rt": -1000, "trial_type": "single-audio", "stimulus": "/static/audio/400Hz.wav", "internal_node_id": "0.0-106.0", "time_elapsed": 571415, "key_press": -1, "type": "PRE_RECALL_ALERT", "trial_index": 142}, "uniqueid": "MTK1648:3ATTHHXXWBVNKP83G0DHBD7C1ZRIXE", "dateTime": 1516120963789}, {"current_trial": 143, "trialdata": {"rt": [6720, 9728, 12992, 15569, 17985, 21361, 23536, 26224, 29488, 36066], "recwords": ["custard", "infant", "finger", "wrist", "fleet", "husband", "spoon", "skillet", "wife", "spouse"], "key_times": [3793, 4016, 4256, 4608, 5136, 5520, 5744, 6720, 7280, 7456, 8048, 8256, 8608, 8832, 9728, 10416, 10624, 10880, 11680, 12160, 12272, 12992, 13313, 13633, 13905, 14177, 14705, 15569, 15937, 16241, 16529, 16705, 17041, 17985, 18433, 18641, 18961, 19297, 19489, 19921, 20161, 21361, 21905, 22192, 22480, 22672, 22976, 23536, 23921, 24336, 24544, 25040, 25264, 25536, 25888, 26224, 27520, 27776, 28192, 28368, 29488, 32551, 33185, 33361, 33761, 34465, 34641, 36066, 54418, 54786, 55282, 56114, 56530, 57073, 57457], "trial_type": "free-recall", "conditions": [24, 1600, "v", 12000], "internal_node_id": "0.0-107.0-0.0", "key_presses": [67, 85, 83, 84, 65, 82, 68, 13, 73, 78, 70, 65, 78, 84, 13, 70, 73, 78, 71, 69, 82, 13, 87, 82, 73, 83, 84, 13, 70, 76, 69, 69, 84, 13, 72, 85, 83, 66, 65, 78, 68, 13, 83, 80, 79, 79, 78, 13, 83, 75, 73, 76, 76, 69, 84, 13, 87, 73, 70, 69, 13, 83, 80, 79, 85, 83, 69, 13, 71, 65, 82, 66, 65, 71, 69], "trial": 3, "time_elapsed": 631418, "type": "FREE_RECALL", "trial_index": 143}, "uniqueid": "MTK1648:3ATTHHXXWBVNKP83G0DHBD7C1ZRIXE", "dateTime": 1516121023794}, {"current_trial": 144, "trialdata": {"rt": 5231, "trial_type": "text", "internal_node_id": "0.0-108.0", "time_elapsed": 638651, "key_press": 13, "type": "INSTRUCTIONS", "trial_index": 144}, "uniqueid": "MTK1648:3ATTHHXXWBVNKP83G0DHBD7C1ZRIXE", "dateTime": 1516121031026}, {"current_trial": 145, "trialdata": {"rt": [2126, 3869, 5885, 7885, 9837], "trial_type": "math-distractor", "key_times": [1326, 1518, 2126, 3310, 3502, 3869, 5118, 5345, 5885, 7229, 7453, 7885, 9070, 9277, 9837, 11357, 11565], "responses": ["15", "11", "10", "13", "12"], "num2": [2, 2, 1, 9, 4, 4], "num3": [5, 7, 3, 3, 6, 6], "conditions": [24, 800, "v", 12000], "internal_node_id": "0.0-109.0", "key_presses": [97, 101, 13, 97, 97, 13, 97, 96, 13, 97, 99, 13, 97, 98, 13, 97, 101], "trial": 4, "time_elapsed": 652653, "type": "DISTRACTOR", "trial_index": 145, "num1": [8, 2, 6, 1, 2, 5]}, "uniqueid": "MTK1648:3ATTHHXXWBVNKP83G0DHBD7C1ZRIXE", "dateTime": 1516121045027}, {"current_trial": 146, "trialdata": {"rt": -1, "trial_type": "single-stim", "stimulus": "<p id=\"stim\">10</p>", "internal_node_id": "0.0-110.0-0.0", "time_elapsed": 655654, "key_press": -1, "trial_index": 146}, "uniqueid": "MTK1648:3ATTHHXXWBVNKP83G0DHBD7C1ZRIXE", "dateTime": 1516121048028}, {"current_trial": 147, "trialdata": {"rt": -1, "trial_type": "single-stim", "stimulus": "<p id=\"stim\">9</p>", "internal_node_id": "0.0-110.0-1.0", "time_elapsed": 656654, "key_press": -1, "trial_index": 147}, "uniqueid": "MTK1648:3ATTHHXXWBVNKP83G0DHBD7C1ZRIXE", "dateTime": 1516121049028}, {"current_trial": 148, "trialdata": {"rt": -1, "trial_type": "single-stim", "stimulus": "<p id=\"stim\">8</p>", "internal_node_id": "0.0-110.0-2.0", "time_elapsed": 657654, "key_press": -1, "trial_index": 148}, "uniqueid": "MTK1648:3ATTHHXXWBVNKP83G0DHBD7C1ZRIXE", "dateTime": 1516121050028}, {"current_trial": 149, "trialdata": {"rt": -1, "trial_type": "single-stim", "stimulus": "<p id=\"stim\">7</p>", "internal_node_id": "0.0-110.0-3.0", "time_elapsed": 658654, "key_press": -1, "trial_index": 149}, "uniqueid": "MTK1648:3ATTHHXXWBVNKP83G0DHBD7C1ZRIXE", "dateTime": 1516121051028}, {"current_trial": 150, "trialdata": {"rt": -1, "trial_type": "single-stim", "stimulus": "<p id=\"stim\">6</p>", "internal_node_id": "0.0-110.0-4.0", "time_elapsed": 659654, "key_press": -1, "trial_index": 150}, "uniqueid": "MTK1648:3ATTHHXXWBVNKP83G0DHBD7C1ZRIXE", "dateTime": 1516121052028}, {"current_trial": 151, "trialdata": {"rt": -1, "trial_type": "single-stim", "stimulus": "<p id=\"stim\">5</p>", "internal_node_id": "0.0-110.0-5.0", "time_elapsed": 660654, "key_press": -1, "trial_index": 151}, "uniqueid": "MTK1648:3ATTHHXXWBVNKP83G0DHBD7C1ZRIXE", "dateTime": 1516121053028}, {"current_trial": 152, "trialdata": {"rt": -1, "trial_type": "single-stim", "stimulus": "<p id=\"stim\">4</p>", "internal_node_id": "0.0-110.0-6.0", "time_elapsed": 661654, "key_press": -1, "trial_index": 152}, "uniqueid": "MTK1648:3ATTHHXXWBVNKP83G0DHBD7C1ZRIXE", "dateTime": 1516121054028}, {"current_trial": 153, "trialdata": {"rt": -1, "trial_type": "single-stim", "stimulus": "<p id=\"stim\">3</p>", "internal_node_id": "0.0-110.0-7.0", "time_elapsed": 662654, "key_press": -1, "trial_index": 153}, "uniqueid": "MTK1648:3ATTHHXXWBVNKP83G0DHBD7C1ZRIXE", "dateTime": 1516121055028}, {"current_trial": 154, "trialdata": {"rt": -1, "trial_type": "single-stim", "stimulus": "<p id=\"stim\">2</p>", "internal_node_id": "0.0-110.0-8.0", "time_elapsed": 663654, "key_press": -1, "trial_index": 154}, "uniqueid": "MTK1648:3ATTHHXXWBVNKP83G0DHBD7C1ZRIXE", "dateTime": 1516121056028}, {"current_trial": 155, "trialdata": {"rt": -1, "trial_type": "single-stim", "stimulus": "<p id=\"stim\">1</p>", "internal_node_id": "0.0-110.0-9.0", "time_elapsed": 664654, "key_press": -1, "trial_index": 155}, "uniqueid": "MTK1648:3ATTHHXXWBVNKP83G0DHBD7C1ZRIXE", "dateTime": 1516121057028}, {"current_trial": 156, "trialdata": {"rt": -1, "trial_type": "single-stim", "stimulus": "<p id=\"stim\">+</p>", "internal_node_id": "0.0-111.0-0.0", "time_elapsed": 666154, "key_press": -1, "type": "FIXATION", "trial_index": 156}, "uniqueid": "MTK1648:3ATTHHXXWBVNKP83G0DHBD7C1ZRIXE", "dateTime": 1516121058528}, {"current_trial": 157, "trialdata": {"rt": -1, "trial_type": "single-stim", "word": "student", "stimulus": "<p id=\"stim\">STUDENT</p>", "conditions": [24, 800, "v", 12000], "internal_node_id": "0.0-112.0", "trial": 4, "time_elapsed": 666954, "serialpos": 0, "key_press": -1, "wordID": 1394, "type": "PRES_VIS", "trial_index": 157}, "uniqueid": "MTK1648:3ATTHHXXWBVNKP83G0DHBD7C1ZRIXE", "dateTime": 1516121059328}, {"current_trial": 158, "trialdata": {"rt": -1, "trial_type": "single-stim", "word": "turkey", "stimulus": "<p id=\"stim\">TURKEY</p>", "conditions": [24, 800, "v", 12000], "internal_node_id": "0.0-113.0", "trial": 4, "time_elapsed": 668600, "serialpos": 1, "key_press": -1, "wordID": 1519, "type": "PRES_VIS", "trial_index": 158}, "uniqueid": "MTK1648:3ATTHHXXWBVNKP83G0DHBD7C1ZRIXE", "dateTime": 1516121060974}, {"current_trial": 159, "trialdata": {"rt": -1, "trial_type": "single-stim", "word": "panther", "stimulus": "<p id=\"stim\">PANTHER</p>", "conditions": [24, 800, "v", 12000], "internal_node_id": "0.0-114.0", "trial": 4, "time_elapsed": 670405, "serialpos": 2, "key_press": -1, "wordID": 1008, "type": "PRES_VIS", "trial_index": 159}, "uniqueid": "MTK1648:3ATTHHXXWBVNKP83G0DHBD7C1ZRIXE", "dateTime": 1516121062779}, {"current_trial": 160, "trialdata": {"rt": -1, "trial_type": "single-stim", "word": "lily", "stimulus": "<p id=\"stim\">LILY</p>", "conditions": [24, 800, "v", 12000], "internal_node_id": "0.0-115.0", "trial": 4, "time_elapsed": 672266, "serialpos": 3, "key_press": -1, "wordID": 820, "type": "PRES_VIS", "trial_index": 160}, "uniqueid": "MTK1648:3ATTHHXXWBVNKP83G0DHBD7C1ZRIXE", "dateTime": 1516121064640}, {"current_trial": 161, "trialdata": {"rt": -1, "trial_type": "single-stim", "word": "soda", "stimulus": "<p id=\"stim\">SODA</p>", "conditions": [24, 800, "v", 12000], "internal_node_id": "0.0-116.0", "trial": 4, "time_elapsed": 674131, "serialpos": 4, "key_press": -1, "wordID": 1340, "type": "PRES_VIS", "trial_index": 161}, "uniqueid": "MTK1648:3ATTHHXXWBVNKP83G0DHBD7C1ZRIXE", "dateTime": 1516121066505}, {"current_trial": 162, "trialdata": {"rt": -1, "trial_type": "single-stim", "word": "drink", "stimulus": "<p id=\"stim\">DRINK</p>", "conditions": [24, 800, "v", 12000], "internal_node_id": "0.0-117.0", "trial": 4, "time_elapsed": 675944, "serialpos": 5, "key_press": -1, "wordID": 497, "type": "PRES_VIS", "trial_index": 162}, "uniqueid": "MTK1648:3ATTHHXXWBVNKP83G0DHBD7C1ZRIXE", "dateTime": 1516121068318}, {"current_trial": 163, "trialdata": {"rt": -1, "trial_type": "single-stim", "word": "hood", "stimulus": "<p id=\"stim\">HOOD</p>", "conditions": [24, 800, "v", 12000], "internal_node_id": "0.0-118.0", "trial": 4, "time_elapsed": 677778, "serialpos": 6, "key_press": -1, "wordID": 713, "type": "PRES_VIS", "trial_index": 163}, "uniqueid": "MTK1648:3ATTHHXXWBVNKP83G0DHBD7C1ZRIXE", "dateTime": 1516121070152}, {"current_trial": 164, "trialdata": {"rt": -1, "trial_type": "single-stim", "word": "trench", "stimulus": "<p id=\"stim\">TRENCH</p>", "conditions": [24, 800, "v", 12000], "internal_node_id": "0.0-119.0", "trial": 4, "time_elapsed": 679609, "serialpos": 7, "key_press": -1, "wordID": 1502, "type": "PRES_VIS", "trial_index": 164}, "uniqueid": "MTK1648:3ATTHHXXWBVNKP83G0DHBD7C1ZRIXE", "dateTime": 1516121071983}, {"current_trial": 165, "trialdata": {"rt": -1, "trial_type": "single-stim", "word": "concert", "stimulus": "<p id=\"stim\">CONCERT</p>", "conditions": [24, 800, "v", 12000], "internal_node_id": "0.0-120.0", "trial": 4, "time_elapsed": 681242, "serialpos": 8, "key_press": -1, "wordID": 359, "type": "PRES_VIS", "trial_index": 165}, "uniqueid": "MTK1648:3ATTHHXXWBVNKP83G0DHBD7C1ZRIXE", "dateTime": 1516121073616}, {"current_trial": 166, "trialdata": {"rt": -1, "trial_type": "single-stim", "word": "backbone", "stimulus": "<p id=\"stim\">BACKBONE</p>", "conditions": [24, 800, "v", 12000], "internal_node_id": "0.0-121.0", "trial": 4, "time_elapsed": 683065, "serialpos": 9, "key_press": -1, "wordID": 65, "type": "PRES_VIS", "trial_index": 166}, "uniqueid": "MTK1648:3ATTHHXXWBVNKP83G0DHBD7C1ZRIXE", "dateTime": 1516121075439}, {"current_trial": 167, "trialdata": {"rt": -1, "trial_type": "single-stim", "word": "cocoon", "stimulus": "<p id=\"stim\">COCOON</p>", "conditions": [24, 800, "v", 12000], "internal_node_id": "0.0-122.0", "trial": 4, "time_elapsed": 684844, "serialpos": 10, "key_press": -1, "wordID": 338, "type": "PRES_VIS", "trial_index": 167}, "uniqueid": "MTK1648:3ATTHHXXWBVNKP83G0DHBD7C1ZRIXE", "dateTime": 1516121077218}, {"current_trial": 168, "trialdata": {"rt": -1, "trial_type": "single-stim", "word": "pork", "stimulus": "<p id=\"stim\">PORK</p>", "conditions": [24, 800, "v", 12000], "internal_node_id": "0.0-123.0", "trial": 4, "time_elapsed": 686675, "serialpos": 11, "key_press": -1, "wordID": 1107, "type": "PRES_VIS", "trial_index": 168}, "uniqueid": "MTK1648:3ATTHHXXWBVNKP83G0DHBD7C1ZRIXE", "dateTime": 1516121079049}, {"current_trial": 169, "trialdata": {"rt": -1, "trial_type": "single-stim", "word": "sandwich", "stimulus": "<p id=\"stim\">SANDWICH</p>", "conditions": [24, 800, "v", 12000], "internal_node_id": "0.0-124.0", "trial": 4, "time_elapsed": 688354, "serialpos": 12, "key_press": -1, "wordID": 1231, "type": "PRES_VIS", "trial_index": 169}, "uniqueid": "MTK1648:3ATTHHXXWBVNKP83G0DHBD7C1ZRIXE", "dateTime": 1516121080728}, {"current_trial": 170, "trialdata": {"rt": -1, "trial_type": "single-stim", "word": "subway", "stimulus": "<p id=\"stim\">SUBWAY</p>", "conditions": [24, 800, "v", 12000], "internal_node_id": "0.0-125.0", "trial": 4, "time_elapsed": 690082, "serialpos": 13, "key_press": -1, "wordID": 1399, "type": "PRES_VIS", "trial_index": 170}, "uniqueid": "MTK1648:3ATTHHXXWBVNKP83G0DHBD7C1ZRIXE", "dateTime": 1516121082456}, {"current_trial": 171, "trialdata": {"rt": -1, "trial_type": "single-stim", "word": "dustpan", "stimulus": "<p id=\"stim\">DUSTPAN</p>", "conditions": [24, 800, "v", 12000], "internal_node_id": "0.0-126.0", "trial": 4, "time_elapsed": 691903, "serialpos": 14, "key_press": -1, "wordID": 508, "type": "PRES_VIS", "trial_index": 171}, "uniqueid": "MTK1648:3ATTHHXXWBVNKP83G0DHBD7C1ZRIXE", "dateTime": 1516121084277}, {"current_trial": 172, "trialdata": {"rt": -1, "trial_type": "single-stim", "word": "tweezers", "stimulus": "<p id=\"stim\">TWEEZERS</p>", "conditions": [24, 800, "v", 12000], "internal_node_id": "0.0-127.0", "trial": 4, "time_elapsed": 693893, "serialpos": 15, "key_press": -1, "wordID": 1525, "type": "PRES_VIS", "trial_index": 172}, "uniqueid": "MTK1648:3ATTHHXXWBVNKP83G0DHBD7C1ZRIXE", "dateTime": 1516121086267}, {"current_trial": 173, "trialdata": {"rt": -1, "trial_type": "single-stim", "word": "dashboard", "stimulus": "<p id=\"stim\">DASHBOARD</p>", "conditions": [24, 800, "v", 12000], "internal_node_id": "0.0-128.0", "trial": 4, "time_elapsed": 695860, "serialpos": 16, "key_press": -1, "wordID": 440, "type": "PRES_VIS", "trial_index": 173}, "uniqueid": "MTK1648:3ATTHHXXWBVNKP83G0DHBD7C1ZRIXE", "dateTime": 1516121088234}, {"current_trial": 174, "trialdata": {"rt": -1, "trial_type": "single-stim", "word": "parent", "stimulus": "<p id=\"stim\">PARENT</p>", "conditions": [24, 800, "v", 12000], "internal_node_id": "0.0-129.0", "trial": 4, "time_elapsed": 697464, "serialpos": 17, "key_press": -1, "wordID": 1012, "type": "PRES_VIS", "trial_index": 174}, "uniqueid": "MTK1648:3ATTHHXXWBVNKP83G0DHBD7C1ZRIXE", "dateTime": 1516121089838}, {"current_trial": 175, "trialdata": {"rt": -1, "trial_type": "single-stim", "word": "supper", "stimulus": "<p id=\"stim\">SUPPER</p>", "conditions": [24, 800, "v", 12000], "internal_node_id": "0.0-130.0", "trial": 4, "time_elapsed": 699252, "serialpos": 18, "key_press": -1, "wordID": 1410, "type": "PRES_VIS", "trial_index": 175}, "uniqueid": "MTK1648:3ATTHHXXWBVNKP83G0DHBD7C1ZRIXE", "dateTime": 1516121091626}, {"current_trial": 176, "trialdata": {"rt": -1, "trial_type": "single-stim", "word": "belly", "stimulus": "<p id=\"stim\">BELLY</p>", "conditions": [24, 800, "v", 12000], "internal_node_id": "0.0-131.0", "trial": 4, "time_elapsed": 700964, "serialpos": 19, "key_press": -1, "wordID": 118, "type": "PRES_VIS", "trial_index": 176}, "uniqueid": "MTK1648:3ATTHHXXWBVNKP83G0DHBD7C1ZRIXE", "dateTime": 1516121093338}, {"current_trial": 177, "trialdata": {"rt": -1, "trial_type": "single-stim", "word": "bacon", "stimulus": "<p id=\"stim\">BACON</p>", "conditions": [24, 800, "v", 12000], "internal_node_id": "0.0-132.0", "trial": 4, "time_elapsed": 702759, "serialpos": 20, "key_press": -1, "wordID": 66, "type": "PRES_VIS", "trial_index": 177}, "uniqueid": "MTK1648:3ATTHHXXWBVNKP83G0DHBD7C1ZRIXE", "dateTime": 1516121095133}, {"current_trial": 178, "trialdata": {"rt": -1, "trial_type": "single-stim", "word": "tunnel", "stimulus": "<p id=\"stim\">TUNNEL</p>", "conditions": [24, 800, "v", 12000], "internal_node_id": "0.0-133.0", "trial": 4, "time_elapsed": 704378, "serialpos": 21, "key_press": -1, "wordID": 1518, "type": "PRES_VIS", "trial_index": 178}, "uniqueid": "MTK1648:3ATTHHXXWBVNKP83G0DHBD7C1ZRIXE", "dateTime": 1516121096752}, {"current_trial": 179, "trialdata": {"rt": -1, "trial_type": "single-stim", "word": "river", "stimulus": "<p id=\"stim\">RIVER</p>", "conditions": [24, 800, "v", 12000], "internal_node_id": "0.0-134.0", "trial": 4, "time_elapsed": 706342, "serialpos": 22, "key_press": -1, "wordID": 1193, "type": "PRES_VIS", "trial_index": 179}, "uniqueid": "MTK1648:3ATTHHXXWBVNKP83G0DHBD7C1ZRIXE", "dateTime": 1516121098716}, {"current_trial": 180, "trialdata": {"rt": -1, "trial_type": "single-stim", "word": "lake", "stimulus": "<p id=\"stim\">LAKE</p>", "conditions": [24, 800, "v", 12000], "internal_node_id": "0.0-135.0", "trial": 4, "time_elapsed": 708171, "serialpos": 23, "key_press": -1, "wordID": 795, "type": "PRES_VIS", "trial_index": 180}, "uniqueid": "MTK1648:3ATTHHXXWBVNKP83G0DHBD7C1ZRIXE", "dateTime": 1516121100545}, {"current_trial": 181, "trialdata": {"rt": -1, "trial_type": "single-stim", "stimulus": "", "internal_node_id": "0.0-136.0-0.0", "time_elapsed": 710544, "key_press": -1, "type": "PRE_RECALL_DELAY", "trial_index": 181}, "uniqueid": "MTK1648:3ATTHHXXWBVNKP83G0DHBD7C1ZRIXE", "dateTime": 1516121102918}, {"current_trial": 182, "trialdata": {"rt": -1000, "trial_type": "single-audio", "stimulus": "/static/audio/400Hz.wav", "internal_node_id": "0.0-137.0", "time_elapsed": 711044, "key_press": -1, "type": "PRE_RECALL_ALERT", "trial_index": 182}, "uniqueid": "MTK1648:3ATTHHXXWBVNKP83G0DHBD7C1ZRIXE", "dateTime": 1516121103418}, {"current_trial": 183, "trialdata": {"rt": [5572, 14085, 18789, 23877, 27732, 33317, 39556, 50069, 56757], "recwords": ["river", "lake", "tunnel", "drink", "student", "subway", "parent", "lily", "panther"], "key_times": [3253, 3653, 4197, 4549, 4677, 5572, 8164, 8740, 9461, 13541, 14085, 15109, 15413, 15781, 15957, 16315, 16853, 18789, 21797, 22004, 22436, 22868, 23076, 23877, 25060, 25364, 25636, 26276, 26404, 26852, 27012, 27732, 30756, 31173, 31509, 32053, 32181, 32661, 33317, 36597, 37253, 37589, 37733, 38261, 38405, 39556, 47620, 47716, 48036, 48773, 50069, 53429, 54469, 55045, 55349, 55493, 55908, 56005, 56757, 57412, 57620, 58549, 59540, 59844], "trial_type": "free-recall", "conditions": [24, 800, "v", 12000], "internal_node_id": "0.0-138.0-0.0", "key_presses": [82, 73, 86, 69, 82, 13, 76, 65, 75, 69, 13, 84, 85, 78, 78, 69, 76, 13, 68, 82, 73, 78, 75, 13, 83, 84, 85, 68, 69, 78, 84, 13, 83, 85, 66, 87, 65, 89, 13, 80, 65, 82, 69, 78, 84, 13, 76, 73, 76, 89, 13, 80, 65, 78, 84, 72, 69, 82, 13, 68, 82, 73, 78, 75], "trial": 4, "time_elapsed": 771046, "type": "FREE_RECALL", "trial_index": 183}, "uniqueid": "MTK1648:3ATTHHXXWBVNKP83G0DHBD7C1ZRIXE", "dateTime": 1516121163426}, {"current_trial": 184, "trialdata": {"rt": 4030, "trial_type": "text", "internal_node_id": "0.0-139.0", "time_elapsed": 777082, "key_press": 13, "type": "INSTRUCTIONS", "trial_index": 184}, "uniqueid": "MTK1648:3ATTHHXXWBVNKP83G0DHBD7C1ZRIXE", "dateTime": 1516121169456}, {"current_trial": 185, "trialdata": {"rt": [3231, 7070, 9406, 11486], "trial_type": "math-distractor", "key_times": [2031, 2479, 3231, 5983, 6414, 7070, 8926, 9406, 10654, 10926, 11486], "responses": ["13", "17", "8", "18"], "num2": [7, 6, 2, 6, 8], "num3": [2, 3, 1, 8, 6], "conditions": [12, 1600, "v", 12000], "internal_node_id": "0.0-140.0", "key_presses": [97, 99, 13, 97, 103, 13, 104, 13, 97, 104, 13], "trial": 5, "time_elapsed": 791083, "type": "DISTRACTOR", "trial_index": 185, "num1": [4, 8, 5, 4, 5]}, "uniqueid": "MTK1648:3ATTHHXXWBVNKP83G0DHBD7C1ZRIXE", "dateTime": 1516121183457}, {"current_trial": 186, "trialdata": {"rt": -1, "trial_type": "single-stim", "stimulus": "<p id=\"stim\">10</p>", "internal_node_id": "0.0-141.0-0.0", "time_elapsed": 794084, "key_press": -1, "trial_index": 186}, "uniqueid": "MTK1648:3ATTHHXXWBVNKP83G0DHBD7C1ZRIXE", "dateTime": 1516121186458}, {"current_trial": 187, "trialdata": {"rt": -1, "trial_type": "single-stim", "stimulus": "<p id=\"stim\">9</p>", "internal_node_id": "0.0-141.0-1.0", "time_elapsed": 795084, "key_press": -1, "trial_index": 187}, "uniqueid": "MTK1648:3ATTHHXXWBVNKP83G0DHBD7C1ZRIXE", "dateTime": 1516121187458}, {"current_trial": 188, "trialdata": {"rt": -1, "trial_type": "single-stim", "stimulus": "<p id=\"stim\">8</p>", "internal_node_id": "0.0-141.0-2.0", "time_elapsed": 796084, "key_press": -1, "trial_index": 188}, "uniqueid": "MTK1648:3ATTHHXXWBVNKP83G0DHBD7C1ZRIXE", "dateTime": 1516121188458}, {"current_trial": 189, "trialdata": {"rt": -1, "trial_type": "single-stim", "stimulus": "<p id=\"stim\">7</p>", "internal_node_id": "0.0-141.0-3.0", "time_elapsed": 797084, "key_press": -1, "trial_index": 189}, "uniqueid": "MTK1648:3ATTHHXXWBVNKP83G0DHBD7C1ZRIXE", "dateTime": 1516121189458}, {"current_trial": 190, "trialdata": {"rt": -1, "trial_type": "single-stim", "stimulus": "<p id=\"stim\">6</p>", "internal_node_id": "0.0-141.0-4.0", "time_elapsed": 798084, "key_press": -1, "trial_index": 190}, "uniqueid": "MTK1648:3ATTHHXXWBVNKP83G0DHBD7C1ZRIXE", "dateTime": 1516121190458}, {"current_trial": 191, "trialdata": {"rt": -1, "trial_type": "single-stim", "stimulus": "<p id=\"stim\">5</p>", "internal_node_id": "0.0-141.0-5.0", "time_elapsed": 799084, "key_press": -1, "trial_index": 191}, "uniqueid": "MTK1648:3ATTHHXXWBVNKP83G0DHBD7C1ZRIXE", "dateTime": 1516121191458}, {"current_trial": 192, "trialdata": {"rt": -1, "trial_type": "single-stim", "stimulus": "<p id=\"stim\">4</p>", "internal_node_id": "0.0-141.0-6.0", "time_elapsed": 800084, "key_press": -1, "trial_index": 192}, "uniqueid": "MTK1648:3ATTHHXXWBVNKP83G0DHBD7C1ZRIXE", "dateTime": 1516121192458}, {"current_trial": 193, "trialdata": {"rt": -1, "trial_type": "single-stim", "stimulus": "<p id=\"stim\">3</p>", "internal_node_id": "0.0-141.0-7.0", "time_elapsed": 801084, "key_press": -1, "trial_index": 193}, "uniqueid": "MTK1648:3ATTHHXXWBVNKP83G0DHBD7C1ZRIXE", "dateTime": 1516121193458}, {"current_trial": 194, "trialdata": {"rt": -1, "trial_type": "single-stim", "stimulus": "<p id=\"stim\">2</p>", "internal_node_id": "0.0-141.0-8.0", "time_elapsed": 802084, "key_press": -1, "trial_index": 194}, "uniqueid": "MTK1648:3ATTHHXXWBVNKP83G0DHBD7C1ZRIXE", "dateTime": 1516121194458}, {"current_trial": 195, "trialdata": {"rt": -1, "trial_type": "single-stim", "stimulus": "<p id=\"stim\">1</p>", "internal_node_id": "0.0-141.0-9.0", "time_elapsed": 803084, "key_press": -1, "trial_index": 195}, "uniqueid": "MTK1648:3ATTHHXXWBVNKP83G0DHBD7C1ZRIXE", "dateTime": 1516121195459}, {"current_trial": 196, "trialdata": {"rt": -1, "trial_type": "single-stim", "stimulus": "<p id=\"stim\">+</p>", "internal_node_id": "0.0-142.0-0.0", "time_elapsed": 804585, "key_press": -1, "type": "FIXATION", "trial_index": 196}, "uniqueid": "MTK1648:3ATTHHXXWBVNKP83G0DHBD7C1ZRIXE", "dateTime": 1516121196959}, {"current_trial": 197, "trialdata": {"rt": -1, "trial_type": "single-stim", "word": "cattle", "stimulus": "<p id=\"stim\">CATTLE</p>", "conditions": [12, 1600, "v", 12000], "internal_node_id": "0.0-143.0", "trial": 5, "time_elapsed": 806185, "serialpos": 0, "key_press": -1, "wordID": 260, "type": "PRES_VIS", "trial_index": 197}, "uniqueid": "MTK1648:3ATTHHXXWBVNKP83G0DHBD7C1ZRIXE", "dateTime": 1516121198559}, {"current_trial": 198, "trialdata": {"rt": -1, "trial_type": "single-stim", "word": "marine", "stimulus": "<p id=\"stim\">MARINE</p>", "conditions": [12, 1600, "v", 12000], "internal_node_id": "0.0-144.0", "trial": 5, "time_elapsed": 808758, "serialpos": 1, "key_press": -1, "wordID": 868, "type": "PRES_VIS", "trial_index": 198}, "uniqueid": "MTK1648:3ATTHHXXWBVNKP83G0DHBD7C1ZRIXE", "dateTime": 1516121201133}, {"current_trial": 199, "trialdata": {"rt": -1, "trial_type": "single-stim", "word": "stove", "stimulus": "<p id=\"stim\">STOVE</p>", "conditions": [12, 1600, "v", 12000], "internal_node_id": "0.0-145.0", "trial": 5, "time_elapsed": 811356, "serialpos": 2, "key_press": -1, "wordID": 1387, "type": "PRES_VIS", "trial_index": 199}, "uniqueid": "MTK1648:3ATTHHXXWBVNKP83G0DHBD7C1ZRIXE", "dateTime": 1516121203730}, {"current_trial": 200, "trialdata": {"rt": -1, "trial_type": "single-stim", "word": "mustard", "stimulus": "<p id=\"stim\">MUSTARD</p>", "conditions": [12, 1600, "v", 12000], "internal_node_id": "0.0-146.0", "trial": 5, "time_elapsed": 813828, "serialpos": 3, "key_press": -1, "wordID": 934, "type": "PRES_VIS", "trial_index": 200}, "uniqueid": "MTK1648:3ATTHHXXWBVNKP83G0DHBD7C1ZRIXE", "dateTime": 1516121206202}, {"current_trial": 201, "trialdata": {"rt": -1, "trial_type": "single-stim", "word": "lamp", "stimulus": "<p id=\"stim\">LAMP</p>", "conditions": [12, 1600, "v", 12000], "internal_node_id": "0.0-147.0", "trial": 5, "time_elapsed": 816433, "serialpos": 4, "key_press": -1, "wordID": 797, "type": "PRES_VIS", "trial_index": 201}, "uniqueid": "MTK1648:3ATTHHXXWBVNKP83G0DHBD7C1ZRIXE", "dateTime": 1516121208807}, {"current_trial": 202, "trialdata": {"rt": -1, "trial_type": "single-stim", "word": "expert", "stimulus": "<p id=\"stim\">EXPERT</p>", "conditions": [12, 1600, "v", 12000], "internal_node_id": "0.0-148.0", "trial": 5, "time_elapsed": 818840, "serialpos": 5, "key_press": -1, "wordID": 542, "type": "PRES_VIS", "trial_index": 202}, "uniqueid": "MTK1648:3ATTHHXXWBVNKP83G0DHBD7C1ZRIXE", "dateTime": 1516121211214}, {"current_trial": 203, "trialdata": {"rt": -1, "trial_type": "single-stim", "word": "agent", "stimulus": "<p id=\"stim\">AGENT</p>", "conditions": [12, 1600, "v", 12000], "internal_node_id": "0.0-149.0", "trial": 5, "time_elapsed": 821308, "serialpos": 6, "key_press": -1, "wordID": 9, "type": "PRES_VIS", "trial_index": 203}, "uniqueid": "MTK1648:3ATTHHXXWBVNKP83G0DHBD7C1ZRIXE", "dateTime": 1516121213682}, {"current_trial": 204, "trialdata": {"rt": -1, "trial_type": "single-stim", "word": "toaster", "stimulus": "<p id=\"stim\">TOASTER</p>", "conditions": [12, 1600, "v", 12000], "internal_node_id": "0.0-150.0", "trial": 5, "time_elapsed": 823945, "serialpos": 7, "key_press": -1, "wordID": 1471, "type": "PRES_VIS", "trial_index": 204}, "uniqueid": "MTK1648:3ATTHHXXWBVNKP83G0DHBD7C1ZRIXE", "dateTime": 1516121216319}, {"current_trial": 205, "trialdata": {"rt": -1, "trial_type": "single-stim", "word": "tractor", "stimulus": "<p id=\"stim\">TRACTOR</p>", "conditions": [12, 1600, "v", 12000], "internal_node_id": "0.0-151.0", "trial": 5, "time_elapsed": 826376, "serialpos": 8, "key_press": -1, "wordID": 1492, "type": "PRES_VIS", "trial_index": 205}, "uniqueid": "MTK1648:3ATTHHXXWBVNKP83G0DHBD7C1ZRIXE", "dateTime": 1516121218750}, {"current_trial": 206, "trialdata": {"rt": -1, "trial_type": "single-stim", "word": "asia", "stimulus": "<p id=\"stim\">ASIA</p>", "conditions": [12, 1600, "v", 12000], "internal_node_id": "0.0-152.0", "trial": 5, "time_elapsed": 828972, "serialpos": 9, "key_press": -1, "wordID": 45, "type": "PRES_VIS", "trial_index": 206}, "uniqueid": "MTK1648:3ATTHHXXWBVNKP83G0DHBD7C1ZRIXE", "dateTime": 1516121221346}, {"current_trial": 207, "trialdata": {"rt": -1, "trial_type": "single-stim", "word": "europe", "stimulus": "<p id=\"stim\">EUROPE</p>", "conditions": [12, 1600, "v", 12000], "internal_node_id": "0.0-153.0", "trial": 5, "time_elapsed": 831486, "serialpos": 10, "key_press": -1, "wordID": 540, "type": "PRES_VIS", "trial_index": 207}, "uniqueid": "MTK1648:3ATTHHXXWBVNKP83G0DHBD7C1ZRIXE", "dateTime": 1516121223860}, {"current_trial": 208, "trialdata": {"rt": -1, "trial_type": "single-stim", "word": "puddle", "stimulus": "<p id=\"stim\">PUDDLE</p>", "conditions": [12, 1600, "v", 12000], "internal_node_id": "0.0-154.0", "trial": 5, "time_elapsed": 833992, "serialpos": 11, "key_press": -1, "wordID": 1139, "type": "PRES_VIS", "trial_index": 208}, "uniqueid": "MTK1648:3ATTHHXXWBVNKP83G0DHBD7C1ZRIXE", "dateTime": 1516121226366}, {"current_trial": 209, "trialdata": {"rt": -1, "trial_type": "single-stim", "stimulus": "", "internal_node_id": "0.0-155.0-0.0", "time_elapsed": 836250, "key_press": -1, "type": "PRE_RECALL_DELAY", "trial_index": 209}, "uniqueid": "MTK1648:3ATTHHXXWBVNKP83G0DHBD7C1ZRIXE", "dateTime": 1516121228624}, {"current_trial": 210, "trialdata": {"rt": -1000, "trial_type": "single-audio", "stimulus": "/static/audio/400Hz.wav", "internal_node_id": "0.0-156.0", "time_elapsed": 836750, "key_press": -1, "type": "PRE_RECALL_ALERT", "trial_index": 210}, "uniqueid": "MTK1648:3ATTHHXXWBVNKP83G0DHBD7C1ZRIXE", "dateTime": 1516121229124}, {"current_trial": 211, "trialdata": {"rt": [3642, 7178, 10395, 12859, 15003, 17866, 20714, 27050, 29659], "recwords": ["mustard", "puddle", "lamp", "stove", "asia", "europe", "marine", "agent", "expert"], "key_times": [1195, 1467, 1787, 2154, 2666, 3018, 3242, 3642, 4682, 5066, 5530, 5722, 5930, 6154, 7178, 8922, 9146, 9594, 9802, 10395, 10891, 11275, 11499, 11819, 11979, 12859, 13579, 13723, 13947, 14155, 15003, 15611, 16075, 16555, 16732, 17003, 17211, 17866, 18603, 18810, 19211, 19434, 19834, 20058, 20714, 25099, 25595, 25738, 25962, 26218, 27050, 27739, 28059, 28427, 28667, 28811, 29259, 29659], "trial_type": "free-recall", "conditions": [12, 1600, "v", 12000], "internal_node_id": "0.0-157.0-0.0", "key_presses": [77, 85, 83, 84, 65, 82, 68, 13, 80, 85, 68, 68, 76, 69, 13, 76, 65, 77, 80, 13, 83, 84, 79, 86, 69, 13, 65, 83, 73, 65, 13, 69, 85, 82, 79, 80, 69, 13, 77, 65, 82, 73, 78, 69, 13, 65, 71, 69, 78, 84, 13, 69, 88, 80, 69, 82, 84, 13], "trial": 5, "time_elapsed": 896751, "type": "FREE_RECALL", "trial_index": 211}, "uniqueid": "MTK1648:3ATTHHXXWBVNKP83G0DHBD7C1ZRIXE", "dateTime": 1516121289128}, {"current_trial": 212, "trialdata": {"rt": 1704, "trial_type": "text", "internal_node_id": "0.0-158.0", "time_elapsed": 900459, "key_press": 32, "type": "INSTRUCTIONS", "trial_index": 212}, "uniqueid": "MTK1648:3ATTHHXXWBVNKP83G0DHBD7C1ZRIXE", "dateTime": 1516121292833}, {"current_trial": 213, "trialdata": {"rt": [3534, 5853, 8365, 11405, 13613, 16606, 19326, 22109], "trial_type": "math-distractor", "key_times": [2526, 2766, 3534, 5390, 5853, 7853, 7999, 8365, 10797, 11038, 11405, 12766, 13085, 13613, 15966, 16206, 16606, 18718, 18926, 19326, 21438, 21646, 22109, 23678, 23885], "responses": ["18", "9", "23", "14", "16", "18", "15", "12"], "num2": [5, 1, 9, 2, 2, 3, 6, 8, 6], "num3": [4, 2, 6, 6, 7, 8, 2, 1, 3], "conditions": [24, 1600, "v", 24000], "internal_node_id": "0.0-159.0", "key_presses": [97, 104, 13, 105, 13, 98, 99, 13, 97, 100, 13, 97, 102, 13, 97, 104, 13, 97, 101, 13, 97, 98, 13, 97, 104], "trial": 6, "time_elapsed": 926460, "type": "DISTRACTOR", "trial_index": 213, "num1": [9, 6, 8, 6, 7, 6, 7, 3, 9]}, "uniqueid": "MTK1648:3ATTHHXXWBVNKP83G0DHBD7C1ZRIXE", "dateTime": 1516121318834}, {"current_trial": 214, "trialdata": {"rt": -1, "trial_type": "single-stim", "stimulus": "<p id=\"stim\">10</p>", "internal_node_id": "0.0-160.0-0.0", "time_elapsed": 929462, "key_press": -1, "trial_index": 214}, "uniqueid": "MTK1648:3ATTHHXXWBVNKP83G0DHBD7C1ZRIXE", "dateTime": 1516121321836}, {"current_trial": 215, "trialdata": {"rt": -1, "trial_type": "single-stim", "stimulus": "<p id=\"stim\">9</p>", "internal_node_id": "0.0-160.0-1.0", "time_elapsed": 930463, "key_press": -1, "trial_index": 215}, "uniqueid": "MTK1648:3ATTHHXXWBVNKP83G0DHBD7C1ZRIXE", "dateTime": 1516121322837}, {"current_trial": 216, "trialdata": {"rt": -1, "trial_type": "single-stim", "stimulus": "<p id=\"stim\">8</p>", "internal_node_id": "0.0-160.0-2.0", "time_elapsed": 931463, "key_press": -1, "trial_index": 216}, "uniqueid": "MTK1648:3ATTHHXXWBVNKP83G0DHBD7C1ZRIXE", "dateTime": 1516121323837}, {"current_trial": 217, "trialdata": {"rt": -1, "trial_type": "single-stim", "stimulus": "<p id=\"stim\">7</p>", "internal_node_id": "0.0-160.0-3.0", "time_elapsed": 932463, "key_press": -1, "trial_index": 217}, "uniqueid": "MTK1648:3ATTHHXXWBVNKP83G0DHBD7C1ZRIXE", "dateTime": 1516121324837}, {"current_trial": 218, "trialdata": {"rt": -1, "trial_type": "single-stim", "stimulus": "<p id=\"stim\">6</p>", "internal_node_id": "0.0-160.0-4.0", "time_elapsed": 933463, "key_press": -1, "trial_index": 218}, "uniqueid": "MTK1648:3ATTHHXXWBVNKP83G0DHBD7C1ZRIXE", "dateTime": 1516121325837}, {"current_trial": 219, "trialdata": {"rt": -1, "trial_type": "single-stim", "stimulus": "<p id=\"stim\">5</p>", "internal_node_id": "0.0-160.0-5.0", "time_elapsed": 934463, "key_press": -1, "trial_index": 219}, "uniqueid": "MTK1648:3ATTHHXXWBVNKP83G0DHBD7C1ZRIXE", "dateTime": 1516121326837}, {"current_trial": 220, "trialdata": {"rt": -1, "trial_type": "single-stim", "stimulus": "<p id=\"stim\">4</p>", "internal_node_id": "0.0-160.0-6.0", "time_elapsed": 935463, "key_press": -1, "trial_index": 220}, "uniqueid": "MTK1648:3ATTHHXXWBVNKP83G0DHBD7C1ZRIXE", "dateTime": 1516121327837}, {"current_trial": 221, "trialdata": {"rt": -1, "trial_type": "single-stim", "stimulus": "<p id=\"stim\">3</p>", "internal_node_id": "0.0-160.0-7.0", "time_elapsed": 936463, "key_press": -1, "trial_index": 221}, "uniqueid": "MTK1648:3ATTHHXXWBVNKP83G0DHBD7C1ZRIXE", "dateTime": 1516121328837}, {"current_trial": 222, "trialdata": {"rt": -1, "trial_type": "single-stim", "stimulus": "<p id=\"stim\">2</p>", "internal_node_id": "0.0-160.0-8.0", "time_elapsed": 937463, "key_press": -1, "trial_index": 222}, "uniqueid": "MTK1648:3ATTHHXXWBVNKP83G0DHBD7C1ZRIXE", "dateTime": 1516121329837}, {"current_trial": 223, "trialdata": {"rt": -1, "trial_type": "single-stim", "stimulus": "<p id=\"stim\">1</p>", "internal_node_id": "0.0-160.0-9.0", "time_elapsed": 938463, "key_press": -1, "trial_index": 223}, "uniqueid": "MTK1648:3ATTHHXXWBVNKP83G0DHBD7C1ZRIXE", "dateTime": 1516121330837}, {"current_trial": 224, "trialdata": {"rt": -1, "trial_type": "single-stim", "stimulus": "<p id=\"stim\">+</p>", "internal_node_id": "0.0-161.0-0.0", "time_elapsed": 939964, "key_press": -1, "type": "FIXATION", "trial_index": 224}, "uniqueid": "MTK1648:3ATTHHXXWBVNKP83G0DHBD7C1ZRIXE", "dateTime": 1516121332338}, {"current_trial": 225, "trialdata": {"rt": -1, "trial_type": "single-stim", "word": "peach", "stimulus": "<p id=\"stim\">PEACH</p>", "conditions": [24, 1600, "v", 24000], "internal_node_id": "0.0-162.0", "trial": 6, "time_elapsed": 941564, "serialpos": 0, "key_press": -1, "wordID": 1030, "type": "PRES_VIS", "trial_index": 225}, "uniqueid": "MTK1648:3ATTHHXXWBVNKP83G0DHBD7C1ZRIXE", "dateTime": 1516121333938}, {"current_trial": 226, "trialdata": {"rt": -1, "trial_type": "single-stim", "word": "rooster", "stimulus": "<p id=\"stim\">ROOSTER</p>", "conditions": [24, 1600, "v", 24000], "internal_node_id": "0.0-163.0", "trial": 6, "time_elapsed": 944350, "serialpos": 1, "key_press": -1, "wordID": 1208, "type": "PRES_VIS", "trial_index": 226}, "uniqueid": "MTK1648:3ATTHHXXWBVNKP83G0DHBD7C1ZRIXE", "dateTime": 1516121336724}, {"current_trial": 227, "trialdata": {"rt": -1, "trial_type": "single-stim", "word": "pocket", "stimulus": "<p id=\"stim\">POCKET</p>", "conditions": [24, 1600, "v", 24000], "internal_node_id": "0.0-164.0", "trial": 6, "time_elapsed": 946933, "serialpos": 2, "key_press": -1, "wordID": 1092, "type": "PRES_VIS", "trial_index": 227}, "uniqueid": "MTK1648:3ATTHHXXWBVNKP83G0DHBD7C1ZRIXE", "dateTime": 1516121339307}, {"current_trial": 228, "trialdata": {"rt": -1, "trial_type": "single-stim", "word": "briefcase", "stimulus": "<p id=\"stim\">BRIEFCASE</p>", "conditions": [24, 1600, "v", 24000], "internal_node_id": "0.0-165.0", "trial": 6, "time_elapsed": 949419, "serialpos": 3, "key_press": -1, "wordID": 174, "type": "PRES_VIS", "trial_index": 228}, "uniqueid": "MTK1648:3ATTHHXXWBVNKP83G0DHBD7C1ZRIXE", "dateTime": 1516121341793}, {"current_trial": 229, "trialdata": {"rt": -1, "trial_type": "single-stim", "word": "cod", "stimulus": "<p id=\"stim\">COD</p>", "conditions": [24, 1600, "v", 24000], "internal_node_id": "0.0-166.0", "trial": 6, "time_elapsed": 951858, "serialpos": 4, "key_press": -1, "wordID": 339, "type": "PRES_VIS", "trial_index": 229}, "uniqueid": "MTK1648:3ATTHHXXWBVNKP83G0DHBD7C1ZRIXE", "dateTime": 1516121344232}, {"current_trial": 230, "trialdata": {"rt": -1, "trial_type": "single-stim", "word": "banjo", "stimulus": "<p id=\"stim\">BANJO</p>", "conditions": [24, 1600, "v", 24000], "internal_node_id": "0.0-167.0", "trial": 6, "time_elapsed": 954585, "serialpos": 5, "key_press": -1, "wordID": 81, "type": "PRES_VIS", "trial_index": 230}, "uniqueid": "MTK1648:3ATTHHXXWBVNKP83G0DHBD7C1ZRIXE", "dateTime": 1516121346959}, {"current_trial": 231, "trialdata": {"rt": -1, "trial_type": "single-stim", "word": "sculpture", "stimulus": "<p id=\"stim\">SCULPTURE</p>", "conditions": [24, 1600, "v", 24000], "internal_node_id": "0.0-168.0", "trial": 6, "time_elapsed": 957126, "serialpos": 6, "key_press": -1, "wordID": 1257, "type": "PRES_VIS", "trial_index": 231}, "uniqueid": "MTK1648:3ATTHHXXWBVNKP83G0DHBD7C1ZRIXE", "dateTime": 1516121349500}, {"current_trial": 232, "trialdata": {"rt": -1, "trial_type": "single-stim", "word": "grill", "stimulus": "<p id=\"stim\">GRILL</p>", "conditions": [24, 1600, "v", 24000], "internal_node_id": "0.0-169.0", "trial": 6, "time_elapsed": 959728, "serialpos": 7, "key_press": -1, "wordID": 660, "type": "PRES_VIS", "trial_index": 232}, "uniqueid": "MTK1648:3ATTHHXXWBVNKP83G0DHBD7C1ZRIXE", "dateTime": 1516121352102}, {"current_trial": 233, "trialdata": {"rt": -1, "trial_type": "single-stim", "word": "shorts", "stimulus": "<p id=\"stim\">SHORTS</p>", "conditions": [24, 1600, "v", 24000], "internal_node_id": "0.0-170.0", "trial": 6, "time_elapsed": 962210, "serialpos": 8, "key_press": -1, "wordID": 1292, "type": "PRES_VIS", "trial_index": 233}, "uniqueid": "MTK1648:3ATTHHXXWBVNKP83G0DHBD7C1ZRIXE", "dateTime": 1516121354584}, {"current_trial": 234, "trialdata": {"rt": -1, "trial_type": "single-stim", "word": "guitar", "stimulus": "<p id=\"stim\">GUITAR</p>", "conditions": [24, 1600, "v", 24000], "internal_node_id": "0.0-171.0", "trial": 6, "time_elapsed": 964687, "serialpos": 9, "key_press": -1, "wordID": 669, "type": "PRES_VIS", "trial_index": 234}, "uniqueid": "MTK1648:3ATTHHXXWBVNKP83G0DHBD7C1ZRIXE", "dateTime": 1516121357061}, {"current_trial": 235, "trialdata": {"rt": -1, "trial_type": "single-stim", "word": "scallop", "stimulus": "<p id=\"stim\">SCALLOP</p>", "conditions": [24, 1600, "v", 24000], "internal_node_id": "0.0-172.0", "trial": 6, "time_elapsed": 967265, "serialpos": 10, "key_press": -1, "wordID": 1241, "type": "PRES_VIS", "trial_index": 235}, "uniqueid": "MTK1648:3ATTHHXXWBVNKP83G0DHBD7C1ZRIXE", "dateTime": 1516121359639}, {"current_trial": 236, "trialdata": {"rt": -1, "trial_type": "single-stim", "word": "outlaw", "stimulus": "<p id=\"stim\">OUTLAW</p>", "conditions": [24, 1600, "v", 24000], "internal_node_id": "0.0-173.0", "trial": 6, "time_elapsed": 970019, "serialpos": 11, "key_press": -1, "wordID": 988, "type": "PRES_VIS", "trial_index": 236}, "uniqueid": "MTK1648:3ATTHHXXWBVNKP83G0DHBD7C1ZRIXE", "dateTime": 1516121362393}, {"current_trial": 237, "trialdata": {"rt": -1, "trial_type": "single-stim", "word": "hero", "stimulus": "<p id=\"stim\">HERO</p>", "conditions": [24, 1600, "v", 24000], "internal_node_id": "0.0-174.0", "trial": 6, "time_elapsed": 972814, "serialpos": 12, "key_press": -1, "wordID": 705, "type": "PRES_VIS", "trial_index": 237}, "uniqueid": "MTK1648:3ATTHHXXWBVNKP83G0DHBD7C1ZRIXE", "dateTime": 1516121365188}, {"current_trial": 238, "trialdata": {"rt": -1, "trial_type": "single-stim", "word": "ulcer", "stimulus": "<p id=\"stim\">ULCER</p>", "conditions": [24, 1600, "v", 24000], "internal_node_id": "0.0-175.0", "trial": 6, "time_elapsed": 975533, "serialpos": 13, "key_press": -1, "wordID": 1532, "type": "PRES_VIS", "trial_index": 238}, "uniqueid": "MTK1648:3ATTHHXXWBVNKP83G0DHBD7C1ZRIXE", "dateTime": 1516121367907}, {"current_trial": 239, "trialdata": {"rt": -1, "trial_type": "single-stim", "word": "omelet", "stimulus": "<p id=\"stim\">OMELET</p>", "conditions": [24, 1600, "v", 24000], "internal_node_id": "0.0-176.0", "trial": 6, "time_elapsed": 978006, "serialpos": 14, "key_press": -1, "wordID": 975, "type": "PRES_VIS", "trial_index": 239}, "uniqueid": "MTK1648:3ATTHHXXWBVNKP83G0DHBD7C1ZRIXE", "dateTime": 1516121370380}, {"current_trial": 240, "trialdata": {"rt": -1, "trial_type": "single-stim", "word": "hornet", "stimulus": "<p id=\"stim\">HORNET</p>", "conditions": [24, 1600, "v", 24000], "internal_node_id": "0.0-177.0", "trial": 6, "time_elapsed": 980516, "serialpos": 15, "key_press": -1, "wordID": 717, "type": "PRES_VIS", "trial_index": 240}, "uniqueid": "MTK1648:3ATTHHXXWBVNKP83G0DHBD7C1ZRIXE", "dateTime": 1516121372891}, {"current_trial": 241, "trialdata": {"rt": -1, "trial_type": "single-stim", "word": "glove", "stimulus": "<p id=\"stim\">GLOVE</p>", "conditions": [24, 1600, "v", 24000], "internal_node_id": "0.0-178.0", "trial": 6, "time_elapsed": 983247, "serialpos": 16, "key_press": -1, "wordID": 641, "type": "PRES_VIS", "trial_index": 241}, "uniqueid": "MTK1648:3ATTHHXXWBVNKP83G0DHBD7C1ZRIXE", "dateTime": 1516121375621}, {"current_trial": 242, "trialdata": {"rt": -1, "trial_type": "single-stim", "word": "shortcake", "stimulus": "<p id=\"stim\">SHORTCAKE</p>", "conditions": [24, 1600, "v", 24000], "internal_node_id": "0.0-179.0", "trial": 6, "time_elapsed": 985748, "serialpos": 17, "key_press": -1, "wordID": 1291, "type": "PRES_VIS", "trial_index": 242}, "uniqueid": "MTK1648:3ATTHHXXWBVNKP83G0DHBD7C1ZRIXE", "dateTime": 1516121378122}, {"current_trial": 243, "trialdata": {"rt": -1, "trial_type": "single-stim", "word": "poison", "stimulus": "<p id=\"stim\">POISON</p>", "conditions": [24, 1600, "v", 24000], "internal_node_id": "0.0-180.0", "trial": 6, "time_elapsed": 988461, "serialpos": 18, "key_press": -1, "wordID": 1095, "type": "PRES_VIS", "trial_index": 243}, "uniqueid": "MTK1648:3ATTHHXXWBVNKP83G0DHBD7C1ZRIXE", "dateTime": 1516121380835}, {"current_trial": 244, "trialdata": {"rt": -1, "trial_type": "single-stim", "word": "freezer", "stimulus": "<p id=\"stim\">FREEZER</p>", "conditions": [24, 1600, "v", 24000], "internal_node_id": "0.0-181.0", "trial": 6, "time_elapsed": 991075, "serialpos": 19, "key_press": -1, "wordID": 603, "type": "PRES_VIS", "trial_index": 244}, "uniqueid": "MTK1648:3ATTHHXXWBVNKP83G0DHBD7C1ZRIXE", "dateTime": 1516121383449}, {"current_trial": 245, "trialdata": {"rt": -1, "trial_type": "single-stim", "word": "penguin", "stimulus": "<p id=\"stim\">PENGUIN</p>", "conditions": [24, 1600, "v", 24000], "internal_node_id": "0.0-182.0", "trial": 6, "time_elapsed": 993837, "serialpos": 20, "key_press": -1, "wordID": 1043, "type": "PRES_VIS", "trial_index": 245}, "uniqueid": "MTK1648:3ATTHHXXWBVNKP83G0DHBD7C1ZRIXE", "dateTime": 1516121386211}, {"current_trial": 246, "trialdata": {"rt": -1, "trial_type": "single-stim", "word": "human", "stimulus": "<p id=\"stim\">HUMAN</p>", "conditions": [24, 1600, "v", 24000], "internal_node_id": "0.0-183.0", "trial": 6, "time_elapsed": 996408, "serialpos": 21, "key_press": -1, "wordID": 725, "type": "PRES_VIS", "trial_index": 246}, "uniqueid": "MTK1648:3ATTHHXXWBVNKP83G0DHBD7C1ZRIXE", "dateTime": 1516121388782}, {"current_trial": 247, "trialdata": {"rt": -1, "trial_type": "single-stim", "word": "clam", "stimulus": "<p id=\"stim\">CLAM</p>", "conditions": [24, 1600, "v", 24000], "internal_node_id": "0.0-184.0", "trial": 6, "time_elapsed": 999202, "serialpos": 22, "key_press": -1, "wordID": 314, "type": "PRES_VIS", "trial_index": 247}, "uniqueid": "MTK1648:3ATTHHXXWBVNKP83G0DHBD7C1ZRIXE", "dateTime": 1516121391576}, {"current_trial": 248, "trialdata": {"rt": -1, "trial_type": "single-stim", "word": "oyster", "stimulus": "<p id=\"stim\">OYSTER</p>", "conditions": [24, 1600, "v", 24000], "internal_node_id": "0.0-185.0", "trial": 6, "time_elapsed": 1001824, "serialpos": 23, "key_press": -1, "wordID": 994, "type": "PRES_VIS", "trial_index": 248}, "uniqueid": "MTK1648:3ATTHHXXWBVNKP83G0DHBD7C1ZRIXE", "dateTime": 1516121394198}, {"current_trial": 249, "trialdata": {"rt": -1, "trial_type": "single-stim", "stimulus": "", "internal_node_id": "0.0-186.0-0.0", "time_elapsed": 1004235, "key_press": -1, "type": "PRE_RECALL_DELAY", "trial_index": 249}, "uniqueid": "MTK1648:3ATTHHXXWBVNKP83G0DHBD7C1ZRIXE", "dateTime": 1516121396609}, {"current_trial": 250, "trialdata": {"rt": -1000, "trial_type": "single-audio", "stimulus": "/static/audio/400Hz.wav", "internal_node_id": "0.0-187.0", "time_elapsed": 1004737, "key_press": -1, "type": "PRE_RECALL_ALERT", "trial_index": 250}, "uniqueid": "MTK1648:3ATTHHXXWBVNKP83G0DHBD7C1ZRIXE", "dateTime": 1516121397111}, {"current_trial": 251, "trialdata": {"rt": [2680, 5848, 11464, 39400, 43735, 46711], "recwords": ["clam", "oyster", "banjo", "glove", "scallop", "guitar"], "key_times": [1458, 1576, 1816, 2424, 2680, 3576, 3944, 4472, 4856, 5015, 5144, 5848, 9207, 9431, 10007, 10519, 10711, 11464, 38280, 38456, 38696, 38904, 39032, 39400, 41784, 42024, 42183, 42488, 42679, 42936, 43159, 43735, 44423, 44695, 44935, 45223, 45799, 46263, 46711], "trial_type": "free-recall", "conditions": [24, 1600, "v", 24000], "internal_node_id": "0.0-188.0-0.0", "key_presses": [67, 76, 65, 77, 13, 79, 89, 83, 84, 69, 82, 13, 66, 65, 78, 74, 79, 13, 71, 76, 79, 86, 69, 13, 83, 67, 65, 76, 76, 79, 80, 13, 71, 85, 73, 84, 65, 82, 13], "trial": 6, "time_elapsed": 1064739, "type": "FREE_RECALL", "trial_index": 251}, "uniqueid": "MTK1648:3ATTHHXXWBVNKP83G0DHBD7C1ZRIXE", "dateTime": 1516121457116}, {"current_trial": 252, "trialdata": {"rt": 1636, "trial_type": "text", "internal_node_id": "0.0-189.0", "time_elapsed": 1068378, "key_press": 32, "type": "INSTRUCTIONS", "trial_index": 252}, "uniqueid": "MTK1648:3ATTHHXXWBVNKP83G0DHBD7C1ZRIXE", "dateTime": 1516121460752}, {"current_trial": 253, "trialdata": {"rt": [3534, 6959, 10223, 12398, 14910, 17822, 22127], "trial_type": "math-distractor", "key_times": [2126, 2318, 3534, 5999, 6239, 6959, 9359, 9519, 10223, 11791, 11999, 12398, 14238, 14478, 14910, 16830, 17022, 17822, 20078, 20270, 21231, 21679, 22127], "responses": ["19", "19", "15", "13", "14", "18", "14"], "num2": [5, 7, 8, 3, 5, 8, 5, 5], "num3": [6, 4, 4, 5, 5, 4, 4, 3], "conditions": [12, 800, "v", 24000], "internal_node_id": "0.0-190.0", "key_presses": [9