{"assignmentId": "37W3JXSD67FULPIIAD3YVINTI09YW1", "workerId": "MTK1812", "questiondata": {"origin": "United States", "strat-rehearsal": "100", "marital": "Married/Domestic Partnership", "education": "Associate degree", "ethnicity": "Not Hispanic", "color_depth": 24, "distracted": "No", "wrote-notes": "No", "strat-other": "", "screen_width": 1366, "avail_screen_width": 1366, "avail_screen_height": 728, "strat-image": "80", "language": "English", "gender": "Male", "age": "33", "gender_other": "", "race": ["White"], "strat-categorize": "100", "pixel_depth": 24, "strat-spatial": "0", "strat-story": "0", "race_other": "", "screen_height": 768}, "bonus": 0, "hitId": "3QGTX7BCHP9YQCF9KWD6U5NYM0K5Z6", "counterbalance": 1644, "useragent": "Mozilla/5.0 (Windows NT 10.0; Win64; x64) AppleWebKit/537.36 (KHTML, like Gecko) Chrome/63.0.3239.132 Safari/537.36", "eventdata": [{"eventtype": "initialized", "interval": 0, "value": null, "timestamp": 1516316941046}, {"eventtype": "window_resize", "interval": 0, "value": [1366, 677], "timestamp": 1516316941046}], "data": [{"current_trial": 0, "trialdata": {"rt": 1856, "trial_type": "text", "internal_node_id": "0.0-0.0", "time_elapsed": 1871, "key_press": 32, "type": "INSTRUCTIONS", "trial_index": 0}, "uniqueid": "MTK1812:37W3JXSD67FULPIIAD3YVINTI09YW1", "dateTime": 1516316943311}, {"current_trial": 1, "trialdata": {"rt": 7429, "trial_type": "text", "internal_node_id": "0.0-1.0", "time_elapsed": 9323, "key_press": 32, "type": "INSTRUCTIONS", "trial_index": 1}, "uniqueid": "MTK1812:37W3JXSD67FULPIIAD3YVINTI09YW1", "dateTime": 1516316950760}, {"current_trial": 2, "trialdata": {"rt": [7745], "trial_type": "audio-test", "responses": ["ocean"], "internal_node_id": "0.0-2.0", "time_elapsed": 17107, "type": "AUDIO_TEST", "trial_index": 2}, "uniqueid": "MTK1812:37W3JXSD67FULPIIAD3YVINTI09YW1", "dateTime": 1516316958543}, {"current_trial": 3, "trialdata": {"rt": [5446], "trial_type": "audio-test", "responses": ["crystal"], "internal_node_id": "0.0-3.0", "time_elapsed": 22574, "type": "AUDIO_TEST", "trial_index": 3}, "uniqueid": "MTK1812:37W3JXSD67FULPIIAD3YVINTI09YW1", "dateTime": 1516316964010}, {"current_trial": 4, "trialdata": {"rt": [3757], "trial_type": "audio-test", "responses": ["spice"], "internal_node_id": "0.0-4.0", "time_elapsed": 26345, "type": "AUDIO_TEST", "trial_index": 4}, "uniqueid": "MTK1812:37W3JXSD67FULPIIAD3YVINTI09YW1", "dateTime": 1516316967781}, {"current_trial": 5, "trialdata": {"rt": 21986, "trial_type": "survey-text", "responses": "{\"Q0\":\"12:30 AM\",\"Q1\":\"7:30 AM\",\"Q2\":\"5\"}", "internal_node_id": "0.0-5.0", "time_elapsed": 49107, "type": "SLEEP_SURVEY", "trial_index": 5}, "uniqueid": "MTK1812:37W3JXSD67FULPIIAD3YVINTI09YW1", "dateTime": 1516316990544}, {"current_trial": 6, "trialdata": {"rt": 26011, "trial_type": "text", "internal_node_id": "0.0-6.0", "time_elapsed": 76124, "key_press": 32, "type": "INSTRUCTIONS", "trial_index": 6}, "uniqueid": "MTK1812:37W3JXSD67FULPIIAD3YVINTI09YW1", "dateTime": 1516317017561}, {"current_trial": 7, "trialdata": {"rt": 10821, "trial_type": "text", "internal_node_id": "0.0-7.0", "time_elapsed": 87452, "key_press": 32, "type": "INSTRUCTIONS", "trial_index": 7}, "uniqueid": "MTK1812:37W3JXSD67FULPIIAD3YVINTI09YW1", "dateTime": 1516317028889}, {"current_trial": 8, "trialdata": {"rt": 2030, "trial_type": "text", "internal_node_id": "0.0-8.0", "time_elapsed": 89987, "key_press": 32, "type": "INSTRUCTIONS", "trial_index": 8}, "uniqueid": "MTK1812:37W3JXSD67FULPIIAD3YVINTI09YW1", "dateTime": 1516317031423}, {"current_trial": 9, "trialdata": {"rt": [7073, 9103, 13274], "trial_type": "math-distractor", "key_times": [4064, 4447, 6007, 6919, 7073, 8742, 8905, 9103, 11568, 12372, 13274], "responses": ["15", "13", "18"], "num2": [5, 6, 9, 2], "num3": [7, 6, 1, 5], "conditions": [18, 1200, "v", 18000], "internal_node_id": "0.0-9.0", "key_presses": [49, 54, 8, 53, 13, 49, 51, 13, 49, 56, 13], "trial": 0, "time_elapsed": 109021, "type": "DISTRACTOR", "trial_index": 9, "num1": [3, 1, 8, 6]}, "uniqueid": "MTK1812:37W3JXSD67FULPIIAD3YVINTI09YW1", "dateTime": 1516317050458}, {"current_trial": 10, "trialdata": {"rt": -1, "trial_type": "single-stim", "stimulus": "<p id=\"stim\">10</p>", "internal_node_id": "0.0-10.0-0.0", "time_elapsed": 112034, "key_press": -1, "trial_index": 10}, "uniqueid": "MTK1812:37W3JXSD67FULPIIAD3YVINTI09YW1", "dateTime": 1516317053471}, {"current_trial": 11, "trialdata": {"rt": -1, "trial_type": "single-stim", "stimulus": "<p id=\"stim\">9</p>", "internal_node_id": "0.0-10.0-1.0", "time_elapsed": 113042, "key_press": -1, "trial_index": 11}, "uniqueid": "MTK1812:37W3JXSD67FULPIIAD3YVINTI09YW1", "dateTime": 1516317054479}, {"current_trial": 12, "trialdata": {"rt": -1, "trial_type": "single-stim", "stimulus": "<p id=\"stim\">8</p>", "internal_node_id": "0.0-10.0-2.0", "time_elapsed": 114050, "key_press": -1, "trial_index": 12}, "uniqueid": "MTK1812:37W3JXSD67FULPIIAD3YVINTI09YW1", "dateTime": 1516317055486}, {"current_trial": 13, "trialdata": {"rt": -1, "trial_type": "single-stim", "stimulus": "<p id=\"stim\">7</p>", "internal_node_id": "0.0-10.0-3.0", "time_elapsed": 115056, "key_press": -1, "trial_index": 13}, "uniqueid": "MTK1812:37W3JXSD67FULPIIAD3YVINTI09YW1", "dateTime": 1516317056492}, {"current_trial": 14, "trialdata": {"rt": -1, "trial_type": "single-stim", "stimulus": "<p id=\"stim\">6</p>", "internal_node_id": "0.0-10.0-4.0", "time_elapsed": 116061, "key_press": -1, "trial_index": 14}, "uniqueid": "MTK1812:37W3JXSD67FULPIIAD3YVINTI09YW1", "dateTime": 1516317057497}, {"current_trial": 15, "trialdata": {"rt": -1, "trial_type": "single-stim", "stimulus": "<p id=\"stim\">5</p>", "internal_node_id": "0.0-10.0-5.0", "time_elapsed": 117065, "key_press": -1, "trial_index": 15}, "uniqueid": "MTK1812:37W3JXSD67FULPIIAD3YVINTI09YW1", "dateTime": 1516317058501}, {"current_trial": 16, "trialdata": {"rt": -1, "trial_type": "single-stim", "stimulus": "<p id=\"stim\">4</p>", "internal_node_id": "0.0-10.0-6.0", "time_elapsed": 118069, "key_press": -1, "trial_index": 16}, "uniqueid": "MTK1812:37W3JXSD67FULPIIAD3YVINTI09YW1", "dateTime": 1516317059506}, {"current_trial": 17, "trialdata": {"rt": -1, "trial_type": "single-stim", "stimulus": "<p id=\"stim\">3</p>", "internal_node_id": "0.0-10.0-7.0", "time_elapsed": 119083, "key_press": -1, "trial_index": 17}, "uniqueid": "MTK1812:37W3JXSD67FULPIIAD3YVINTI09YW1", "dateTime": 1516317060520}, {"current_trial": 18, "trialdata": {"rt": -1, "trial_type": "single-stim", "stimulus": "<p id=\"stim\">2</p>", "internal_node_id": "0.0-10.0-8.0", "time_elapsed": 120088, "key_press": -1, "trial_index": 18}, "uniqueid": "MTK1812:37W3JXSD67FULPIIAD3YVINTI09YW1", "dateTime": 1516317061524}, {"current_trial": 19, "trialdata": {"rt": -1, "trial_type": "single-stim", "stimulus": "<p id=\"stim\">1</p>", "internal_node_id": "0.0-10.0-9.0", "time_elapsed": 121094, "key_press": -1, "trial_index": 19}, "uniqueid": "MTK1812:37W3JXSD67FULPIIAD3YVINTI09YW1", "dateTime": 1516317062530}, {"current_trial": 20, "trialdata": {"rt": -1, "trial_type": "single-stim", "stimulus": "<p id=\"stim\">+</p>", "internal_node_id": "0.0-11.0-0.0", "time_elapsed": 122599, "key_press": -1, "type": "FIXATION", "trial_index": 20}, "uniqueid": "MTK1812:37W3JXSD67FULPIIAD3YVINTI09YW1", "dateTime": 1516317064036}, {"current_trial": 21, "trialdata": {"rt": -1, "trial_type": "single-stim", "word": "crayon", "stimulus": "<p id=\"stim\">CRAYON</p>", "conditions": [18, 1200, "v", 18000], "internal_node_id": "0.0-12.0", "trial": 0, "time_elapsed": 123803, "serialpos": 0, "key_press": -1, "wordID": 400, "type": "PRES_VIS", "trial_index": 21}, "uniqueid": "MTK1812:37W3JXSD67FULPIIAD3YVINTI09YW1", "dateTime": 1516317065239}, {"current_trial": 22, "trialdata": {"rt": -1, "trial_type": "single-stim", "word": "trout", "stimulus": "<p id=\"stim\">TROUT</p>", "conditions": [18, 1200, "v", 18000], "internal_node_id": "0.0-13.0", "trial": 0, "time_elapsed": 125952, "serialpos": 1, "key_press": -1, "wordID": 1510, "type": "PRES_VIS", "trial_index": 22}, "uniqueid": "MTK1812:37W3JXSD67FULPIIAD3YVINTI09YW1", "dateTime": 1516317067389}, {"current_trial": 23, "trialdata": {"rt": -1, "trial_type": "single-stim", "word": "fireplace", "stimulus": "<p id=\"stim\">FIREPLACE</p>", "conditions": [18, 1200, "v", 18000], "internal_node_id": "0.0-14.0", "trial": 0, "time_elapsed": 128249, "serialpos": 2, "key_press": -1, "wordID": 569, "type": "PRES_VIS", "trial_index": 23}, "uniqueid": "MTK1812:37W3JXSD67FULPIIAD3YVINTI09YW1", "dateTime": 1516317069685}, {"current_trial": 24, "trialdata": {"rt": -1, "trial_type": "single-stim", "word": "apple", "stimulus": "<p id=\"stim\">APPLE</p>", "conditions": [18, 1200, "v", 18000], "internal_node_id": "0.0-15.0", "trial": 0, "time_elapsed": 130572, "serialpos": 3, "key_press": -1, "wordID": 32, "type": "PRES_VIS", "trial_index": 24}, "uniqueid": "MTK1812:37W3JXSD67FULPIIAD3YVINTI09YW1", "dateTime": 1516317072008}, {"current_trial": 25, "trialdata": {"rt": -1, "trial_type": "single-stim", "word": "ketchup", "stimulus": "<p id=\"stim\">KETCHUP</p>", "conditions": [18, 1200, "v", 18000], "internal_node_id": "0.0-16.0", "trial": 0, "time_elapsed": 132909, "serialpos": 4, "key_press": -1, "wordID": 770, "type": "PRES_VIS", "trial_index": 25}, "uniqueid": "MTK1812:37W3JXSD67FULPIIAD3YVINTI09YW1", "dateTime": 1516317074345}, {"current_trial": 26, "trialdata": {"rt": -1, "trial_type": "single-stim", "word": "freezer", "stimulus": "<p id=\"stim\">FREEZER</p>", "conditions": [18, 1200, "v", 18000], "internal_node_id": "0.0-17.0", "trial": 0, "time_elapsed": 135148, "serialpos": 5, "key_press": -1, "wordID": 603, "type": "PRES_VIS", "trial_index": 26}, "uniqueid": "MTK1812:37W3JXSD67FULPIIAD3YVINTI09YW1", "dateTime": 1516317076584}, {"current_trial": 27, "trialdata": {"rt": -1, "trial_type": "single-stim", "word": "couch", "stimulus": "<p id=\"stim\">COUCH</p>", "conditions": [18, 1200, "v", 18000], "internal_node_id": "0.0-18.0", "trial": 0, "time_elapsed": 137298, "serialpos": 6, "key_press": -1, "wordID": 385, "type": "PRES_VIS", "trial_index": 27}, "uniqueid": "MTK1812:37W3JXSD67FULPIIAD3YVINTI09YW1", "dateTime": 1516317078735}, {"current_trial": 28, "trialdata": {"rt": -1, "trial_type": "single-stim", "word": "postage", "stimulus": "<p id=\"stim\">POSTAGE</p>", "conditions": [18, 1200, "v", 18000], "internal_node_id": "0.0-19.0", "trial": 0, "time_elapsed": 139596, "serialpos": 7, "key_press": -1, "wordID": 1112, "type": "PRES_VIS", "trial_index": 28}, "uniqueid": "MTK1812:37W3JXSD67FULPIIAD3YVINTI09YW1", "dateTime": 1516317081033}, {"current_trial": 29, "trialdata": {"rt": -1, "trial_type": "single-stim", "word": "blackboard", "stimulus": "<p id=\"stim\">BLACKBOARD</p>", "conditions": [18, 1200, "v", 18000], "internal_node_id": "0.0-20.0", "trial": 0, "time_elapsed": 141731, "serialpos": 8, "key_press": -1, "wordID": 132, "type": "PRES_VIS", "trial_index": 29}, "uniqueid": "MTK1812:37W3JXSD67FULPIIAD3YVINTI09YW1", "dateTime": 1516317083168}, {"current_trial": 30, "trialdata": {"rt": -1, "trial_type": "single-stim", "word": "plate", "stimulus": "<p id=\"stim\">PLATE</p>", "conditions": [18, 1200, "v", 18000], "internal_node_id": "0.0-21.0", "trial": 0, "time_elapsed": 143854, "serialpos": 9, "key_press": -1, "wordID": 1085, "type": "PRES_VIS", "trial_index": 30}, "uniqueid": "MTK1812:37W3JXSD67FULPIIAD3YVINTI09YW1", "dateTime": 1516317085290}, {"current_trial": 31, "trialdata": {"rt": -1, "trial_type": "single-stim", "word": "kitchen", "stimulus": "<p id=\"stim\">KITCHEN</p>", "conditions": [18, 1200, "v", 18000], "internal_node_id": "0.0-22.0", "trial": 0, "time_elapsed": 145990, "serialpos": 10, "key_press": -1, "wordID": 777, "type": "PRES_VIS", "trial_index": 31}, "uniqueid": "MTK1812:37W3JXSD67FULPIIAD3YVINTI09YW1", "dateTime": 1516317087426}, {"current_trial": 32, "trialdata": {"rt": -1, "trial_type": "single-stim", "word": "saddle", "stimulus": "<p id=\"stim\">SADDLE</p>", "conditions": [18, 1200, "v", 18000], "internal_node_id": "0.0-23.0", "trial": 0, "time_elapsed": 148266, "serialpos": 11, "key_press": -1, "wordID": 1220, "type": "PRES_VIS", "trial_index": 32}, "uniqueid": "MTK1812:37W3JXSD67FULPIIAD3YVINTI09YW1", "dateTime": 1516317089703}, {"current_trial": 33, "trialdata": {"rt": -1, "trial_type": "single-stim", "word": "brandy", "stimulus": "<p id=\"stim\">BRANDY</p>", "conditions": [18, 1200, "v", 18000], "internal_node_id": "0.0-24.0", "trial": 0, "time_elapsed": 150615, "serialpos": 12, "key_press": -1, "wordID": 168, "type": "PRES_VIS", "trial_index": 33}, "uniqueid": "MTK1812:37W3JXSD67FULPIIAD3YVINTI09YW1", "dateTime": 1516317092052}, {"current_trial": 34, "trialdata": {"rt": -1, "trial_type": "single-stim", "word": "sunset", "stimulus": "<p id=\"stim\">SUNSET</p>", "conditions": [18, 1200, "v", 18000], "internal_node_id": "0.0-25.0", "trial": 0, "time_elapsed": 152757, "serialpos": 13, "key_press": -1, "wordID": 1407, "type": "PRES_VIS", "trial_index": 34}, "uniqueid": "MTK1812:37W3JXSD67FULPIIAD3YVINTI09YW1", "dateTime": 1516317094194}, {"current_trial": 35, "trialdata": {"rt": -1, "trial_type": "single-stim", "word": "zebra", "stimulus": "<p id=\"stim\">ZEBRA</p>", "conditions": [18, 1200, "v", 18000], "internal_node_id": "0.0-26.0", "trial": 0, "time_elapsed": 155157, "serialpos": 14, "key_press": -1, "wordID": 1634, "type": "PRES_VIS", "trial_index": 35}, "uniqueid": "MTK1812:37W3JXSD67FULPIIAD3YVINTI09YW1", "dateTime": 1516317096594}, {"current_trial": 36, "trialdata": {"rt": -1, "trial_type": "single-stim", "word": "spool", "stimulus": "<p id=\"stim\">SPOOL</p>", "conditions": [18, 1200, "v", 18000], "internal_node_id": "0.0-27.0", "trial": 0, "time_elapsed": 157245, "serialpos": 15, "key_press": -1, "wordID": 1355, "type": "PRES_VIS", "trial_index": 36}, "uniqueid": "MTK1812:37W3JXSD67FULPIIAD3YVINTI09YW1", "dateTime": 1516317098682}, {"current_trial": 37, "trialdata": {"rt": -1, "trial_type": "single-stim", "word": "window", "stimulus": "<p id=\"stim\">WINDOW</p>", "conditions": [18, 1200, "v", 18000], "internal_node_id": "0.0-28.0", "trial": 0, "time_elapsed": 159444, "serialpos": 16, "key_press": -1, "wordID": 1610, "type": "PRES_VIS", "trial_index": 37}, "uniqueid": "MTK1812:37W3JXSD67FULPIIAD3YVINTI09YW1", "dateTime": 1516317100881}, {"current_trial": 38, "trialdata": {"rt": -1, "trial_type": "single-stim", "word": "racket", "stimulus": "<p id=\"stim\">RACKET</p>", "conditions": [18, 1200, "v", 18000], "internal_node_id": "0.0-29.0", "trial": 0, "time_elapsed": 161482, "serialpos": 17, "key_press": -1, "wordID": 1154, "type": "PRES_VIS", "trial_index": 38}, "uniqueid": "MTK1812:37W3JXSD67FULPIIAD3YVINTI09YW1", "dateTime": 1516317102919}, {"current_trial": 39, "trialdata": {"rt": -1, "trial_type": "single-stim", "stimulus": "", "internal_node_id": "0.0-30.0-0.0", "time_elapsed": 163712, "key_press": -1, "type": "PRE_RECALL_DELAY", "trial_index": 39}, "uniqueid": "MTK1812:37W3JXSD67FULPIIAD3YVINTI09YW1", "dateTime": 1516317105149}, {"current_trial": 40, "trialdata": {"rt": -1000, "trial_type": "single-audio", "stimulus": "/static/audio/400Hz.wav", "internal_node_id": "0.0-31.0", "time_elapsed": 164232, "key_press": -1, "type": "PRE_RECALL_ALERT", "trial_index": 40}, "uniqueid": "MTK1812:37W3JXSD67FULPIIAD3YVINTI09YW1", "dateTime": 1516317105669}, {"current_trial": 41, "trialdata": {"rt": [3714, 6038, 8182, 13459, 15616, 18036, 20878, 22927, 27215, 30589, 34840, 37601], "recwords": ["trout", "apple", "ketchup", "blackboard", "plate", "saddle", "brandy", "sunset", "zebra", "postage", "freezer", "couch"], "key_times": [2713, 2860, 2984, 3103, 3274, 3714, 5121, 5355, 5476, 5600, 5741, 6038, 6854, 6951, 7158, 7340, 7466, 7655, 7883, 8182, 9732, 9831, 9920, 10500, 10724, 10930, 11046, 11625, 11715, 12080, 12269, 12555, 12568, 13070, 13459, 14984, 15068, 15142, 15317, 15459, 15616, 17139, 17295, 17524, 17627, 17768, 17875, 18036, 19714, 19903, 20052, 20158, 20396, 20694, 20878, 22184, 22301, 22372, 22471, 22606, 22739, 22927, 26104, 26322, 26746, 26917, 27061, 27215, 28848, 29031, 29704, 30024, 30146, 30237, 30419, 30589, 32390, 32547, 32723, 32891, 33840, 34269, 34358, 34840, 36484, 36563, 36691, 37175, 37282, 37601, 59106, 59327, 59619, 59744, 59902], "trial_type": "free-recall", "conditions": [18, 1200, "v", 18000], "internal_node_id": "0.0-32.0-0.0", "key_presses": [84, 82, 79, 85, 84, 13, 65, 80, 80, 76, 69, 13, 75, 69, 84, 67, 72, 85, 80, 13, 66, 76, 83, 8, 65, 67, 75, 66, 79, 65, 82, 68, 70, 8, 13, 80, 76, 65, 84, 69, 13, 83, 65, 68, 68, 76, 69, 13, 66, 82, 65, 78, 68, 89, 13, 83, 85, 78, 83, 69, 84, 13, 90, 69, 66, 82, 65, 13, 80, 79, 83, 84, 65, 71, 69, 13, 70, 82, 69, 69, 90, 69, 82, 13, 67, 79, 85, 67, 72, 13, 83, 80, 79, 79, 76], "trial": 0, "time_elapsed": 224254, "type": "FREE_RECALL", "trial_index": 41}, "uniqueid": "MTK1812:37W3JXSD67FULPIIAD3YVINTI09YW1", "dateTime": 1516317165709}, {"current_trial": 42, "trialdata": {"rt": 1432, "trial_type": "text", "internal_node_id": "0.0-33.0", "time_elapsed": 227708, "key_press": 32, "type": "INSTRUCTIONS", "trial_index": 42}, "uniqueid": "MTK1812:37W3JXSD67FULPIIAD3YVINTI09YW1", "dateTime": 1516317169145}, {"current_trial": 43, "trialdata": {"rt": [2881, 5354, 8346, 14339, 17120], "trial_type": "math-distractor", "key_times": [2564, 2730, 2881, 4974, 5117, 5354, 7801, 8195, 8346, 13685, 14223, 14339, 16580, 16989, 17120], "responses": ["13", "10", "15", "17", "18"], "num2": [1, 1, 3, 2, 6, 2], "num3": [5, 2, 9, 9, 3, 2], "conditions": [18, 1200, "v", 18000], "internal_node_id": "0.0-34.0", "key_presses": [49, 51, 13, 49, 48, 13, 49, 53, 13, 49, 55, 13, 49, 56, 13], "trial": 1, "time_elapsed": 247722, "type": "DISTRACTOR", "trial_index": 43, "num1": [7, 7, 3, 6, 9, 4]}, "uniqueid": "MTK1812:37W3JXSD67FULPIIAD3YVINTI09YW1", "dateTime": 1516317189159}, {"current_trial": 44, "trialdata": {"rt": -1, "trial_type": "single-stim", "stimulus": "<p id=\"stim\">10</p>", "internal_node_id": "0.0-35.0-0.0", "time_elapsed": 250728, "key_press": -1, "trial_index": 44}, "uniqueid": "MTK1812:37W3JXSD67FULPIIAD3YVINTI09YW1", "dateTime": 1516317192165}, {"current_trial": 45, "trialdata": {"rt": -1, "trial_type": "single-stim", "stimulus": "<p id=\"stim\">9</p>", "internal_node_id": "0.0-35.0-1.0", "time_elapsed": 251737, "key_press": -1, "trial_index": 45}, "uniqueid": "MTK1812:37W3JXSD67FULPIIAD3YVINTI09YW1", "dateTime": 1516317193174}, {"current_trial": 46, "trialdata": {"rt": -1, "trial_type": "single-stim", "stimulus": "<p id=\"stim\">8</p>", "internal_node_id": "0.0-35.0-2.0", "time_elapsed": 252742, "key_press": -1, "trial_index": 46}, "uniqueid": "MTK1812:37W3JXSD67FULPIIAD3YVINTI09YW1", "dateTime": 1516317194179}, {"current_trial": 47, "trialdata": {"rt": -1, "trial_type": "single-stim", "stimulus": "<p id=\"stim\">7</p>", "internal_node_id": "0.0-35.0-3.0", "time_elapsed": 253748, "key_press": -1, "trial_index": 47}, "uniqueid": "MTK1812:37W3JXSD67FULPIIAD3YVINTI09YW1", "dateTime": 1516317195185}, {"current_trial": 48, "trialdata": {"rt": -1, "trial_type": "single-stim", "stimulus": "<p id=\"stim\">6</p>", "internal_node_id": "0.0-35.0-4.0", "time_elapsed": 254754, "key_press": -1, "trial_index": 48}, "uniqueid": "MTK1812:37W3JXSD67FULPIIAD3YVINTI09YW1", "dateTime": 1516317196190}, {"current_trial": 49, "trialdata": {"rt": -1, "trial_type": "single-stim", "stimulus": "<p id=\"stim\">5</p>", "internal_node_id": "0.0-35.0-5.0", "time_elapsed": 255758, "key_press": -1, "trial_index": 49}, "uniqueid": "MTK1812:37W3JXSD67FULPIIAD3YVINTI09YW1", "dateTime": 1516317197195}, {"current_trial": 50, "trialdata": {"rt": -1, "trial_type": "single-stim", "stimulus": "<p id=\"stim\">4</p>", "internal_node_id": "0.0-35.0-6.0", "time_elapsed": 256763, "key_press": -1, "trial_index": 50}, "uniqueid": "MTK1812:37W3JXSD67FULPIIAD3YVINTI09YW1", "dateTime": 1516317198200}, {"current_trial": 51, "trialdata": {"rt": -1, "trial_type": "single-stim", "stimulus": "<p id=\"stim\">3</p>", "internal_node_id": "0.0-35.0-7.0", "time_elapsed": 257768, "key_press": -1, "trial_index": 51}, "uniqueid": "MTK1812:37W3JXSD67FULPIIAD3YVINTI09YW1", "dateTime": 1516317199204}, {"current_trial": 52, "trialdata": {"rt": -1, "trial_type": "single-stim", "stimulus": "<p id=\"stim\">2</p>", "internal_node_id": "0.0-35.0-8.0", "time_elapsed": 258772, "key_press": -1, "trial_index": 52}, "uniqueid": "MTK1812:37W3JXSD67FULPIIAD3YVINTI09YW1", "dateTime": 1516317200209}, {"current_trial": 53, "trialdata": {"rt": -1, "trial_type": "single-stim", "stimulus": "<p id=\"stim\">1</p>", "internal_node_id": "0.0-35.0-9.0", "time_elapsed": 259777, "key_press": -1, "trial_index": 53}, "uniqueid": "MTK1812:37W3JXSD67FULPIIAD3YVINTI09YW1", "dateTime": 1516317201214}, {"current_trial": 54, "trialdata": {"rt": -1, "trial_type": "single-stim", "stimulus": "<p id=\"stim\">+</p>", "internal_node_id": "0.0-36.0-0.0", "time_elapsed": 261281, "key_press": -1, "type": "FIXATION", "trial_index": 54}, "uniqueid": "MTK1812:37W3JXSD67FULPIIAD3YVINTI09YW1", "dateTime": 1516317202718}, {"current_trial": 55, "trialdata": {"rt": -1, "trial_type": "single-stim", "word": "drink", "stimulus": "<p id=\"stim\">DRINK</p>", "conditions": [18, 1200, "v", 18000], "internal_node_id": "0.0-37.0", "trial": 1, "time_elapsed": 262487, "serialpos": 0, "key_press": -1, "wordID": 497, "type": "PRES_VIS", "trial_index": 55}, "uniqueid": "MTK1812:37W3JXSD67FULPIIAD3YVINTI09YW1", "dateTime": 1516317203923}, {"current_trial": 56, "trialdata": {"rt": -1, "trial_type": "single-stim", "word": "custard", "stimulus": "<p id=\"stim\">CUSTARD</p>", "conditions": [18, 1200, "v", 18000], "internal_node_id": "0.0-38.0", "trial": 1, "time_elapsed": 264877, "serialpos": 1, "key_press": -1, "wordID": 428, "type": "PRES_VIS", "trial_index": 56}, "uniqueid": "MTK1812:37W3JXSD67FULPIIAD3YVINTI09YW1", "dateTime": 1516317206314}, {"current_trial": 57, "trialdata": {"rt": -1, "trial_type": "single-stim", "word": "antler", "stimulus": "<p id=\"stim\">ANTLER</p>", "conditions": [18, 1200, "v", 18000], "internal_node_id": "0.0-39.0", "trial": 1, "time_elapsed": 267163, "serialpos": 2, "key_press": -1, "wordID": 28, "type": "PRES_VIS", "trial_index": 57}, "uniqueid": "MTK1812:37W3JXSD67FULPIIAD3YVINTI09YW1", "dateTime": 1516317208600}, {"current_trial": 58, "trialdata": {"rt": -1, "trial_type": "single-stim", "word": "bubble", "stimulus": "<p id=\"stim\">BUBBLE</p>", "conditions": [18, 1200, "v", 18000], "internal_node_id": "0.0-40.0", "trial": 1, "time_elapsed": 269475, "serialpos": 3, "key_press": -1, "wordID": 182, "type": "PRES_VIS", "trial_index": 58}, "uniqueid": "MTK1812:37W3JXSD67FULPIIAD3YVINTI09YW1", "dateTime": 1516317210912}, {"current_trial": 59, "trialdata": {"rt": -1, "trial_type": "single-stim", "word": "skirt", "stimulus": "<p id=\"stim\">SKIRT</p>", "conditions": [18, 1200, "v", 18000], "internal_node_id": "0.0-41.0", "trial": 1, "time_elapsed": 271844, "serialpos": 4, "key_press": -1, "wordID": 1318, "type": "PRES_VIS", "trial_index": 59}, "uniqueid": "MTK1812:37W3JXSD67FULPIIAD3YVINTI09YW1", "dateTime": 1516317213281}, {"current_trial": 60, "trialdata": {"rt": -1, "trial_type": "single-stim", "word": "supper", "stimulus": "<p id=\"stim\">SUPPER</p>", "conditions": [18, 1200, "v", 18000], "internal_node_id": "0.0-42.0", "trial": 1, "time_elapsed": 273891, "serialpos": 5, "key_press": -1, "wordID": 1410, "type": "PRES_VIS", "trial_index": 60}, "uniqueid": "MTK1812:37W3JXSD67FULPIIAD3YVINTI09YW1", "dateTime": 1516317215328}, {"current_trial": 61, "trialdata": {"rt": -1, "trial_type": "single-stim", "word": "wrist", "stimulus": "<p id=\"stim\">WRIST</p>", "conditions": [18, 1200, "v", 18000], "internal_node_id": "0.0-43.0", "trial": 1, "time_elapsed": 275951, "serialpos": 6, "key_press": -1, "wordID": 1625, "type": "PRES_VIS", "trial_index": 61}, "uniqueid": "MTK1812:37W3JXSD67FULPIIAD3YVINTI09YW1", "dateTime": 1516317217387}, {"current_trial": 62, "trialdata": {"rt": -1, "trial_type": "single-stim", "word": "possum", "stimulus": "<p id=\"stim\">POSSUM</p>", "conditions": [18, 1200, "v", 18000], "internal_node_id": "0.0-44.0", "trial": 1, "time_elapsed": 278075, "serialpos": 7, "key_press": -1, "wordID": 1111, "type": "PRES_VIS", "trial_index": 62}, "uniqueid": "MTK1812:37W3JXSD67FULPIIAD3YVINTI09YW1", "dateTime": 1516317219512}, {"current_trial": 63, "trialdata": {"rt": -1, "trial_type": "single-stim", "word": "dancer", "stimulus": "<p id=\"stim\">DANCER</p>", "conditions": [18, 1200, "v", 18000], "internal_node_id": "0.0-45.0", "trial": 1, "time_elapsed": 280441, "serialpos": 8, "key_press": -1, "wordID": 436, "type": "PRES_VIS", "trial_index": 63}, "uniqueid": "MTK1812:37W3JXSD67FULPIIAD3YVINTI09YW1", "dateTime": 1516317221878}, {"current_trial": 64, "trialdata": {"rt": -1, "trial_type": "single-stim", "word": "pastry", "stimulus": "<p id=\"stim\">PASTRY</p>", "conditions": [18, 1200, "v", 18000], "internal_node_id": "0.0-46.0", "trial": 1, "time_elapsed": 282496, "serialpos": 9, "key_press": -1, "wordID": 1021, "type": "PRES_VIS", "trial_index": 64}, "uniqueid": "MTK1812:37W3JXSD67FULPIIAD3YVINTI09YW1", "dateTime": 1516317223933}, {"current_trial": 65, "trialdata": {"rt": -1, "trial_type": "single-stim", "word": "crevice", "stimulus": "<p id=\"stim\">CREVICE</p>", "conditions": [18, 1200, "v", 18000], "internal_node_id": "0.0-47.0", "trial": 1, "time_elapsed": 284515, "serialpos": 10, "key_press": -1, "wordID": 404, "type": "PRES_VIS", "trial_index": 65}, "uniqueid": "MTK1812:37W3JXSD67FULPIIAD3YVINTI09YW1", "dateTime": 1516317225951}, {"current_trial": 66, "trialdata": {"rt": -1, "trial_type": "single-stim", "word": "lion", "stimulus": "<p id=\"stim\">LION</p>", "conditions": [18, 1200, "v", 18000], "internal_node_id": "0.0-48.0", "trial": 1, "time_elapsed": 286756, "serialpos": 11, "key_press": -1, "wordID": 826, "type": "PRES_VIS", "trial_index": 66}, "uniqueid": "MTK1812:37W3JXSD67FULPIIAD3YVINTI09YW1", "dateTime": 1516317228193}, {"current_trial": 67, "trialdata": {"rt": -1, "trial_type": "single-stim", "word": "perch", "stimulus": "<p id=\"stim\">PERCH</p>", "conditions": [18, 1200, "v", 18000], "internal_node_id": "0.0-49.0", "trial": 1, "time_elapsed": 288858, "serialpos": 12, "key_press": -1, "wordID": 1047, "type": "PRES_VIS", "trial_index": 67}, "uniqueid": "MTK1812:37W3JXSD67FULPIIAD3YVINTI09YW1", "dateTime": 1516317230294}, {"current_trial": 68, "trialdata": {"rt": -1, "trial_type": "single-stim", "word": "flashlight", "stimulus": "<p id=\"stim\">FLASHLIGHT</p>", "conditions": [18, 1200, "v", 18000], "internal_node_id": "0.0-50.0", "trial": 1, "time_elapsed": 291243, "serialpos": 13, "key_press": -1, "wordID": 574, "type": "PRES_VIS", "trial_index": 68}, "uniqueid": "MTK1812:37W3JXSD67FULPIIAD3YVINTI09YW1", "dateTime": 1516317232696}, {"current_trial": 69, "trialdata": {"rt": -1, "trial_type": "single-stim", "word": "shrub", "stimulus": "<p id=\"stim\">SHRUB</p>", "conditions": [18, 1200, "v", 18000], "internal_node_id": "0.0-51.0", "trial": 1, "time_elapsed": 293444, "serialpos": 14, "key_press": -1, "wordID": 1298, "type": "PRES_VIS", "trial_index": 69}, "uniqueid": "MTK1812:37W3JXSD67FULPIIAD3YVINTI09YW1", "dateTime": 1516317234881}, {"current_trial": 70, "trialdata": {"rt": -1, "trial_type": "single-stim", "word": "sticker", "stimulus": "<p id=\"stim\">STICKER</p>", "conditions": [18, 1200, "v", 18000], "internal_node_id": "0.0-52.0", "trial": 1, "time_elapsed": 295502, "serialpos": 15, "key_press": -1, "wordID": 1381, "type": "PRES_VIS", "trial_index": 70}, "uniqueid": "MTK1812:37W3JXSD67FULPIIAD3YVINTI09YW1", "dateTime": 1516317236939}, {"current_trial": 71, "trialdata": {"rt": -1, "trial_type": "single-stim", "word": "chest", "stimulus": "<p id=\"stim\">CHEST</p>", "conditions": [18, 1200, "v", 18000], "internal_node_id": "0.0-53.0", "trial": 1, "time_elapsed": 297550, "serialpos": 16, "key_press": -1, "wordID": 294, "type": "PRES_VIS", "trial_index": 71}, "uniqueid": "MTK1812:37W3JXSD67FULPIIAD3YVINTI09YW1", "dateTime": 1516317238987}, {"current_trial": 72, "trialdata": {"rt": -1, "trial_type": "single-stim", "word": "trench", "stimulus": "<p id=\"stim\">TRENCH</p>", "conditions": [18, 1200, "v", 18000], "internal_node_id": "0.0-54.0", "trial": 1, "time_elapsed": 299865, "serialpos": 17, "key_press": -1, "wordID": 1502, "type": "PRES_VIS", "trial_index": 72}, "uniqueid": "MTK1812:37W3JXSD67FULPIIAD3YVINTI09YW1", "dateTime": 1516317241301}, {"current_trial": 73, "trialdata": {"rt": -1, "trial_type": "single-stim", "stimulus": "", "internal_node_id": "0.0-55.0-0.0", "time_elapsed": 302311, "key_press": -1, "type": "PRE_RECALL_DELAY", "trial_index": 73}, "uniqueid": "MTK1812:37W3JXSD67FULPIIAD3YVINTI09YW1", "dateTime": 1516317243748}, {"current_trial": 74, "trialdata": {"rt": -1000, "trial_type": "single-audio", "stimulus": "/static/audio/400Hz.wav", "internal_node_id": "0.0-56.0", "time_elapsed": 302822, "key_press": -1, "type": "PRE_RECALL_ALERT", "trial_index": 74}, "uniqueid": "MTK1812:37W3JXSD67FULPIIAD3YVINTI09YW1", "dateTime": 1516317244258}, {"current_trial": 75, "trialdata": {"rt": [3772, 6552, 8621, 13113, 15445, 18741, 22514, 25943, 29235, 32559, 35491, 38806], "recwords": ["trench", "pastry", "supper", "drink", "custard", "antler", "wrist", "shrub", "sticker", "possum", "bubble", "dancer"], "key_times": [742, 865, 1202, 2415, 2624, 2707, 3772, 4392, 4522, 5003, 5234, 5375, 5500, 6552, 7843, 7983, 8193, 8321, 8445, 8511, 8621, 9899, 10059, 10442, 10709, 11417, 11817, 12301, 13113, 13930, 14025, 14115, 14250, 14393, 14497, 15065, 15445, 16711, 16880, 17778, 17922, 18041, 18121, 18741, 20749, 20952, 21250, 21551, 21687, 22514, 24420, 24542, 24911, 25082, 25316, 25943, 27440, 27590, 27918, 28114, 28220, 28331, 28421, 29235, 30204, 30393, 30687, 30867, 31184, 31305, 31570, 31855, 32559, 33897, 34040, 34224, 34363, 34499, 34615, 35491, 38033, 38137, 38247, 38369, 38540, 38645, 38806], "trial_type": "free-recall", "conditions": [18, 1200, "v", 18000], "internal_node_id": "0.0-57.0-0.0", "key_presses": [84, 82, 69, 78, 67, 72, 13, 80, 65, 83, 84, 82, 89, 13, 83, 85, 80, 80, 69, 82, 13, 68, 82, 73, 78, 75, 75, 8, 13, 67, 85, 83, 84, 65, 82, 68, 13, 65, 78, 84, 76, 69, 82, 13, 87, 82, 73, 83, 84, 13, 83, 72, 82, 85, 66, 13, 83, 84, 73, 67, 75, 69, 82, 13, 80, 83, 8, 79, 83, 83, 85, 77, 13, 66, 85, 66, 66, 76, 69, 13, 68, 65, 78, 67, 69, 82, 13], "trial": 1, "time_elapsed": 362839, "type": "FREE_RECALL", "trial_index": 75}, "uniqueid": "MTK1812:37W3JXSD67FULPIIAD3YVINTI09YW1", "dateTime": 1516317304291}, {"current_trial": 76, "trialdata": {"rt": 1776, "trial_type": "text", "internal_node_id": "0.0-58.0", "time_elapsed": 366636, "key_press": 32, "type": "INSTRUCTIONS", "trial_index": 76}, "uniqueid": "MTK1812:37W3JXSD67FULPIIAD3YVINTI09YW1", "dateTime": 1516317308072}, {"current_trial": 77, "trialdata": {"rt": [3747, 6242, 9563], "trial_type": "math-distractor", "key_times": [3421, 3596, 3747, 5582, 6099, 6242, 9142, 9441, 9563], "responses": ["24", "17", "17"], "num2": [8, 7, 8, 7], "num3": [8, 7, 3, 3], "conditions": [12, 800, "v", 12000], "internal_node_id": "0.0-59.0", "key_presses": [50, 52, 13, 49, 55, 13, 49, 55, 13], "trial": 2, "time_elapsed": 379683, "type": "DISTRACTOR", "trial_index": 77, "num1": [8, 3, 6, 9]}, "uniqueid": "MTK1812:37W3JXSD67FULPIIAD3YVINTI09YW1", "dateTime": 1516317321119}, {"current_trial": 78, "trialdata": {"rt": -1, "trial_type": "single-stim", "stimulus": "<p id=\"stim\">10</p>", "internal_node_id": "0.0-60.0-0.0", "time_elapsed": 382690, "key_press": -1, "trial_index": 78}, "uniqueid": "MTK1812:37W3JXSD67FULPIIAD3YVINTI09YW1", "dateTime": 1516317324126}, {"current_trial": 79, "trialdata": {"rt": -1, "trial_type": "single-stim", "stimulus": "<p id=\"stim\">9</p>", "internal_node_id": "0.0-60.0-1.0", "time_elapsed": 383695, "key_press": -1, "trial_index": 79}, "uniqueid": "MTK1812:37W3JXSD67FULPIIAD3YVINTI09YW1", "dateTime": 1516317325131}, {"current_trial": 80, "trialdata": {"rt": -1, "trial_type": "single-stim", "stimulus": "<p id=\"stim\">8</p>", "internal_node_id": "0.0-60.0-2.0", "time_elapsed": 384699, "key_press": -1, "trial_index": 80}, "uniqueid": "MTK1812:37W3JXSD67FULPIIAD3YVINTI09YW1", "dateTime": 1516317326136}, {"current_trial": 81, "trialdata": {"rt": -1, "trial_type": "single-stim", "stimulus": "<p id=\"stim\">7</p>", "internal_node_id": "0.0-60.0-3.0", "time_elapsed": 385708, "key_press": -1, "trial_index": 81}, "uniqueid": "MTK1812:37W3JXSD67FULPIIAD3YVINTI09YW1", "dateTime": 1516317327145}, {"current_trial": 82, "trialdata": {"rt": -1, "trial_type": "single-stim", "stimulus": "<p id=\"stim\">6</p>", "internal_node_id": "0.0-60.0-4.0", "time_elapsed": 386715, "key_press": -1, "trial_index": 82}, "uniqueid": "MTK1812:37W3JXSD67FULPIIAD3YVINTI09YW1", "dateTime": 1516317328151}, {"current_trial": 83, "trialdata": {"rt": -1, "trial_type": "single-stim", "stimulus": "<p id=\"stim\">5</p>", "internal_node_id": "0.0-60.0-5.0", "time_elapsed": 387726, "key_press": -1, "trial_index": 83}, "uniqueid": "MTK1812:37W3JXSD67FULPIIAD3YVINTI09YW1", "dateTime": 1516317329165}, {"current_trial": 84, "trialdata": {"rt": -1, "trial_type": "single-stim", "stimulus": "<p id=\"stim\">4</p>", "internal_node_id": "0.0-60.0-6.0", "time_elapsed": 388735, "key_press": -1, "trial_index": 84}, "uniqueid": "MTK1812:37W3JXSD67FULPIIAD3YVINTI09YW1", "dateTime": 1516317330171}, {"current_trial": 85, "trialdata": {"rt": -1, "trial_type": "single-stim", "stimulus": "<p id=\"stim\">3</p>", "internal_node_id": "0.0-60.0-7.0", "time_elapsed": 389739, "key_press": -1, "trial_index": 85}, "uniqueid": "MTK1812:37W3JXSD67FULPIIAD3YVINTI09YW1", "dateTime": 1516317331176}, {"current_trial": 86, "trialdata": {"rt": -1, "trial_type": "single-stim", "stimulus": "<p id=\"stim\">2</p>", "internal_node_id": "0.0-60.0-8.0", "time_elapsed": 390744, "key_press": -1, "trial_index": 86}, "uniqueid": "MTK1812:37W3JXSD67FULPIIAD3YVINTI09YW1", "dateTime": 1516317332180}, {"current_trial": 87, "trialdata": {"rt": -1, "trial_type": "single-stim", "stimulus": "<p id=\"stim\">1</p>", "internal_node_id": "0.0-60.0-9.0", "time_elapsed": 391749, "key_press": -1, "trial_index": 87}, "uniqueid": "MTK1812:37W3JXSD67FULPIIAD3YVINTI09YW1", "dateTime": 1516317333187}, {"current_trial": 88, "trialdata": {"rt": -1, "trial_type": "single-stim", "stimulus": "<p id=\"stim\">+</p>", "internal_node_id": "0.0-61.0-0.0", "time_elapsed": 393255, "key_press": -1, "type": "FIXATION", "trial_index": 88}, "uniqueid": "MTK1812:37W3JXSD67FULPIIAD3YVINTI09YW1", "dateTime": 1516317334692}, {"current_trial": 89, "trialdata": {"rt": -1, "trial_type": "single-stim", "word": "cabin", "stimulus": "<p id=\"stim\">CABIN</p>", "conditions": [12, 800, "v", 12000], "internal_node_id": "0.0-62.0", "trial": 2, "time_elapsed": 394060, "serialpos": 0, "key_press": -1, "wordID": 210, "type": "PRES_VIS", "trial_index": 89}, "uniqueid": "MTK1812:37W3JXSD67FULPIIAD3YVINTI09YW1", "dateTime": 1516317335496}, {"current_trial": 90, "trialdata": {"rt": -1, "trial_type": "single-stim", "word": "zipper", "stimulus": "<p id=\"stim\">ZIPPER</p>", "conditions": [12, 800, "v", 12000], "internal_node_id": "0.0-63.0", "trial": 2, "time_elapsed": 395953, "serialpos": 1, "key_press": -1, "wordID": 1635, "type": "PRES_VIS", "trial_index": 90}, "uniqueid": "MTK1812:37W3JXSD67FULPIIAD3YVINTI09YW1", "dateTime": 1516317337389}, {"current_trial": 91, "trialdata": {"rt": -1, "trial_type": "single-stim", "word": "spouse", "stimulus": "<p id=\"stim\">SPOUSE</p>", "conditions": [12, 800, "v", 12000], "internal_node_id": "0.0-64.0", "trial": 2, "time_elapsed": 397600, "serialpos": 2, "key_press": -1, "wordID": 1357, "type": "PRES_VIS", "trial_index": 91}, "uniqueid": "MTK1812:37W3JXSD67FULPIIAD3YVINTI09YW1", "dateTime": 1516317339037}, {"current_trial": 92, "trialdata": {"rt": -1, "trial_type": "single-stim", "word": "cupboard", "stimulus": "<p id=\"stim\">CUPBOARD</p>", "conditions": [12, 800, "v", 12000], "internal_node_id": "0.0-65.0", "trial": 2, "time_elapsed": 399310, "serialpos": 3, "key_press": -1, "wordID": 424, "type": "PRES_VIS", "trial_index": 92}, "uniqueid": "MTK1812:37W3JXSD67FULPIIAD3YVINTI09YW1", "dateTime": 1516317340747}, {"current_trial": 93, "trialdata": {"rt": -1, "trial_type": "single-stim", "word": "basement", "stimulus": "<p id=\"stim\">BASEMENT</p>", "conditions": [12, 800, "v", 12000], "internal_node_id": "0.0-66.0", "trial": 2, "time_elapsed": 401252, "serialpos": 4, "key_press": -1, "wordID": 93, "type": "PRES_VIS", "trial_index": 93}, "uniqueid": "MTK1812:37W3JXSD67FULPIIAD3YVINTI09YW1", "dateTime": 1516317342688}, {"current_trial": 94, "trialdata": {"rt": -1, "trial_type": "single-stim", "word": "cellar", "stimulus": "<p id=\"stim\">CELLAR</p>", "conditions": [12, 800, "v", 12000], "internal_node_id": "0.0-67.0", "trial": 2, "time_elapsed": 403217, "serialpos": 5, "key_press": -1, "wordID": 266, "type": "PRES_VIS", "trial_index": 94}, "uniqueid": "MTK1812:37W3JXSD67FULPIIAD3YVINTI09YW1", "dateTime": 1516317344653}, {"current_trial": 95, "trialdata": {"rt": -1, "trial_type": "single-stim", "word": "paddle", "stimulus": "<p id=\"stim\">PADDLE</p>", "conditions": [12, 800, "v", 12000], "internal_node_id": "0.0-68.0", "trial": 2, "time_elapsed": 404981, "serialpos": 6, "key_press": -1, "wordID": 999, "type": "PRES_VIS", "trial_index": 95}, "uniqueid": "MTK1812:37W3JXSD67FULPIIAD3YVINTI09YW1", "dateTime": 1516317346417}, {"current_trial": 96, "trialdata": {"rt": -1, "trial_type": "single-stim", "word": "leg", "stimulus": "<p id=\"stim\">LEG</p>", "conditions": [12, 800, "v", 12000], "internal_node_id": "0.0-69.0", "trial": 2, "time_elapsed": 406665, "serialpos": 7, "key_press": -1, "wordID": 808, "type": "PRES_VIS", "trial_index": 96}, "uniqueid": "MTK1812:37W3JXSD67FULPIIAD3YVINTI09YW1", "dateTime": 1516317348101}, {"current_trial": 97, "trialdata": {"rt": -1, "trial_type": "single-stim", "word": "scarecrow", "stimulus": "<p id=\"stim\">SCARECROW</p>", "conditions": [12, 800, "v", 12000], "internal_node_id": "0.0-70.0", "trial": 2, "time_elapsed": 408301, "serialpos": 8, "key_press": -1, "wordID": 1244, "type": "PRES_VIS", "trial_index": 97}, "uniqueid": "MTK1812:37W3JXSD67FULPIIAD3YVINTI09YW1", "dateTime": 1516317349737}, {"current_trial": 98, "trialdata": {"rt": -1, "trial_type": "single-stim", "word": "powder", "stimulus": "<p id=\"stim\">POWDER</p>", "conditions": [12, 800, "v", 12000], "internal_node_id": "0.0-71.0", "trial": 2, "time_elapsed": 409981, "serialpos": 9, "key_press": -1, "wordID": 1116, "type": "PRES_VIS", "trial_index": 98}, "uniqueid": "MTK1812:37W3JXSD67FULPIIAD3YVINTI09YW1", "dateTime": 1516317351418}, {"current_trial": 99, "trialdata": {"rt": -1, "trial_type": "single-stim", "word": "money", "stimulus": "<p id=\"stim\">MONEY</p>", "conditions": [12, 800, "v", 12000], "internal_node_id": "0.0-72.0", "trial": 2, "time_elapsed": 411703, "serialpos": 10, "key_press": -1, "wordID": 907, "type": "PRES_VIS", "trial_index": 99}, "uniqueid": "MTK1812:37W3JXSD67FULPIIAD3YVINTI09YW1", "dateTime": 1516317353139}, {"current_trial": 100, "trialdata": {"rt": -1, "trial_type": "single-stim", "word": "ankle", "stimulus": "<p id=\"stim\">ANKLE</p>", "conditions": [12, 800, "v", 12000], "internal_node_id": "0.0-73.0", "trial": 2, "time_elapsed": 413671, "serialpos": 11, "key_press": -1, "wordID": 23, "type": "PRES_VIS", "trial_index": 100}, "uniqueid": "MTK1812:37W3JXSD67FULPIIAD3YVINTI09YW1", "dateTime": 1516317355108}, {"current_trial": 101, "trialdata": {"rt": -1, "trial_type": "single-stim", "stimulus": "", "internal_node_id": "0.0-74.0-0.0", "time_elapsed": 415966, "key_press": -1, "type": "PRE_RECALL_DELAY", "trial_index": 101}, "uniqueid": "MTK1812:37W3JXSD67FULPIIAD3YVINTI09YW1", "dateTime": 1516317357402}, {"current_trial": 102, "trialdata": {"rt": -1000, "trial_type": "single-audio", "stimulus": "/static/audio/400Hz.wav", "internal_node_id": "0.0-75.0", "time_elapsed": 416471, "key_press": -1, "type": "PRE_RECALL_ALERT", "trial_index": 102}, "uniqueid": "MTK1812:37W3JXSD67FULPIIAD3YVINTI09YW1", "dateTime": 1516317357907}, {"current_trial": 103, "trialdata": {"rt": [3194, 6913, 9963, 12554, 13669, 17498, 19326, 21521, 24199, 32297, 46678], "recwords": ["cabin", "basement", "cellar", "paddle", "leg", "powder", "money", "ankle", "zipper", "spouse", "scarecrow"], "key_times": [1810, 1930, 2276, 2362, 2451, 3194, 4614, 4756, 4982, 5633, 5739, 5832, 5951, 6509, 6646, 6729, 6913, 7356, 7491, 7653, 7794, 7893, 7990, 9022, 9201, 9390, 9595, 9963, 11319, 11419, 11674, 11789, 11893, 11993, 12554, 13249, 13362, 13552, 13669, 14344, 14508, 15610, 16122, 16330, 16511, 16688, 16776, 17498, 18603, 18711, 18839, 18975, 19088, 19326, 19832, 19967, 20288, 20512, 20644, 21521, 22446, 22683, 22900, 23004, 23132, 23233, 24199, 31320, 31430, 31647, 31879, 32039, 32151, 32297, 44505, 44660, 45070, 45221, 45336, 45950, 46103, 46218, 46356, 46678], "trial_type": "free-recall", "conditions": [12, 800, "v", 12000], "internal_node_id": "0.0-76.0-0.0", "key_presses": [67, 65, 66, 73, 78, 13, 66, 65, 69, 8, 83, 69, 77, 69, 78, 84, 13, 67, 69, 76, 76, 69, 82, 8, 8, 65, 82, 13, 80, 65, 68, 68, 76, 69, 13, 76, 69, 71, 13, 80, 87, 8, 79, 87, 68, 69, 82, 13, 77, 79, 78, 69, 89, 13, 65, 78, 75, 76, 69, 13, 90, 73, 80, 80, 69, 82, 13, 83, 80, 79, 85, 83, 69, 13, 83, 67, 65, 82, 69, 67, 82, 79, 87, 13], "trial": 2, "time_elapsed": 476484, "type": "FREE_RECALL", "trial_index": 103}, "uniqueid": "MTK1812:37W3JXSD67FULPIIAD3YVINTI09YW1", "dateTime": 1516317417936}, {"current_trial": 104, "trialdata": {"rt": 982, "trial_type": "text", "internal_node_id": "0.0-77.0", "time_elapsed": 479489, "key_press": 32, "type": "INSTRUCTIONS", "trial_index": 104}, "uniqueid": "MTK1812:37W3JXSD67FULPIIAD3YVINTI09YW1", "dateTime": 1516317420926}, {"current_trial": 105, "trialdata": {"rt": [2420, 6183, 9529, 11682, 15228, 17896, 19871, 21495], "trial_type": "math-distractor", "key_times": [2125, 2420, 5857, 5949, 6183, 8886, 9421, 9529, 11245, 11573, 11682, 14908, 15123, 15228, 17777, 17896, 19588, 19662, 19871, 21176, 21294, 21495], "responses": ["8", "21", "19", "16", "25", "9", "10", "12"], "num2": [4, 7, 9, 3, 8, 4, 1, 9, 3], "num3": [2, 7, 3, 8, 9, 4, 1, 2, 9], "conditions": [12, 800, "v", 24000], "internal_node_id": "0.0-78.0", "key_presses": [56, 13, 50, 49, 13, 49, 57, 13, 49, 54, 13, 50, 53, 13, 57, 13, 49, 48, 13, 49, 50, 13], "trial": 3, "time_elapsed": 505502, "type": "DISTRACTOR", "trial_index": 105, "num1": [2, 6, 7, 5, 8, 1, 8, 1, 5]}, "uniqueid": "MTK1812:37W3JXSD67FULPIIAD3YVINTI09YW1", "dateTime": 1516317446939}, {"current_trial": 106, "trialdata": {"rt": -1, "trial_type": "single-stim", "stimulus": "<p id=\"stim\">10</p>", "internal_node_id": "0.0-79.0-0.0", "time_elapsed": 508509, "key_press": -1, "trial_index": 106}, "uniqueid": "MTK1812:37W3JXSD67FULPIIAD3YVINTI09YW1", "dateTime": 1516317449946}, {"current_trial": 107, "trialdata": {"rt": -1, "trial_type": "single-stim", "stimulus": "<p id=\"stim\">9</p>", "internal_node_id": "0.0-79.0-1.0", "time_elapsed": 509513, "key_press": -1, "trial_index": 107}, "uniqueid": "MTK1812:37W3JXSD67FULPIIAD3YVINTI09YW1", "dateTime": 1516317450949}, {"current_trial": 108, "trialdata": {"rt": -1, "trial_type": "single-stim", "stimulus": "<p id=\"stim\">8</p>", "internal_node_id": "0.0-79.0-2.0", "time_elapsed": 510517, "key_press": -1, "trial_index": 108}, "uniqueid": "MTK1812:37W3JXSD67FULPIIAD3YVINTI09YW1", "dateTime": 1516317451953}, {"current_trial": 109, "trialdata": {"rt": -1, "trial_type": "single-stim", "stimulus": "<p id=\"stim\">7</p>", "internal_node_id": "0.0-79.0-3.0", "time_elapsed": 511521, "key_press": -1, "trial_index": 109}, "uniqueid": "MTK1812:37W3JXSD67FULPIIAD3YVINTI09YW1", "dateTime": 1516317452958}, {"current_trial": 110, "trialdata": {"rt": -1, "trial_type": "single-stim", "stimulus": "<p id=\"stim\">6</p>", "internal_node_id": "0.0-79.0-4.0", "time_elapsed": 512525, "key_press": -1, "trial_index": 110}, "uniqueid": "MTK1812:37W3JXSD67FULPIIAD3YVINTI09YW1", "dateTime": 1516317453962}, {"current_trial": 111, "trialdata": {"rt": -1, "trial_type": "single-stim", "stimulus": "<p id=\"stim\">5</p>", "internal_node_id": "0.0-79.0-5.0", "time_elapsed": 513530, "key_press": -1, "trial_index": 111}, "uniqueid": "MTK1812:37W3JXSD67FULPIIAD3YVINTI09YW1", "dateTime": 1516317454967}, {"current_trial": 112, "trialdata": {"rt": -1, "trial_type": "single-stim", "stimulus": "<p id=\"stim\">4</p>", "internal_node_id": "0.0-79.0-6.0", "time_elapsed": 514535, "key_press": -1, "trial_index": 112}, "uniqueid": "MTK1812:37W3JXSD67FULPIIAD3YVINTI09YW1", "dateTime": 1516317455972}, {"current_trial": 113, "trialdata": {"rt": -1, "trial_type": "single-stim", "stimulus": "<p id=\"stim\">3</p>", "internal_node_id": "0.0-79.0-7.0", "time_elapsed": 515539, "key_press": -1, "trial_index": 113}, "uniqueid": "MTK1812:37W3JXSD67FULPIIAD3YVINTI09YW1", "dateTime": 1516317456976}, {"current_trial": 114, "trialdata": {"rt": -1, "trial_type": "single-stim", "stimulus": "<p id=\"stim\">2</p>", "internal_node_id": "0.0-79.0-8.0", "time_elapsed": 516544, "key_press": -1, "trial_index": 114}, "uniqueid": "MTK1812:37W3JXSD67FULPIIAD3YVINTI09YW1", "dateTime": 1516317457984}, {"current_trial": 115, "trialdata": {"rt": -1, "trial_type": "single-stim", "stimulus": "<p id=\"stim\">1</p>", "internal_node_id": "0.0-79.0-9.0", "time_elapsed": 517552, "key_press": -1, "trial_index": 115}, "uniqueid": "MTK1812:37W3JXSD67FULPIIAD3YVINTI09YW1", "dateTime": 1516317458988}, {"current_trial": 116, "trialdata": {"rt": -1, "trial_type": "single-stim", "stimulus": "<p id=\"stim\">+</p>", "internal_node_id": "0.0-80.0-0.0", "time_elapsed": 519056, "key_press": -1, "type": "FIXATION", "trial_index": 116}, "uniqueid": "MTK1812:37W3JXSD67FULPIIAD3YVINTI09YW1", "dateTime": 1516317460493}, {"current_trial": 117, "trialdata": {"rt": -1, "trial_type": "single-stim", "word": "missile", "stimulus": "<p id=\"stim\">MISSILE</p>", "conditions": [12, 800, "v", 24000], "internal_node_id": "0.0-81.0", "trial": 3, "time_elapsed": 519860, "serialpos": 0, "key_press": -1, "wordID": 899, "type": "PRES_VIS", "trial_index": 117}, "uniqueid": "MTK1812:37W3JXSD67FULPIIAD3YVINTI09YW1", "dateTime": 1516317461297}, {"current_trial": 118, "trialdata": {"rt": -1, "trial_type": "single-stim", "word": "grape", "stimulus": "<p id=\"stim\">GRAPE</p>", "conditions": [12, 800, "v", 24000], "internal_node_id": "0.0-82.0", "trial": 3, "time_elapsed": 521733, "serialpos": 1, "key_press": -1, "wordID": 653, "type": "PRES_VIS", "trial_index": 118}, "uniqueid": "MTK1812:37W3JXSD67FULPIIAD3YVINTI09YW1", "dateTime": 1516317463170}, {"current_trial": 119, "trialdata": {"rt": -1, "trial_type": "single-stim", "word": "brother", "stimulus": "<p id=\"stim\">BROTHER</p>", "conditions": [12, 800, "v", 24000], "internal_node_id": "0.0-83.0", "trial": 3, "time_elapsed": 523429, "serialpos": 2, "key_press": -1, "wordID": 178, "type": "PRES_VIS", "trial_index": 119}, "uniqueid": "MTK1812:37W3JXSD67FULPIIAD3YVINTI09YW1", "dateTime": 1516317464865}, {"current_trial": 120, "trialdata": {"rt": -1, "trial_type": "single-stim", "word": "rocket", "stimulus": "<p id=\"stim\">ROCKET</p>", "conditions": [12, 800, "v", 24000], "internal_node_id": "0.0-84.0", "trial": 3, "time_elapsed": 525367, "serialpos": 3, "key_press": -1, "wordID": 1201, "type": "PRES_VIS", "trial_index": 120}, "uniqueid": "MTK1812:37W3JXSD67FULPIIAD3YVINTI09YW1", "dateTime": 1516317466804}, {"current_trial": 121, "trialdata": {"rt": -1, "trial_type": "single-stim", "word": "lightning", "stimulus": "<p id=\"stim\">LIGHTNING</p>", "conditions": [12, 800, "v", 24000], "internal_node_id": "0.0-85.0", "trial": 3, "time_elapsed": 527283, "serialpos": 4, "key_press": -1, "wordID": 819, "type": "PRES_VIS", "trial_index": 121}, "uniqueid": "MTK1812:37W3JXSD67FULPIIAD3YVINTI09YW1", "dateTime": 1516317468720}, {"current_trial": 122, "trialdata": {"rt": -1, "trial_type": "single-stim", "word": "cyclone", "stimulus": "<p id=\"stim\">CYCLONE</p>", "conditions": [12, 800, "v", 24000], "internal_node_id": "0.0-86.0", "trial": 3, "time_elapsed": 529257, "serialpos": 5, "key_press": -1, "wordID": 430, "type": "PRES_VIS", "trial_index": 122}, "uniqueid": "MTK1812:37W3JXSD67FULPIIAD3YVINTI09YW1", "dateTime": 1516317470694}, {"current_trial": 123, "trialdata": {"rt": -1, "trial_type": "single-stim", "word": "swimmer", "stimulus": "<p id=\"stim\">SWIMMER</p>", "conditions": [12, 800, "v", 24000], "internal_node_id": "0.0-87.0", "trial": 3, "time_elapsed": 531047, "serialpos": 6, "key_press": -1, "wordID": 1419, "type": "PRES_VIS", "trial_index": 123}, "uniqueid": "MTK1812:37W3JXSD67FULPIIAD3YVINTI09YW1", "dateTime": 1516317472484}, {"current_trial": 124, "trialdata": {"rt": -1, "trial_type": "single-stim", "word": "plaid", "stimulus": "<p id=\"stim\">PLAID</p>", "conditions": [12, 800, "v", 24000], "internal_node_id": "0.0-88.0", "trial": 3, "time_elapsed": 533003, "serialpos": 7, "key_press": -1, "wordID": 1079, "type": "PRES_VIS", "trial_index": 124}, "uniqueid": "MTK1812:37W3JXSD67FULPIIAD3YVINTI09YW1", "dateTime": 1516317474440}, {"current_trial": 125, "trialdata": {"rt": -1, "trial_type": "single-stim", "word": "widow", "stimulus": "<p id=\"stim\">WIDOW</p>", "conditions": [12, 800, "v", 24000], "internal_node_id": "0.0-89.0", "trial": 3, "time_elapsed": 534943, "serialpos": 8, "key_press": -1, "wordID": 1607, "type": "PRES_VIS", "trial_index": 125}, "uniqueid": "MTK1812:37W3JXSD67FULPIIAD3YVINTI09YW1", "dateTime": 1516317476380}, {"current_trial": 126, "trialdata": {"rt": -1, "trial_type": "single-stim", "word": "wife", "stimulus": "<p id=\"stim\">WIFE</p>", "conditions": [12, 800, "v", 24000], "internal_node_id": "0.0-90.0", "trial": 3, "time_elapsed": 536931, "serialpos": 9, "key_press": -1, "wordID": 1608, "type": "PRES_VIS", "trial_index": 126}, "uniqueid": "MTK1812:37W3JXSD67FULPIIAD3YVINTI09YW1", "dateTime": 1516317478368}, {"current_trial": 127, "trialdata": {"rt": -1, "trial_type": "single-stim", "word": "shelter", "stimulus": "<p id=\"stim\">SHELTER</p>", "conditions": [12, 800, "v", 24000], "internal_node_id": "0.0-91.0", "trial": 3, "time_elapsed": 538838, "serialpos": 10, "key_press": -1, "wordID": 1281, "type": "PRES_VIS", "trial_index": 127}, "uniqueid": "MTK1812:37W3JXSD67FULPIIAD3YVINTI09YW1", "dateTime": 1516317480275}, {"current_trial": 128, "trialdata": {"rt": -1, "trial_type": "single-stim", "word": "female", "stimulus": "<p id=\"stim\">FEMALE</p>", "conditions": [12, 800, "v", 24000], "internal_node_id": "0.0-92.0", "trial": 3, "time_elapsed": 540838, "serialpos": 11, "key_press": -1, "wordID": 558, "type": "PRES_VIS", "trial_index": 128}, "uniqueid": "MTK1812:37W3JXSD67FULPIIAD3YVINTI09YW1", "dateTime": 1516317482274}, {"current_trial": 129, "trialdata": {"rt": -1, "trial_type": "single-stim", "stimulus": "", "internal_node_id": "0.0-93.0-0.0", "time_elapsed": 543088, "key_press": -1, "type": "PRE_RECALL_DELAY", "trial_index": 129}, "uniqueid": "MTK1812:37W3JXSD67FULPIIAD3YVINTI09YW1", "dateTime": 1516317484525}, {"current_trial": 130, "trialdata": {"rt": -1000, "trial_type": "single-audio", "stimulus": "/static/audio/400Hz.wav", "internal_node_id": "0.0-94.0", "time_elapsed": 543596, "key_press": -1, "type": "PRE_RECALL_ALERT", "trial_index": 130}, "uniqueid": "MTK1812:37W3JXSD67FULPIIAD3YVINTI09YW1", "dateTime": 1516317485033}, {"current_trial": 131, "trialdata": {"rt": [2260, 5075, 10027, 11528, 12642, 15037, 17501, 22725, 29576, 41297], "recwords": ["female", "widow", "cyclone", "missle", "grape", "brother", "plaid", "swimmer", "rodent", "lightning"], "key_times": [947, 1070, 1314, 1419, 1581, 1859, 2260, 3363, 3453, 3717, 3903, 4283, 5075, 7878, 7961, 8240, 8575, 8791, 8952, 9077, 10027, 10755, 10875, 11000, 11133, 11266, 11374, 11528, 11997, 12138, 12268, 12385, 12537, 12642, 14137, 14404, 14524, 14686, 14762, 14827, 14909, 15037, 16677, 16764, 16856, 17069, 17351, 17501, 21583, 21946, 22132, 22333, 22442, 22556, 22641, 22725, 28520, 28607, 28765, 28912, 29017, 29118, 29576, 35098, 35298, 35445, 36749, 37373, 37919, 38051, 38187, 38266, 41297], "trial_type": "free-recall", "conditions": [12, 800, "v", 24000], "internal_node_id": "0.0-95.0-0.0", "key_presses": [70, 69, 77, 65, 76, 69, 13, 87, 73, 68, 79, 87, 13, 67, 89, 67, 76, 79, 78, 69, 13, 77, 73, 83, 83, 76, 69, 13, 71, 82, 65, 80, 69, 13, 66, 82, 79, 84, 72, 69, 82, 13, 80, 76, 65, 73, 68, 13, 83, 87, 73, 77, 77, 69, 82, 13, 82, 79, 68, 69, 78, 84, 13, 76, 73, 71, 72, 84, 78, 73, 78, 71, 13], "trial": 3, "time_elapsed": 603608, "type": "FREE_RECALL", "trial_index": 131}, "uniqueid": "MTK1812:37W3JXSD67FULPIIAD3YVINTI09YW1", "dateTime": 1516317545075}, {"current_trial": 132, "trialdata": {"rt": 878, "trial_type": "text", "internal_node_id": "0.0-96.0", "time_elapsed": 606523, "key_press": 32, "type": "INSTRUCTIONS", "trial_index": 132}, "uniqueid": "MTK1812:37W3JXSD67FULPIIAD3YVINTI09YW1", "dateTime": 1516317547960}, {"current_trial": 133, "trialdata": {"rt": [7529, 11384, 16024, 19228, 23746], "trial_type": "math-distractor", "key_times": [4366, 7409, 7529, 11163, 11258, 11384, 15678, 15929, 16024, 18756, 19138, 19228, 23633, 23746], "responses": ["19", "21", "24", "15", "9"], "num2": [7, 8, 7, 9, 4, 9], "num3": [5, 8, 9, 1, 3, 4], "conditions": [24, 800, "v", 24000], "internal_node_id": "0.0-97.0", "key_presses": [49, 57, 13, 50, 49, 13, 50, 52, 13, 49, 53, 13, 57, 13], "trial": 4, "time_elapsed": 632539, "type": "DISTRACTOR", "trial_index": 133, "num1": [6, 6, 8, 5, 2, 7]}, "uniqueid": "MTK1812:37W3JXSD67FULPIIAD3YVINTI09YW1", "dateTime": 1516317573975}, {"current_trial": 134, "trialdata": {"rt": -1, "trial_type": "single-stim", "stimulus": "<p id=\"stim\">10</p>", "internal_node_id": "0.0-98.0-0.0", "time_elapsed": 635545, "key_press": -1, "trial_index": 134}, "uniqueid": "MTK1812:37W3JXSD67FULPIIAD3YVINTI09YW1", "dateTime": 1516317576982}, {"current_trial": 135, "trialdata": {"rt": -1, "trial_type": "single-stim", "stimulus": "<p id=\"stim\">9</p>", "internal_node_id": "0.0-98.0-1.0", "time_elapsed": 636550, "key_press": -1, "trial_index": 135}, "uniqueid": "MTK1812:37W3JXSD67FULPIIAD3YVINTI09YW1", "dateTime": 1516317577987}, {"current_trial": 136, "trialdata": {"rt": -1, "trial_type": "single-stim", "stimulus": "<p id=\"stim\">8</p>", "internal_node_id": "0.0-98.0-2.0", "time_elapsed": 637556, "key_press": -1, "trial_index": 136}, "uniqueid": "MTK1812:37W3JXSD67FULPIIAD3YVINTI09YW1", "dateTime": 1516317578993}, {"current_trial": 137, "trialdata": {"rt": -1, "trial_type": "single-stim", "stimulus": "<p id=\"stim\">7</p>", "internal_node_id": "0.0-98.0-3.0", "time_elapsed": 638561, "key_press": -1, "trial_index": 137}, "uniqueid": "MTK1812:37W3JXSD67FULPIIAD3YVINTI09YW1", "dateTime": 1516317579997}, {"current_trial": 138, "trialdata": {"rt": -1, "trial_type": "single-stim", "stimulus": "<p id=\"stim\">6</p>", "internal_node_id": "0.0-98.0-4.0", "time_elapsed": 639565, "key_press": -1, "trial_index": 138}, "uniqueid": "MTK1812:37W3JXSD67FULPIIAD3YVINTI09YW1", "dateTime": 1516317581001}, {"current_trial": 139, "trialdata": {"rt": -1, "trial_type": "single-stim", "stimulus": "<p id=\"stim\">5</p>", "internal_node_id": "0.0-98.0-5.0", "time_elapsed": 640570, "key_press": -1, "trial_index": 139}, "uniqueid": "MTK1812:37W3JXSD67FULPIIAD3YVINTI09YW1", "dateTime": 1516317582007}, {"current_trial": 140, "trialdata": {"rt": -1, "trial_type": "single-stim", "stimulus": "<p id=\"stim\">4</p>", "internal_node_id": "0.0-98.0-6.0", "time_elapsed": 641576, "key_press": -1, "trial_index": 140}, "uniqueid": "MTK1812:37W3JXSD67FULPIIAD3YVINTI09YW1", "dateTime": 1516317583012}, {"current_trial": 141, "trialdata": {"rt": -1, "trial_type": "single-stim", "stimulus": "<p id=\"stim\">3</p>", "internal_node_id": "0.0-98.0-7.0", "time_elapsed": 642580, "key_press": -1, "trial_index": 141}, "uniqueid": "MTK1812:37W3JXSD67FULPIIAD3YVINTI09YW1", "dateTime": 1516317584017}, {"current_trial": 142, "trialdata": {"rt": -1, "trial_type": "single-stim", "stimulus": "<p id=\"stim\">2</p>", "internal_node_id": "0.0-98.0-8.0", "time_elapsed": 643586, "key_press": -1, "trial_index": 142}, "uniqueid": "MTK1812:37W3JXSD67FULPIIAD3YVINTI09YW1", "dateTime": 1516317585023}, {"current_trial": 143, "trialdata": {"rt": -1, "trial_type": "single-stim", "stimulus": "<p id=\"stim\">1</p>", "internal_node_id": "0.0-98.0-9.0", "time_elapsed": 644592, "key_press": -1, "trial_index": 143}, "uniqueid": "MTK1812:37W3JXSD67FULPIIAD3YVINTI09YW1", "dateTime": 1516317586028}, {"current_trial": 144, "trialdata": {"rt": -1, "trial_type": "single-stim", "stimulus": "<p id=\"stim\">+</p>", "internal_node_id": "0.0-99.0-0.0", "time_elapsed": 646097, "key_press": -1, "type": "FIXATION", "trial_index": 144}, "uniqueid": "MTK1812:37W3JXSD67FULPIIAD3YVINTI09YW1", "dateTime": 1516317587533}, {"current_trial": 145, "trialdata": {"rt": -1, "trial_type": "single-stim", "word": "playground", "stimulus": "<p id=\"stim\">PLAYGROUND</p>", "conditions": [24, 800, "v", 24000], "internal_node_id": "0.0-100.0", "trial": 4, "time_elapsed": 646901, "serialpos": 0, "key_press": -1, "wordID": 1086, "type": "PRES_VIS", "trial_index": 145}, "uniqueid": "MTK1812:37W3JXSD67FULPIIAD3YVINTI09YW1", "dateTime": 1516317588338}, {"current_trial": 146, "trialdata": {"rt": -1, "trial_type": "single-stim", "word": "plaster", "stimulus": "<p id=\"stim\">PLASTER</p>", "conditions": [24, 800, "v", 24000], "internal_node_id": "0.0-101.0", "trial": 4, "time_elapsed": 648818, "serialpos": 1, "key_press": -1, "wordID": 1084, "type": "PRES_VIS", "trial_index": 146}, "uniqueid": "MTK1812:37W3JXSD67FULPIIAD3YVINTI09YW1", "dateTime": 1516317590255}, {"current_trial": 147, "trialdata": {"rt": -1, "trial_type": "single-stim", "word": "canal", "stimulus": "<p id=\"stim\">CANAL</p>", "conditions": [24, 800, "v", 24000], "internal_node_id": "0.0-102.0", "trial": 4, "time_elapsed": 650582, "serialpos": 2, "key_press": -1, "wordID": 225, "type": "PRES_VIS", "trial_index": 147}, "uniqueid": "MTK1812:37W3JXSD67FULPIIAD3YVINTI09YW1", "dateTime": 1516317592019}, {"current_trial": 148, "trialdata": {"rt": -1, "trial_type": "single-stim", "word": "star", "stimulus": "<p id=\"stim\">STAR</p>", "conditions": [24, 800, "v", 24000], "internal_node_id": "0.0-103.0", "trial": 4, "time_elapsed": 652392, "serialpos": 3, "key_press": -1, "wordID": 1372, "type": "PRES_VIS", "trial_index": 148}, "uniqueid": "MTK1812:37W3JXSD67FULPIIAD3YVINTI09YW1", "dateTime": 1516317593829}, {"current_trial": 149, "trialdata": {"rt": -1, "trial_type": "single-stim", "word": "tractor", "stimulus": "<p id=\"stim\">TRACTOR</p>", "conditions": [24, 800, "v", 24000], "internal_node_id": "0.0-104.0", "trial": 4, "time_elapsed": 654081, "serialpos": 4, "key_press": -1, "wordID": 1492, "type": "PRES_VIS", "trial_index": 149}, "uniqueid": "MTK1812:37W3JXSD67FULPIIAD3YVINTI09YW1", "dateTime": 1516317595518}, {"current_trial": 150, "trialdata": {"rt": -1, "trial_type": "single-stim", "word": "skillet", "stimulus": "<p id=\"stim\">SKILLET</p>", "conditions": [24, 800, "v", 24000], "internal_node_id": "0.0-105.0", "trial": 4, "time_elapsed": 655958, "serialpos": 5, "key_press": -1, "wordID": 1316, "type": "PRES_VIS", "trial_index": 150}, "uniqueid": "MTK1812:37W3JXSD67FULPIIAD3YVINTI09YW1", "dateTime": 1516317597395}, {"current_trial": 151, "trialdata": {"rt": -1, "trial_type": "single-stim", "word": "spoon", "stimulus": "<p id=\"stim\">SPOON</p>", "conditions": [24, 800, "v", 24000], "internal_node_id": "0.0-106.0", "trial": 4, "time_elapsed": 657753, "serialpos": 6, "key_press": -1, "wordID": 1356, "type": "PRES_VIS", "trial_index": 151}, "uniqueid": "MTK1812:37W3JXSD67FULPIIAD3YVINTI09YW1", "dateTime": 1516317599189}, {"current_trial": 152, "trialdata": {"rt": -1, "trial_type": "single-stim", "word": "thief", "stimulus": "<p id=\"stim\">THIEF</p>", "conditions": [24, 800, "v", 24000], "internal_node_id": "0.0-107.0", "trial": 4, "time_elapsed": 659433, "serialpos": 7, "key_press": -1, "wordID": 1455, "type": "PRES_VIS", "trial_index": 152}, "uniqueid": "MTK1812:37W3JXSD67FULPIIAD3YVINTI09YW1", "dateTime": 1516317600870}, {"current_trial": 153, "trialdata": {"rt": -1, "trial_type": "single-stim", "word": "crown", "stimulus": "<p id=\"stim\">CROWN</p>", "conditions": [24, 800, "v", 24000], "internal_node_id": "0.0-108.0", "trial": 4, "time_elapsed": 661326, "serialpos": 8, "key_press": -1, "wordID": 414, "type": "PRES_VIS", "trial_index": 153}, "uniqueid": "MTK1812:37W3JXSD67FULPIIAD3YVINTI09YW1", "dateTime": 1516317602762}, {"current_trial": 154, "trialdata": {"rt": -1, "trial_type": "single-stim", "word": "tunnel", "stimulus": "<p id=\"stim\">TUNNEL</p>", "conditions": [24, 800, "v", 24000], "internal_node_id": "0.0-109.0", "trial": 4, "time_elapsed": 663323, "serialpos": 9, "key_press": -1, "wordID": 1518, "type": "PRES_VIS", "trial_index": 154}, "uniqueid": "MTK1812:37W3JXSD67FULPIIAD3YVINTI09YW1", "dateTime": 1516317604759}, {"current_trial": 155, "trialdata": {"rt": -1, "trial_type": "single-stim", "word": "sandwich", "stimulus": "<p id=\"stim\">SANDWICH</p>", "conditions": [24, 800, "v", 24000], "internal_node_id": "0.0-110.0", "trial": 4, "time_elapsed": 664992, "serialpos": 10, "key_press": -1, "wordID": 1231, "type": "PRES_VIS", "trial_index": 155}, "uniqueid": "MTK1812:37W3JXSD67FULPIIAD3YVINTI09YW1", "dateTime": 1516317606428}, {"current_trial": 156, "trialdata": {"rt": -1, "trial_type": "single-stim", "word": "lagoon", "stimulus": "<p id=\"stim\">LAGOON</p>", "conditions": [24, 800, "v", 24000], "internal_node_id": "0.0-111.0", "trial": 4, "time_elapsed": 666932, "serialpos": 11, "key_press": -1, "wordID": 794, "type": "PRES_VIS", "trial_index": 156}, "uniqueid": "MTK1812:37W3JXSD67FULPIIAD3YVINTI09YW1", "dateTime": 1516317608368}, {"current_trial": 157, "trialdata": {"rt": -1, "trial_type": "single-stim", "word": "handbag", "stimulus": "<p id=\"stim\">HANDBAG</p>", "conditions": [24, 800, "v", 24000], "internal_node_id": "0.0-112.0", "trial": 4, "time_elapsed": 668854, "serialpos": 12, "key_press": -1, "wordID": 683, "type": "PRES_VIS", "trial_index": 157}, "uniqueid": "MTK1812:37W3JXSD67FULPIIAD3YVINTI09YW1", "dateTime": 1516317610291}, {"current_trial": 158, "trialdata": {"rt": -1, "trial_type": "single-stim", "word": "necklace", "stimulus": "<p id=\"stim\">NECKLACE</p>", "conditions": [24, 800, "v", 24000], "internal_node_id": "0.0-113.0", "trial": 4, "time_elapsed": 670484, "serialpos": 13, "key_press": -1, "wordID": 939, "type": "PRES_VIS", "trial_index": 158}, "uniqueid": "MTK1812:37W3JXSD67FULPIIAD3YVINTI09YW1", "dateTime": 1516317611921}, {"current_trial": 159, "trialdata": {"rt": -1, "trial_type": "single-stim", "word": "lunch", "stimulus": "<p id=\"stim\">LUNCH</p>", "conditions": [24, 800, "v", 24000], "internal_node_id": "0.0-114.0", "trial": 4, "time_elapsed": 672391, "serialpos": 14, "key_press": -1, "wordID": 848, "type": "PRES_VIS", "trial_index": 159}, "uniqueid": "MTK1812:37W3JXSD67FULPIIAD3YVINTI09YW1", "dateTime": 1516317613827}, {"current_trial": 160, "trialdata": {"rt": -1, "trial_type": "single-stim", "word": "nurse", "stimulus": "<p id=\"stim\">NURSE</p>", "conditions": [24, 800, "v", 24000], "internal_node_id": "0.0-115.0", "trial": 4, "time_elapsed": 674308, "serialpos": 15, "key_press": -1, "wordID": 962, "type": "PRES_VIS", "trial_index": 160}, "uniqueid": "MTK1812:37W3JXSD67FULPIIAD3YVINTI09YW1", "dateTime": 1516317615745}, {"current_trial": 161, "trialdata": {"rt": -1, "trial_type": "single-stim", "word": "cafe", "stimulus": "<p id=\"stim\">CAFE</p>", "conditions": [24, 800, "v", 24000], "internal_node_id": "0.0-116.0", "trial": 4, "time_elapsed": 676075, "serialpos": 16, "key_press": -1, "wordID": 215, "type": "PRES_VIS", "trial_index": 161}, "uniqueid": "MTK1812:37W3JXSD67FULPIIAD3YVINTI09YW1", "dateTime": 1516317617511}, {"current_trial": 162, "trialdata": {"rt": -1, "trial_type": "single-stim", "word": "vagrant", "stimulus": "<p id=\"stim\">VAGRANT</p>", "conditions": [24, 800, "v", 24000], "internal_node_id": "0.0-117.0", "trial": 4, "time_elapsed": 678045, "serialpos": 17, "key_press": -1, "wordID": 1543, "type": "PRES_VIS", "trial_index": 162}, "uniqueid": "MTK1812:37W3JXSD67FULPIIAD3YVINTI09YW1", "dateTime": 1516317619481}, {"current_trial": 163, "trialdata": {"rt": -1, "trial_type": "single-stim", "word": "banjo", "stimulus": "<p id=\"stim\">BANJO</p>", "conditions": [24, 800, "v", 24000], "internal_node_id": "0.0-118.0", "trial": 4, "time_elapsed": 679917, "serialpos": 18, "key_press": -1, "wordID": 81, "type": "PRES_VIS", "trial_index": 163}, "uniqueid": "MTK1812:37W3JXSD67FULPIIAD3YVINTI09YW1", "dateTime": 1516317621353}, {"current_trial": 164, "trialdata": {"rt": -1, "trial_type": "single-stim", "word": "carriage", "stimulus": "<p id=\"stim\">CARRIAGE</p>", "conditions": [24, 800, "v", 24000], "internal_node_id": "0.0-119.0", "trial": 4, "time_elapsed": 681597, "serialpos": 19, "key_press": -1, "wordID": 247, "type": "PRES_VIS", "trial_index": 164}, "uniqueid": "MTK1812:37W3JXSD67FULPIIAD3YVINTI09YW1", "dateTime": 1516317623034}, {"current_trial": 165, "trialdata": {"rt": -1, "trial_type": "single-stim", "word": "server", "stimulus": "<p id=\"stim\">SERVER</p>", "conditions": [24, 800, "v", 24000], "internal_node_id": "0.0-120.0", "trial": 4, "time_elapsed": 683410, "serialpos": 20, "key_press": -1, "wordID": 1271, "type": "PRES_VIS", "trial_index": 165}, "uniqueid": "MTK1812:37W3JXSD67FULPIIAD3YVINTI09YW1", "dateTime": 1516317624847}, {"current_trial": 166, "trialdata": {"rt": -1, "trial_type": "single-stim", "word": "hamper", "stimulus": "<p id=\"stim\">HAMPER</p>", "conditions": [24, 800, "v", 24000], "internal_node_id": "0.0-121.0", "trial": 4, "time_elapsed": 685052, "serialpos": 21, "key_press": -1, "wordID": 681, "type": "PRES_VIS", "trial_index": 166}, "uniqueid": "MTK1812:37W3JXSD67FULPIIAD3YVINTI09YW1", "dateTime": 1516317626489}, {"current_trial": 167, "trialdata": {"rt": -1, "trial_type": "single-stim", "word": "chauffeur", "stimulus": "<p id=\"stim\">CHAUFFEUR</p>", "conditions": [24, 800, "v", 24000], "internal_node_id": "0.0-122.0", "trial": 4, "time_elapsed": 686905, "serialpos": 22, "key_press": -1, "wordID": 282, "type": "PRES_VIS", "trial_index": 167}, "uniqueid": "MTK1812:37W3JXSD67FULPIIAD3YVINTI09YW1", "dateTime": 1516317628341}, {"current_trial": 168, "trialdata": {"rt": -1, "trial_type": "single-stim", "word": "snack", "stimulus": "<p id=\"stim\">SNACK</p>", "conditions": [24, 800, "v", 24000], "internal_node_id": "0.0-123.0", "trial": 4, "time_elapsed": 688839, "serialpos": 23, "key_press": -1, "wordID": 1330, "type": "PRES_VIS", "trial_index": 168}, "uniqueid": "MTK1812:37W3JXSD67FULPIIAD3YVINTI09YW1", "dateTime": 1516317630276}, {"current_trial": 169, "trialdata": {"rt": -1, "trial_type": "single-stim", "stimulus": "", "internal_node_id": "0.0-124.0-0.0", "time_elapsed": 691027, "key_press": -1, "type": "PRE_RECALL_DELAY", "trial_index": 169}, "uniqueid": "MTK1812:37W3JXSD67FULPIIAD3YVINTI09YW1", "dateTime": 1516317632464}, {"current_trial": 170, "trialdata": {"rt": -1000, "trial_type": "single-audio", "stimulus": "/static/audio/400Hz.wav", "internal_node_id": "0.0-125.0", "time_elapsed": 691532, "key_press": -1, "type": "PRE_RECALL_ALERT", "trial_index": 170}, "uniqueid": "MTK1812:37W3JXSD67FULPIIAD3YVINTI09YW1", "dateTime": 1516317632968}, {"current_trial": 171, "trialdata": {"rt": [2263, 4922, 10457, 12314, 13878, 17188, 19404, 23803, 27715, 32297, 33999, 42196, 45008, 48526], "recwords": ["snack", "playground", "plaster", "canal", "star", "theif", "crown", "handbag", "necklace", "banjo", "server", "tunnel", "canal", "nurse"], "key_times": [606, 714, 833, 968, 1338, 1477, 1582, 2263, 3329, 3412, 3486, 3757, 3940, 4102, 4241, 4370, 4564, 4730, 4922, 6399, 6415, 6513, 6624, 6840, 7177, 7307, 7415, 7523, 7637, 8101, 8173, 8975, 9111, 9560, 9694, 9784, 10457, 11420, 11532, 11698, 11878, 12013, 12314, 12698, 12887, 13037, 13148, 13878, 15353, 15439, 16563, 16663, 16902, 17188, 17770, 17946, 18297, 18420, 18590, 19404, 20921, 21004, 21112, 21195, 21942, 22140, 23430, 23803, 24578, 24703, 24874, 24985, 25156, 25521, 25633, 25943, 26081, 26206, 26331, 26933, 27203, 27292, 27408, 27525, 27715, 30205, 30355, 30563, 31330, 31686, 31911, 32013, 32297, 32690, 32842, 32967, 33397, 33537, 33626, 33999, 36519, 36700, 36864, 36975, 37474, 37650, 37777, 37913, 38069, 40773, 40948, 41181, 41294, 41493, 41839, 42196, 43541, 43753, 44226, 44378, 44513, 45008, 47596, 47708, 47830, 48110, 48206, 48526, 48543, 49489, 58035, 58099, 58234, 59135, 59293, 59423], "trial_type": "free-recall", "conditions": [24, 800, "v", 24000], "internal_node_id": "0.0-126.0-0.0", "key_presses": [83, 78, 65, 75, 8, 67, 75, 13, 80, 76, 65, 89, 71, 82, 79, 85, 78, 68, 13, 79, 80, 76, 65, 83, 8, 8, 8, 8, 8, 80, 76, 65, 83, 84, 69, 82, 13, 67, 65, 78, 65, 76, 13, 83, 84, 65, 82, 13, 84, 72, 69, 73, 70, 13, 67, 82, 79, 87, 78, 13, 72, 65, 78, 68, 66, 65, 71, 13, 78, 69, 67, 76, 65, 67, 69, 8, 8, 8, 8, 75, 76, 65, 67, 69, 13, 66, 65, 74, 8, 78, 74, 79, 13, 83, 69, 82, 86, 69, 82, 13, 83, 84, 65, 82, 8, 8, 8, 8, 8, 84, 85, 78, 78, 69, 76, 13, 67, 65, 78, 65, 76, 13, 78, 85, 82, 83, 69, 13, 220, 8, 83, 78, 65, 8, 8, 8], "trial": 4, "time_elapsed": 751545, "type": "FREE_RECALL", "trial_index": 171}, "uniqueid": "MTK1812:37W3JXSD67FULPIIAD3YVINTI09YW1", "dateTime": 1516317693000}, {"current_trial": 172, "trialdata": {"rt": 3074, "trial_type": "text", "internal_node_id": "0.0-127.0", "time_elapsed": 756643, "key_press": 32, "type": "INSTRUCTIONS", "trial_index": 172}, "uniqueid": "MTK1812:37W3JXSD67FULPIIAD3YVINTI09YW1", "dateTime": 1516317698079}, {"current_trial": 173, "trialdata": {"rt": [3122, 6254, 8540, 11130, 13352, 18026, 21026], "trial_type": "math-distractor", "key_times": [2748, 3018, 3122, 5792, 6143, 6254, 8033, 8449, 8540, 10798, 11004, 11130, 13091, 13352, 17798, 17917, 18026, 20721, 20951, 21026], "responses": ["15", "16", "17", "23", "8", "22", "24"], "num2": [8, 6, 4, 9, 3, 6, 9, 7], "num3": [1, 2, 7, 5, 4, 9, 9, 8], "conditions": [12, 800, "v", 24000], "internal_node_id": "0.0-128.0", "key_presses": [49, 53, 13, 49, 54, 13, 49, 55, 13, 50, 51, 13, 56, 13, 50, 50, 13, 50, 52, 13], "trial": 5, "time_elapsed": 782658, "type": "DISTRACTOR", "trial_index": 173, "num1": [6, 8, 6, 9, 1, 7, 6, 9]}, "uniqueid": "MTK1812:37W3JXSD67FULPIIAD3YVINTI09YW1", "dateTime": 1516317724095}, {"current_trial": 174, "trialdata": {"rt": -1, "trial_type": "single-stim", "stimulus": "<p id=\"stim\">10</p>", "internal_node_id": "0.0-129.0-0.0", "time_elapsed": 785664, "key_press": -1, "trial_index": 174}, "uniqueid": "MTK1812:37W3JXSD67FULPIIAD3YVINTI09YW1", "dateTime": 1516317727101}, {"current_trial": 175, "trialdata": {"rt": -1, "trial_type": "single-stim", "stimulus": "<p id=\"stim\">9</p>", "internal_node_id": "0.0-129.0-1.0", "time_elapsed": 786668, "key_press": -1, "trial_index": 175}, "uniqueid": "MTK1812:37W3JXSD67FULPIIAD3YVINTI09YW1", "dateTime": 1516317728104}, {"current_trial": 176, "trialdata": {"rt": -1, "trial_type": "single-stim", "stimulus": "<p id=\"stim\">8</p>", "internal_node_id": "0.0-129.0-2.0", "time_elapsed": 787672, "key_press": -1, "trial_index": 176}, "uniqueid": "MTK1812:37W3JXSD67FULPIIAD3YVINTI09YW1", "dateTime": 1516317729109}, {"current_trial": 177, "trialdata": {"rt": -1, "trial_type": "single-stim", "stimulus": "<p id=\"stim\">7</p>", "internal_node_id": "0.0-129.0-3.0", "time_elapsed": 788678, "key_press": -1, "trial_index": 177}, "uniqueid": "MTK1812:37W3JXSD67FULPIIAD3YVINTI09YW1", "dateTime": 1516317730115}, {"current_trial": 178, "trialdata": {"rt": -1, "trial_type": "single-stim", "stimulus": "<p id=\"stim\">6</p>", "internal_node_id": "0.0-129.0-4.0", "time_elapsed": 789684, "key_press": -1, "trial_index": 178}, "uniqueid": "MTK1812:37W3JXSD67FULPIIAD3YVINTI09YW1", "dateTime": 1516317731120}, {"current_trial": 179, "trialdata": {"rt": -1, "trial_type": "single-stim", "stimulus": "<p id=\"stim\">5</p>", "internal_node_id": "0.0-129.0-5.0", "time_elapsed": 790689, "key_press": -1, "trial_index": 179}, "uniqueid": "MTK1812:37W3JXSD67FULPIIAD3YVINTI09YW1", "dateTime": 1516317732126}, {"current_trial": 180, "trialdata": {"rt": -1, "trial_type": "single-stim", "stimulus": "<p id=\"stim\">4</p>", "internal_node_id": "0.0-129.0-6.0", "time_elapsed": 791695, "key_press": -1, "trial_index": 180}, "uniqueid": "MTK1812:37W3JXSD67FULPIIAD3YVINTI09YW1", "dateTime": 1516317733132}, {"current_trial": 181, "trialdata": {"rt": -1, "trial_type": "single-stim", "stimulus": "<p id=\"stim\">3</p>", "internal_node_id": "0.0-129.0-7.0", "time_elapsed": 792700, "key_press": -1, "trial_index": 181}, "uniqueid": "MTK1812:37W3JXSD67FULPIIAD3YVINTI09YW1", "dateTime": 1516317734136}, {"current_trial": 182, "trialdata": {"rt": -1, "trial_type": "single-stim", "stimulus": "<p id=\"stim\">2</p>", "internal_node_id": "0.0-129.0-8.0", "time_elapsed": 793705, "key_press": -1, "trial_index": 182}, "uniqueid": "MTK1812:37W3JXSD67FULPIIAD3YVINTI09YW1", "dateTime": 1516317735141}, {"current_trial": 183, "trialdata": {"rt": -1, "trial_type": "single-stim", "stimulus": "<p id=\"stim\">1</p>", "internal_node_id": "0.0-129.0-9.0", "time_elapsed": 794709, "key_press": -1, "trial_index": 183}, "uniqueid": "MTK1812:37W3JXSD67FULPIIAD3YVINTI09YW1", "dateTime": 1516317736145}, {"current_trial": 184, "trialdata": {"rt": -1, "trial_type": "single-stim", "stimulus": "<p id=\"stim\">+</p>", "internal_node_id": "0.0-130.0-0.0", "time_elapsed": 796216, "key_press": -1, "type": "FIXATION", "trial_index": 184}, "uniqueid": "MTK1812:37W3JXSD67FULPIIAD3YVINTI09YW1", "dateTime": 1516317737657}, {"current_trial": 185, "trialdata": {"rt": -1, "trial_type": "single-stim", "word": "marine", "stimulus": "<p id=\"stim\">MARINE</p>", "conditions": [12, 800, "v", 24000], "internal_node_id": "0.0-131.0", "trial": 5, "time_elapsed": 797027, "serialpos": 0, "key_press": -1, "wordID": 868, "type": "PRES_VIS", "trial_index": 185}, "uniqueid": "MTK1812:37W3JXSD67FULPIIAD3YVINTI09YW1", "dateTime": 1516317738463}, {"current_trial": 186, "trialdata": {"rt": -1, "trial_type": "single-stim", "word": "flask", "stimulus": "<p id=\"stim\">FLASK</p>", "conditions": [12, 800, "v", 24000], "internal_node_id": "0.0-132.0", "trial": 5, "time_elapsed": 798795, "serialpos": 1, "key_press": -1, "wordID": 575, "type": "PRES_VIS", "trial_index": 186}, "uniqueid": "MTK1812:37W3JXSD67FULPIIAD3YVINTI09YW1", "dateTime": 1516317740231}, {"current_trial": 187, "trialdata": {"rt": -1, "trial_type": "single-stim", "word": "beaker", "stimulus": "<p id=\"stim\">BEAKER</p>", "conditions": [12, 800, "v", 24000], "internal_node_id": "0.0-133.0", "trial": 5, "time_elapsed": 800744, "serialpos": 2, "key_press": -1, "wordID": 103, "type": "PRES_VIS", "trial_index": 187}, "uniqueid": "MTK1812:37W3JXSD67FULPIIAD3YVINTI09YW1", "dateTime": 1516317742181}, {"current_trial": 188, "trialdata": {"rt": -1, "trial_type": "single-stim", "word": "flower", "stimulus": "<p id=\"stim\">FLOWER</p>", "conditions": [12, 800, "v", 24000], "internal_node_id": "0.0-134.0", "trial": 5, "time_elapsed": 802448, "serialpos": 3, "key_press": -1, "wordID": 583, "type": "PRES_VIS", "trial_index": 188}, "uniqueid": "MTK1812:37W3JXSD67FULPIIAD3YVINTI09YW1", "dateTime": 1516317743885}, {"current_trial": 189, "trialdata": {"rt": -1, "trial_type": "single-stim", "word": "fleet", "stimulus": "<p id=\"stim\">FLEET</p>", "conditions": [12, 800, "v", 24000], "internal_node_id": "0.0-135.0", "trial": 5, "time_elapsed": 804380, "serialpos": 4, "key_press": -1, "wordID": 577, "type": "PRES_VIS", "trial_index": 189}, "uniqueid": "MTK1812:37W3JXSD67FULPIIAD3YVINTI09YW1", "dateTime": 1516317745816}, {"current_trial": 190, "trialdata": {"rt": -1, "trial_type": "single-stim", "word": "marrow", "stimulus": "<p id=\"stim\">MARROW</p>", "conditions": [12, 800, "v", 24000], "internal_node_id": "0.0-136.0", "trial": 5, "time_elapsed": 806062, "serialpos": 5, "key_press": -1, "wordID": 871, "type": "PRES_VIS", "trial_index": 190}, "uniqueid": "MTK1812:37W3JXSD67FULPIIAD3YVINTI09YW1", "dateTime": 1516317747498}, {"current_trial": 191, "trialdata": {"rt": -1, "trial_type": "single-stim", "word": "leader", "stimulus": "<p id=\"stim\">LEADER</p>", "conditions": [12, 800, "v", 24000], "internal_node_id": "0.0-137.0", "trial": 5, "time_elapsed": 807897, "serialpos": 6, "key_press": -1, "wordID": 806, "type": "PRES_VIS", "trial_index": 191}, "uniqueid": "MTK1812:37W3JXSD67FULPIIAD3YVINTI09YW1", "dateTime": 1516317749333}, {"current_trial": 192, "trialdata": {"rt": -1, "trial_type": "single-stim", "word": "goblin", "stimulus": "<p id=\"stim\">GOBLIN</p>", "conditions": [12, 800, "v", 24000], "internal_node_id": "0.0-138.0", "trial": 5, "time_elapsed": 809747, "serialpos": 7, "key_press": -1, "wordID": 644, "type": "PRES_VIS", "trial_index": 192}, "uniqueid": "MTK1812:37W3JXSD67FULPIIAD3YVINTI09YW1", "dateTime": 1516317751184}, {"current_trial": 193, "trialdata": {"rt": -1, "trial_type": "single-stim", "word": "wrench", "stimulus": "<p id=\"stim\">WRENCH</p>", "conditions": [12, 800, "v", 24000], "internal_node_id": "0.0-139.0", "trial": 5, "time_elapsed": 811477, "serialpos": 8, "key_press": -1, "wordID": 1624, "type": "PRES_VIS", "trial_index": 193}, "uniqueid": "MTK1812:37W3JXSD67FULPIIAD3YVINTI09YW1", "dateTime": 1516317752914}, {"current_trial": 194, "trialdata": {"rt": -1, "trial_type": "single-stim", "word": "twig", "stimulus": "<p id=\"stim\">TWIG</p>", "conditions": [12, 800, "v", 24000], "internal_node_id": "0.0-140.0", "trial": 5, "time_elapsed": 813107, "serialpos": 9, "key_press": -1, "wordID": 1526, "type": "PRES_VIS", "trial_index": 194}, "uniqueid": "MTK1812:37W3JXSD67FULPIIAD3YVINTI09YW1", "dateTime": 1516317754544}, {"current_trial": 195, "trialdata": {"rt": -1, "trial_type": "single-stim", "word": "girl", "stimulus": "<p id=\"stim\">GIRL</p>", "conditions": [12, 800, "v", 24000], "internal_node_id": "0.0-141.0", "trial": 5, "time_elapsed": 815095, "serialpos": 10, "key_press": -1, "wordID": 636, "type": "PRES_VIS", "trial_index": 195}, "uniqueid": "MTK1812:37W3JXSD67FULPIIAD3YVINTI09YW1", "dateTime": 1516317756532}, {"current_trial": 196, "trialdata": {"rt": -1, "trial_type": "single-stim", "word": "liver", "stimulus": "<p id=\"stim\">LIVER</p>", "conditions": [12, 800, "v", 24000], "internal_node_id": "0.0-142.0", "trial": 5, "time_elapsed": 817067, "serialpos": 11, "key_press": -1, "wordID": 832, "type": "PRES_VIS", "trial_index": 196}, "uniqueid": "MTK1812:37W3JXSD67FULPIIAD3YVINTI09YW1", "dateTime": 1516317758504}, {"current_trial": 197, "trialdata": {"rt": -1, "trial_type": "single-stim", "stimulus": "", "internal_node_id": "0.0-143.0-0.0", "time_elapsed": 819315, "key_press": -1, "type": "PRE_RECALL_DELAY", "trial_index": 197}, "uniqueid": "MTK1812:37W3JXSD67FULPIIAD3YVINTI09YW1", "dateTime": 1516317760752}, {"current_trial": 198, "trialdata": {"rt": -1000, "trial_type": "single-audio", "stimulus": "/static/audio/400Hz.wav", "internal_node_id": "0.0-144.0", "time_elapsed": 819821, "key_press": -1, "type": "PRE_RECALL_ALERT", "trial_index": 198}, "uniqueid": "MTK1812:37W3JXSD67FULPIIAD3YVINTI09YW1", "dateTime": 1516317761258}, {"current_trial": 199, "trialdata": {"rt": [1855, 3104, 4942, 7799, 10100, 12909, 18058, 20206, 22092, 32895], "recwords": ["liver", "girl", "goblin", "flower", "fleetr", "flash", "wrench", "twig", "marine", "flask"], "key_times": [615, 764, 890, 1386, 1519, 1646, 1775, 1855, 2512, 2616, 2721, 2846, 3104, 3744, 3881, 4142, 4237, 4371, 4550, 4942, 6661, 6746, 6916, 7386, 7580, 7692, 7799, 9332, 9431, 9628, 9745, 9898, 9914, 10100, 12030, 12120, 12178, 12287, 12574, 12909, 16500, 17068, 17155, 17413, 17577, 17682, 18058, 18645, 19012, 19210, 19457, 20206, 21044, 21176, 21320, 21396, 21584, 21689, 22092, 31577, 31677, 31796, 32092, 32444, 32895], "trial_type": "free-recall", "conditions": [12, 800, "v", 24000], "internal_node_id": "0.0-145.0-0.0", "key_presses": [76, 73, 67, 8, 86, 69, 82, 13, 71, 73, 82, 76, 13, 71, 79, 66, 76, 73, 78, 13, 70, 76, 79, 87, 69, 82, 13, 70, 76, 69, 69, 84, 82, 13, 70, 76, 65, 83, 72, 13, 87, 82, 69, 78, 67, 72, 13, 84, 87, 73, 71, 13, 77, 65, 82, 73, 78, 69, 13, 70, 76, 65, 83, 75, 13], "trial": 5, "time_elapsed": 879834, "type": "FREE_RECALL", "trial_index": 199}, "uniqueid": "MTK1812:37W3JXSD67FULPIIAD3YVINTI09YW1", "dateTime": 1516317821294}, {"current_trial": 200, "trialdata": {"rt": 957, "trial_type": "text", "internal_node_id": "0.0-146.0", "time_elapsed": 882818, "key_press": 32, "type": "INSTRUCTIONS", "trial_index": 200}, "uniqueid": "MTK1812:37W3JXSD67FULPIIAD3YVINTI09YW1", "dateTime": 1516317824255}, {"current_trial": 201, "trialdata": {"rt": [3078, 6835, 8977, 12945, 16347, 18588, 21136, 23395], "trial_type": "math-distractor", "key_times": [2679, 2763, 3078, 6602, 6728, 6835, 8594, 8796, 8977, 12428, 12760, 12945, 13015, 16002, 16123, 16347, 18247, 18434, 18588, 20462, 20914, 21136, 23233, 23395], "responses": ["18", "22", "13", "18", "10", "13", "17", "8"], "num2": [9, 4, 1, 8, 4, 8, 7, 5, 2], "num3": [4, 9, 9, 9, 5, 3, 9, 2, 9], "conditions": [24, 1600, "v", 24000], "internal_node_id": "0.0-147.0", "key_presses": [49, 56, 13, 50, 50, 13, 49, 51, 13, 49, 56, 13, 38, 49, 48, 13, 49, 51, 13, 49, 55, 13, 56, 13], "trial": 6, "time_elapsed": 908831, "type": "DISTRACTOR", "trial_index": 201, "num1": [5, 8, 3, 1, 1, 2, 1, 1, 1]}, "uniqueid": "MTK1812:37W3JXSD67FULPIIAD3YVINTI09YW1", "dateTime": 1516317850267}, {"current_trial": 202, "trialdata": {"rt": -1, "trial_type": "single-stim", "stimulus": "<p id=\"stim\">10</p>", "internal_node_id": "0.0-148.0-0.0", "time_elapsed": 911836, "key_press": -1, "trial_index": 202}, "uniqueid": "MTK1812:37W3JXSD67FULPIIAD3YVINTI09YW1", "dateTime": 1516317853272}, {"current_trial": 203, "trialdata": {"rt": -1, "trial_type": "single-stim", "stimulus": "<p id=\"stim\">9</p>", "internal_node_id": "0.0-148.0-1.0", "time_elapsed": 912840, "key_press": -1, "trial_index": 203}, "uniqueid": "MTK1812:37W3JXSD67FULPIIAD3YVINTI09YW1", "dateTime": 1516317854277}, {"current_trial": 204, "trialdata": {"rt": -1, "trial_type": "single-stim", "stimulus": "<p id=\"stim\">8</p>", "internal_node_id": "0.0-148.0-2.0", "time_elapsed": 913846, "key_press": -1, "trial_index": 204}, "uniqueid": "MTK1812:37W3JXSD67FULPIIAD3YVINTI09YW1", "dateTime": 1516317855282}, {"current_trial": 205, "trialdata": {"rt": -1, "trial_type": "single-stim", "stimulus": "<p id=\"stim\">7</p>", "internal_node_id": "0.0-148.0-3.0", "time_elapsed": 914850, "key_press": -1, "trial_index": 205}, "uniqueid": "MTK1812:37W3JXSD67FULPIIAD3YVINTI09YW1", "dateTime": 1516317856287}, {"current_trial": 206, "trialdata": {"rt": -1, "trial_type": "single-stim", "stimulus": "<p id=\"stim\">6</p>", "internal_node_id": "0.0-148.0-4.0", "time_elapsed": 915856, "key_press": -1, "trial_index": 206}, "uniqueid": "MTK1812:37W3JXSD67FULPIIAD3YVINTI09YW1", "dateTime": 1516317857292}, {"current_trial": 207, "trialdata": {"rt": -1, "trial_type": "single-stim", "stimulus": "<p id=\"stim\">5</p>", "internal_node_id": "0.0-148.0-5.0", "time_elapsed": 916860, "key_press": -1, "trial_index": 207}, "uniqueid": "MTK1812:37W3JXSD67FULPIIAD3YVINTI09YW1", "dateTime": 1516317858297}, {"current_trial": 208, "trialdata": {"rt": -1, "trial_type": "single-stim", "stimulus": "<p id=\"stim\">4</p>", "internal_node_id": "0.0-148.0-6.0", "time_elapsed": 917865, "key_press": -1, "trial_index": 208}, "uniqueid": "MTK1812:37W3JXSD67FULPIIAD3YVINTI09YW1", "dateTime": 1516317859302}, {"current_trial": 209, "trialdata": {"rt": -1, "trial_type": "single-stim", "stimulus": "<p id=\"stim\">3</p>", "internal_node_id": "0.0-148.0-7.0", "time_elapsed": 918871, "key_press": -1, "trial_index": 209}, "uniqueid": "MTK1812:37W3JXSD67FULPIIAD3YVINTI09YW1", "dateTime": 1516317860307}, {"current_trial": 210, "trialdata": {"rt": -1, "trial_type": "single-stim", "stimulus": "<p id=\"stim\">2</p>", "internal_node_id": "0.0-148.0-8.0", "time_elapsed": 919876, "key_press": -1, "trial_index": 210}, "uniqueid": "MTK1812:37W3JXSD67FULPIIAD3YVINTI09YW1", "dateTime": 1516317861312}, {"current_trial": 211, "trialdata": {"rt": -1, "trial_type": "single-stim", "stimulus": "<p id=\"stim\">1</p>", "internal_node_id": "0.0-148.0-9.0", "time_elapsed": 920881, "key_press": -1, "trial_index": 211}, "uniqueid": "MTK1812:37W3JXSD67FULPIIAD3YVINTI09YW1", "dateTime": 1516317862318}, {"current_trial": 212, "trialdata": {"rt": -1, "trial_type": "single-stim", "stimulus": "<p id=\"stim\">+</p>", "internal_node_id": "0.0-149.0-0.0", "time_elapsed": 922386, "key_press": -1, "type": "FIXATION", "trial_index": 212}, "uniqueid": "MTK1812:37W3JXSD67FULPIIAD3YVINTI09YW1", "dateTime": 1516317863822}, {"current_trial": 213, "trialdata": {"rt": -1, "trial_type": "single-stim", "word": "clam", "stimulus": "<p id=\"stim\">CLAM</p>", "conditions": [24, 1600, "v", 24000], "internal_node_id": "0.0-150.0", "trial": 6, "time_elapsed": 923993, "serialpos": 0, "key_press": -1, "wordID": 314, "type": "PRES_VIS", "trial_index": 213}, "uniqueid": "MTK1812:37W3JXSD67FULPIIAD3YVINTI09YW1", "dateTime": 1516317865429}, {"current_trial": 214, "trialdata": {"rt": -1, "trial_type": "single-stim", "word": "scallop", "stimulus": "<p id=\"stim\">SCALLOP</p>", "conditions": [24, 1600, "v", 24000], "internal_node_id": "0.0-151.0", "trial": 6, "time_elapsed": 926445, "serialpos": 1, "key_press": -1, "wordID": 1241, "type": "PRES_VIS", "trial_index": 214}, "uniqueid": "MTK1812:37W3JXSD67FULPIIAD3YVINTI09YW1", "dateTime": 1516317867887}, {"current_trial": 215, "trialdata": {"rt": -1, "trial_type": "single-stim", "word": "police", "stimulus": "<p id=\"stim\">POLICE</p>", "conditions": [24, 1600, "v", 24000], "internal_node_id": "0.0-152.0", "trial": 6, "time_elapsed": 929098, "serialpos": 2, "key_press": -1, "wordID": 1097, "type": "PRES_VIS", "trial_index": 215}, "uniqueid": "MTK1812:37W3JXSD67FULPIIAD3YVINTI09YW1", "dateTime": 1516317870535}, {"current_trial": 216, "trialdata": {"rt": -1, "trial_type": "single-stim", "word": "stomach", "stimulus": "<p id=\"stim\">STOMACH</p>", "conditions": [24, 1600, "v", 24000], "internal_node_id": "0.0-153.0", "trial": 6, "time_elapsed": 931804, "serialpos": 3, "key_press": -1, "wordID": 1383, "type": "PRES_VIS", "trial_index": 216}, "uniqueid": "MTK1812:37W3JXSD67FULPIIAD3YVINTI09YW1", "dateTime": 1516317873240}, {"current_trial": 217, "trialdata": {"rt": -1, "trial_type": "single-stim", "word": "tutu", "stimulus": "<p id=\"stim\">TUTU</p>", "conditions": [24, 1600, "v", 24000], "internal_node_id": "0.0-154.0", "trial": 6, "time_elapsed": 934301, "serialpos": 4, "key_press": -1, "wordID": 1523, "type": "PRES_VIS", "trial_index": 217}, "uniqueid": "MTK1812:37W3JXSD67FULPIIAD3YVINTI09YW1", "dateTime": 1516317875738}, {"current_trial": 218, "trialdata": {"rt": -1, "trial_type": "single-stim", "word": "country", "stimulus": "<p id=\"stim\">COUNTRY</p>", "conditions": [24, 1600, "v", 24000], "internal_node_id": "0.0-155.0", "trial": 6, "time_elapsed": 936751, "serialpos": 5, "key_press": -1, "wordID": 387, "type": "PRES_VIS", "trial_index": 218}, "uniqueid": "MTK1812:37W3JXSD67FULPIIAD3YVINTI09YW1", "dateTime": 1516317878187}, {"current_trial": 219, "trialdata": {"rt": -1, "trial_type": "single-stim", "word": "husband", "stimulus": "<p id=\"stim\">HUSBAND</p>", "conditions": [24, 1600, "v", 24000], "internal_node_id": "0.0-156.0", "trial": 6, "time_elapsed": 939419, "serialpos": 6, "key_press": -1, "wordID": 727, "type": "PRES_VIS", "trial_index": 219}, "uniqueid": "MTK1812:37W3JXSD67FULPIIAD3YVINTI09YW1", "dateTime": 1516317880856}, {"current_trial": 220, "trialdata": {"rt": -1, "trial_type": "single-stim", "word": "ulcer", "stimulus": "<p id=\"stim\">ULCER</p>", "conditions": [24, 1600, "v", 24000], "internal_node_id": "0.0-157.0", "trial": 6, "time_elapsed": 941883, "serialpos": 7, "key_press": -1, "wordID": 1532, "type": "PRES_VIS", "trial_index": 220}, "uniqueid": "MTK1812:37W3JXSD67FULPIIAD3YVINTI09YW1", "dateTime": 1516317883319}, {"current_trial": 221, "trialdata": {"rt": -1, "trial_type": "single-stim", "word": "patrol", "stimulus": "<p id=\"stim\">PATROL</p>", "conditions": [24, 1600, "v", 24000], "internal_node_id": "0.0-158.0", "trial": 6, "time_elapsed": 944566, "serialpos": 8, "key_press": -1, "wordID": 1026, "type": "PRES_VIS", "trial_index": 221}, "uniqueid": "MTK1812:37W3JXSD67FULPIIAD3YVINTI09YW1", "dateTime": 1516317886002}, {"current_trial": 222, "trialdata": {"rt": -1, "trial_type": "single-stim", "word": "dorm", "stimulus": "<p id=\"stim\">DORM</p>", "conditions": [24, 1600, "v", 24000], "internal_node_id": "0.0-159.0", "trial": 6, "time_elapsed": 947142, "serialpos": 9, "key_press": -1, "wordID": 487, "type": "PRES_VIS", "trial_index": 222}, "uniqueid": "MTK1812:37W3JXSD67FULPIIAD3YVINTI09YW1", "dateTime": 1516317888579}, {"current_trial": 223, "trialdata": {"rt": -1, "trial_type": "single-stim", "word": "oyster", "stimulus": "<p id=\"stim\">OYSTER</p>", "conditions": [24, 1600, "v", 24000], "internal_node_id": "0.0-160.0", "trial": 6, "time_elapsed": 949796, "serialpos": 10, "key_press": -1, "wordID": 994, "type": "PRES_VIS", "trial_index": 223}, "uniqueid": "MTK1812:37W3JXSD67FULPIIAD3YVINTI09YW1", "dateTime": 1516317891233}, {"current_trial": 224, "trialdata": {"rt": -1, "trial_type": "single-stim", "word": "stallion", "stimulus": "<p id=\"stim\">STALLION</p>", "conditions": [24, 1600, "v", 24000], "internal_node_id": "0.0-161.0", "trial": 6, "time_elapsed": 952599, "serialpos": 11, "key_press": -1, "wordID": 1368, "type": "PRES_VIS", "trial_index": 224}, "uniqueid": "MTK1812:37W3JXSD67FULPIIAD3YVINTI09YW1", "dateTime": 1516317894035}, {"current_trial": 225, "trialdata": {"rt": -1, "trial_type": "single-stim", "word": "whiskers", "stimulus": "<p id=\"stim\">WHISKERS</p>", "conditions": [24, 1600, "v", 24000], "internal_node_id": "0.0-162.0", "trial": 6, "time_elapsed": 955294, "serialpos": 12, "key_press": -1, "wordID": 1604, "type": "PRES_VIS", "trial_index": 225}, "uniqueid": "MTK1812:37W3JXSD67FULPIIAD3YVINTI09YW1", "dateTime": 1516317896731}, {"current_trial": 226, "trialdata": {"rt": -1, "trial_type": "single-stim", "word": "lizard", "stimulus": "<p id=\"stim\">LIZARD</p>", "conditions": [24, 1600, "v", 24000], "internal_node_id": "0.0-163.0", "trial": 6, "time_elapsed": 957726, "serialpos": 13, "key_press": -1, "wordID": 833, "type": "PRES_VIS", "trial_index": 226}, "uniqueid": "MTK1812:37W3JXSD67FULPIIAD3YVINTI09YW1", "dateTime": 1516317899163}, {"current_trial": 227, "trialdata": {"rt": -1, "trial_type": "single-stim", "word": "statue", "stimulus": "<p id=\"stim\">STATUE</p>", "conditions": [24, 1600, "v", 24000], "internal_node_id": "0.0-164.0", "trial": 6, "time_elapsed": 960315, "serialpos": 14, "key_press": -1, "wordID": 1373, "type": "PRES_VIS", "trial_index": 227}, "uniqueid": "MTK1812:37W3JXSD67FULPIIAD3YVINTI09YW1", "dateTime": 1516317901752}, {"current_trial": 228, "trialdata": {"rt": -1, "trial_type": "single-stim", "word": "sculpture", "stimulus": "<p id=\"stim\">SCULPTURE</p>", "conditions": [24, 1600, "v", 24000], "internal_node_id": "0.0-165.0", "trial": 6, "time_elapsed": 962880, "serialpos": 15, "key_press": -1, "wordID": 1257, "type": "PRES_VIS", "trial_index": 228}, "uniqueid": "MTK1812:37W3JXSD67FULPIIAD3YVINTI09YW1", "dateTime": 1516317904316}, {"current_trial": 229, "trialdata": {"rt": -1, "trial_type": "single-stim", "word": "suspect", "stimulus": "<p id=\"stim\">SUSPECT</p>", "conditions": [24, 1600, "v", 24000], "internal_node_id": "0.0-166.0", "trial": 6, "time_elapsed": 965614, "serialpos": 16, "key_press": -1, "wordID": 1414, "type": "PRES_VIS", "trial_index": 229}, "uniqueid": "MTK1812:37W3JXSD67FULPIIAD3YVINTI09YW1", "dateTime": 1516317907051}, {"current_trial": 230, "trialdata": {"rt": -1, "trial_type": "single-stim", "word": "brook", "stimulus": "<p id=\"stim\">BROOK</p>", "conditions": [24, 1600, "v", 24000], "internal_node_id": "0.0-167.0", "trial": 6, "time_elapsed": 968362, "serialpos": 17, "key_press": -1, "wordID": 176, "type": "PRES_VIS", "trial_index": 230}, "uniqueid": "MTK1812:37W3JXSD67FULPIIAD3YVINTI09YW1", "dateTime": 1516317909799}, {"current_trial": 231, "trialdata": {"rt": -1, "trial_type": "single-stim", "word": "rooster", "stimulus": "<p id=\"stim\">ROOSTER</p>", "conditions": [24, 1600, "v", 24000], "internal_node_id": "0.0-168.0", "trial": 6, "time_elapsed": 971049, "serialpos": 18, "key_press": -1, "wordID": 1208, "type": "PRES_VIS", "trial_index": 231}, "uniqueid": "MTK1812:37W3JXSD67FULPIIAD3YVINTI09YW1", "dateTime": 1516317912486}, {"current_trial": 232, "trialdata": {"rt": -1, "trial_type": "single-stim", "word": "leopard", "stimulus": "<p id=\"stim\">LEOPARD</p>", "conditions": [24, 1600, "v", 24000], "internal_node_id": "0.0-169.0", "trial": 6, "time_elapsed": 973552, "serialpos": 19, "key_press": -1, "wordID": 811, "type": "PRES_VIS", "trial_index": 232}, "uniqueid": "MTK1812:37W3JXSD67FULPIIAD3YVINTI09YW1", "dateTime": 1516317914989}, {"current_trial": 233, "trialdata": {"rt": -1, "trial_type": "single-stim", "word": "canyon", "stimulus": "<p id=\"stim\">CANYON</p>", "conditions": [24, 1600, "v", 24000], "internal_node_id": "0.0-170.0", "trial": 6, "time_elapsed": 976320, "serialpos": 20, "key_press": -1, "wordID": 234, "type": "PRES_VIS", "trial_index": 233}, "uniqueid": "MTK1812:37W3JXSD67FULPIIAD3YVINTI09YW1", "dateTime": 1516317917756}, {"current_trial": 234, "trialdata": {"rt": -1, "trial_type": "single-stim", "word": "mask", "stimulus": "<p id=\"stim\">MASK</p>", "conditions": [24, 1600, "v", 24000], "internal_node_id": "0.0-171.0", "trial": 6, "time_elapsed": 978850, "serialpos": 21, "key_press": -1, "wordID": 875, "type": "PRES_VIS", "trial_index": 234}, "uniqueid": "MTK1812:37W3JXSD67FULPIIAD3YVINTI09YW1", "dateTime": 1516317920286}, {"current_trial": 235, "trialdata": {"rt": -1, "trial_type": "single-stim", "word": "scissors", "stimulus": "<p id=\"stim\">SCISSORS</p>", "conditions": [24, 1600, "v", 24000], "internal_node_id": "0.0-172.0", "trial": 6, "time_elapsed": 981330, "serialpos": 22, "key_press": -1, "wordID": 1249, "type": "PRES_VIS", "trial_index": 235}, "uniqueid": "MTK1812:37W3JXSD67FULPIIAD3YVINTI09YW1", "dateTime": 1516317922767}, {"current_trial": 236, "trialdata": {"rt": -1, "trial_type": "single-stim", "word": "robber", "stimulus": "<p id=\"stim\">ROBBER</p>", "conditions": [24, 1600, "v", 24000], "internal_node_id": "0.0-173.0", "trial": 6, "time_elapsed": 983988, "serialpos": 23, "key_press": -1, "wordID": 1196, "type": "PRES_VIS", "trial_index": 236}, "uniqueid": "MTK1812:37W3JXSD67FULPIIAD3YVINTI09YW1", "dateTime": 1516317925424}, {"current_trial": 237, "trialdata": {"rt": -1, "trial_type": "single-stim", "stimulus": "", "internal_node_id": "0.0-174.0-0.0", "time_elapsed": 986406, "key_press": -1, "type": "PRE_RECALL_DELAY", "trial_index": 237}, "uniqueid": "MTK1812:37W3JXSD67FULPIIAD3YVINTI09YW1", "dateTime": 1516317927843}, {"current_trial": 238, "trialdata": {"rt": -1000, "trial_type": "single-audio", "stimulus": "/static/audio/400Hz.wav", "internal_node_id": "0.0-175.0", "time_elapsed": 986916, "key_press": -1, "type": "PRE_RECALL_ALERT", "trial_index": 238}, "uniqueid": "MTK1812:37W3JXSD67FULPIIAD3YVINTI09YW1", "dateTime": 1516317928353}, {"current_trial": 239, "trialdata": {"rt": [3424, 5338, 8103, 10410, 12660, 16799, 18563, 21507, 23525, 26692, 29374, 31067, 35120, 37625, 40931, 43430, 52673], "recwords": ["robber", "mask", "rooster", "police", "country", "husband", "dorm", "oyster", "clam", "scallop", "stomach", "tutu", "stallion", "lizard", "brook", "canyon", "ulcer"], "key_times": [266, 555, 1293, 1402, 1592, 1637, 1741, 2076, 2228, 2647, 2851, 2925, 3424, 4020, 4111, 4234, 4485, 5338, 6483, 6727, 6835, 6995, 7181, 7282, 7403, 8103, 9040, 9165, 9317, 9478, 9585, 9716, 10410, 11524, 11606, 11688, 11905, 12172, 12308, 12403, 12660, 13359, 13473, 14417, 15702, 15841, 15963, 16128, 16799, 17813, 17944, 18124, 18321, 18563, 19132, 19522, 19864, 20060, 20195, 20297, 21507, 22872, 22996, 23088, 23293, 23525, 23809, 23963, 24167, 25470, 25568, 25768, 25878, 26692, 27386, 27552, 27668, 27805, 27912, 28079, 28719, 29374, 30297, 30452, 30641, 30745, 31067, 32741, 32915, 33044, 33157, 33797, 34317, 34450, 34634, 34713, 34909, 35120, 35561, 35688, 36231, 36393, 36791, 36959, 37625, 39938, 40131, 40324, 40450, 40555, 40931, 41379, 41490, 41613, 41962, 42390, 42532, 43430, 49667, 49893, 50409, 50617, 50717, 52673], "trial_type": "free-recall", "conditions": [24, 1600, "v", 24000], "internal_node_id": "0.0-176.0-0.0", "key_presses": [82, 79, 66, 66, 82, 69, 84, 8, 8, 8, 69, 82, 13, 77, 65, 83, 75, 13, 82, 79, 79, 83, 84, 69, 82, 13, 80, 79, 76, 73, 67, 69, 13, 67, 79, 85, 78, 84, 82, 89, 13, 72, 85, 83, 66, 65, 78, 68, 13, 68, 79, 82, 77, 13, 79, 89, 83, 84, 69, 82, 13, 67, 76, 65, 77, 13, 83, 67, 65, 76, 76, 79, 80, 13, 83, 84, 79, 77, 65, 67, 72, 13, 84, 85, 84, 85, 13, 83, 84, 65, 82, 8, 76, 76, 73, 79, 78, 13, 76, 73, 90, 65, 82, 68, 13, 66, 82, 79, 79, 75, 13, 67, 65, 78, 89, 79, 78, 13, 85, 76, 67, 69, 82, 13], "trial": 6, "time_elapsed": 1046937, "type": "FREE_RECALL", "trial_index": 239}, "uniqueid": "MTK1812:37W3JXSD67FULPIIAD3YVINTI09YW1", "dateTime": 1516317988401}, {"current_trial": 240, "trialdata": {"rt": 955, "trial_type": "text", "internal_node_id": "0.0-177.0", "time_elapsed": 1049924, "key_press": 32, "type": "INSTRUCTIONS", "trial_index": 240}, "uniqueid": "MTK1812:37W3JXSD67FULPIIAD3YVINTI09YW1", "dateTime": 1516317991365}, {"current_trial": 241, "trialdata": {"rt": [2586, 4467, 6767, 10432], "trial_type": "math-distractor", "key_times": [2330, 2449, 2586, 4106, 4366, 4467, 6478, 6640, 6767, 10146, 10338, 10432], "responses": ["11", "14", "13", "25"], "num2": [1, 1, 8, 8, 7], "num3": [8, 5, 1, 8, 1], "conditions": [24, 800, "v", 12000], "internal_node_id": "0.0-178.0", "key_presses": [49, 49, 13, 49, 52, 13, 49, 51, 13, 50, 53, 13], "trial": 7, "time_elapsed": 1063945, "type": "DISTRACTOR", "trial_index": 241, "num1": [2, 8, 4, 9, 4]}, "uniqueid": "MTK1812:37W3JXSD67FULPIIAD3YVINTI09YW1", "dateTime": 1516318005381}, {"current_trial": 242, "trialdata": {"rt": -1, "trial_type": "single-stim", "stimulus": "<p id=\"stim\">10</p>", "internal_node_id": "0.0-179.0-0.0", "time_elapsed": 1066950, "key_press": -1, "trial_index": 242}, "uniqueid": "MTK1812:37W3JXSD67FULPIIAD3YVINTI09YW1", "dateTime": 1516318008386}, {"current_trial": 243, "trialdata": {"rt": -1, "trial_type": "single-stim", "stimulus": "<p id=\"stim\">9</p>", "internal_node_id": "0.0-179.0-1.0", "time_elapsed": 1067952, "key_press": -1, "trial_index": 243}, "uniqueid": "MTK1812:37W3JXSD67FULPIIAD3YVINTI09YW1", "dateTime": 1516318009388}, {"current_trial": 244, "trialdata": {"rt": -1, "trial_type": "single-stim", "stimulus": "<p id=\"stim\">8</p>", "internal_node_id": "0.0-179.0-2.0", "time_elapsed": 1068957, "key_press": -1, "trial_index": 244}, "uniqueid": "MTK1812:37W3JXSD67FULPIIAD3YVINTI09YW1", "dateTime": 1516318010393}, {"current_trial": 245, "trialdata": {"rt": -1, "trial_type": "single-stim", "stimulus": "<p id=\"stim\">7</p>", "internal_node_id": "0.0-179.0-3.0", "time_elapsed": 1069961, "key_press": -1, "trial_index": 245}, "uniqueid": "MTK1812:37W3JXSD67FULPIIAD3YVINTI09YW1", "dateTime": 1516318011397}, {"current_trial": 246, "trialdata": {"rt": -1, "trial_type": "single-stim", "stimulus": "<p id=\"stim\">6</p>", "internal_node_id": "0.0-179.0-4.0", "time_elapsed": 1070966, "key_press": -1, "trial_index": 246}, "uniqueid": "MTK1812:37W3JXSD67FULPIIAD3YVINTI09YW1", "dateTime": 1516318012403}, {"current_trial": 247, "trialdata": {"rt": -1, "trial_type": "single-stim", "stimulus": "<p id=\"stim\">5</p>", "internal_node_id": "0.0-179.0-5.0", "time_elapsed": 1071971, "key_press": -1, "trial_index": 247}, "uniqueid": "MTK1812:37W3JXSD67FULPIIAD3YVINTI09YW1", "date