{"condition": 0, "counterbalance": 1225, "assignmentId": "33CID571050DUS9VHE36WDA08FI3LM", "workerId": "MTK1219", "hitId": "3J6BHNX0U9Z7R6MTOV6I17Z79FYNKP", "currenttrial": 626, "bonus": 0, "data": [{"uniqueid": "MTK1219:33CID571050DUS9VHE36WDA08FI3LM", "current_trial": 0, "dateTime": 1513458472838, "trialdata": {"rt": 6389, "key_press": 32, "type": "INSTRUCTIONS", "trial_type": "text", "trial_index": 0, "time_elapsed": 6391, "internal_node_id": "0.0-0.0"}}, {"uniqueid": "MTK1219:33CID571050DUS9VHE36WDA08FI3LM", "current_trial": 1, "dateTime": 1513458503430, "trialdata": {"rt": 30590, "key_press": 32, "type": "INSTRUCTIONS", "trial_type": "text", "trial_index": 1, "time_elapsed": 36984, "internal_node_id": "0.0-1.0"}}, {"uniqueid": "MTK1219:33CID571050DUS9VHE36WDA08FI3LM", "current_trial": 2, "dateTime": 1513458515117, "trialdata": {"rt": [11658], "responses": ["ocean"], "type": "AUDIO_TEST", "trial_type": "audio-test", "trial_index": 2, "time_elapsed": 48671, "internal_node_id": "0.0-2.0"}}, {"uniqueid": "MTK1219:33CID571050DUS9VHE36WDA08FI3LM", "current_trial": 3, "dateTime": 1513458521398, "trialdata": {"rt": [6278], "responses": ["crystal"], "type": "AUDIO_TEST", "trial_type": "audio-test", "trial_index": 3, "time_elapsed": 54952, "internal_node_id": "0.0-3.0"}}, {"uniqueid": "MTK1219:33CID571050DUS9VHE36WDA08FI3LM", "current_trial": 4, "dateTime": 1513458529992, "trialdata": {"rt": [8590], "responses": ["spice"], "type": "AUDIO_TEST", "trial_type": "audio-test", "trial_index": 4, "time_elapsed": 63546, "internal_node_id": "0.0-4.0"}}, {"uniqueid": "MTK1219:33CID571050DUS9VHE36WDA08FI3LM", "current_trial": 5, "dateTime": 1513458586227, "trialdata": {"rt": 55482, "responses": "{\"Q0\":\"11:00 PM\",\"Q1\":\"7:00 AM\",\"Q2\":\"4\"}", "type": "SLEEP_SURVEY", "trial_type": "survey-text", "trial_index": 5, "time_elapsed": 119781, "internal_node_id": "0.0-5.0"}}, {"uniqueid": "MTK1219:33CID571050DUS9VHE36WDA08FI3LM", "current_trial": 6, "dateTime": 1513458645838, "trialdata": {"rt": 58609, "key_press": 32, "type": "INSTRUCTIONS", "trial_type": "text", "trial_index": 6, "time_elapsed": 179392, "internal_node_id": "0.0-6.0"}}, {"uniqueid": "MTK1219:33CID571050DUS9VHE36WDA08FI3LM", "current_trial": 7, "dateTime": 1513458661271, "trialdata": {"rt": 14931, "key_press": 32, "type": "INSTRUCTIONS", "trial_type": "text", "trial_index": 7, "time_elapsed": 194825, "internal_node_id": "0.0-7.0"}}, {"uniqueid": "MTK1219:33CID571050DUS9VHE36WDA08FI3LM", "current_trial": 8, "dateTime": 1513458665519, "trialdata": {"rt": 3747, "key_press": 32, "type": "INSTRUCTIONS", "trial_type": "text", "trial_index": 8, "time_elapsed": 199073, "internal_node_id": "0.0-8.0"}}, {"uniqueid": "MTK1219:33CID571050DUS9VHE36WDA08FI3LM", "current_trial": 9, "dateTime": 1513458684527, "trialdata": {"rt": [2467, 6550, 9286, 11125, 13531, 16142], "responses": ["11", "24", "23", "11", "16", "15"], "num1": [1, 8, 7, 4, 6, 4, 7], "num2": [5, 7, 7, 1, 7, 5, 5], "num3": [5, 9, 9, 6, 3, 6, 2], "type": "DISTRACTOR", "conditions": [18, 1200, "a", 18000], "trial": 0, "trial_type": "math-distractor", "trial_index": 9, "time_elapsed": 218081, "internal_node_id": "0.0-9.0"}}, {"uniqueid": "MTK1219:33CID571050DUS9VHE36WDA08FI3LM", "current_trial": 10, "dateTime": 1513458687530, "trialdata": {"rt": -1, "stimulus": "<p id=\"stim\">10</p>", "key_press": -1, "trial_type": "single-stim", "trial_index": 10, "time_elapsed": 221084, "internal_node_id": "0.0-10.0-0.0"}}, {"uniqueid": "MTK1219:33CID571050DUS9VHE36WDA08FI3LM", "current_trial": 11, "dateTime": 1513458688532, "trialdata": {"rt": -1, "stimulus": "<p id=\"stim\">9</p>", "key_press": -1, "trial_type": "single-stim", "trial_index": 11, "time_elapsed": 222086, "internal_node_id": "0.0-10.0-1.0"}}, {"uniqueid": "MTK1219:33CID571050DUS9VHE36WDA08FI3LM", "current_trial": 12, "dateTime": 1513458689534, "trialdata": {"rt": -1, "stimulus": "<p id=\"stim\">8</p>", "key_press": -1, "trial_type": "single-stim", "trial_index": 12, "time_elapsed": 223088, "internal_node_id": "0.0-10.0-2.0"}}, {"uniqueid": "MTK1219:33CID571050DUS9VHE36WDA08FI3LM", "current_trial": 13, "dateTime": 1513458690538, "trialdata": {"rt": -1, "stimulus": "<p id=\"stim\">7</p>", "key_press": -1, "trial_type": "single-stim", "trial_index": 13, "time_elapsed": 224092, "internal_node_id": "0.0-10.0-3.0"}}, {"uniqueid": "MTK1219:33CID571050DUS9VHE36WDA08FI3LM", "current_trial": 14, "dateTime": 1513458691540, "trialdata": {"rt": -1, "stimulus": "<p id=\"stim\">6</p>", "key_press": -1, "trial_type": "single-stim", "trial_index": 14, "time_elapsed": 225094, "internal_node_id": "0.0-10.0-4.0"}}, {"uniqueid": "MTK1219:33CID571050DUS9VHE36WDA08FI3LM", "current_trial": 15, "dateTime": 1513458692543, "trialdata": {"rt": -1, "stimulus": "<p id=\"stim\">5</p>", "key_press": -1, "trial_type": "single-stim", "trial_index": 15, "time_elapsed": 226096, "internal_node_id": "0.0-10.0-5.0"}}, {"uniqueid": "MTK1219:33CID571050DUS9VHE36WDA08FI3LM", "current_trial": 16, "dateTime": 1513458693546, "trialdata": {"rt": -1, "stimulus": "<p id=\"stim\">4</p>", "key_press": -1, "trial_type": "single-stim", "trial_index": 16, "time_elapsed": 227099, "internal_node_id": "0.0-10.0-6.0"}}, {"uniqueid": "MTK1219:33CID571050DUS9VHE36WDA08FI3LM", "current_trial": 17, "dateTime": 1513458694548, "trialdata": {"rt": -1, "stimulus": "<p id=\"stim\">3</p>", "key_press": -1, "trial_type": "single-stim", "trial_index": 17, "time_elapsed": 228102, "internal_node_id": "0.0-10.0-7.0"}}, {"uniqueid": "MTK1219:33CID571050DUS9VHE36WDA08FI3LM", "current_trial": 18, "dateTime": 1513458695551, "trialdata": {"rt": -1, "stimulus": "<p id=\"stim\">2</p>", "key_press": -1, "trial_type": "single-stim", "trial_index": 18, "time_elapsed": 229104, "internal_node_id": "0.0-10.0-8.0"}}, {"uniqueid": "MTK1219:33CID571050DUS9VHE36WDA08FI3LM", "current_trial": 19, "dateTime": 1513458696553, "trialdata": {"rt": -1, "stimulus": "<p id=\"stim\">1</p>", "key_press": -1, "trial_type": "single-stim", "trial_index": 19, "time_elapsed": 230107, "internal_node_id": "0.0-10.0-9.0"}}, {"uniqueid": "MTK1219:33CID571050DUS9VHE36WDA08FI3LM", "current_trial": 20, "dateTime": 1513458698057, "trialdata": {"rt": -1, "stimulus": "<p id=\"stim\">+</p>", "key_press": -1, "type": "FIXATION", "trial_type": "single-stim", "trial_index": 20, "time_elapsed": 231610, "internal_node_id": "0.0-11.0-0.0"}}, {"uniqueid": "MTK1219:33CID571050DUS9VHE36WDA08FI3LM", "current_trial": 21, "dateTime": 1513458700358, "trialdata": {"rt": -1000, "stimulus": "/static/audio/wordpool/THIEF.wav", "key_press": -1, "type": "PRES_AUD", "word": "thief", "wordID": 1455, "conditions": [18, 1200, "a", 18000], "trial": 0, "serialpos": 0, "trial_type": "single-audio", "trial_index": 21, "time_elapsed": 233912, "internal_node_id": "0.0-12.0"}}, {"uniqueid": "MTK1219:33CID571050DUS9VHE36WDA08FI3LM", "current_trial": 22, "dateTime": 1513458702709, "trialdata": {"rt": -1000, "stimulus": "/static/audio/wordpool/CROSS.wav", "key_press": -1, "type": "PRES_AUD", "word": "cross", "wordID": 412, "conditions": [18, 1200, "a", 18000], "trial": 0, "serialpos": 1, "trial_type": "single-audio", "trial_index": 22, "time_elapsed": 236262, "internal_node_id": "0.0-13.0"}}, {"uniqueid": "MTK1219:33CID571050DUS9VHE36WDA08FI3LM", "current_trial": 23, "dateTime": 1513458705057, "trialdata": {"rt": -1000, "stimulus": "/static/audio/wordpool/PADDING.wav", "key_press": -1, "type": "PRES_AUD", "word": "padding", "wordID": 998, "conditions": [18, 1200, "a", 18000], "trial": 0, "serialpos": 2, "trial_type": "single-audio", "trial_index": 23, "time_elapsed": 238611, "internal_node_id": "0.0-14.0"}}, {"uniqueid": "MTK1219:33CID571050DUS9VHE36WDA08FI3LM", "current_trial": 24, "dateTime": 1513458707437, "trialdata": {"rt": -1000, "stimulus": "/static/audio/wordpool/SKILLET.wav", "key_press": -1, "type": "PRES_AUD", "word": "skillet", "wordID": 1316, "conditions": [18, 1200, "a", 18000], "trial": 0, "serialpos": 3, "trial_type": "single-audio", "trial_index": 24, "time_elapsed": 240991, "internal_node_id": "0.0-15.0"}}, {"uniqueid": "MTK1219:33CID571050DUS9VHE36WDA08FI3LM", "current_trial": 25, "dateTime": 1513458709578, "trialdata": {"rt": -1000, "stimulus": "/static/audio/wordpool/SLIME.wav", "key_press": -1, "type": "PRES_AUD", "word": "slime", "wordID": 1326, "conditions": [18, 1200, "a", 18000], "trial": 0, "serialpos": 4, "trial_type": "single-audio", "trial_index": 25, "time_elapsed": 243132, "internal_node_id": "0.0-16.0"}}, {"uniqueid": "MTK1219:33CID571050DUS9VHE36WDA08FI3LM", "current_trial": 26, "dateTime": 1513458711942, "trialdata": {"rt": -1000, "stimulus": "/static/audio/wordpool/FLEET.wav", "key_press": -1, "type": "PRES_AUD", "word": "fleet", "wordID": 577, "conditions": [18, 1200, "a", 18000], "trial": 0, "serialpos": 5, "trial_type": "single-audio", "trial_index": 26, "time_elapsed": 245496, "internal_node_id": "0.0-17.0"}}, {"uniqueid": "MTK1219:33CID571050DUS9VHE36WDA08FI3LM", "current_trial": 27, "dateTime": 1513458714325, "trialdata": {"rt": -1000, "stimulus": "/static/audio/wordpool/VENUS.wav", "key_press": -1, "type": "PRES_AUD", "word": "venus", "wordID": 1556, "conditions": [18, 1200, "a", 18000], "trial": 0, "serialpos": 6, "trial_type": "single-audio", "trial_index": 27, "time_elapsed": 247879, "internal_node_id": "0.0-18.0"}}, {"uniqueid": "MTK1219:33CID571050DUS9VHE36WDA08FI3LM", "current_trial": 28, "dateTime": 1513458716632, "trialdata": {"rt": -1000, "stimulus": "/static/audio/wordpool/WIDOW.wav", "key_press": -1, "type": "PRES_AUD", "word": "widow", "wordID": 1607, "conditions": [18, 1200, "a", 18000], "trial": 0, "serialpos": 7, "trial_type": "single-audio", "trial_index": 28, "time_elapsed": 250186, "internal_node_id": "0.0-19.0"}}, {"uniqueid": "MTK1219:33CID571050DUS9VHE36WDA08FI3LM", "current_trial": 29, "dateTime": 1513458718815, "trialdata": {"rt": -1000, "stimulus": "/static/audio/wordpool/TWEEZERS.wav", "key_press": -1, "type": "PRES_AUD", "word": "tweezers", "wordID": 1525, "conditions": [18, 1200, "a", 18000], "trial": 0, "serialpos": 8, "trial_type": "single-audio", "trial_index": 29, "time_elapsed": 252369, "internal_node_id": "0.0-20.0"}}, {"uniqueid": "MTK1219:33CID571050DUS9VHE36WDA08FI3LM", "current_trial": 30, "dateTime": 1513458721103, "trialdata": {"rt": -1000, "stimulus": "/static/audio/wordpool/SCARECROW.wav", "key_press": -1, "type": "PRES_AUD", "word": "scarecrow", "wordID": 1244, "conditions": [18, 1200, "a", 18000], "trial": 0, "serialpos": 9, "trial_type": "single-audio", "trial_index": 30, "time_elapsed": 254657, "internal_node_id": "0.0-21.0"}}, {"uniqueid": "MTK1219:33CID571050DUS9VHE36WDA08FI3LM", "current_trial": 31, "dateTime": 1513458723208, "trialdata": {"rt": -1000, "stimulus": "/static/audio/wordpool/HIGHWAY.wav", "key_press": -1, "type": "PRES_AUD", "word": "highway", "wordID": 706, "conditions": [18, 1200, "a", 18000], "trial": 0, "serialpos": 10, "trial_type": "single-audio", "trial_index": 31, "time_elapsed": 256762, "internal_node_id": "0.0-22.0"}}, {"uniqueid": "MTK1219:33CID571050DUS9VHE36WDA08FI3LM", "current_trial": 32, "dateTime": 1513458725527, "trialdata": {"rt": -1000, "stimulus": "/static/audio/wordpool/FEMALE.wav", "key_press": -1, "type": "PRES_AUD", "word": "female", "wordID": 558, "conditions": [18, 1200, "a", 18000], "trial": 0, "serialpos": 11, "trial_type": "single-audio", "trial_index": 32, "time_elapsed": 259081, "internal_node_id": "0.0-23.0"}}, {"uniqueid": "MTK1219:33CID571050DUS9VHE36WDA08FI3LM", "current_trial": 33, "dateTime": 1513458727585, "trialdata": {"rt": -1000, "stimulus": "/static/audio/wordpool/EMPIRE.wav", "key_press": -1, "type": "PRES_AUD", "word": "empire", "wordID": 529, "conditions": [18, 1200, "a", 18000], "trial": 0, "serialpos": 12, "trial_type": "single-audio", "trial_index": 33, "time_elapsed": 261139, "internal_node_id": "0.0-24.0"}}, {"uniqueid": "MTK1219:33CID571050DUS9VHE36WDA08FI3LM", "current_trial": 34, "dateTime": 1513458729597, "trialdata": {"rt": -1000, "stimulus": "/static/audio/wordpool/SPOUSE.wav", "key_press": -1, "type": "PRES_AUD", "word": "spouse", "wordID": 1357, "conditions": [18, 1200, "a", 18000], "trial": 0, "serialpos": 13, "trial_type": "single-audio", "trial_index": 34, "time_elapsed": 263151, "internal_node_id": "0.0-25.0"}}, {"uniqueid": "MTK1219:33CID571050DUS9VHE36WDA08FI3LM", "current_trial": 35, "dateTime": 1513458731607, "trialdata": {"rt": -1000, "stimulus": "/static/audio/wordpool/UNCLE.wav", "key_press": -1, "type": "PRES_AUD", "word": "uncle", "wordID": 1535, "conditions": [18, 1200, "a", 18000], "trial": 0, "serialpos": 14, "trial_type": "single-audio", "trial_index": 35, "time_elapsed": 265161, "internal_node_id": "0.0-26.0"}}, {"uniqueid": "MTK1219:33CID571050DUS9VHE36WDA08FI3LM", "current_trial": 36, "dateTime": 1513458733818, "trialdata": {"rt": -1000, "stimulus": "/static/audio/wordpool/BRICK.wav", "key_press": -1, "type": "PRES_AUD", "word": "brick", "wordID": 171, "conditions": [18, 1200, "a", 18000], "trial": 0, "serialpos": 15, "trial_type": "single-audio", "trial_index": 36, "time_elapsed": 267372, "internal_node_id": "0.0-27.0"}}, {"uniqueid": "MTK1219:33CID571050DUS9VHE36WDA08FI3LM", "current_trial": 37, "dateTime": 1513458736107, "trialdata": {"rt": -1000, "stimulus": "/static/audio/wordpool/TORTOISE.wav", "key_press": -1, "type": "PRES_AUD", "word": "tortoise", "wordID": 1485, "conditions": [18, 1200, "a", 18000], "trial": 0, "serialpos": 16, "trial_type": "single-audio", "trial_index": 37, "time_elapsed": 269660, "internal_node_id": "0.0-28.0"}}, {"uniqueid": "MTK1219:33CID571050DUS9VHE36WDA08FI3LM", "current_trial": 38, "dateTime": 1513458738421, "trialdata": {"rt": -1000, "stimulus": "/static/audio/wordpool/TOASTER.wav", "key_press": -1, "type": "PRES_AUD", "word": "toaster", "wordID": 1471, "conditions": [18, 1200, "a", 18000], "trial": 0, "serialpos": 17, "trial_type": "single-audio", "trial_index": 38, "time_elapsed": 271975, "internal_node_id": "0.0-29.0"}}, {"uniqueid": "MTK1219:33CID571050DUS9VHE36WDA08FI3LM", "current_trial": 39, "dateTime": 1513458739717, "trialdata": {"rt": -1, "stimulus": "", "key_press": -1, "type": "PRE_RECALL_DELAY", "trial_type": "single-stim", "trial_index": 39, "time_elapsed": 273271, "internal_node_id": "0.0-30.0-0.0"}}, {"uniqueid": "MTK1219:33CID571050DUS9VHE36WDA08FI3LM", "current_trial": 40, "dateTime": 1513458740218, "trialdata": {"rt": -1000, "stimulus": "/static/audio/400Hz.wav", "key_press": -1, "type": "PRE_RECALL_ALERT", "trial_type": "single-audio", "trial_index": 40, "time_elapsed": 273772, "internal_node_id": "0.0-31.0"}}, {"uniqueid": "MTK1219:33CID571050DUS9VHE36WDA08FI3LM", "current_trial": 41, "dateTime": 1513458800225, "trialdata": {"rt": [4144, 6337, 7642, 9671, 11274, 12878, 14679, 22674, 29848, 48510], "recwords": ["scarecrow", "toaster", "uncle", "tortoise", "brick", "highway", "skillet", "widow", "thief", ""], "type": "FREE_RECALL", "conditions": [18, 1200, "a", 18000], "trial": 0, "trial_type": "free-recall", "trial_index": 41, "time_elapsed": 333777, "internal_node_id": "0.0-32.0-0.0"}}, {"uniqueid": "MTK1219:33CID571050DUS9VHE36WDA08FI3LM", "current_trial": 42, "dateTime": 1513458803737, "trialdata": {"rt": 1510, "key_press": 32, "type": "INSTRUCTIONS", "trial_type": "text", "trial_index": 42, "time_elapsed": 337291, "internal_node_id": "0.0-33.0"}}, {"uniqueid": "MTK1219:33CID571050DUS9VHE36WDA08FI3LM", "current_trial": 43, "dateTime": 1513458823743, "trialdata": {"rt": [1861, 3796, 5716, 7494, 9152, 11205, 13120, 15309, 17468], "responses": ["13", "17", "18", "15", "11", "17", "11", "16", "8"], "num1": [2, 7, 7, 3, 5, 5, 3, 3, 3, 3], "num2": [8, 2, 5, 3, 1, 3, 3, 5, 2, 4], "num3": [3, 8, 6, 9, 5, 9, 5, 8, 3, 5], "type": "DISTRACTOR", "conditions": [18, 1200, "v", 18000], "trial": 1, "trial_type": "math-distractor", "trial_index": 43, "time_elapsed": 357297, "internal_node_id": "0.0-34.0"}}, {"uniqueid": "MTK1219:33CID571050DUS9VHE36WDA08FI3LM", "current_trial": 44, "dateTime": 1513458826746, "trialdata": {"rt": -1, "stimulus": "<p id=\"stim\">10</p>", "key_press": -1, "trial_type": "single-stim", "trial_index": 44, "time_elapsed": 360300, "internal_node_id": "0.0-35.0-0.0"}}, {"uniqueid": "MTK1219:33CID571050DUS9VHE36WDA08FI3LM", "current_trial": 45, "dateTime": 1513458827749, "trialdata": {"rt": -1, "stimulus": "<p id=\"stim\">9</p>", "key_press": -1, "trial_type": "single-stim", "trial_index": 45, "time_elapsed": 361303, "internal_node_id": "0.0-35.0-1.0"}}, {"uniqueid": "MTK1219:33CID571050DUS9VHE36WDA08FI3LM", "current_trial": 46, "dateTime": 1513458828751, "trialdata": {"rt": -1, "stimulus": "<p id=\"stim\">8</p>", "key_press": -1, "trial_type": "single-stim", "trial_index": 46, "time_elapsed": 362304, "internal_node_id": "0.0-35.0-2.0"}}, {"uniqueid": "MTK1219:33CID571050DUS9VHE36WDA08FI3LM", "current_trial": 47, "dateTime": 1513458829752, "trialdata": {"rt": -1, "stimulus": "<p id=\"stim\">7</p>", "key_press": -1, "trial_type": "single-stim", "trial_index": 47, "time_elapsed": 363306, "internal_node_id": "0.0-35.0-3.0"}}, {"uniqueid": "MTK1219:33CID571050DUS9VHE36WDA08FI3LM", "current_trial": 48, "dateTime": 1513458830753, "trialdata": {"rt": -1, "stimulus": "<p id=\"stim\">6</p>", "key_press": -1, "trial_type": "single-stim", "trial_index": 48, "time_elapsed": 364307, "internal_node_id": "0.0-35.0-4.0"}}, {"uniqueid": "MTK1219:33CID571050DUS9VHE36WDA08FI3LM", "current_trial": 49, "dateTime": 1513458831755, "trialdata": {"rt": -1, "stimulus": "<p id=\"stim\">5</p>", "key_press": -1, "trial_type": "single-stim", "trial_index": 49, "time_elapsed": 365309, "internal_node_id": "0.0-35.0-5.0"}}, {"uniqueid": "MTK1219:33CID571050DUS9VHE36WDA08FI3LM", "current_trial": 50, "dateTime": 1513458832756, "trialdata": {"rt": -1, "stimulus": "<p id=\"stim\">4</p>", "key_press": -1, "trial_type": "single-stim", "trial_index": 50, "time_elapsed": 366310, "internal_node_id": "0.0-35.0-6.0"}}, {"uniqueid": "MTK1219:33CID571050DUS9VHE36WDA08FI3LM", "current_trial": 51, "dateTime": 1513458833759, "trialdata": {"rt": -1, "stimulus": "<p id=\"stim\">3</p>", "key_press": -1, "trial_type": "single-stim", "trial_index": 51, "time_elapsed": 367312, "internal_node_id": "0.0-35.0-7.0"}}, {"uniqueid": "MTK1219:33CID571050DUS9VHE36WDA08FI3LM", "current_trial": 52, "dateTime": 1513458834760, "trialdata": {"rt": -1, "stimulus": "<p id=\"stim\">2</p>", "key_press": -1, "trial_type": "single-stim", "trial_index": 52, "time_elapsed": 368314, "internal_node_id": "0.0-35.0-8.0"}}, {"uniqueid": "MTK1219:33CID571050DUS9VHE36WDA08FI3LM", "current_trial": 53, "dateTime": 1513458835761, "trialdata": {"rt": -1, "stimulus": "<p id=\"stim\">1</p>", "key_press": -1, "trial_type": "single-stim", "trial_index": 53, "time_elapsed": 369315, "internal_node_id": "0.0-35.0-9.0"}}, {"uniqueid": "MTK1219:33CID571050DUS9VHE36WDA08FI3LM", "current_trial": 54, "dateTime": 1513458837264, "trialdata": {"rt": -1, "stimulus": "<p id=\"stim\">+</p>", "key_press": -1, "type": "FIXATION", "trial_type": "single-stim", "trial_index": 54, "time_elapsed": 370818, "internal_node_id": "0.0-36.0-0.0"}}, {"uniqueid": "MTK1219:33CID571050DUS9VHE36WDA08FI3LM", "current_trial": 55, "dateTime": 1513458838465, "trialdata": {"rt": -1, "stimulus": "<p id=\"stim\">SCRIBBLE</p>", "key_press": -1, "type": "PRES_VIS", "word": "scribble", "wordID": 1255, "conditions": [18, 1200, "v", 18000], "trial": 1, "serialpos": 0, "trial_type": "single-stim", "trial_index": 55, "time_elapsed": 372019, "internal_node_id": "0.0-37.0"}}, {"uniqueid": "MTK1219:33CID571050DUS9VHE36WDA08FI3LM", "current_trial": 56, "dateTime": 1513458840484, "trialdata": {"rt": -1, "stimulus": "<p id=\"stim\">MARINE</p>", "key_press": -1, "type": "PRES_VIS", "word": "marine", "wordID": 868, "conditions": [18, 1200, "v", 18000], "trial": 1, "serialpos": 1, "trial_type": "single-stim", "trial_index": 56, "time_elapsed": 374038, "internal_node_id": "0.0-38.0"}}, {"uniqueid": "MTK1219:33CID571050DUS9VHE36WDA08FI3LM", "current_trial": 57, "dateTime": 1513458842710, "trialdata": {"rt": -1, "stimulus": "<p id=\"stim\">TEACHER</p>", "key_press": -1, "type": "PRES_VIS", "word": "teacher", "wordID": 1439, "conditions": [18, 1200, "v", 18000], "trial": 1, "serialpos": 2, "trial_type": "single-stim", "trial_index": 57, "time_elapsed": 376264, "internal_node_id": "0.0-39.0"}}, {"uniqueid": "MTK1219:33CID571050DUS9VHE36WDA08FI3LM", "current_trial": 58, "dateTime": 1513458844850, "trialdata": {"rt": -1, "stimulus": "<p id=\"stim\">CHAMPAGNE</p>", "key_press": -1, "type": "PRES_VIS", "word": "champagne", "wordID": 277, "conditions": [18, 1200, "v", 18000], "trial": 1, "serialpos": 3, "trial_type": "single-stim", "trial_index": 58, "time_elapsed": 378404, "internal_node_id": "0.0-40.0"}}, {"uniqueid": "MTK1219:33CID571050DUS9VHE36WDA08FI3LM", "current_trial": 59, "dateTime": 1513458846916, "trialdata": {"rt": -1, "stimulus": "<p id=\"stim\">PICNIC</p>", "key_press": -1, "type": "PRES_VIS", "word": "picnic", "wordID": 1059, "conditions": [18, 1200, "v", 18000], "trial": 1, "serialpos": 4, "trial_type": "single-stim", "trial_index": 59, "time_elapsed": 380470, "internal_node_id": "0.0-41.0"}}, {"uniqueid": "MTK1219:33CID571050DUS9VHE36WDA08FI3LM", "current_trial": 60, "dateTime": 1513458849170, "trialdata": {"rt": -1, "stimulus": "<p id=\"stim\">SHORTCAKE</p>", "key_press": -1, "type": "PRES_VIS", "word": "shortcake", "wordID": 1291, "conditions": [18, 1200, "v", 18000], "trial": 1, "serialpos": 5, "trial_type": "single-stim", "trial_index": 60, "time_elapsed": 382723, "internal_node_id": "0.0-42.0"}}, {"uniqueid": "MTK1219:33CID571050DUS9VHE36WDA08FI3LM", "current_trial": 61, "dateTime": 1513458851454, "trialdata": {"rt": -1, "stimulus": "<p id=\"stim\">AGENT</p>", "key_press": -1, "type": "PRES_VIS", "word": "agent", "wordID": 9, "conditions": [18, 1200, "v", 18000], "trial": 1, "serialpos": 6, "trial_type": "single-stim", "trial_index": 61, "time_elapsed": 385008, "internal_node_id": "0.0-43.0"}}, {"uniqueid": "MTK1219:33CID571050DUS9VHE36WDA08FI3LM", "current_trial": 62, "dateTime": 1513458853552, "trialdata": {"rt": -1, "stimulus": "<p id=\"stim\">DENIM</p>", "key_press": -1, "type": "PRES_VIS", "word": "denim", "wordID": 445, "conditions": [18, 1200, "v", 18000], "trial": 1, "serialpos": 7, "trial_type": "single-stim", "trial_index": 62, "time_elapsed": 387106, "internal_node_id": "0.0-44.0"}}, {"uniqueid": "MTK1219:33CID571050DUS9VHE36WDA08FI3LM", "current_trial": 63, "dateTime": 1513458855817, "trialdata": {"rt": -1, "stimulus": "<p id=\"stim\">MUFFIN</p>", "key_press": -1, "type": "PRES_VIS", "word": "muffin", "wordID": 928, "conditions": [18, 1200, "v", 18000], "trial": 1, "serialpos": 8, "trial_type": "single-stim", "trial_index": 63, "time_elapsed": 389371, "internal_node_id": "0.0-45.0"}}, {"uniqueid": "MTK1219:33CID571050DUS9VHE36WDA08FI3LM", "current_trial": 64, "dateTime": 1513458857902, "trialdata": {"rt": -1, "stimulus": "<p id=\"stim\">TEMPLE</p>", "key_press": -1, "type": "PRES_VIS", "word": "temple", "wordID": 1447, "conditions": [18, 1200, "v", 18000], "trial": 1, "serialpos": 9, "trial_type": "single-stim", "trial_index": 64, "time_elapsed": 391456, "internal_node_id": "0.0-46.0"}}, {"uniqueid": "MTK1219:33CID571050DUS9VHE36WDA08FI3LM", "current_trial": 65, "dateTime": 1513458859920, "trialdata": {"rt": -1, "stimulus": "<p id=\"stim\">MAILMAN</p>", "key_press": -1, "type": "PRES_VIS", "word": "mailman", "wordID": 857, "conditions": [18, 1200, "v", 18000], "trial": 1, "serialpos": 10, "trial_type": "single-stim", "trial_index": 65, "time_elapsed": 393474, "internal_node_id": "0.0-47.0"}}, {"uniqueid": "MTK1219:33CID571050DUS9VHE36WDA08FI3LM", "current_trial": 66, "dateTime": 1513458862222, "trialdata": {"rt": -1, "stimulus": "<p id=\"stim\">PASSAGE</p>", "key_press": -1, "type": "PRES_VIS", "word": "passage", "wordID": 1018, "conditions": [18, 1200, "v", 18000], "trial": 1, "serialpos": 11, "trial_type": "single-stim", "trial_index": 66, "time_elapsed": 395775, "internal_node_id": "0.0-48.0"}}, {"uniqueid": "MTK1219:33CID571050DUS9VHE36WDA08FI3LM", "current_trial": 67, "dateTime": 1513458864609, "trialdata": {"rt": -1, "stimulus": "<p id=\"stim\">POWDER</p>", "key_press": -1, "type": "PRES_VIS", "word": "powder", "wordID": 1116, "conditions": [18, 1200, "v", 18000], "trial": 1, "serialpos": 12, "trial_type": "single-stim", "trial_index": 67, "time_elapsed": 398163, "internal_node_id": "0.0-49.0"}}, {"uniqueid": "MTK1219:33CID571050DUS9VHE36WDA08FI3LM", "current_trial": 68, "dateTime": 1513458866809, "trialdata": {"rt": -1, "stimulus": "<p id=\"stim\">SNACK</p>", "key_press": -1, "type": "PRES_VIS", "word": "snack", "wordID": 1330, "conditions": [18, 1200, "v", 18000], "trial": 1, "serialpos": 13, "trial_type": "single-stim", "trial_index": 68, "time_elapsed": 400359, "internal_node_id": "0.0-50.0"}}, {"uniqueid": "MTK1219:33CID571050DUS9VHE36WDA08FI3LM", "current_trial": 69, "dateTime": 1513458869073, "trialdata": {"rt": -1, "stimulus": "<p id=\"stim\">AIRPORT</p>", "key_press": -1, "type": "PRES_VIS", "word": "airport", "wordID": 12, "conditions": [18, 1200, "v", 18000], "trial": 1, "serialpos": 14, "trial_type": "single-stim", "trial_index": 69, "time_elapsed": 402627, "internal_node_id": "0.0-51.0"}}, {"uniqueid": "MTK1219:33CID571050DUS9VHE36WDA08FI3LM", "current_trial": 70, "dateTime": 1513458871272, "trialdata": {"rt": -1, "stimulus": "<p id=\"stim\">TART</p>", "key_press": -1, "type": "PRES_VIS", "word": "tart", "wordID": 1435, "conditions": [18, 1200, "v", 18000], "trial": 1, "serialpos": 15, "trial_type": "single-stim", "trial_index": 70, "time_elapsed": 404826, "internal_node_id": "0.0-52.0"}}, {"uniqueid": "MTK1219:33CID571050DUS9VHE36WDA08FI3LM", "current_trial": 71, "dateTime": 1513458873366, "trialdata": {"rt": -1, "stimulus": "<p id=\"stim\">PIGEON</p>", "key_press": -1, "type": "PRES_VIS", "word": "pigeon", "wordID": 1064, "conditions": [18, 1200, "v", 18000], "trial": 1, "serialpos": 16, "trial_type": "single-stim", "trial_index": 71, "time_elapsed": 406919, "internal_node_id": "0.0-53.0"}}, {"uniqueid": "MTK1219:33CID571050DUS9VHE36WDA08FI3LM", "current_trial": 72, "dateTime": 1513458875730, "trialdata": {"rt": -1, "stimulus": "<p id=\"stim\">UMPIRE</p>", "key_press": -1, "type": "PRES_VIS", "word": "umpire", "wordID": 1534, "conditions": [18, 1200, "v", 18000], "trial": 1, "serialpos": 17, "trial_type": "single-stim", "trial_index": 72, "time_elapsed": 409284, "internal_node_id": "0.0-54.0"}}, {"uniqueid": "MTK1219:33CID571050DUS9VHE36WDA08FI3LM", "current_trial": 73, "dateTime": 1513458878151, "trialdata": {"rt": -1, "stimulus": "", "key_press": -1, "type": "PRE_RECALL_DELAY", "trial_type": "single-stim", "trial_index": 73, "time_elapsed": 411705, "internal_node_id": "0.0-55.0-0.0"}}, {"uniqueid": "MTK1219:33CID571050DUS9VHE36WDA08FI3LM", "current_trial": 74, "dateTime": 1513458878652, "trialdata": {"rt": -1000, "stimulus": "/static/audio/400Hz.wav", "key_press": -1, "type": "PRE_RECALL_ALERT", "trial_type": "single-audio", "trial_index": 74, "time_elapsed": 412206, "internal_node_id": "0.0-56.0"}}, {"uniqueid": "MTK1219:33CID571050DUS9VHE36WDA08FI3LM", "current_trial": 75, "dateTime": 1513458938658, "trialdata": {"rt": [2357, 4044, 5399, 6678, 7978, 10113, 14287, 20360, 28404, 31251, 59634], "recwords": ["agent", "marine", "umpire", "airport", "tart", "shortcake", "mailman", "passage", "pigeon", "champagne", "picnic"], "type": "FREE_RECALL", "conditions": [18, 1200, "v", 18000], "trial": 1, "trial_type": "free-recall", "trial_index": 75, "time_elapsed": 472209, "internal_node_id": "0.0-57.0-0.0"}}, {"uniqueid": "MTK1219:33CID571050DUS9VHE36WDA08FI3LM", "current_trial": 76, "dateTime": 1513458942141, "trialdata": {"rt": 1478, "key_press": 32, "type": "INSTRUCTIONS", "trial_type": "text", "trial_index": 76, "time_elapsed": 475692, "internal_node_id": "0.0-58.0"}}, {"uniqueid": "MTK1219:33CID571050DUS9VHE36WDA08FI3LM", "current_trial": 77, "dateTime": 1513458955144, "trialdata": {"rt": [2355, 4418, 5877, 7677, 9163, 11494], "responses": ["16", "15", "12", "15", "12", "12"], "num1": [3, 6, 2, 7, 3, 3, 7], "num2": [7, 5, 4, 5, 6, 3, 3], "num3": [6, 4, 6, 3, 3, 6, 7], "type": "DISTRACTOR", "conditions": [24, 800, "a", 12000], "trial": 2, "trial_type": "math-distractor", "trial_index": 77, "time_elapsed": 488698, "internal_node_id": "0.0-59.0"}}, {"uniqueid": "MTK1219:33CID571050DUS9VHE36WDA08FI3LM", "current_trial": 78, "dateTime": 1513458958146, "trialdata": {"rt": -1, "stimulus": "<p id=\"stim\">10</p>", "key_press": -1, "trial_type": "single-stim", "trial_index": 78, "time_elapsed": 491700, "internal_node_id": "0.0-60.0-0.0"}}, {"uniqueid": "MTK1219:33CID571050DUS9VHE36WDA08FI3LM", "current_trial": 79, "dateTime": 1513458959148, "trialdata": {"rt": -1, "stimulus": "<p id=\"stim\">9</p>", "key_press": -1, "trial_type": "single-stim", "trial_index": 79, "time_elapsed": 492702, "internal_node_id": "0.0-60.0-1.0"}}, {"uniqueid": "MTK1219:33CID571050DUS9VHE36WDA08FI3LM", "current_trial": 80, "dateTime": 1513458960150, "trialdata": {"rt": -1, "stimulus": "<p id=\"stim\">8</p>", "key_press": -1, "trial_type": "single-stim", "trial_index": 80, "time_elapsed": 493704, "internal_node_id": "0.0-60.0-2.0"}}, {"uniqueid": "MTK1219:33CID571050DUS9VHE36WDA08FI3LM", "current_trial": 81, "dateTime": 1513458961151, "trialdata": {"rt": -1, "stimulus": "<p id=\"stim\">7</p>", "key_press": -1, "trial_type": "single-stim", "trial_index": 81, "time_elapsed": 494705, "internal_node_id": "0.0-60.0-3.0"}}, {"uniqueid": "MTK1219:33CID571050DUS9VHE36WDA08FI3LM", "current_trial": 82, "dateTime": 1513458962152, "trialdata": {"rt": -1, "stimulus": "<p id=\"stim\">6</p>", "key_press": -1, "trial_type": "single-stim", "trial_index": 82, "time_elapsed": 495706, "internal_node_id": "0.0-60.0-4.0"}}, {"uniqueid": "MTK1219:33CID571050DUS9VHE36WDA08FI3LM", "current_trial": 83, "dateTime": 1513458963153, "trialdata": {"rt": -1, "stimulus": "<p id=\"stim\">5</p>", "key_press": -1, "trial_type": "single-stim", "trial_index": 83, "time_elapsed": 496707, "internal_node_id": "0.0-60.0-5.0"}}, {"uniqueid": "MTK1219:33CID571050DUS9VHE36WDA08FI3LM", "current_trial": 84, "dateTime": 1513458964154, "trialdata": {"rt": -1, "stimulus": "<p id=\"stim\">4</p>", "key_press": -1, "trial_type": "single-stim", "trial_index": 84, "time_elapsed": 497708, "internal_node_id": "0.0-60.0-6.0"}}, {"uniqueid": "MTK1219:33CID571050DUS9VHE36WDA08FI3LM", "current_trial": 85, "dateTime": 1513458965156, "trialdata": {"rt": -1, "stimulus": "<p id=\"stim\">3</p>", "key_press": -1, "trial_type": "single-stim", "trial_index": 85, "time_elapsed": 498710, "internal_node_id": "0.0-60.0-7.0"}}, {"uniqueid": "MTK1219:33CID571050DUS9VHE36WDA08FI3LM", "current_trial": 86, "dateTime": 1513458966158, "trialdata": {"rt": -1, "stimulus": "<p id=\"stim\">2</p>", "key_press": -1, "trial_type": "single-stim", "trial_index": 86, "time_elapsed": 499712, "internal_node_id": "0.0-60.0-8.0"}}, {"uniqueid": "MTK1219:33CID571050DUS9VHE36WDA08FI3LM", "current_trial": 87, "dateTime": 1513458967158, "trialdata": {"rt": -1, "stimulus": "<p id=\"stim\">1</p>", "key_press": -1, "trial_type": "single-stim", "trial_index": 87, "time_elapsed": 500712, "internal_node_id": "0.0-60.0-9.0"}}, {"uniqueid": "MTK1219:33CID571050DUS9VHE36WDA08FI3LM", "current_trial": 88, "dateTime": 1513458968660, "trialdata": {"rt": -1, "stimulus": "<p id=\"stim\">+</p>", "key_press": -1, "type": "FIXATION", "trial_type": "single-stim", "trial_index": 88, "time_elapsed": 502213, "internal_node_id": "0.0-61.0-0.0"}}, {"uniqueid": "MTK1219:33CID571050DUS9VHE36WDA08FI3LM", "current_trial": 89, "dateTime": 1513458970628, "trialdata": {"rt": -1000, "stimulus": "/static/audio/wordpool/PISTON.wav", "key_press": -1, "type": "PRES_AUD", "word": "piston", "wordID": 1075, "conditions": [24, 800, "a", 12000], "trial": 2, "serialpos": 0, "trial_type": "single-audio", "trial_index": 89, "time_elapsed": 504182, "internal_node_id": "0.0-62.0"}}, {"uniqueid": "MTK1219:33CID571050DUS9VHE36WDA08FI3LM", "current_trial": 90, "dateTime": 1513458972232, "trialdata": {"rt": -1000, "stimulus": "/static/audio/wordpool/MISSILE.wav", "key_press": -1, "type": "PRES_AUD", "word": "missile", "wordID": 899, "conditions": [24, 800, "a", 12000], "trial": 2, "serialpos": 1, "trial_type": "single-audio", "trial_index": 90, "time_elapsed": 505786, "internal_node_id": "0.0-63.0"}}, {"uniqueid": "MTK1219:33CID571050DUS9VHE36WDA08FI3LM", "current_trial": 91, "dateTime": 1513458974021, "trialdata": {"rt": -1000, "stimulus": "/static/audio/wordpool/DRINK.wav", "key_press": -1, "type": "PRES_AUD", "word": "drink", "wordID": 497, "conditions": [24, 800, "a", 12000], "trial": 2, "serialpos": 2, "trial_type": "single-audio", "trial_index": 91, "time_elapsed": 507575, "internal_node_id": "0.0-64.0"}}, {"uniqueid": "MTK1219:33CID571050DUS9VHE36WDA08FI3LM", "current_trial": 92, "dateTime": 1513458975742, "trialdata": {"rt": -1000, "stimulus": "/static/audio/wordpool/COMPASS.wav", "key_press": -1, "type": "PRES_AUD", "word": "compass", "wordID": 357, "conditions": [24, 800, "a", 12000], "trial": 2, "serialpos": 3, "trial_type": "single-audio", "trial_index": 92, "time_elapsed": 509295, "internal_node_id": "0.0-65.0"}}, {"uniqueid": "MTK1219:33CID571050DUS9VHE36WDA08FI3LM", "current_trial": 93, "dateTime": 1513458977682, "trialdata": {"rt": -1000, "stimulus": "/static/audio/wordpool/RAZOR.wav", "key_press": -1, "type": "PRES_AUD", "word": "razor", "wordID": 1170, "conditions": [24, 800, "a", 12000], "trial": 2, "serialpos": 4, "trial_type": "single-audio", "trial_index": 93, "time_elapsed": 511236, "internal_node_id": "0.0-66.0"}}, {"uniqueid": "MTK1219:33CID571050DUS9VHE36WDA08FI3LM", "current_trial": 94, "dateTime": 1513458979360, "trialdata": {"rt": -1000, "stimulus": "/static/audio/wordpool/BLADE.wav", "key_press": -1, "type": "PRES_AUD", "word": "blade", "wordID": 133, "conditions": [24, 800, "a", 12000], "trial": 2, "serialpos": 5, "trial_type": "single-audio", "trial_index": 94, "time_elapsed": 512914, "internal_node_id": "0.0-67.0"}}, {"uniqueid": "MTK1219:33CID571050DUS9VHE36WDA08FI3LM", "current_trial": 95, "dateTime": 1513458981349, "trialdata": {"rt": -1000, "stimulus": "/static/audio/wordpool/STAPLE.wav", "key_press": -1, "type": "PRES_AUD", "word": "staple", "wordID": 1370, "conditions": [24, 800, "a", 12000], "trial": 2, "serialpos": 6, "trial_type": "single-audio", "trial_index": 95, "time_elapsed": 514903, "internal_node_id": "0.0-68.0"}}, {"uniqueid": "MTK1219:33CID571050DUS9VHE36WDA08FI3LM", "current_trial": 96, "dateTime": 1513458983227, "trialdata": {"rt": -1000, "stimulus": "/static/audio/wordpool/SALMON.wav", "key_press": -1, "type": "PRES_AUD", "word": "salmon", "wordID": 1226, "conditions": [24, 800, "a", 12000], "trial": 2, "serialpos": 7, "trial_type": "single-audio", "trial_index": 96, "time_elapsed": 516780, "internal_node_id": "0.0-69.0"}}, {"uniqueid": "MTK1219:33CID571050DUS9VHE36WDA08FI3LM", "current_trial": 97, "dateTime": 1513458984923, "trialdata": {"rt": -1000, "stimulus": "/static/audio/wordpool/PERMIT.wav", "key_press": -1, "type": "PRES_AUD", "word": "permit", "wordID": 1050, "conditions": [24, 800, "a", 12000], "trial": 2, "serialpos": 8, "trial_type": "single-audio", "trial_index": 97, "time_elapsed": 518477, "internal_node_id": "0.0-70.0"}}, {"uniqueid": "MTK1219:33CID571050DUS9VHE36WDA08FI3LM", "current_trial": 98, "dateTime": 1513458986740, "trialdata": {"rt": -1000, "stimulus": "/static/audio/wordpool/GRAVEL.wav", "key_press": -1, "type": "PRES_AUD", "word": "gravel", "wordID": 658, "conditions": [24, 800, "a", 12000], "trial": 2, "serialpos": 9, "trial_type": "single-audio", "trial_index": 98, "time_elapsed": 520294, "internal_node_id": "0.0-71.0"}}, {"uniqueid": "MTK1219:33CID571050DUS9VHE36WDA08FI3LM", "current_trial": 99, "dateTime": 1513458988473, "trialdata": {"rt": -1000, "stimulus": "/static/audio/wordpool/TROUT.wav", "key_press": -1, "type": "PRES_AUD", "word": "trout", "wordID": 1510, "conditions": [24, 800, "a", 12000], "trial": 2, "serialpos": 10, "trial_type": "single-audio", "trial_index": 99, "time_elapsed": 522027, "internal_node_id": "0.0-72.0"}}, {"uniqueid": "MTK1219:33CID571050DUS9VHE36WDA08FI3LM", "current_trial": 100, "dateTime": 1513458990264, "trialdata": {"rt": -1000, "stimulus": "/static/audio/wordpool/KNIFE.wav", "key_press": -1, "type": "PRES_AUD", "word": "knife", "wordID": 784, "conditions": [24, 800, "a", 12000], "trial": 2, "serialpos": 11, "trial_type": "single-audio", "trial_index": 100, "time_elapsed": 523817, "internal_node_id": "0.0-73.0"}}, {"uniqueid": "MTK1219:33CID571050DUS9VHE36WDA08FI3LM", "current_trial": 101, "dateTime": 1513458991984, "trialdata": {"rt": -1000, "stimulus": "/static/audio/wordpool/SISTER.wav", "key_press": -1, "type": "PRES_AUD", "word": "sister", "wordID": 1311, "conditions": [24, 800, "a", 12000], "trial": 2, "serialpos": 12, "trial_type": "single-audio", "trial_index": 101, "time_elapsed": 525538, "internal_node_id": "0.0-74.0"}}, {"uniqueid": "MTK1219:33CID571050DUS9VHE36WDA08FI3LM", "current_trial": 102, "dateTime": 1513458993699, "trialdata": {"rt": -1000, "stimulus": "/static/audio/wordpool/HUSBAND.wav", "key_press": -1, "type": "PRES_AUD", "word": "husband", "wordID": 727, "conditions": [24, 800, "a", 12000], "trial": 2, "serialpos": 13, "trial_type": "single-audio", "trial_index": 102, "time_elapsed": 527252, "internal_node_id": "0.0-75.0"}}, {"uniqueid": "MTK1219:33CID571050DUS9VHE36WDA08FI3LM", "current_trial": 103, "dateTime": 1513458995524, "trialdata": {"rt": -1000, "stimulus": "/static/audio/wordpool/CUSTARD.wav", "key_press": -1, "type": "PRES_AUD", "word": "custard", "wordID": 428, "conditions": [24, 800, "a", 12000], "trial": 2, "serialpos": 14, "trial_type": "single-audio", "trial_index": 103, "time_elapsed": 529078, "internal_node_id": "0.0-76.0"}}, {"uniqueid": "MTK1219:33CID571050DUS9VHE36WDA08FI3LM", "current_trial": 104, "dateTime": 1513458997225, "trialdata": {"rt": -1000, "stimulus": "/static/audio/wordpool/TERMITE.wav", "key_press": -1, "type": "PRES_AUD", "word": "termite", "wordID": 1450, "conditions": [24, 800, "a", 12000], "trial": 2, "serialpos": 15, "trial_type": "single-audio", "trial_index": 104, "time_elapsed": 530778, "internal_node_id": "0.0-77.0"}}, {"uniqueid": "MTK1219:33CID571050DUS9VHE36WDA08FI3LM", "current_trial": 105, "dateTime": 1513458998930, "trialdata": {"rt": -1000, "stimulus": "/static/audio/wordpool/FRECKLE.wav", "key_press": -1, "type": "PRES_AUD", "word": "freckle", "wordID": 601, "conditions": [24, 800, "a", 12000], "trial": 2, "serialpos": 16, "trial_type": "single-audio", "trial_index": 105, "time_elapsed": 532484, "internal_node_id": "0.0-78.0"}}, {"uniqueid": "MTK1219:33CID571050DUS9VHE36WDA08FI3LM", "current_trial": 106, "dateTime": 1513459000899, "trialdata": {"rt": -1000, "stimulus": "/static/audio/wordpool/QUARTER.wav", "key_press": -1, "type": "PRES_AUD", "word": "quarter", "wordID": 1147, "conditions": [24, 800, "a", 12000], "trial": 2, "serialpos": 17, "trial_type": "single-audio", "trial_index": 106, "time_elapsed": 534453, "internal_node_id": "0.0-79.0"}}, {"uniqueid": "MTK1219:33CID571050DUS9VHE36WDA08FI3LM", "current_trial": 107, "dateTime": 1513459002737, "trialdata": {"rt": -1000, "stimulus": "/static/audio/wordpool/BEAVER.wav", "key_press": -1, "type": "PRES_AUD", "word": "beaver", "wordID": 108, "conditions": [24, 800, "a", 12000], "trial": 2, "serialpos": 18, "trial_type": "single-audio", "trial_index": 107, "time_elapsed": 536291, "internal_node_id": "0.0-80.0"}}, {"uniqueid": "MTK1219:33CID571050DUS9VHE36WDA08FI3LM", "current_trial": 108, "dateTime": 1513459004374, "trialdata": {"rt": -1000, "stimulus": "/static/audio/wordpool/RELISH.wav", "key_press": -1, "type": "PRES_AUD", "word": "relish", "wordID": 1182, "conditions": [24, 800, "a", 12000], "trial": 2, "serialpos": 19, "trial_type": "single-audio", "trial_index": 108, "time_elapsed": 537928, "internal_node_id": "0.0-81.0"}}, {"uniqueid": "MTK1219:33CID571050DUS9VHE36WDA08FI3LM", "current_trial": 109, "dateTime": 1513459006211, "trialdata": {"rt": -1000, "stimulus": "/static/audio/wordpool/BUNNY.wav", "key_press": -1, "type": "PRES_AUD", "word": "bunny", "wordID": 197, "conditions": [24, 800, "a", 12000], "trial": 2, "serialpos": 20, "trial_type": "single-audio", "trial_index": 109, "time_elapsed": 539765, "internal_node_id": "0.0-82.0"}}, {"uniqueid": "MTK1219:33CID571050DUS9VHE36WDA08FI3LM", "current_trial": 110, "dateTime": 1513459007891, "trialdata": {"rt": -1000, "stimulus": "/static/audio/wordpool/RECORD.wav", "key_press": -1, "type": "PRES_AUD", "word": "record", "wordID": 1175, "conditions": [24, 800, "a", 12000], "trial": 2, "serialpos": 21, "trial_type": "single-audio", "trial_index": 110, "time_elapsed": 541445, "internal_node_id": "0.0-83.0"}}, {"uniqueid": "MTK1219:33CID571050DUS9VHE36WDA08FI3LM", "current_trial": 111, "dateTime": 1513459009504, "trialdata": {"rt": -1000, "stimulus": "/static/audio/wordpool/PUDDING.wav", "key_press": -1, "type": "PRES_AUD", "word": "pudding", "wordID": 1138, "conditions": [24, 800, "a", 12000], "trial": 2, "serialpos": 22, "trial_type": "single-audio", "trial_index": 111, "time_elapsed": 543058, "internal_node_id": "0.0-84.0"}}, {"uniqueid": "MTK1219:33CID571050DUS9VHE36WDA08FI3LM", "current_trial": 112, "dateTime": 1513459011324, "trialdata": {"rt": -1000, "stimulus": "/static/audio/wordpool/SLUG.wav", "key_press": -1, "type": "PRES_AUD", "word": "slug", "wordID": 1328, "conditions": [24, 800, "a", 12000], "trial": 2, "serialpos": 23, "trial_type": "single-audio", "trial_index": 112, "time_elapsed": 544878, "internal_node_id": "0.0-85.0"}}, {"uniqueid": "MTK1219:33CID571050DUS9VHE36WDA08FI3LM", "current_trial": 113, "dateTime": 1513459012647, "trialdata": {"rt": -1, "stimulus": "", "key_press": -1, "type": "PRE_RECALL_DELAY", "trial_type": "single-stim", "trial_index": 113, "time_elapsed": 546201, "internal_node_id": "0.0-86.0-0.0"}}, {"uniqueid": "MTK1219:33CID571050DUS9VHE36WDA08FI3LM", "current_trial": 114, "dateTime": 1513459013148, "trialdata": {"rt": -1000, "stimulus": "/static/audio/400Hz.wav", "key_press": -1, "type": "PRE_RECALL_ALERT", "trial_type": "single-audio", "trial_index": 114, "time_elapsed": 546702, "internal_node_id": "0.0-87.0"}}, {"uniqueid": "MTK1219:33CID571050DUS9VHE36WDA08FI3LM", "current_trial": 115, "dateTime": 1513459073151, "trialdata": {"rt": [2657, 3988, 5347, 6791, 7928, 9457, 10875, 12206, 13575, 24531, 40133, 48635], "recwords": ["razor", "blade", "sister", "husband", "slug", "pudding", "record", "bunny", "beaver", "quarter", "custard", "relish"], "type": "FREE_RECALL", "conditions": [24, 800, "a", 12000], "trial": 2, "trial_type": "free-recall", "trial_index": 115, "time_elapsed": 606703, "internal_node_id": "0.0-88.0-0.0"}}, {"uniqueid": "MTK1219:33CID571050DUS9VHE36WDA08FI3LM", "current_trial": 116, "dateTime": 1513459076435, "trialdata": {"rt": 1284, "key_press": 32, "type": "INSTRUCTIONS", "trial_type": "text", "trial_index": 116, "time_elapsed": 609989, "internal_node_id": "0.0-89.0"}}, {"uniqueid": "MTK1219:33CID571050DUS9VHE36WDA08FI3LM", "current_trial": 117, "dateTime": 1513459102439, "trialdata": {"rt": [1534, 2989, 5344, 8099, 9733, 11905, 14920, 16797, 18445, 23104], "responses": ["15", "11", "10", "22", "9", "19", "14", "6", "7", "19"], "num1": [3, 4, 7, 9, 2, 5, 7, 3, 2, 6, 3], "num2": [7, 4, 1, 4, 5, 6, 5, 1, 3, 9, 6], "num3": [5, 3, 2, 9, 2, 8, 2, 2, 2, 4, 2], "type": "DISTRACTOR", "conditions": [12, 800, "v", 24000], "trial": 3, "trial_type": "math-distractor", "trial_index": 117, "time_elapsed": 635993, "internal_node_id": "0.0-90.0"}}, {"uniqueid": "MTK1219:33CID571050DUS9VHE36WDA08FI3LM", "current_trial": 118, "dateTime": 1513459105441, "trialdata": {"rt": -1, "stimulus": "<p id=\"stim\">10</p>", "key_press": -1, "trial_type": "single-stim", "trial_index": 118, "time_elapsed": 638995, "internal_node_id": "0.0-91.0-0.0"}}, {"uniqueid": "MTK1219:33CID571050DUS9VHE36WDA08FI3LM", "current_trial": 119, "dateTime": 1513459106442, "trialdata": {"rt": -1, "stimulus": "<p id=\"stim\">9</p>", "key_press": -1, "trial_type": "single-stim", "trial_index": 119, "time_elapsed": 639996, "internal_node_id": "0.0-91.0-1.0"}}, {"uniqueid": "MTK1219:33CID571050DUS9VHE36WDA08FI3LM", "current_trial": 120, "dateTime": 1513459107443, "trialdata": {"rt": -1, "stimulus": "<p id=\"stim\">8</p>", "key_press": -1, "trial_type": "single-stim", "trial_index": 120, "time_elapsed": 640997, "internal_node_id": "0.0-91.0-2.0"}}, {"uniqueid": "MTK1219:33CID571050DUS9VHE36WDA08FI3LM", "current_trial": 121, "dateTime": 1513459108447, "trialdata": {"rt": -1, "stimulus": "<p id=\"stim\">7</p>", "key_press": -1, "trial_type": "single-stim", "trial_index": 121, "time_elapsed": 642000, "internal_node_id": "0.0-91.0-3.0"}}, {"uniqueid": "MTK1219:33CID571050DUS9VHE36WDA08FI3LM", "current_trial": 122, "dateTime": 1513459109448, "trialdata": {"rt": -1, "stimulus": "<p id=\"stim\">6</p>", "key_press": -1, "trial_type": "single-stim", "trial_index": 122, "time_elapsed": 643002, "internal_node_id": "0.0-91.0-4.0"}}, {"uniqueid": "MTK1219:33CID571050DUS9VHE36WDA08FI3LM", "current_trial": 123, "dateTime": 1513459110449, "trialdata": {"rt": -1, "stimulus": "<p id=\"stim\">5</p>", "key_press": -1, "trial_type": "single-stim", "trial_index": 123, "time_elapsed": 644003, "internal_node_id": "0.0-91.0-5.0"}}, {"uniqueid": "MTK1219:33CID571050DUS9VHE36WDA08FI3LM", "current_trial": 124, "dateTime": 1513459111451, "trialdata": {"rt": -1, "stimulus": "<p id=\"stim\">4</p>", "key_press": -1, "trial_type": "single-stim", "trial_index": 124, "time_elapsed": 645005, "internal_node_id": "0.0-91.0-6.0"}}, {"uniqueid": "MTK1219:33CID571050DUS9VHE36WDA08FI3LM", "current_trial": 125, "dateTime": 1513459112452, "trialdata": {"rt": -1, "stimulus": "<p id=\"stim\">3</p>", "key_press": -1, "trial_type": "single-stim", "trial_index": 125, "time_elapsed": 646006, "internal_node_id": "0.0-91.0-7.0"}}, {"uniqueid": "MTK1219:33CID571050DUS9VHE36WDA08FI3LM", "current_trial": 126, "dateTime": 1513459113454, "trialdata": {"rt": -1, "stimulus": "<p id=\"stim\">2</p>", "key_press": -1, "trial_type": "single-stim", "trial_index": 126, "time_elapsed": 647008, "internal_node_id": "0.0-91.0-8.0"}}, {"uniqueid": "MTK1219:33CID571050DUS9VHE36WDA08FI3LM", "current_trial": 127, "dateTime": 1513459114455, "trialdata": {"rt": -1, "stimulus": "<p id=\"stim\">1</p>", "key_press": -1, "trial_type": "single-stim", "trial_index": 127, "time_elapsed": 648009, "internal_node_id": "0.0-91.0-9.0"}}, {"uniqueid": "MTK1219:33CID571050DUS9VHE36WDA08FI3LM", "current_trial": 128, "dateTime": 1513459115957, "trialdata": {"rt": -1, "stimulus": "<p id=\"stim\">+</p>", "key_press": -1, "type": "FIXATION", "trial_type": "single-stim", "trial_index": 128, "time_elapsed": 649511, "internal_node_id": "0.0-92.0-0.0"}}, {"uniqueid": "MTK1219:33CID571050DUS9VHE36WDA08FI3LM", "current_trial": 129, "dateTime": 1513459116759, "trialdata": {"rt": -1, "stimulus": "<p id=\"stim\">ZEBRA</p>", "key_press": -1, "type": "PRES_VIS", "word": "zebra", "wordID": 1634, "conditions": [12, 800, "v", 24000], "trial": 3, "serialpos": 0, "trial_type": "single-stim", "trial_index": 129, "time_elapsed": 650312, "internal_node_id": "0.0-93.0"}}, {"uniqueid": "MTK1219:33CID571050DUS9VHE36WDA08FI3LM", "current_trial": 130, "dateTime": 1513459118560, "trialdata": {"rt": -1, "stimulus": "<p id=\"stim\">HORNET</p>", "key_press": -1, "type": "PRES_VIS", "word": "hornet", "wordID": 717, "conditions": [12, 800, "v", 24000], "trial": 3, "serialpos": 1, "trial_type": "single-stim", "trial_index": 130, "time_elapsed": 652114, "internal_node_id": "0.0-94.0"}}, {"uniqueid": "MTK1219:33CID571050DUS9VHE36WDA08FI3LM", "current_trial": 131, "dateTime": 1513459120243, "trialdata": {"rt": -1, "stimulus": "<p id=\"stim\">MARKER</p>", "key_press": -1, "type": "PRES_VIS", "word": "marker", "wordID": 869, "conditions": [12, 800, "v", 24000], "trial": 3, "serialpos": 2, "trial_type": "single-stim", "trial_index": 131, "time_elapsed": 653797, "internal_node_id": "0.0-95.0"}}, {"uniqueid": "MTK1219:33CID571050DUS9VHE36WDA08FI3LM", "current_trial": 132, "dateTime": 1513459122006, "trialdata": {"rt": -1, "stimulus": "<p id=\"stim\">SHELTER</p>", "key_press": -1, "type": "PRES_VIS", "word": "shelter", "wordID": 1281, "conditions": [12, 800, "v", 24000], "trial": 3, "serialpos": 3, "trial_type": "single-stim", "trial_index": 132, "time_elapsed": 655560, "internal_node_id": "0.0-96.0"}}, {"uniqueid": "MTK1219:33CID571050DUS9VHE36WDA08FI3LM", "current_trial": 133, "dateTime": 1513459123991, "trialdata": {"rt": -1, "stimulus": "<p id=\"stim\">LEOPARD</p>", "key_press": -1, "type": "PRES_VIS", "word": "leopard", "wordID": 811, "conditions": [12, 800, "v", 24000], "trial": 3, "serialpos": 4, "trial_type": "single-stim", "trial_index": 133, "time_elapsed": 657545, "internal_node_id": "0.0-97.0"}}, {"uniqueid": "MTK1219:33CID571050DUS9VHE36WDA08FI3LM", "current_trial": 134, "dateTime": 1513459125748, "trialdata": {"rt": -1, "stimulus": "<p id=\"stim\">DRESSER</p>", "key_press": -1, "type": "PRES_VIS", "word": "dresser", "wordID": 495, "conditions": [12, 800, "v", 24000], "trial": 3, "serialpos": 5, "trial_type": "single-stim", "trial_index": 134, "time_elapsed": 659302, "internal_node_id": "0.0-98.0"}}, {"uniqueid": "MTK1219:33CID571050DUS9VHE36WDA08FI3LM", "current_trial": 135, "dateTime": 1513459127646, "trialdata": {"rt": -1, "stimulus": "<p id=\"stim\">CUPBOARD</p>", "key_press": -1, "type": "PRES_VIS", "word": "cupboard", "wordID": 424, "conditions": [12, 800, "v", 24000], "trial": 3, "serialpos": 6, "trial_type": "single-stim", "trial_index": 135, "time_elapsed": 661200, "internal_node_id": "0.0-99.0"}}, {"uniqueid": "MTK1219:33CID571050DUS9VHE36WDA08FI3LM", "current_trial": 136, "dateTime": 1513459129303, "trialdata": {"rt": -1, "stimulus": "<p id=\"stim\">LEADER</p>", "key_press": -1, "type": "PRES_VIS", "word": "leader", "wordID": 806, "conditions": [12, 800, "v", 24000], "trial": 3, "serialpos": 7, "trial_type": "single-stim", "trial_index": 136, "time_elapsed": 662856, "internal_node_id": "0.0-100.0"}}, {"uniqueid": "MTK1219:33CID571050DUS9VHE36WDA08FI3LM", "current_trial": 137, "dateTime": 1513459131090, "trialdata": {"rt": -1, "stimulus": "<p id=\"stim\">CLAM</p>", "key_press": -1, "type": "PRES_VIS", "word": "clam", "wordID": 314, "conditions": [12, 800, "v", 24000], "trial": 3, "serialpos": 8, "trial_type": "single-stim", "trial_index": 137, "time_elapsed": 664644, "internal_node_id": "0.0-101.0"}}, {"uniqueid": "MTK1219:33CID571050DUS9VHE36WDA08FI3LM", "current_trial": 138, "dateTime": 1513459132767, "trialdata": {"rt": -1, "stimulus": "<p id=\"stim\">RIVER</p>", "key_press": -1, "type": "PRES_VIS", "word": "river", "wordID": 1193, "conditions": [12, 800, "v", 24000], "trial": 3, "serialpos": 9, "trial_type": "single-stim", "trial_index": 138, "time_elapsed": 666321, "internal_node_id": "0.0-102.0"}}, {"uniqueid": "MTK1219:33CID571050DUS9VHE36WDA08FI3LM", "current_trial": 139, "dateTime": 1513459134707, "trialdata": {"rt": -1, "stimulus": "<p id=\"stim\">PIGMENT</p>", "key_press": -1, "type": "PRES_VIS", "word": "pigment", "wordID": 1065, "conditions": [12, 800, "v", 24000], "trial": 3, "serialpos": 10, "trial_type": "single-stim", "trial_index": 139, "time_elapsed": 668261, "internal_node_id": "0.0-103.0"}}, {"uniqueid": "MTK1219:33CID571050DUS9VHE36WDA08FI3LM", "current_trial": 140, "dateTime": 1513459136591, "trialdata": {"rt": -1, "stimulus": "<p id=\"stim\">GIRL</p>", "key_press": -1, "type": "PRES_VIS", "word": "girl", "wordID": 636, "conditions": [12, 800, "v", 24000], "trial": 3, "serialpos": 11, "trial_type": "single-stim", "trial_index": 140, "time_elapsed": 670145, "internal_node_id": "0.0-104.0"}}, {"uniqueid": "MTK1219:33CID571050DUS9VHE36WDA08FI3LM", "current_trial": 141, "dateTime": 1513459138964, "trialdata": {"rt": -1, "stimulus": "", "key_press": -1, "type": "PRE_RECALL_DELAY", "trial_type": "single-stim", "trial_index": 141, "time_elapsed": 672518, "internal_node_id": "0.0-105.0-0.0"}}, {"uniqueid": "MTK1219:33CID571050DUS9VHE36WDA08FI3LM", "current_trial": 142, "dateTime": 1513459139466, "trialdata": {"rt": -1000, "stimulus": "/static/audio/400Hz.wav", "key_press": -1, "type": "PRE_RECALL_ALERT", "trial_type": "single-audio", "trial_index": 142, "time_elapsed": 673020, "internal_node_id": "0.0-106.0"}}, {"uniqueid": "MTK1219:33CID571050DUS9VHE36WDA08FI3LM", "current_trial": 143, "dateTime": 1513459199469, "trialdata": {"rt": [2312, 3239, 4103, 5301, 6673, 16719, 27798, 36894], "recwords": ["pigment", "girl", "clam", "zebra", "hornet", "river", "skill", "marker"], "type": "FREE_RECALL", "conditions": [12, 800, "v", 24000], "trial": 3, "trial_type": "free-recall", "trial_index": 143, "time_elapsed": 733021, "internal_node_id": "0.0-107.0-0.0"}}, {"uniqueid": "MTK1219:33CID571050DUS9VHE36WDA08FI3LM", "current_trial": 144, "dateTime": 1513459202021, "trialdata": {"rt": 552, "key_press": 32, "type": "INSTRUCTIONS", "trial_type": "text", "trial_index": 144, "time_elapsed": 735575, "internal_node_id": "0.0-108.0"}}, {"uniqueid": "MTK1219:33CID571050DUS9VHE36WDA08FI3LM", "current_trial": 145, "dateTime": 1513459228025, "trialdata": {"rt": [2750, 4250, 5577, 7461, 9086, 10376, 11999, 13914, 15839, 17735, 19224, 22275], "responses": ["18", "11", "11", "18", "12", "12", "8", "17", "18", "17", "14", "16"], "num1": [6, 5, 5, 9, 7, 2, 1, 9, 7, 7, 4, 5, 1], "num2": [5, 1, 1, 6, 2, 4, 4, 5, 6, 2, 9, 8, 7], "num3": [7, 5, 5, 3, 3, 6, 3, 3, 5, 8, 1, 3, 6], "type": "DISTRACTOR", "conditions": [12, 1600, "a", 24000], "trial": 4, "trial_type": "math-distractor", "trial_index": 145, "time_elapsed": 761579, "internal_node_id": "0.0-109.0"}}, {"uniqueid": "MTK1219:33CID571050DUS9VHE36WDA08FI3LM", "current_trial": 146, "dateTime": 1513459231029, "trialdata": {"rt": -1, "stimulus": "<p id=\"stim\">10</p>", "key_press": -1, "trial_type": "single-stim", "trial_index": 146, "time_elapsed": 764582, "internal_node_id": "0.0-110.0-0.0"}}, {"uniqueid": "MTK1219:33CID571050DUS9VHE36WDA08FI3LM", "current_trial": 147, "dateTime": 1513459232029, "trialdata": {"rt": -1, "stimulus": "<p id=\"stim\">9</p>", "key_press": -1, "trial_type": "single-stim", "trial_index": 147, "time_elapsed": 765583, "internal_node_id": "0.0-110.0-1.0"}}, {"uniqueid": "MTK1219:33CID571050DUS9VHE36WDA08FI3LM", "current_trial": 148, "dateTime": 1513459233031, "trialdata": {"rt": -1, "stimulus": "<p id=\"stim\">8</p>", "key_press": -1, "trial_type": "single-stim", "trial_index": 148, "time_elapsed": 766585, "internal_node_id": "0.0-110.0-2.0"}}, {"uniqueid": "MTK1219:33CID571050DUS9VHE36WDA08FI3LM", "current_trial": 149, "dateTime": 1513459234033, "trialdata": {"rt": -1, "stimulus": "<p id=\"stim\">7</p>", "key_press": -1, "trial_type": "single-stim", "trial_index": 149, "time_elapsed": 767587, "internal_node_id": "0.0-110.0-3.0"}}, {"uniqueid": "MTK1219:33CID571050DUS9VHE36WDA08FI3LM", "current_trial": 150, "dateTime": 1513459235035, "trialdata": {"rt": -1, "stimulus": "<p id=\"stim\">6</p>", "key_press": -1, "trial_type": "single-stim", "trial_index": 150, "time_elapsed": 768589, "internal_node_id": "0.0-110.0-4.0"}}, {"uniqueid": "MTK1219:33CID571050DUS9VHE36WDA08FI3LM", "current_trial": 151, "dateTime": 1513459236037, "trialdata": {"rt": -1, "stimulus": "<p id=\"stim\">5</p>", "key_press": -1, "trial_type": "single-stim", "trial_index": 151, "time_elapsed": 769590, "internal_node_id": "0.0-110.0-5.0"}}, {"uniqueid": "MTK1219:33CID571050DUS9VHE36WDA08FI3LM", "current_trial": 152, "dateTime": 1513459237038, "trialdata": {"rt": -1, "stimulus": "<p id=\"stim\">4</p>", "key_press": -1, "trial_type": "single-stim", "trial_index": 152, "time_elapsed": 770592, "internal_node_id": "0.0-110.0-6.0"}}, {"uniqueid": "MTK1219:33CID571050DUS9VHE36WDA08FI3LM", "current_trial": 153, "dateTime": 1513459238039, "trialdata": {"rt": -1, "stimulus": "<p id=\"stim\">3</p>", "key_press": -1, "trial_type": "single-stim", "trial_index": 153, "time_elapsed": 771593, "internal_node_id": "0.0-110.0-7.0"}}, {"uniqueid": "MTK1219:33CID571050DUS9VHE36WDA08FI3LM", "current_trial": 154, "dateTime": 1513459239042, "trialdata": {"rt": -1, "stimulus": "<p id=\"stim\">2</p>", "key_press": -1, "trial_type": "single-stim", "trial_index": 154, "time_elapsed": 772596, "internal_node_id": "0.0-110.0-8.0"}}, {"uniqueid": "MTK1219:33CID571050DUS9VHE36WDA08FI3LM", "current_trial": 155, "dateTime": 1513459240045, "trialdata": {"rt": -1, "stimulus": "<p id=\"stim\">1</p>", "key_press": -1, "trial_type": "single-stim", "trial_index": 155, "time_elapsed": 773599, "internal_node_id": "0.0-110.0-9.0"}}, {"uniqueid": "MTK1219:33CID571050DUS9VHE36WDA08FI3LM", "current_trial": 156, "dateTime": 1513459241547, "trialdata": {"rt": -1, "stimulus": "<p id=\"stim\">+</p>", "key_press": -1, "type": "FIXATION", "trial_type": "single-stim", "trial_index": 156, "time_elapsed": 775100, "internal_node_id": "0.0-111.0-0.0"}}, {"uniqueid": "MTK1219:33CID571050DUS9VHE36WDA08FI3LM", "current_trial": 157, "dateTime": 1513459244249, "trialdata": {"rt": -1000, "stimulus": "/static/audio/wordpool/WORKER.wav", "key_press": -1, "type": "PRES_AUD", "word": "worker", "wordID": 1620, "conditions": [12, 1600, "a", 24000], "trial": 4, "serialpos": 0, "trial_type": "single-audio", "trial_index": 157, "time_elapsed": 777803, "internal_node_id": "0.0-112.0"}}, {"uniqueid": "MTK1219:33CID571050DUS9VHE36WDA08FI3LM", "current_trial": 158, "dateTime": 1513459246994, "trialdata": {"rt": -1000, "stimulus": "/static/audio/wordpool/CHEMIST.wav", "key_press": -1, "type": "PRES_AUD", "word": "chemist", "wordID": 291, "conditions": [12, 1600, "a", 24000], "trial": 4, "serialpos": 1, "trial_type": "single-audio", "trial_index": 158, "time_elapsed": 780548, "internal_node_id": "0.0-113.0"}}, {"uniqueid": "MTK1219:33CID571050DUS9VHE36WDA08FI3LM", "current_trial": 159, "dateTime": 1513459249636, "trialdata": {"rt": -1000, "stimulus": "/static/audio/wordpool/CASHIER.wav", "key_press": -1, "type": "PRES_AUD", "word": "cashier", "wordID": 253, "conditions": [12, 1600, "a", 24000], "trial": 4, "serialpos": 2, "trial_type": "single-audio", "trial_index": 159, "time_elapsed": 783190, "internal_node_id": "0.0-114.0"}}, {"uniqueid": "MTK1219:33CID571050DUS9VHE36WDA08FI3LM", "current_trial": 160, "dateTime": 1513459252424, "trialdata": {"rt": -1000, "stimulus": "/static/audio/wordpool/CITRUS.wav", "key_press": -1, "type": "PRES_AUD", "word": "citrus", "wordID": 312, "conditions": [12, 1600, "a", 24000], "trial": 4, "serialpos": 3, "trial_type": "single-audio", "trial_index": 160, "time_elapsed": 785978, "internal_node_id": "0.0-115.0"}}, {"uniqueid": "MTK1219:33CID571050DUS9VHE36WDA08FI3LM", "current_trial": 161, "dateTime": 1513459254947, "trialdata": {"rt": -1000, "stimulus": "/static/audio/wordpool/TOURIST.wav", "key_press": -1, "type": "PRES_AUD", "word": "tourist", "wordID": 1487, "conditions": [12, 1600, "a", 24000], "trial": 4, "serialpos": 4, "trial_type": "single-audio", "trial_index": 161, "time_elapsed": 788501, "internal_node_id": "0.0-116.0"}}, {"uniqueid": "MTK1219:33CID571050DUS9VHE36WDA08FI3LM", "current_trial": 162, "dateTime": 1513459257640, "trialdata": {"rt": -1000, "stimulus": "/static/audio/wordpool/ACTOR.wav", "key_press": -1, "type": "PRES_AUD", "word": "actor", "wordID": 4, "conditions": [12, 1600, "a", 24000], "trial": 4, "serialpos": 5, "trial_type": "single-audio", "trial_index": 162, "time_elapsed": 791193, "internal_node_id": "0.0-117.0"}}, {"uniqueid": "MTK1219:33CID571050DUS9VHE36WDA08FI3LM", "current_trial": 163, "dateTime": 1513459260163, "trialdata": {"rt": -1000, "stimulus": "/static/audio/wordpool/ACTRESS.wav", "key_press": -1, "type": "PRES_AUD", "word": "actress", "wordID": 5, "conditions": [12, 1600, "a", 24000], "trial": 4, "serialpos": 6, "trial_type": "single-audio", "trial_index": 163, "time_elapsed": 793717, "internal_node_id": "0.0-118.0"}}, {"uniqueid": "MTK1219:33CID571050DUS9VHE36WDA08FI3LM", "current_trial": 164, "dateTime": 1513459262568, "trialdata": {"rt": -1000, "stimulus": "/static/audio/wordpool/EYELASH.wav", "key_press": -1, "type": "PRES_AUD", "word": "eyelash", "wordID": 545, "conditions": [12, 1600, "a", 24000], "trial": 4, "serialpos": 7, "trial_type": "single-audio", "trial_index": 164, "time_elapsed": 796121, "internal_node_id": "0.0-119.0"}}, {"uniqueid": "MTK1219:33CID571050DUS9VHE36WDA08FI3LM", "current_trial": 165, "dateTime": 1513459265073, "trialdata": {"rt": -1000, "stimulus": "/static/audio/wordpool/AIRPLANE.wav", "key_press": -1, "type": "PRES_AUD", "word": "airplane", "wordID": 11, "conditions": [12, 1600, "a", 24000], "trial": 4, "serialpos": 8, "trial_type": "single-audio", "trial_index": 165, "time_elapsed": 798625, "internal_node_id": "0.0-120.0"}}, {"uniqueid": "MTK1219:33CID571050DUS9VHE36WDA08FI3LM", "current_trial": 166, "dateTime": 1513459267596, "trialdata": {"rt": -1000, "stimulus": "/static/audio/wordpool/VIRUS.wav", "key_press": -1, "type": "PRES_AUD", "word": "virus", "wordID": 1571, "conditions": [12, 1600, "a", 24000], "trial": 4, "serialpos": 9, "trial_type": "single-audio", "trial_index": 166, "time_elapsed": 801150, "internal_node_id": "0.0-121.0"}}, {"uniqueid": "MTK1219:33CID571050DUS9VHE36WDA08FI3LM", "current_trial": 167, "dateTime": 1513459270048, "trialdata": {"rt": -1000, "stimulus": "/static/audio/wordpool/BLOUSE.wav", "key_press": -1, "type": "PRES_AUD", "word": "blouse", "wordID": 138, "conditions": [12, 1600, "a", 24000], "trial": 4, "serialpos": 10, "trial_type": "single-audio", "trial_index": 167, "time_elapsed": 803602, "internal_node_id": "0.0-122.0"}}, {"uniqueid": "MTK1219:33CID571050DUS9VHE36WDA08FI3LM", "current_trial": 168, "dateTime": 1513459272743, "trialdata": {"rt": -1000, "stimulus": "/static/audio/wordpool/PEACH.wav", "key_press": -1, "type": "PRES_AUD", "word": "peach", "wordID": 1030, "conditions": [12, 1600, "a", 24000], "trial": 4, "serialpos": 11, "trial_type": "single-audio", "trial_index": 168, "time_elapsed": 806297, "internal_node_id": "0.0-123.0"}}, {"uniqueid": "MTK1219:33CID571050DUS9VHE36WDA08FI3LM", "current_trial": 169, "dateTime": 1513459274127, "trialdata": {"rt": -1, "stimulus": "", "key_press": -1, "type": "PRE_RECALL_DELAY", "trial_type": "single-stim", "trial_index": 169, "time_elapsed": 807681, "internal_node_id": "0.0-124.0-0.0"}}, {"uniqueid": "MTK1219:33CID571050DUS9VHE36WDA08FI3LM", "current_trial": 170, "dateTime": 1513459274628, "trialdata": {"rt": -1000, "stimulus": "/static/audio/400Hz.wav", "key_press": -1, "type": "PRE_RECALL_ALERT", "trial_type": "single-audio", "trial_index": 170, "time_elapsed": 808182, "internal_node_id": "0.0-125.0"}}, {"uniqueid": "MTK1219:33CID571050DUS9VHE36WDA08FI3LM", "current_trial": 171, "dateTime": 1513459334635, "trialdata": {"rt": [2442, 3907, 6356, 9112, 10272, 12129, 13480, 15061, 17578, 56749], "recwords": ["peach", "virus", "blouse", "airplane", "actor", "actress", "citrus", "tourist", "chemist", "eyelash"], "type": "FREE_RECALL", "conditions": [12, 1600, "a", 24000], "trial": 4, "trial_type": "free-recall", "trial_index": 171, "time_elapsed": 868185, "internal_node_id": "0.0-126.0-0.0"}}, {"uniqueid": "MTK1219:33CID571050DUS9VHE36WDA08FI3LM", "current_trial": 172, "dateTime": 1513459337409, "trialdata": {"rt": 772, "key_press": 32, "type": "INSTRUCTIONS", "trial_type": "text", "trial_index": 172, "time_elapsed": 870962, "internal_node_id": "0.0-127.0"}}, {"uniqueid": "MTK1219:33CID571050DUS9VHE36WDA08FI3LM", "current_trial": 173, "dateTime": 1513459351413, "trialdata": {"rt": [1778, 3475, 5177, 6825, 8685, 10403], "responses": ["19", "21", "18", "12", "16", "13"], "num1": [8, 9, 2, 3, 9, 2, 8], "num2": [6, 9, 8, 6, 3, 6, 3], "num3": [5, 3, 8, 3, 4, 5, 1], "type": "DISTRACTOR", "conditions": [24, 800, "v", 12000], "trial": 5, "trial_type": "math-distractor", "trial_index": 173, "time_elapsed": 884967, "internal_node_id": "0.0-128.0"}}, {"uniqueid": "MTK1219:33CID571050DUS9VHE36WDA08FI3LM", "current_trial": 174, "dateTime": 1513459354415, "trialdata": {"rt": -1, "stimulus": "<p id=\"stim\">10</p>", "key_press": -1, "trial_type": "single-stim", "trial_index": 174, "time_elapsed": 887969, "internal_node_id": "0.0-129.0-0.0"}}, {"uniqueid": "MTK1219:33CID571050DUS9VHE36WDA08FI3LM", "current_trial": 175, "dateTime": 1513459355416, "trialdata": {"rt": -1, "stimulus": "<p id=\"stim\">9</p>", "key_press": -1, "trial_type": "single-stim", "trial_index": 175, "time_elapsed": 888970, "internal_node_id": "0.0-129.0-1.0"}}, {"uniqueid": "MTK1219:33CID571050DUS9VHE36WDA08FI3LM", "current_trial": 176, "dateTime": 1513459356418, "trialdata": {"rt": -1, "stimulus": "<p id=\"stim\">8</p>", "key_press": -1, "trial_type": "single-stim", "trial_index": 176, "time_elapsed": 889972, "internal_node_id": "0.0-129.0-2.0"}}, {"uniqueid": "MTK1219:33CID571050DUS9VHE36WDA08FI3LM", "current_trial": 177, "dateTime": 1513459357419, "trialdata": {"rt": -1, "stimulus": "<p id=\"stim\">7</p>", "key_press": -1, "trial_type": "single-stim", "trial_index": 177, "time_elapsed": 890973, "internal_node_id": "0.0-129.0-3.0"}}, {"uniqueid": "MTK1219:33CID571050DUS9VHE36WDA08FI3LM", "current_trial": 178, "dateTime": 1513459358421, "trialdata": {"rt": -1, "stimulus": "<p id=\"stim\">6</p>", "key_press": -1, "trial_type": "single-stim", "trial_index": 178, "time_elapsed": 891975, "internal_node_id": "0.0-129.0-4.0"}}, {"uniqueid": "MTK1219:33CID571050DUS9VHE36WDA08FI3LM", "current_trial": 179, "dateTime": 1513459359422, "trialdata": {"rt": -1, "stimulus": "<p id=\"stim\">5</p>", "key_press": -1, "trial_type": "single-stim", "trial_index": 179, "time_elapsed": 892976, "internal_node_id": "0.0-129.0-5.0"}}, {"uniqueid": "MTK1219:33CID571050DUS9VHE36WDA08FI3LM", "current_trial": 180, "dateTime": 1513459360425, "trialdata": {"rt": -1, "stimulus": "<p id=\"stim\">4</p>", "key_press": -1, "trial_type": "single-stim", "trial_index": 180, "time_elapsed": 893978, "internal_node_id": "0.0-129.0-6.0"}}, {"uniqueid": "MTK1219:33CID571050DUS9VHE36WDA08FI3LM", "current_trial": 181, "dateTime": 1513459361426, "trialdata": {"rt": -1, "stimulus": "<p id=\"stim\">3</p>", "key_press": -1, "trial_type": "single-stim", "trial_index": 181, "time_elapsed": 894980, "internal_node_id": "0.0-129.0-7.0"}}, {"uniqueid": "MTK1219:33CID571050DUS9VHE36WDA08FI3LM", "current_trial": 182, "dateTime": 1513459362428, "trialdata": {"rt": -1, "stimulus": "<p id=\"stim\">2</p>", "key_press": -1, "trial_type": "single-stim", "trial_index": 182, "time_elapsed": 895982, "internal_node_id": "0.0-129.0-8.0"}}, {"uniqueid": "MTK1219:33CID571050DUS9VHE36WDA08FI3LM", "current_trial": 183, "dateTime": 1513459363430, "trialdata": {"rt": -1, "stimulus": "<p id=\"stim\">1</p>", "key_press": -1, "trial_type": "single-stim", "trial_index": 183, "time_elapsed": 896984, "internal_node_id": "0.0-129.0-9.0"}}, {"uniqueid": "MTK1219:33CID571050DUS9VHE36WDA08FI3LM", "current_trial": 184, "dateTime": 1513459364933, "trialdata": {"rt": -1, "stimulus": "<p id=\"stim\">+</p>", "key_press": -1, "type": "FIXATION", "trial_type": "single-stim", "trial_index": 184, "time_elapsed": 898486, "internal_node_id": "0.0-130.0-0.0"}}, {"uniqueid": "MTK1219:33CID571050DUS9VHE36WDA08FI3LM", "current_trial": 185, "dateTime": 1513459365735, "trialdata": {"rt": -1, "stimulus": "<p id=\"stim\">GLOVE</p>", "key_press": -1, "type": "PRES_VIS", "word": "glove", "wordID": 641, "conditions": [24, 800, "v", 12000], "trial": 5, "serialpos": 0, "trial_type": "single-stim", "trial_index": 185, "time_elapsed": 899289, "internal_node_id": "0.0-131.0"}}, {"uniqueid": "MTK1219:33CID571050DUS9VHE36WDA08FI3LM", "current_trial": 186, "dateTime": 1513459367473, "trialdata": {"rt": -1, "stimulus": "<p id=\"stim\">PATIENT</p>", "key_press": -1, "type": "PRES_VIS", "word": "patient", "wordID": 1023, "conditions": [24, 800, "v", 12000], "trial": 5, "serialpos": 1, "trial_type": "single-stim", "trial_index": 186, "time_elapsed": 901027, "internal_node_id": "0.0-132.0"}}, {"uniqueid": "MTK1219:33CID571050DUS9VHE36WDA08FI3LM", "current_trial": 187, "dateTime": 1513459369139, "trialdata": {"rt": -1, "stimulus": "<p id=\"stim\">TUTU</p>", "key_press": -1, "type": "PRES_VIS", "word": "tutu", "wordID": 1523, "conditions": [24, 800, "v", 12000], "trial": 5, "serialpos": 2, "trial_type": "single-stim", "trial_index": 187, "time_elapsed": 902693, "internal_node_id": "0.0-133.0"}}, {"uniqueid": "MTK1219:33CID571050DUS9VHE36WDA08FI3LM", "current_trial": 188, "dateTime": 1513459371038, "trialdata": {"rt": -1, "stimulus": "<p id=\"stim\">BRANDY</p>", "key_press": -1, "type": "PRES_VIS", "word": "brandy", "wordID": 168, "conditions": [24, 800, "v", 12000], "trial": 5, "serialpos": 3, "trial_type": "single-stim", "trial_index": 188, "time_elapsed": 904592, "internal_node_id": "0.0-134.0"}}, {"uniqueid": "MTK1219:33CID571050DUS9VHE36WDA08FI3LM", "current_trial": 189, "dateTime": 1513459372680, "trialdata": {"rt": -1, "stimulus": "<p id=\"stim\">DRIVER</p>", "key_press": -1, "type": "PRES_VIS", "word": "driver", "wordID": 498, "conditions": [24, 800, "v", 12000], "trial": 5, "serialpos": 4, "trial_type": "single-stim", "trial_index": 189, "time_elapsed": 906234, "internal_node_id": "0.0-135.0"}}, {"uniqueid": "MTK1219:33CID571050DUS9VHE36WDA08FI3LM", "current_trial": 190, "dateTime": 1513459374517, "trialdata": {"rt": -1, "stimulus": "<p id=\"stim\">CANAL</p>", "key_press": -1, "type": "PRES_VIS", "word": "canal", "wordID": 225, "conditions": [24, 800, "v", 12000], "trial": 5, "serialpos": 5, "trial_type": "single-stim", "trial_index": 190, "time_elapsed": 908071, "internal_node_id": "0.0-136.0"}}, {"uniqueid": "MTK1219:33CID571050DUS9VHE36WDA08FI3LM", "current_trial": 191, "dateTime": 1513459376439, "trialdata": {"rt": -1, "stimulus": "<p id=\"stim\">CARRIAGE</p>", "key_press": -1, "type": "PRES_VIS", "word": "carriage", "wordID": 247, "conditions": [24, 800, "v", 12000], "trial": 5, "serialpos": 6, "trial_type": "single-stim", "trial_index": 191, "time_elapsed": 909992, "internal_node_id": "0.0-137.0"}}, {"uniqueid": "MTK1219:33CID571050DUS9VHE36WDA08FI3LM", "current_trial": 192, "dateTime": 1513459378179, "trialdata": {"rt": -1, "stimulus": "<p id=\"stim\">ONION</p>", "key_press": -1, "type": "PRES_VIS", "word": "onion", "wordID": 976, "conditions": [24, 800, "v", 12000], "trial": 5, "serialpos": 7, "trial_type": "single-stim", "trial_index": 192, "time_elapsed": 911733, "internal_node_id": "0.0-138.0"}}, {"uniqueid": "MTK1219:33CID571050DUS9VHE36WDA08FI3LM", "current_trial": 193, "dateTime": 1513459379789, "trialdata": {"rt": -1, "stimulus": "<p id=\"stim\">APPLE</p>", "key_press": -1, "type": "PRES_VIS", "word": "apple", "wordID": 32, "conditions": [24, 800, "v", 12000], "trial": 5, "serialpos": 8, "trial_type": "single-stim", "trial_index": 193, "time_elapsed": 913343, "internal_node_id": "0.0-139.0"}}, {"uniqueid": "MTK1219:33CID571050DUS9VHE36WDA08FI3LM", "current_trial": 194, "dateTime": 1513459381674, "trialdata": {"rt": -1, "stimulus": "<p id=\"stim\">WORLD</p>", "key_press": -1, "type": "PRES_VIS", "word": "world", "wordID": 1621, "conditions": [24, 800, "v", 12000], "trial": 5, "serialpos": 9, "trial_type": "single-stim", "trial_index": 194, "time_elapsed": 915228, "internal_node_id": "0.0-140.0"}}, {"uniqueid": "MTK1219:33CID571050DUS9VHE36WDA08FI3LM", "current_trial": 195, "dateTime": 1513459383603, "trialdata": {"rt": -1, "stimulus": "<p id=\"stim\">WAITRESS</p>", "key_press": -1, "type": "PRES_VIS", "word": "waitress", "wordID": 1580, "conditions": [24, 800, "v", 12000], "trial": 5, "serialpos": 10, "trial_type": "single-stim", "trial_index": 195, "time_elapsed": 917156, "internal_node_id": "0.0-141.0"}}, {"uniqueid": "MTK1219:33CID571050DUS9VHE36WDA08FI3LM", "current_trial": 196, "dateTime": 1513459385578, "trialdata": {"rt": -1, "stimulus": "<p id=\"stim\">NIGHTGOWN</p>", "key_press": -1, "type": "PRES_VIS", "word": "nightgown", "wordID": 952, "conditions": [24, 800, "v", 12000], "trial": 5, "serialpos": 11, "trial_type": "single-stim", "trial_index": 196, "time_elapsed": 919132, "internal_node_id": "0.0-142.0"}}, {"uniqueid": "MTK1219:33CID571050DUS9VHE36WDA08FI3LM", "current_trial": 197, "dateTime": 1513459387554, "trialdata": {"rt": -1, "stimulus": "<p id=\"stim\">WASP</p>", "key_press": -1, "type": "PRES_VIS", "word": "wasp", "wordID": 1592, "conditions": [24, 800, "v", 12000], "trial": 5, "serialpos": 12, "trial_type": "single-stim", "trial_index": 197, "time_elapsed": 921107, "internal_node_id": "0.0-143.0"}}, {"uniqueid": "MTK1219:33CID571050DUS9VHE36WDA08FI3LM", "current_trial": 198, "dateTime": 1513459389317, "trialdata": {"rt": -1, "stimulus": "<p id=\"stim\">BUTCHER</p>", "key_press": -1, "type": "PRES_VIS", "word": "butcher", "wordID": 202, "conditions": [24, 800, "v", 12000], "trial": 5, "serialpos": 13, "trial_type": "single-stim", "trial_index": 198, "time_elapsed": 922871, "internal_node_id": "0.0-144.0"}}, {"uniqueid": "MTK1219:33CID571050DUS9VHE36WDA08FI3LM", "current_trial": 199, "dateTime": 1513459391021, "trialdata": {"rt": -1, "stimulus": "<p id=\"stim\">BUG</p>", "key_press": -1, "type": "PRES_VIS", "word": "bug", "wordID": 186, "conditions": [24, 800, "v", 12000], "trial": 5, "serialpos": 14, "trial_type": "single-stim", "trial_index": 199, "time_elapsed": 924575, "internal_node_id": "0.0-145.0"}}, {"uniqueid": "MTK1219:33CID571050DUS9VHE36WDA08FI3LM", "current_trial": 200, "dateTime": 1513459392647, "trialdata": {"rt": -1, "stimulus": "<p id=\"stim\">CREATURE</p>", "key_press": -1, "type": "PRES_VIS", "word": "creature", "wordID": 402, "conditions": [24, 800, "v", 12000], "trial": 5, "serialpos": 15, "trial_type": "single-stim", "trial_index": 200, "time_elapsed": 926200, "internal_node_id": "0.0-146.0"}}, {"uniqueid": "MTK1219:33CID571050DUS9VHE36WDA08FI3LM", "current_trial": 201, "dateTime": 1513459394434, "trialdata": {"rt": -1, "stimulus": "<p id=\"stim\">SUNRISE</p>", "key_press": -1, "type": "PRES_VIS", "word": "sunrise", "wordID": 1406, "conditions": [24, 800, "v", 12000], "trial": 5, "serialpos": 16, "trial_type": "single-stim", "trial_index": 201, "time_elapsed": 927988, "internal_node_id": "0.0-147.0"}}, {"uniqueid": "MTK1219:33CID571050DUS9VHE36WDA08FI3LM", "current_trial": 202, "dateTime": 1513459396325, "trialdata": {"rt": -1, "stimulus": "<p id=\"stim\">POPCORN</p>", "key_press": -1, "type": "PRES_VIS", "word": "popcorn", "wordID": 1103, "conditions": [24, 800, "v", 12000], "trial": 5, "serialpos": 17, "trial_type": "single-stim", "trial_index": 202, "time_elapsed": 929878, "internal_node_id": "0.0-148.0"}}, {"uniqueid": "MTK1219:33CID571050DUS9VHE36WDA08FI3LM", "current_trial": 203, "dateTime": 1513459398285, "trialdata": {"rt": -1, "stimulus": "<p id=\"stim\">SODA</p>", "key_press": -1, "type": "PRES_VIS", "word": "soda", "wordID": 1340, "conditions": [24, 800, "v", 12000], "trial": 5, "serialpos": 18, "trial_type": "single-stim", "trial_index": 203, "time_elapsed": 931839, "internal_node_id": "0.0-149.0"}}, {"uniqueid": "MTK1219:33CID571050DUS9VHE36WDA08FI3LM", "current_trial": 204, "dateTime": 1513459400056, "trialdata": {"rt": -1, "stimulus": "<p id=\"stim\">VALLEY</p>", "key_press": -1, "type": "PRES_VIS", "word": "valley", "wordID": 1544, "conditions": [24, 800, "v", 12000], "trial": 5, "serialpos": 19, "trial_type": "single-stim", "trial_index": 204, "time_elapsed": 933610, "internal_node_id": "0.0-150.0"}}, {"uniqueid": "MTK1219:33CID571050DUS9VHE36WDA08FI3LM", "current_trial": 205, "dateTime": 1513459401714, "trialdata": {"rt": -1, "stimulus": "<p id=\"stim\">ROBIN</p>", "key_press": -1, "type": "PRES_VIS", "word": "robin", "wordID": 1198, "conditions": [24, 800, "v", 12000], "trial": 5, "serialpos": 20, "trial_type": "single-stim", "trial_index": 205, "time_elapsed": 935267, "internal_node_id": "0.0-151.0"}}, {"uniqueid": "MTK1219:33CID571050DUS9VHE36WDA08FI3LM", "current_trial": 206, "dateTime": 1513459403431, "trialdata": {"rt": -1, "stimulus": "<p id=\"stim\">CONVICT</p>", "key_press": -1, "type": "PRES_VIS", "word": "convict", "wordID": 370, "conditions": [24, 800, "v", 12000], "trial": 5, "serialpos": 21, "trial_type": "single-stim", "trial_index": 206, "time_elapsed": 936985, "internal_node_id": "0.0-152.0"}}, {"uniqueid": "MTK1219:33CID571050DUS9VHE36WDA08FI3LM", "current_trial": 207, "dateTime": 1513459405336, "trialdata": {"rt": -1, "stimulus": "<p id=\"stim\">MAPLE</p>", "key_press": -1, "type": "PRES_VIS", "word": "maple", "wordID": 865, "conditions": [24, 800, "v", 12000], "trial": 5, "serialpos": 22, "trial_type": "single-stim", "trial_index": 207, "time_elapsed": 938890, "internal_node_id": "0.0-153.0"}}, {"uniqueid": "MTK1219:33CID571050DUS9VHE36WDA08FI3LM", "current_trial": 208, "dateTime": 1513459407059, "trialdata": {"rt": -1, "stimulus": "<p id=\"stim\">WASHER</p>", "key_press": -1, "type": "PRES_VIS", "word": "washer", "wordID": 1591, "conditions": [24, 800, "v", 12000], "trial": 5, "serialpos": 23, "trial_type": "single-stim", "trial_index": 208, "time_elapsed": 940613, "internal_node_id": "0.0-154.0"}}, {"uniqueid": "MTK1219:33CID571050DUS9VHE36WDA08FI3LM", "current_trial": 209, "dateTime": 1513459409335, "trialdata": {"rt": -1, "stimulus": "", "key_press": -1, "type": "PRE_RECALL_DELAY", "trial_type": "single-stim", "trial_index": 209, "time_elapsed": 942888, "internal_node_id": "0.0-155.0-0.0"}}, {"uniqueid": "MTK1219:33CID571050DUS9VHE36WDA08FI3LM", "current_trial": 210, "dateTime": 1513459409836, "trialdata": {"rt": -1000, "stimulus": "/static/audio/400Hz.wav", "key_press": -1, "type": "PRE_RECALL_ALERT", "trial_type": "single-audio", "trial_index": 210, "time_elapsed": 943390, "internal_node_id": "0.0-156.0"}}, {"uniqueid": "MTK1219:33CID571050DUS9VHE36WDA08FI3LM", "current_trial": 211, "dateTime": 1513459469840, "trialdata": {"rt": [2888, 3971, 4983, 6844, 7776, 9897, 11017, 18381, 19547, 21527, 26033], "recwords": ["convict", "washer", "maple", "popcorn", "soda", "valley", "robin", "bug", "tutu", "brandy", "window"], "type": "FREE_RECALL", "conditions": [24, 800, "v", 12000], "trial": 5, "trial_type": "free-recall", "trial_index": 211, "time_elapsed": 1003391, "internal_node_id": "0.0-157.0-0.0"}}, {"uniqueid": "MTK1219:33CID571050DUS9VHE36WDA08FI3LM", "current_trial": 212, "dateTime": 1513459473210, "trialdata": {"rt": 1367, "key_press": 32, "type": "INSTRUCTIONS", "trial_type": "text", "trial_index": 212, "time_elapsed": 1006764, "internal_node_id": "0.0-158.0"}}, {"uniqueid": "MTK1219:33CID571050DUS9VHE36WDA08FI3LM", "current_trial": 213, "dateTime": 1513459499215, "trialdata": {"rt": [1856, 3440, 5980, 7713, 9145, 10433, 12448, 13857, 15633, 19560, 22824], "responses": ["14", "16", "13", "11", "12", "12", "13", "13", "6", "22", "11"], "num1": [3, 5, 7, 6, 1, 4, 6, 4, 2, 5, 1, 2], "num2": [5, 6, 2, 2, 9, 6, 3, 6, 1, 8, 2, 9], "num3": [6, 5, 4, 3, 2, 2, 4, 3, 3, 9, 8, 1], "type": "DISTRACTOR", "conditions": [24, 1600, "a", 24000], "trial": 6, "trial_type": "math-distractor", "trial_index": 213, "time_elapsed": 1032769, "internal_node_id": "0.0-159.0"}}, {"uniqueid": "MTK1219:33CID571050DUS9VHE36WDA08FI3LM", "current_trial": 214, "dateTime": 1513459502217, "trialdata": {"rt": -1, "stimulus": "<p id=\"stim\">10</p>", "key_press": -1, "trial_type": "single-stim", "trial_index": 214, "time_elapsed": 1035771, "internal_node_id": "0.0-160.0-0.0"}}, {"uniqueid": "MTK1219:33CID571050DUS9VHE36WDA08FI3LM", "current_trial": 215, "dateTime": 1513459503218, "trialdata": {"rt": -1, "stimulus": "<p id=\"stim\">9</p>", "key_press": -1, "trial_type": "single-stim", "trial_index": 215, "time_elapsed": 1036772, "internal_node_id": "0.0-160.0-1.0"}}, {"uniqueid": "MTK1219:33CID571050DUS9VHE36WDA08FI3LM", "current_trial": 216, "dateTime": 1513459504220, "trialdata": {"rt": -1, "stimulus": "<p id=\"stim\">8</p>", "key_press": -1, "trial_type": "single-stim", "trial_index": 216, "time_elapsed": 1037774, "internal_node_id": "0.0-160.0-2.0"}}, {"uniqueid": "MTK1219:33CID571050DUS9VHE36WDA08FI3LM", "current_trial": 217, "dateTime": 1513459505222, "trialdata": {"rt": -1, "stimulus": "<p id=\"stim\">7</p>", "key_press": -1, "trial_type": "single-stim", "trial_index": 217, "time_elapsed": 1038775, "internal_node_id": "0.0-160.0-3.0"}}, {"uniqueid": "MTK1219:33CID571050DUS9VHE36WDA08FI3LM", "current_trial": 218, "dateTime": 1513459506223, "trialdata": {"rt": -1, "stimulus": "<p id=\"stim\">6</p>", "key_press": -1, "trial_type": "single-stim", "trial_index": 218, "time_elapsed": 1039777, "internal_node_id": "0.0-160.0-4.0"}}, {"uniqueid": "MTK1219:33CID571050DUS9VHE36WDA08FI3LM", "current_trial": 219, "dateTime": 1513459507225, "trialdata": {"rt": -1, "stimulus": "<p id=\"stim\">5</p>", "key_press": -1, "trial_type": "single-stim", "trial_index": 219, "time_elapsed": 1040779, "internal_node_id": "0.0-160.0-5.0"}}, {"uniqueid": "MTK1219:33CID571050DUS9VHE36WDA08FI3LM", "current_trial": 220, "dateTime": 1513459508226, "trialdata": {"rt": -1, "stimulus": "<p id=\"stim\">4</p>", "key_press": -1, "trial_type": "single-stim", "trial_index": 220, "time_elapsed": 1041780, "internal_node_id": "0.0-160.0-6.0"}}, {"uniqueid": "MTK1219:33CID571050DUS9VHE36WDA08FI3LM", "current_trial": 221, "dateTime": 1513459509228, "trialdata": {"rt": -1, "stimulus": "<p id=\"stim\">3</p>", "key_press": -1, "trial_type": "single-stim", "trial_index": 221, "time_elapsed": 1042781, "internal_node_id": "0.0-160.0-7.0"}}, {"uniqueid": "MTK1219:33CID571050DUS9VHE36WDA08FI3LM", "current_trial": 222, "dateTime": 1513459510229, "trialdata": {"rt": -1, "stimulus": "<p id=\"stim\">2</p>", "key_press": -1, "trial_type": "single-stim", "trial_index": 222, "time_elapsed": 1043783, "internal_node_id": "0.0-160.0-8.0"}}, {"uniqueid": "MTK1219:33CID571050DUS9VHE36WDA08FI3LM", "current_trial": 223, "dateTime": 1513459511230, "trialdata": {"rt": -1, "stimulus": "<p id=\"stim\">1</p>", "key_press": -1, "trial_type": "single-stim", "trial_index": 223, "time_elapsed": 1044784, "internal_node_id": "0.0-160.0-9.0"}}, {"uniqueid": "MTK1219:33CID571050DUS9VHE36WDA08FI3LM", "current_trial": 224, "dateTime": 1513459512733, "trialdata": {"rt": -1, "stimulus": "<p id=\"stim\">+</p>", "key_press": -1, "type": "FIXATION", "trial_type": "single-stim", "trial_index": 224, "time_elapsed": 1046286, "internal_node_id": "0.0-161.0-0.0"}}, {"uniqueid": "MTK1219:33CID571050DUS9VHE36WDA08FI3LM", "current_trial": 225, "dateTime": 1513459515154, "trialdata": {"rt": -1000, "stimulus": "/static/audio/wordpool/BINDER.wav", "key_press": -1, "type": "PRES_AUD", "word": "binder", "wordID": 126, "conditions": [24, 1600, "a", 24000], "trial": 6, "serialpos": 0, "trial_type": "single-audio", "trial_index": 225, "time_elapsed": 1048708, "internal_node_id": "0.0-162.0"}}, {"uniqueid": "MTK1219:33CID571050DUS9VHE36WDA08FI3LM", "current_trial": 226, "dateTime": 1513459517718, "trialdata": {"rt": -1000, "stimulus": "/static/audio/wordpool/POCKET.wav", "key_press": -1, "type": "PRES_AUD", "word": "pocket", "wordID": 1092, "conditions": [24, 1600, "a", 24000], "trial": 6, "serialpos": 1, "trial_type": "single-audio", "trial_index": 226, "time_elapsed": 1051272, "internal_node_id": "0.0-163.0"}}, {"uniqueid": "MTK1219:33CID571050DUS9VHE36WDA08FI3LM", "current_trial": 227, "dateTime": 1513459520362, "trialdata": {"rt": -1000, "stimulus": "/static/audio/wordpool/PILOT.wav", "key_press": -1, "type": "PRES_AUD", "word": "pilot", "wordID": 1069, "conditions": [24, 1600, "a", 24000], "trial": 6, "serialpos": 2, "trial_type": "single-audio", "trial_index": 227, "time_elapsed": 1053916, "internal_node_id": "0.0-164.0"}}, {"uniqueid": "MTK1219:33CID571050DUS9VHE36WDA08FI3LM", "current_trial": 228, "dateTime": 1513459523130, "trialdata": {"rt": -1000, "stimulus": "/static/audio/wordpool/BUCKET.wav", "key_press": -1, "type": "PRES_AUD", "word": "bucket", "wordID": 183, "conditions": [24, 1600, "a", 24000], "trial": 6, "serialpos": 3, "trial_type": "single-audio", "trial_index": 228, "time_elapsed": 1056684, "internal_node_id": "0.0-165.0"}}, {"uniqueid": "MTK1219:33CID571050DUS9VHE36WDA08FI3LM", "current_trial": 229, "dateTime": 1513459525605, "trialdata": {"rt": -1000, "stimulus": "/static/audio/wordpool/BRIEFCASE.wav", "key_press": -1, "type": "PRES_AUD", "word": "briefcase", "wordID": 174, "conditions": [24, 1600, "a", 24000], "trial": 6, "serialpos": 4, "trial_type": "single-audio", "trial_index": 229, "time_elapsed": 1059159, "internal_node_id": "0.0-166.0"}}, {"uniqueid": "MTK1219:33CID571050DUS9VHE36WDA08FI3LM", "current_trial": 230, "dateTime": 1513459528188, "trialdata": {"rt": -1000, "stimulus": "/static/audio/wordpool/ANKLE.wav", "key_press": -1, "type": "PRES_AUD", "word": "ankle", "wordID": 23, "conditions": [24, 1600, "a", 24000], "trial": 6, "serialpos": 5, "trial_type": "single-audio", "trial_index": 230, "time_elapsed": 1061742, "internal_node_id": "0.0-167.0"}}, {"uniqueid": "MTK1219:33CID571050DUS9VHE36WDA08FI3LM", "current_trial": 231, "dateTime": 1513459530671, "trialdata": {"rt": -1000, "stimulus": "/static/audio/wordpool/OINTMENT.wav", "key_press": -1, "type": "PRES_AUD", "word": "ointment", "wordID": 973, "conditions": [24, 1600, "a", 24000], "trial": 6, "serialpos": 6, "trial_type": "single-audio", "trial_index": 231, "time_elapsed": 1064225, "internal_node_id": "0.0-168.0"}}, {"uniqueid": "MTK1219:33CID571050DUS9VHE36WDA08FI3LM", "current_trial": 232, "dateTime": 1513459533110, "trialdata": {"rt": -1000, "stimulus": "/static/audio/wordpool/CANDY.wav", "key_press": -1, "type": "PRES_AUD", "word": "candy", "wordID": 229, "conditions": [24, 1600, "a", 24000], "trial": 6, "serialpos": 7, "trial_type": "single-audio", "trial_index": 232, "time_elapsed": 1066664, "internal_node_id": "0.0-169.0"}}, {"uniqueid": "MTK1219:33CID571050DUS9VHE36WDA08FI3LM", "current_trial": 233, "dateTime": 1513459535516, "trialdata": {"rt": -1000, "stimulus": "/static/audio/wordpool/BRANCH.wav", "key_press": -1, "type": "PRES_AUD", "word": "branch", "wordID": 167, "conditions": [24, 1600, "a", 24000], "trial": 6, "serialpos": 8, "trial_type": "single-audio", "trial_index": 233, "time_elapsed": 1069070, "internal_node_id": "0.0-170.0"}}, {"uniqueid": "MTK1219:33CID571050DUS9VHE36WDA08FI3LM", "current_trial": 234, "dateTime": 1513459538071, "trialdata": {"rt": -1000, "stimulus": "/static/audio/wordpool/BANK.wav", "key_press": -1, "type": "PRES_AUD", "word": "bank", "wordID": 82, "conditions": [24, 1600, "a", 24000], "trial": 6, "serialpos": 9, "trial_type": "single-audio", "trial_index": 234, "time_elapsed": 1071624, "internal_node_id": "0.0-171.0"}}, {"uniqueid": "MTK1219:33CID571050DUS9VHE36WDA08FI3LM", "current_trial": 235, "dateTime": 1513459540479, "trialdata": {"rt": -1000, "stimulus": "/static/audio/wordpool/PREACHER.wav", "key_press": -1, "type": "PRES_AUD", "word": "preacher", "wordID": 1118, "conditions": [24, 1600, "a", 24000], "trial": 6, "serialpos": 10, "trial_type": "single-audio", "trial_index": 235, "time_elapsed": 1074033, "internal_node_id": "0.0-172.0"}}, {"uniqueid": "MTK1219:33CID571050DUS9VHE36WDA08FI3LM", "current_trial": 236, "dateTime": 1513459543151, "trialdata": {"rt": -1000, "stimulus": "/static/audio/wordpool/SUSPECT.wav", "key_press": -1, "type": "PRES_AUD", "word": "suspect", "wordID": 1414, "conditions": [24, 1600, "a", 24000], "trial": 6, "serialpos": 11, "trial_type": "single-audio", "trial_index": 236, "time_elapsed": 1076705, "internal_node_id": "0.0-173.0"}}, {"uniqueid": "MTK1219:33CID571050DUS9VHE36WDA08FI3LM", "current_trial": 237, "dateTime": 1513459545943, "trialdata": {"rt": -1000, "stimulus": "/static/audio/wordpool/CLIMBER.wav", "key_press": -1, "type": "PRES_AUD", "word": "climber", "wordID": 322, "conditions": [24, 1600, "a", 24000], "trial": 6, "serialpos": 12, "trial_type": "single-audio", "trial_index": 237, "time_elapsed": 1079497, "internal_node_id": "0.0-174.0"}}, {"uniqueid": "MTK1219:33CID571050DUS9VHE36WDA08FI3LM", "current_trial": 238, "dateTime": 1513459548611, "trialdata": {"rt": -1000, "stimulus": "/static/audio/wordpool/PRINCESS.wav", "key_press": -1, "type": "PRES_AUD", "word": "princess", "wordID": 1124, "conditions": [24, 1600, "a", 24000], "trial": 6, "serialpos": 13, "trial_type": "single-audio", "trial_index": 238, "time_elapsed": 1082165, "internal_node_id": "0.0-175.0"}}, {"uniqueid": "MTK1219:33CID571050DUS9VHE36WDA08FI3LM", "current_trial": 239, "dateTime": 1513459551364, "trialdata": {"rt": -1000, "stimulus": "/static/audio/wordpool/QUEEN.wav", "key_press": -1, "type": "PRES_AUD", "word": "queen", "wordID": 1148, "conditions": [24, 1600, "a", 24000], "trial": 6, "serialpos": 14, "trial_type": "single-audio", "trial_index": 239, "time_elapsed": 1084918, "internal_node_id": "0.0-176.0"}}, {"uniqueid": "MTK1219:33CID571050DUS9VHE36WDA08FI3LM", "current_trial": 240, "dateTime": 1513459554003, "trialdata": {"rt": -1000, "stimulus": "/static/audio/wordpool/WHISKERS.wav", "key_press": -1, "type": "PRES_AUD", "word": "whiskers", "wordID": 1604, "conditions": [24, 1600, "a", 24000], "trial": 6, "serialpos": 15, "trial_type": "single-audio", "trial_index": 240, "time_elapsed": 1087557, "internal_node_id": "0.0-177.0"}}, {"uniqueid": "MTK1219:33CID571050DUS9VHE36WDA08FI3LM", "current_trial": 241, "dateTime": 1513459556778, "trialdata": {"rt": -1000, "stimulus": "/static/audio/wordpool/FLESH.wav", "key_press": -1, "type": "PRES_AUD", "word": "flesh", "wordID": 578, "conditions": [24, 1600, "a", 24000], "trial": 6, "serialpos": 16, "trial_type": "single-audio", "trial_index": 241, "time_elapsed": 1090332, "internal_node_id": "0.0-178.0"}}, {"uniqueid": "MTK1219:33CID571050DUS9VHE36WDA08FI3LM", "current_trial": 242, "dateTime": 1513459559195, "trialdata": {"rt": -1000, "stimulus": "/static/audio/wordpool/PIANO.wav", "key_press": -1, "type": "PRES_AUD", "word": "piano", "wordID": 1056, "conditions": [24, 1600, "a", 24000], "trial": 6, "serialpos": 17, "trial_type": "single-audio", "trial_index": 242, "time_elapsed": 1092749, "internal_node_id": "0.0-179.0"}}, {"uniqueid": "MTK1219:33CID571050DUS9VHE36WDA08FI3LM", "current_trial": 243, "dateTime": 1513459561873, "trialdata": {"rt": -1000, "stimulus": "/static/audio/wordpool/BARLEY.wav", "key_press": -1, "type": "PRES_AUD", "word": "barley", "wordID": 87, "conditions": [24, 1600, "a", 24000], "trial": 6, "serialpos": 18, "trial_type": "single-audio", "trial_index": 243, "time_elapsed": 1095427, "internal_node_id": "0.0-180.0"}}, {"uniqueid": "MTK1219:33CID571050DUS9VHE36WDA08FI3LM", "current_trial": 244, "dateTime": 1513459564673, "trialdata": {"rt": -1000, "stimulus": "/static/audio/wordpool/FREEZER.wav", "key_press": -1, "type": "PRES_AUD", "word": "freezer", "wordID": 603, "conditions": [24, 1600, "a", 24000], "trial": 6, "serialpos": 19, "trial_type": "single-audio", "trial_index": 244, "time_elapsed": 1098227, "internal_node_id": "0.0-181.0"}}, {"uniqueid": "MTK1219:33CID571050DUS9VHE36WDA08FI3LM", "current_trial": 245, "dateTime": 1513459567466, "trialdata": {"rt": -1000, "stimulus": "/static/audio/wordpool/FOREHEAD.wav", "key_press": -1, "type": "PRES_AUD", "word": "forehead", "wordID": 591, "conditions": [24, 1600, "a", 24000], "trial": 6, "serialpos": 20, "trial_type": "single-audio", "trial_index": 245, "time_elapsed": 1101020, "internal_node_id": "0.0-182.0"}}, {"uniqueid": "MTK1219:33CID571050DUS9VHE36WDA08FI3LM", "current_trial": 246, "dateTime": 1513459570070, "trialdata": {"rt": -1000, "stimulus": "/static/audio/wordpool/GUITAR.wav", "key_press": -1, "type": "PRES_AUD", "word": "guitar", "wordID": 669, "conditions": [24, 1600, "a", 24000], "trial": 6, "serialpos": 21, "trial_type": "single-audio", "trial_index": 246, "time_elapsed": 1103623, "internal_node_id": "0.0-183.0"}}, {"uniqueid": "MTK1219:33CID571050DUS9VHE36WDA08FI3LM", "current_trial": 247, "dateTime": 1513459572788, "trialdata": {"rt": -1000, "stimulus": "/static/audio/wordpool/BISON.wav", "key_press": -1, "type": "PRES_AUD", "word": "bison", "wordID": 130, "conditions": [24, 1600, "a", 24000], "trial": 6, "serialpos": 22, "trial_type": "single-audio", "trial_index": 247, "time_elapsed": 1106342, "internal_node_id": "0.0-184.0"}}, {"uniqueid": "MTK1219:33CID571050DUS9VHE36WDA08FI3LM", "current_trial": 248, "dateTime": 1513459575208, "trialdata": {"rt": -1000, "stimulus": "/static/audio/wordpool/PORK.wav", "key_press": -1, "type": "PRES_AUD", "word": "pork", "wordID": 1107, "conditions": [24, 1600, "a", 24000], "trial": 6, "serialpos": 23, "trial_type": "single-audio", "trial_index": 248, "time_elapsed": 1108762, "internal_node_id": "0.0-185.0"}}, {"uniqueid": "MTK1219:33CID571050DUS9VHE36WDA08FI3LM", "current_trial": 249, "dateTime": 1513459576553, "trialdata": {"rt": -1, "stimulus": "", "key_press": -1, "type": "PRE_RECALL_DELAY", "trial_type": "single-stim", "trial_index": 249, "time_elapsed": 1110107, "internal_node_id": "0.0-186.0-0.0"}}, {"uniqueid": "MTK1219:33CID571050DUS9VHE36WDA08FI3LM", "current_trial": 250, "dateTime": 1513459577055, "trialdata": {"rt": -1000, "stimulus": "/static/audio/400Hz.wav", "key_press": -1, "type": "PRE_RECALL_ALERT", "trial_type": "single-audio", "trial_index": 250, "time_elapsed": 1110609, "internal_node_id": "0.0-187.0"}}, {"uniqueid": "MTK1219:33CID571050DUS9VHE36WDA08FI3LM", "current_trial": 251, "dateTime": 1513459637062, "trialdata": {"rt": [2720, 4865, 6977, 9012, 10219, 11742, 13861, 27265, 34303, 42013, 54981], "recwords": ["pork", "bison", "princess", "flesh", "guitar", "barley", "freezer", "candy", "branch", "piano", "preacher"], "type": "FREE_RECALL", "conditions": [24, 1600, "a", 24000], "trial": 6, "trial_type": "free-recall", "trial_index": 251, "time_elapsed": 1170613, "internal_node_id": "0.0-188.0-0.0"}}, {"uniqueid": "MTK1219:33CID571050DUS9VHE36WDA08FI3LM", "current_trial": 252, "dateTime": 1513459640644, "trialdata": {"rt": 1581, "key_press": 32, "type": "INSTRUCTIONS", "trial_type": "text", "trial_index": 252, "time_elapsed": 1174198, "internal_node_id": "0.0-189.0"}}, {"uniqueid": "MTK1219:33CID571050DUS9VHE36WDA08FI3LM", "current_trial": 253, "dateTime": 1513459654648, "trialdata": {"rt": [2087, 3887, 5711, 7341, 10285], "responses": ["9", "18", "16", "15", "21"], "num1": [6, 3, 9, 2, 6, 3], "num2": [1, 9, 4, 5, 8, 9], "num3": [2, 6, 3, 8, 7, 9], "type": "DISTRACTOR", "conditions": [12, 800, "a", 12000], "trial": 7, "trial_type": "math-distractor", "trial_index": 253, "time_elapsed": 1188202, "internal_node_id": "0.0-190.0"}}, {"uniqueid": "MTK1219:33CID571050DUS9VHE36WDA08FI3LM", "current_trial": 254, "dateTime": 1513459657652, "trialdata": {"rt": -1, "stimulus": "<p id=\"stim\">10</p>", "key_press": -1, "trial_type": "single-stim", "trial_index": 254, "time_elapsed": 1191205, "internal_node_id": "0.0-191.0-0.0"}}, {"uniqueid": "MTK1219:33CID571050DUS9VHE36WDA08FI3LM", "current_trial": 255, "dateTime": 1513459658654, "trialdata": {"rt": -1, "stimulus": "<p id=\"stim\">9</p>", "key_press": -1, "trial_type": "single-stim", "trial_index": 255, "time_elapsed": 1192207, "internal_node_id": "0.0-191.0-1.0"}}, {"uniqueid": "MTK1219:33CID571050DUS9VHE36WDA08FI3LM", "current_trial": 256, "dateTime": 1513459659655, "trialdata": {"rt": -1, "stimulus": "<p id=\"stim\">8</p>", "key_press": -1, "trial_type": "single-stim", "trial_index": 256, "time_elapsed": 1193209, "internal_node_id": "0.0-191.0-2.0"}}, {"uniqueid": "MTK1219:33CID571050DUS9VHE36WDA08FI3LM", "current_trial": 257, "dateTime": 1513459660657, "trialdata": {"rt": -1, "stimulus": "<p id=\"stim\">7</p>", "key_press": -1, "trial_type": "single-stim", "trial_index": 257, "time_elapsed": 1194211, "internal_node_id": "0.0-191.0-3.0"}}, {"uniqueid": "MTK1219:33CID571050DUS9VHE36WDA08FI3LM", "current_trial": 258, "dateTime": 1513459661659, "trialdata": {"rt": -1, "stimulus": "<p id=\"stim\">6</p>", "key_press": -1, "trial_type": "single-stim", "trial_index": 258, "time_elapsed": 1195213, "internal_node_id": "0.0-191.0-4.0"}}, {"uniqueid": "MTK1219:33CID571050DUS9VHE36WDA08FI3LM", "current_trial": 259, "dateTime": 1513459662661, "trialdata": {"rt": -1, "stimulus": "<p id=\"stim\">5</p>", "key_press": -1, "trial_type": "single-stim", "trial_index": 259, "time_elapsed": 1196214, "internal_node_id": "0.0-191.0-5.0"}}, {"uniqueid": "MTK1219:33CID571050DUS9VHE36WDA08FI3LM", "current_trial": 260, "dateTime": 1513459663663, "trialdata": {"rt": -1, "stimulus": "<p id=\"stim\">4</p>", "key_press": -1, "trial_type": "single-stim", "trial_index": 260, "time_elapsed": 1197217, "internal_node_id": "0.0-191.0-6.0"}}, {"uniqueid": "MTK1219:33CID571050DUS9VHE36WDA08FI3LM", "current_trial": 261, "dateTime": 1513459664664, "trialdata": {"rt": -1, "stimulus": "<p id=\"stim\">3</p>", "key_press": -1, "trial_type": "single-stim", "trial_index": 261, "time_elapsed": 1198218, "internal_node_id": "0.0-191.0-7.0"}}, {"uniqueid": "MTK1219:33CID571050DUS9VHE36WDA08FI3LM", "current_trial": 262, "dateTime": 1513459665666, "trialdata": {"rt": -1, "stimulus": "<p id=\"stim\">2</p>", "key_press": -1, "trial_type": "single-stim", "trial_index": 262, "time_elapsed": 1199220, "internal_node_id": "0.0-191.0-8.0"}}, {"uniqueid": "MTK1219:33CID571050DUS9VHE36WDA08FI3LM", "current_trial": 263, "dateTime": 1513459666667, "trialdata": {"rt": -1, "stimulus": "<p id=\"stim\">1</p>", "key_press": -1, "trial_type": "single-stim", "trial_index": 263, "time_elapsed": 1200221, "internal_node_id": "0.0-191.0-9.0"}}, {"uniqueid": "MTK1219:33CID571050DUS9VHE36WDA08FI3LM", "current_trial": 264, "dateTime": 1513459668170, "trialdata": {"rt": -1, "stimulus": "<p id=\"stim\">+</p>", "key_press": -1, "type": "FIXATION", "trial_type": "single-stim", "trial_index": 264, "time_elapsed": 1201723, "internal_node_id": "0.0-192.0-0.0"}}, {"uniqueid": "MTK1219:33CID571050DUS9VHE36WDA08FI3LM", "current_trial": 265, "dateTime": 1513459669806, "trialdata": {"rt": -1000, "stimulus": "/static/audio/wordpool/POSTAGE.wav", "key_press": -1, "type": "PRES_AUD", "word": "postage", "wordID": 1112, "conditions": [12, 800, "a", 12000], "trial": 7, "serialpos": 0, "trial_type": "single-audio", "trial_index": 265, "time_elapsed": 1203360, "internal_node_id": "0.0-193.0"}}, {"uniqueid": "MTK1219:33CID571050DUS9VHE36WDA08FI3LM", "current_trial": 266, "dateTime": 1513459671541, "trialdata": {"rt": -1000, "stimulus": "/static/audio/wordpool/PACKAGE.wav", "key_press": -1, "type": "PRES_AUD", "word": "package", "wordID": 996, "conditions": [12, 800, "a", 12000], "trial": 7, "serialpos": 1, "trial_type": "single-audio", "trial_index": 266, "time_elapsed": 1205095, "internal_node_id": "0.0-194.0"}}, {"uniqueid": "MTK1219:33CID571050DUS9VHE36WDA08FI3LM", "current_trial": 267, "dateTime": 1513459673441, "trialdata": {"rt": -1000, "stimulus": "/static/audio/wordpool/WINDOW.wav", "key_press": -1, "type": "PRES_AUD", "word": "window", "wordID": 1610, "conditions": [12, 800, "a", 12000], "trial": 7, "serialpos": 2, "trial_type": "single-audio", "trial_index": 267, "time_elapsed": 1206995, "internal_node_id": "0.0-195.0"}}, {"uniqueid": "MTK1219:33CID571050DUS9VHE36WDA08FI3LM", "current_trial": 268, "dateTime": 1513459675246, "trialdata": {"rt": -1000, "stimulus": "/static/audio/wordpool/FRANCE.wav", "key_press": -1, "type": "PRES_AUD", "word": "france", "wordID": 600, "conditions": [12, 800, "a", 12000], "trial": 7, "serialpos": 3, "trial_type": "single-audio", "trial_index": 268, "time_elapsed": 1208800, "internal_node_id": "0.0-196.0"}}, {"uniqueid": "MTK1219:33CID571050DUS9VHE36WDA08FI3LM", "current_trial": 269, "dateTime": 1513459677031, "trialdata": {"rt": -1000, "stimulus": "/static/audio/wordpool/BOUQUET.wav", "key_press": -1, "type": "PRES_AUD", "word": "bouquet", "wordID": 156, "conditions": [12, 800, "a", 12000], "trial": 7, "serialpos": 4, "trial_ty