{"assignmentId": "3Z7EFSHGNALW7MM3OQHV0A9HORZXCD", "workerId": "MTK1636", "questiondata": {"avail_screen_height": 728, "color_depth": 24, "screen_width": 1366, "pixel_depth": 24, "avail_screen_width": 1366, "screen_height": 768}, "bonus": 0, "hitId": "3XUY87HIVPLWZC1WX64Y352BTMJMMD", "counterbalance": 2477, "useragent": "Mozilla/5.0 (Windows NT 6.1; Win64; x64) AppleWebKit/537.36 (KHTML, like Gecko) Chrome/63.0.3239.132 Safari/537.36", "eventdata": [{"eventtype": "initialized", "interval": 0, "value": null, "timestamp": 1516060772783}, {"eventtype": "window_resize", "interval": 0, "value": [1366, 723], "timestamp": 1516060772783}, {"eventtype": "focus", "interval": 13682, "value": "on", "timestamp": 1516060786465}, {"eventtype": "focus", "interval": 1038511, "value": "off", "timestamp": 1516061824976}, {"eventtype": "focus", "interval": 11315, "value": "on", "timestamp": 1516061836291}, {"eventtype": "focus", "interval": 267174, "value": "off", "timestamp": 1516062103465}, {"eventtype": "focus", "interval": 25870, "value": "on", "timestamp": 1516062129335}, {"eventtype": "focus", "interval": 112865, "value": "off", "timestamp": 1516062242200}, {"eventtype": "focus", "interval": 13287, "value": "on", "timestamp": 1516062255487}, {"eventtype": "focus", "interval": 128803, "value": "off", "timestamp": 1516062384290}, {"eventtype": "focus", "interval": 26430, "value": "on", "timestamp": 1516062410720}, {"eventtype": "focus", "interval": 1426553, "value": "off", "timestamp": 1516063837273}], "data": [{"current_trial": 0, "trialdata": {"rt": 12454, "trial_type": "text", "internal_node_id": "0.0-0.0", "time_elapsed": 12462, "key_press": 77, "type": "INSTRUCTIONS", "trial_index": 0}, "uniqueid": "MTK1636:3Z7EFSHGNALW7MM3OQHV0A9HORZXCD", "dateTime": 1516060788629}, {"current_trial": 1, "trialdata": {"rt": 9835, "trial_type": "text", "internal_node_id": "0.0-1.0", "time_elapsed": 22305, "key_press": 66, "type": "INSTRUCTIONS", "trial_index": 1}, "uniqueid": "MTK1636:3Z7EFSHGNALW7MM3OQHV0A9HORZXCD", "dateTime": 1516060798469}, {"current_trial": 2, "trialdata": {"rt": [9625], "trial_type": "audio-test", "responses": ["ocean"], "internal_node_id": "0.0-2.0", "time_elapsed": 31985, "type": "AUDIO_TEST", "trial_index": 2}, "uniqueid": "MTK1636:3Z7EFSHGNALW7MM3OQHV0A9HORZXCD", "dateTime": 1516060808149}, {"current_trial": 3, "trialdata": {"rt": [19159], "trial_type": "audio-test", "responses": ["crystal"], "internal_node_id": "0.0-3.0", "time_elapsed": 51162, "type": "AUDIO_TEST", "trial_index": 3}, "uniqueid": "MTK1636:3Z7EFSHGNALW7MM3OQHV0A9HORZXCD", "dateTime": 1516060827326}, {"current_trial": 4, "trialdata": {"rt": [12433], "trial_type": "audio-test", "responses": ["spice"], "internal_node_id": "0.0-4.0", "time_elapsed": 63616, "type": "AUDIO_TEST", "trial_index": 4}, "uniqueid": "MTK1636:3Z7EFSHGNALW7MM3OQHV0A9HORZXCD", "dateTime": 1516060839780}, {"current_trial": 5, "trialdata": {"rt": 40158, "trial_type": "survey-text", "responses": "{\"Q0\":\"11.30\",\"Q1\":\"6.00\",\"Q2\":\"3\"}", "internal_node_id": "0.0-5.0", "time_elapsed": 104533, "type": "SLEEP_SURVEY", "trial_index": 5}, "uniqueid": "MTK1636:3Z7EFSHGNALW7MM3OQHV0A9HORZXCD", "dateTime": 1516060880698}, {"current_trial": 6, "trialdata": {"rt": 41707, "trial_type": "text", "internal_node_id": "0.0-6.0", "time_elapsed": 147245, "key_press": 70, "type": "INSTRUCTIONS", "trial_index": 6}, "uniqueid": "MTK1636:3Z7EFSHGNALW7MM3OQHV0A9HORZXCD", "dateTime": 1516060923409}, {"current_trial": 7, "trialdata": {"rt": 28272, "trial_type": "text", "internal_node_id": "0.0-7.0", "time_elapsed": 176020, "key_press": 76, "type": "INSTRUCTIONS", "trial_index": 7}, "uniqueid": "MTK1636:3Z7EFSHGNALW7MM3OQHV0A9HORZXCD", "dateTime": 1516060952184}, {"current_trial": 8, "trialdata": {"rt": 17559, "trial_type": "text", "internal_node_id": "0.0-8.0", "time_elapsed": 194081, "key_press": 75, "type": "INSTRUCTIONS", "trial_index": 8}, "uniqueid": "MTK1636:3Z7EFSHGNALW7MM3OQHV0A9HORZXCD", "dateTime": 1516060970245}, {"current_trial": 9, "trialdata": {"rt": [6835, 11111, 16458], "trial_type": "math-distractor", "key_times": [4592, 5966, 6835, 10071, 10416, 11111, 14975, 15357, 16458], "responses": ["13", "15", "21"], "num2": [2, 6, 9, 3], "num3": [4, 6, 7, 5], "conditions": [18, 1200, "v", 18000], "internal_node_id": "0.0-9.0", "key_presses": [97, 99, 13, 97, 101, 13, 98, 97, 13], "trial": 0, "time_elapsed": 213100, "type": "DISTRACTOR", "trial_index": 9, "num1": [7, 3, 5, 8]}, "uniqueid": "MTK1636:3Z7EFSHGNALW7MM3OQHV0A9HORZXCD", "dateTime": 1516060989264}, {"current_trial": 10, "trialdata": {"rt": -1, "trial_type": "single-stim", "stimulus": "<p id=\"stim\">10</p>", "internal_node_id": "0.0-10.0-0.0", "time_elapsed": 216106, "key_press": -1, "trial_index": 10}, "uniqueid": "MTK1636:3Z7EFSHGNALW7MM3OQHV0A9HORZXCD", "dateTime": 1516060992270}, {"current_trial": 11, "trialdata": {"rt": -1, "trial_type": "single-stim", "stimulus": "<p id=\"stim\">9</p>", "internal_node_id": "0.0-10.0-1.0", "time_elapsed": 217111, "key_press": -1, "trial_index": 11}, "uniqueid": "MTK1636:3Z7EFSHGNALW7MM3OQHV0A9HORZXCD", "dateTime": 1516060993275}, {"current_trial": 12, "trialdata": {"rt": -1, "trial_type": "single-stim", "stimulus": "<p id=\"stim\">8</p>", "internal_node_id": "0.0-10.0-2.0", "time_elapsed": 218114, "key_press": -1, "trial_index": 12}, "uniqueid": "MTK1636:3Z7EFSHGNALW7MM3OQHV0A9HORZXCD", "dateTime": 1516060994278}, {"current_trial": 13, "trialdata": {"rt": -1, "trial_type": "single-stim", "stimulus": "<p id=\"stim\">7</p>", "internal_node_id": "0.0-10.0-3.0", "time_elapsed": 219118, "key_press": -1, "trial_index": 13}, "uniqueid": "MTK1636:3Z7EFSHGNALW7MM3OQHV0A9HORZXCD", "dateTime": 1516060995282}, {"current_trial": 14, "trialdata": {"rt": -1, "trial_type": "single-stim", "stimulus": "<p id=\"stim\">6</p>", "internal_node_id": "0.0-10.0-4.0", "time_elapsed": 220121, "key_press": -1, "trial_index": 14}, "uniqueid": "MTK1636:3Z7EFSHGNALW7MM3OQHV0A9HORZXCD", "dateTime": 1516060996285}, {"current_trial": 15, "trialdata": {"rt": -1, "trial_type": "single-stim", "stimulus": "<p id=\"stim\">5</p>", "internal_node_id": "0.0-10.0-5.0", "time_elapsed": 221124, "key_press": -1, "trial_index": 15}, "uniqueid": "MTK1636:3Z7EFSHGNALW7MM3OQHV0A9HORZXCD", "dateTime": 1516060997289}, {"current_trial": 16, "trialdata": {"rt": -1, "trial_type": "single-stim", "stimulus": "<p id=\"stim\">4</p>", "internal_node_id": "0.0-10.0-6.0", "time_elapsed": 222129, "key_press": -1, "trial_index": 16}, "uniqueid": "MTK1636:3Z7EFSHGNALW7MM3OQHV0A9HORZXCD", "dateTime": 1516060998294}, {"current_trial": 17, "trialdata": {"rt": -1, "trial_type": "single-stim", "stimulus": "<p id=\"stim\">3</p>", "internal_node_id": "0.0-10.0-7.0", "time_elapsed": 223132, "key_press": -1, "trial_index": 17}, "uniqueid": "MTK1636:3Z7EFSHGNALW7MM3OQHV0A9HORZXCD", "dateTime": 1516060999296}, {"current_trial": 18, "trialdata": {"rt": -1, "trial_type": "single-stim", "stimulus": "<p id=\"stim\">2</p>", "internal_node_id": "0.0-10.0-8.0", "time_elapsed": 224135, "key_press": -1, "trial_index": 18}, "uniqueid": "MTK1636:3Z7EFSHGNALW7MM3OQHV0A9HORZXCD", "dateTime": 1516061000299}, {"current_trial": 19, "trialdata": {"rt": -1, "trial_type": "single-stim", "stimulus": "<p id=\"stim\">1</p>", "internal_node_id": "0.0-10.0-9.0", "time_elapsed": 225138, "key_press": -1, "trial_index": 19}, "uniqueid": "MTK1636:3Z7EFSHGNALW7MM3OQHV0A9HORZXCD", "dateTime": 1516061001302}, {"current_trial": 20, "trialdata": {"rt": -1, "trial_type": "single-stim", "stimulus": "<p id=\"stim\">+</p>", "internal_node_id": "0.0-11.0-0.0", "time_elapsed": 226643, "key_press": -1, "type": "FIXATION", "trial_index": 20}, "uniqueid": "MTK1636:3Z7EFSHGNALW7MM3OQHV0A9HORZXCD", "dateTime": 1516061002808}, {"current_trial": 21, "trialdata": {"rt": -1, "trial_type": "single-stim", "word": "quail", "stimulus": "<p id=\"stim\">QUAIL</p>", "conditions": [18, 1200, "v", 18000], "internal_node_id": "0.0-12.0", "trial": 0, "time_elapsed": 227857, "serialpos": 0, "key_press": -1, "wordID": 1146, "type": "PRES_VIS", "trial_index": 21}, "uniqueid": "MTK1636:3Z7EFSHGNALW7MM3OQHV0A9HORZXCD", "dateTime": 1516061004021}, {"current_trial": 22, "trialdata": {"rt": -1, "trial_type": "single-stim", "word": "sculpture", "stimulus": "<p id=\"stim\">SCULPTURE</p>", "conditions": [18, 1200, "v", 18000], "internal_node_id": "0.0-13.0", "trial": 0, "time_elapsed": 230153, "serialpos": 1, "key_press": -1, "wordID": 1257, "type": "PRES_VIS", "trial_index": 22}, "uniqueid": "MTK1636:3Z7EFSHGNALW7MM3OQHV0A9HORZXCD", "dateTime": 1516061006317}, {"current_trial": 23, "trialdata": {"rt": -1, "trial_type": "single-stim", "word": "fragrance", "stimulus": "<p id=\"stim\">FRAGRANCE</p>", "conditions": [18, 1200, "v", 18000], "internal_node_id": "0.0-14.0", "trial": 0, "time_elapsed": 232202, "serialpos": 2, "key_press": -1, "wordID": 598, "type": "PRES_VIS", "trial_index": 23}, "uniqueid": "MTK1636:3Z7EFSHGNALW7MM3OQHV0A9HORZXCD", "dateTime": 1516061008366}, {"current_trial": 24, "trialdata": {"rt": -1, "trial_type": "single-stim", "word": "xerox", "stimulus": "<p id=\"stim\">XEROX</p>", "conditions": [18, 1200, "v", 18000], "internal_node_id": "0.0-15.0", "trial": 0, "time_elapsed": 234317, "serialpos": 3, "key_press": -1, "wordID": 1627, "type": "PRES_VIS", "trial_index": 24}, "uniqueid": "MTK1636:3Z7EFSHGNALW7MM3OQHV0A9HORZXCD", "dateTime": 1516061010481}, {"current_trial": 25, "trialdata": {"rt": -1, "trial_type": "single-stim", "word": "asia", "stimulus": "<p id=\"stim\">ASIA</p>", "conditions": [18, 1200, "v", 18000], "internal_node_id": "0.0-16.0", "trial": 0, "time_elapsed": 236646, "serialpos": 4, "key_press": -1, "wordID": 45, "type": "PRES_VIS", "trial_index": 25}, "uniqueid": "MTK1636:3Z7EFSHGNALW7MM3OQHV0A9HORZXCD", "dateTime": 1516061012810}, {"current_trial": 26, "trialdata": {"rt": -1, "trial_type": "single-stim", "word": "clock", "stimulus": "<p id=\"stim\">CLOCK</p>", "conditions": [18, 1200, "v", 18000], "internal_node_id": "0.0-17.0", "trial": 0, "time_elapsed": 239053, "serialpos": 5, "key_press": -1, "wordID": 324, "type": "PRES_VIS", "trial_index": 26}, "uniqueid": "MTK1636:3Z7EFSHGNALW7MM3OQHV0A9HORZXCD", "dateTime": 1516061015217}, {"current_trial": 27, "trialdata": {"rt": -1, "trial_type": "single-stim", "word": "jello", "stimulus": "<p id=\"stim\">JELLO</p>", "conditions": [18, 1200, "v", 18000], "internal_node_id": "0.0-18.0", "trial": 0, "time_elapsed": 241409, "serialpos": 6, "key_press": -1, "wordID": 753, "type": "PRES_VIS", "trial_index": 27}, "uniqueid": "MTK1636:3Z7EFSHGNALW7MM3OQHV0A9HORZXCD", "dateTime": 1516061017573}, {"current_trial": 28, "trialdata": {"rt": -1, "trial_type": "single-stim", "word": "hawk", "stimulus": "<p id=\"stim\">HAWK</p>", "conditions": [18, 1200, "v", 18000], "internal_node_id": "0.0-19.0", "trial": 0, "time_elapsed": 243438, "serialpos": 7, "key_press": -1, "wordID": 691, "type": "PRES_VIS", "trial_index": 28}, "uniqueid": "MTK1636:3Z7EFSHGNALW7MM3OQHV0A9HORZXCD", "dateTime": 1516061019602}, {"current_trial": 29, "trialdata": {"rt": -1, "trial_type": "single-stim", "word": "report", "stimulus": "<p id=\"stim\">REPORT</p>", "conditions": [18, 1200, "v", 18000], "internal_node_id": "0.0-20.0", "trial": 0, "time_elapsed": 245817, "serialpos": 8, "key_press": -1, "wordID": 1183, "type": "PRES_VIS", "trial_index": 29}, "uniqueid": "MTK1636:3Z7EFSHGNALW7MM3OQHV0A9HORZXCD", "dateTime": 1516061021981}, {"current_trial": 30, "trialdata": {"rt": -1, "trial_type": "single-stim", "word": "powder", "stimulus": "<p id=\"stim\">POWDER</p>", "conditions": [18, 1200, "v", 18000], "internal_node_id": "0.0-21.0", "trial": 0, "time_elapsed": 247882, "serialpos": 9, "key_press": -1, "wordID": 1116, "type": "PRES_VIS", "trial_index": 30}, "uniqueid": "MTK1636:3Z7EFSHGNALW7MM3OQHV0A9HORZXCD", "dateTime": 1516061024046}, {"current_trial": 31, "trialdata": {"rt": -1, "trial_type": "single-stim", "word": "zipper", "stimulus": "<p id=\"stim\">ZIPPER</p>", "conditions": [18, 1200, "v", 18000], "internal_node_id": "0.0-22.0", "trial": 0, "time_elapsed": 250145, "serialpos": 10, "key_press": -1, "wordID": 1635, "type": "PRES_VIS", "trial_index": 31}, "uniqueid": "MTK1636:3Z7EFSHGNALW7MM3OQHV0A9HORZXCD", "dateTime": 1516061026309}, {"current_trial": 32, "trialdata": {"rt": -1, "trial_type": "single-stim", "word": "truck", "stimulus": "<p id=\"stim\">TRUCK</p>", "conditions": [18, 1200, "v", 18000], "internal_node_id": "0.0-23.0", "trial": 0, "time_elapsed": 252312, "serialpos": 11, "key_press": -1, "wordID": 1511, "type": "PRES_VIS", "trial_index": 32}, "uniqueid": "MTK1636:3Z7EFSHGNALW7MM3OQHV0A9HORZXCD", "dateTime": 1516061028476}, {"current_trial": 33, "trialdata": {"rt": -1, "trial_type": "single-stim", "word": "empire", "stimulus": "<p id=\"stim\">EMPIRE</p>", "conditions": [18, 1200, "v", 18000], "internal_node_id": "0.0-24.0", "trial": 0, "time_elapsed": 254440, "serialpos": 12, "key_press": -1, "wordID": 529, "type": "PRES_VIS", "trial_index": 33}, "uniqueid": "MTK1636:3Z7EFSHGNALW7MM3OQHV0A9HORZXCD", "dateTime": 1516061030605}, {"current_trial": 34, "trialdata": {"rt": -1, "trial_type": "single-stim", "word": "dolphin", "stimulus": "<p id=\"stim\">DOLPHIN</p>", "conditions": [18, 1200, "v", 18000], "internal_node_id": "0.0-25.0", "trial": 0, "time_elapsed": 256837, "serialpos": 13, "key_press": -1, "wordID": 482, "type": "PRES_VIS", "trial_index": 34}, "uniqueid": "MTK1636:3Z7EFSHGNALW7MM3OQHV0A9HORZXCD", "dateTime": 1516061033001}, {"current_trial": 35, "trialdata": {"rt": -1, "trial_type": "single-stim", "word": "kleenex", "stimulus": "<p id=\"stim\">KLEENEX</p>", "conditions": [18, 1200, "v", 18000], "internal_node_id": "0.0-26.0", "trial": 0, "time_elapsed": 259199, "serialpos": 14, "key_press": -1, "wordID": 781, "type": "PRES_VIS", "trial_index": 35}, "uniqueid": "MTK1636:3Z7EFSHGNALW7MM3OQHV0A9HORZXCD", "dateTime": 1516061035363}, {"current_trial": 36, "trialdata": {"rt": -1, "trial_type": "single-stim", "word": "office", "stimulus": "<p id=\"stim\">OFFICE</p>", "conditions": [18, 1200, "v", 18000], "internal_node_id": "0.0-27.0", "trial": 0, "time_elapsed": 261208, "serialpos": 15, "key_press": -1, "wordID": 971, "type": "PRES_VIS", "trial_index": 36}, "uniqueid": "MTK1636:3Z7EFSHGNALW7MM3OQHV0A9HORZXCD", "dateTime": 1516061037372}, {"current_trial": 37, "trialdata": {"rt": -1, "trial_type": "single-stim", "word": "hostess", "stimulus": "<p id=\"stim\">HOSTESS</p>", "conditions": [18, 1200, "v", 18000], "internal_node_id": "0.0-28.0", "trial": 0, "time_elapsed": 263426, "serialpos": 16, "key_press": -1, "wordID": 722, "type": "PRES_VIS", "trial_index": 37}, "uniqueid": "MTK1636:3Z7EFSHGNALW7MM3OQHV0A9HORZXCD", "dateTime": 1516061039591}, {"current_trial": 38, "trialdata": {"rt": -1, "trial_type": "single-stim", "word": "pigment", "stimulus": "<p id=\"stim\">PIGMENT</p>", "conditions": [18, 1200, "v", 18000], "internal_node_id": "0.0-29.0", "trial": 0, "time_elapsed": 265719, "serialpos": 17, "key_press": -1, "wordID": 1065, "type": "PRES_VIS", "trial_index": 38}, "uniqueid": "MTK1636:3Z7EFSHGNALW7MM3OQHV0A9HORZXCD", "dateTime": 1516061041883}, {"current_trial": 39, "trialdata": {"rt": -1, "trial_type": "single-stim", "stimulus": "", "internal_node_id": "0.0-30.0-0.0", "time_elapsed": 268021, "key_press": -1, "type": "PRE_RECALL_DELAY", "trial_index": 39}, "uniqueid": "MTK1636:3Z7EFSHGNALW7MM3OQHV0A9HORZXCD", "dateTime": 1516061044185}, {"current_trial": 40, "trialdata": {"rt": -1000, "trial_type": "single-audio", "stimulus": "/static/audio/400Hz.wav", "internal_node_id": "0.0-31.0", "time_elapsed": 268528, "key_press": -1, "type": "PRE_RECALL_ALERT", "trial_index": 40}, "uniqueid": "MTK1636:3Z7EFSHGNALW7MM3OQHV0A9HORZXCD", "dateTime": 1516061044692}, {"current_trial": 41, "trialdata": {"rt": [5535, 9637, 13630, 25830, 37844], "recwords": ["quiill", "office", "report", "", "network"], "key_times": [1804, 2720, 2935, 4175, 4525, 4702, 5535, 6581, 7242, 7412, 7970, 8583, 9016, 9637, 10601, 10865, 11518, 11709, 12398, 12621, 13630, 25830, 33992, 34515, 35070, 35367, 36007, 36659, 37346, 37844], "trial_type": "free-recall", "conditions": [18, 1200, "v", 18000], "internal_node_id": "0.0-32.0-0.0", "key_presses": [81, 85, 73, 73, 76, 76, 13, 79, 70, 70, 73, 67, 69, 13, 82, 69, 80, 79, 82, 84, 13, 13, 78, 69, 84, 87, 79, 82, 75, 13], "trial": 0, "time_elapsed": 328537, "type": "FREE_RECALL", "trial_index": 41}, "uniqueid": "MTK1636:3Z7EFSHGNALW7MM3OQHV0A9HORZXCD", "dateTime": 1516061104711}, {"current_trial": 42, "trialdata": {"rt": 3264, "trial_type": "text", "internal_node_id": "0.0-33.0", "time_elapsed": 333814, "key_press": 72, "type": "INSTRUCTIONS", "trial_index": 42}, "uniqueid": "MTK1636:3Z7EFSHGNALW7MM3OQHV0A9HORZXCD", "dateTime": 1516061109979}, {"current_trial": 43, "trialdata": {"rt": [4443, 6992, 13102, 15334], "trial_type": "math-distractor", "key_times": [3463, 4443, 6141, 6515, 6992, 12124, 12360, 13102, 14673, 14979, 15334, 17314, 17570], "responses": ["7", "17", "24", "17"], "num2": [5, 2, 9, 7, 1], "num3": [1, 8, 7, 1, 8], "conditions": [18, 1200, "v", 18000], "internal_node_id": "0.0-34.0", "key_presses": [103, 13, 97, 103, 13, 98, 100, 13, 97, 103, 13, 97, 96], "trial": 1, "time_elapsed": 353822, "type": "DISTRACTOR", "trial_index": 43, "num1": [1, 7, 8, 9, 1]}, "uniqueid": "MTK1636:3Z7EFSHGNALW7MM3OQHV0A9HORZXCD", "dateTime": 1516061129987}, {"current_trial": 44, "trialdata": {"rt": -1, "trial_type": "single-stim", "stimulus": "<p id=\"stim\">10</p>", "internal_node_id": "0.0-35.0-0.0", "time_elapsed": 356825, "key_press": -1, "trial_index": 44}, "uniqueid": "MTK1636:3Z7EFSHGNALW7MM3OQHV0A9HORZXCD", "dateTime": 1516061132989}, {"current_trial": 45, "trialdata": {"rt": -1, "trial_type": "single-stim", "stimulus": "<p id=\"stim\">9</p>", "internal_node_id": "0.0-35.0-1.0", "time_elapsed": 357828, "key_press": -1, "trial_index": 45}, "uniqueid": "MTK1636:3Z7EFSHGNALW7MM3OQHV0A9HORZXCD", "dateTime": 1516061133992}, {"current_trial": 46, "trialdata": {"rt": -1, "trial_type": "single-stim", "stimulus": "<p id=\"stim\">8</p>", "internal_node_id": "0.0-35.0-2.0", "time_elapsed": 358831, "key_press": -1, "trial_index": 46}, "uniqueid": "MTK1636:3Z7EFSHGNALW7MM3OQHV0A9HORZXCD", "dateTime": 1516061134995}, {"current_trial": 47, "trialdata": {"rt": -1, "trial_type": "single-stim", "stimulus": "<p id=\"stim\">7</p>", "internal_node_id": "0.0-35.0-3.0", "time_elapsed": 359834, "key_press": -1, "trial_index": 47}, "uniqueid": "MTK1636:3Z7EFSHGNALW7MM3OQHV0A9HORZXCD", "dateTime": 1516061135998}, {"current_trial": 48, "trialdata": {"rt": -1, "trial_type": "single-stim", "stimulus": "<p id=\"stim\">6</p>", "internal_node_id": "0.0-35.0-4.0", "time_elapsed": 360837, "key_press": -1, "trial_index": 48}, "uniqueid": "MTK1636:3Z7EFSHGNALW7MM3OQHV0A9HORZXCD", "dateTime": 1516061137001}, {"current_trial": 49, "trialdata": {"rt": -1, "trial_type": "single-stim", "stimulus": "<p id=\"stim\">5</p>", "internal_node_id": "0.0-35.0-5.0", "time_elapsed": 361840, "key_press": -1, "trial_index": 49}, "uniqueid": "MTK1636:3Z7EFSHGNALW7MM3OQHV0A9HORZXCD", "dateTime": 1516061138004}, {"current_trial": 50, "trialdata": {"rt": -1, "trial_type": "single-stim", "stimulus": "<p id=\"stim\">4</p>", "internal_node_id": "0.0-35.0-6.0", "time_elapsed": 362858, "key_press": -1, "trial_index": 50}, "uniqueid": "MTK1636:3Z7EFSHGNALW7MM3OQHV0A9HORZXCD", "dateTime": 1516061139022}, {"current_trial": 51, "trialdata": {"rt": -1, "trial_type": "single-stim", "stimulus": "<p id=\"stim\">3</p>", "internal_node_id": "0.0-35.0-7.0", "time_elapsed": 363861, "key_press": -1, "trial_index": 51}, "uniqueid": "MTK1636:3Z7EFSHGNALW7MM3OQHV0A9HORZXCD", "dateTime": 1516061140025}, {"current_trial": 52, "trialdata": {"rt": -1, "trial_type": "single-stim", "stimulus": "<p id=\"stim\">2</p>", "internal_node_id": "0.0-35.0-8.0", "time_elapsed": 364864, "key_press": -1, "trial_index": 52}, "uniqueid": "MTK1636:3Z7EFSHGNALW7MM3OQHV0A9HORZXCD", "dateTime": 1516061141028}, {"current_trial": 53, "trialdata": {"rt": -1, "trial_type": "single-stim", "stimulus": "<p id=\"stim\">1</p>", "internal_node_id": "0.0-35.0-9.0", "time_elapsed": 365867, "key_press": -1, "trial_index": 53}, "uniqueid": "MTK1636:3Z7EFSHGNALW7MM3OQHV0A9HORZXCD", "dateTime": 1516061142031}, {"current_trial": 54, "trialdata": {"rt": -1, "trial_type": "single-stim", "stimulus": "<p id=\"stim\">+</p>", "internal_node_id": "0.0-36.0-0.0", "time_elapsed": 367370, "key_press": -1, "type": "FIXATION", "trial_index": 54}, "uniqueid": "MTK1636:3Z7EFSHGNALW7MM3OQHV0A9HORZXCD", "dateTime": 1516061143534}, {"current_trial": 55, "trialdata": {"rt": -1, "trial_type": "single-stim", "word": "hiker", "stimulus": "<p id=\"stim\">HIKER</p>", "conditions": [18, 1200, "v", 18000], "internal_node_id": "0.0-37.0", "trial": 1, "time_elapsed": 368573, "serialpos": 0, "key_press": -1, "wordID": 707, "type": "PRES_VIS", "trial_index": 55}, "uniqueid": "MTK1636:3Z7EFSHGNALW7MM3OQHV0A9HORZXCD", "dateTime": 1516061144737}, {"current_trial": 56, "trialdata": {"rt": -1, "trial_type": "single-stim", "word": "fireplace", "stimulus": "<p id=\"stim\">FIREPLACE</p>", "conditions": [18, 1200, "v", 18000], "internal_node_id": "0.0-38.0", "trial": 1, "time_elapsed": 370815, "serialpos": 1, "key_press": -1, "wordID": 569, "type": "PRES_VIS", "trial_index": 56}, "uniqueid": "MTK1636:3Z7EFSHGNALW7MM3OQHV0A9HORZXCD", "dateTime": 1516061146979}, {"current_trial": 57, "trialdata": {"rt": -1, "trial_type": "single-stim", "word": "spool", "stimulus": "<p id=\"stim\">SPOOL</p>", "conditions": [18, 1200, "v", 18000], "internal_node_id": "0.0-39.0", "trial": 1, "time_elapsed": 372940, "serialpos": 2, "key_press": -1, "wordID": 1355, "type": "PRES_VIS", "trial_index": 57}, "uniqueid": "MTK1636:3Z7EFSHGNALW7MM3OQHV0A9HORZXCD", "dateTime": 1516061149104}, {"current_trial": 58, "trialdata": {"rt": -1, "trial_type": "single-stim", "word": "beaker", "stimulus": "<p id=\"stim\">BEAKER</p>", "conditions": [18, 1200, "v", 18000], "internal_node_id": "0.0-40.0", "trial": 1, "time_elapsed": 375234, "serialpos": 3, "key_press": -1, "wordID": 103, "type": "PRES_VIS", "trial_index": 58}, "uniqueid": "MTK1636:3Z7EFSHGNALW7MM3OQHV0A9HORZXCD", "dateTime": 1516061151398}, {"current_trial": 59, "trialdata": {"rt": -1, "trial_type": "single-stim", "word": "drink", "stimulus": "<p id=\"stim\">DRINK</p>", "conditions": [18, 1200, "v", 18000], "internal_node_id": "0.0-41.0", "trial": 1, "time_elapsed": 377452, "serialpos": 4, "key_press": -1, "wordID": 497, "type": "PRES_VIS", "trial_index": 59}, "uniqueid": "MTK1636:3Z7EFSHGNALW7MM3OQHV0A9HORZXCD", "dateTime": 1516061153616}, {"current_trial": 60, "trialdata": {"rt": -1, "trial_type": "single-stim", "word": "turtle", "stimulus": "<p id=\"stim\">TURTLE</p>", "conditions": [18, 1200, "v", 18000], "internal_node_id": "0.0-42.0", "trial": 1, "time_elapsed": 379510, "serialpos": 5, "key_press": -1, "wordID": 1521, "type": "PRES_VIS", "trial_index": 60}, "uniqueid": "MTK1636:3Z7EFSHGNALW7MM3OQHV0A9HORZXCD", "dateTime": 1516061155674}, {"current_trial": 61, "trialdata": {"rt": -1, "trial_type": "single-stim", "word": "lumber", "stimulus": "<p id=\"stim\">LUMBER</p>", "conditions": [18, 1200, "v", 18000], "internal_node_id": "0.0-43.0", "trial": 1, "time_elapsed": 381583, "serialpos": 6, "key_press": -1, "wordID": 847, "type": "PRES_VIS", "trial_index": 61}, "uniqueid": "MTK1636:3Z7EFSHGNALW7MM3OQHV0A9HORZXCD", "dateTime": 1516061157747}, {"current_trial": 62, "trialdata": {"rt": -1, "trial_type": "single-stim", "word": "glove", "stimulus": "<p id=\"stim\">GLOVE</p>", "conditions": [18, 1200, "v", 18000], "internal_node_id": "0.0-44.0", "trial": 1, "time_elapsed": 383796, "serialpos": 7, "key_press": -1, "wordID": 641, "type": "PRES_VIS", "trial_index": 62}, "uniqueid": "MTK1636:3Z7EFSHGNALW7MM3OQHV0A9HORZXCD", "dateTime": 1516061159960}, {"current_trial": 63, "trialdata": {"rt": -1, "trial_type": "single-stim", "word": "message", "stimulus": "<p id=\"stim\">MESSAGE</p>", "conditions": [18, 1200, "v", 18000], "internal_node_id": "0.0-45.0", "trial": 1, "time_elapsed": 385929, "serialpos": 8, "key_press": -1, "wordID": 887, "type": "PRES_VIS", "trial_index": 63}, "uniqueid": "MTK1636:3Z7EFSHGNALW7MM3OQHV0A9HORZXCD", "dateTime": 1516061162093}, {"current_trial": 64, "trialdata": {"rt": -1, "trial_type": "single-stim", "word": "dandruff", "stimulus": "<p id=\"stim\">DANDRUFF</p>", "conditions": [18, 1200, "v", 18000], "internal_node_id": "0.0-46.0", "trial": 1, "time_elapsed": 387959, "serialpos": 9, "key_press": -1, "wordID": 438, "type": "PRES_VIS", "trial_index": 64}, "uniqueid": "MTK1636:3Z7EFSHGNALW7MM3OQHV0A9HORZXCD", "dateTime": 1516061164123}, {"current_trial": 65, "trialdata": {"rt": -1, "trial_type": "single-stim", "word": "actor", "stimulus": "<p id=\"stim\">ACTOR</p>", "conditions": [18, 1200, "v", 18000], "internal_node_id": "0.0-47.0", "trial": 1, "time_elapsed": 390137, "serialpos": 10, "key_press": -1, "wordID": 4, "type": "PRES_VIS", "trial_index": 65}, "uniqueid": "MTK1636:3Z7EFSHGNALW7MM3OQHV0A9HORZXCD", "dateTime": 1516061166301}, {"current_trial": 66, "trialdata": {"rt": -1, "trial_type": "single-stim", "word": "silk", "stimulus": "<p id=\"stim\">SILK</p>", "conditions": [18, 1200, "v", 18000], "internal_node_id": "0.0-48.0", "trial": 1, "time_elapsed": 392355, "serialpos": 11, "key_press": -1, "wordID": 1306, "type": "PRES_VIS", "trial_index": 66}, "uniqueid": "MTK1636:3Z7EFSHGNALW7MM3OQHV0A9HORZXCD", "dateTime": 1516061168519}, {"current_trial": 67, "trialdata": {"rt": -1, "trial_type": "single-stim", "word": "trombone", "stimulus": "<p id=\"stim\">TROMBONE</p>", "conditions": [18, 1200, "v", 18000], "internal_node_id": "0.0-49.0", "trial": 1, "time_elapsed": 394686, "serialpos": 12, "key_press": -1, "wordID": 1507, "type": "PRES_VIS", "trial_index": 67}, "uniqueid": "MTK1636:3Z7EFSHGNALW7MM3OQHV0A9HORZXCD", "dateTime": 1516061170850}, {"current_trial": 68, "trialdata": {"rt": -1, "trial_type": "single-stim", "word": "seagull", "stimulus": "<p id=\"stim\">SEAGULL</p>", "conditions": [18, 1200, "v", 18000], "internal_node_id": "0.0-50.0", "trial": 1, "time_elapsed": 396901, "serialpos": 13, "key_press": -1, "wordID": 1260, "type": "PRES_VIS", "trial_index": 68}, "uniqueid": "MTK1636:3Z7EFSHGNALW7MM3OQHV0A9HORZXCD", "dateTime": 1516061173074}, {"current_trial": 69, "trialdata": {"rt": -1, "trial_type": "single-stim", "word": "concert", "stimulus": "<p id=\"stim\">CONCERT</p>", "conditions": [18, 1200, "v", 18000], "internal_node_id": "0.0-51.0", "trial": 1, "time_elapsed": 399002, "serialpos": 14, "key_press": -1, "wordID": 359, "type": "PRES_VIS", "trial_index": 69}, "uniqueid": "MTK1636:3Z7EFSHGNALW7MM3OQHV0A9HORZXCD", "dateTime": 1516061175166}, {"current_trial": 70, "trialdata": {"rt": -1, "trial_type": "single-stim", "word": "mustard", "stimulus": "<p id=\"stim\">MUSTARD</p>", "conditions": [18, 1200, "v", 18000], "internal_node_id": "0.0-52.0", "trial": 1, "time_elapsed": 401231, "serialpos": 15, "key_press": -1, "wordID": 934, "type": "PRES_VIS", "trial_index": 70}, "uniqueid": "MTK1636:3Z7EFSHGNALW7MM3OQHV0A9HORZXCD", "dateTime": 1516061177395}, {"current_trial": 71, "trialdata": {"rt": -1, "trial_type": "single-stim", "word": "patrol", "stimulus": "<p id=\"stim\">PATROL</p>", "conditions": [18, 1200, "v", 18000], "internal_node_id": "0.0-53.0", "trial": 1, "time_elapsed": 403296, "serialpos": 16, "key_press": -1, "wordID": 1026, "type": "PRES_VIS", "trial_index": 71}, "uniqueid": "MTK1636:3Z7EFSHGNALW7MM3OQHV0A9HORZXCD", "dateTime": 1516061179460}, {"current_trial": 72, "trialdata": {"rt": -1, "trial_type": "single-stim", "word": "cattle", "stimulus": "<p id=\"stim\">CATTLE</p>", "conditions": [18, 1200, "v", 18000], "internal_node_id": "0.0-54.0", "trial": 1, "time_elapsed": 405690, "serialpos": 17, "key_press": -1, "wordID": 260, "type": "PRES_VIS", "trial_index": 72}, "uniqueid": "MTK1636:3Z7EFSHGNALW7MM3OQHV0A9HORZXCD", "dateTime": 1516061181854}, {"current_trial": 73, "trialdata": {"rt": -1, "trial_type": "single-stim", "stimulus": "", "internal_node_id": "0.0-55.0-0.0", "time_elapsed": 408001, "key_press": -1, "type": "PRE_RECALL_DELAY", "trial_index": 73}, "uniqueid": "MTK1636:3Z7EFSHGNALW7MM3OQHV0A9HORZXCD", "dateTime": 1516061184165}, {"current_trial": 74, "trialdata": {"rt": -1000, "trial_type": "single-audio", "stimulus": "/static/audio/400Hz.wav", "internal_node_id": "0.0-56.0", "time_elapsed": 408505, "key_press": -1, "type": "PRE_RECALL_ALERT", "trial_index": 74}, "uniqueid": "MTK1636:3Z7EFSHGNALW7MM3OQHV0A9HORZXCD", "dateTime": 1516061184669}, {"current_trial": 75, "trialdata": {"rt": [3300, 7722, 10796, 18119, 21341, 33343], "recwords": ["silk", "dandruff", "spool", "fireplace", "drink", "police"], "key_times": [1086, 1778, 2438, 2677, 3300, 4213, 4560, 5063, 5597, 5884, 6579, 7007, 7175, 7722, 8533, 9114, 9480, 9657, 10120, 10796, 11686, 12183, 12963, 13502, 14101, 14401, 15044, 15343, 16175, 16919, 17189, 18119, 19032, 19243, 20165, 20529, 20827, 21341, 30238, 30430, 30642, 31042, 32063, 32422, 33343], "trial_type": "free-recall", "conditions": [18, 1200, "v", 18000], "internal_node_id": "0.0-57.0-0.0", "key_presses": [83, 73, 76, 75, 13, 68, 65, 78, 68, 82, 85, 70, 70, 13, 83, 80, 79, 79, 76, 13, 70, 79, 8, 73, 82, 69, 80, 76, 65, 67, 69, 13, 68, 82, 73, 78, 75, 13, 80, 79, 76, 73, 67, 69, 13], "trial": 1, "time_elapsed": 468513, "type": "FREE_RECALL", "trial_index": 75}, "uniqueid": "MTK1636:3Z7EFSHGNALW7MM3OQHV0A9HORZXCD", "dateTime": 1516061244685}, {"current_trial": 76, "trialdata": {"rt": 5487, "trial_type": "text", "internal_node_id": "0.0-58.0", "time_elapsed": 476011, "key_press": 66, "type": "INSTRUCTIONS", "trial_index": 76}, "uniqueid": "MTK1636:3Z7EFSHGNALW7MM3OQHV0A9HORZXCD", "dateTime": 1516061252175}, {"current_trial": 77, "trialdata": {"rt": [3399, 7407, 10039], "trial_type": "math-distractor", "key_times": [2412, 2658, 3399, 6032, 6253, 7407, 9648, 10039], "responses": ["10", "21", "9"], "num2": [5, 9, 2, 1], "num3": [2, 9, 3, 3], "conditions": [24, 1600, "v", 12000], "internal_node_id": "0.0-59.0", "key_presses": [97, 96, 13, 98, 97, 13, 105, 13], "trial": 2, "time_elapsed": 489018, "type": "DISTRACTOR", "trial_index": 77, "num1": [3, 3, 4, 2]}, "uniqueid": "MTK1636:3Z7EFSHGNALW7MM3OQHV0A9HORZXCD", "dateTime": 1516061265182}, {"current_trial": 78, "trialdata": {"rt": -1, "trial_type": "single-stim", "stimulus": "<p id=\"stim\">10</p>", "internal_node_id": "0.0-60.0-0.0", "time_elapsed": 492020, "key_press": -1, "trial_index": 78}, "uniqueid": "MTK1636:3Z7EFSHGNALW7MM3OQHV0A9HORZXCD", "dateTime": 1516061268184}, {"current_trial": 79, "trialdata": {"rt": -1, "trial_type": "single-stim", "stimulus": "<p id=\"stim\">9</p>", "internal_node_id": "0.0-60.0-1.0", "time_elapsed": 493023, "key_press": -1, "trial_index": 79}, "uniqueid": "MTK1636:3Z7EFSHGNALW7MM3OQHV0A9HORZXCD", "dateTime": 1516061269187}, {"current_trial": 80, "trialdata": {"rt": -1, "trial_type": "single-stim", "stimulus": "<p id=\"stim\">8</p>", "internal_node_id": "0.0-60.0-2.0", "time_elapsed": 494026, "key_press": -1, "trial_index": 80}, "uniqueid": "MTK1636:3Z7EFSHGNALW7MM3OQHV0A9HORZXCD", "dateTime": 1516061270190}, {"current_trial": 81, "trialdata": {"rt": -1, "trial_type": "single-stim", "stimulus": "<p id=\"stim\">7</p>", "internal_node_id": "0.0-60.0-3.0", "time_elapsed": 495029, "key_press": -1, "trial_index": 81}, "uniqueid": "MTK1636:3Z7EFSHGNALW7MM3OQHV0A9HORZXCD", "dateTime": 1516061271193}, {"current_trial": 82, "trialdata": {"rt": -1, "trial_type": "single-stim", "stimulus": "<p id=\"stim\">6</p>", "internal_node_id": "0.0-60.0-4.0", "time_elapsed": 496032, "key_press": -1, "trial_index": 82}, "uniqueid": "MTK1636:3Z7EFSHGNALW7MM3OQHV0A9HORZXCD", "dateTime": 1516061272196}, {"current_trial": 83, "trialdata": {"rt": -1, "trial_type": "single-stim", "stimulus": "<p id=\"stim\">5</p>", "internal_node_id": "0.0-60.0-5.0", "time_elapsed": 497035, "key_press": -1, "trial_index": 83}, "uniqueid": "MTK1636:3Z7EFSHGNALW7MM3OQHV0A9HORZXCD", "dateTime": 1516061273199}, {"current_trial": 84, "trialdata": {"rt": -1, "trial_type": "single-stim", "stimulus": "<p id=\"stim\">4</p>", "internal_node_id": "0.0-60.0-6.0", "time_elapsed": 498038, "key_press": -1, "trial_index": 84}, "uniqueid": "MTK1636:3Z7EFSHGNALW7MM3OQHV0A9HORZXCD", "dateTime": 1516061274202}, {"current_trial": 85, "trialdata": {"rt": -1, "trial_type": "single-stim", "stimulus": "<p id=\"stim\">3</p>", "internal_node_id": "0.0-60.0-7.0", "time_elapsed": 499041, "key_press": -1, "trial_index": 85}, "uniqueid": "MTK1636:3Z7EFSHGNALW7MM3OQHV0A9HORZXCD", "dateTime": 1516061275205}, {"current_trial": 86, "trialdata": {"rt": -1, "trial_type": "single-stim", "stimulus": "<p id=\"stim\">2</p>", "internal_node_id": "0.0-60.0-8.0", "time_elapsed": 500046, "key_press": -1, "trial_index": 86}, "uniqueid": "MTK1636:3Z7EFSHGNALW7MM3OQHV0A9HORZXCD", "dateTime": 1516061276210}, {"current_trial": 87, "trialdata": {"rt": -1, "trial_type": "single-stim", "stimulus": "<p id=\"stim\">1</p>", "internal_node_id": "0.0-60.0-9.0", "time_elapsed": 501049, "key_press": -1, "trial_index": 87}, "uniqueid": "MTK1636:3Z7EFSHGNALW7MM3OQHV0A9HORZXCD", "dateTime": 1516061277213}, {"current_trial": 88, "trialdata": {"rt": -1, "trial_type": "single-stim", "stimulus": "<p id=\"stim\">+</p>", "internal_node_id": "0.0-61.0-0.0", "time_elapsed": 502552, "key_press": -1, "type": "FIXATION", "trial_index": 88}, "uniqueid": "MTK1636:3Z7EFSHGNALW7MM3OQHV0A9HORZXCD", "dateTime": 1516061278716}, {"current_trial": 89, "trialdata": {"rt": -1, "trial_type": "single-stim", "word": "camel", "stimulus": "<p id=\"stim\">CAMEL</p>", "conditions": [24, 1600, "v", 12000], "internal_node_id": "0.0-62.0", "trial": 2, "time_elapsed": 504155, "serialpos": 0, "key_press": -1, "wordID": 222, "type": "PRES_VIS", "trial_index": 89}, "uniqueid": "MTK1636:3Z7EFSHGNALW7MM3OQHV0A9HORZXCD", "dateTime": 1516061280319}, {"current_trial": 90, "trialdata": {"rt": -1, "trial_type": "single-stim", "word": "missile", "stimulus": "<p id=\"stim\">MISSILE</p>", "conditions": [24, 1600, "v", 12000], "internal_node_id": "0.0-63.0", "trial": 2, "time_elapsed": 506764, "serialpos": 1, "key_press": -1, "wordID": 899, "type": "PRES_VIS", "trial_index": 90}, "uniqueid": "MTK1636:3Z7EFSHGNALW7MM3OQHV0A9HORZXCD", "dateTime": 1516061282928}, {"current_trial": 91, "trialdata": {"rt": -1, "trial_type": "single-stim", "word": "beaver", "stimulus": "<p id=\"stim\">BEAVER</p>", "conditions": [24, 1600, "v", 12000], "internal_node_id": "0.0-64.0", "trial": 2, "time_elapsed": 509490, "serialpos": 2, "key_press": -1, "wordID": 108, "type": "PRES_VIS", "trial_index": 91}, "uniqueid": "MTK1636:3Z7EFSHGNALW7MM3OQHV0A9HORZXCD", "dateTime": 1516061285654}, {"current_trial": 92, "trialdata": {"rt": -1, "trial_type": "single-stim", "word": "brick", "stimulus": "<p id=\"stim\">BRICK</p>", "conditions": [24, 1600, "v", 12000], "internal_node_id": "0.0-65.0", "trial": 2, "time_elapsed": 512251, "serialpos": 3, "key_press": -1, "wordID": 171, "type": "PRES_VIS", "trial_index": 92}, "uniqueid": "MTK1636:3Z7EFSHGNALW7MM3OQHV0A9HORZXCD", "dateTime": 1516061288415}, {"current_trial": 93, "trialdata": {"rt": -1, "trial_type": "single-stim", "word": "tribe", "stimulus": "<p id=\"stim\">TRIBE</p>", "conditions": [24, 1600, "v", 12000], "internal_node_id": "0.0-66.0", "trial": 2, "time_elapsed": 514908, "serialpos": 4, "key_press": -1, "wordID": 1504, "type": "PRES_VIS", "trial_index": 93}, "uniqueid": "MTK1636:3Z7EFSHGNALW7MM3OQHV0A9HORZXCD", "dateTime": 1516061291072}, {"current_trial": 94, "trialdata": {"rt": -1, "trial_type": "single-stim", "word": "crater", "stimulus": "<p id=\"stim\">CRATER</p>", "conditions": [24, 1600, "v", 12000], "internal_node_id": "0.0-67.0", "trial": 2, "time_elapsed": 517388, "serialpos": 5, "key_press": -1, "wordID": 399, "type": "PRES_VIS", "trial_index": 94}, "uniqueid": "MTK1636:3Z7EFSHGNALW7MM3OQHV0A9HORZXCD", "dateTime": 1516061293552}, {"current_trial": 95, "trialdata": {"rt": -1, "trial_type": "single-stim", "word": "lava", "stimulus": "<p id=\"stim\">LAVA</p>", "conditions": [24, 1600, "v", 12000], "internal_node_id": "0.0-68.0", "trial": 2, "time_elapsed": 519880, "serialpos": 6, "key_press": -1, "wordID": 803, "type": "PRES_VIS", "trial_index": 95}, "uniqueid": "MTK1636:3Z7EFSHGNALW7MM3OQHV0A9HORZXCD", "dateTime": 1516061296047}, {"current_trial": 96, "trialdata": {"rt": -1, "trial_type": "single-stim", "word": "blueprint", "stimulus": "<p id=\"stim\">BLUEPRINT</p>", "conditions": [24, 1600, "v", 12000], "internal_node_id": "0.0-69.0", "trial": 2, "time_elapsed": 522582, "serialpos": 7, "key_press": -1, "wordID": 141, "type": "PRES_VIS", "trial_index": 96}, "uniqueid": "MTK1636:3Z7EFSHGNALW7MM3OQHV0A9HORZXCD", "dateTime": 1516061298746}, {"current_trial": 97, "trialdata": {"rt": -1, "trial_type": "single-stim", "word": "rocket", "stimulus": "<p id=\"stim\">ROCKET</p>", "conditions": [24, 1600, "v", 12000], "internal_node_id": "0.0-70.0", "trial": 2, "time_elapsed": 525213, "serialpos": 8, "key_press": -1, "wordID": 1201, "type": "PRES_VIS", "trial_index": 97}, "uniqueid": "MTK1636:3Z7EFSHGNALW7MM3OQHV0A9HORZXCD", "dateTime": 1516061301377}, {"current_trial": 98, "trialdata": {"rt": -1, "trial_type": "single-stim", "word": "mars", "stimulus": "<p id=\"stim\">MARS</p>", "conditions": [24, 1600, "v", 12000], "internal_node_id": "0.0-71.0", "trial": 2, "time_elapsed": 527668, "serialpos": 9, "key_press": -1, "wordID": 872, "type": "PRES_VIS", "trial_index": 98}, "uniqueid": "MTK1636:3Z7EFSHGNALW7MM3OQHV0A9HORZXCD", "dateTime": 1516061303832}, {"current_trial": 99, "trialdata": {"rt": -1, "trial_type": "single-stim", "word": "france", "stimulus": "<p id=\"stim\">FRANCE</p>", "conditions": [24, 1600, "v", 12000], "internal_node_id": "0.0-72.0", "trial": 2, "time_elapsed": 530244, "serialpos": 10, "key_press": -1, "wordID": 600, "type": "PRES_VIS", "trial_index": 99}, "uniqueid": "MTK1636:3Z7EFSHGNALW7MM3OQHV0A9HORZXCD", "dateTime": 1516061306408}, {"current_trial": 100, "trialdata": {"rt": -1, "trial_type": "single-stim", "word": "grill", "stimulus": "<p id=\"stim\">GRILL</p>", "conditions": [24, 1600, "v", 12000], "internal_node_id": "0.0-73.0", "trial": 2, "time_elapsed": 532755, "serialpos": 11, "key_press": -1, "wordID": 660, "type": "PRES_VIS", "trial_index": 100}, "uniqueid": "MTK1636:3Z7EFSHGNALW7MM3OQHV0A9HORZXCD", "dateTime": 1516061308919}, {"current_trial": 101, "trialdata": {"rt": -1, "trial_type": "single-stim", "word": "beast", "stimulus": "<p id=\"stim\">BEAST</p>", "conditions": [24, 1600, "v", 12000], "internal_node_id": "0.0-74.0", "trial": 2, "time_elapsed": 535518, "serialpos": 12, "key_press": -1, "wordID": 107, "type": "PRES_VIS", "trial_index": 101}, "uniqueid": "MTK1636:3Z7EFSHGNALW7MM3OQHV0A9HORZXCD", "dateTime": 1516061311682}, {"current_trial": 102, "trialdata": {"rt": -1, "trial_type": "single-stim", "word": "sibling", "stimulus": "<p id=\"stim\">SIBLING</p>", "conditions": [24, 1600, "v", 12000], "internal_node_id": "0.0-75.0", "trial": 2, "time_elapsed": 538123, "serialpos": 13, "key_press": -1, "wordID": 1300, "type": "PRES_VIS", "trial_index": 102}, "uniqueid": "MTK1636:3Z7EFSHGNALW7MM3OQHV0A9HORZXCD", "dateTime": 1516061314287}, {"current_trial": 103, "trialdata": {"rt": -1, "trial_type": "single-stim", "word": "mattress", "stimulus": "<p id=\"stim\">MATTRESS</p>", "conditions": [24, 1600, "v", 12000], "internal_node_id": "0.0-76.0", "trial": 2, "time_elapsed": 540595, "serialpos": 14, "key_press": -1, "wordID": 878, "type": "PRES_VIS", "trial_index": 103}, "uniqueid": "MTK1636:3Z7EFSHGNALW7MM3OQHV0A9HORZXCD", "dateTime": 1516061316759}, {"current_trial": 104, "trialdata": {"rt": -1, "trial_type": "single-stim", "word": "county", "stimulus": "<p id=\"stim\">COUNTY</p>", "conditions": [24, 1600, "v", 12000], "internal_node_id": "0.0-77.0", "trial": 2, "time_elapsed": 543043, "serialpos": 15, "key_press": -1, "wordID": 388, "type": "PRES_VIS", "trial_index": 104}, "uniqueid": "MTK1636:3Z7EFSHGNALW7MM3OQHV0A9HORZXCD", "dateTime": 1516061319207}, {"current_trial": 105, "trialdata": {"rt": -1, "trial_type": "single-stim", "word": "poet", "stimulus": "<p id=\"stim\">POET</p>", "conditions": [24, 1600, "v", 12000], "internal_node_id": "0.0-78.0", "trial": 2, "time_elapsed": 545759, "serialpos": 16, "key_press": -1, "wordID": 1094, "type": "PRES_VIS", "trial_index": 105}, "uniqueid": "MTK1636:3Z7EFSHGNALW7MM3OQHV0A9HORZXCD", "dateTime": 1516061321923}, {"current_trial": 106, "trialdata": {"rt": -1, "trial_type": "single-stim", "word": "lily", "stimulus": "<p id=\"stim\">LILY</p>", "conditions": [24, 1600, "v", 12000], "internal_node_id": "0.0-79.0", "trial": 2, "time_elapsed": 548317, "serialpos": 17, "key_press": -1, "wordID": 820, "type": "PRES_VIS", "trial_index": 106}, "uniqueid": "MTK1636:3Z7EFSHGNALW7MM3OQHV0A9HORZXCD", "dateTime": 1516061324481}, {"current_trial": 107, "trialdata": {"rt": -1, "trial_type": "single-stim", "word": "europe", "stimulus": "<p id=\"stim\">EUROPE</p>", "conditions": [24, 1600, "v", 12000], "internal_node_id": "0.0-80.0", "trial": 2, "time_elapsed": 551037, "serialpos": 18, "key_press": -1, "wordID": 540, "type": "PRES_VIS", "trial_index": 107}, "uniqueid": "MTK1636:3Z7EFSHGNALW7MM3OQHV0A9HORZXCD", "dateTime": 1516061327201}, {"current_trial": 108, "trialdata": {"rt": -1, "trial_type": "single-stim", "word": "turnip", "stimulus": "<p id=\"stim\">TURNIP</p>", "conditions": [24, 1600, "v", 12000], "internal_node_id": "0.0-81.0", "trial": 2, "time_elapsed": 553733, "serialpos": 19, "key_press": -1, "wordID": 1520, "type": "PRES_VIS", "trial_index": 108}, "uniqueid": "MTK1636:3Z7EFSHGNALW7MM3OQHV0A9HORZXCD", "dateTime": 1516061329897}, {"current_trial": 109, "trialdata": {"rt": -1, "trial_type": "single-stim", "word": "cabbage", "stimulus": "<p id=\"stim\">CABBAGE</p>", "conditions": [24, 1600, "v", 12000], "internal_node_id": "0.0-82.0", "trial": 2, "time_elapsed": 556519, "serialpos": 20, "key_press": -1, "wordID": 209, "type": "PRES_VIS", "trial_index": 109}, "uniqueid": "MTK1636:3Z7EFSHGNALW7MM3OQHV0A9HORZXCD", "dateTime": 1516061332683}, {"current_trial": 110, "trialdata": {"rt": -1, "trial_type": "single-stim", "word": "sticker", "stimulus": "<p id=\"stim\">STICKER</p>", "conditions": [24, 1600, "v", 12000], "internal_node_id": "0.0-83.0", "trial": 2, "time_elapsed": 559146, "serialpos": 21, "key_press": -1, "wordID": 1381, "type": "PRES_VIS", "trial_index": 110}, "uniqueid": "MTK1636:3Z7EFSHGNALW7MM3OQHV0A9HORZXCD", "dateTime": 1516061335310}, {"current_trial": 111, "trialdata": {"rt": -1, "trial_type": "single-stim", "word": "monster", "stimulus": "<p id=\"stim\">MONSTER</p>", "conditions": [24, 1600, "v", 12000], "internal_node_id": "0.0-84.0", "trial": 2, "time_elapsed": 561569, "serialpos": 22, "key_press": -1, "wordID": 911, "type": "PRES_VIS", "trial_index": 111}, "uniqueid": "MTK1636:3Z7EFSHGNALW7MM3OQHV0A9HORZXCD", "dateTime": 1516061337733}, {"current_trial": 112, "trialdata": {"rt": -1, "trial_type": "single-stim", "word": "shelter", "stimulus": "<p id=\"stim\">SHELTER</p>", "conditions": [24, 1600, "v", 12000], "internal_node_id": "0.0-85.0", "trial": 2, "time_elapsed": 564097, "serialpos": 23, "key_press": -1, "wordID": 1281, "type": "PRES_VIS", "trial_index": 112}, "uniqueid": "MTK1636:3Z7EFSHGNALW7MM3OQHV0A9HORZXCD", "dateTime": 1516061340261}, {"current_trial": 113, "trialdata": {"rt": -1, "trial_type": "single-stim", "stimulus": "", "internal_node_id": "0.0-86.0-0.0", "time_elapsed": 566512, "key_press": -1, "type": "PRE_RECALL_DELAY", "trial_index": 113}, "uniqueid": "MTK1636:3Z7EFSHGNALW7MM3OQHV0A9HORZXCD", "dateTime": 1516061342676}, {"current_trial": 114, "trialdata": {"rt": -1000, "trial_type": "single-audio", "stimulus": "/static/audio/400Hz.wav", "internal_node_id": "0.0-87.0", "time_elapsed": 567014, "key_press": -1, "type": "PRE_RECALL_ALERT", "trial_index": 114}, "uniqueid": "MTK1636:3Z7EFSHGNALW7MM3OQHV0A9HORZXCD", "dateTime": 1516061343179}, {"current_trial": 115, "trialdata": {"rt": [4717, 8624, 12147, 16959, 19900, 24129, 28718, 34253, 37804], "recwords": ["monstar", "shelter", "france", "creater", "lava", "america", "sinling", "rocket", "silk"], "key_times": [867, 1540, 1970, 2554, 3122, 3519, 3828, 4717, 5467, 5979, 6387, 6896, 7502, 7865, 8050, 8624, 9571, 9854, 10240, 10836, 11279, 11588, 12147, 12962, 13573, 13965, 14278, 15250, 15905, 16101, 16959, 17511, 18081, 18638, 19018, 19900, 20487, 21041, 21713, 21911, 22693, 23173, 23460, 24129, 24718, 26078, 26768, 27157, 27456, 27821, 28173, 28718, 29359, 31252, 31874, 32433, 32998, 33278, 34253, 35888, 36503, 36791, 37050, 37804], "trial_type": "free-recall", "conditions": [24, 1600, "v", 12000], "internal_node_id": "0.0-88.0-0.0", "key_presses": [77, 79, 78, 83, 84, 65, 82, 13, 83, 72, 69, 76, 84, 69, 82, 13, 70, 82, 65, 78, 67, 69, 13, 67, 82, 69, 65, 84, 69, 82, 13, 76, 65, 86, 65, 13, 65, 77, 69, 82, 73, 67, 65, 13, 83, 73, 78, 76, 73, 78, 71, 13, 82, 79, 67, 75, 69, 84, 13, 83, 73, 76, 75, 13], "trial": 2, "time_elapsed": 627020, "type": "FREE_RECALL", "trial_index": 115}, "uniqueid": "MTK1636:3Z7EFSHGNALW7MM3OQHV0A9HORZXCD", "dateTime": 1516061403193}, {"current_trial": 116, "trialdata": {"rt": 2807, "trial_type": "text", "internal_node_id": "0.0-89.0", "time_elapsed": 631839, "key_press": 71, "type": "INSTRUCTIONS", "trial_index": 116}, "uniqueid": "MTK1636:3Z7EFSHGNALW7MM3OQHV0A9HORZXCD", "dateTime": 1516061408003}, {"current_trial": 117, "trialdata": {"rt": [2505, 6131, 10184], "trial_type": "math-distractor", "key_times": [2068, 2230, 2505, 5580, 5792, 6131, 9676, 9900, 10184], "responses": ["11", "15", "24"], "num2": [1, 6, 7, 4], "num3": [5, 6, 9, 7], "conditions": [24, 800, "v", 12000], "internal_node_id": "0.0-90.0", "key_presses": [97, 97, 13, 97, 101, 13, 98, 100, 13], "trial": 3, "time_elapsed": 645846, "type": "DISTRACTOR", "trial_index": 117, "num1": [5, 3, 8, 6]}, "uniqueid": "MTK1636:3Z7EFSHGNALW7MM3OQHV0A9HORZXCD", "dateTime": 1516061422010}, {"current_trial": 118, "trialdata": {"rt": -1, "trial_type": "single-stim", "stimulus": "<p id=\"stim\">10</p>", "internal_node_id": "0.0-91.0-0.0", "time_elapsed": 648856, "key_press": -1, "trial_index": 118}, "uniqueid": "MTK1636:3Z7EFSHGNALW7MM3OQHV0A9HORZXCD", "dateTime": 1516061425021}, {"current_trial": 119, "trialdata": {"rt": -1, "trial_type": "single-stim", "stimulus": "<p id=\"stim\">9</p>", "internal_node_id": "0.0-91.0-1.0", "time_elapsed": 649860, "key_press": -1, "trial_index": 119}, "uniqueid": "MTK1636:3Z7EFSHGNALW7MM3OQHV0A9HORZXCD", "dateTime": 1516061426024}, {"current_trial": 120, "trialdata": {"rt": -1, "trial_type": "single-stim", "stimulus": "<p id=\"stim\">8</p>", "internal_node_id": "0.0-91.0-2.0", "time_elapsed": 650862, "key_press": -1, "trial_index": 120}, "uniqueid": "MTK1636:3Z7EFSHGNALW7MM3OQHV0A9HORZXCD", "dateTime": 1516061427026}, {"current_trial": 121, "trialdata": {"rt": -1, "trial_type": "single-stim", "stimulus": "<p id=\"stim\">7</p>", "internal_node_id": "0.0-91.0-3.0", "time_elapsed": 651865, "key_press": -1, "trial_index": 121}, "uniqueid": "MTK1636:3Z7EFSHGNALW7MM3OQHV0A9HORZXCD", "dateTime": 1516061428029}, {"current_trial": 122, "trialdata": {"rt": -1, "trial_type": "single-stim", "stimulus": "<p id=\"stim\">6</p>", "internal_node_id": "0.0-91.0-4.0", "time_elapsed": 652867, "key_press": -1, "trial_index": 122}, "uniqueid": "MTK1636:3Z7EFSHGNALW7MM3OQHV0A9HORZXCD", "dateTime": 1516061429032}, {"current_trial": 123, "trialdata": {"rt": -1, "trial_type": "single-stim", "stimulus": "<p id=\"stim\">5</p>", "internal_node_id": "0.0-91.0-5.0", "time_elapsed": 653869, "key_press": -1, "trial_index": 123}, "uniqueid": "MTK1636:3Z7EFSHGNALW7MM3OQHV0A9HORZXCD", "dateTime": 1516061430034}, {"current_trial": 124, "trialdata": {"rt": -1, "trial_type": "single-stim", "stimulus": "<p id=\"stim\">4</p>", "internal_node_id": "0.0-91.0-6.0", "time_elapsed": 654871, "key_press": -1, "trial_index": 124}, "uniqueid": "MTK1636:3Z7EFSHGNALW7MM3OQHV0A9HORZXCD", "dateTime": 1516061431035}, {"current_trial": 125, "trialdata": {"rt": -1, "trial_type": "single-stim", "stimulus": "<p id=\"stim\">3</p>", "internal_node_id": "0.0-91.0-7.0", "time_elapsed": 655874, "key_press": -1, "trial_index": 125}, "uniqueid": "MTK1636:3Z7EFSHGNALW7MM3OQHV0A9HORZXCD", "dateTime": 1516061432038}, {"current_trial": 126, "trialdata": {"rt": -1, "trial_type": "single-stim", "stimulus": "<p id=\"stim\">2</p>", "internal_node_id": "0.0-91.0-8.0", "time_elapsed": 656876, "key_press": -1, "trial_index": 126}, "uniqueid": "MTK1636:3Z7EFSHGNALW7MM3OQHV0A9HORZXCD", "dateTime": 1516061433040}, {"current_trial": 127, "trialdata": {"rt": -1, "trial_type": "single-stim", "stimulus": "<p id=\"stim\">1</p>", "internal_node_id": "0.0-91.0-9.0", "time_elapsed": 657879, "key_press": -1, "trial_index": 127}, "uniqueid": "MTK1636:3Z7EFSHGNALW7MM3OQHV0A9HORZXCD", "dateTime": 1516061434043}, {"current_trial": 128, "trialdata": {"rt": -1, "trial_type": "single-stim", "stimulus": "<p id=\"stim\">+</p>", "internal_node_id": "0.0-92.0-0.0", "time_elapsed": 659382, "key_press": -1, "type": "FIXATION", "trial_index": 128}, "uniqueid": "MTK1636:3Z7EFSHGNALW7MM3OQHV0A9HORZXCD", "dateTime": 1516061435546}, {"current_trial": 129, "trialdata": {"rt": -1, "trial_type": "single-stim", "word": "table", "stimulus": "<p id=\"stim\">TABLE</p>", "conditions": [24, 800, "v", 12000], "internal_node_id": "0.0-93.0", "trial": 3, "time_elapsed": 660185, "serialpos": 0, "key_press": -1, "wordID": 1425, "type": "PRES_VIS", "trial_index": 129}, "uniqueid": "MTK1636:3Z7EFSHGNALW7MM3OQHV0A9HORZXCD", "dateTime": 1516061436349}, {"current_trial": 130, "trialdata": {"rt": -1, "trial_type": "single-stim", "word": "girl", "stimulus": "<p id=\"stim\">GIRL</p>", "conditions": [24, 800, "v", 12000], "internal_node_id": "0.0-94.0", "trial": 3, "time_elapsed": 662066, "serialpos": 1, "key_press": -1, "wordID": 636, "type": "PRES_VIS", "trial_index": 130}, "uniqueid": "MTK1636:3Z7EFSHGNALW7MM3OQHV0A9HORZXCD", "dateTime": 1516061438230}, {"current_trial": 131, "trialdata": {"rt": -1, "trial_type": "single-stim", "word": "parrot", "stimulus": "<p id=\"stim\">PARROT</p>", "conditions": [24, 800, "v", 12000], "internal_node_id": "0.0-95.0", "trial": 3, "time_elapsed": 663961, "serialpos": 2, "key_press": -1, "wordID": 1014, "type": "PRES_VIS", "trial_index": 131}, "uniqueid": "MTK1636:3Z7EFSHGNALW7MM3OQHV0A9HORZXCD", "dateTime": 1516061440125}, {"current_trial": 132, "trialdata": {"rt": -1, "trial_type": "single-stim", "word": "sidewalk", "stimulus": "<p id=\"stim\">SIDEWALK</p>", "conditions": [24, 800, "v", 12000], "internal_node_id": "0.0-96.0", "trial": 3, "time_elapsed": 665802, "serialpos": 3, "key_press": -1, "wordID": 1302, "type": "PRES_VIS", "trial_index": 132}, "uniqueid": "MTK1636:3Z7EFSHGNALW7MM3OQHV0A9HORZXCD", "dateTime": 1516061441966}, {"current_trial": 133, "trialdata": {"rt": -1, "trial_type": "single-stim", "word": "tablet", "stimulus": "<p id=\"stim\">TABLET</p>", "conditions": [24, 800, "v", 12000], "internal_node_id": "0.0-97.0", "trial": 3, "time_elapsed": 667787, "serialpos": 4, "key_press": -1, "wordID": 1426, "type": "PRES_VIS", "trial_index": 133}, "uniqueid": "MTK1636:3Z7EFSHGNALW7MM3OQHV0A9HORZXCD", "dateTime": 1516061443951}, {"current_trial": 134, "trialdata": {"rt": -1, "trial_type": "single-stim", "word": "princess", "stimulus": "<p id=\"stim\">PRINCESS</p>", "conditions": [24, 800, "v", 12000], "internal_node_id": "0.0-98.0", "trial": 3, "time_elapsed": 669781, "serialpos": 5, "key_press": -1, "wordID": 1124, "type": "PRES_VIS", "trial_index": 134}, "uniqueid": "MTK1636:3Z7EFSHGNALW7MM3OQHV0A9HORZXCD", "dateTime": 1516061445945}, {"current_trial": 135, "trialdata": {"rt": -1, "trial_type": "single-stim", "word": "wife", "stimulus": "<p id=\"stim\">WIFE</p>", "conditions": [24, 800, "v", 12000], "internal_node_id": "0.0-99.0", "trial": 3, "time_elapsed": 671551, "serialpos": 6, "key_press": -1, "wordID": 1608, "type": "PRES_VIS", "trial_index": 135}, "uniqueid": "MTK1636:3Z7EFSHGNALW7MM3OQHV0A9HORZXCD", "dateTime": 1516061447715}, {"current_trial": 136, "trialdata": {"rt": -1, "trial_type": "single-stim", "word": "spouse", "stimulus": "<p id=\"stim\">SPOUSE</p>", "conditions": [24, 800, "v", 12000], "internal_node_id": "0.0-100.0", "trial": 3, "time_elapsed": 673233, "serialpos": 7, "key_press": -1, "wordID": 1357, "type": "PRES_VIS", "trial_index": 136}, "uniqueid": "MTK1636:3Z7EFSHGNALW7MM3OQHV0A9HORZXCD", "dateTime": 1516061449397}, {"current_trial": 137, "trialdata": {"rt": -1, "trial_type": "single-stim", "word": "honey", "stimulus": "<p id=\"stim\">HONEY</p>", "conditions": [24, 800, "v", 12000], "internal_node_id": "0.0-101.0", "trial": 3, "time_elapsed": 675193, "serialpos": 8, "key_press": -1, "wordID": 712, "type": "PRES_VIS", "trial_index": 137}, "uniqueid": "MTK1636:3Z7EFSHGNALW7MM3OQHV0A9HORZXCD", "dateTime": 1516061451357}, {"current_trial": 138, "trialdata": {"rt": -1, "trial_type": "single-stim", "word": "mummy", "stimulus": "<p id=\"stim\">MUMMY</p>", "conditions": [24, 800, "v", 12000], "internal_node_id": "0.0-102.0", "trial": 3, "time_elapsed": 677079, "serialpos": 9, "key_press": -1, "wordID": 931, "type": "PRES_VIS", "trial_index": 138}, "uniqueid": "MTK1636:3Z7EFSHGNALW7MM3OQHV0A9HORZXCD", "dateTime": 1516061453245}, {"current_trial": 139, "trialdata": {"rt": -1, "trial_type": "single-stim", "word": "bison", "stimulus": "<p id=\"stim\">BISON</p>", "conditions": [24, 800, "v", 12000], "internal_node_id": "0.0-103.0", "trial": 3, "time_elapsed": 678786, "serialpos": 10, "key_press": -1, "wordID": 130, "type": "PRES_VIS", "trial_index": 139}, "uniqueid": "MTK1636:3Z7EFSHGNALW7MM3OQHV0A9HORZXCD", "dateTime": 1516061454950}, {"current_trial": 140, "trialdata": {"rt": -1, "trial_type": "single-stim", "word": "rooster", "stimulus": "<p id=\"stim\">ROOSTER</p>", "conditions": [24, 800, "v", 12000], "internal_node_id": "0.0-104.0", "trial": 3, "time_elapsed": 680556, "serialpos": 11, "key_press": -1, "wordID": 1208, "type": "PRES_VIS", "trial_index": 140}, "uniqueid": "MTK1636:3Z7EFSHGNALW7MM3OQHV0A9HORZXCD", "dateTime": 1516061456720}, {"current_trial": 141, "trialdata": {"rt": -1, "trial_type": "single-stim", "word": "panther", "stimulus": "<p id=\"stim\">PANTHER</p>", "conditions": [24, 800, "v", 12000], "internal_node_id": "0.0-105.0", "trial": 3, "time_elapsed": 682362, "serialpos": 12, "key_press": -1, "wordID": 1008, "type": "PRES_VIS", "trial_index": 141}, "uniqueid": "MTK1636:3Z7EFSHGNALW7MM3OQHV0A9HORZXCD", "dateTime": 1516061458526}, {"current_trial": 142, "trialdata": {"rt": -1, "trial_type": "single-stim", "word": "tunnel", "stimulus": "<p id=\"stim\">TUNNEL</p>", "conditions": [24, 800, "v", 12000], "internal_node_id": "0.0-106.0", "trial": 3, "time_elapsed": 684337, "serialpos": 13, "key_press": -1, "wordID": 1518, "type": "PRES_VIS", "trial_index": 142}, "uniqueid": "MTK1636:3Z7EFSHGNALW7MM3OQHV0A9HORZXCD", "dateTime": 1516061460501}, {"current_trial": 143, "trialdata": {"rt": -1, "trial_type": "single-stim", "word": "oyster", "stimulus": "<p id=\"stim\">OYSTER</p>", "conditions": [24, 800, "v", 12000], "internal_node_id": "0.0-107.0", "trial": 3, "time_elapsed": 686300, "serialpos": 14, "key_press": -1, "wordID": 994, "type": "PRES_VIS", "trial_index": 143}, "uniqueid": "MTK1636:3Z7EFSHGNALW7MM3OQHV0A9HORZXCD", "dateTime": 1516061462464}, {"current_trial": 144, "trialdata": {"rt": -1, "trial_type": "single-stim", "word": "cyclone", "stimulus": "<p id=\"stim\">CYCLONE</p>", "conditions": [24, 800, "v", 12000], "internal_node_id": "0.0-108.0", "trial": 3, "time_elapsed": 688299, "serialpos": 15, "key_press": -1, "wordID": 430, "type": "PRES_VIS", "trial_index": 144}, "uniqueid": "MTK1636:3Z7EFSHGNALW7MM3OQHV0A9HORZXCD", "dateTime": 1516061464463}, {"current_trial": 145, "trialdata": {"rt": -1, "trial_type": "single-stim", "word": "cricket", "stimulus": "<p id=\"stim\">CRICKET</p>", "conditions": [24, 800, "v", 12000], "internal_node_id": "0.0-109.0", "trial": 3, "time_elapsed": 689911, "serialpos": 16, "key_press": -1, "wordID": 407, "type": "PRES_VIS", "trial_index": 145}, "uniqueid": "MTK1636:3Z7EFSHGNALW7MM3OQHV0A9HORZXCD", "dateTime": 1516061466075}, {"current_trial": 146, "trialdata": {"rt": -1, "trial_type": "single-stim", "word": "drill", "stimulus": "<p id=\"stim\">DRILL</p>", "conditions": [24, 800, "v", 12000], "internal_node_id": "0.0-110.0", "trial": 3, "time_elapsed": 691797, "serialpos": 17, "key_press": -1, "wordID": 496, "type": "PRES_VIS", "trial_index": 146}, "uniqueid": "MTK1636:3Z7EFSHGNALW7MM3OQHV0A9HORZXCD", "dateTime": 1516061467961}, {"current_trial": 147, "trialdata": {"rt": -1, "trial_type": "single-stim", "word": "curtain", "stimulus": "<p id=\"stim\">CURTAIN</p>", "conditions": [24, 800, "v", 12000], "internal_node_id": "0.0-111.0", "trial": 3, "time_elapsed": 693493, "serialpos": 18, "key_press": -1, "wordID": 426, "type": "PRES_VIS", "trial_index": 147}, "uniqueid": "MTK1636:3Z7EFSHGNALW7MM3OQHV0A9HORZXCD", "dateTime": 1516061469657}, {"current_trial": 148, "trialdata": {"rt": -1, "trial_type": "single-stim", "word": "valve", "stimulus": "<p id=\"stim\">VALVE</p>", "conditions": [24, 800, "v", 12000], "internal_node_id": "0.0-112.0", "trial": 3, "time_elapsed": 695230, "serialpos": 19, "key_press": -1, "wordID": 1545, "type": "PRES_VIS", "trial_index": 148}, "uniqueid": "MTK1636:3Z7EFSHGNALW7MM3OQHV0A9HORZXCD", "dateTime": 1516061471394}, {"current_trial": 149, "trialdata": {"rt": -1, "trial_type": "single-stim", "word": "pastry", "stimulus": "<p id=\"stim\">PASTRY</p>", "conditions": [24, 800, "v", 12000], "internal_node_id": "0.0-113.0", "trial": 3, "time_elapsed": 696932, "serialpos": 20, "key_press": -1, "wordID": 1021, "type": "PRES_VIS", "trial_index": 149}, "uniqueid": "MTK1636:3Z7EFSHGNALW7MM3OQHV0A9HORZXCD", "dateTime": 1516061473096}, {"current_trial": 150, "trialdata": {"rt": -1, "trial_type": "single-stim", "word": "sandwich", "stimulus": "<p id=\"stim\">SANDWICH</p>", "conditions": [24, 800, "v", 12000], "internal_node_id": "0.0-114.0", "trial": 3, "time_elapsed": 698609, "serialpos": 21, "key_press": -1, "wordID": 1231, "type": "PRES_VIS", "trial_index": 150}, "uniqueid": "MTK1636:3Z7EFSHGNALW7MM3OQHV0A9HORZXCD", "dateTime": 1516061474773}, {"current_trial": 151, "trialdata": {"rt": -1, "trial_type": "single-stim", "word": "cabin", "stimulus": "<p id=\"stim\">CABIN</p>", "conditions": [24, 800, "v", 12000], "internal_node_id": "0.0-115.0", "trial": 3, "time_elapsed": 700422, "serialpos": 22, "key_press": -1, "wordID": 210, "type": "PRES_VIS", "trial_index": 151}, "uniqueid": "MTK1636:3Z7EFSHGNALW7MM3OQHV0A9HORZXCD", "dateTime": 1516061476587}, {"current_trial": 152, "trialdata": {"rt": -1, "trial_type": "single-stim", "word": "clam", "stimulus": "<p id=\"stim\">CLAM</p>", "conditions": [24, 800, "v", 12000], "internal_node_id": "0.0-116.0", "trial": 3, "time_elapsed": 702218, "serialpos": 23, "key_press": -1, "wordID": 314, "type": "PRES_VIS", "trial_index": 152}, "uniqueid": "MTK1636:3Z7EFSHGNALW7MM3OQHV0A9HORZXCD", "dateTime": 1516061478382}, {"current_trial": 153, "trialdata": {"rt": -1, "trial_type": "single-stim", "stimulus": "", "internal_node_id": "0.0-117.0-0.0", "time_elapsed": 704714, "key_press": -1, "type": "PRE_RECALL_DELAY", "trial_index": 153}, "uniqueid": "MTK1636:3Z7EFSHGNALW7MM3OQHV0A9HORZXCD", "dateTime": 1516061480878}, {"current_trial": 154, "trialdata": {"rt": -1000, "trial_type": "single-audio", "stimulus": "/static/audio/400Hz.wav", "internal_node_id": "0.0-118.0", "time_elapsed": 705216, "key_press": -1, "type": "PRE_RECALL_ALERT", "trial_index": 154}, "uniqueid": "MTK1636:3Z7EFSHGNALW7MM3OQHV0A9HORZXCD", "dateTime": 1516061481381}, {"current_trial": 155, "trialdata": {"rt": [2262, 6181, 11634, 15521, 19555, 22856, 26084, 28207, 31610, 37521], "recwords": ["calm", "cabin", "sandwitch", "curtain", "table", "girl", "mummy", "wife", "spouse", "panther"], "key_times": [559, 1007, 1360, 1648, 2262, 2887, 3172, 3720, 4613, 4979, 5346, 5673, 6181, 6753, 7040, 7458, 7676, 8064, 8462, 9130, 9756, 10015, 11634, 12486, 13101, 13504, 13827, 14135, 14486, 14817, 15521, 16568, 17802, 18063, 18879, 19160, 19555, 20745, 21412, 21974, 22350, 22856, 23458, 23863, 24360, 24569, 25003, 26084, 26801, 27156, 27509, 27878, 28207, 28858, 29334, 29589, 30042, 30420, 30760, 31610, 33702, 34148, 34533, 35651, 36187, 36438, 36690, 37521], "trial_type": "free-recall", "conditions": [24, 800, "v", 12000], "internal_node_id": "0.0-119.0-0.0", "key_presses": [67, 65, 76, 77, 13, 67, 65, 78, 8, 66, 73, 78, 13, 83, 65, 78, 68, 87, 73, 84, 67, 72, 13, 67, 85, 82, 84, 65, 73, 78, 13, 84, 65, 66, 76, 69, 13, 71, 73, 82, 76, 13, 77, 85, 77, 77, 89, 13, 87, 73, 70, 69, 13, 83, 80, 79, 85, 83, 69, 13, 80, 65, 78, 84, 72, 69, 82, 13], "trial": 3, "time_elapsed": 765223, "type": "FREE_RECALL", "trial_index": 155}, "uniqueid": "MTK1636:3Z7EFSHGNALW7MM3OQHV0A9HORZXCD", "dateTime": 1516061541397}, {"current_trial": 156, "trialdata": {"rt": 2349, "trial_type": "text", "internal_node_id": "0.0-120.0", "time_elapsed": 769584, "key_press": 74, "type": "INSTRUCTIONS", "trial_index": 156}, "uniqueid": "MTK1636:3Z7EFSHGNALW7MM3OQHV0A9HORZXCD", "dateTime": 1516061545748}, {"current_trial": 157, "trialdata": {"rt": [3482, 7173, 9518], "trial_type": "math-distractor", "key_times": [2772, 2942, 3482, 6637, 6820, 7173, 8973, 9155, 9518, 11863], "responses": ["12", "15", "13"], "num2": [7, 6, 8, 1], "num3": [4, 7, 3, 6], "conditions": [12, 800, "v", 12000], "internal_node_id": "0.0-121.0", "key_presses": [97, 98, 13, 97, 101, 13, 97, 99, 13, 105], "trial": 4, "time_elapsed": 783591, "type": "DISTRACTOR", "trial_index": 157, "num1": [1, 2, 2, 2]}, "uniqueid": "MTK1636:3Z7EFSHGNALW7MM3OQHV0A9HORZXCD", "dateTime": 1516061559755}, {"current_trial": 158, "trialdata": {"rt": -1, "trial_type": "single-stim", "stimulus": "<p id=\"stim\">10</p>", "internal_node_id": "0.0-122.0-0.0", "time_elapsed": 786594, "key_press": -1, "trial_index": 158}, "uniqueid": "MTK1636:3Z7EFSHGNALW7MM3OQHV0A9HORZXCD", "dateTime": 1516061562758}, {"current_trial": 159, "trialdata": {"rt": -1, "trial_type": "single-stim", "stimulus": "<p id=\"stim\">9</p>", "internal_node_id": "0.0-122.0-1.0", "time_elapsed": 787597, "key_press": -1, "trial_index": 159}, "uniqueid": "MTK1636:3Z7EFSHGNALW7MM3OQHV0A9HORZXCD", "dateTime": 1516061563761}, {"current_trial": 160, "trialdata": {"rt": -1, "trial_type": "single-stim", "stimulus": "<p id=\"stim\">8</p>", "internal_node_id": "0.0-122.0-2.0", "time_elapsed": 788599, "key_press": -1, "trial_index": 160}, "uniqueid": "MTK1636:3Z7EFSHGNALW7MM3OQHV0A9HORZXCD", "dateTime": 1516061564763}, {"current_trial": 161, "trialdata": {"rt": -1, "trial_type": "single-stim", "stimulus": "<p id=\"stim\">7</p>", "internal_node_id": "0.0-122.0-3.0", "time_elapsed": 789602, "key_press": -1, "trial_index": 161}, "uniqueid": "MTK1636:3Z7EFSHGNALW7MM3OQHV0A9HORZXCD", "dateTime": 1516061565766}, {"current_trial": 162, "trialdata": {"rt": -1, "trial_type": "single-stim", "stimulus": "<p id=\"stim\">6</p>", "internal_node_id": "0.0-122.0-4.0", "time_elapsed": 790605, "key_press": -1, "trial_index": 162}, "uniqueid": "MTK1636:3Z7EFSHGNALW7MM3OQHV0A9HORZXCD", "dateTime": 1516061566769}, {"current_trial": 163, "trialdata": {"rt": -1, "trial_type": "single-stim", "stimulus": "<p id=\"stim\">5</p>", "internal_node_id": "0.0-122.0-5.0", "time_elapsed": 791608, "key_press": -1, "trial_index": 163}, "uniqueid": "MTK1636:3Z7EFSHGNALW7MM3OQHV0A9HORZXCD", "dateTime": 1516061567772}, {"current_trial": 164, "trialdata": {"rt": -1, "trial_type": "single-stim", "stimulus": "<p id=\"stim\">4</p>", "internal_node_id": "0.0-122.0-6.0", "time_elapsed": 792611, "key_press": -1, "trial_index": 164}, "uniqueid": "MTK1636:3Z7EFSHGNALW7MM3OQHV0A9HORZXCD", "dateTime": 1516061568775}, {"current_trial": 165, "trialdata": {"rt": -1, "trial_type": "single-stim", "stimulus": "<p id=\"stim\">3</p>", "internal_node_id": "0.0-122.0-7.0", "time_elapsed": 793614, "key_press": -1, "trial_index": 165}, "uniqueid": "MTK1636:3Z7EFSHGNALW7MM3OQHV0A9HORZXCD", "dateTime": 1516061569778}, {"current_trial": 166, "trialdata": {"rt": -1, "trial_type": "single-stim", "stimulus": "<p id=\"stim\">2</p>", "internal_node_id": "0.0-122.0-8.0", "time_elapsed": 794617, "key_press": -1, "trial_index": 166}, "uniqueid": "MTK1636:3Z7EFSHGNALW7MM3OQHV0A9HORZXCD", "dateTime": 1516061570781}, {"current_trial": 167, "trialdata": {"rt": -1, "trial_type": "single-stim", "stimulus": "<p id=\"stim\">1</p>", "internal_node_id": "0.0-122.0-9.0", "time_elapsed": 795620, "key_press": -1, "trial_index": 167}, "uniqueid": "MTK1636:3Z7EFSHGNALW7MM3OQHV0A9HORZXCD", "dateTime": 1516061571785}, {"current_trial": 168, "trialdata": {"rt": -1, "trial_type": "single-stim", "stimulus": "<p id=\"stim\">+</p>", "internal_node_id": "0.0-123.0-0.0", "time_elapsed": 797124, "key_press": -1, "type": "FIXATION", "trial_index": 168}, "uniqueid": "MTK1636:3Z7EFSHGNALW7MM3OQHV0A9HORZXCD", "dateTime": 1516061573288}, {"current_trial": 169, "trialdata": {"rt": -1, "trial_type": "single-stim", "word": "canal", "stimulus": "<p id=\"stim\">CANAL</p>", "conditions": [12, 800, "v", 12000], "internal_node_id": "0.0-124.0", "trial": 4, "time_elapsed": 797927, "serialpos": 0, "key_press": -1, "wordID": 225, "type": "PRES_VIS", "trial_index": 169}, "uniqueid": "MTK1636:3Z7EFSHGNALW7MM3OQHV0A9HORZXCD", "dateTime": 1516061574091}, {"current_trial": 170, "trialdata": {"rt": -1, "trial_type": "single-stim", "word": "church", "stimulus": "<p id=\"stim\">CHURCH</p>", "conditions": [12, 800, "v", 12000], "internal_node_id": "0.0-125.0", "trial": 4, "time_elapsed": 799592, "serialpos": 1, "key_press": -1, "wordID": 306, "type": "PRES_VIS", "trial_index": 170}, "uniqueid": "MTK1636:3Z7EFSHGNALW7MM3OQHV0A9HORZXCD", "dateTime": 1516061575756}, {"current_trial": 171, "trialdata": {"rt": -1, "trial_type": "single-stim", "word": "dresser", "stimulus": "<p id=\"stim\">DRESSER</p>", "conditions": [12, 800, "v", 12000], "internal_node_id": "0.0-126.0", "trial": 4, "time_elapsed": 801554, "serialpos": 2, "key_press": -1, "wordID": 495, "type": "PRES_VIS", "trial_index": 171}, "uniqueid": "MTK1636:3Z7EFSHGNALW7MM3OQHV0A9HORZXCD", "dateTime": 1516061577718}, {"current_trial": 172, "trialdata": {"rt": -1, "trial_type": "single-stim", "word": "cupboard", "stimulus": "<p id=\"stim\">CUPBOARD</p>", "conditions": [12, 800, "v", 12000], "internal_node_id": "0.0-127.0", "trial": 4, "time_elapsed": 803437, "serialpos": 3, "key_press": -1, "wordID": 424, "type": "PRES_VIS", "trial_index": 172}, "uniqueid": "MTK1636:3Z7EFSHGNALW7MM3OQHV0A9HORZXCD", "dateTime": 1516061579601}, {"current_trial": 173, "trialdata": {"rt": -1, "trial_type": "single-stim", "word": "driver", "stimulus": "<p id=\"stim\">DRIVER</p>", "conditions": [12, 800, "v", 12000], "internal_node_id": "0.0-128.0", "trial": 4, "time_elapsed": 805124, "serialpos": 4, "key_press": -1, "wordID": 498, "type": "PRES_VIS", "trial_index": 173}, "uniqueid": "MTK1636:3Z7EFSHGNALW7MM3OQHV0A9HORZXCD", "dateTime": 1516061581288}, {"current_trial": 174, "trialdata": {"rt": -1, "trial_type": "single-stim", "word": "penguin", "stimulus": "<p id=\"stim\">PENGUIN</p>", "conditions": [12, 800, "v", 12000], "internal_node_id": "0.0-129.0", "trial": 4, "time_elapsed": 806843, "serialpos": 5, "key_press": -1, "wordID": 1043, "type": "PRES_VIS", "trial_index": 174}, "uniqueid": "MTK1636:3Z7EFSHGNALW7MM3OQHV0A9HORZXCD", "dateTime": 1516061583007}, {"current_trial": 175, "trialdata": {"rt": -1, "trial_type": "single-stim", "word": "bank", "stimulus": "<p id=\"stim\">BANK</p>", "conditions": [12, 800, "v", 12000], "internal_node_id": "0.0-130.0", "trial": 4, "time_elapsed": 808687, "serialpos": 6, "key_press": -1, "wordID": 82, "type": "PRES_VIS", "trial_index": 175}, "uniqueid": "MTK1636:3Z7EFSHGNALW7MM3OQHV0A9HORZXCD", "dateTime": 1516061584851}, {"current_trial": 176, "trialdata": {"rt": -1, "trial_type": "single-stim", "word": "daughter", "stimulus": "<p id=\"stim\">DAUGHTER</p>", "conditions": [12, 800, "v", 12000], "internal_node_id": "0.0-131.0", "trial": 4, "time_elapsed": 810550, "serialpos": 7, "key_press": -1, "wordID": 441, "type": "PRES_VIS", "trial_index": 176}, "uniqueid": "MTK1636:3Z7EFSHGNALW7MM3OQHV0A9HORZXCD", "dateTime": 1516061586714}, {"current_trial": 177, "trialdata": {"rt": -1, "trial_type": "single-stim", "word": "nurse", "stimulus": "<p id=\"stim\">NURSE</p>", "conditions": [12, 800, "v", 12000], "internal_node_id": "0.0-132.0", "trial": 4, "time_elapsed": 812406, "serialpos": 8, "key_press": -1, "wordID": 962, "type": "PRES_VIS", "trial_index": 177}, "uniqueid": "MTK1636:3Z7EFSHGNALW7MM3OQHV0A9HORZXCD", "dateTime": 1516061588570}, {"current_trial": 178, "trialdata": {"rt": -1, "trial_type": "single-stim", "word": "mister", "stimulus": "<p id=\"stim\">MISTER</p>", "conditions": [12, 800, "v", 12000], "internal_node_id": "0.0-133.0", "trial": 4, "time_elapsed": 814369, "serialpos": 9, "key_press": -1, "wordID": 900, "type": "PRES_VIS", "trial_index": 178}, "uniqueid": "MTK1636:3Z7EFSHGNALW7MM3OQHV0A9HORZXCD", "dateTime": 1516061590535}, {"current_trial": 179, "trialdata": {"rt": -1, "trial_type": "single-stim", "word": "bacon", "stimulus": "<p id=\"stim\">BACON</p>", "conditions": [12, 800, "v", 12000], "internal_node_id": "0.0-134.0", "trial": 4, "time_elapsed": 816354, "serialpos": 10, "key_press": -1, "wordID": 66, "type": "PRES_VIS", "trial_index": 179}, "uniqueid": "MTK1636:3Z7EFSHGNALW7MM3OQHV0A9HORZXCD", "dateTime": 1516061592518}, {"current_trial": 180, "trialdata": {"rt": -1, "trial_type": "single-stim", "word": "husband", "stimulus": "<p id=\"stim\">HUSBAND</p>", "conditions": [12, 800, "v", 12000], "internal_node_id": "0.0-135.0", "trial": 4, "time_elapsed": 818207, "serialpos": 11, "key_press": -1, "wordID": 727, "type": "PRES_VIS", "trial_index": 180}, "uniqueid": "MTK1636:3Z7EFSHGNALW7MM3OQHV0A9HORZXCD", "dateTime": 1516061594371}, {"current_trial": 181, "trialdata": {"rt": -1, "trial_type": "single-stim", "stimulus": "", "internal_node_id": "0.0-136.0-0.0", "time_elapsed": 820685, "key_press": -1, "type": "PRE_RECALL_DELAY", "trial_index": 181}, "uniqueid": "MTK1636:3Z7EFSHGNALW7MM3OQHV0A9HORZXCD", "dateTime": 1516061596849}, {"current_trial": 182, "trialdata": {"rt": -1000, "trial_type": "single-audio", "stimulus": "/static/audio/400Hz.wav", "internal_node_id": "0.0-137.0", "time_elapsed": 821188, "key_press": -1, "type": "PRE_RECALL_ALERT", "trial_index": 182}, "uniqueid": "MTK1636:3Z7EFSHGNALW7MM3OQHV0A9HORZXCD", "dateTime": 1516061597352}, {"current_trial": 183, "trialdata": {"rt": [4660, 9743, 13606, 18954, 23543, 26424, 32166, 37465, 53112], "recwords": ["husband", "mister", "daughter", "dresser", "daughter", "nurse", "church", "bank", "mister"], "key_times": [1309, 1616, 2079, 2623, 3053, 3669, 4062, 4660, 5203, 5571, 6083, 6640, 7900, 8567, 8900, 9100, 9743, 10540, 10838, 11328, 11677, 11914, 12245, 12584, 12784, 13606, 14422, 15732, 16401, 16662, 16960, 17307, 17461, 17700, 17967, 18954, 20486, 20838, 21362, 21681, 21884, 22202, 22547, 22732, 23543, 24168, 24487, 25023, 25402, 25609, 26424, 27373, 27855, 28656, 29722, 29955, 30742, 31130, 31676, 32166, 35522, 35920, 36547, 36857, 37465, 50344, 50659, 51098, 51751, 52114, 52273, 53112], "trial_type": "free-recall", "conditions": [12, 800, "v", 12000], "internal_node_id": "0.0-138.0-0.0", "key_presses": [72, 85, 83, 66, 65, 78, 68, 13, 77, 73, 83, 89, 8, 84, 69, 82, 13, 68, 65, 85, 71, 72, 84, 69, 82, 13, 71, 8, 68, 82, 69, 83, 83, 69, 82, 13, 68, 65, 85, 71, 72, 84, 69, 82, 13, 78, 85, 82, 83, 69, 13, 67, 71, 8, 72, 85, 82, 67, 72, 13, 66, 65, 78, 75, 13, 77, 73, 83, 84, 69, 82, 13], "trial": 4, "time_elapsed": 881195, "type": "FREE_RECALL", "trial_index": 183}, "uniqueid": "MTK1636:3Z7EFSHGNALW7MM3OQHV0A9HORZXCD", "dateTime": 1516061657370}, {"current_trial": 184, "trialdata": {"rt": 1737, "trial_type": "text", "internal_node_id": "0.0-139.0", "time_elapsed": 884946, "key_press": 72, "type": "INSTRUCTIONS", "trial_index": 184}, "uniqueid": "MTK1636:3Z7EFSHGNALW7MM3OQHV0A9HORZXCD", "dateTime": 1516061661113}, {"current_trial": 185, "trialdata": {"rt": [1833, 6279, 8579, 10722, 20766, 23068], "trial_type": "math-distractor", "key_times": [1520, 1833, 4720, 4987, 6279, 8314, 8579, 10064, 10309, 10722, 13952, 19206, 20011, 20343, 20766, 22320, 22669, 23068], "responses": ["7", "15", "7", "10", "32", "16"], "num2": [3, 8, 4, 6, 9, 8, 9], "num3": [1, 3, 2, 3, 6, 6, 7], "conditions": [12, 800, "v", 24000], "internal_node_id": "0.0-140.0", "key_presses": [103, 13, 97, 101, 13, 103, 13, 97, 96, 13, 98, 8, 99, 98, 13, 97, 102, 13], "trial": 5, "time_elapsed": 910957, "type": "DISTRACTOR", "trial_index": 185, "num1": [3, 4, 1, 1, 7, 2, 3]}, "uniqueid": "MTK1636:3Z7EFSHGNALW7MM3OQHV0A9HORZXCD", "dateTime": 1516061687121}, {"current_trial": 186, "trialdata": {"rt": -1, "trial_type": "single-stim", "stimulus": "<p id=\"stim\">10</p>", "internal_node_id": "0.0-141.0-0.0", "time_elapsed": 913960, "key_press": -1, "trial_index": 186}, "uniqueid": "MTK1636:3Z7EFSHGNALW7MM3OQHV0A9HORZXCD", "dateTime": 1516061690124}, {"current_trial": 187, "trialdata": {"rt": -1, "trial_type": "single-stim", "stimulus": "<p id=\"stim\">9</p>", "internal_node_id": "0.0-141.0-1.0", "time_elapsed": 914963, "key_press": -1, "trial_index": 187}, "uniqueid": "MTK1636:3Z7EFSHGNALW7MM3OQHV0A9HORZXCD", "dateTime": 1516061691127}, {"current_trial": 188, "trialdata": {"rt": -1, "trial_type": "single-stim", "stimulus": "<p id=\"stim\">8</p>", "internal_node_id": "0.0-141.0-2.0", "time_elapsed": 915965, "key_press": -1, "trial_index": 188}, "uniqueid": "MTK1636:3Z7EFSHGNALW7MM3OQHV0A9HORZXCD", "dateTime": 1516061692129}, {"current_trial": 189, "trialdata": {"rt": -1, "trial_type": "single-stim", "stimulus": "<p id=\"stim\">7</p>", "internal_node_id": "0.0-141.0-3.0", "time_elapsed": 916968, "key_press": -1, "trial_index": 189}, "uniqueid": "MTK1636:3Z7EFSHGNALW7MM3OQHV0A9HORZXCD", "dateTime": 1516061693132}, {"current_trial": 190, "trialdata": {"rt": -1, "trial_type": "single-stim", "stimulus": "<p id=\"stim\">6</p>", "internal_node_id": "0.0-141.0-4.0", "time_elapsed": 917971, "key_press": -1, "trial_index": 190}, "uniqueid": "MTK1636:3Z7EFSHGNALW7MM3OQHV0A9HORZXCD", "dateTime": 1516061694135}, {"current_trial": 191, "trialdata": {"rt": -1, "trial_type": "single-stim", "stimulus": "<p id=\"stim\">5</p>", "internal_node_id": "0.0-141.0-5.0", "time_elapsed": 918974, "key_press": -1, "trial_index": 191}, "uniqueid": "MTK1636:3Z7EFSHGNALW7MM3OQHV0A9HORZXCD", "dateTime": 1516061695138}, {"current_trial": 192, "trialdata": {"rt": -1, "trial_type": "single-stim", "stimulus": "<p id=\"stim\">4</p>", "internal_node_id": "0.0-141.0-6.0", "time_elapsed": 919977, "key_press": -1, "trial_index": 192}, "uniqueid": "MTK1636:3Z7EFSHGNALW7MM3OQHV0A9HORZXCD", "dateTime": 1516061696141}, {"current_trial": 193, "trialdata": {"rt": -1, "trial_type": "single-stim", "stimulus": "<p id=\"stim\">3</p>", "internal_node_id": "0.0-141.0-7.0", "time_elapsed": 920979, "key_press": -1, "trial_index": 193}, "uniqueid": "MTK1636:3Z7EFSHGNALW7MM3OQHV0A9HORZXCD", "dateTime": 1516061697143}, {"current_trial": 194, "trialdata": {"rt": -1, "trial_type": "single-stim", "stimulus": "<p id=\"stim\">2</p>", "internal_node_id": "0.0-141.0-8.0", "time_elapsed": 921981, "key_press": -1, "trial_index": 194}, "uniqueid": "MTK1636:3Z7EFSHGNALW7MM3OQHV0A9HORZXCD", "dateTime": 1516061698145}, {"current_trial": 195, "trialdata": {"rt": -1, "trial_type": "single-stim", "stimulus": "<p id=\"stim\">1</p>", "internal_node_id": "0.0-141.0-9.0", "time_elapsed": 922984, "key_press": -1, "trial_index": 195}, "uniqueid": "MTK1636:3Z7EFSHGNALW7MM3OQHV0A9HORZXCD", "dateTime": 1516061699148}, {"current_trial": 196, "trialdata": {"rt": -1, "trial_type": "single-stim", "stimulus": "<p id=\"stim\">+</p>", "internal_node_id": "0.0-142.0-0.0", "time_elapsed": 924486, "key_press": -1, "type": "FIXATION", "trial_index": 196}, "uniqueid": "MTK1636:3Z7EFSHGNALW7MM3OQHV0A9HORZXCD", "dateTime": 1516061700650}, {"current_trial": 197, "trialdata": {"rt": -1, "trial_type": "single-stim", "word": "piston", "stimulus": "<p id=\"stim\">PISTON</p>", "conditions": [12, 800, "v", 24000], "internal_node_id": "0.0-143.0", "trial": 5, "time_elapsed": 925289, "serialpos": 0, "key_press": -1, "wordID": 1075, "type": "PRES_VIS", "trial_index": 197}, "uniqueid": "MTK1636:3Z7EFSHGNALW7MM3OQHV0A9HORZXCD", "dateTime": 1516061701453}, {"current_trial": 198, "trialdata": {"rt": -1, "trial_type": "single-stim", "word": "balloon", "stimulus": "<p id=\"stim\">BALLOON</p>", "conditions": [12, 800, "v", 24000], "internal_node_id": "0.0-144.0", "trial": 5, "time_elapsed": 927085, "serialpos": 1, "key_press": -1, "wordID": 74, "type": "PRES_VIS", "trial_index": 198}, "uniqueid": "MTK1636:3Z7EFSHGNALW7MM3OQHV0A9HORZXCD", "dateTime": 1516061703249}, {"current_trial": 199, "trialdata": {"rt": -1, "trial_type": "single-stim", "word": "supper", "stimulus": "<p id=\"stim\">SUPPER</p>", "conditions": [12, 800, "v", 24000], "internal_node_id": "0.0-145.0", "trial": 5, "time_elapsed": 928764, "serialpos": 2, "key_press": -1, "wordID": 1410, "type": "PRES_VIS", "trial_index": 199}, "uniqueid": "MTK1636:3Z7EFSHGNALW7MM3OQHV0A9HORZXCD", "dateTime": 1516061704928}, {"current_trial": 200, "trialdata": {"rt": -1, "trial_type": "single-stim", "word": "mask", "stimulus": "<p id=\"stim\">MASK</p>", "conditions": [12, 800, "v", 24000], "internal_node_id": "0.0-146.0", "trial": 5, "time_elapsed": 930660, "serialpos": 3, "key_press": -1, "wordID": 875, "type": "PRES_VIS", "trial_index": 200}, "uniqueid": "MTK1636:3Z7EFSHGNALW7MM3OQHV0A9HORZXCD", "dateTime": 1516061706824}, {"current_trial": 201, "trialdata": {"rt": -1, "trial_type": "single-stim", "word": "peach", "stimulus": "<p id=\"stim\">PEACH</p>", "conditions": [12, 800, "v", 24000], "internal_node_id": "0.0-147.0", "trial": 5, "time_elapsed": 932454, "serialpos": 4, "key_press": -1, "wordID": 1030, "type": "PRES_VIS", "trial_index": 201}, "uniqueid": "MTK1636:3Z7EFSHGNALW7MM3OQHV0A9HORZXCD", "dateTime": 1516061708618}, {"current_trial": 202, "trialdata": {"rt": -1, "trial_type": "single-stim", "word": "convict", "stimulus": "<p id=\"stim\">CONVICT</p>", "conditions": [12, 800, "v", 24000], "internal_node_id": "0.0-148.0", "trial": 5, "time_elapsed": 934116, "serialpos": 5, "key_press": -1, "wordID": 370, "type": "PRES_VIS", "trial_index": 202}, "uniqueid": "MTK1636:3Z7EFSHGNALW7MM3OQHV0A9HORZXCD", "dateTime": 1516061710280}, {"current_trial": 203, "trialdata": {"rt": -1, "trial_type": "single-stim", "word": "sketch", "stimulus": "<p id=\"stim\">SKETCH</p>", "conditions": [12, 800, "v", 24000], "internal_node_id": "0.0-149.0", "trial": 5, "time_elapsed": 936027, "serialpos": 6, "key_press": -1, "wordID": 1314, "type": "PRES_VIS", "trial_index": 203}, "uniqueid": "MTK1636:3Z7EFSHGNALW7MM3OQHV0A9HORZXCD", "dateTime": 1516061712191}, {"current_trial": 204, "trialdata": {"rt": -1, "trial_type": "single-stim", "word": "friend", "stimulus": "<p id=\"stim\">FRIEND</p>", "conditions": [12, 800, "v", 24000], "internal_node_id": "0.0-150.0", "trial": 5, "time_elapsed": 937821, "serialpos": 7, "key_press": -1, "wordID": 605, "type": "PRES_VIS", "trial_index": 204}, "uniqueid": "MTK1636:3Z7EFSHGNALW7MM3OQHV0A9HORZXCD", "dateTime": 1516061713985}, {"current_trial": 205, "trialdata": {"rt": -1, "trial_type": "single-stim", "word": "elbow", "stimulus": "<p id=\"stim\">ELBOW</p>", "conditions": [12, 800, "v", 24000], "internal_node_id": "0.0-151.0", "trial": 5, "time_elapsed": 939735, "serialpos": 8, "key_press": -1, "wordID": 519, "type": "PRES_VIS", "trial_index": 205}, "uniqueid": "MTK1636:3Z7EFSHGNALW7MM3OQHV0A9HORZXCD", "dateTime": 1516061715899}, {"current_trial": 206, "trialdata": {"rt": -1, "trial_type": "single-stim", "word": "shoulder", "stimulus": "<p id=\"stim\">SHOULDER</p>", "conditions": [12, 800, "v", 24000], "internal_node_id": "0.0-152.0", "trial": 5, "time_elapsed": 941691, "serialpos": 9, "key_press": -1, "wordID": 1293, "type": "PRES_VIS", "trial_index": 206}, "uniqueid": "MTK1636:3Z7EFSHGNALW7MM3OQHV0A9HORZXCD", "dateTime": 1516061717855}, {"current_trial": 207, "trialdata": {"rt": -1, "trial_type": "single-stim", "word": "hook", "stimulus": "<p id=\"stim\">HOOK</p>", "conditions": [12, 800, "v", 24000], "internal_node_id": "0.0-153.0", "trial": 5, "time_elapsed": 943324, "serialpos": 10, "key_press": -1, "wordID": 714, "type": "PRES_VIS", "trial_index": 207}, "uniqueid": "MTK1636:3Z7EFSHGNALW7MM3OQHV0A9HORZXCD", "dateTime": 1516061719488}, {"current_trial": 208, "trialdata": {"rt": -1, "trial_type": "single-stim", "word": "picnic", "stimulus": "<p id=\"stim\">PICNIC</p>", "conditions": [12, 800, "v", 24000], "internal_node_id": "0.0-154.0", "trial": 5, "time_elapsed": 944976, "serialpos": 11, "key_press": -1, "wordID": 1059, "type": "PRES_VIS", "trial_index": 208}, "uniqueid": "MTK1636:3Z7EFSHGNALW7MM3OQHV0A9HORZXCD", "dateTime": 1516061721141}, {"current_trial": 209, "trialdata": {"rt": -1, "trial_type": "single-stim", "stimulus": "", "internal_node_id": "0.0-155.0-0.0", "time_elapsed": 947219, "key_press": -1, "type": "PRE_RECALL_DELAY", "trial_index": 209}, "uniqueid": "MTK1636:3Z7EFSHGNALW7MM3OQHV0A9HORZXCD", "dateTime": 1516061723383}, {"current_trial": 210, "trialdata": {"rt": -1000, "trial_type": "single-audio", "stimulus": "/static/audio/400Hz.wav", "internal_node_id": "0.0-156.0", "time_elapsed": 947722, "key_press": -1, "type": "PRE_RECALL_ALERT", "trial_index": 210}, "uniqueid": "MTK1636:3Z7EFSHGNALW7MM3OQHV0A9HORZXCD", "dateTime": 1516061723887}, {"current_trial": 211, "trialdata": {"rt": [2279, 16060, 20027, 25062, 31279, 39973], "recwords": ["hook", "picknic", "elbow", "shoulder", "baloon", "piston"], "key_times": [419, 1158, 1355, 1649, 2279, 3090, 3467, 4160, 4821, 5097, 6868, 8858, 9098, 10050, 14096, 15218, 16060, 17034, 17749, 18236, 18783, 19288, 20027, 20830, 21391, 21947, 22296, 22632, 23401, 23944, 24184, 25062, 28533, 28948, 29682, 30061, 30230, 30707, 31279, 37222, 37577, 38014, 38574, 39113, 39491, 39973], "trial_type": "free-recall", "conditions": [12, 800, "v", 24000], "internal_node_id": "0.0-157.0-0.0", "key_presses": [72, 79, 79, 75, 13, 80, 73, 67, 75, 73, 67, 37, 37, 37, 39, 78, 13, 69, 76, 66, 79, 87, 13, 83, 72, 79, 85, 76, 68, 69, 82, 13, 66, 65, 76, 79, 79, 78, 13, 80, 73, 83, 84, 79, 78, 13], "trial": 5, "time_elapsed": 1007729, "type": "FREE_RECALL", "trial_index": 211}, "uniqueid": "MTK1636:3Z7EFSHGNALW7MM3OQHV0A9HORZXCD", "dateTime": 1516061783907}, {"current_trial": 212, "trialdata": {"rt": 1468, "trial_type": "text", "internal_node_id": "0.0-158.0", "time_elapsed": 1011212, "key_press": 76, "type": "INSTRUCTIONS", "trial_index": 212}, "uniqueid": "MTK1636:3Z7EFSHGNALW7MM3OQHV0A9HORZXCD", "dateTime": 1516061787377}, {"current_trial": 213, "trialdata": {"rt": [2483, 7817, 13409, 17279, 19351, 21041], "trial_type": "math-distractor", "key_times": [1907, 2132, 2483, 5218, 7332, 7817, 9437, 10032, 13409, 16123, 16878, 17279, 18797, 19004, 19351, 20577, 20734, 21041, 23930], "responses": ["15", "15", "12", "17", "12", "11"], "num2": [8, 3, 3, 6, 2, 5, 9], "num3": [1, 6, 3, 3, 2, 5, 6], "conditions": [24, 1600, "v", 24000], "internal_node_id": "0.0-159.0", "key_presses": [97, 101, 13, 97, 101, 13, 97, 98, 13, 97, 103, 13, 97, 98, 13, 97, 97, 13, 97], "trial": 6, "time_elapsed": 1037220, "type": "DISTRACTOR", "trial_index": 213, "num1": [4, 6, 6, 8, 8, 1, 2]}, "uniqueid": "MTK1636:3Z7EFSHGNALW7MM3OQHV0A9HORZXCD", "dateTime": 1516061813385}, {"current_trial": 214, "trialdata": {"rt": -1, "trial_type": "single-stim", "stimulus": "<p id=\"stim\">10</p>", "internal_node_id": "0.0-160.0-0.0", "time_elapsed": 1040223, "key_press": -1, "trial_index": 214}, "uniqueid": "MTK1636:3Z7EFSHGNALW7MM3OQHV0A9HORZXCD", "dateTime": 1516061816387}, {"current_trial": 215, "trialdata": {"rt": -1, "trial_type": "single-stim", "stimulus": "<p id=\"stim\">9</p>", "internal_node_id": "0.0-160.0-1.0", "time_elapsed": 1041226, "key_press": -1, "trial_index": 215}, "uniqueid": "MTK1636:3Z7EFSHGNALW7MM3OQHV0A9HORZXCD", "dateTime": 1516061817390}, {"current_trial": 216, "trialdata": {"rt": -1, "trial_type": "single-stim", "stimulus": "<p id=\"stim\">8</p>", "internal_node_id": "0.0-160.0-2.0", "time_elapsed": 1042229, "key_press": -1, "trial_index": 216}, "uniqueid": "MTK1636:3Z7EFSHGNALW7MM3OQHV0A9HORZXCD", "dateTime": 1516061818393}, {"current_trial": 217, "trialdata": {"rt": -1, "trial_type": "single-stim", "stimulus": "<p id=\"stim\">7</p>", "internal_node_id": "0.0-160.0-3.0", "time_elapsed": 1043232, "key_press": -1, "trial_index": 217}, "uniqueid": "MTK1636:3Z7EFSHGNALW7MM3OQHV0A9HORZXCD", "dateTime": 1516061819396}, {"current_trial": 218, "trialdata": {"rt": -1, "trial_type": "single-stim", "stimulus": "<p id=\"stim\">6</p>", "internal_node_id": "0.0-160.0-4.0", "time_elapsed": 1044234, "key_press": -1, "trial_index": 218}, "uniqueid": "MTK1636:3Z7EFSHGNALW7MM3OQHV0A9HORZXCD", "dateTime": 1516061820398}, {"current_trial": 219, "trialdata": {"rt": -1, "trial_type": "single-stim", "stimulus": "<p id=\"stim\">5</p>", "internal_node_id": "0.0-160.0-5.0", "time_elapsed": 1045236, "key_press": -1, "trial_index": 219}, "uniqueid": "MTK1636:3Z7EFSHGNALW7MM3OQHV0A9HORZXCD", "dateTime": 1516061821401}, {"current_trial": 220, "trialdata": {"rt": -1, "trial_type": "single-stim", "stimulus": "<p id=\"stim\">4</p>", "internal_node_id": "0.0-160.0-6.0", "time_elapsed": 1046239, "key_press": -1, "trial_index": 220}, "uniqueid": "MTK1636:3Z7EFSHGNALW7MM3OQHV0A9HORZXCD", "dateTime": 1516061822403}, {"current_trial": 221, "trialdata": {"rt": -1, "trial_type": "single-stim", "stimulus": "<p id=\"stim\">3</p>", "internal_node_id": "0.0-160.0-7.0", "time_elapsed": 1047242, "key_press": -1, "trial_index": 221}, "uniqueid": "MTK1636:3Z7EFSHGNALW7MM3OQHV0A9HORZXCD", "dateTime": 1516061823406}, {"current_trial": 222, "trialdata": {"rt": -1, "trial_type": "single-stim", "stimulus": "<p id=\"stim\">2</p>", "internal_node_id": "0.0-160.0-8.0", "time_elapsed": 1048245, "key_press": -1, "trial_index": 222}, "uniqueid": "MTK1636:3Z7EFSHGNALW7MM3OQHV0A9HORZXCD", "dateTime": 1516061824410}, {"current_trial": 223, "trialdata": {"rt": -1, "trial_type": "single-stim", "stimulus": "<p id=\"stim\">1</p>", "internal_node_id": "0.0-160.0-9.0", "time_elapsed": 1049249, "key_press": -1, "trial_index": 223}, "uniqueid": "MTK1636:3Z7EFSHGNALW7MM3OQHV0A9HORZXCD", "dateTime": 1516061825413}, {"current_trial": 224, "trialdata": {"rt": -1, "trial_type": "single-stim", "stimulus": "<p id=\"stim\">+</p>", "internal_node_id": "0.0-161.0-0.0", "time_elapsed": 1050752, "key_press": -1, "type": "FIXATION", "trial_index": 224}, "uniqueid": "MTK1636:3Z7EFSHGNALW7MM3OQHV0A9HORZXCD", "dateTime": 1516061826916}, {"current_trial": 225, "trialdata": {"rt": -1, "trial_type": "single-stim", "word": "mailbox", "stimulus": "<p id=\"stim\">MAILBOX</p>", "conditions": [24, 1600, "v", 24000], "internal_node_id": "0.0-162.0", "trial": 6, "time_elapsed": 1052357, "serialpos": 0, "key_press": -1, "wordID": 856, "type": "PRES_VIS", "trial_index": 225}, "uniqueid": "MTK1636:3Z7EFSHGNALW7MM3OQHV0A9HORZXCD", "dateTime": 1516061828522}, {"current_trial": 226, "trialdata": {"rt": -1, "trial_type": "single-stim", "word": "mailman", "stimulus": "<p id=\"stim\">MAILMAN</p>", "conditions": [24, 1600, "v", 24000], "internal_node_id": "0.0-163.0", "trial": 6, "time_elapsed": 1055086, "serialpos": 1, "key_press": -1, "wordID": 857, "type": "PRES_VIS", "trial_index": 226}, "uniqueid": "MTK1636:3Z7EFSHGNALW7MM3OQHV0A9HORZXCD", "dateTime": 1516061831250}, {"current_trial": 227, "trialdata": {"rt": -1, "trial_type": "single-stim", "word": "rod", "stimulus": "<p id=\"stim\">ROD</p>", "conditions": [24, 1600, "v", 24000], "internal_node_id": "0.0-164.0", "trial": 6, "time_elapsed": 1057489, "serialpos": 2, "key_press": -1, "wordID": 1202, "type": "PRES_VIS", "trial_index": 227}, "uniqueid": "MTK1636:3Z7EFSHGNALW7MM3OQHV0A9HORZXCD", "dateTime": 1516061833653}, {"current_trial": 228, "trialdata": {"rt": -1, "trial_type": "single-stim", "word": "finger", "stimulus": "<p id=\"stim\">FINGER</p>", "conditions": [24, 1600, "v", 24000], "internal_node_id": "0.0-165.0", "trial": 6, "time_elapsed": 1059975, "serialpos": 3, "key_press": -1, "wordID": 566, "type": "PRES_VIS", "trial_index": 228}, "uniqueid": "MTK1636:3Z7EFSHGNALW7MM3OQHV0A9HORZXCD", "dateTime": 1516061836139}, {"current_trial": 229, "trialdata": {"rt": -1, "trial_type": "single-stim", "word": "uncle", "stimulus": "<p id=\"stim\">UNCLE</p>", "conditions": [24, 1600, "v", 24000], "internal_node_id": "0.0-166.0", "trial": 6, "time_elapsed": 1062565, "serialpos": 4, "key_press": -1, "wordID": 1535, "type": "PRES_VIS", "trial_index": 229}, "uniqueid": "MTK1636:3Z7EFSHGNALW7MM3OQHV0A9HORZXCD", "dateTime": 1516061838729}, {"current_trial": 230, "trialdata": {"rt": -1, "trial_type": "single-stim", "word": "popcorn", "stimulus": "<p id=\"stim\">POPCORN</p>", "conditions": [24, 1600, "v", 24000], "internal_node_id": "0.0-167.0", "trial": 6, "time_elapsed": 1065007, "serialpos": 5, "key_press": -1, "wordID": 1103, "type": "PRES_VIS", "trial_index": 230}, "uniqueid": "MTK1636:3Z7EFSHGNALW7MM3OQHV0A9HORZXCD", "dateTime": 1516061841171}, {"current_trial": 231, "trialdata": {"rt": -1, "trial_type": "single-stim", "word": "washer", "stimulus": "<p id=\"stim\">WASHER</p>", "conditions": [24, 1600, "v", 24000], "internal_node_id": "0.0-168.0", "trial": 6, "time_elapsed": 1067459, "serialpos": 6, "key_press": -1, "wordID": 1591, "type": "PRES_VIS", "trial_index": 231}, "uniqueid": "MTK1636:3Z7EFSHGNALW7MM3OQHV0A9HORZXCD", "dateTime": 1516061843623}, {"current_trial": 232, "trialdata": {"rt": -1, "trial_type": "single-stim", "word": "tractor", "stimulus": "<p id=\"stim\">TRACTOR</p>", "conditions": [24, 1600, "v", 24000], "internal_node_id": "0.0-169.0", "trial": 6, "time_elapsed": 1070204, "serialpos": 7, "key_press": -1, "wordID": 1492, "type": "PRES_VIS", "trial_index": 232}, "uniqueid": "MTK1636:3Z7EFSHGNALW7MM3OQHV0A9HORZXCD", "dateTime": 1516061846368}, {"current_trial": 233, "trialdata": {"rt": -1, "trial_type": "single-stim", "word": "burglar", "stimulus": "<p id=\"stim\">BURGLAR</p>", "conditions": [24, 1600, "v", 24000], "internal_node_id": "0.0-170.0", "trial": 6, "time_elapsed": 1072953, "serialpos": 8, "key_press": -1, "wordID": 199, "type": "PRES_VIS", "trial_index": 233}, "uniqueid": "MTK1636:3Z7EFSHGNALW7MM3OQHV0A9HORZXCD", "dateTime": 1516061849117}, {"current_trial": 234, "trialdata": {"rt": -1, "trial_type": "single-stim", "word": "neutron", "stimulus": "<p id=\"stim\">NEUTRON</p>", "conditions": [24, 1600, "v", 24000], "internal_node_id": "0.0-171.0", "trial": 6, "time_elapsed": 1075442, "serialpos": 9, "key_press": -1, "wordID": 946, "type": "PRES_VIS", "trial_index": 234}, "uniqueid": "MTK1636:3Z7EFSHGNALW7MM3OQHV0A9HORZXCD", "dateTime": 1516061851606}, {"current_trial": 235, "trialdata": {"rt": -1, "trial_type": "single-stim", "word": "candy", "stimulus": "<p id=\"stim\">CANDY</p>", "conditions": [24, 1600, "v", 24000], "internal_node_id": "0.0-172.0", "trial": 6, "time_elapsed": 1077989, "serialpos": 10, "key_press": -1, "wordID": 229, "type": "PRES_VIS", "trial_index": 235}, "uniqueid": "MTK1636:3Z7EFSHGNALW7MM3OQHV0A9HORZXCD", "dateTime": 1516061854153}, {"current_trial": 236, "trialdata": {"rt": -1, "trial_type": "single-stim", "word": "picture", "stimulus": "<p id=\"stim\">PICTURE</p>", "conditions": [24, 1600, "v", 24000], "internal_node_id": "0.0-173.0", "trial": 6, "time_elapsed": 1080704, "serialpos": 11, "key_press": -1, "wordID": 1060, "type": "PRES_VIS", "trial_index": 236}, "uniqueid": "MTK1636:3Z7EFSHGNALW7MM3OQHV0A9HORZXCD", "dateTime": 1516061856868}, {"current_trial": 237, "trialdata": {"rt": -1, "trial_type": "single-stim", "word": "belly", "stimulus": "<p id=\"stim\">BELLY</p>", "conditions": [24, 1600, "v", 24000], "internal_node_id": "0.0-174.0", "trial": 6, "time_elapsed": 1083163, "serialpos": 12, "key_press": -1, "wordID": 118, "type": "PRES_VIS", "trial_index": 237}, "uniqueid": "MTK1636:3Z7EFSHGNALW7MM3OQHV0A9HORZXCD", "dateTime": 1516061859327}, {"current_trial": 238, "trialdata": {"rt": -1, "trial_type": "single-stim", "word": "comet", "stimulus": "<p id=\"stim\">COMET</p>", "conditions": [24, 1600, "v", 24000], "internal_node_id": "0.0-175.0", "trial": 6, "time_elapsed": 1085667, "serialpos": 13, "key_press": -1, "wordID": 352, "type": "PRES_VIS", "trial_index": 238}, "uniqueid": "MTK1636:3Z7EFSHGNALW7MM3OQHV0A9HORZXCD", "dateTime": 1516061861831}, {"current_trial": 239, "trialdata": {"rt": -1, "trial_type": "single-stim", "word": "yarn", "stimulus": "<p id=\"stim\">YARN</p>", "conditions": [24, 1600, "v", 24000], "internal_node_id": "0.0-176.0", "trial": 6, "time_elapsed": 1088068, "serialpos": 14, "key_press": -1, "wordID": 1630, "type": "PRES_VIS", "trial_index": 239}, "uniqueid": "MTK1636:3Z7EFSHGNALW7MM3OQHV0A9HORZXCD", "dateTime": 1516061864233}, {"current_trial": 240, "trialdata": {"rt": -1, "trial_type": "single-stim", "word": "plaid", "stimulus": "<p id=\"stim\">PLAID</p>", "conditions": [24, 1600, "v", 24000], "internal_node_id": "0.0-177.0", "trial": 6, "time_elapsed": 1090539, "serialpos": 15, "key_press": -1, "wordID": 1079, "type": "PRES_VIS", "trial_index": 240}, "uniqueid": "MTK1636:3Z7EFSHGNALW7MM3OQHV0A9HORZXCD", "dateTime": 1516061866703}, {"current_trial": 241, "trialdata": {"rt": -1, "trial_type": "single-stim", "word": "toaster", "stimulus": "<p id=\"stim\">TOASTER</p>", "conditions": [24, 1600, "v", 24000], "internal_node_id": "0.0-178.0", "trial": 6, "time_elapsed": 1093230, "serialpos": 16, "key_press": -1, "wordID": 1471, "type": "PRES_VIS", "trial_index": 241}, "uniqueid": "MTK1636:3Z7EFSHGNALW7MM3OQHV0A9HORZXCD", "dateTime": 1516061869394}, {"current_trial": 242, "trialdata": {"rt": -1, "trial_type": "single-stim", "word": "dress", "stimulus": "<p id=\"stim\">DRESS</p>", "conditions": [24, 1600, "v", 24000], "internal_node_id": "0.0-179.0", "trial": 6, "time_elapsed": 1095704, "serialpos": 17, "key_press": -1, "wordID": 494, "type": "PRES_VIS", "trial_index": 242}, "uniqueid": "MTK1636:3Z7EFSHGNALW7MM3OQHV0A9HORZXCD", "dateTime": 1516061871868}, {"current_trial": 243, "trialdata": {"rt": -1, "trial_type": "single-stim", "word": "carriage", "stimulus": "<p id=\"stim\">CARRIAGE</p>", "conditions": [24, 1600, "v", 24000], "internal_node_id": "0.0-180.0", "trial": 6, "time_elapsed": 1098156, "serialpos": 18, "key_press": -1, "wordID": 247, "type": "PRES_VIS", "trial_index": 243}, "uniqueid": "MTK1636:3Z7EFSHGNALW7MM3OQHV0A9HORZXCD", "dateTime": 1516061874320}, {"current_trial": 244, "trialdata": {"rt": -1, "trial_type": "single-stim", "word": "stone", "stimulus": "<p id=\"stim\">STONE</p>", "conditions": [24, 1600, "v", 24000], "internal_node_id": "0.0-181.0", "trial": 6, "time_elapsed": 1100666, "serialpos": 19, "key_press": -1, "wordID": 1384, "type": "PRES_VIS", "trial_index": 244}, "uniqueid": "MTK1636:3Z7EFSHGNALW7MM3OQHV0A9HORZXCD", "dateTime": 1516061876830}, {"current_trial": 245, "trialdata": {"rt": -1, "trial_type": "single-stim", "word": "woman", "stimulus": "<p id=\"stim\">WOMAN</p>", "conditions": [24, 1600, "v", 24000], "internal_node_id": "0.0-182.0", "trial": 6, "time_elapsed": 1103103, "serialpos": 20, "key_press": -1, "wordID": 1619, "type": "PRES_VIS", "trial_index": 245}, "uniqueid": "MTK1636:3Z7EFSHGNALW7MM3OQHV0A9HORZXCD", "dateTime": 1516061879268}, {"current_trial": 246, "trialdata": {"rt": -1, "trial_type": "single-stim", "word": "stove", "stimulus": "<p id=\"stim\">STOVE</p>", "conditions": [24, 1600, "v", 24000], "internal_node_id": "0.0-183.0", "trial": 6, "time_elapsed": 1105855, "serialpos": 21, "key_press": -1, "wordID": 1387, "type": "PRES_VIS", "trial_index": 246}, "uniqueid": "MTK1636:3Z7EFSHGNALW7MM3OQHV0A9HORZXCD", "dateTime": 1516061882019}, {"current_trial": 247, "trialdata": {"rt": -1, "trial_type": "single-stim", "word": "sausage", "stimulus": "<p id=\"stim\">SAUSAGE</p>", "conditions": [24, 1600, "v", 24000], "internal_node_id": "0.0-184.0", "trial": 6, "time_elapsed": 1108618, "serialpos": 22, "key_press": -1, "wordID": 1237, "type": "PRES_VIS", "trial_index": 247}, "uniqueid": "MTK1636:3Z7EFSHGNALW7MM3OQHV0A9HORZXCD", "dateTime": 1516061884782}, {"current_trial": 248, "trialdata": {"rt": -1, "trial_type": "single-stim", "word": "pork", "stimulus": "<p id=\"stim\">PORK</p>", "conditions": [24, 1600, "v", 24000], "internal_node_id": "0.0-185.0", "trial": 6, "time_elapsed": 1111403, "serialpos": 23, "key_press": -1, "wordID": 1107, "type": "PRES_VIS", "trial_index": 248}, "uniqueid": "MTK1636:3Z7EFSHGNALW7MM3OQHV0A9HORZXCD", "dateTime": 1516061887568}, {"current_trial": 249, "trialdata": {"rt": -1, "trial_type": "single-stim", "stimulus": "", "internal_node_id": "0.0-186.0-0.0", "time_elapsed": 1113683, "key_press": -1, "type": "PRE_RECALL_DELAY", "trial_index": 249}, "uniqueid": "MTK1636:3Z7EFSHGNALW7MM3OQHV0A9HORZXCD", "dateTime": 1516061889847}, {"current_trial": 250, "trialdata": {"rt": -1000, "trial_type": "single-audio", "stimulus": "/static/audio/400Hz.wav", "internal_node_id": "0.0-187.0", "time_elapsed": 1114189, "key_press": -1, "type": "PRE_RECALL_ALERT", "trial_index": 250}, "uniqueid": "MTK1636:3Z7EFSHGNALW7MM3OQHV0A9HORZXCD", "dateTime": 1516061890353}, {"current_trial": 251, "trialdata": {"rt": [3803, 8673, 12674, 22440, 40746, 44106], "recwords": ["pork", "sausage", "uncle", "mailman", "woman", "dress"], "key_times": [1576, 1817, 2476, 3176, 3803, 4960, 5209, 5749, 6170, 6401, 7275, 7725, 8673, 9924, 10260, 10713, 11197, 11789, 12674, 13250, 13466, 14399, 16167, 16399, 16753, 17485, 17968, 18619, 18896, 19276, 19875, 20552, 22440, 37341, 38065, 38496, 39087, 39825, 40746, 42280, 42594, 42814, 43176, 43343, 44106], "trial_type": "free-recall", "conditions": [24, 1600, "v", 24000], "internal_node_id": "0.0-188.0-0.0", "key_presses": [80, 79, 82, 75, 13, 83, 65, 85, 83, 65, 71, 69, 13, 85, 78, 67, 76, 69, 13, 80, 79, 82, 8, 8, 8, 77, 65, 73, 76, 77, 65, 78, 13, 87, 79, 77, 65, 78, 13, 68, 82, 69, 83, 83, 13], "trial": 6, "time_elapsed": 1174198, "type": "FREE_RECALL", "trial_index": 251}, "uniqueid": "MTK1636:3Z7EFSHGNALW7MM3OQHV0A9HORZXCD", "dateTime": 1516061950376}, {"current_trial": 252, "trialdata": {"rt": 1856, "trial_type": "text", "internal_node_id": "0.0-189.0", "time_elapsed": 1178070, "key_press": 71, "type": "INSTRUCTIONS", "trial_index": 252}, "uniqueid": "MTK1636:3Z7EFSHGNALW7MM3OQHV0A9HORZXCD", "dateTime": 1516061954235}, {"current_trial": 253, "trialdata": {"rt": [2459, 5033, 7574, 10169], "trial_type": "math-distractor", "key_times": [1910, 2129, 2459, 4677, 5033, 6853, 7206, 7574, 9474, 9821, 10169], "responses": ["10", "8", "16", "17"], "num2": [1, 2, 2, 4, 5], "num3": [4, 3, 8, 6, 4], "conditions": [24, 1600, "v", 12000], "internal_node_id": "0.0-190.0", "key_presses": [97, 96, 13, 104, 13, 97, 102, 13, 97, 103, 13], "trial": 7, "time_elapsed": 1192078, "type": "DISTRACTOR", "trial_index": 253, "num1": [5, 3, 6, 7, 7]}, "uniqueid": "MTK1636:3Z7EFSHGNALW7MM3OQHV0A9HORZXCD", "dateTime": 1516061968242}, {"current_trial": 254, "trialdata": {"rt": -1, "trial_type": "single-stim", "stimulus": "<p id=\"stim\">10</p>", "internal_node_id": "0.0-191.0-0.0", "time_elapsed": 1195081, "key_press": -1, "trial_index": 254}, "uniqueid": "MTK1636:3Z7EFSHGNALW7MM3OQHV0A9HORZXCD", "dateTime": 1516061971245}, {"current_trial": 255, "trialdata": {"rt": -1, "trial_type": "single-stim", "stimulus": "<p id=\"stim\">9</p>", "internal_node_id": "0.0-191.0-1.0", "time_elapsed": 1196084, "key_press": -1, "trial_index": 255}, "uniqueid": "MTK1636:3Z7EFSHG