{"condition": 0, "counterbalance": 2998, "assignmentId": "3STRJBFXOXY793P7BTXWZQ1JD40KT7", "workerId": "MTK1082", "hitId": "3EPG8DX9LKX4C8D3XNF437LKB1DP54", "currenttrial": 626, "bonus": 0, "data": [{"uniqueid": "MTK1082:3STRJBFXOXY793P7BTXWZQ1JD40KT7", "current_trial": 0, "dateTime": 1513099027697, "trialdata": {"rt": 36854, "key_press": 32, "type": "INSTRUCTIONS", "trial_type": "text", "trial_index": 0, "time_elapsed": 36856, "internal_node_id": "0.0-0.0"}}, {"uniqueid": "MTK1082:3STRJBFXOXY793P7BTXWZQ1JD40KT7", "current_trial": 1, "dateTime": 1513099057081, "trialdata": {"rt": 29383, "key_press": 32, "type": "INSTRUCTIONS", "trial_type": "text", "trial_index": 1, "time_elapsed": 66240, "internal_node_id": "0.0-1.0"}}, {"uniqueid": "MTK1082:3STRJBFXOXY793P7BTXWZQ1JD40KT7", "current_trial": 2, "dateTime": 1513099077947, "trialdata": {"rt": [20858], "responses": ["ocean"], "type": "AUDIO_TEST", "trial_type": "audio-test", "trial_index": 2, "time_elapsed": 87106, "internal_node_id": "0.0-2.0"}}, {"uniqueid": "MTK1082:3STRJBFXOXY793P7BTXWZQ1JD40KT7", "current_trial": 3, "dateTime": 1513099083755, "trialdata": {"rt": [5804], "responses": ["crystal"], "type": "AUDIO_TEST", "trial_type": "audio-test", "trial_index": 3, "time_elapsed": 92914, "internal_node_id": "0.0-3.0"}}, {"uniqueid": "MTK1082:3STRJBFXOXY793P7BTXWZQ1JD40KT7", "current_trial": 4, "dateTime": 1513099088968, "trialdata": {"rt": [5210], "responses": ["spice"], "type": "AUDIO_TEST", "trial_type": "audio-test", "trial_index": 4, "time_elapsed": 98127, "internal_node_id": "0.0-4.0"}}, {"uniqueid": "MTK1082:3STRJBFXOXY793P7BTXWZQ1JD40KT7", "current_trial": 5, "dateTime": 1513099115937, "trialdata": {"rt": 26216, "responses": "{\"Q0\":\"2:00AM\",\"Q1\":\"10:00AM\",\"Q2\":\"4\"}", "type": "SLEEP_SURVEY", "trial_type": "survey-text", "trial_index": 5, "time_elapsed": 125096, "internal_node_id": "0.0-5.0"}}, {"uniqueid": "MTK1082:3STRJBFXOXY793P7BTXWZQ1JD40KT7", "current_trial": 6, "dateTime": 1513099183997, "trialdata": {"rt": 67059, "key_press": 32, "type": "INSTRUCTIONS", "trial_type": "text", "trial_index": 6, "time_elapsed": 193156, "internal_node_id": "0.0-6.0"}}, {"uniqueid": "MTK1082:3STRJBFXOXY793P7BTXWZQ1JD40KT7", "current_trial": 7, "dateTime": 1513099196802, "trialdata": {"rt": 12304, "key_press": 32, "type": "INSTRUCTIONS", "trial_type": "text", "trial_index": 7, "time_elapsed": 205961, "internal_node_id": "0.0-7.0"}}, {"uniqueid": "MTK1082:3STRJBFXOXY793P7BTXWZQ1JD40KT7", "current_trial": 8, "dateTime": 1513099228374, "trialdata": {"rt": 31071, "key_press": 32, "type": "INSTRUCTIONS", "trial_type": "text", "trial_index": 8, "time_elapsed": 237533, "internal_node_id": "0.0-8.0"}}, {"uniqueid": "MTK1082:3STRJBFXOXY793P7BTXWZQ1JD40KT7", "current_trial": 9, "dateTime": 1513099247616, "trialdata": {"rt": [2835, 5759, 8679, 11032, 14885], "responses": ["9", "14", "15", "9", "16"], "num1": [2, 1, 3, 2, 5, 9], "num2": [5, 4, 4, 6, 4, 3], "num3": [2, 9, 8, 1, 7, 3], "type": "DISTRACTOR", "conditions": [18, 1200, "a", 18000], "trial": 0, "trial_type": "math-distractor", "trial_index": 9, "time_elapsed": 256774, "internal_node_id": "0.0-9.0"}}, {"uniqueid": "MTK1082:3STRJBFXOXY793P7BTXWZQ1JD40KT7", "current_trial": 10, "dateTime": 1513099250618, "trialdata": {"rt": -1, "stimulus": "<p id=\"stim\">10</p>", "key_press": -1, "trial_type": "single-stim", "trial_index": 10, "time_elapsed": 259777, "internal_node_id": "0.0-10.0-0.0"}}, {"uniqueid": "MTK1082:3STRJBFXOXY793P7BTXWZQ1JD40KT7", "current_trial": 11, "dateTime": 1513099251619, "trialdata": {"rt": -1, "stimulus": "<p id=\"stim\">9</p>", "key_press": -1, "trial_type": "single-stim", "trial_index": 11, "time_elapsed": 260778, "internal_node_id": "0.0-10.0-1.0"}}, {"uniqueid": "MTK1082:3STRJBFXOXY793P7BTXWZQ1JD40KT7", "current_trial": 12, "dateTime": 1513099252621, "trialdata": {"rt": -1, "stimulus": "<p id=\"stim\">8</p>", "key_press": -1, "trial_type": "single-stim", "trial_index": 12, "time_elapsed": 261780, "internal_node_id": "0.0-10.0-2.0"}}, {"uniqueid": "MTK1082:3STRJBFXOXY793P7BTXWZQ1JD40KT7", "current_trial": 13, "dateTime": 1513099253621, "trialdata": {"rt": -1, "stimulus": "<p id=\"stim\">7</p>", "key_press": -1, "trial_type": "single-stim", "trial_index": 13, "time_elapsed": 262780, "internal_node_id": "0.0-10.0-3.0"}}, {"uniqueid": "MTK1082:3STRJBFXOXY793P7BTXWZQ1JD40KT7", "current_trial": 14, "dateTime": 1513099254623, "trialdata": {"rt": -1, "stimulus": "<p id=\"stim\">6</p>", "key_press": -1, "trial_type": "single-stim", "trial_index": 14, "time_elapsed": 263782, "internal_node_id": "0.0-10.0-4.0"}}, {"uniqueid": "MTK1082:3STRJBFXOXY793P7BTXWZQ1JD40KT7", "current_trial": 15, "dateTime": 1513099255623, "trialdata": {"rt": -1, "stimulus": "<p id=\"stim\">5</p>", "key_press": -1, "trial_type": "single-stim", "trial_index": 15, "time_elapsed": 264782, "internal_node_id": "0.0-10.0-5.0"}}, {"uniqueid": "MTK1082:3STRJBFXOXY793P7BTXWZQ1JD40KT7", "current_trial": 16, "dateTime": 1513099256625, "trialdata": {"rt": -1, "stimulus": "<p id=\"stim\">4</p>", "key_press": -1, "trial_type": "single-stim", "trial_index": 16, "time_elapsed": 265784, "internal_node_id": "0.0-10.0-6.0"}}, {"uniqueid": "MTK1082:3STRJBFXOXY793P7BTXWZQ1JD40KT7", "current_trial": 17, "dateTime": 1513099257626, "trialdata": {"rt": -1, "stimulus": "<p id=\"stim\">3</p>", "key_press": -1, "trial_type": "single-stim", "trial_index": 17, "time_elapsed": 266785, "internal_node_id": "0.0-10.0-7.0"}}, {"uniqueid": "MTK1082:3STRJBFXOXY793P7BTXWZQ1JD40KT7", "current_trial": 18, "dateTime": 1513099258628, "trialdata": {"rt": -1, "stimulus": "<p id=\"stim\">2</p>", "key_press": -1, "trial_type": "single-stim", "trial_index": 18, "time_elapsed": 267787, "internal_node_id": "0.0-10.0-8.0"}}, {"uniqueid": "MTK1082:3STRJBFXOXY793P7BTXWZQ1JD40KT7", "current_trial": 19, "dateTime": 1513099259630, "trialdata": {"rt": -1, "stimulus": "<p id=\"stim\">1</p>", "key_press": -1, "trial_type": "single-stim", "trial_index": 19, "time_elapsed": 268788, "internal_node_id": "0.0-10.0-9.0"}}, {"uniqueid": "MTK1082:3STRJBFXOXY793P7BTXWZQ1JD40KT7", "current_trial": 20, "dateTime": 1513099261133, "trialdata": {"rt": -1, "stimulus": "<p id=\"stim\">+</p>", "key_press": -1, "type": "FIXATION", "trial_type": "single-stim", "trial_index": 20, "time_elapsed": 270291, "internal_node_id": "0.0-11.0-0.0"}}, {"uniqueid": "MTK1082:3STRJBFXOXY793P7BTXWZQ1JD40KT7", "current_trial": 21, "dateTime": 1513099263528, "trialdata": {"rt": -1000, "stimulus": "/static/audio/wordpool/BUGGY.wav", "key_press": -1, "type": "PRES_AUD", "word": "buggy", "wordID": 187, "conditions": [18, 1200, "a", 18000], "trial": 0, "serialpos": 0, "trial_type": "single-audio", "trial_index": 21, "time_elapsed": 272687, "internal_node_id": "0.0-12.0"}}, {"uniqueid": "MTK1082:3STRJBFXOXY793P7BTXWZQ1JD40KT7", "current_trial": 22, "dateTime": 1513099265805, "trialdata": {"rt": -1000, "stimulus": "/static/audio/wordpool/DRESSER.wav", "key_press": -1, "type": "PRES_AUD", "word": "dresser", "wordID": 495, "conditions": [18, 1200, "a", 18000], "trial": 0, "serialpos": 1, "trial_type": "single-audio", "trial_index": 22, "time_elapsed": 274964, "internal_node_id": "0.0-13.0"}}, {"uniqueid": "MTK1082:3STRJBFXOXY793P7BTXWZQ1JD40KT7", "current_trial": 23, "dateTime": 1513099267955, "trialdata": {"rt": -1000, "stimulus": "/static/audio/wordpool/FLOWER.wav", "key_press": -1, "type": "PRES_AUD", "word": "flower", "wordID": 583, "conditions": [18, 1200, "a", 18000], "trial": 0, "serialpos": 2, "trial_type": "single-audio", "trial_index": 23, "time_elapsed": 277113, "internal_node_id": "0.0-14.0"}}, {"uniqueid": "MTK1082:3STRJBFXOXY793P7BTXWZQ1JD40KT7", "current_trial": 24, "dateTime": 1513099270266, "trialdata": {"rt": -1000, "stimulus": "/static/audio/wordpool/RAZOR.wav", "key_press": -1, "type": "PRES_AUD", "word": "razor", "wordID": 1170, "conditions": [18, 1200, "a", 18000], "trial": 0, "serialpos": 3, "trial_type": "single-audio", "trial_index": 24, "time_elapsed": 279425, "internal_node_id": "0.0-15.0"}}, {"uniqueid": "MTK1082:3STRJBFXOXY793P7BTXWZQ1JD40KT7", "current_trial": 25, "dateTime": 1513099272623, "trialdata": {"rt": -1000, "stimulus": "/static/audio/wordpool/JUDGE.wav", "key_press": -1, "type": "PRES_AUD", "word": "judge", "wordID": 760, "conditions": [18, 1200, "a", 18000], "trial": 0, "serialpos": 4, "trial_type": "single-audio", "trial_index": 25, "time_elapsed": 281782, "internal_node_id": "0.0-16.0"}}, {"uniqueid": "MTK1082:3STRJBFXOXY793P7BTXWZQ1JD40KT7", "current_trial": 26, "dateTime": 1513099274894, "trialdata": {"rt": -1000, "stimulus": "/static/audio/wordpool/FOREST.wav", "key_press": -1, "type": "PRES_AUD", "word": "forest", "wordID": 592, "conditions": [18, 1200, "a", 18000], "trial": 0, "serialpos": 5, "trial_type": "single-audio", "trial_index": 26, "time_elapsed": 284053, "internal_node_id": "0.0-17.0"}}, {"uniqueid": "MTK1082:3STRJBFXOXY793P7BTXWZQ1JD40KT7", "current_trial": 27, "dateTime": 1513099276916, "trialdata": {"rt": -1000, "stimulus": "/static/audio/wordpool/OUTDOORS.wav", "key_press": -1, "type": "PRES_AUD", "word": "outdoors", "wordID": 986, "conditions": [18, 1200, "a", 18000], "trial": 0, "serialpos": 6, "trial_type": "single-audio", "trial_index": 27, "time_elapsed": 286075, "internal_node_id": "0.0-18.0"}}, {"uniqueid": "MTK1082:3STRJBFXOXY793P7BTXWZQ1JD40KT7", "current_trial": 28, "dateTime": 1513099279075, "trialdata": {"rt": -1000, "stimulus": "/static/audio/wordpool/SALAD.wav", "key_press": -1, "type": "PRES_AUD", "word": "salad", "wordID": 1223, "conditions": [18, 1200, "a", 18000], "trial": 0, "serialpos": 7, "trial_type": "single-audio", "trial_index": 28, "time_elapsed": 288234, "internal_node_id": "0.0-19.0"}}, {"uniqueid": "MTK1082:3STRJBFXOXY793P7BTXWZQ1JD40KT7", "current_trial": 29, "dateTime": 1513099281097, "trialdata": {"rt": -1000, "stimulus": "/static/audio/wordpool/RECORD.wav", "key_press": -1, "type": "PRES_AUD", "word": "record", "wordID": 1175, "conditions": [18, 1200, "a", 18000], "trial": 0, "serialpos": 8, "trial_type": "single-audio", "trial_index": 29, "time_elapsed": 290256, "internal_node_id": "0.0-20.0"}}, {"uniqueid": "MTK1082:3STRJBFXOXY793P7BTXWZQ1JD40KT7", "current_trial": 30, "dateTime": 1513099283144, "trialdata": {"rt": -1000, "stimulus": "/static/audio/wordpool/FOOTBALL.wav", "key_press": -1, "type": "PRES_AUD", "word": "football", "wordID": 590, "conditions": [18, 1200, "a", 18000], "trial": 0, "serialpos": 9, "trial_type": "single-audio", "trial_index": 30, "time_elapsed": 292303, "internal_node_id": "0.0-21.0"}}, {"uniqueid": "MTK1082:3STRJBFXOXY793P7BTXWZQ1JD40KT7", "current_trial": 31, "dateTime": 1513099285271, "trialdata": {"rt": -1000, "stimulus": "/static/audio/wordpool/SEAL.wav", "key_press": -1, "type": "PRES_AUD", "word": "seal", "wordID": 1261, "conditions": [18, 1200, "a", 18000], "trial": 0, "serialpos": 10, "trial_type": "single-audio", "trial_index": 31, "time_elapsed": 294430, "internal_node_id": "0.0-22.0"}}, {"uniqueid": "MTK1082:3STRJBFXOXY793P7BTXWZQ1JD40KT7", "current_trial": 32, "dateTime": 1513099287285, "trialdata": {"rt": -1000, "stimulus": "/static/audio/wordpool/SAUSAGE.wav", "key_press": -1, "type": "PRES_AUD", "word": "sausage", "wordID": 1237, "conditions": [18, 1200, "a", 18000], "trial": 0, "serialpos": 11, "trial_type": "single-audio", "trial_index": 32, "time_elapsed": 296444, "internal_node_id": "0.0-23.0"}}, {"uniqueid": "MTK1082:3STRJBFXOXY793P7BTXWZQ1JD40KT7", "current_trial": 33, "dateTime": 1513099289552, "trialdata": {"rt": -1000, "stimulus": "/static/audio/wordpool/PANTHER.wav", "key_press": -1, "type": "PRES_AUD", "word": "panther", "wordID": 1008, "conditions": [18, 1200, "a", 18000], "trial": 0, "serialpos": 12, "trial_type": "single-audio", "trial_index": 33, "time_elapsed": 298711, "internal_node_id": "0.0-24.0"}}, {"uniqueid": "MTK1082:3STRJBFXOXY793P7BTXWZQ1JD40KT7", "current_trial": 34, "dateTime": 1513099291719, "trialdata": {"rt": -1000, "stimulus": "/static/audio/wordpool/EXPERT.wav", "key_press": -1, "type": "PRES_AUD", "word": "expert", "wordID": 542, "conditions": [18, 1200, "a", 18000], "trial": 0, "serialpos": 13, "trial_type": "single-audio", "trial_index": 34, "time_elapsed": 300878, "internal_node_id": "0.0-25.0"}}, {"uniqueid": "MTK1082:3STRJBFXOXY793P7BTXWZQ1JD40KT7", "current_trial": 35, "dateTime": 1513099293799, "trialdata": {"rt": -1000, "stimulus": "/static/audio/wordpool/DAISY.wav", "key_press": -1, "type": "PRES_AUD", "word": "daisy", "wordID": 434, "conditions": [18, 1200, "a", 18000], "trial": 0, "serialpos": 14, "trial_type": "single-audio", "trial_index": 35, "time_elapsed": 302958, "internal_node_id": "0.0-26.0"}}, {"uniqueid": "MTK1082:3STRJBFXOXY793P7BTXWZQ1JD40KT7", "current_trial": 36, "dateTime": 1513099296021, "trialdata": {"rt": -1000, "stimulus": "/static/audio/wordpool/BODY.wav", "key_press": -1, "type": "PRES_AUD", "word": "body", "wordID": 144, "conditions": [18, 1200, "a", 18000], "trial": 0, "serialpos": 15, "trial_type": "single-audio", "trial_index": 36, "time_elapsed": 305179, "internal_node_id": "0.0-27.0"}}, {"uniqueid": "MTK1082:3STRJBFXOXY793P7BTXWZQ1JD40KT7", "current_trial": 37, "dateTime": 1513099298096, "trialdata": {"rt": -1000, "stimulus": "/static/audio/wordpool/WIFE.wav", "key_press": -1, "type": "PRES_AUD", "word": "wife", "wordID": 1608, "conditions": [18, 1200, "a", 18000], "trial": 0, "serialpos": 16, "trial_type": "single-audio", "trial_index": 37, "time_elapsed": 307255, "internal_node_id": "0.0-28.0"}}, {"uniqueid": "MTK1082:3STRJBFXOXY793P7BTXWZQ1JD40KT7", "current_trial": 38, "dateTime": 1513099300479, "trialdata": {"rt": -1000, "stimulus": "/static/audio/wordpool/SPONGE.wav", "key_press": -1, "type": "PRES_AUD", "word": "sponge", "wordID": 1354, "conditions": [18, 1200, "a", 18000], "trial": 0, "serialpos": 17, "trial_type": "single-audio", "trial_index": 38, "time_elapsed": 309637, "internal_node_id": "0.0-29.0"}}, {"uniqueid": "MTK1082:3STRJBFXOXY793P7BTXWZQ1JD40KT7", "current_trial": 39, "dateTime": 1513099301973, "trialdata": {"rt": -1, "stimulus": "", "key_press": -1, "type": "PRE_RECALL_DELAY", "trial_type": "single-stim", "trial_index": 39, "time_elapsed": 311131, "internal_node_id": "0.0-30.0-0.0"}}, {"uniqueid": "MTK1082:3STRJBFXOXY793P7BTXWZQ1JD40KT7", "current_trial": 40, "dateTime": 1513099302479, "trialdata": {"rt": -1000, "stimulus": "/static/audio/400Hz.wav", "key_press": -1, "type": "PRE_RECALL_ALERT", "trial_type": "single-audio", "trial_index": 40, "time_elapsed": 311638, "internal_node_id": "0.0-31.0"}}, {"uniqueid": "MTK1082:3STRJBFXOXY793P7BTXWZQ1JD40KT7", "current_trial": 41, "dateTime": 1513099362484, "trialdata": {"rt": [4261, 5865, 7096, 9628, 12649, 14935, 16845, 21134, 24242, 26784, 28113, 44603], "recwords": ["judge", "football", "dresser", "sponger", "sponge", "wife", "sausage", "flower", "outdoors", "forest", "daisy", "panther"], "type": "FREE_RECALL", "conditions": [18, 1200, "a", 18000], "trial": 0, "trial_type": "free-recall", "trial_index": 41, "time_elapsed": 371642, "internal_node_id": "0.0-32.0-0.0"}}, {"uniqueid": "MTK1082:3STRJBFXOXY793P7BTXWZQ1JD40KT7", "current_trial": 42, "dateTime": 1513099388739, "trialdata": {"rt": 24254, "key_press": 13, "type": "INSTRUCTIONS", "trial_type": "text", "trial_index": 42, "time_elapsed": 397898, "internal_node_id": "0.0-33.0"}}, {"uniqueid": "MTK1082:3STRJBFXOXY793P7BTXWZQ1JD40KT7", "current_trial": 43, "dateTime": 1513099408744, "trialdata": {"rt": [3958, 6421, 8540, 12289, 15263, 17343], "responses": ["20", "13", "18", "23", "18", "10"], "num1": [5, 4, 2, 8, 6, 3, 4], "num2": [6, 8, 8, 9, 5, 3, 4], "num3": [9, 1, 8, 6, 7, 4, 8], "type": "DISTRACTOR", "conditions": [18, 1200, "v", 18000], "trial": 1, "trial_type": "math-distractor", "trial_index": 43, "time_elapsed": 417903, "internal_node_id": "0.0-34.0"}}, {"uniqueid": "MTK1082:3STRJBFXOXY793P7BTXWZQ1JD40KT7", "current_trial": 44, "dateTime": 1513099411746, "trialdata": {"rt": -1, "stimulus": "<p id=\"stim\">10</p>", "key_press": -1, "trial_type": "single-stim", "trial_index": 44, "time_elapsed": 420905, "internal_node_id": "0.0-35.0-0.0"}}, {"uniqueid": "MTK1082:3STRJBFXOXY793P7BTXWZQ1JD40KT7", "current_trial": 45, "dateTime": 1513099412747, "trialdata": {"rt": -1, "stimulus": "<p id=\"stim\">9</p>", "key_press": -1, "trial_type": "single-stim", "trial_index": 45, "time_elapsed": 421906, "internal_node_id": "0.0-35.0-1.0"}}, {"uniqueid": "MTK1082:3STRJBFXOXY793P7BTXWZQ1JD40KT7", "current_trial": 46, "dateTime": 1513099413748, "trialdata": {"rt": -1, "stimulus": "<p id=\"stim\">8</p>", "key_press": -1, "trial_type": "single-stim", "trial_index": 46, "time_elapsed": 422907, "internal_node_id": "0.0-35.0-2.0"}}, {"uniqueid": "MTK1082:3STRJBFXOXY793P7BTXWZQ1JD40KT7", "current_trial": 47, "dateTime": 1513099414750, "trialdata": {"rt": -1, "stimulus": "<p id=\"stim\">7</p>", "key_press": -1, "trial_type": "single-stim", "trial_index": 47, "time_elapsed": 423908, "internal_node_id": "0.0-35.0-3.0"}}, {"uniqueid": "MTK1082:3STRJBFXOXY793P7BTXWZQ1JD40KT7", "current_trial": 48, "dateTime": 1513099415751, "trialdata": {"rt": -1, "stimulus": "<p id=\"stim\">6</p>", "key_press": -1, "trial_type": "single-stim", "trial_index": 48, "time_elapsed": 424909, "internal_node_id": "0.0-35.0-4.0"}}, {"uniqueid": "MTK1082:3STRJBFXOXY793P7BTXWZQ1JD40KT7", "current_trial": 49, "dateTime": 1513099416752, "trialdata": {"rt": -1, "stimulus": "<p id=\"stim\">5</p>", "key_press": -1, "trial_type": "single-stim", "trial_index": 49, "time_elapsed": 425911, "internal_node_id": "0.0-35.0-5.0"}}, {"uniqueid": "MTK1082:3STRJBFXOXY793P7BTXWZQ1JD40KT7", "current_trial": 50, "dateTime": 1513099417753, "trialdata": {"rt": -1, "stimulus": "<p id=\"stim\">4</p>", "key_press": -1, "trial_type": "single-stim", "trial_index": 50, "time_elapsed": 426912, "internal_node_id": "0.0-35.0-6.0"}}, {"uniqueid": "MTK1082:3STRJBFXOXY793P7BTXWZQ1JD40KT7", "current_trial": 51, "dateTime": 1513099418754, "trialdata": {"rt": -1, "stimulus": "<p id=\"stim\">3</p>", "key_press": -1, "trial_type": "single-stim", "trial_index": 51, "time_elapsed": 427913, "internal_node_id": "0.0-35.0-7.0"}}, {"uniqueid": "MTK1082:3STRJBFXOXY793P7BTXWZQ1JD40KT7", "current_trial": 52, "dateTime": 1513099419817, "trialdata": {"rt": -1, "stimulus": "<p id=\"stim\">2</p>", "key_press": -1, "trial_type": "single-stim", "trial_index": 52, "time_elapsed": 428975, "internal_node_id": "0.0-35.0-8.0"}}, {"uniqueid": "MTK1082:3STRJBFXOXY793P7BTXWZQ1JD40KT7", "current_trial": 53, "dateTime": 1513099420819, "trialdata": {"rt": -1, "stimulus": "<p id=\"stim\">1</p>", "key_press": -1, "trial_type": "single-stim", "trial_index": 53, "time_elapsed": 429977, "internal_node_id": "0.0-35.0-9.0"}}, {"uniqueid": "MTK1082:3STRJBFXOXY793P7BTXWZQ1JD40KT7", "current_trial": 54, "dateTime": 1513099422319, "trialdata": {"rt": -1, "stimulus": "<p id=\"stim\">+</p>", "key_press": -1, "type": "FIXATION", "trial_type": "single-stim", "trial_index": 54, "time_elapsed": 431478, "internal_node_id": "0.0-36.0-0.0"}}, {"uniqueid": "MTK1082:3STRJBFXOXY793P7BTXWZQ1JD40KT7", "current_trial": 55, "dateTime": 1513099423521, "trialdata": {"rt": -1, "stimulus": "<p id=\"stim\">JELLO</p>", "key_press": -1, "type": "PRES_VIS", "word": "jello", "wordID": 753, "conditions": [18, 1200, "v", 18000], "trial": 1, "serialpos": 0, "trial_type": "single-stim", "trial_index": 55, "time_elapsed": 432680, "internal_node_id": "0.0-37.0"}}, {"uniqueid": "MTK1082:3STRJBFXOXY793P7BTXWZQ1JD40KT7", "current_trial": 56, "dateTime": 1513099425626, "trialdata": {"rt": -1, "stimulus": "<p id=\"stim\">POISON</p>", "key_press": -1, "type": "PRES_VIS", "word": "poison", "wordID": 1095, "conditions": [18, 1200, "v", 18000], "trial": 1, "serialpos": 1, "trial_type": "single-stim", "trial_index": 56, "time_elapsed": 434785, "internal_node_id": "0.0-38.0"}}, {"uniqueid": "MTK1082:3STRJBFXOXY793P7BTXWZQ1JD40KT7", "current_trial": 57, "dateTime": 1513099427983, "trialdata": {"rt": -1, "stimulus": "<p id=\"stim\">PUDDING</p>", "key_press": -1, "type": "PRES_VIS", "word": "pudding", "wordID": 1138, "conditions": [18, 1200, "v", 18000], "trial": 1, "serialpos": 2, "trial_type": "single-stim", "trial_index": 57, "time_elapsed": 437142, "internal_node_id": "0.0-39.0"}}, {"uniqueid": "MTK1082:3STRJBFXOXY793P7BTXWZQ1JD40KT7", "current_trial": 58, "dateTime": 1513099430291, "trialdata": {"rt": -1, "stimulus": "<p id=\"stim\">MOTEL</p>", "key_press": -1, "type": "PRES_VIS", "word": "motel", "wordID": 918, "conditions": [18, 1200, "v", 18000], "trial": 1, "serialpos": 3, "trial_type": "single-stim", "trial_index": 58, "time_elapsed": 439450, "internal_node_id": "0.0-40.0"}}, {"uniqueid": "MTK1082:3STRJBFXOXY793P7BTXWZQ1JD40KT7", "current_trial": 59, "dateTime": 1513099432372, "trialdata": {"rt": -1, "stimulus": "<p id=\"stim\">PUPPY</p>", "key_press": -1, "type": "PRES_VIS", "word": "puppy", "wordID": 1143, "conditions": [18, 1200, "v", 18000], "trial": 1, "serialpos": 4, "trial_type": "single-stim", "trial_index": 59, "time_elapsed": 441531, "internal_node_id": "0.0-41.0"}}, {"uniqueid": "MTK1082:3STRJBFXOXY793P7BTXWZQ1JD40KT7", "current_trial": 60, "dateTime": 1513099434582, "trialdata": {"rt": -1, "stimulus": "<p id=\"stim\">MAMMAL</p>", "key_press": -1, "type": "PRES_VIS", "word": "mammal", "wordID": 860, "conditions": [18, 1200, "v", 18000], "trial": 1, "serialpos": 5, "trial_type": "single-stim", "trial_index": 60, "time_elapsed": 443741, "internal_node_id": "0.0-42.0"}}, {"uniqueid": "MTK1082:3STRJBFXOXY793P7BTXWZQ1JD40KT7", "current_trial": 61, "dateTime": 1513099436790, "trialdata": {"rt": -1, "stimulus": "<p id=\"stim\">BOUQUET</p>", "key_press": -1, "type": "PRES_VIS", "word": "bouquet", "wordID": 156, "conditions": [18, 1200, "v", 18000], "trial": 1, "serialpos": 6, "trial_type": "single-stim", "trial_index": 61, "time_elapsed": 445949, "internal_node_id": "0.0-43.0"}}, {"uniqueid": "MTK1082:3STRJBFXOXY793P7BTXWZQ1JD40KT7", "current_trial": 62, "dateTime": 1513099438914, "trialdata": {"rt": -1, "stimulus": "<p id=\"stim\">COMPASS</p>", "key_press": -1, "type": "PRES_VIS", "word": "compass", "wordID": 357, "conditions": [18, 1200, "v", 18000], "trial": 1, "serialpos": 7, "trial_type": "single-stim", "trial_index": 62, "time_elapsed": 448073, "internal_node_id": "0.0-44.0"}}, {"uniqueid": "MTK1082:3STRJBFXOXY793P7BTXWZQ1JD40KT7", "current_trial": 63, "dateTime": 1513099441017, "trialdata": {"rt": -1, "stimulus": "<p id=\"stim\">RECEIPT</p>", "key_press": -1, "type": "PRES_VIS", "word": "receipt", "wordID": 1172, "conditions": [18, 1200, "v", 18000], "trial": 1, "serialpos": 8, "trial_type": "single-stim", "trial_index": 63, "time_elapsed": 450176, "internal_node_id": "0.0-45.0"}}, {"uniqueid": "MTK1082:3STRJBFXOXY793P7BTXWZQ1JD40KT7", "current_trial": 64, "dateTime": 1513099443115, "trialdata": {"rt": -1, "stimulus": "<p id=\"stim\">VAGRANT</p>", "key_press": -1, "type": "PRES_VIS", "word": "vagrant", "wordID": 1543, "conditions": [18, 1200, "v", 18000], "trial": 1, "serialpos": 9, "trial_type": "single-stim", "trial_index": 64, "time_elapsed": 452274, "internal_node_id": "0.0-46.0"}}, {"uniqueid": "MTK1082:3STRJBFXOXY793P7BTXWZQ1JD40KT7", "current_trial": 65, "dateTime": 1513099445298, "trialdata": {"rt": -1, "stimulus": "<p id=\"stim\">RADISH</p>", "key_press": -1, "type": "PRES_VIS", "word": "radish", "wordID": 1157, "conditions": [18, 1200, "v", 18000], "trial": 1, "serialpos": 10, "trial_type": "single-stim", "trial_index": 65, "time_elapsed": 454457, "internal_node_id": "0.0-47.0"}}, {"uniqueid": "MTK1082:3STRJBFXOXY793P7BTXWZQ1JD40KT7", "current_trial": 66, "dateTime": 1513099447658, "trialdata": {"rt": -1, "stimulus": "<p id=\"stim\">INMATE</p>", "key_press": -1, "type": "PRES_VIS", "word": "inmate", "wordID": 737, "conditions": [18, 1200, "v", 18000], "trial": 1, "serialpos": 11, "trial_type": "single-stim", "trial_index": 66, "time_elapsed": 456817, "internal_node_id": "0.0-48.0"}}, {"uniqueid": "MTK1082:3STRJBFXOXY793P7BTXWZQ1JD40KT7", "current_trial": 67, "dateTime": 1513099450026, "trialdata": {"rt": -1, "stimulus": "<p id=\"stim\">ITEM</p>", "key_press": -1, "type": "PRES_VIS", "word": "item", "wordID": 745, "conditions": [18, 1200, "v", 18000], "trial": 1, "serialpos": 12, "trial_type": "single-stim", "trial_index": 67, "time_elapsed": 459185, "internal_node_id": "0.0-49.0"}}, {"uniqueid": "MTK1082:3STRJBFXOXY793P7BTXWZQ1JD40KT7", "current_trial": 68, "dateTime": 1513099452367, "trialdata": {"rt": -1, "stimulus": "<p id=\"stim\">OX</p>", "key_press": -1, "type": "PRES_VIS", "word": "ox", "wordID": 993, "conditions": [18, 1200, "v", 18000], "trial": 1, "serialpos": 13, "trial_type": "single-stim", "trial_index": 68, "time_elapsed": 461525, "internal_node_id": "0.0-50.0"}}, {"uniqueid": "MTK1082:3STRJBFXOXY793P7BTXWZQ1JD40KT7", "current_trial": 69, "dateTime": 1513099454578, "trialdata": {"rt": -1, "stimulus": "<p id=\"stim\">PALACE</p>", "key_press": -1, "type": "PRES_VIS", "word": "palace", "wordID": 1005, "conditions": [18, 1200, "v", 18000], "trial": 1, "serialpos": 14, "trial_type": "single-stim", "trial_index": 69, "time_elapsed": 463737, "internal_node_id": "0.0-51.0"}}, {"uniqueid": "MTK1082:3STRJBFXOXY793P7BTXWZQ1JD40KT7", "current_trial": 70, "dateTime": 1513099456932, "trialdata": {"rt": -1, "stimulus": "<p id=\"stim\">WHISTLE</p>", "key_press": -1, "type": "PRES_VIS", "word": "whistle", "wordID": 1605, "conditions": [18, 1200, "v", 18000], "trial": 1, "serialpos": 15, "trial_type": "single-stim", "trial_index": 70, "time_elapsed": 466091, "internal_node_id": "0.0-52.0"}}, {"uniqueid": "MTK1082:3STRJBFXOXY793P7BTXWZQ1JD40KT7", "current_trial": 71, "dateTime": 1513099459199, "trialdata": {"rt": -1, "stimulus": "<p id=\"stim\">BEAVER</p>", "key_press": -1, "type": "PRES_VIS", "word": "beaver", "wordID": 108, "conditions": [18, 1200, "v", 18000], "trial": 1, "serialpos": 16, "trial_type": "single-stim", "trial_index": 71, "time_elapsed": 468358, "internal_node_id": "0.0-53.0"}}, {"uniqueid": "MTK1082:3STRJBFXOXY793P7BTXWZQ1JD40KT7", "current_trial": 72, "dateTime": 1513099461562, "trialdata": {"rt": -1, "stimulus": "<p id=\"stim\">CYCLONE</p>", "key_press": -1, "type": "PRES_VIS", "word": "cyclone", "wordID": 430, "conditions": [18, 1200, "v", 18000], "trial": 1, "serialpos": 17, "trial_type": "single-stim", "trial_index": 72, "time_elapsed": 470721, "internal_node_id": "0.0-54.0"}}, {"uniqueid": "MTK1082:3STRJBFXOXY793P7BTXWZQ1JD40KT7", "current_trial": 73, "dateTime": 1513099463998, "trialdata": {"rt": -1, "stimulus": "", "key_press": -1, "type": "PRE_RECALL_DELAY", "trial_type": "single-stim", "trial_index": 73, "time_elapsed": 473157, "internal_node_id": "0.0-55.0-0.0"}}, {"uniqueid": "MTK1082:3STRJBFXOXY793P7BTXWZQ1JD40KT7", "current_trial": 74, "dateTime": 1513099464499, "trialdata": {"rt": -1000, "stimulus": "/static/audio/400Hz.wav", "key_press": -1, "type": "PRE_RECALL_ALERT", "trial_type": "single-audio", "trial_index": 74, "time_elapsed": 473658, "internal_node_id": "0.0-56.0"}}, {"uniqueid": "MTK1082:3STRJBFXOXY793P7BTXWZQ1JD40KT7", "current_trial": 75, "dateTime": 1513099524503, "trialdata": {"rt": [3639, 5637, 7814, 9656, 11965, 14381, 15669, 19545, 23478, 55112], "recwords": ["poison", "pudding", "jello", "motel", "receipt", "puppy", "mammal", "inmate", "mammal", "whistle"], "type": "FREE_RECALL", "conditions": [18, 1200, "v", 18000], "trial": 1, "trial_type": "free-recall", "trial_index": 75, "time_elapsed": 533660, "internal_node_id": "0.0-57.0-0.0"}}, {"uniqueid": "MTK1082:3STRJBFXOXY793P7BTXWZQ1JD40KT7", "current_trial": 76, "dateTime": 1513099531604, "trialdata": {"rt": 5099, "key_press": 13, "type": "INSTRUCTIONS", "trial_type": "text", "trial_index": 76, "time_elapsed": 540761, "internal_node_id": "0.0-58.0"}}, {"uniqueid": "MTK1082:3STRJBFXOXY793P7BTXWZQ1JD40KT7", "current_trial": 77, "dateTime": 1513099556608, "trialdata": {"rt": [3799, 6797, 8529, 10529, 13091, 16328, 17693, 21813, 23693], "responses": ["13", "15", "15", "13", "19", "15", "11", "21", "15"], "num1": [2, 2, 6, 2, 8, 5, 1, 6, 9, 6], "num2": [4, 6, 4, 8, 7, 6, 3, 7, 1, 2], "num3": [7, 7, 5, 3, 4, 4, 7, 8, 5, 4], "type": "DISTRACTOR", "conditions": [24, 800, "v", 24000], "trial": 2, "trial_type": "math-distractor", "trial_index": 77, "time_elapsed": 565766, "internal_node_id": "0.0-59.0"}}, {"uniqueid": "MTK1082:3STRJBFXOXY793P7BTXWZQ1JD40KT7", "current_trial": 78, "dateTime": 1513099559610, "trialdata": {"rt": -1, "stimulus": "<p id=\"stim\">10</p>", "key_press": -1, "trial_type": "single-stim", "trial_index": 78, "time_elapsed": 568768, "internal_node_id": "0.0-60.0-0.0"}}, {"uniqueid": "MTK1082:3STRJBFXOXY793P7BTXWZQ1JD40KT7", "current_trial": 79, "dateTime": 1513099560612, "trialdata": {"rt": -1, "stimulus": "<p id=\"stim\">9</p>", "key_press": -1, "trial_type": "single-stim", "trial_index": 79, "time_elapsed": 569771, "internal_node_id": "0.0-60.0-1.0"}}, {"uniqueid": "MTK1082:3STRJBFXOXY793P7BTXWZQ1JD40KT7", "current_trial": 80, "dateTime": 1513099561613, "trialdata": {"rt": -1, "stimulus": "<p id=\"stim\">8</p>", "key_press": -1, "trial_type": "single-stim", "trial_index": 80, "time_elapsed": 570772, "internal_node_id": "0.0-60.0-2.0"}}, {"uniqueid": "MTK1082:3STRJBFXOXY793P7BTXWZQ1JD40KT7", "current_trial": 81, "dateTime": 1513099562614, "trialdata": {"rt": -1, "stimulus": "<p id=\"stim\">7</p>", "key_press": -1, "trial_type": "single-stim", "trial_index": 81, "time_elapsed": 571773, "internal_node_id": "0.0-60.0-3.0"}}, {"uniqueid": "MTK1082:3STRJBFXOXY793P7BTXWZQ1JD40KT7", "current_trial": 82, "dateTime": 1513099563615, "trialdata": {"rt": -1, "stimulus": "<p id=\"stim\">6</p>", "key_press": -1, "trial_type": "single-stim", "trial_index": 82, "time_elapsed": 572774, "internal_node_id": "0.0-60.0-4.0"}}, {"uniqueid": "MTK1082:3STRJBFXOXY793P7BTXWZQ1JD40KT7", "current_trial": 83, "dateTime": 1513099564616, "trialdata": {"rt": -1, "stimulus": "<p id=\"stim\">5</p>", "key_press": -1, "trial_type": "single-stim", "trial_index": 83, "time_elapsed": 573775, "internal_node_id": "0.0-60.0-5.0"}}, {"uniqueid": "MTK1082:3STRJBFXOXY793P7BTXWZQ1JD40KT7", "current_trial": 84, "dateTime": 1513099565617, "trialdata": {"rt": -1, "stimulus": "<p id=\"stim\">4</p>", "key_press": -1, "trial_type": "single-stim", "trial_index": 84, "time_elapsed": 574776, "internal_node_id": "0.0-60.0-6.0"}}, {"uniqueid": "MTK1082:3STRJBFXOXY793P7BTXWZQ1JD40KT7", "current_trial": 85, "dateTime": 1513099566620, "trialdata": {"rt": -1, "stimulus": "<p id=\"stim\">3</p>", "key_press": -1, "trial_type": "single-stim", "trial_index": 85, "time_elapsed": 575779, "internal_node_id": "0.0-60.0-7.0"}}, {"uniqueid": "MTK1082:3STRJBFXOXY793P7BTXWZQ1JD40KT7", "current_trial": 86, "dateTime": 1513099567622, "trialdata": {"rt": -1, "stimulus": "<p id=\"stim\">2</p>", "key_press": -1, "trial_type": "single-stim", "trial_index": 86, "time_elapsed": 576781, "internal_node_id": "0.0-60.0-8.0"}}, {"uniqueid": "MTK1082:3STRJBFXOXY793P7BTXWZQ1JD40KT7", "current_trial": 87, "dateTime": 1513099568623, "trialdata": {"rt": -1, "stimulus": "<p id=\"stim\">1</p>", "key_press": -1, "trial_type": "single-stim", "trial_index": 87, "time_elapsed": 577782, "internal_node_id": "0.0-60.0-9.0"}}, {"uniqueid": "MTK1082:3STRJBFXOXY793P7BTXWZQ1JD40KT7", "current_trial": 88, "dateTime": 1513099570125, "trialdata": {"rt": -1, "stimulus": "<p id=\"stim\">+</p>", "key_press": -1, "type": "FIXATION", "trial_type": "single-stim", "trial_index": 88, "time_elapsed": 579284, "internal_node_id": "0.0-61.0-0.0"}}, {"uniqueid": "MTK1082:3STRJBFXOXY793P7BTXWZQ1JD40KT7", "current_trial": 89, "dateTime": 1513099570927, "trialdata": {"rt": -1, "stimulus": "<p id=\"stim\">BASEMENT</p>", "key_press": -1, "type": "PRES_VIS", "word": "basement", "wordID": 93, "conditions": [24, 800, "v", 24000], "trial": 2, "serialpos": 0, "trial_type": "single-stim", "trial_index": 89, "time_elapsed": 580086, "internal_node_id": "0.0-62.0"}}, {"uniqueid": "MTK1082:3STRJBFXOXY793P7BTXWZQ1JD40KT7", "current_trial": 90, "dateTime": 1513099572610, "trialdata": {"rt": -1, "stimulus": "<p id=\"stim\">SANDWICH</p>", "key_press": -1, "type": "PRES_VIS", "word": "sandwich", "wordID": 1231, "conditions": [24, 800, "v", 24000], "trial": 2, "serialpos": 1, "trial_type": "single-stim", "trial_index": 90, "time_elapsed": 581768, "internal_node_id": "0.0-63.0"}}, {"uniqueid": "MTK1082:3STRJBFXOXY793P7BTXWZQ1JD40KT7", "current_trial": 91, "dateTime": 1513099574551, "trialdata": {"rt": -1, "stimulus": "<p id=\"stim\">MARS</p>", "key_press": -1, "type": "PRES_VIS", "word": "mars", "wordID": 872, "conditions": [24, 800, "v", 24000], "trial": 2, "serialpos": 2, "trial_type": "single-stim", "trial_index": 91, "time_elapsed": 583710, "internal_node_id": "0.0-64.0"}}, {"uniqueid": "MTK1082:3STRJBFXOXY793P7BTXWZQ1JD40KT7", "current_trial": 92, "dateTime": 1513099576349, "trialdata": {"rt": -1, "stimulus": "<p id=\"stim\">INFANT</p>", "key_press": -1, "type": "PRES_VIS", "word": "infant", "wordID": 736, "conditions": [24, 800, "v", 24000], "trial": 2, "serialpos": 3, "trial_type": "single-stim", "trial_index": 92, "time_elapsed": 585508, "internal_node_id": "0.0-65.0"}}, {"uniqueid": "MTK1082:3STRJBFXOXY793P7BTXWZQ1JD40KT7", "current_trial": 93, "dateTime": 1513099578137, "trialdata": {"rt": -1, "stimulus": "<p id=\"stim\">EUROPE</p>", "key_press": -1, "type": "PRES_VIS", "word": "europe", "wordID": 540, "conditions": [24, 800, "v", 24000], "trial": 2, "serialpos": 4, "trial_type": "single-stim", "trial_index": 93, "time_elapsed": 587296, "internal_node_id": "0.0-66.0"}}, {"uniqueid": "MTK1082:3STRJBFXOXY793P7BTXWZQ1JD40KT7", "current_trial": 94, "dateTime": 1513099579850, "trialdata": {"rt": -1, "stimulus": "<p id=\"stim\">QUEEN</p>", "key_press": -1, "type": "PRES_VIS", "word": "queen", "wordID": 1148, "conditions": [24, 800, "v", 24000], "trial": 2, "serialpos": 5, "trial_type": "single-stim", "trial_index": 94, "time_elapsed": 589008, "internal_node_id": "0.0-67.0"}}, {"uniqueid": "MTK1082:3STRJBFXOXY793P7BTXWZQ1JD40KT7", "current_trial": 95, "dateTime": 1513099581606, "trialdata": {"rt": -1, "stimulus": "<p id=\"stim\">PRINCESS</p>", "key_press": -1, "type": "PRES_VIS", "word": "princess", "wordID": 1124, "conditions": [24, 800, "v", 24000], "trial": 2, "serialpos": 6, "trial_type": "single-stim", "trial_index": 95, "time_elapsed": 590765, "internal_node_id": "0.0-68.0"}}, {"uniqueid": "MTK1082:3STRJBFXOXY793P7BTXWZQ1JD40KT7", "current_trial": 96, "dateTime": 1513099583574, "trialdata": {"rt": -1, "stimulus": "<p id=\"stim\">JAPAN</p>", "key_press": -1, "type": "PRES_VIS", "word": "japan", "wordID": 748, "conditions": [24, 800, "v", 24000], "trial": 2, "serialpos": 7, "trial_type": "single-stim", "trial_index": 96, "time_elapsed": 592733, "internal_node_id": "0.0-69.0"}}, {"uniqueid": "MTK1082:3STRJBFXOXY793P7BTXWZQ1JD40KT7", "current_trial": 97, "dateTime": 1513099585372, "trialdata": {"rt": -1, "stimulus": "<p id=\"stim\">DRAGON</p>", "key_press": -1, "type": "PRES_VIS", "word": "dragon", "wordID": 491, "conditions": [24, 800, "v", 24000], "trial": 2, "serialpos": 8, "trial_type": "single-stim", "trial_index": 97, "time_elapsed": 594531, "internal_node_id": "0.0-70.0"}}, {"uniqueid": "MTK1082:3STRJBFXOXY793P7BTXWZQ1JD40KT7", "current_trial": 98, "dateTime": 1513099587371, "trialdata": {"rt": -1, "stimulus": "<p id=\"stim\">ANTLER</p>", "key_press": -1, "type": "PRES_VIS", "word": "antler", "wordID": 28, "conditions": [24, 800, "v", 24000], "trial": 2, "serialpos": 9, "trial_type": "single-stim", "trial_index": 98, "time_elapsed": 596530, "internal_node_id": "0.0-71.0"}}, {"uniqueid": "MTK1082:3STRJBFXOXY793P7BTXWZQ1JD40KT7", "current_trial": 99, "dateTime": 1513099589391, "trialdata": {"rt": -1, "stimulus": "<p id=\"stim\">PIMPLE</p>", "key_press": -1, "type": "PRES_VIS", "word": "pimple", "wordID": 1070, "conditions": [24, 800, "v", 24000], "trial": 2, "serialpos": 10, "trial_type": "single-stim", "trial_index": 99, "time_elapsed": 598549, "internal_node_id": "0.0-72.0"}}, {"uniqueid": "MTK1082:3STRJBFXOXY793P7BTXWZQ1JD40KT7", "current_trial": 100, "dateTime": 1513099591582, "trialdata": {"rt": -1, "stimulus": "<p id=\"stim\">COFFEE</p>", "key_press": -1, "type": "PRES_VIS", "word": "coffee", "wordID": 340, "conditions": [24, 800, "v", 24000], "trial": 2, "serialpos": 11, "trial_type": "single-stim", "trial_index": 100, "time_elapsed": 600741, "internal_node_id": "0.0-73.0"}}, {"uniqueid": "MTK1082:3STRJBFXOXY793P7BTXWZQ1JD40KT7", "current_trial": 101, "dateTime": 1513099593521, "trialdata": {"rt": -1, "stimulus": "<p id=\"stim\">RABBIT</p>", "key_press": -1, "type": "PRES_VIS", "word": "rabbit", "wordID": 1151, "conditions": [24, 800, "v", 24000], "trial": 2, "serialpos": 12, "trial_type": "single-stim", "trial_index": 101, "time_elapsed": 602680, "internal_node_id": "0.0-74.0"}}, {"uniqueid": "MTK1082:3STRJBFXOXY793P7BTXWZQ1JD40KT7", "current_trial": 102, "dateTime": 1513099595290, "trialdata": {"rt": -1, "stimulus": "<p id=\"stim\">TORTOISE</p>", "key_press": -1, "type": "PRES_VIS", "word": "tortoise", "wordID": 1485, "conditions": [24, 800, "v", 24000], "trial": 2, "serialpos": 13, "trial_type": "single-stim", "trial_index": 102, "time_elapsed": 604449, "internal_node_id": "0.0-75.0"}}, {"uniqueid": "MTK1082:3STRJBFXOXY793P7BTXWZQ1JD40KT7", "current_trial": 103, "dateTime": 1513099597068, "trialdata": {"rt": -1, "stimulus": "<p id=\"stim\">PARENT</p>", "key_press": -1, "type": "PRES_VIS", "word": "parent", "wordID": 1012, "conditions": [24, 800, "v", 24000], "trial": 2, "serialpos": 14, "trial_type": "single-stim", "trial_index": 103, "time_elapsed": 606227, "internal_node_id": "0.0-76.0"}}, {"uniqueid": "MTK1082:3STRJBFXOXY793P7BTXWZQ1JD40KT7", "current_trial": 104, "dateTime": 1513099598845, "trialdata": {"rt": -1, "stimulus": "<p id=\"stim\">CUSTARD</p>", "key_press": -1, "type": "PRES_VIS", "word": "custard", "wordID": 428, "conditions": [24, 800, "v", 24000], "trial": 2, "serialpos": 15, "trial_type": "single-stim", "trial_index": 104, "time_elapsed": 608004, "internal_node_id": "0.0-77.0"}}, {"uniqueid": "MTK1082:3STRJBFXOXY793P7BTXWZQ1JD40KT7", "current_trial": 105, "dateTime": 1513099600531, "trialdata": {"rt": -1, "stimulus": "<p id=\"stim\">KEEPER</p>", "key_press": -1, "type": "PRES_VIS", "word": "keeper", "wordID": 768, "conditions": [24, 800, "v", 24000], "trial": 2, "serialpos": 16, "trial_type": "single-stim", "trial_index": 105, "time_elapsed": 609690, "internal_node_id": "0.0-78.0"}}, {"uniqueid": "MTK1082:3STRJBFXOXY793P7BTXWZQ1JD40KT7", "current_trial": 106, "dateTime": 1513099602519, "trialdata": {"rt": -1, "stimulus": "<p id=\"stim\">COBRA</p>", "key_press": -1, "type": "PRES_VIS", "word": "cobra", "wordID": 335, "conditions": [24, 800, "v", 24000], "trial": 2, "serialpos": 17, "trial_type": "single-stim", "trial_index": 106, "time_elapsed": 611678, "internal_node_id": "0.0-79.0"}}, {"uniqueid": "MTK1082:3STRJBFXOXY793P7BTXWZQ1JD40KT7", "current_trial": 107, "dateTime": 1513099604450, "trialdata": {"rt": -1, "stimulus": "<p id=\"stim\">LACE</p>", "key_press": -1, "type": "PRES_VIS", "word": "lace", "wordID": 791, "conditions": [24, 800, "v", 24000], "trial": 2, "serialpos": 18, "trial_type": "single-stim", "trial_index": 107, "time_elapsed": 613609, "internal_node_id": "0.0-80.0"}}, {"uniqueid": "MTK1082:3STRJBFXOXY793P7BTXWZQ1JD40KT7", "current_trial": 108, "dateTime": 1513099606108, "trialdata": {"rt": -1, "stimulus": "<p id=\"stim\">STAR</p>", "key_press": -1, "type": "PRES_VIS", "word": "star", "wordID": 1372, "conditions": [24, 800, "v", 24000], "trial": 2, "serialpos": 19, "trial_type": "single-stim", "trial_index": 108, "time_elapsed": 615267, "internal_node_id": "0.0-81.0"}}, {"uniqueid": "MTK1082:3STRJBFXOXY793P7BTXWZQ1JD40KT7", "current_trial": 109, "dateTime": 1513099608008, "trialdata": {"rt": -1, "stimulus": "<p id=\"stim\">CITRUS</p>", "key_press": -1, "type": "PRES_VIS", "word": "citrus", "wordID": 312, "conditions": [24, 800, "v", 24000], "trial": 2, "serialpos": 20, "trial_type": "single-stim", "trial_index": 109, "time_elapsed": 617167, "internal_node_id": "0.0-82.0"}}, {"uniqueid": "MTK1082:3STRJBFXOXY793P7BTXWZQ1JD40KT7", "current_trial": 110, "dateTime": 1513099610128, "trialdata": {"rt": -1, "stimulus": "<p id=\"stim\">BISON</p>", "key_press": -1, "type": "PRES_VIS", "word": "bison", "wordID": 130, "conditions": [24, 800, "v", 24000], "trial": 2, "serialpos": 21, "trial_type": "single-stim", "trial_index": 110, "time_elapsed": 619287, "internal_node_id": "0.0-83.0"}}, {"uniqueid": "MTK1082:3STRJBFXOXY793P7BTXWZQ1JD40KT7", "current_trial": 111, "dateTime": 1513099611824, "trialdata": {"rt": -1, "stimulus": "<p id=\"stim\">JELLY</p>", "key_press": -1, "type": "PRES_VIS", "word": "jelly", "wordID": 754, "conditions": [24, 800, "v", 24000], "trial": 2, "serialpos": 22, "trial_type": "single-stim", "trial_index": 111, "time_elapsed": 620983, "internal_node_id": "0.0-84.0"}}, {"uniqueid": "MTK1082:3STRJBFXOXY793P7BTXWZQ1JD40KT7", "current_trial": 112, "dateTime": 1513099613854, "trialdata": {"rt": -1, "stimulus": "<p id=\"stim\">APPLE</p>", "key_press": -1, "type": "PRES_VIS", "word": "apple", "wordID": 32, "conditions": [24, 800, "v", 24000], "trial": 2, "serialpos": 23, "trial_type": "single-stim", "trial_index": 112, "time_elapsed": 623013, "internal_node_id": "0.0-85.0"}}, {"uniqueid": "MTK1082:3STRJBFXOXY793P7BTXWZQ1JD40KT7", "current_trial": 113, "dateTime": 1513099616154, "trialdata": {"rt": -1, "stimulus": "", "key_press": -1, "type": "PRE_RECALL_DELAY", "trial_type": "single-stim", "trial_index": 113, "time_elapsed": 625313, "internal_node_id": "0.0-86.0-0.0"}}, {"uniqueid": "MTK1082:3STRJBFXOXY793P7BTXWZQ1JD40KT7", "current_trial": 114, "dateTime": 1513099616655, "trialdata": {"rt": -1000, "stimulus": "/static/audio/400Hz.wav", "key_press": -1, "type": "PRE_RECALL_ALERT", "trial_type": "single-audio", "trial_index": 114, "time_elapsed": 625814, "internal_node_id": "0.0-87.0"}}, {"uniqueid": "MTK1082:3STRJBFXOXY793P7BTXWZQ1JD40KT7", "current_trial": 115, "dateTime": 1513099676659, "trialdata": {"rt": [4362, 6052, 6948, 9146, 11677, 13109, 14975, 17159, 27451], "recwords": ["bison", "jelly", "apple", "basement", "sandwich", "dragon", "antlet", "antler", "rabbit"], "type": "FREE_RECALL", "conditions": [24, 800, "v", 24000], "trial": 2, "trial_type": "free-recall", "trial_index": 115, "time_elapsed": 685816, "internal_node_id": "0.0-88.0-0.0"}}, {"uniqueid": "MTK1082:3STRJBFXOXY793P7BTXWZQ1JD40KT7", "current_trial": 116, "dateTime": 1513099681423, "trialdata": {"rt": 2762, "key_press": 32, "type": "INSTRUCTIONS", "trial_type": "text", "trial_index": 116, "time_elapsed": 690582, "internal_node_id": "0.0-89.0"}}, {"uniqueid": "MTK1082:3STRJBFXOXY793P7BTXWZQ1JD40KT7", "current_trial": 117, "dateTime": 1513099695658, "trialdata": {"rt": [3906, 8047, 9688], "responses": ["19", "15", "9"], "num1": [3, 6, 1, 4], "num2": [7, 2, 4, 6], "num3": [9, 7, 4, 6], "type": "DISTRACTOR", "conditions": [24, 800, "a", 12000], "trial": 3, "trial_type": "math-distractor", "trial_index": 117, "time_elapsed": 704817, "internal_node_id": "0.0-90.0"}}, {"uniqueid": "MTK1082:3STRJBFXOXY793P7BTXWZQ1JD40KT7", "current_trial": 118, "dateTime": 1513099698660, "trialdata": {"rt": -1, "stimulus": "<p id=\"stim\">10</p>", "key_press": -1, "trial_type": "single-stim", "trial_index": 118, "time_elapsed": 707819, "internal_node_id": "0.0-91.0-0.0"}}, {"uniqueid": "MTK1082:3STRJBFXOXY793P7BTXWZQ1JD40KT7", "current_trial": 119, "dateTime": 1513099699661, "trialdata": {"rt": -1, "stimulus": "<p id=\"stim\">9</p>", "key_press": -1, "trial_type": "single-stim", "trial_index": 119, "time_elapsed": 708820, "internal_node_id": "0.0-91.0-1.0"}}, {"uniqueid": "MTK1082:3STRJBFXOXY793P7BTXWZQ1JD40KT7", "current_trial": 120, "dateTime": 1513099700661, "trialdata": {"rt": -1, "stimulus": "<p id=\"stim\">8</p>", "key_press": -1, "trial_type": "single-stim", "trial_index": 120, "time_elapsed": 709820, "internal_node_id": "0.0-91.0-2.0"}}, {"uniqueid": "MTK1082:3STRJBFXOXY793P7BTXWZQ1JD40KT7", "current_trial": 121, "dateTime": 1513099701663, "trialdata": {"rt": -1, "stimulus": "<p id=\"stim\">7</p>", "key_press": -1, "trial_type": "single-stim", "trial_index": 121, "time_elapsed": 710822, "internal_node_id": "0.0-91.0-3.0"}}, {"uniqueid": "MTK1082:3STRJBFXOXY793P7BTXWZQ1JD40KT7", "current_trial": 122, "dateTime": 1513099702664, "trialdata": {"rt": -1, "stimulus": "<p id=\"stim\">6</p>", "key_press": -1, "trial_type": "single-stim", "trial_index": 122, "time_elapsed": 711823, "internal_node_id": "0.0-91.0-4.0"}}, {"uniqueid": "MTK1082:3STRJBFXOXY793P7BTXWZQ1JD40KT7", "current_trial": 123, "dateTime": 1513099703665, "trialdata": {"rt": -1, "stimulus": "<p id=\"stim\">5</p>", "key_press": -1, "trial_type": "single-stim", "trial_index": 123, "time_elapsed": 712824, "internal_node_id": "0.0-91.0-5.0"}}, {"uniqueid": "MTK1082:3STRJBFXOXY793P7BTXWZQ1JD40KT7", "current_trial": 124, "dateTime": 1513099704667, "trialdata": {"rt": -1, "stimulus": "<p id=\"stim\">4</p>", "key_press": -1, "trial_type": "single-stim", "trial_index": 124, "time_elapsed": 713826, "internal_node_id": "0.0-91.0-6.0"}}, {"uniqueid": "MTK1082:3STRJBFXOXY793P7BTXWZQ1JD40KT7", "current_trial": 125, "dateTime": 1513099705669, "trialdata": {"rt": -1, "stimulus": "<p id=\"stim\">3</p>", "key_press": -1, "trial_type": "single-stim", "trial_index": 125, "time_elapsed": 714828, "internal_node_id": "0.0-91.0-7.0"}}, {"uniqueid": "MTK1082:3STRJBFXOXY793P7BTXWZQ1JD40KT7", "current_trial": 126, "dateTime": 1513099706670, "trialdata": {"rt": -1, "stimulus": "<p id=\"stim\">2</p>", "key_press": -1, "trial_type": "single-stim", "trial_index": 126, "time_elapsed": 715829, "internal_node_id": "0.0-91.0-8.0"}}, {"uniqueid": "MTK1082:3STRJBFXOXY793P7BTXWZQ1JD40KT7", "current_trial": 127, "dateTime": 1513099707671, "trialdata": {"rt": -1, "stimulus": "<p id=\"stim\">1</p>", "key_press": -1, "trial_type": "single-stim", "trial_index": 127, "time_elapsed": 716830, "internal_node_id": "0.0-91.0-9.0"}}, {"uniqueid": "MTK1082:3STRJBFXOXY793P7BTXWZQ1JD40KT7", "current_trial": 128, "dateTime": 1513099709172, "trialdata": {"rt": -1, "stimulus": "<p id=\"stim\">+</p>", "key_press": -1, "type": "FIXATION", "trial_type": "single-stim", "trial_index": 128, "time_elapsed": 718331, "internal_node_id": "0.0-92.0-0.0"}}, {"uniqueid": "MTK1082:3STRJBFXOXY793P7BTXWZQ1JD40KT7", "current_trial": 129, "dateTime": 1513099710826, "trialdata": {"rt": -1000, "stimulus": "/static/audio/wordpool/PEACH.wav", "key_press": -1, "type": "PRES_AUD", "word": "peach", "wordID": 1030, "conditions": [24, 800, "a", 12000], "trial": 3, "serialpos": 0, "trial_type": "single-audio", "trial_index": 129, "time_elapsed": 719985, "internal_node_id": "0.0-93.0"}}, {"uniqueid": "MTK1082:3STRJBFXOXY793P7BTXWZQ1JD40KT7", "current_trial": 130, "dateTime": 1513099712518, "trialdata": {"rt": -1000, "stimulus": "/static/audio/wordpool/FLASK.wav", "key_press": -1, "type": "PRES_AUD", "word": "flask", "wordID": 575, "conditions": [24, 800, "a", 12000], "trial": 3, "serialpos": 1, "trial_type": "single-audio", "trial_index": 130, "time_elapsed": 721677, "internal_node_id": "0.0-94.0"}}, {"uniqueid": "MTK1082:3STRJBFXOXY793P7BTXWZQ1JD40KT7", "current_trial": 131, "dateTime": 1513099714503, "trialdata": {"rt": -1000, "stimulus": "/static/audio/wordpool/SODA.wav", "key_press": -1, "type": "PRES_AUD", "word": "soda", "wordID": 1340, "conditions": [24, 800, "a", 12000], "trial": 3, "serialpos": 2, "trial_type": "single-audio", "trial_index": 131, "time_elapsed": 723662, "internal_node_id": "0.0-95.0"}}, {"uniqueid": "MTK1082:3STRJBFXOXY793P7BTXWZQ1JD40KT7", "current_trial": 132, "dateTime": 1513099716345, "trialdata": {"rt": -1000, "stimulus": "/static/audio/wordpool/PATROL.wav", "key_press": -1, "type": "PRES_AUD", "word": "patrol", "wordID": 1026, "conditions": [24, 800, "a", 12000], "trial": 3, "serialpos": 3, "trial_type": "single-audio", "trial_index": 132, "time_elapsed": 725504, "internal_node_id": "0.0-96.0"}}, {"uniqueid": "MTK1082:3STRJBFXOXY793P7BTXWZQ1JD40KT7", "current_trial": 133, "dateTime": 1513099718275, "trialdata": {"rt": -1000, "stimulus": "/static/audio/wordpool/REPORT.wav", "key_press": -1, "type": "PRES_AUD", "word": "report", "wordID": 1183, "conditions": [24, 800, "a", 12000], "trial": 3, "serialpos": 4, "trial_type": "single-audio", "trial_index": 133, "time_elapsed": 727434, "internal_node_id": "0.0-97.0"}}, {"uniqueid": "MTK1082:3STRJBFXOXY793P7BTXWZQ1JD40KT7", "current_trial": 134, "dateTime": 1513099720249, "trialdata": {"rt": -1000, "stimulus": "/static/audio/wordpool/BROOK.wav", "key_press": -1, "type": "PRES_AUD", "word": "brook", "wordID": 176, "conditions": [24, 800, "a", 12000], "trial": 3, "serialpos": 5, "trial_type": "single-audio", "trial_index": 134, "time_elapsed": 729408, "internal_node_id": "0.0-98.0"}}, {"uniqueid": "MTK1082:3STRJBFXOXY793P7BTXWZQ1JD40KT7", "current_trial": 135, "dateTime": 1513099722156, "trialdata": {"rt": -1000, "stimulus": "/static/audio/wordpool/RAFT.wav", "key_press": -1, "type": "PRES_AUD", "word": "raft", "wordID": 1158, "conditions": [24, 800, "a", 12000], "trial": 3, "serialpos": 6, "trial_type": "single-audio", "trial_index": 135, "time_elapsed": 731315, "internal_node_id": "0.0-99.0"}}, {"uniqueid": "MTK1082:3STRJBFXOXY793P7BTXWZQ1JD40KT7", "current_trial": 136, "dateTime": 1513099724004, "trialdata": {"rt": -1000, "stimulus": "/static/audio/wordpool/SKIRT.wav", "key_press": -1, "type": "PRES_AUD", "word": "skirt", "wordID": 1318, "conditions": [24, 800, "a", 12000], "trial": 3, "serialpos": 7, "trial_type": "single-audio", "trial_index": 136, "time_elapsed": 733163, "internal_node_id": "0.0-100.0"}}, {"uniqueid": "MTK1082:3STRJBFXOXY793P7BTXWZQ1JD40KT7", "current_trial": 137, "dateTime": 1513099725816, "trialdata": {"rt": -1000, "stimulus": "/static/audio/wordpool/BLOUSE.wav", "key_press": -1, "type": "PRES_AUD", "word": "blouse", "wordID": 138, "conditions": [24, 800, "a", 12000], "trial": 3, "serialpos": 8, "trial_type": "single-audio", "trial_index": 137, "time_elapsed": 734975, "internal_node_id": "0.0-101.0"}}, {"uniqueid": "MTK1082:3STRJBFXOXY793P7BTXWZQ1JD40KT7", "current_trial": 138, "dateTime": 1513099727510, "trialdata": {"rt": -1000, "stimulus": "/static/audio/wordpool/BREAST.wav", "key_press": -1, "type": "PRES_AUD", "word": "breast", "wordID": 170, "conditions": [24, 800, "a", 12000], "trial": 3, "serialpos": 9, "trial_type": "single-audio", "trial_index": 138, "time_elapsed": 736669, "internal_node_id": "0.0-102.0"}}, {"uniqueid": "MTK1082:3STRJBFXOXY793P7BTXWZQ1JD40KT7", "current_trial": 139, "dateTime": 1513099729129, "trialdata": {"rt": -1000, "stimulus": "/static/audio/wordpool/DRINK.wav", "key_press": -1, "type": "PRES_AUD", "word": "drink", "wordID": 497, "conditions": [24, 800, "a", 12000], "trial": 3, "serialpos": 10, "trial_type": "single-audio", "trial_index": 139, "time_elapsed": 738288, "internal_node_id": "0.0-103.0"}}, {"uniqueid": "MTK1082:3STRJBFXOXY793P7BTXWZQ1JD40KT7", "current_trial": 140, "dateTime": 1513099731126, "trialdata": {"rt": -1000, "stimulus": "/static/audio/wordpool/CURTAIN.wav", "key_press": -1, "type": "PRES_AUD", "word": "curtain", "wordID": 426, "conditions": [24, 800, "a", 12000], "trial": 3, "serialpos": 11, "trial_type": "single-audio", "trial_index": 140, "time_elapsed": 740285, "internal_node_id": "0.0-104.0"}}, {"uniqueid": "MTK1082:3STRJBFXOXY793P7BTXWZQ1JD40KT7", "current_trial": 141, "dateTime": 1513099732928, "trialdata": {"rt": -1000, "stimulus": "/static/audio/wordpool/MARKER.wav", "key_press": -1, "type": "PRES_AUD", "word": "marker", "wordID": 869, "conditions": [24, 800, "a", 12000], "trial": 3, "serialpos": 12, "trial_type": "single-audio", "trial_index": 141, "time_elapsed": 742087, "internal_node_id": "0.0-105.0"}}, {"uniqueid": "MTK1082:3STRJBFXOXY793P7BTXWZQ1JD40KT7", "current_trial": 142, "dateTime": 1513099734692, "trialdata": {"rt": -1000, "stimulus": "/static/audio/wordpool/LUNCH.wav", "key_press": -1, "type": "PRES_AUD", "word": "lunch", "wordID": 848, "conditions": [24, 800, "a", 12000], "trial": 3, "serialpos": 13, "trial_type": "single-audio", "trial_index": 142, "time_elapsed": 743851, "internal_node_id": "0.0-106.0"}}, {"uniqueid": "MTK1082:3STRJBFXOXY793P7BTXWZQ1JD40KT7", "current_trial": 143, "dateTime": 1513099736300, "trialdata": {"rt": -1000, "stimulus": "/static/audio/wordpool/TURKEY.wav", "key_press": -1, "type": "PRES_AUD", "word": "turkey", "wordID": 1519, "conditions": [24, 800, "a", 12000], "trial": 3, "serialpos": 14, "trial_type": "single-audio", "trial_index": 143, "time_elapsed": 745459, "internal_node_id": "0.0-107.0"}}, {"uniqueid": "MTK1082:3STRJBFXOXY793P7BTXWZQ1JD40KT7", "current_trial": 144, "dateTime": 1513099737929, "trialdata": {"rt": -1000, "stimulus": "/static/audio/wordpool/DRESS.wav", "key_press": -1, "type": "PRES_AUD", "word": "dress", "wordID": 494, "conditions": [24, 800, "a", 12000], "trial": 3, "serialpos": 15, "trial_type": "single-audio", "trial_index": 144, "time_elapsed": 747088, "internal_node_id": "0.0-108.0"}}, {"uniqueid": "MTK1082:3STRJBFXOXY793P7BTXWZQ1JD40KT7", "current_trial": 145, "dateTime": 1513099739580, "trialdata": {"rt": -1000, "stimulus": "/static/audio/wordpool/SCARF.wav", "key_press": -1, "type": "PRES_AUD", "word": "scarf", "wordID": 1245, "conditions": [24, 800, "a", 12000], "trial": 3, "serialpos": 16, "trial_type": "single-audio", "trial_index": 145, "time_elapsed": 748739, "internal_node_id": "0.0-109.0"}}, {"uniqueid": "MTK1082:3STRJBFXOXY793P7BTXWZQ1JD40KT7", "current_trial": 146, "dateTime": 1513099741347, "trialdata": {"rt": -1000, "stimulus": "/static/audio/wordpool/CATTLE.wav", "key_press": -1, "type": "PRES_AUD", "word": "cattle", "wordID": 260, "conditions": [24, 800, "a", 12000], "trial": 3, "serialpos": 17, "trial_type": "single-audio", "trial_index": 146, "time_elapsed": 750506, "internal_node_id": "0.0-110.0"}}, {"uniqueid": "MTK1082:3STRJBFXOXY793P7BTXWZQ1JD40KT7", "current_trial": 147, "dateTime": 1513099743368, "trialdata": {"rt": -1000, "stimulus": "/static/audio/wordpool/SWITCH.wav", "key_press": -1, "type": "PRES_AUD", "word": "switch", "wordID": 1421, "conditions": [24, 800, "a", 12000], "trial": 3, "serialpos": 18, "trial_type": "single-audio", "trial_index": 147, "time_elapsed": 752527, "internal_node_id": "0.0-111.0"}}, {"uniqueid": "MTK1082:3STRJBFXOXY793P7BTXWZQ1JD40KT7", "current_trial": 148, "dateTime": 1513099745280, "trialdata": {"rt": -1000, "stimulus": "/static/audio/wordpool/QUAIL.wav", "key_press": -1, "type": "PRES_AUD", "word": "quail", "wordID": 1146, "conditions": [24, 800, "a", 12000], "trial": 3, "serialpos": 19, "trial_type": "single-audio", "trial_index": 148, "time_elapsed": 754438, "internal_node_id": "0.0-112.0"}}, {"uniqueid": "MTK1082:3STRJBFXOXY793P7BTXWZQ1JD40KT7", "current_trial": 149, "dateTime": 1513099747064, "trialdata": {"rt": -1000, "stimulus": "/static/audio/wordpool/MACHINE.wav", "key_press": -1, "type": "PRES_AUD", "word": "machine", "wordID": 851, "conditions": [24, 800, "a", 12000], "trial": 3, "serialpos": 20, "trial_type": "single-audio", "trial_index": 149, "time_elapsed": 756223, "internal_node_id": "0.0-113.0"}}, {"uniqueid": "MTK1082:3STRJBFXOXY793P7BTXWZQ1JD40KT7", "current_trial": 150, "dateTime": 1513099749000, "trialdata": {"rt": -1000, "stimulus": "/static/audio/wordpool/HAND.wav", "key_press": -1, "type": "PRES_AUD", "word": "hand", "wordID": 682, "conditions": [24, 800, "a", 12000], "trial": 3, "serialpos": 21, "trial_type": "single-audio", "trial_index": 150, "time_elapsed": 758159, "internal_node_id": "0.0-114.0"}}, {"uniqueid": "MTK1082:3STRJBFXOXY793P7BTXWZQ1JD40KT7", "current_trial": 151, "dateTime": 1513099750833, "trialdata": {"rt": -1000, "stimulus": "/static/audio/wordpool/ELBOW.wav", "key_press": -1, "type": "PRES_AUD", "word": "elbow", "wordID": 519, "conditions": [24, 800, "a", 12000], "trial": 3, "serialpos": 22, "trial_type": "single-audio", "trial_index": 151, "time_elapsed": 759992, "internal_node_id": "0.0-115.0"}}, {"uniqueid": "MTK1082:3STRJBFXOXY793P7BTXWZQ1JD40KT7", "current_trial": 152, "dateTime": 1513099752633, "trialdata": {"rt": -1000, "stimulus": "/static/audio/wordpool/TRUCK.wav", "key_press": -1, "type": "PRES_AUD", "word": "truck", "wordID": 1511, "conditions": [24, 800, "a", 12000], "trial": 3, "serialpos": 23, "trial_type": "single-audio", "trial_index": 152, "time_elapsed": 761792, "internal_node_id": "0.0-116.0"}}, {"uniqueid": "MTK1082:3STRJBFXOXY793P7BTXWZQ1JD40KT7", "current_trial": 153, "dateTime": 1513099753852, "trialdata": {"rt": -1, "stimulus": "", "key_press": -1, "type": "PRE_RECALL_DELAY", "trial_type": "single-stim", "trial_index": 153, "time_elapsed": 763011, "internal_node_id": "0.0-117.0-0.0"}}, {"uniqueid": "MTK1082:3STRJBFXOXY793P7BTXWZQ1JD40KT7", "current_trial": 154, "dateTime": 1513099754353, "trialdata": {"rt": -1000, "stimulus": "/static/audio/400Hz.wav", "key_press": -1, "type": "PRE_RECALL_ALERT", "trial_type": "single-audio", "trial_index": 154, "time_elapsed": 763512, "internal_node_id": "0.0-118.0"}}, {"uniqueid": "MTK1082:3STRJBFXOXY793P7BTXWZQ1JD40KT7", "current_trial": 155, "dateTime": 1513099814357, "trialdata": {"rt": [5172, 6152, 8258, 9889, 10921, 12667, 14829, 16629, 19842, 22209], "recwords": ["truck", "hand", "elbow", "breast", "dress", "blouse", "skirt", "cattle", "duck", "turkey"], "type": "FREE_RECALL", "conditions": [24, 800, "a", 12000], "trial": 3, "trial_type": "free-recall", "trial_index": 155, "time_elapsed": 823514, "internal_node_id": "0.0-119.0-0.0"}}, {"uniqueid": "MTK1082:3STRJBFXOXY793P7BTXWZQ1JD40KT7", "current_trial": 156, "dateTime": 1513099817822, "trialdata": {"rt": 1463, "key_press": 13, "type": "INSTRUCTIONS", "trial_type": "text", "trial_index": 156, "time_elapsed": 826980, "internal_node_id": "0.0-120.0"}}, {"uniqueid": "MTK1082:3STRJBFXOXY793P7BTXWZQ1JD40KT7", "current_trial": 157, "dateTime": 1513099843825, "trialdata": {"rt": [3553, 5889, 9415, 11269, 13371, 15198, 17399, 19913, 23093], "responses": ["14", "14", "22", "15", "15", "15", "6", "9", "12"], "num1": [1, 5, 9, 2, 2, 5, 4, 5, 4, 3], "num2": [7, 3, 8, 8, 9, 3, 1, 2, 5, 9], "num3": [6, 6, 5, 5, 4, 7, 1, 2, 3, 2], "type": "DISTRACTOR", "conditions": [12, 800, "v", 24000], "trial": 4, "trial_type": "math-distractor", "trial_index": 157, "time_elapsed": 852984, "internal_node_id": "0.0-121.0"}}, {"uniqueid": "MTK1082:3STRJBFXOXY793P7BTXWZQ1JD40KT7", "current_trial": 158, "dateTime": 1513099846826, "trialdata": {"rt": -1, "stimulus": "<p id=\"stim\">10</p>", "key_press": -1, "trial_type": "single-stim", "trial_index": 158, "time_elapsed": 855985, "internal_node_id": "0.0-122.0-0.0"}}, {"uniqueid": "MTK1082:3STRJBFXOXY793P7BTXWZQ1JD40KT7", "current_trial": 159, "dateTime": 1513099847827, "trialdata": {"rt": -1, "stimulus": "<p id=\"stim\">9</p>", "key_press": -1, "trial_type": "single-stim", "trial_index": 159, "time_elapsed": 856986, "internal_node_id": "0.0-122.0-1.0"}}, {"uniqueid": "MTK1082:3STRJBFXOXY793P7BTXWZQ1JD40KT7", "current_trial": 160, "dateTime": 1513099848828, "trialdata": {"rt": -1, "stimulus": "<p id=\"stim\">8</p>", "key_press": -1, "trial_type": "single-stim", "trial_index": 160, "time_elapsed": 857987, "internal_node_id": "0.0-122.0-2.0"}}, {"uniqueid": "MTK1082:3STRJBFXOXY793P7BTXWZQ1JD40KT7", "current_trial": 161, "dateTime": 1513099849830, "trialdata": {"rt": -1, "stimulus": "<p id=\"stim\">7</p>", "key_press": -1, "trial_type": "single-stim", "trial_index": 161, "time_elapsed": 858989, "internal_node_id": "0.0-122.0-3.0"}}, {"uniqueid": "MTK1082:3STRJBFXOXY793P7BTXWZQ1JD40KT7", "current_trial": 162, "dateTime": 1513099850833, "trialdata": {"rt": -1, "stimulus": "<p id=\"stim\">6</p>", "key_press": -1, "trial_type": "single-stim", "trial_index": 162, "time_elapsed": 859991, "internal_node_id": "0.0-122.0-4.0"}}, {"uniqueid": "MTK1082:3STRJBFXOXY793P7BTXWZQ1JD40KT7", "current_trial": 163, "dateTime": 1513099851835, "trialdata": {"rt": -1, "stimulus": "<p id=\"stim\">5</p>", "key_press": -1, "trial_type": "single-stim", "trial_index": 163, "time_elapsed": 860994, "internal_node_id": "0.0-122.0-5.0"}}, {"uniqueid": "MTK1082:3STRJBFXOXY793P7BTXWZQ1JD40KT7", "current_trial": 164, "dateTime": 1513099852836, "trialdata": {"rt": -1, "stimulus": "<p id=\"stim\">4</p>", "key_press": -1, "trial_type": "single-stim", "trial_index": 164, "time_elapsed": 861994, "internal_node_id": "0.0-122.0-6.0"}}, {"uniqueid": "MTK1082:3STRJBFXOXY793P7BTXWZQ1JD40KT7", "current_trial": 165, "dateTime": 1513099853837, "trialdata": {"rt": -1, "stimulus": "<p id=\"stim\">3</p>", "key_press": -1, "trial_type": "single-stim", "trial_index": 165, "time_elapsed": 862995, "internal_node_id": "0.0-122.0-7.0"}}, {"uniqueid": "MTK1082:3STRJBFXOXY793P7BTXWZQ1JD40KT7", "current_trial": 166, "dateTime": 1513099854838, "trialdata": {"rt": -1, "stimulus": "<p id=\"stim\">2</p>", "key_press": -1, "trial_type": "single-stim", "trial_index": 166, "time_elapsed": 863997, "internal_node_id": "0.0-122.0-8.0"}}, {"uniqueid": "MTK1082:3STRJBFXOXY793P7BTXWZQ1JD40KT7", "current_trial": 167, "dateTime": 1513099855838, "trialdata": {"rt": -1, "stimulus": "<p id=\"stim\">1</p>", "key_press": -1, "trial_type": "single-stim", "trial_index": 167, "time_elapsed": 864997, "internal_node_id": "0.0-122.0-9.0"}}, {"uniqueid": "MTK1082:3STRJBFXOXY793P7BTXWZQ1JD40KT7", "current_trial": 168, "dateTime": 1513099857339, "trialdata": {"rt": -1, "stimulus": "<p id=\"stim\">+</p>", "key_press": -1, "type": "FIXATION", "trial_type": "single-stim", "trial_index": 168, "time_elapsed": 866498, "internal_node_id": "0.0-123.0-0.0"}}, {"uniqueid": "MTK1082:3STRJBFXOXY793P7BTXWZQ1JD40KT7", "current_trial": 169, "dateTime": 1513099858140, "trialdata": {"rt": -1, "stimulus": "<p id=\"stim\">TUTU</p>", "key_press": -1, "type": "PRES_VIS", "word": "tutu", "wordID": 1523, "conditions": [12, 800, "v", 24000], "trial": 4, "serialpos": 0, "trial_type": "single-stim", "trial_index": 169, "time_elapsed": 867299, "internal_node_id": "0.0-124.0"}}, {"uniqueid": "MTK1082:3STRJBFXOXY793P7BTXWZQ1JD40KT7", "current_trial": 170, "dateTime": 1513099860028, "trialdata": {"rt": -1, "stimulus": "<p id=\"stim\">NIGHTGOWN</p>", "key_press": -1, "type": "PRES_VIS", "word": "nightgown", "wordID": 952, "conditions": [12, 800, "v", 24000], "trial": 4, "serialpos": 1, "trial_type": "single-stim", "trial_index": 170, "time_elapsed": 869187, "internal_node_id": "0.0-125.0"}}, {"uniqueid": "MTK1082:3STRJBFXOXY793P7BTXWZQ1JD40KT7", "current_trial": 171, "dateTime": 1513099861684, "trialdata": {"rt": -1, "stimulus": "<p id=\"stim\">LAMP</p>", "key_press": -1, "type": "PRES_VIS", "word": "lamp", "wordID": 797, "conditions": [12, 800, "v", 24000], "trial": 4, "serialpos": 2, "trial_type": "single-stim", "trial_index": 171, "time_elapsed": 870843, "internal_node_id": "0.0-126.0"}}, {"uniqueid": "MTK1082:3STRJBFXOXY793P7BTXWZQ1JD40KT7", "current_trial": 172, "dateTime": 1513099863511, "trialdata": {"rt": -1, "stimulus": "<p id=\"stim\">APRON</p>", "key_press": -1, "type": "PRES_VIS", "word": "apron", "wordID": 34, "conditions": [12, 800, "v", 24000], "trial": 4, "serialpos": 3, "trial_type": "single-stim", "trial_index": 172, "time_elapsed": 872670, "internal_node_id": "0.0-127.0"}}, {"uniqueid": "MTK1082:3STRJBFXOXY793P7BTXWZQ1JD40KT7", "current_trial": 173, "dateTime": 1513099865239, "trialdata": {"rt": -1, "stimulus": "<p id=\"stim\">TURNIP</p>", "key_press": -1, "type": "PRES_VIS", "word": "turnip", "wordID": 1520, "conditions": [12, 800, "v", 24000], "trial": 4, "serialpos": 4, "trial_type": "single-stim", "trial_index": 173, "time_elapsed": 874398, "internal_node_id": "0.0-128.0"}}, {"uniqueid": "MTK1082:3STRJBFXOXY793P7BTXWZQ1JD40KT7", "current_trial": 174, "dateTime": 1513099867101, "trialdata": {"rt": -1, "stimulus": "<p id=\"stim\">SUNSET</p>", "key_press": -1, "type": "PRES_VIS", "word": "sunset", "wordID": 1407, "conditions": [12, 800, "v", 24000], "trial": 4, "serialpos": 5, "trial_type": "single-stim", "trial_index": 174, "time_elapsed": 876260, "internal_node_id": "0.0-129.0"}}, {"uniqueid": "MTK1082:3STRJBFXOXY793P7BTXWZQ1JD40KT7", "current_trial": 175, "dateTime": 1513099868838, "trialdata": {"rt": -1, "stimulus": "<p id=\"stim\">OUTFIT</p>", "key_press": -1, "type": "PRES_VIS", "word": "outfit", "wordID": 987, "conditions": [12, 800, "v", 24000], "trial": 4, "serialpos": 6, "trial_type": "single-stim", "trial_index": 175, "time_elapsed": 877996, "internal_node_id": "0.0-130.0"}}, {"uniqueid": "MTK1082:3STRJBFXOXY793P7BTXWZQ1JD40KT7", "current_trial": 176, "dateTime": 1513099870652, "trialdata": {"rt": -1, "stimulus": "<p id=\"stim\">AWARD</p>", "key_press": -1, "type": "PRES_VIS", "word": "award", "wordID": 62, "conditions": [12, 800, "v", 24000], "trial": 4, "serialpos": 7, "trial_type": "single-stim", "trial_index": 176, "time_elapsed": 879810, "internal_node_id": "0.0-131.0"}}, {"uniqueid": "MTK1082:3STRJBFXOXY793P7BTXWZQ1JD40KT7", "current_trial": 177, "dateTime": 1513099872611, "trialdata": {"rt": -1, "stimulus": "<p id=\"stim\">ACTRESS</p>", "key_press": -1, "type": "PRES_VIS", "word": "actress", "wordID": 5, "conditions": [12, 800, "v", 24000], "trial": 4, "serialpos": 8, "trial_type": "single-stim", "trial_index": 177, "time_elapsed": 881770, "internal_node_id": "0.0-132.0"}}, {"uniqueid": "MTK1082:3STRJBFXOXY793P7BTXWZQ1JD40KT7", "current_trial": 178, "dateTime": 1513099874332, "trialdata": {"rt": -1, "stimulus": "<p id=\"stim\">SUNRISE</p>", "key_press": -1, "type": "PRES_VIS", "word": "sunrise", "wordID": 1406, "conditions": [12, 800, "v", 24000], "trial": 4, "serialpos": 9, "trial_type": "single-stim", "trial_index": 178, "time_elapsed": 883491, "internal_node_id": "0.0-133.0"}}, {"uniqueid": "MTK1082:3STRJBFXOXY793P7BTXWZQ1JD40KT7", "current_trial": 179, "dateTime": 1513099876049, "trialdata": {"rt": -1, "stimulus": "<p id=\"stim\">WARDROBE</p>", "key_press": -1, "type": "PRES_VIS", "word": "wardrobe", "wordID": 1586, "conditions": [12, 800, "v", 24000], "trial": 4, "serialpos": 10, "trial_type": "single-stim", "trial_index": 179, "time_elapsed": 885208, "internal_node_id": "0.0-134.0"}}, {"uniqueid": "MTK1082:3STRJBFXOXY793P7BTXWZQ1JD40KT7", "current_trial": 180, "dateTime": 1513099877951, "trialdata": {"rt": -1, "stimulus": "<p id=\"stim\">PECAN</p>", "key_press": -1, "type": "PRES_VIS", "word": "pecan", "wordID": 1035, "conditions": [12, 800, "v", 24000], "trial": 4, "serialpos": 11, "trial_type": "single-stim", "trial_index": 180, "time_elapsed": 887109, "internal_node_id": "0.0-135.0"}}, {"uniqueid": "MTK1082:3STRJBFXOXY793P7BTXWZQ1JD40KT7", "current_trial": 181, "dateTime": 1513099880063, "trialdata": {"rt": -1, "stimulus": "", "key_press": -1, "type": "PRE_RECALL_DELAY", "trial_type": "single-stim", "trial_index": 181, "time_elapsed": 889222, "internal_node_id": "0.0-136.0-0.0"}}, {"uniqueid": "MTK1082:3STRJBFXOXY793P7BTXWZQ1JD40KT7", "current_trial": 182, "dateTime": 1513099880564, "trialdata": {"rt": -1000, "stimulus": "/static/audio/400Hz.wav", "key_press": -1, "type": "PRE_RECALL_ALERT", "trial_type": "single-audio", "trial_index": 182, "time_elapsed": 889723, "internal_node_id": "0.0-137.0"}}, {"uniqueid": "MTK1082:3STRJBFXOXY793P7BTXWZQ1JD40KT7", "current_trial": 183, "dateTime": 1513099940570, "trialdata": {"rt": [5664, 8786, 10706, 12260], "recwords": ["pecan", "wardrobe", "actress", "award"], "type": "FREE_RECALL", "conditions": [12, 800, "v", 24000], "trial": 4, "trial_type": "free-recall", "trial_index": 183, "time_elapsed": 949726, "internal_node_id": "0.0-138.0-0.0"}}, {"uniqueid": "MTK1082:3STRJBFXOXY793P7BTXWZQ1JD40KT7", "current_trial": 184, "dateTime": 1513099971766, "trialdata": {"rt": 29195, "key_press": 13, "type": "INSTRUCTIONS", "trial_type": "text", "trial_index": 184, "time_elapsed": 980925, "internal_node_id": "0.0-139.0"}}, {"uniqueid": "MTK1082:3STRJBFXOXY793P7BTXWZQ1JD40KT7", "current_trial": 185, "dateTime": 1513099985769, "trialdata": {"rt": [2637, 5210, 7221, 8860, 11626], "responses": ["19", "12", "8", "19", "13"], "num1": [7, 7, 4, 9, 2, 3], "num2": [7, 2, 3, 1, 3, 3], "num3": [5, 3, 1, 9, 8, 7], "type": "DISTRACTOR", "conditions": [12, 800, "a", 12000], "trial": 5, "trial_type": "math-distractor", "trial_index": 185, "time_elapsed": 994928, "internal_node_id": "0.0-140.0"}}, {"uniqueid": "MTK1082:3STRJBFXOXY793P7BTXWZQ1JD40KT7", "current_trial": 186, "dateTime": 1513099988771, "trialdata": {"rt": -1, "stimulus": "<p id=\"stim\">10</p>", "key_press": -1, "trial_type": "single-stim", "trial_index": 186, "time_elapsed": 997930, "internal_node_id": "0.0-141.0-0.0"}}, {"uniqueid": "MTK1082:3STRJBFXOXY793P7BTXWZQ1JD40KT7", "current_trial": 187, "dateTime": 1513099989772, "trialdata": {"rt": -1, "stimulus": "<p id=\"stim\">9</p>", "key_press": -1, "trial_type": "single-stim", "trial_index": 187, "time_elapsed": 998931, "internal_node_id": "0.0-141.0-1.0"}}, {"uniqueid": "MTK1082:3STRJBFXOXY793P7BTXWZQ1JD40KT7", "current_trial": 188, "dateTime": 1513099990773, "trialdata": {"rt": -1, "stimulus": "<p id=\"stim\">8</p>", "key_press": -1, "trial_type": "single-stim", "trial_index": 188, "time_elapsed": 999932, "internal_node_id": "0.0-141.0-2.0"}}, {"uniqueid": "MTK1082:3STRJBFXOXY793P7BTXWZQ1JD40KT7", "current_trial": 189, "dateTime": 1513099991775, "trialdata": {"rt": -1, "stimulus": "<p id=\"stim\">7</p>", "key_press": -1, "trial_type": "single-stim", "trial_index": 189, "time_elapsed": 1000934, "internal_node_id": "0.0-141.0-3.0"}}, {"uniqueid": "MTK1082:3STRJBFXOXY793P7BTXWZQ1JD40KT7", "current_trial": 190, "dateTime": 1513099992776, "trialdata": {"rt": -1, "stimulus": "<p id=\"stim\">6</p>", "key_press": -1, "trial_type": "single-stim", "trial_index": 190, "time_elapsed": 1001935, "internal_node_id": "0.0-141.0-4.0"}}, {"uniqueid": "MTK1082:3STRJBFXOXY793P7BTXWZQ1JD40KT7", "current_trial": 191, "dateTime": 1513099993778, "trialdata": {"rt": -1, "stimulus": "<p id=\"stim\">5</p>", "key_press": -1, "trial_type": "single-stim", "trial_index": 191, "time_elapsed": 1002936, "internal_node_id": "0.0-141.0-5.0"}}, {"uniqueid": "MTK1082:3STRJBFXOXY793P7BTXWZQ1JD40KT7", "current_trial": 192, "dateTime": 1513099994778, "trialdata": {"rt": -1, "stimulus": "<p id=\"stim\">4</p>", "key_press": -1, "trial_type": "single-stim", "trial_index": 192, "time_elapsed": 1003937, "internal_node_id": "0.0-141.0-6.0"}}, {"uniqueid": "MTK1082:3STRJBFXOXY793P7BTXWZQ1JD40KT7", "current_trial": 193, "dateTime": 1513099995780, "trialdata": {"rt": -1, "stimulus": "<p id=\"stim\">3</p>", "key_press": -1, "trial_type": "single-stim", "trial_index": 193, "time_elapsed": 1004939, "internal_node_id": "0.0-141.0-7.0"}}, {"uniqueid": "MTK1082:3STRJBFXOXY793P7BTXWZQ1JD40KT7", "current_trial": 194, "dateTime": 1513099996781, "trialdata": {"rt": -1, "stimulus": "<p id=\"stim\">2</p>", "key_press": -1, "trial_type": "single-stim", "trial_index": 194, "time_elapsed": 1005940, "internal_node_id": "0.0-141.0-8.0"}}, {"uniqueid": "MTK1082:3STRJBFXOXY793P7BTXWZQ1JD40KT7", "current_trial": 195, "dateTime": 1513099997978, "trialdata": {"rt": -1, "stimulus": "<p id=\"stim\">1</p>", "key_press": -1, "trial_type": "single-stim", "trial_index": 195, "time_elapsed": 1007137, "internal_node_id": "0.0-141.0-9.0"}}, {"uniqueid": "MTK1082:3STRJBFXOXY793P7BTXWZQ1JD40KT7", "current_trial": 196, "dateTime": 1513099999480, "trialdata": {"rt": -1, "stimulus": "<p id=\"stim\">+</p>", "key_press": -1, "type": "FIXATION", "trial_type": "single-stim", "trial_index": 196, "time_elapsed": 1008639, "internal_node_id": "0.0-142.0-0.0"}}, {"uniqueid": "MTK1082:3STRJBFXOXY793P7BTXWZQ1JD40KT7", "current_trial": 197, "dateTime": 1513100001126, "trialdata": {"rt": -1000, "stimulus": "/static/audio/wordpool/MISSILE.wav", "key_press": -1, "type": "PRES_AUD", "word": "missile", "wordID": 899, "conditions": [12, 800, "a", 12000], "trial": 5, "serialpos": 0, "trial_type": "single-audio", "trial_index": 197, "time_elapsed": 1010284, "internal_node_id": "0.0-143.0"}}, {"uniqueid": "MTK1082:3STRJBFXOXY793P7BTXWZQ1JD40KT7", "current_trial": 198, "dateTime": 1513100003090, "trialdata": {"rt": -1000, "stimulus": "/static/audio/wordpool/HAMPER.wav", "key_press": -1, "type": "PRES_AUD", "word": "hamper", "wordID": 681, "conditions": [12, 800, "a", 12000], "trial": 5, "serialpos": 1, "trial_type": "single-audio", "trial_index": 198, "time_elapsed": 1012249, "internal_node_id": "0.0-144.0"}}, {"uniqueid": "MTK1082:3STRJBFXOXY793P7BTXWZQ1JD40KT7", "current_trial": 199, "dateTime": 1513100004970, "trialdata": {"rt": -1000, "stimulus": "/static/audio/wordpool/POLICE.wav", "key_press": -1, "type": "PRES_AUD", "word": "police", "wordID": 1097, "conditions": [12, 800, "a", 12000], "trial": 5, "serialpos": 2, "trial_type": "single-audio", "trial_index": 199, "time_elapsed": 1014129, "internal_node_id": "0.0-145.0"}}, {"uniqueid": "MTK1082:3STRJBFXOXY793P7BTXWZQ1JD40KT7", "current_trial": 200, "dateTime": 1513100006666, "trialdata": {"rt": -1000, "stimulus": "/static/audio/wordpool/DONKEY.wav", "key_press": -1, "type": "PRES_AUD", "word": "donkey", "wordID": 483, "conditions": [12, 800, "a", 12000], "trial": 5, "serialpos": 3, "trial_type": "single-audio", "trial_index": 200, "time_elapsed": 1015825, "internal_node_id": "0.0-146.0"}}, {"uniqueid": "MTK1082:3STRJBFXOXY793P7BTXWZQ1JD40KT7", "current_trial": 201, "dateTime": 1513100008496, "trialdata": {"rt": -1000, "stimulus": "/static/audio/wordpool/GOBLIN.wav", "key_press": -1, "type": "PRES_AUD", "word": "goblin", "wordID": 644, "conditions": [12, 800, "a", 12000], "trial": 5, "serialpos": 4, "trial_type": "single-audio", "trial_index": 201, "time_elapsed": 1017655, "internal_node_id": "0.0-147.0"}}, {"uniqueid": "MTK1082:3STRJBFXOXY793P7BTXWZQ1JD40KT7", "current_trial": 202, "dateTime": 1513100010163, "trialdata": {"rt": -1000, "stimulus": "/static/audio/wordpool/LION.wav", "key_press": -1, "type": "PRES_AUD", "word": "lion", "wordID": 826, "conditions": [12, 800, "a", 12000], "trial": 5, "serialpos": 5, "trial_type": "single-audio", "trial_index": 202, "time_elapsed": 1019322, "internal_node_id": "0.0-148.0"}}, {"uniqueid": "MTK1082:3STRJBFXOXY793P7BTXWZQ1JD40KT7", "current_trial": 203, "dateTime": 1513100011907, "trialdata": {"rt": -1000, "stimulus": "/static/audio/wordpool/FLAG.wav", "key_press": -1, "type": "PRES_AUD", "word": "flag", "wordID": 572, "conditions": [12, 800, "a", 12000], "trial": 5, "serialpos": 6, "trial_type": "single-audio", "trial_index": 203, "time_elapsed": 1021066, "internal_node_id": "0.0-149.0"}}, {"uniqueid": "MTK1082:3STRJBFXOXY793P7BTXWZQ1JD40KT7", "current_trial": 204, "dateTime": 1513100013803, "trialdata": {"rt": -1000, "stimulus": "/static/audio/wordpool/ROCKET.wav", "key_press": -1, "type": "PRES_AUD", "word": "rocket", "wordID": 1201, "conditions": [12, 800, "a", 12000], "trial": 5, "serialpos": 7, "trial_type": "single-audio", "trial_index": 204, "time_elapsed": 1022962, "internal_node_id": "0.0-150.0"}}, {"uniqueid": "MTK1082:3STRJBFXOXY793P7BTXWZQ1JD40KT7", "current_trial": 205, "dateTime": 1513100015565, "trialdata": {"rt": -1000, "stimulus": "/static/audio/wordpool/LUGGAGE.wav", "key_press": -1, "type": "PRES_AUD", "word": "luggage", "wordID": 846, "conditions": [12, 800, "a", 12000], "trial": 5, "serialpos": 8, "trial_type": "single-audio", "trial_index": 205, "time_elapsed": 1024724, "internal_node_id": "0.0-151.0"}}, {"uniqueid": "MTK1082:3STRJBFXOXY793P7BTXWZQ1JD40KT7", "current_trial": 206, "dateTime": 1513100017392, "trialdata": {"rt": -1000, "stimulus": "/static/audio/wordpool/SCARECROW.wav", "key_press": -1, "type": "PRES_AUD", "word": "scarecrow", "wordID": 1244, "conditions": [12, 800, "a", 12000], "trial": 5, "serialpos": 9, "trial_type": "single-audio", "trial_index": 206, "time_elapsed": 1026551, "internal_node_id": "0.0-152.0"}}, {"uniqueid": "MTK1082:3STRJBFXOXY793P7BTXWZQ1JD40KT7", "current_trial": 207, "dateTime": 1513100019231, "trialdata": {"rt": -1000, "stimulus": "/static/audio/wordpool/LAGOON.wav", "key_press": -1, "type": "PRES_AUD", "word": "lagoon", "wordID": 794, "conditions": [12, 800, "a", 12000], "trial": 5, "serialpos": 10, "trial_type": "single-audio", "trial_index": 207, "time_elapsed": 1028390, "internal_node_id": "0.0-153.0"}}, {"uniqueid": "MTK1082:3STRJBFXOXY793P7BTXWZQ1JD40KT7", "current_trial": 208, "dateTime": 1513100021006, "trialdata": {"rt": -1000, "stimulus": "/static/audio/wordpool/MARSH.wav", "key_press": -1, "type": "PRES_AUD", "word": "marsh", "wordID": 873, "conditions": [12, 800, "a", 12000], "trial": 5, "serialpos": 11, "trial_type": "single-audio", "trial_index": 208, "time_elapsed": 1030165, "internal_node_id": "0.0-154.0"}}, {"uniqueid": "MTK1082:3STRJBFXOXY793P7BTXWZQ1JD40KT7", "current_trial": 209, "dateTime": 1513100022230, "trialdata": {"rt": -1, "stimulus": "", "key_press": -1, "type": "PRE_RECALL_DELAY", "trial_type": "single-stim", "trial_index": 209, "time_elapsed": 1031389, "internal_node_id": "0.0-155.0-0.0"}}, {"uniqueid": "MTK1082:3STRJBFXOXY793P7BTXWZQ1JD40KT7", "current_trial": 210, "dateTime": 1513100022732, "trialdata": {"rt": -1000, "stimulus": "/static/audio/400Hz.wav", "key_press": -1, "type": "PRE_RECALL_ALERT", "trial_type": "single-audio", "trial_index": 210, "time_elapsed": 1031890, "internal_node_id": "0.0-156.0"}}, {"uniqueid": "MTK1082:3STRJBFXOXY793P7BTXWZQ1JD40KT7", "current_trial": 211, "dateTime": 1513100082736, "trialdata": {"rt": [4317, 6444, 8246, 12008, 18018, 26194, 27273], "recwords": ["police", "lagoon", "marsh", "flagpole", "goblin", "missle", "rocket"], "type": "FREE_RECALL", "conditions": [12, 800, "a", 12000], "trial": 5, "trial_type": "free-recall", "trial_index": 211, "time_elapsed": 1091893, "internal_node_id": "0.0-157.0-0.0"}}, {"uniqueid": "MTK1082:3STRJBFXOXY793P7BTXWZQ1JD40KT7", "current_trial": 212, "dateTime": 1513100096104, "trialdata": {"rt": 11366, "key_press": 13, "type": "INSTRUCTIONS", "trial_type": "text", "trial_index": 212, "time_elapsed": 1105263, "internal_node_id": "0.0-158.0"}}, {"uniqueid": "MTK1082:3STRJBFXOXY793P7BTXWZQ1JD40KT7", "current_trial": 213, "dateTime": 1513100110106, "trialdata": {"rt": [2875, 5320, 7202, 9968], "responses": ["14", "18", "11", "20"], "num1": [7, 9, 7, 8, 9], "num2": [6, 3, 2, 8, 7], "num3": [1, 6, 2, 4, 3], "type": "DISTRACTOR", "conditions": [24, 800, "v", 12000], "trial": 6, "trial_type": "math-distractor", "trial_index": 213, "time_elapsed": 1119265, "internal_node_id": "0.0-159.0"}}, {"uniqueid": "MTK1082:3STRJBFXOXY793P7BTXWZQ1JD40KT7", "current_trial": 214, "dateTime": 1513100113107, "trialdata": {"rt": -1, "stimulus": "<p id=\"stim\">10</p>", "key_press": -1, "trial_type": "single-stim", "trial_index": 214, "time_elapsed": 1122266, "internal_node_id": "0.0-160.0-0.0"}}, {"uniqueid": "MTK1082:3STRJBFXOXY793P7BTXWZQ1JD40KT7", "current_trial": 215, "dateTime": 1513100114108, "trialdata": {"rt": -1, "stimulus": "<p id=\"stim\">9</p>", "key_press": -1, "trial_type": "single-stim", "trial_index": 215, "time_elapsed": 1123267, "internal_node_id": "0.0-160.0-1.0"}}, {"uniqueid": "MTK1082:3STRJBFXOXY793P7BTXWZQ1JD40KT7", "current_trial": 216, "dateTime": 1513100115109, "trialdata": {"rt": -1, "stimulus": "<p id=\"stim\">8</p>", "key_press": -1, "trial_type": "single-stim", "trial_index": 216, "time_elapsed": 1124268, "internal_node_id": "0.0-160.0-2.0"}}, {"uniqueid": "MTK1082:3STRJBFXOXY793P7BTXWZQ1JD40KT7", "current_trial": 217, "dateTime": 1513100116111, "trialdata": {"rt": -1, "stimulus": "<p id=\"stim\">7</p>", "key_press": -1, "trial_type": "single-stim", "trial_index": 217, "time_elapsed": 1125269, "internal_node_id": "0.0-160.0-3.0"}}, {"uniqueid": "MTK1082:3STRJBFXOXY793P7BTXWZQ1JD40KT7", "current_trial": 218, "dateTime": 1513100117111, "trialdata": {"rt": -1, "stimulus": "<p id=\"stim\">6</p>", "key_press": -1, "trial_type": "single-stim", "trial_index": 218, "time_elapsed": 1126270, "internal_node_id": "0.0-160.0-4.0"}}, {"uniqueid": "MTK1082:3STRJBFXOXY793P7BTXWZQ1JD40KT7", "current_trial": 219, "dateTime": 1513100118113, "trialdata": {"rt": -1, "stimulus": "<p id=\"stim\">5</p>", "key_press": -1, "trial_type": "single-stim", "trial_index": 219, "time_elapsed": 1127271, "internal_node_id": "0.0-160.0-5.0"}}, {"uniqueid": "MTK1082:3STRJBFXOXY793P7BTXWZQ1JD40KT7", "current_trial": 220, "dateTime": 1513100119114, "trialdata": {"rt": -1, "stimulus": "<p id=\"stim\">4</p>", "key_press": -1, "trial_type": "single-stim", "trial_index": 220, "time_elapsed": 1128273, "internal_node_id": "0.0-160.0-6.0"}}, {"uniqueid": "MTK1082:3STRJBFXOXY793P7BTXWZQ1JD40KT7", "current_trial": 221, "dateTime": 1513100120115, "trialdata": {"rt": -1, "stimulus": "<p id=\"stim\">3</p>", "key_press": -1, "trial_type": "single-stim", "trial_index": 221, "time_elapsed": 1129274, "internal_node_id": "0.0-160.0-7.0"}}, {"uniqueid": "MTK1082:3STRJBFXOXY793P7BTXWZQ1JD40KT7", "current_trial": 222, "dateTime": 1513100121117, "trialdata": {"rt": -1, "stimulus": "<p id=\"stim\">2</p>", "key_press": -1, "trial_type": "single-stim", "trial_index": 222, "time_elapsed": 1130275, "internal_node_id": "0.0-160.0-8.0"}}, {"uniqueid": "MTK1082:3STRJBFXOXY793P7BTXWZQ1JD40KT7", "current_trial": 223, "dateTime": 1513100122118, "trialdata": {"rt": -1, "stimulus": "<p id=\"stim\">1</p>", "key_press": -1, "trial_type": "single-stim", "trial_index": 223, "time_elapsed": 1131277, "internal_node_id": "0.0-160.0-9.0"}}, {"uniqueid": "MTK1082:3STRJBFXOXY793P7BTXWZQ1JD40KT7", "current_trial": 224, "dateTime": 1513100123725, "trialdata": {"rt": -1, "stimulus": "<p id=\"stim\">+</p>", "key_press": -1, "type": "FIXATION", "trial_type": "single-stim", "trial_index": 224, "time_elapsed": 1132884, "internal_node_id": "0.0-161.0-0.0"}}, {"uniqueid": "MTK1082:3STRJBFXOXY793P7BTXWZQ1JD40KT7", "current_trial": 225, "dateTime": 1513100124526, "trialdata": {"rt": -1, "stimulus": "<p id=\"stim\">SNACK</p>", "key_press": -1, "type": "PRES_VIS", "word": "snack", "wordID": 1330, "conditions": [24, 800, "v", 12000], "trial": 6, "serialpos": 0, "trial_type": "single-stim", "trial_index": 225, "time_elapsed": 1133685, "internal_node_id": "0.0-162.0"}}, {"uniqueid": "MTK1082:3STRJBFXOXY793P7BTXWZQ1JD40KT7", "current_trial": 226, "dateTime": 1513100126482, "trialdata": {"rt": -1, "stimulus": "<p id=\"stim\">PLAYGROUND</p>", "key_press": -1, "type": "PRES_VIS", "word": "playground", "wordID": 1086, "conditions": [24, 800, "v", 12000], "trial": 6, "serialpos": 1, "trial_type": "single-stim", "trial_index": 226, "time_elapsed": 1135641, "internal_node_id": "0.0-163.0"}}, {"uniqueid": "MTK1082:3STRJBFXOXY793P7BTXWZQ1JD40KT7", "current_trial": 227, "dateTime": 1513100128310, "trialdata": {"rt": -1, "stimulus": "<p id=\"stim\">CANYON</p>", "key_press": -1, "type": "PRES_VIS", "word": "canyon", "wordID": 234, "conditions": [24, 800, "v", 12000], "trial": 6, "serialpos": 2, "trial_type": "single-stim", "trial_index": 227, "time_elapsed": 1137469, "internal_node_id": "0.0-164.0"}}, {"uniqueid": "MTK1082:3STRJBFXOXY793P7BTXWZQ1JD40KT7", "current_trial": 228, "dateTime": 1513100130089, "trialdata": {"rt": -1, "stimulus": "<p id=\"stim\">VALLEY</p>", "key_press": -1, "type": "PRES_VIS", "word": "valley", "wordID": 1544, "conditions": [24, 800, "v", 12000], "trial": 6, "serialpos": 3, "trial_type": "single-stim", "trial_index": 228, "time_elapsed": 1139248, "internal_node_id": "0.0-165.0"}}, {"uniqueid": "MTK1082:3STRJBFXOXY793P7BTXWZQ1JD40KT7", "current_trial": 229, "dateTime": 1513100131844, "trialdata": {"rt": -1, "stimulus": "<p id=\"stim\">ZEBRA</p>", "key_press": -1, "type": "PRES_VIS", "word": "zebra", "wordID": 1634, "conditions": [24, 800, "v", 12000], "trial": 6, "serialpos": 4, "trial_type": "single-stim", "trial_index": 229, "time_elapsed": 1141003, "internal_node_id": "0.0-166.0"}}, {"uniqueid": "MTK1082:3STRJBFXOXY793P7BTXWZQ1JD40KT7", "current_trial": 230, "dateTime": 1513100133707, "trialdata": {"rt": -1, "stimulus": "<p id=\"stim\">NOTEBOOK</p>", "key_press": -1, "type": "PRES_VIS", "word": "notebook", "wordID": 958, "conditions": [24, 800, "v", 12000], "trial": 6, "serialpos": 5, "trial_type": "single-stim", "trial_index": 230, "time_elapsed": 1142865, "internal_node_id": "0.0-167.0"}}, {"uniqueid": "MTK1082:3STRJBFXOXY793P7BTXWZQ1JD40KT7", "current_trial": 231, "dateTime": 1513100135576, "trialdata": {"rt": -1, "stimulus": "<p id=\"stim\">WIDOW</p>", "key_press": -1, "type": "PRES_VIS", "word": "widow", "wordID": 1607, "conditions": [24, 800, "v", 12000], "trial": 6, "serialpos": 6, "trial_type": "single-stim", "trial_index": 231, "time_elapsed": 1144735, "internal_node_id": "0.0-168.0"}}, {"uniqueid": "MTK1082:3STRJBFXOXY793P7BTXWZQ1JD40KT7", "current_trial": 232, "dateTime": 1513100137464, "trialdata": {"rt": -1, "stimulus": "<p id=\"stim\">MOP</p>", "key_press": -1, "type": "PRES_VIS", "word": "mop", "wordID": 915, "conditions": [24, 800, "v", 12000], "trial": 6, "serialpos": 7, "trial_type": "single-stim", "trial_index": 232, "time_elapsed": 1146623, "internal_node_id": "0.0-169.0"}}, {"uniqueid": "MTK1082:3STRJBFXOXY793P7BTXWZQ1JD40KT7", "current_trial": 233, "dateTime": 1513100139264, "trialdata": {"rt": -1, "stimulus": "<p id=\"stim\">LEOPARD</p>", "key_press": -1, "type": "PRES_VIS", "word": "leopard", "wordID": 811, "conditions": [24, 800, "v", 12000], "trial": 6, "serialpos": 8, "trial_type": "single-stim", "trial_index": 233, "time_elapsed": 1148423, "internal_node_id": "0.0-170.0"}}, {"uniqueid": "MTK1082:3STRJBFXOXY793P7BTXWZQ1JD40KT7", "current_trial": 234, "dateTime": 1513100141258, "trialdata": {"rt": -1, "stimulus": "<p id=\"stim\">COOK</p>", "key_press": -1, "type": "PRES_VIS", "word": "cook", "wordID": 371, "conditions": [24, 800, "v", 12000], "trial": 6, "serialpos": 9, "trial_type": "single-stim", "trial_index": 234, "time_elapsed": 1150417, "internal_node_id": "0.0-171.0"}}, {"uniqueid": "MTK1082:3STRJBFXOXY793P7BTXWZQ1JD40KT7", "current_trial": 235, "dateTime": 1513100143076, "trialdata": {"rt": -1, "stimulus": "<p id=\"stim\">DANCER</p>", "key_press": -1, "type": "PRES_VIS", "word": "dancer", "wordID": 436, "conditions": [24, 800, "v", 12000], "trial": 6, "serialpos": 10, "trial_type": "single-stim", "trial_index": 235, "time_elapsed": 1152235, "internal_node_id": "0.0-172.0"}}, {"uniqueid": "MTK1082:3STRJBFXOXY793P7BTXWZQ1JD40KT7", "current_trial": 236, "dateTime": 1513100145196, "trialdata": {"rt": -1, "stimulus": "<p id=\"stim\">MATCH</p>", "key_press": -1, "type": "PRES_VIS", "word": "match", "wordID": 877, "conditions": [24, 800, "v", 12000], "trial": 6, "serialpos": 11, "trial_type": "single-stim", "trial_index": 236, "time_elapsed": 1154355, "internal_node_id": "0.0-173.0"}}, {"uniqueid": "MTK1082:3STRJBFXOXY793P7BTXWZQ1JD40KT7", "current_trial": 237, "dateTime": 1513100146960, "trialdata": {"rt": -1, "stimulus": "<p id=\"stim\">PUDDLE</p>", "key_press": -1, "type": "PRES_VIS", "word": "puddle", "wordID": 1139, "conditions": [24, 800, "v", 12000], "trial": 6, "serialpos": 12, "trial_type": "single-stim", "trial_index": 237, "time_elapsed": 1156119, "internal_node_id": "0.0-174.0"}}, {"uniqueid": "MTK1082:3STRJBFXOXY793P7BTXWZQ1JD40KT7", "current_trial": 238, "dateTime": 1513100148766, "trialdata": {"rt": -1, "stimulus": "<p id=\"stim\">STATUE</p>", "key_press": -1, "type": "PRES_VIS", "word": "statue", "wordID": 1373, "conditions": [24, 800, "v", 12000], "trial": 6, "serialpos": 13, "trial_type": "single-stim", "trial_index": 238, "time_elapsed": 1157925, "internal_node_id": "0.0-175.0"}}, {"uniqueid": "MTK1082:3STRJBFXOXY793P7BTXWZQ1JD40KT7", "current_trial": 239, "dateTime": 1513100150593, "trialdata": {"rt": -1, "stimulus": "<p id=\"stim\">SHARK</p>", "key_press": -1, "type": "PRES_VIS", "word": "shark", "wordID": 1274, "conditions": [24, 800, "v", 12000], "trial": 6, "serialpos": 14, "trial_type": "single-stim", "trial_index": 239, "time_elapsed": 1159752, "internal_node_id": "0.0-176.0"}}, {"uniqueid": "MTK1082:3STRJBFXOXY793P7BTXWZQ1JD40KT7", "current_trial": 240, "dateTime": 1513100152315, "trialdata": {"rt": -1, "stimulus": "<p id=\"stim\">DOLPHIN</p>", "key_press": -1, "type": "PRES_VIS", "word": "dolphin", "wordID": 482, "conditions": [24, 800, "v", 12000], "trial": 6, "serialpos": 15, "trial_type": "single-stim", "trial_index": 240, "time_elapsed": 1161474, "internal_node_id": "0.0-177.0"}}, {"uniqueid": "MTK1082:3STRJBFXOXY793P7BTXWZQ1JD40KT7", "current_trial": 241, "dateTime": 1513100154052, "trialdata": {"rt": -1, "stimulus": "<p id=\"stim\">TOMBSTONE</p>", "key_press": -1, "type": "PRES_VIS", "word": "tombstone", "wordID": 1477, "conditions": [24, 800, "v", 12000], "trial": 6, "serialpos": 16, "trial_type": "single-stim", "trial_index": 241, "time_elapsed": 1163211, "internal_node_id": "0.0-178.0"}}, {"uniqueid": "MTK1082:3STRJBFXOXY793P7BTXWZQ1JD40KT7", "current_trial": 242, "dateTime": 1513100155687, "trialdata": {"rt": -1, "stimulus": "<p id=\"stim\">VIRUS</p>", "key_press": -1, "type": "PRES_VIS", "word": "virus", "wordID": 1571, "conditions": [24, 800, "v", 12000], "trial": 6, "serialpos": 17, "trial_type": "single-stim", "trial_index": 242, "time_elapsed": 1164846, "internal_node_id": "0.0-179.0"}}, {"uniqueid": "MTK1082:3STRJBFXOXY793P7BTXWZQ1JD40KT7", "current_trial": 243, "dateTime": 1513100157372, "trialdata": {"rt": -1, "stimulus": "<p id=\"stim\">SISTER</p>", "key_press": -1, "type": "PRES_VIS", "word": "sister", "wordID": 1311, "conditions": [24, 800, "v", 12000], "trial": 6, "serialpos": 18, "trial_type": "single-stim", "trial_index": 243, "time_elapsed": 1166531, "internal_node_id": "0.0-180.0"}}, {"uniqueid": "MTK1082:3STRJBFXOXY793P7BTXWZQ1JD40KT7", "current_trial": 244, "dateTime": 1513100159140, "trialdata": {"rt": -1, "stimulus": "<p id=\"stim\">ACTOR</p>", "key_press": -1, "type": "PRES_VIS", "word": "actor", "wordID": 4, "conditions": [24, 800, "v", 12000], "trial": 6, "serialpos": 19, "trial_type": "single-stim", "trial_index": 244, "time_elapsed": 1168299, "internal_node_id": "0.0-181.0"}}, {"uniqueid": "MTK1082:3STRJBFXOXY793P7BTXWZQ1JD40KT7", "current_trial": 245, "dateTime": 1513100160915, "trialdata": {"rt": -1, "stimulus": "<p id=\"stim\">HOSTESS</p>", "key_press": -1, "type": "PRES_VIS", "word": "hostess", "wordID": 722, "conditions": [24, 800, "v", 12000], "trial": 6, "serialpos": 20, "trial_type": "single-stim", "trial_index": 245, "time_elapsed": 1170074, "internal_node_id": "0.0-182.0"}}, {"uniqueid": "MTK1082:3STRJBFXOXY793P7BTXWZQ1JD40KT7", "current_trial": 246, "dateTime": 1513100162606, "trialdata": {"rt": -1, "stimulus": "<p id=\"stim\">SCALLOP</p>", "key_press": -1, "type": "PRES_VIS", "word": "scallop", "wordID": 1241, "conditions": [24, 800, "v", 12000], "trial": 6, "serialpos": 21, "trial_type": "single-stim", "trial_index": 246, "time_elapsed": 1171765, "internal_node_id": "0.0-183.0"}}, {"uniqueid": "MTK1082:3STRJBFXOXY793P7BTXWZQ1JD40KT7", "current_trial": 247, "dateTime": 1513100164526, "trialdata": {"rt": -1, "stimulus": "<p id=\"stim\">TERMITE</p>", "key_press": -1, "type": "PRES_VIS", "word": "termite", "wordID": 1450, "conditions": [24, 800, "v", 12000], "trial": 6, "serialpos": 22, "trial_type": "single-stim", "trial_index": 247, "time_elapsed": 1173685, "internal_node_id": "0.0-184.0"}}, {"uniqueid": "MTK1082:3STRJBFXOXY793P7BTXWZQ1JD40KT7", "current_trial": 248, "dateTime": 1513100166379, "trialdata": {"rt": -1, "stimulus": "<p id=\"stim\">OZONE</p>", "key_press": -1, "type": "PRES_VIS", "word": "ozone", "wordID": 995, "conditions": [24, 800, "v", 12000], "trial": 6, "serialpos": 23, "trial_type": "single-stim", "trial_index": 248, "time_elapsed": 1175538, "internal_node_id": "0.0-185.0"}}, {"uniqueid": "MTK1082:3STRJBFXOXY793P7BTXWZQ1JD40KT7", "current_trial": 249, "dateTime": 1513100168576, "trialdata": {"rt": -1, "stimulus": "", "key_press": -1, "type": "PRE_RECALL_DELAY", "trial_type": "single-stim", "trial_index": 249, "time_elapsed": 1177735, "internal_node_id": "0.0-186.0-0.0"}}, {"uniqueid": "MTK1082:3STRJBFXOXY793P7BTXWZQ1JD40KT7", "current_trial": 250, "dateTime": 1513100169078, "trialdata": {"rt": -1000, "stimulus": "/static/audio/400Hz.wav", "key_press": -1, "type": "PRE_RECALL_ALERT", "trial_type": "single-audio", "trial_index": 250, "time_elapsed": 1178237, "internal_node_id": "0.0-187.0"}}, {"uniqueid": "MTK1082:3STRJBFXOXY793P7BTXWZQ1JD40KT7", "current_trial": 251, "dateTime": 1513100229082, "trialdata": {"rt": [2923, 4207, 5483, 6588, 7655, 11286, 14340, 16812, 18151, 20739, 24358, 32544, 39633, 41609], "recwords": ["ozone", "termite", "actor", "sister", "widow", "virus", "valley", "zebra", "shark", "doplhin", "dolphin", "tombstone", "playground", "snack"], "type": "FREE_RECALL", "conditions": [24, 800, "v", 12000], "trial": 6, "trial_type": "free-recall", "trial_index": 251, "time_elapsed": 1238239, "internal_node_id": "0.0-188.0-0.0"}}, {"uniqueid": "MTK1082:3STRJBFXOXY793P7BTXWZQ1JD40KT7", "current_trial": 252, "dateTime": 1513100248295, "trialdata": {"rt": 17212, "key_press": 13, "type": "INSTRUCTIONS", "trial_type": "text", "trial_index": 252, "time_elapsed": 1257454, "internal_node_id": "0.0-189.0"}}, {"uniqueid": "MTK1082:3STRJBFXOXY793P7BTXWZQ1JD40KT7", "current_trial": 253, "dateTime": 1513100262298, "trialdata": {"rt": [2171, 4682, 5843, 8224, 9964], "responses": ["13", "16", "16", "14", "8"], "num1": [3, 5, 8, 6, 5, 4], "num2": [8, 6, 2, 2, 3, 4], "num3": [2, 5, 6, 6, 1, 7], "type": "DISTRACTOR", "conditions": [24, 1600, "a", 12000], "trial": 7, "trial_type": "math-distractor", "trial_index": 253, "time_elapsed": 1271457, "internal_node_id": "0.0-190.0"}}, {"uniqueid": "MTK1082:3STRJBFXOXY793P7BTXWZQ1JD40KT7", "current_trial": 254, "dateTime": 1513100265299, "trialdata": {"rt": -1, "stimulus": "<p id=\"stim\">10</p>", "key_press": -1, "trial_type": "single-stim", "trial_index": 254, "time_elapsed": 1274458, "internal_node_id": "0.0-191.0-0.0"}}, {"uniqueid": "MTK1082:3STRJBFXOXY793P7BTXWZQ1JD40KT7", "current_trial": 255, "dateTime": 1513100266300, "trialdata": {"rt": -1, "stimulus": "<p id=\"stim\">9</p>", "key_press": -1, "trial_type": "single-stim", "trial_index": 255, "time_elapsed": 1275459, "internal_node_id": "0.0-191.0-1.0"}}, {"uniqueid": "MTK1082:3STRJBFXOXY793P7BTXWZQ1JD40KT7", "current_trial": 256, "dateTime": 1513100267302, "trialdata": {"rt": -1, "stimulus": "<p id=\"stim\">8</p>", "key_press": -1, "trial_type": "single-stim", "trial_index": 256, "time_elapsed": 1276461, "internal_node_id": "0.0-191.0-2.0"}}, {"uniqueid": "MTK1082:3STRJBFXOXY793P7BTXWZQ1JD40KT7", "current_trial": 257, "dateTime": 1513100268303, "trialdata": {"rt": -1, "stimulus": "<p id=\"stim\">7</p>", "key_press": -1, "trial_type": "single-stim", "trial_index": 257, "time_elapsed": 1277462, "internal_node_id": "0.0-191.0-3.0"}}, {"uniqueid": "MTK1082:3STRJBFXOXY793P7BTXWZQ1JD40KT7", "current_trial": 258, "dateTime": 1513100269304, "trialdata": {"rt": -1, "stimulus": "<p id=\"stim\">6</p>", "key_press": -1, "trial_type": "single-stim", "trial_index": 258, "time_elapsed": 1278462, "internal_node_id": "0.0-191.0-4.0"}}, {"uniqueid": "MTK1082:3STRJBFXOXY793P7BTXWZQ1JD40KT7", "current_trial": 259, "dateTime": 1513100270304, "trialdata": {"rt": -1, "stimulus": "<p id=\"stim\">5</p>", "key_press": -1, "trial_type": "single-stim", "trial_index": 259, "time_elapsed": 1279463, "internal_node_id": "0.0-191.0-5.0"}}, {"uniqueid": "MTK1082:3STRJBFXOXY793P7BTXWZQ1JD40KT7", "current_trial": 260, "dateTime": 1513100271306, "trialdata": {"rt": -1, "stimulus": "<p id=\"stim\">4</p>", "key_press": -1, "trial_type": "single-stim", "trial_index": 260, "time_elapsed": 1280464, "internal_node_id": "0.0-191.0-6.0"}}, {"uniqueid": "MTK1082:3STRJBFXOXY793P7BTXWZQ1JD40KT7", "current_trial": 261, "dateTime": 1513100272306, "trialdata": {"rt": -1, "stimulus": "<p id=\"stim\">3</p>", "key_press": -1, "trial_type": "single-stim", "trial_index": 261, "time_elapsed": 1281465, "internal_node_id": "0.0-191.0-7.0"}}, {"uniqueid": "MTK1082:3STRJBFXOXY793P7BTXWZQ1JD40KT7", "current_trial": 262, "dateTime": 1513100273307, "trialdata": {"rt": -1, "stimulus": "<p id=\"stim\">2</p>", "key_press": -1, "trial_type": "single-stim", "trial_index": 262, "time_elapsed": 1282466, "internal_node_id": "0.0-191.0-8.0"}}, {"uniqueid": "MTK1082:3STRJBFXOXY793P7BTXWZQ1JD40KT7", "current_trial": 263, "dateTime": 1513100274501, "trialdata": {"rt": -1, "stimulus": "<p id=\"stim\">1</p>", "key_press": -1, "trial_type": "single-stim", "trial_index": 263, "time_elapsed": 1283659, "internal_node_id": "0.0-191.0-9.0"}}, {"uniqueid": "MTK1082:3STRJBFXOXY793P7BTXWZQ1JD40KT7", "current_trial": 264, "dateTime": 1513100276002, "trialdata": {"rt": -1, "stimulus": "<p id=\"stim\">+</p>", "key_press": -1, "type": "FIXATION", "trial_type": "single-stim", "trial_index": 264, "time_elapsed": 1285161, "internal_node_id": "0.0-192.0-0.0"}}, {"uniqueid": "MTK1082:3STRJBFXOXY793P7BTXWZQ1JD40KT7", "current_trial": 265, "dateTime": 1513100278560, "trialdata": {"rt": -1000, "stimulus": "/static/audio/wordpool/RIFLE.wav", "key_press": -1, "type": "PRES_AUD", "word": "rifle", "wordID": 1191, "conditions": [24, 1600, "a", 12000], "trial": 7, "serialpos": 0, "trial_type": "single-audio", "trial_index": 265, "time_elapsed": 1287719, "internal_node_id": "0.0-193.0"}}, {"uniqueid": "MTK1082:3STRJBFXOXY793P7BTXWZQ1JD40KT7", "current_trial": 266, "dateTime": 1513100281177, "trialdata": {"rt": -1000, "stimulus": "/static/audio/wordpool/PORK.wav", "key_press": -1, "type": "PRES_AUD", "word": "pork", "wordID": 1107, "conditions": [24, 1600, "a", 12000], "trial": 7, "serialpos": 1, "trial_type": "single-audio", "trial_index": 266, "time_elapsed": 1290336, "internal_node_id": "0.0-194.0"}}, {"uniqueid": "MTK1082:3STRJBFXOXY793P7BTXWZQ1JD40KT7", "current_trial": 267, "dateTime": 1513100283706, "trialdata": {"rt": -1000, "stimulus": "/static/audio/wordpool/FINGER.wav", "key_press": -1, "type": "PRES_AUD", "word": "finger", "wordID": 566, "conditions": [24, 1600, "a", 12000], "trial": 7, "serialpos": 2, "trial_type": "single-audio", "trial_index": 267, "time_elapsed": 1292865, "internal_node_id": "0.0-195.0"}}, {"uniqueid": "MTK1082:3STRJBFXOXY793P7BTXWZQ1JD40KT7", "current_trial": 268, "dateTime": 1513100286325, "trialdata": {"rt": -1000, "stimulus": "/static/audio/wordpool/WRIST.wav", "key_press": -1, "type": "PRES_AUD", "word": "wrist", "wordID": 1625, "conditions": [24, 1600, "a", 12000], "trial": 7, "serialpos": 3, "trial_type": "single-audio", "trial_index": 268, "time_elapsed": 1295484, "internal_node_id": "0.0-196.0"}}, {"uniqueid": "MTK1082:3STRJBFXOXY793P7BTXWZQ1JD40KT7", "current_trial": 269, "dateTime": 1513100289077, "trialdata": {"rt": -1000, "stimulus": "/static/audio/wordpool/CHAPEL.wav", "key_press": -1, "type": "PRES_AUD", "word": "chapel", "wordID": 279, "conditions": [24, 1600, "a", 12000], "trial": 7, "serialpos": 4, "trial_type": "single-audio", "trial_index": 269, "time_elapsed": 1298236, "internal_node_id": "0.0-197.0"}}, {"uniqueid": "MTK1082:3STRJBFXOXY793P7BTXWZQ1JD40KT7", "current_trial": 270, "dateTime": 1513100291979, "trialdata": {"rt": -1000, "stimulus": "/static/audio/wordpool/SOFTBALL.wav", "key_press": -1, "type": "PRES_AUD", "word": "softball", "wordID": 1342, "conditions": [24, 1600, "a", 12000], "trial": 7, "serialpos": 5, "trial_type": "single-audio", "trial_index": 270, "time_elapsed": 1301138, "internal_node_id": "0.0-198.0"}}, {"uniqueid": "MTK1082:3STRJBFXOXY793P7BTXWZQ1JD40KT7", "current_trial": 271, "dateTime": 1513100294671, "trialdata": {"rt": -1000, "stimulus": "/static/audio/wordpool/HIGHWAY.wav", "key_press": -1, "type": "PRES_AUD", "word": "highway", "wordID": 706, "conditions": [24, 1600, "a", 12000], "trial": 7, "serialpos": 6, "trial_type": "single-audio", "trial_index": 271,