{"assignmentId": "3DBQWDE4Y756W7ZK7A7EO2C9UR55NL", "workerId": "MTK1622", "questiondata": {"origin": "United States", "strat-rehearsal": "37", "marital": "Married/Domestic Partnership", "education": "Some college", "ethnicity": "Not Hispanic", "color_depth": 24, "distracted": "No", "wrote-notes": "No", "strat-other": "I repeated each word out loud as it was shown, and then I tried saying them quietly in my head instead to see if I would do better", "screen_width": 1366, "avail_screen_width": 1366, "avail_screen_height": 728, "strat-image": "34", "language": "English", "gender": "Female", "age": "43", "gender_other": "", "race": ["White"], "strat-categorize": "38", "pixel_depth": 24, "strat-spatial": "1", "strat-story": "1", "race_other": "", "screen_height": 768}, "bonus": 0, "hitId": "3INZSNUD80XEOYCPV41QFT9XK9MD9P", "counterbalance": 1480, "useragent": "Mozilla/5.0 (Windows NT 10.0; Win64; x64) AppleWebKit/537.36 (KHTML, like Gecko) Chrome/63.0.3239.132 Safari/537.36", "eventdata": [{"eventtype": "initialized", "interval": 0, "value": null, "timestamp": 1516049387280}, {"eventtype": "window_resize", "interval": 0, "value": [1366, 721], "timestamp": 1516049387280}, {"eventtype": "focus", "interval": 22704, "value": "off", "timestamp": 1516049409984}, {"eventtype": "focus", "interval": 8641, "value": "on", "timestamp": 1516049418625}], "data": [{"current_trial": 0, "trialdata": {"rt": 2666, "trial_type": "text", "internal_node_id": "0.0-0.0", "time_elapsed": 2669, "key_press": 13, "type": "INSTRUCTIONS", "trial_index": 0}, "uniqueid": "MTK1622:3DBQWDE4Y756W7ZK7A7EO2C9UR55NL", "dateTime": 1516049390783}, {"current_trial": 1, "trialdata": {"rt": 40233, "trial_type": "text", "internal_node_id": "0.0-1.0", "time_elapsed": 42902, "key_press": 13, "type": "INSTRUCTIONS", "trial_index": 1}, "uniqueid": "MTK1622:3DBQWDE4Y756W7ZK7A7EO2C9UR55NL", "dateTime": 1516049431016}, {"current_trial": 2, "trialdata": {"rt": [6887], "trial_type": "audio-test", "responses": ["ocean"], "internal_node_id": "0.0-2.0", "time_elapsed": 49794, "type": "AUDIO_TEST", "trial_index": 2}, "uniqueid": "MTK1622:3DBQWDE4Y756W7ZK7A7EO2C9UR55NL", "dateTime": 1516049437908}, {"current_trial": 3, "trialdata": {"rt": [7042], "trial_type": "audio-test", "responses": ["crystal"], "internal_node_id": "0.0-3.0", "time_elapsed": 56840, "type": "AUDIO_TEST", "trial_index": 3}, "uniqueid": "MTK1622:3DBQWDE4Y756W7ZK7A7EO2C9UR55NL", "dateTime": 1516049444954}, {"current_trial": 4, "trialdata": {"rt": [8881], "trial_type": "audio-test", "responses": ["spice"], "internal_node_id": "0.0-4.0", "time_elapsed": 65725, "type": "AUDIO_TEST", "trial_index": 4}, "uniqueid": "MTK1622:3DBQWDE4Y756W7ZK7A7EO2C9UR55NL", "dateTime": 1516049453839}, {"current_trial": 5, "trialdata": {"rt": 30775, "trial_type": "survey-text", "responses": "{\"Q0\":\"12:30am\",\"Q1\":\"8:30am\",\"Q2\":\"5\"}", "internal_node_id": "0.0-5.0", "time_elapsed": 97254, "type": "SLEEP_SURVEY", "trial_index": 5}, "uniqueid": "MTK1622:3DBQWDE4Y756W7ZK7A7EO2C9UR55NL", "dateTime": 1516049485368}, {"current_trial": 6, "trialdata": {"rt": 37461, "trial_type": "text", "internal_node_id": "0.0-6.0", "time_elapsed": 135717, "key_press": 13, "type": "INSTRUCTIONS", "trial_index": 6}, "uniqueid": "MTK1622:3DBQWDE4Y756W7ZK7A7EO2C9UR55NL", "dateTime": 1516049523831}, {"current_trial": 7, "trialdata": {"rt": 13255, "trial_type": "text", "internal_node_id": "0.0-7.0", "time_elapsed": 149474, "key_press": 13, "type": "INSTRUCTIONS", "trial_index": 7}, "uniqueid": "MTK1622:3DBQWDE4Y756W7ZK7A7EO2C9UR55NL", "dateTime": 1516049537588}, {"current_trial": 8, "trialdata": {"rt": 10962, "trial_type": "text", "internal_node_id": "0.0-8.0", "time_elapsed": 160937, "key_press": 13, "type": "INSTRUCTIONS", "trial_index": 8}, "uniqueid": "MTK1622:3DBQWDE4Y756W7ZK7A7EO2C9UR55NL", "dateTime": 1516049549051}, {"current_trial": 9, "trialdata": {"rt": [6901, 11286, 14648], "trial_type": "math-distractor", "key_times": [5820, 6025, 6901, 10821, 11020, 11286, 14281, 14468, 14648], "responses": ["24", "23", "14"], "num2": [7, 9, 7, 9], "num3": [8, 6, 5, 6], "conditions": [18, 1200, "v", 18000], "internal_node_id": "0.0-9.0", "key_presses": [98, 100, 13, 98, 99, 13, 97, 100, 13], "trial": 0, "time_elapsed": 179943, "type": "DISTRACTOR", "trial_index": 9, "num1": [9, 8, 2, 4]}, "uniqueid": "MTK1622:3DBQWDE4Y756W7ZK7A7EO2C9UR55NL", "dateTime": 1516049568057}, {"current_trial": 10, "trialdata": {"rt": -1, "trial_type": "single-stim", "stimulus": "<p id=\"stim\">10</p>", "internal_node_id": "0.0-10.0-0.0", "time_elapsed": 182947, "key_press": -1, "trial_index": 10}, "uniqueid": "MTK1622:3DBQWDE4Y756W7ZK7A7EO2C9UR55NL", "dateTime": 1516049571062}, {"current_trial": 11, "trialdata": {"rt": -1, "trial_type": "single-stim", "stimulus": "<p id=\"stim\">9</p>", "internal_node_id": "0.0-10.0-1.0", "time_elapsed": 183950, "key_press": -1, "trial_index": 11}, "uniqueid": "MTK1622:3DBQWDE4Y756W7ZK7A7EO2C9UR55NL", "dateTime": 1516049572064}, {"current_trial": 12, "trialdata": {"rt": -1, "trial_type": "single-stim", "stimulus": "<p id=\"stim\">8</p>", "internal_node_id": "0.0-10.0-2.0", "time_elapsed": 184952, "key_press": -1, "trial_index": 12}, "uniqueid": "MTK1622:3DBQWDE4Y756W7ZK7A7EO2C9UR55NL", "dateTime": 1516049573066}, {"current_trial": 13, "trialdata": {"rt": -1, "trial_type": "single-stim", "stimulus": "<p id=\"stim\">7</p>", "internal_node_id": "0.0-10.0-3.0", "time_elapsed": 185953, "key_press": -1, "trial_index": 13}, "uniqueid": "MTK1622:3DBQWDE4Y756W7ZK7A7EO2C9UR55NL", "dateTime": 1516049574068}, {"current_trial": 14, "trialdata": {"rt": -1, "trial_type": "single-stim", "stimulus": "<p id=\"stim\">6</p>", "internal_node_id": "0.0-10.0-4.0", "time_elapsed": 186955, "key_press": -1, "trial_index": 14}, "uniqueid": "MTK1622:3DBQWDE4Y756W7ZK7A7EO2C9UR55NL", "dateTime": 1516049575070}, {"current_trial": 15, "trialdata": {"rt": -1, "trial_type": "single-stim", "stimulus": "<p id=\"stim\">5</p>", "internal_node_id": "0.0-10.0-5.0", "time_elapsed": 187958, "key_press": -1, "trial_index": 15}, "uniqueid": "MTK1622:3DBQWDE4Y756W7ZK7A7EO2C9UR55NL", "dateTime": 1516049576072}, {"current_trial": 16, "trialdata": {"rt": -1, "trial_type": "single-stim", "stimulus": "<p id=\"stim\">4</p>", "internal_node_id": "0.0-10.0-6.0", "time_elapsed": 188959, "key_press": -1, "trial_index": 16}, "uniqueid": "MTK1622:3DBQWDE4Y756W7ZK7A7EO2C9UR55NL", "dateTime": 1516049577073}, {"current_trial": 17, "trialdata": {"rt": -1, "trial_type": "single-stim", "stimulus": "<p id=\"stim\">3</p>", "internal_node_id": "0.0-10.0-7.0", "time_elapsed": 189961, "key_press": -1, "trial_index": 17}, "uniqueid": "MTK1622:3DBQWDE4Y756W7ZK7A7EO2C9UR55NL", "dateTime": 1516049578075}, {"current_trial": 18, "trialdata": {"rt": -1, "trial_type": "single-stim", "stimulus": "<p id=\"stim\">2</p>", "internal_node_id": "0.0-10.0-8.0", "time_elapsed": 190963, "key_press": -1, "trial_index": 18}, "uniqueid": "MTK1622:3DBQWDE4Y756W7ZK7A7EO2C9UR55NL", "dateTime": 1516049579077}, {"current_trial": 19, "trialdata": {"rt": -1, "trial_type": "single-stim", "stimulus": "<p id=\"stim\">1</p>", "internal_node_id": "0.0-10.0-9.0", "time_elapsed": 191965, "key_press": -1, "trial_index": 19}, "uniqueid": "MTK1622:3DBQWDE4Y756W7ZK7A7EO2C9UR55NL", "dateTime": 1516049580080}, {"current_trial": 20, "trialdata": {"rt": -1, "trial_type": "single-stim", "stimulus": "<p id=\"stim\">+</p>", "internal_node_id": "0.0-11.0-0.0", "time_elapsed": 193467, "key_press": -1, "type": "FIXATION", "trial_index": 20}, "uniqueid": "MTK1622:3DBQWDE4Y756W7ZK7A7EO2C9UR55NL", "dateTime": 1516049581582}, {"current_trial": 21, "trialdata": {"rt": -1, "trial_type": "single-stim", "word": "scissors", "stimulus": "<p id=\"stim\">SCISSORS</p>", "conditions": [18, 1200, "v", 18000], "internal_node_id": "0.0-12.0", "trial": 0, "time_elapsed": 194669, "serialpos": 0, "key_press": -1, "wordID": 1249, "type": "PRES_VIS", "trial_index": 21}, "uniqueid": "MTK1622:3DBQWDE4Y756W7ZK7A7EO2C9UR55NL", "dateTime": 1516049582783}, {"current_trial": 22, "trialdata": {"rt": -1, "trial_type": "single-stim", "word": "loft", "stimulus": "<p id=\"stim\">LOFT</p>", "conditions": [18, 1200, "v", 18000], "internal_node_id": "0.0-13.0", "trial": 0, "time_elapsed": 196840, "serialpos": 1, "key_press": -1, "wordID": 839, "type": "PRES_VIS", "trial_index": 22}, "uniqueid": "MTK1622:3DBQWDE4Y756W7ZK7A7EO2C9UR55NL", "dateTime": 1516049584954}, {"current_trial": 23, "trialdata": {"rt": -1, "trial_type": "single-stim", "word": "umpire", "stimulus": "<p id=\"stim\">UMPIRE</p>", "conditions": [18, 1200, "v", 18000], "internal_node_id": "0.0-14.0", "trial": 0, "time_elapsed": 198905, "serialpos": 2, "key_press": -1, "wordID": 1534, "type": "PRES_VIS", "trial_index": 23}, "uniqueid": "MTK1622:3DBQWDE4Y756W7ZK7A7EO2C9UR55NL", "dateTime": 1516049587020}, {"current_trial": 24, "trialdata": {"rt": -1, "trial_type": "single-stim", "word": "church", "stimulus": "<p id=\"stim\">CHURCH</p>", "conditions": [18, 1200, "v", 18000], "internal_node_id": "0.0-15.0", "trial": 0, "time_elapsed": 201126, "serialpos": 3, "key_press": -1, "wordID": 306, "type": "PRES_VIS", "trial_index": 24}, "uniqueid": "MTK1622:3DBQWDE4Y756W7ZK7A7EO2C9UR55NL", "dateTime": 1516049589240}, {"current_trial": 25, "trialdata": {"rt": -1, "trial_type": "single-stim", "word": "necklace", "stimulus": "<p id=\"stim\">NECKLACE</p>", "conditions": [18, 1200, "v", 18000], "internal_node_id": "0.0-16.0", "trial": 0, "time_elapsed": 203344, "serialpos": 4, "key_press": -1, "wordID": 939, "type": "PRES_VIS", "trial_index": 25}, "uniqueid": "MTK1622:3DBQWDE4Y756W7ZK7A7EO2C9UR55NL", "dateTime": 1516049591458}, {"current_trial": 26, "trialdata": {"rt": -1, "trial_type": "single-stim", "word": "piston", "stimulus": "<p id=\"stim\">PISTON</p>", "conditions": [18, 1200, "v", 18000], "internal_node_id": "0.0-17.0", "trial": 0, "time_elapsed": 205508, "serialpos": 5, "key_press": -1, "wordID": 1075, "type": "PRES_VIS", "trial_index": 26}, "uniqueid": "MTK1622:3DBQWDE4Y756W7ZK7A7EO2C9UR55NL", "dateTime": 1516049593622}, {"current_trial": 27, "trialdata": {"rt": -1, "trial_type": "single-stim", "word": "cellar", "stimulus": "<p id=\"stim\">CELLAR</p>", "conditions": [18, 1200, "v", 18000], "internal_node_id": "0.0-18.0", "trial": 0, "time_elapsed": 207533, "serialpos": 6, "key_press": -1, "wordID": 266, "type": "PRES_VIS", "trial_index": 27}, "uniqueid": "MTK1622:3DBQWDE4Y756W7ZK7A7EO2C9UR55NL", "dateTime": 1516049595648}, {"current_trial": 28, "trialdata": {"rt": -1, "trial_type": "single-stim", "word": "donkey", "stimulus": "<p id=\"stim\">DONKEY</p>", "conditions": [18, 1200, "v", 18000], "internal_node_id": "0.0-19.0", "trial": 0, "time_elapsed": 209592, "serialpos": 7, "key_press": -1, "wordID": 483, "type": "PRES_VIS", "trial_index": 28}, "uniqueid": "MTK1622:3DBQWDE4Y756W7ZK7A7EO2C9UR55NL", "dateTime": 1516049597706}, {"current_trial": 29, "trialdata": {"rt": -1, "trial_type": "single-stim", "word": "bouquet", "stimulus": "<p id=\"stim\">BOUQUET</p>", "conditions": [18, 1200, "v", 18000], "internal_node_id": "0.0-20.0", "trial": 0, "time_elapsed": 211650, "serialpos": 8, "key_press": -1, "wordID": 156, "type": "PRES_VIS", "trial_index": 29}, "uniqueid": "MTK1622:3DBQWDE4Y756W7ZK7A7EO2C9UR55NL", "dateTime": 1516049599765}, {"current_trial": 30, "trialdata": {"rt": -1, "trial_type": "single-stim", "word": "branch", "stimulus": "<p id=\"stim\">BRANCH</p>", "conditions": [18, 1200, "v", 18000], "internal_node_id": "0.0-21.0", "trial": 0, "time_elapsed": 213895, "serialpos": 9, "key_press": -1, "wordID": 167, "type": "PRES_VIS", "trial_index": 30}, "uniqueid": "MTK1622:3DBQWDE4Y756W7ZK7A7EO2C9UR55NL", "dateTime": 1516049602009}, {"current_trial": 31, "trialdata": {"rt": -1, "trial_type": "single-stim", "word": "sphinx", "stimulus": "<p id=\"stim\">SPHINX</p>", "conditions": [18, 1200, "v", 18000], "internal_node_id": "0.0-22.0", "trial": 0, "time_elapsed": 215959, "serialpos": 10, "key_press": -1, "wordID": 1348, "type": "PRES_VIS", "trial_index": 31}, "uniqueid": "MTK1622:3DBQWDE4Y756W7ZK7A7EO2C9UR55NL", "dateTime": 1516049604073}, {"current_trial": 32, "trialdata": {"rt": -1, "trial_type": "single-stim", "word": "penguin", "stimulus": "<p id=\"stim\">PENGUIN</p>", "conditions": [18, 1200, "v", 18000], "internal_node_id": "0.0-23.0", "trial": 0, "time_elapsed": 218037, "serialpos": 11, "key_press": -1, "wordID": 1043, "type": "PRES_VIS", "trial_index": 32}, "uniqueid": "MTK1622:3DBQWDE4Y756W7ZK7A7EO2C9UR55NL", "dateTime": 1516049606151}, {"current_trial": 33, "trialdata": {"rt": -1, "trial_type": "single-stim", "word": "bureau", "stimulus": "<p id=\"stim\">BUREAU</p>", "conditions": [18, 1200, "v", 18000], "internal_node_id": "0.0-24.0", "trial": 0, "time_elapsed": 220067, "serialpos": 12, "key_press": -1, "wordID": 198, "type": "PRES_VIS", "trial_index": 33}, "uniqueid": "MTK1622:3DBQWDE4Y756W7ZK7A7EO2C9UR55NL", "dateTime": 1516049608181}, {"current_trial": 34, "trialdata": {"rt": -1, "trial_type": "single-stim", "word": "tunnel", "stimulus": "<p id=\"stim\">TUNNEL</p>", "conditions": [18, 1200, "v", 18000], "internal_node_id": "0.0-25.0", "trial": 0, "time_elapsed": 222419, "serialpos": 13, "key_press": -1, "wordID": 1518, "type": "PRES_VIS", "trial_index": 34}, "uniqueid": "MTK1622:3DBQWDE4Y756W7ZK7A7EO2C9UR55NL", "dateTime": 1516049610533}, {"current_trial": 35, "trialdata": {"rt": -1, "trial_type": "single-stim", "word": "puppy", "stimulus": "<p id=\"stim\">PUPPY</p>", "conditions": [18, 1200, "v", 18000], "internal_node_id": "0.0-26.0", "trial": 0, "time_elapsed": 224652, "serialpos": 14, "key_press": -1, "wordID": 1143, "type": "PRES_VIS", "trial_index": 35}, "uniqueid": "MTK1622:3DBQWDE4Y756W7ZK7A7EO2C9UR55NL", "dateTime": 1516049612766}, {"current_trial": 36, "trialdata": {"rt": -1, "trial_type": "single-stim", "word": "rattle", "stimulus": "<p id=\"stim\">RATTLE</p>", "conditions": [18, 1200, "v", 18000], "internal_node_id": "0.0-27.0", "trial": 0, "time_elapsed": 226874, "serialpos": 15, "key_press": -1, "wordID": 1169, "type": "PRES_VIS", "trial_index": 36}, "uniqueid": "MTK1622:3DBQWDE4Y756W7ZK7A7EO2C9UR55NL", "dateTime": 1516049614988}, {"current_trial": 37, "trialdata": {"rt": -1, "trial_type": "single-stim", "word": "drug", "stimulus": "<p id=\"stim\">DRUG</p>", "conditions": [18, 1200, "v", 18000], "internal_node_id": "0.0-28.0", "trial": 0, "time_elapsed": 228942, "serialpos": 16, "key_press": -1, "wordID": 500, "type": "PRES_VIS", "trial_index": 37}, "uniqueid": "MTK1622:3DBQWDE4Y756W7ZK7A7EO2C9UR55NL", "dateTime": 1516049617056}, {"current_trial": 38, "trialdata": {"rt": -1, "trial_type": "single-stim", "word": "donor", "stimulus": "<p id=\"stim\">DONOR</p>", "conditions": [18, 1200, "v", 18000], "internal_node_id": "0.0-29.0", "trial": 0, "time_elapsed": 231131, "serialpos": 17, "key_press": -1, "wordID": 484, "type": "PRES_VIS", "trial_index": 38}, "uniqueid": "MTK1622:3DBQWDE4Y756W7ZK7A7EO2C9UR55NL", "dateTime": 1516049619245}, {"current_trial": 39, "trialdata": {"rt": -1, "trial_type": "single-stim", "stimulus": "", "internal_node_id": "0.0-30.0-0.0", "time_elapsed": 233647, "key_press": -1, "type": "PRE_RECALL_DELAY", "trial_index": 39}, "uniqueid": "MTK1622:3DBQWDE4Y756W7ZK7A7EO2C9UR55NL", "dateTime": 1516049621761}, {"current_trial": 40, "trialdata": {"rt": -1000, "trial_type": "single-audio", "stimulus": "/static/audio/400Hz.wav", "internal_node_id": "0.0-31.0", "time_elapsed": 234151, "key_press": -1, "type": "PRE_RECALL_ALERT", "trial_index": 40}, "uniqueid": "MTK1622:3DBQWDE4Y756W7ZK7A7EO2C9UR55NL", "dateTime": 1516049622265}, {"current_trial": 41, "trialdata": {"rt": [2960, 4650, 6374, 8101, 9829, 11779, 18916, 21313, 31267, 51422, 59038], "recwords": ["donor", "drug", "puppy", "piston", "church", "donor", "scissors", "loft", "sphinx", "tunnel", "airplane"], "key_times": [1313, 1514, 1771, 1957, 2194, 2960, 3619, 3854, 3992, 4237, 4650, 5077, 5390, 5627, 5777, 6049, 6374, 6802, 7026, 7227, 7463, 7596, 7804, 8101, 8407, 8569, 8820, 8960, 9229, 9463, 9829, 10773, 10896, 11098, 11242, 11496, 11779, 17302, 17560, 17796, 17961, 18161, 18247, 18410, 18645, 18916, 20552, 20711, 20907, 21109, 21313, 29304, 29416, 29684, 30032, 30268, 30629, 31267, 50356, 50519, 50714, 50857, 50953, 51147, 51422, 56896, 57055, 57278, 57462, 57664, 57950, 58068, 58233, 59038], "trial_type": "free-recall", "conditions": [18, 1200, "v", 18000], "internal_node_id": "0.0-32.0-0.0", "key_presses": [68, 79, 78, 79, 82, 13, 68, 82, 85, 71, 13, 80, 85, 80, 80, 89, 13, 80, 73, 83, 84, 79, 78, 13, 67, 72, 85, 82, 67, 72, 13, 68, 79, 78, 79, 82, 13, 83, 67, 73, 83, 83, 79, 82, 83, 13, 76, 79, 70, 84, 13, 83, 80, 72, 73, 78, 88, 13, 84, 85, 78, 78, 69, 76, 13, 65, 73, 82, 80, 76, 65, 78, 69, 13], "trial": 0, "time_elapsed": 294156, "type": "FREE_RECALL", "trial_index": 41}, "uniqueid": "MTK1622:3DBQWDE4Y756W7ZK7A7EO2C9UR55NL", "dateTime": 1516049682273}, {"current_trial": 42, "trialdata": {"rt": 1711, "trial_type": "text", "internal_node_id": "0.0-33.0", "time_elapsed": 297872, "key_press": 13, "type": "INSTRUCTIONS", "trial_index": 42}, "uniqueid": "MTK1622:3DBQWDE4Y756W7ZK7A7EO2C9UR55NL", "dateTime": 1516049685986}, {"current_trial": 43, "trialdata": {"rt": [1902, 4365, 8882, 12233, 14659], "trial_type": "math-distractor", "key_times": [1540, 1902, 4008, 4206, 4365, 8404, 8654, 8882, 11813, 11994, 12233, 14238, 14414, 14659, 17715, 17891], "responses": ["8", "14", "19", "20", "20"], "num2": [2, 3, 5, 4, 9, 9], "num3": [4, 7, 8, 7, 3, 9], "conditions": [18, 1200, "v", 18000], "internal_node_id": "0.0-34.0", "key_presses": [104, 13, 97, 100, 13, 97, 105, 13, 98, 96, 13, 98, 96, 13, 98, 101], "trial": 1, "time_elapsed": 317878, "type": "DISTRACTOR", "trial_index": 43, "num1": [2, 4, 6, 9, 8, 7]}, "uniqueid": "MTK1622:3DBQWDE4Y756W7ZK7A7EO2C9UR55NL", "dateTime": 1516049705992}, {"current_trial": 44, "trialdata": {"rt": -1, "trial_type": "single-stim", "stimulus": "<p id=\"stim\">10</p>", "internal_node_id": "0.0-35.0-0.0", "time_elapsed": 320881, "key_press": -1, "trial_index": 44}, "uniqueid": "MTK1622:3DBQWDE4Y756W7ZK7A7EO2C9UR55NL", "dateTime": 1516049708995}, {"current_trial": 45, "trialdata": {"rt": -1, "trial_type": "single-stim", "stimulus": "<p id=\"stim\">9</p>", "internal_node_id": "0.0-35.0-1.0", "time_elapsed": 321883, "key_press": -1, "trial_index": 45}, "uniqueid": "MTK1622:3DBQWDE4Y756W7ZK7A7EO2C9UR55NL", "dateTime": 1516049709997}, {"current_trial": 46, "trialdata": {"rt": -1, "trial_type": "single-stim", "stimulus": "<p id=\"stim\">8</p>", "internal_node_id": "0.0-35.0-2.0", "time_elapsed": 322884, "key_press": -1, "trial_index": 46}, "uniqueid": "MTK1622:3DBQWDE4Y756W7ZK7A7EO2C9UR55NL", "dateTime": 1516049710999}, {"current_trial": 47, "trialdata": {"rt": -1, "trial_type": "single-stim", "stimulus": "<p id=\"stim\">7</p>", "internal_node_id": "0.0-35.0-3.0", "time_elapsed": 323886, "key_press": -1, "trial_index": 47}, "uniqueid": "MTK1622:3DBQWDE4Y756W7ZK7A7EO2C9UR55NL", "dateTime": 1516049712000}, {"current_trial": 48, "trialdata": {"rt": -1, "trial_type": "single-stim", "stimulus": "<p id=\"stim\">6</p>", "internal_node_id": "0.0-35.0-4.0", "time_elapsed": 324887, "key_press": -1, "trial_index": 48}, "uniqueid": "MTK1622:3DBQWDE4Y756W7ZK7A7EO2C9UR55NL", "dateTime": 1516049713002}, {"current_trial": 49, "trialdata": {"rt": -1, "trial_type": "single-stim", "stimulus": "<p id=\"stim\">5</p>", "internal_node_id": "0.0-35.0-5.0", "time_elapsed": 325889, "key_press": -1, "trial_index": 49}, "uniqueid": "MTK1622:3DBQWDE4Y756W7ZK7A7EO2C9UR55NL", "dateTime": 1516049714003}, {"current_trial": 50, "trialdata": {"rt": -1, "trial_type": "single-stim", "stimulus": "<p id=\"stim\">4</p>", "internal_node_id": "0.0-35.0-6.0", "time_elapsed": 326891, "key_press": -1, "trial_index": 50}, "uniqueid": "MTK1622:3DBQWDE4Y756W7ZK7A7EO2C9UR55NL", "dateTime": 1516049715005}, {"current_trial": 51, "trialdata": {"rt": -1, "trial_type": "single-stim", "stimulus": "<p id=\"stim\">3</p>", "internal_node_id": "0.0-35.0-7.0", "time_elapsed": 327893, "key_press": -1, "trial_index": 51}, "uniqueid": "MTK1622:3DBQWDE4Y756W7ZK7A7EO2C9UR55NL", "dateTime": 1516049716007}, {"current_trial": 52, "trialdata": {"rt": -1, "trial_type": "single-stim", "stimulus": "<p id=\"stim\">2</p>", "internal_node_id": "0.0-35.0-8.0", "time_elapsed": 328894, "key_press": -1, "trial_index": 52}, "uniqueid": "MTK1622:3DBQWDE4Y756W7ZK7A7EO2C9UR55NL", "dateTime": 1516049717008}, {"current_trial": 53, "trialdata": {"rt": -1, "trial_type": "single-stim", "stimulus": "<p id=\"stim\">1</p>", "internal_node_id": "0.0-35.0-9.0", "time_elapsed": 329895, "key_press": -1, "trial_index": 53}, "uniqueid": "MTK1622:3DBQWDE4Y756W7ZK7A7EO2C9UR55NL", "dateTime": 1516049718010}, {"current_trial": 54, "trialdata": {"rt": -1, "trial_type": "single-stim", "stimulus": "<p id=\"stim\">+</p>", "internal_node_id": "0.0-36.0-0.0", "time_elapsed": 331398, "key_press": -1, "type": "FIXATION", "trial_index": 54}, "uniqueid": "MTK1622:3DBQWDE4Y756W7ZK7A7EO2C9UR55NL", "dateTime": 1516049719512}, {"current_trial": 55, "trialdata": {"rt": -1, "trial_type": "single-stim", "word": "typist", "stimulus": "<p id=\"stim\">TYPIST</p>", "conditions": [18, 1200, "v", 18000], "internal_node_id": "0.0-37.0", "trial": 1, "time_elapsed": 332600, "serialpos": 0, "key_press": -1, "wordID": 1531, "type": "PRES_VIS", "trial_index": 55}, "uniqueid": "MTK1622:3DBQWDE4Y756W7ZK7A7EO2C9UR55NL", "dateTime": 1516049720714}, {"current_trial": 56, "trialdata": {"rt": -1, "trial_type": "single-stim", "word": "cook", "stimulus": "<p id=\"stim\">COOK</p>", "conditions": [18, 1200, "v", 18000], "internal_node_id": "0.0-38.0", "trial": 1, "time_elapsed": 334808, "serialpos": 1, "key_press": -1, "wordID": 371, "type": "PRES_VIS", "trial_index": 56}, "uniqueid": "MTK1622:3DBQWDE4Y756W7ZK7A7EO2C9UR55NL", "dateTime": 1516049722922}, {"current_trial": 57, "trialdata": {"rt": -1, "trial_type": "single-stim", "word": "bucket", "stimulus": "<p id=\"stim\">BUCKET</p>", "conditions": [18, 1200, "v", 18000], "internal_node_id": "0.0-39.0", "trial": 1, "time_elapsed": 337000, "serialpos": 2, "key_press": -1, "wordID": 183, "type": "PRES_VIS", "trial_index": 57}, "uniqueid": "MTK1622:3DBQWDE4Y756W7ZK7A7EO2C9UR55NL", "dateTime": 1516049725114}, {"current_trial": 58, "trialdata": {"rt": -1, "trial_type": "single-stim", "word": "subway", "stimulus": "<p id=\"stim\">SUBWAY</p>", "conditions": [18, 1200, "v", 18000], "internal_node_id": "0.0-40.0", "trial": 1, "time_elapsed": 339101, "serialpos": 3, "key_press": -1, "wordID": 1399, "type": "PRES_VIS", "trial_index": 58}, "uniqueid": "MTK1622:3DBQWDE4Y756W7ZK7A7EO2C9UR55NL", "dateTime": 1516049727216}, {"current_trial": 59, "trialdata": {"rt": -1, "trial_type": "single-stim", "word": "soda", "stimulus": "<p id=\"stim\">SODA</p>", "conditions": [18, 1200, "v", 18000], "internal_node_id": "0.0-41.0", "trial": 1, "time_elapsed": 341315, "serialpos": 4, "key_press": -1, "wordID": 1340, "type": "PRES_VIS", "trial_index": 59}, "uniqueid": "MTK1622:3DBQWDE4Y756W7ZK7A7EO2C9UR55NL", "dateTime": 1516049729430}, {"current_trial": 60, "trialdata": {"rt": -1, "trial_type": "single-stim", "word": "coffee", "stimulus": "<p id=\"stim\">COFFEE</p>", "conditions": [18, 1200, "v", 18000], "internal_node_id": "0.0-42.0", "trial": 1, "time_elapsed": 343639, "serialpos": 5, "key_press": -1, "wordID": 340, "type": "PRES_VIS", "trial_index": 60}, "uniqueid": "MTK1622:3DBQWDE4Y756W7ZK7A7EO2C9UR55NL", "dateTime": 1516049731753}, {"current_trial": 61, "trialdata": {"rt": -1, "trial_type": "single-stim", "word": "lily", "stimulus": "<p id=\"stim\">LILY</p>", "conditions": [18, 1200, "v", 18000], "internal_node_id": "0.0-43.0", "trial": 1, "time_elapsed": 345998, "serialpos": 6, "key_press": -1, "wordID": 820, "type": "PRES_VIS", "trial_index": 61}, "uniqueid": "MTK1622:3DBQWDE4Y756W7ZK7A7EO2C9UR55NL", "dateTime": 1516049734112}, {"current_trial": 62, "trialdata": {"rt": -1, "trial_type": "single-stim", "word": "burglar", "stimulus": "<p id=\"stim\">BURGLAR</p>", "conditions": [18, 1200, "v", 18000], "internal_node_id": "0.0-44.0", "trial": 1, "time_elapsed": 348037, "serialpos": 7, "key_press": -1, "wordID": 199, "type": "PRES_VIS", "trial_index": 62}, "uniqueid": "MTK1622:3DBQWDE4Y756W7ZK7A7EO2C9UR55NL", "dateTime": 1516049736151}, {"current_trial": 63, "trialdata": {"rt": -1, "trial_type": "single-stim", "word": "cookbook", "stimulus": "<p id=\"stim\">COOKBOOK</p>", "conditions": [18, 1200, "v", 18000], "internal_node_id": "0.0-45.0", "trial": 1, "time_elapsed": 350201, "serialpos": 8, "key_press": -1, "wordID": 372, "type": "PRES_VIS", "trial_index": 63}, "uniqueid": "MTK1622:3DBQWDE4Y756W7ZK7A7EO2C9UR55NL", "dateTime": 1516049738316}, {"current_trial": 64, "trialdata": {"rt": -1, "trial_type": "single-stim", "word": "whiskers", "stimulus": "<p id=\"stim\">WHISKERS</p>", "conditions": [18, 1200, "v", 18000], "internal_node_id": "0.0-46.0", "trial": 1, "time_elapsed": 352235, "serialpos": 9, "key_press": -1, "wordID": 1604, "type": "PRES_VIS", "trial_index": 64}, "uniqueid": "MTK1622:3DBQWDE4Y756W7ZK7A7EO2C9UR55NL", "dateTime": 1516049740349}, {"current_trial": 65, "trialdata": {"rt": -1, "trial_type": "single-stim", "word": "mammal", "stimulus": "<p id=\"stim\">MAMMAL</p>", "conditions": [18, 1200, "v", 18000], "internal_node_id": "0.0-47.0", "trial": 1, "time_elapsed": 354623, "serialpos": 10, "key_press": -1, "wordID": 860, "type": "PRES_VIS", "trial_index": 65}, "uniqueid": "MTK1622:3DBQWDE4Y756W7ZK7A7EO2C9UR55NL", "dateTime": 1516049742737}, {"current_trial": 66, "trialdata": {"rt": -1, "trial_type": "single-stim", "word": "shirt", "stimulus": "<p id=\"stim\">SHIRT</p>", "conditions": [18, 1200, "v", 18000], "internal_node_id": "0.0-48.0", "trial": 1, "time_elapsed": 356698, "serialpos": 11, "key_press": -1, "wordID": 1286, "type": "PRES_VIS", "trial_index": 66}, "uniqueid": "MTK1622:3DBQWDE4Y756W7ZK7A7EO2C9UR55NL", "dateTime": 1516049744813}, {"current_trial": 67, "trialdata": {"rt": -1, "trial_type": "single-stim", "word": "tractor", "stimulus": "<p id=\"stim\">TRACTOR</p>", "conditions": [18, 1200, "v", 18000], "internal_node_id": "0.0-49.0", "trial": 1, "time_elapsed": 358946, "serialpos": 12, "key_press": -1, "wordID": 1492, "type": "PRES_VIS", "trial_index": 67}, "uniqueid": "MTK1622:3DBQWDE4Y756W7ZK7A7EO2C9UR55NL", "dateTime": 1516049747060}, {"current_trial": 68, "trialdata": {"rt": -1, "trial_type": "single-stim", "word": "barley", "stimulus": "<p id=\"stim\">BARLEY</p>", "conditions": [18, 1200, "v", 18000], "internal_node_id": "0.0-50.0", "trial": 1, "time_elapsed": 361246, "serialpos": 13, "key_press": -1, "wordID": 87, "type": "PRES_VIS", "trial_index": 68}, "uniqueid": "MTK1622:3DBQWDE4Y756W7ZK7A7EO2C9UR55NL", "dateTime": 1516049749363}, {"current_trial": 69, "trialdata": {"rt": -1, "trial_type": "single-stim", "word": "skillet", "stimulus": "<p id=\"stim\">SKILLET</p>", "conditions": [18, 1200, "v", 18000], "internal_node_id": "0.0-51.0", "trial": 1, "time_elapsed": 363471, "serialpos": 14, "key_press": -1, "wordID": 1316, "type": "PRES_VIS", "trial_index": 69}, "uniqueid": "MTK1622:3DBQWDE4Y756W7ZK7A7EO2C9UR55NL", "dateTime": 1516049751585}, {"current_trial": 70, "trialdata": {"rt": -1, "trial_type": "single-stim", "word": "beaker", "stimulus": "<p id=\"stim\">BEAKER</p>", "conditions": [18, 1200, "v", 18000], "internal_node_id": "0.0-52.0", "trial": 1, "time_elapsed": 365750, "serialpos": 15, "key_press": -1, "wordID": 103, "type": "PRES_VIS", "trial_index": 70}, "uniqueid": "MTK1622:3DBQWDE4Y756W7ZK7A7EO2C9UR55NL", "dateTime": 1516049753864}, {"current_trial": 71, "trialdata": {"rt": -1, "trial_type": "single-stim", "word": "crutch", "stimulus": "<p id=\"stim\">CRUTCH</p>", "conditions": [18, 1200, "v", 18000], "internal_node_id": "0.0-53.0", "trial": 1, "time_elapsed": 367780, "serialpos": 16, "key_press": -1, "wordID": 416, "type": "PRES_VIS", "trial_index": 71}, "uniqueid": "MTK1622:3DBQWDE4Y756W7ZK7A7EO2C9UR55NL", "dateTime": 1516049755894}, {"current_trial": 72, "trialdata": {"rt": -1, "trial_type": "single-stim", "word": "pilot", "stimulus": "<p id=\"stim\">PILOT</p>", "conditions": [18, 1200, "v", 18000], "internal_node_id": "0.0-54.0", "trial": 1, "time_elapsed": 370021, "serialpos": 17, "key_press": -1, "wordID": 1069, "type": "PRES_VIS", "trial_index": 72}, "uniqueid": "MTK1622:3DBQWDE4Y756W7ZK7A7EO2C9UR55NL", "dateTime": 1516049758135}, {"current_trial": 73, "trialdata": {"rt": -1, "trial_type": "single-stim", "stimulus": "", "internal_node_id": "0.0-55.0-0.0", "time_elapsed": 372478, "key_press": -1, "type": "PRE_RECALL_DELAY", "trial_index": 73}, "uniqueid": "MTK1622:3DBQWDE4Y756W7ZK7A7EO2C9UR55NL", "dateTime": 1516049760592}, {"current_trial": 74, "trialdata": {"rt": -1000, "trial_type": "single-audio", "stimulus": "/static/audio/400Hz.wav", "internal_node_id": "0.0-56.0", "time_elapsed": 372980, "key_press": -1, "type": "PRE_RECALL_ALERT", "trial_index": 74}, "uniqueid": "MTK1622:3DBQWDE4Y756W7ZK7A7EO2C9UR55NL", "dateTime": 1516049761094}, {"current_trial": 75, "trialdata": {"rt": [1386, 3585, 5151, 6755, 9473, 11785, 13493, 18815, 19180, 21368, 30314], "recwords": ["cook", "cookbook", "barley", "speaker", "skillet", "beaker", "pilot", "bucket", "", "lily", "crutch"], "key_times": [578, 720, 904, 1072, 1386, 1777, 2036, 2202, 2303, 2767, 3015, 3164, 3270, 3585, 3951, 4087, 4247, 4441, 4633, 4814, 5151, 5403, 5567, 5704, 5837, 6073, 6211, 6308, 6755, 8202, 8367, 8551, 8764, 8903, 9038, 9187, 9473, 10789, 10922, 11031, 11243, 11385, 11467, 11785, 12404, 12726, 12934, 13091, 13223, 13493, 17426, 17602, 17820, 18063, 18203, 18541, 18815, 19180, 20513, 20738, 20932, 21136, 21368, 28958, 29210, 29380, 29523, 29854, 29978, 30314], "trial_type": "free-recall", "conditions": [18, 1200, "v", 18000], "internal_node_id": "0.0-57.0-0.0", "key_presses": [67, 79, 79, 75, 13, 67, 79, 79, 75, 66, 79, 79, 75, 13, 66, 65, 82, 76, 69, 89, 13, 83, 80, 69, 65, 75, 69, 82, 13, 83, 75, 73, 76, 76, 69, 84, 13, 66, 69, 65, 75, 69, 82, 13, 80, 73, 76, 79, 84, 13, 66, 85, 67, 75, 69, 84, 13, 186, 76, 73, 76, 89, 13, 67, 82, 85, 84, 67, 72, 13], "trial": 1, "time_elapsed": 432984, "type": "FREE_RECALL", "trial_index": 75}, "uniqueid": "MTK1622:3DBQWDE4Y756W7ZK7A7EO2C9UR55NL", "dateTime": 1516049821102}, {"current_trial": 76, "trialdata": {"rt": 1857, "trial_type": "text", "internal_node_id": "0.0-58.0", "time_elapsed": 436846, "key_press": 13, "type": "INSTRUCTIONS", "trial_index": 76}, "uniqueid": "MTK1622:3DBQWDE4Y756W7ZK7A7EO2C9UR55NL", "dateTime": 1516049824960}, {"current_trial": 77, "trialdata": {"rt": [2829, 5254, 8674, 10374, 15119, 17126, 19331, 22016], "trial_type": "math-distractor", "key_times": [2086, 2204, 2829, 4761, 5028, 5254, 8276, 8407, 8674, 10044, 10159, 10374, 14797, 14905, 15119, 16668, 16912, 17126, 18902, 19116, 19331, 21640, 21792, 22016], "responses": ["15", "16", "23", "15", "15", "10", "16", "12"], "num2": [6, 9, 8, 1, 8, 1, 6, 1, 2], "num3": [7, 2, 6, 7, 1, 1, 7, 7, 1], "conditions": [24, 800, "v", 24000], "internal_node_id": "0.0-59.0", "key_presses": [97, 101, 13, 97, 102, 13, 98, 99, 13, 97, 101, 13, 97, 101, 13, 97, 96, 13, 97, 102, 13, 97, 98, 13], "trial": 2, "time_elapsed": 461850, "type": "DISTRACTOR", "trial_index": 77, "num1": [2, 5, 9, 7, 6, 8, 3, 4, 5]}, "uniqueid": "MTK1622:3DBQWDE4Y756W7ZK7A7EO2C9UR55NL", "dateTime": 1516049849964}, {"current_trial": 78, "trialdata": {"rt": -1, "trial_type": "single-stim", "stimulus": "<p id=\"stim\">10</p>", "internal_node_id": "0.0-60.0-0.0", "time_elapsed": 464853, "key_press": -1, "trial_index": 78}, "uniqueid": "MTK1622:3DBQWDE4Y756W7ZK7A7EO2C9UR55NL", "dateTime": 1516049852968}, {"current_trial": 79, "trialdata": {"rt": -1, "trial_type": "single-stim", "stimulus": "<p id=\"stim\">9</p>", "internal_node_id": "0.0-60.0-1.0", "time_elapsed": 465856, "key_press": -1, "trial_index": 79}, "uniqueid": "MTK1622:3DBQWDE4Y756W7ZK7A7EO2C9UR55NL", "dateTime": 1516049853970}, {"current_trial": 80, "trialdata": {"rt": -1, "trial_type": "single-stim", "stimulus": "<p id=\"stim\">8</p>", "internal_node_id": "0.0-60.0-2.0", "time_elapsed": 466858, "key_press": -1, "trial_index": 80}, "uniqueid": "MTK1622:3DBQWDE4Y756W7ZK7A7EO2C9UR55NL", "dateTime": 1516049854972}, {"current_trial": 81, "trialdata": {"rt": -1, "trial_type": "single-stim", "stimulus": "<p id=\"stim\">7</p>", "internal_node_id": "0.0-60.0-3.0", "time_elapsed": 467860, "key_press": -1, "trial_index": 81}, "uniqueid": "MTK1622:3DBQWDE4Y756W7ZK7A7EO2C9UR55NL", "dateTime": 1516049855974}, {"current_trial": 82, "trialdata": {"rt": -1, "trial_type": "single-stim", "stimulus": "<p id=\"stim\">6</p>", "internal_node_id": "0.0-60.0-4.0", "time_elapsed": 468862, "key_press": -1, "trial_index": 82}, "uniqueid": "MTK1622:3DBQWDE4Y756W7ZK7A7EO2C9UR55NL", "dateTime": 1516049856976}, {"current_trial": 83, "trialdata": {"rt": -1, "trial_type": "single-stim", "stimulus": "<p id=\"stim\">5</p>", "internal_node_id": "0.0-60.0-5.0", "time_elapsed": 469863, "key_press": -1, "trial_index": 83}, "uniqueid": "MTK1622:3DBQWDE4Y756W7ZK7A7EO2C9UR55NL", "dateTime": 1516049857978}, {"current_trial": 84, "trialdata": {"rt": -1, "trial_type": "single-stim", "stimulus": "<p id=\"stim\">4</p>", "internal_node_id": "0.0-60.0-6.0", "time_elapsed": 470866, "key_press": -1, "trial_index": 84}, "uniqueid": "MTK1622:3DBQWDE4Y756W7ZK7A7EO2C9UR55NL", "dateTime": 1516049858980}, {"current_trial": 85, "trialdata": {"rt": -1, "trial_type": "single-stim", "stimulus": "<p id=\"stim\">3</p>", "internal_node_id": "0.0-60.0-7.0", "time_elapsed": 471868, "key_press": -1, "trial_index": 85}, "uniqueid": "MTK1622:3DBQWDE4Y756W7ZK7A7EO2C9UR55NL", "dateTime": 1516049859983}, {"current_trial": 86, "trialdata": {"rt": -1, "trial_type": "single-stim", "stimulus": "<p id=\"stim\">2</p>", "internal_node_id": "0.0-60.0-8.0", "time_elapsed": 472870, "key_press": -1, "trial_index": 86}, "uniqueid": "MTK1622:3DBQWDE4Y756W7ZK7A7EO2C9UR55NL", "dateTime": 1516049860984}, {"current_trial": 87, "trialdata": {"rt": -1, "trial_type": "single-stim", "stimulus": "<p id=\"stim\">1</p>", "internal_node_id": "0.0-60.0-9.0", "time_elapsed": 473872, "key_press": -1, "trial_index": 87}, "uniqueid": "MTK1622:3DBQWDE4Y756W7ZK7A7EO2C9UR55NL", "dateTime": 1516049861986}, {"current_trial": 88, "trialdata": {"rt": -1, "trial_type": "single-stim", "stimulus": "<p id=\"stim\">+</p>", "internal_node_id": "0.0-61.0-0.0", "time_elapsed": 475374, "key_press": -1, "type": "FIXATION", "trial_index": 88}, "uniqueid": "MTK1622:3DBQWDE4Y756W7ZK7A7EO2C9UR55NL", "dateTime": 1516049863488}, {"current_trial": 89, "trialdata": {"rt": -1, "trial_type": "single-stim", "word": "cattle", "stimulus": "<p id=\"stim\">CATTLE</p>", "conditions": [24, 800, "v", 24000], "internal_node_id": "0.0-62.0", "trial": 2, "time_elapsed": 476176, "serialpos": 0, "key_press": -1, "wordID": 260, "type": "PRES_VIS", "trial_index": 89}, "uniqueid": "MTK1622:3DBQWDE4Y756W7ZK7A7EO2C9UR55NL", "dateTime": 1516049864290}, {"current_trial": 90, "trialdata": {"rt": -1, "trial_type": "single-stim", "word": "female", "stimulus": "<p id=\"stim\">FEMALE</p>", "conditions": [24, 800, "v", 24000], "internal_node_id": "0.0-63.0", "trial": 2, "time_elapsed": 478041, "serialpos": 1, "key_press": -1, "wordID": 558, "type": "PRES_VIS", "trial_index": 90}, "uniqueid": "MTK1622:3DBQWDE4Y756W7ZK7A7EO2C9UR55NL", "dateTime": 1516049866155}, {"current_trial": 91, "trialdata": {"rt": -1, "trial_type": "single-stim", "word": "dorm", "stimulus": "<p id=\"stim\">DORM</p>", "conditions": [24, 800, "v", 24000], "internal_node_id": "0.0-64.0", "trial": 2, "time_elapsed": 479704, "serialpos": 2, "key_press": -1, "wordID": 487, "type": "PRES_VIS", "trial_index": 91}, "uniqueid": "MTK1622:3DBQWDE4Y756W7ZK7A7EO2C9UR55NL", "dateTime": 1516049867818}, {"current_trial": 92, "trialdata": {"rt": -1, "trial_type": "single-stim", "word": "gavel", "stimulus": "<p id=\"stim\">GAVEL</p>", "conditions": [24, 800, "v", 24000], "internal_node_id": "0.0-65.0", "trial": 2, "time_elapsed": 481550, "serialpos": 3, "key_press": -1, "wordID": 626, "type": "PRES_VIS", "trial_index": 92}, "uniqueid": "MTK1622:3DBQWDE4Y756W7ZK7A7EO2C9UR55NL", "dateTime": 1516049869665}, {"current_trial": 93, "trialdata": {"rt": -1, "trial_type": "single-stim", "word": "table", "stimulus": "<p id=\"stim\">TABLE</p>", "conditions": [24, 800, "v", 24000], "internal_node_id": "0.0-66.0", "trial": 2, "time_elapsed": 483265, "serialpos": 4, "key_press": -1, "wordID": 1425, "type": "PRES_VIS", "trial_index": 93}, "uniqueid": "MTK1622:3DBQWDE4Y756W7ZK7A7EO2C9UR55NL", "dateTime": 1516049871379}, {"current_trial": 94, "trialdata": {"rt": -1, "trial_type": "single-stim", "word": "stove", "stimulus": "<p id=\"stim\">STOVE</p>", "conditions": [24, 800, "v", 24000], "internal_node_id": "0.0-67.0", "trial": 2, "time_elapsed": 485043, "serialpos": 5, "key_press": -1, "wordID": 1387, "type": "PRES_VIS", "trial_index": 94}, "uniqueid": "MTK1622:3DBQWDE4Y756W7ZK7A7EO2C9UR55NL", "dateTime": 1516049873157}, {"current_trial": 95, "trialdata": {"rt": -1, "trial_type": "single-stim", "word": "grill", "stimulus": "<p id=\"stim\">GRILL</p>", "conditions": [24, 800, "v", 24000], "internal_node_id": "0.0-68.0", "trial": 2, "time_elapsed": 486919, "serialpos": 6, "key_press": -1, "wordID": 660, "type": "PRES_VIS", "trial_index": 95}, "uniqueid": "MTK1622:3DBQWDE4Y756W7ZK7A7EO2C9UR55NL", "dateTime": 1516049875033}, {"current_trial": 96, "trialdata": {"rt": -1, "trial_type": "single-stim", "word": "hood", "stimulus": "<p id=\"stim\">HOOD</p>", "conditions": [24, 800, "v", 24000], "internal_node_id": "0.0-69.0", "trial": 2, "time_elapsed": 488745, "serialpos": 7, "key_press": -1, "wordID": 713, "type": "PRES_VIS", "trial_index": 96}, "uniqueid": "MTK1622:3DBQWDE4Y756W7ZK7A7EO2C9UR55NL", "dateTime": 1516049876860}, {"current_trial": 97, "trialdata": {"rt": -1, "trial_type": "single-stim", "word": "queen", "stimulus": "<p id=\"stim\">QUEEN</p>", "conditions": [24, 800, "v", 24000], "internal_node_id": "0.0-70.0", "trial": 2, "time_elapsed": 490738, "serialpos": 8, "key_press": -1, "wordID": 1148, "type": "PRES_VIS", "trial_index": 97}, "uniqueid": "MTK1622:3DBQWDE4Y756W7ZK7A7EO2C9UR55NL", "dateTime": 1516049878852}, {"current_trial": 98, "trialdata": {"rt": -1, "trial_type": "single-stim", "word": "citrus", "stimulus": "<p id=\"stim\">CITRUS</p>", "conditions": [24, 800, "v", 24000], "internal_node_id": "0.0-71.0", "trial": 2, "time_elapsed": 492694, "serialpos": 9, "key_press": -1, "wordID": 312, "type": "PRES_VIS", "trial_index": 98}, "uniqueid": "MTK1622:3DBQWDE4Y756W7ZK7A7EO2C9UR55NL", "dateTime": 1516049880808}, {"current_trial": 99, "trialdata": {"rt": -1, "trial_type": "single-stim", "word": "pizza", "stimulus": "<p id=\"stim\">PIZZA</p>", "conditions": [24, 800, "v", 24000], "internal_node_id": "0.0-72.0", "trial": 2, "time_elapsed": 494629, "serialpos": 10, "key_press": -1, "wordID": 1078, "type": "PRES_VIS", "trial_index": 99}, "uniqueid": "MTK1622:3DBQWDE4Y756W7ZK7A7EO2C9UR55NL", "dateTime": 1516049882744}, {"current_trial": 100, "trialdata": {"rt": -1, "trial_type": "single-stim", "word": "bison", "stimulus": "<p id=\"stim\">BISON</p>", "conditions": [24, 800, "v", 24000], "internal_node_id": "0.0-73.0", "trial": 2, "time_elapsed": 496343, "serialpos": 11, "key_press": -1, "wordID": 130, "type": "PRES_VIS", "trial_index": 100}, "uniqueid": "MTK1622:3DBQWDE4Y756W7ZK7A7EO2C9UR55NL", "dateTime": 1516049884457}, {"current_trial": 101, "trialdata": {"rt": -1, "trial_type": "single-stim", "word": "child", "stimulus": "<p id=\"stim\">CHILD</p>", "conditions": [24, 800, "v", 24000], "internal_node_id": "0.0-74.0", "trial": 2, "time_elapsed": 498075, "serialpos": 12, "key_press": -1, "wordID": 298, "type": "PRES_VIS", "trial_index": 101}, "uniqueid": "MTK1622:3DBQWDE4Y756W7ZK7A7EO2C9UR55NL", "dateTime": 1516049886190}, {"current_trial": 102, "trialdata": {"rt": -1, "trial_type": "single-stim", "word": "leader", "stimulus": "<p id=\"stim\">LEADER</p>", "conditions": [24, 800, "v", 24000], "internal_node_id": "0.0-75.0", "trial": 2, "time_elapsed": 499990, "serialpos": 13, "key_press": -1, "wordID": 806, "type": "PRES_VIS", "trial_index": 102}, "uniqueid": "MTK1622:3DBQWDE4Y756W7ZK7A7EO2C9UR55NL", "dateTime": 1516049888104}, {"current_trial": 103, "trialdata": {"rt": -1, "trial_type": "single-stim", "word": "waiter", "stimulus": "<p id=\"stim\">WAITER</p>", "conditions": [24, 800, "v", 24000], "internal_node_id": "0.0-76.0", "trial": 2, "time_elapsed": 501722, "serialpos": 14, "key_press": -1, "wordID": 1579, "type": "PRES_VIS", "trial_index": 103}, "uniqueid": "MTK1622:3DBQWDE4Y756W7ZK7A7EO2C9UR55NL", "dateTime": 1516049889836}, {"current_trial": 104, "trialdata": {"rt": -1, "trial_type": "single-stim", "word": "chest", "stimulus": "<p id=\"stim\">CHEST</p>", "conditions": [24, 800, "v", 24000], "internal_node_id": "0.0-77.0", "trial": 2, "time_elapsed": 503608, "serialpos": 15, "key_press": -1, "wordID": 294, "type": "PRES_VIS", "trial_index": 104}, "uniqueid": "MTK1622:3DBQWDE4Y756W7ZK7A7EO2C9UR55NL", "dateTime": 1516049891722}, {"current_trial": 105, "trialdata": {"rt": -1, "trial_type": "single-stim", "word": "cousin", "stimulus": "<p id=\"stim\">COUSIN</p>", "conditions": [24, 800, "v", 24000], "internal_node_id": "0.0-78.0", "trial": 2, "time_elapsed": 505541, "serialpos": 16, "key_press": -1, "wordID": 391, "type": "PRES_VIS", "trial_index": 105}, "uniqueid": "MTK1622:3DBQWDE4Y756W7ZK7A7EO2C9UR55NL", "dateTime": 1516049893655}, {"current_trial": 106, "trialdata": {"rt": -1, "trial_type": "single-stim", "word": "suitcase", "stimulus": "<p id=\"stim\">SUITCASE</p>", "conditions": [24, 800, "v", 24000], "internal_node_id": "0.0-79.0", "trial": 2, "time_elapsed": 507400, "serialpos": 17, "key_press": -1, "wordID": 1402, "type": "PRES_VIS", "trial_index": 106}, "uniqueid": "MTK1622:3DBQWDE4Y756W7ZK7A7EO2C9UR55NL", "dateTime": 1516049895514}, {"current_trial": 107, "trialdata": {"rt": -1, "trial_type": "single-stim", "word": "forehead", "stimulus": "<p id=\"stim\">FOREHEAD</p>", "conditions": [24, 800, "v", 24000], "internal_node_id": "0.0-80.0", "trial": 2, "time_elapsed": 509098, "serialpos": 18, "key_press": -1, "wordID": 591, "type": "PRES_VIS", "trial_index": 107}, "uniqueid": "MTK1622:3DBQWDE4Y756W7ZK7A7EO2C9UR55NL", "dateTime": 1516049897213}, {"current_trial": 108, "trialdata": {"rt": -1, "trial_type": "single-stim", "word": "camel", "stimulus": "<p id=\"stim\">CAMEL</p>", "conditions": [24, 800, "v", 24000], "internal_node_id": "0.0-81.0", "trial": 2, "time_elapsed": 510898, "serialpos": 19, "key_press": -1, "wordID": 222, "type": "PRES_VIS", "trial_index": 108}, "uniqueid": "MTK1622:3DBQWDE4Y756W7ZK7A7EO2C9UR55NL", "dateTime": 1516049899012}, {"current_trial": 109, "trialdata": {"rt": -1, "trial_type": "single-stim", "word": "friend", "stimulus": "<p id=\"stim\">FRIEND</p>", "conditions": [24, 800, "v", 24000], "internal_node_id": "0.0-82.0", "trial": 2, "time_elapsed": 512627, "serialpos": 20, "key_press": -1, "wordID": 605, "type": "PRES_VIS", "trial_index": 109}, "uniqueid": "MTK1622:3DBQWDE4Y756W7ZK7A7EO2C9UR55NL", "dateTime": 1516049900741}, {"current_trial": 110, "trialdata": {"rt": -1, "trial_type": "single-stim", "word": "uncle", "stimulus": "<p id=\"stim\">UNCLE</p>", "conditions": [24, 800, "v", 24000], "internal_node_id": "0.0-83.0", "trial": 2, "time_elapsed": 514240, "serialpos": 21, "key_press": -1, "wordID": 1535, "type": "PRES_VIS", "trial_index": 110}, "uniqueid": "MTK1622:3DBQWDE4Y756W7ZK7A7EO2C9UR55NL", "dateTime": 1516049902355}, {"current_trial": 111, "trialdata": {"rt": -1, "trial_type": "single-stim", "word": "farmer", "stimulus": "<p id=\"stim\">FARMER</p>", "conditions": [24, 800, "v", 24000], "internal_node_id": "0.0-84.0", "trial": 2, "time_elapsed": 515857, "serialpos": 22, "key_press": -1, "wordID": 552, "type": "PRES_VIS", "trial_index": 111}, "uniqueid": "MTK1622:3DBQWDE4Y756W7ZK7A7EO2C9UR55NL", "dateTime": 1516049903972}, {"current_trial": 112, "trialdata": {"rt": -1, "trial_type": "single-stim", "word": "dashboard", "stimulus": "<p id=\"stim\">DASHBOARD</p>", "conditions": [24, 800, "v", 24000], "internal_node_id": "0.0-85.0", "trial": 2, "time_elapsed": 517702, "serialpos": 23, "key_press": -1, "wordID": 440, "type": "PRES_VIS", "trial_index": 112}, "uniqueid": "MTK1622:3DBQWDE4Y756W7ZK7A7EO2C9UR55NL", "dateTime": 1516049905816}, {"current_trial": 113, "trialdata": {"rt": -1, "trial_type": "single-stim", "stimulus": "", "internal_node_id": "0.0-86.0-0.0", "time_elapsed": 519869, "key_press": -1, "type": "PRE_RECALL_DELAY", "trial_index": 113}, "uniqueid": "MTK1622:3DBQWDE4Y756W7ZK7A7EO2C9UR55NL", "dateTime": 1516049907983}, {"current_trial": 114, "trialdata": {"rt": -1000, "trial_type": "single-audio", "stimulus": "/static/audio/400Hz.wav", "internal_node_id": "0.0-87.0", "time_elapsed": 520371, "key_press": -1, "type": "PRE_RECALL_ALERT", "trial_index": 114}, "uniqueid": "MTK1622:3DBQWDE4Y756W7ZK7A7EO2C9UR55NL", "dateTime": 1516049908485}, {"current_trial": 115, "trialdata": {"rt": [2283, 3886, 5378, 11805, 13935, 16627], "recwords": ["dashboard", "farmer", "uncle", "queen", "female", "cattle"], "key_times": [510, 573, 746, 923, 1133, 1379, 1571, 1739, 1978, 2283, 2738, 2901, 3153, 3338, 3499, 3585, 3886, 4327, 4565, 4740, 5041, 5137, 5378, 5855, 6972, 7706, 7857, 8015, 10803, 10966, 11147, 11327, 11418, 11805, 13015, 13121, 13306, 13414, 13555, 13676, 13935, 15591, 15738, 15969, 16136, 16248, 16338, 16627], "trial_type": "free-recall", "conditions": [24, 800, "v", 24000], "internal_node_id": "0.0-88.0-0.0", "key_presses": [68, 65, 83, 72, 66, 79, 65, 82, 68, 13, 70, 65, 82, 77, 69, 82, 13, 85, 78, 67, 76, 69, 13, 75, 69, 8, 8, 8, 81, 85, 69, 69, 78, 13, 70, 69, 77, 65, 76, 69, 13, 67, 65, 84, 84, 76, 69, 13], "trial": 2, "time_elapsed": 580375, "type": "FREE_RECALL", "trial_index": 115}, "uniqueid": "MTK1622:3DBQWDE4Y756W7ZK7A7EO2C9UR55NL", "dateTime": 1516049968492}, {"current_trial": 116, "trialdata": {"rt": 1443, "trial_type": "text", "internal_node_id": "0.0-89.0", "time_elapsed": 583822, "key_press": 13, "type": "INSTRUCTIONS", "trial_index": 116}, "uniqueid": "MTK1622:3DBQWDE4Y756W7ZK7A7EO2C9UR55NL", "dateTime": 1516049971936}, {"current_trial": 117, "trialdata": {"rt": [2001, 5594, 9018], "trial_type": "math-distractor", "key_times": [1683, 1795, 2001, 5262, 5403, 5594, 7403, 7505, 8237, 8819, 9018, 11690, 11904], "responses": ["15", "22", "12"], "num2": [3, 7, 1, 6], "num3": [3, 8, 7, 6], "conditions": [12, 800, "v", 12000], "internal_node_id": "0.0-90.0", "key_presses": [97, 101, 13, 98, 98, 13, 97, 101, 8, 98, 13, 97, 102], "trial": 3, "time_elapsed": 597827, "type": "DISTRACTOR", "trial_index": 117, "num1": [9, 7, 4, 4]}, "uniqueid": "MTK1622:3DBQWDE4Y756W7ZK7A7EO2C9UR55NL", "dateTime": 1516049985942}, {"current_trial": 118, "trialdata": {"rt": -1, "trial_type": "single-stim", "stimulus": "<p id=\"stim\">10</p>", "internal_node_id": "0.0-91.0-0.0", "time_elapsed": 600830, "key_press": -1, "trial_index": 118}, "uniqueid": "MTK1622:3DBQWDE4Y756W7ZK7A7EO2C9UR55NL", "dateTime": 1516049988944}, {"current_trial": 119, "trialdata": {"rt": -1, "trial_type": "single-stim", "stimulus": "<p id=\"stim\">9</p>", "internal_node_id": "0.0-91.0-1.0", "time_elapsed": 601831, "key_press": -1, "trial_index": 119}, "uniqueid": "MTK1622:3DBQWDE4Y756W7ZK7A7EO2C9UR55NL", "dateTime": 1516049989945}, {"current_trial": 120, "trialdata": {"rt": -1, "trial_type": "single-stim", "stimulus": "<p id=\"stim\">8</p>", "internal_node_id": "0.0-91.0-2.0", "time_elapsed": 602833, "key_press": -1, "trial_index": 120}, "uniqueid": "MTK1622:3DBQWDE4Y756W7ZK7A7EO2C9UR55NL", "dateTime": 1516049990947}, {"current_trial": 121, "trialdata": {"rt": -1, "trial_type": "single-stim", "stimulus": "<p id=\"stim\">7</p>", "internal_node_id": "0.0-91.0-3.0", "time_elapsed": 603834, "key_press": -1, "trial_index": 121}, "uniqueid": "MTK1622:3DBQWDE4Y756W7ZK7A7EO2C9UR55NL", "dateTime": 1516049991949}, {"current_trial": 122, "trialdata": {"rt": -1, "trial_type": "single-stim", "stimulus": "<p id=\"stim\">6</p>", "internal_node_id": "0.0-91.0-4.0", "time_elapsed": 604836, "key_press": -1, "trial_index": 122}, "uniqueid": "MTK1622:3DBQWDE4Y756W7ZK7A7EO2C9UR55NL", "dateTime": 1516049992950}, {"current_trial": 123, "trialdata": {"rt": -1, "trial_type": "single-stim", "stimulus": "<p id=\"stim\">5</p>", "internal_node_id": "0.0-91.0-5.0", "time_elapsed": 605838, "key_press": -1, "trial_index": 123}, "uniqueid": "MTK1622:3DBQWDE4Y756W7ZK7A7EO2C9UR55NL", "dateTime": 1516049993953}, {"current_trial": 124, "trialdata": {"rt": -1, "trial_type": "single-stim", "stimulus": "<p id=\"stim\">4</p>", "internal_node_id": "0.0-91.0-6.0", "time_elapsed": 606840, "key_press": -1, "trial_index": 124}, "uniqueid": "MTK1622:3DBQWDE4Y756W7ZK7A7EO2C9UR55NL", "dateTime": 1516049994954}, {"current_trial": 125, "trialdata": {"rt": -1, "trial_type": "single-stim", "stimulus": "<p id=\"stim\">3</p>", "internal_node_id": "0.0-91.0-7.0", "time_elapsed": 607842, "key_press": -1, "trial_index": 125}, "uniqueid": "MTK1622:3DBQWDE4Y756W7ZK7A7EO2C9UR55NL", "dateTime": 1516049995956}, {"current_trial": 126, "trialdata": {"rt": -1, "trial_type": "single-stim", "stimulus": "<p id=\"stim\">2</p>", "internal_node_id": "0.0-91.0-8.0", "time_elapsed": 608844, "key_press": -1, "trial_index": 126}, "uniqueid": "MTK1622:3DBQWDE4Y756W7ZK7A7EO2C9UR55NL", "dateTime": 1516049996958}, {"current_trial": 127, "trialdata": {"rt": -1, "trial_type": "single-stim", "stimulus": "<p id=\"stim\">1</p>", "internal_node_id": "0.0-91.0-9.0", "time_elapsed": 609846, "key_press": -1, "trial_index": 127}, "uniqueid": "MTK1622:3DBQWDE4Y756W7ZK7A7EO2C9UR55NL", "dateTime": 1516049997960}, {"current_trial": 128, "trialdata": {"rt": -1, "trial_type": "single-stim", "stimulus": "<p id=\"stim\">+</p>", "internal_node_id": "0.0-92.0-0.0", "time_elapsed": 611347, "key_press": -1, "type": "FIXATION", "trial_index": 128}, "uniqueid": "MTK1622:3DBQWDE4Y756W7ZK7A7EO2C9UR55NL", "dateTime": 1516049999462}, {"current_trial": 129, "trialdata": {"rt": -1, "trial_type": "single-stim", "word": "zebra", "stimulus": "<p id=\"stim\">ZEBRA</p>", "conditions": [12, 800, "v", 12000], "internal_node_id": "0.0-93.0", "trial": 3, "time_elapsed": 612149, "serialpos": 0, "key_press": -1, "wordID": 1634, "type": "PRES_VIS", "trial_index": 129}, "uniqueid": "MTK1622:3DBQWDE4Y756W7ZK7A7EO2C9UR55NL", "dateTime": 1516050000263}, {"current_trial": 130, "trialdata": {"rt": -1, "trial_type": "single-stim", "word": "flesh", "stimulus": "<p id=\"stim\">FLESH</p>", "conditions": [12, 800, "v", 12000], "internal_node_id": "0.0-94.0", "trial": 3, "time_elapsed": 613873, "serialpos": 1, "key_press": -1, "wordID": 578, "type": "PRES_VIS", "trial_index": 130}, "uniqueid": "MTK1622:3DBQWDE4Y756W7ZK7A7EO2C9UR55NL", "dateTime": 1516050001987}, {"current_trial": 131, "trialdata": {"rt": -1, "trial_type": "single-stim", "word": "plaster", "stimulus": "<p id=\"stim\">PLASTER</p>", "conditions": [12, 800, "v", 12000], "internal_node_id": "0.0-95.0", "trial": 3, "time_elapsed": 615492, "serialpos": 2, "key_press": -1, "wordID": 1084, "type": "PRES_VIS", "trial_index": 131}, "uniqueid": "MTK1622:3DBQWDE4Y756W7ZK7A7EO2C9UR55NL", "dateTime": 1516050003606}, {"current_trial": 132, "trialdata": {"rt": -1, "trial_type": "single-stim", "word": "neutron", "stimulus": "<p id=\"stim\">NEUTRON</p>", "conditions": [12, 800, "v", 12000], "internal_node_id": "0.0-96.0", "trial": 3, "time_elapsed": 617453, "serialpos": 3, "key_press": -1, "wordID": 946, "type": "PRES_VIS", "trial_index": 132}, "uniqueid": "MTK1622:3DBQWDE4Y756W7ZK7A7EO2C9UR55NL", "dateTime": 1516050005567}, {"current_trial": 133, "trialdata": {"rt": -1, "trial_type": "single-stim", "word": "partner", "stimulus": "<p id=\"stim\">PARTNER</p>", "conditions": [12, 800, "v", 12000], "internal_node_id": "0.0-97.0", "trial": 3, "time_elapsed": 619260, "serialpos": 4, "key_press": -1, "wordID": 1016, "type": "PRES_VIS", "trial_index": 133}, "uniqueid": "MTK1622:3DBQWDE4Y756W7ZK7A7EO2C9UR55NL", "dateTime": 1516050007374}, {"current_trial": 134, "trialdata": {"rt": -1, "trial_type": "single-stim", "word": "robin", "stimulus": "<p id=\"stim\">ROBIN</p>", "conditions": [12, 800, "v", 12000], "internal_node_id": "0.0-98.0", "trial": 3, "time_elapsed": 620892, "serialpos": 5, "key_press": -1, "wordID": 1198, "type": "PRES_VIS", "trial_index": 134}, "uniqueid": "MTK1622:3DBQWDE4Y756W7ZK7A7EO2C9UR55NL", "dateTime": 1516050009006}, {"current_trial": 135, "trialdata": {"rt": -1, "trial_type": "single-stim", "word": "honey", "stimulus": "<p id=\"stim\">HONEY</p>", "conditions": [12, 800, "v", 12000], "internal_node_id": "0.0-99.0", "trial": 3, "time_elapsed": 622566, "serialpos": 6, "key_press": -1, "wordID": 712, "type": "PRES_VIS", "trial_index": 135}, "uniqueid": "MTK1622:3DBQWDE4Y756W7ZK7A7EO2C9UR55NL", "dateTime": 1516050010680}, {"current_trial": 136, "trialdata": {"rt": -1, "trial_type": "single-stim", "word": "egypt", "stimulus": "<p id=\"stim\">EGYPT</p>", "conditions": [12, 800, "v", 12000], "internal_node_id": "0.0-100.0", "trial": 3, "time_elapsed": 624495, "serialpos": 7, "key_press": -1, "wordID": 518, "type": "PRES_VIS", "trial_index": 136}, "uniqueid": "MTK1622:3DBQWDE4Y756W7ZK7A7EO2C9UR55NL", "dateTime": 1516050012609}, {"current_trial": 137, "trialdata": {"rt": -1, "trial_type": "single-stim", "word": "europe", "stimulus": "<p id=\"stim\">EUROPE</p>", "conditions": [12, 800, "v", 12000], "internal_node_id": "0.0-101.0", "trial": 3, "time_elapsed": 626197, "serialpos": 8, "key_press": -1, "wordID": 540, "type": "PRES_VIS", "trial_index": 137}, "uniqueid": "MTK1622:3DBQWDE4Y756W7ZK7A7EO2C9UR55NL", "dateTime": 1516050014312}, {"current_trial": 138, "trialdata": {"rt": -1, "trial_type": "single-stim", "word": "panther", "stimulus": "<p id=\"stim\">PANTHER</p>", "conditions": [12, 800, "v", 12000], "internal_node_id": "0.0-102.0", "trial": 3, "time_elapsed": 627849, "serialpos": 9, "key_press": -1, "wordID": 1008, "type": "PRES_VIS", "trial_index": 138}, "uniqueid": "MTK1622:3DBQWDE4Y756W7ZK7A7EO2C9UR55NL", "dateTime": 1516050015963}, {"current_trial": 139, "trialdata": {"rt": -1, "trial_type": "single-stim", "word": "turkey", "stimulus": "<p id=\"stim\">TURKEY</p>", "conditions": [12, 800, "v", 12000], "internal_node_id": "0.0-103.0", "trial": 3, "time_elapsed": 629787, "serialpos": 10, "key_press": -1, "wordID": 1519, "type": "PRES_VIS", "trial_index": 139}, "uniqueid": "MTK1622:3DBQWDE4Y756W7ZK7A7EO2C9UR55NL", "dateTime": 1516050017901}, {"current_trial": 140, "trialdata": {"rt": -1, "trial_type": "single-stim", "word": "pasta", "stimulus": "<p id=\"stim\">PASTA</p>", "conditions": [12, 800, "v", 12000], "internal_node_id": "0.0-104.0", "trial": 3, "time_elapsed": 631616, "serialpos": 11, "key_press": -1, "wordID": 1020, "type": "PRES_VIS", "trial_index": 140}, "uniqueid": "MTK1622:3DBQWDE4Y756W7ZK7A7EO2C9UR55NL", "dateTime": 1516050019730}, {"current_trial": 141, "trialdata": {"rt": -1, "trial_type": "single-stim", "stimulus": "", "internal_node_id": "0.0-105.0-0.0", "time_elapsed": 633840, "key_press": -1, "type": "PRE_RECALL_DELAY", "trial_index": 141}, "uniqueid": "MTK1622:3DBQWDE4Y756W7ZK7A7EO2C9UR55NL", "dateTime": 1516050021954}, {"current_trial": 142, "trialdata": {"rt": -1000, "trial_type": "single-audio", "stimulus": "/static/audio/400Hz.wav", "internal_node_id": "0.0-106.0", "time_elapsed": 634342, "key_press": -1, "type": "PRE_RECALL_ALERT", "trial_index": 142}, "uniqueid": "MTK1622:3DBQWDE4Y756W7ZK7A7EO2C9UR55NL", "dateTime": 1516050022456}, {"current_trial": 143, "trialdata": {"rt": [2110, 4093, 6445, 10904, 12454, 15047, 38817], "recwords": ["pasta", "turkey", "egypt", "panther", "pasta", "turkey", "study"], "key_times": [629, 818, 929, 1220, 1374, 2110, 2724, 2898, 3004, 3398, 3541, 3821, 4093, 5072, 5410, 5650, 5924, 6086, 6445, 6870, 7002, 7253, 7407, 7559, 7657, 7759, 8737, 8897, 10372, 10559, 10904, 11317, 11450, 11731, 11964, 12123, 12454, 13738, 13889, 13989, 14338, 14441, 14789, 15047, 36341, 36629, 36784, 36974, 37208, 38817], "trial_type": "free-recall", "conditions": [12, 800, "v", 12000], "internal_node_id": "0.0-107.0-0.0", "key_presses": [80, 65, 83, 84, 65, 13, 84, 85, 82, 75, 69, 89, 13, 69, 71, 89, 80, 84, 13, 80, 65, 78, 84, 72, 69, 82, 8, 8, 69, 82, 13, 80, 65, 83, 84, 65, 13, 84, 85, 82, 75, 69, 89, 13, 83, 84, 85, 68, 89, 13], "trial": 3, "time_elapsed": 694346, "type": "FREE_RECALL", "trial_index": 143}, "uniqueid": "MTK1622:3DBQWDE4Y756W7ZK7A7EO2C9UR55NL", "dateTime": 1516050082464}, {"current_trial": 144, "trialdata": {"rt": 951, "trial_type": "text", "internal_node_id": "0.0-108.0", "time_elapsed": 697302, "key_press": 13, "type": "INSTRUCTIONS", "trial_index": 144}, "uniqueid": "MTK1622:3DBQWDE4Y756W7ZK7A7EO2C9UR55NL", "dateTime": 1516050085416}, {"current_trial": 145, "trialdata": {"rt": [3650, 6032, 7524, 10356], "trial_type": "math-distractor", "key_times": [3157, 3390, 3650, 5784, 6032, 7291, 7524, 9692, 10125, 10356], "responses": ["23", "9", "4", "16"], "num2": [7, 1, 2, 7, 8], "num3": [9, 3, 1, 8, 5], "conditions": [12, 800, "v", 12000], "internal_node_id": "0.0-109.0", "key_presses": [98, 99, 13, 105, 13, 100, 13, 97, 102, 13], "trial": 4, "time_elapsed": 711306, "type": "DISTRACTOR", "trial_index": 145, "num1": [7, 5, 1, 1, 9]}, "uniqueid": "MTK1622:3DBQWDE4Y756W7ZK7A7EO2C9UR55NL", "dateTime": 1516050099420}, {"current_trial": 146, "trialdata": {"rt": -1, "trial_type": "single-stim", "stimulus": "<p id=\"stim\">10</p>", "internal_node_id": "0.0-110.0-0.0", "time_elapsed": 714309, "key_press": -1, "trial_index": 146}, "uniqueid": "MTK1622:3DBQWDE4Y756W7ZK7A7EO2C9UR55NL", "dateTime": 1516050102423}, {"current_trial": 147, "trialdata": {"rt": -1, "trial_type": "single-stim", "stimulus": "<p id=\"stim\">9</p>", "internal_node_id": "0.0-110.0-1.0", "time_elapsed": 715311, "key_press": -1, "trial_index": 147}, "uniqueid": "MTK1622:3DBQWDE4Y756W7ZK7A7EO2C9UR55NL", "dateTime": 1516050103426}, {"current_trial": 148, "trialdata": {"rt": -1, "trial_type": "single-stim", "stimulus": "<p id=\"stim\">8</p>", "internal_node_id": "0.0-110.0-2.0", "time_elapsed": 716313, "key_press": -1, "trial_index": 148}, "uniqueid": "MTK1622:3DBQWDE4Y756W7ZK7A7EO2C9UR55NL", "dateTime": 1516050104427}, {"current_trial": 149, "trialdata": {"rt": -1, "trial_type": "single-stim", "stimulus": "<p id=\"stim\">7</p>", "internal_node_id": "0.0-110.0-3.0", "time_elapsed": 717315, "key_press": -1, "trial_index": 149}, "uniqueid": "MTK1622:3DBQWDE4Y756W7ZK7A7EO2C9UR55NL", "dateTime": 1516050105429}, {"current_trial": 150, "trialdata": {"rt": -1, "trial_type": "single-stim", "stimulus": "<p id=\"stim\">6</p>", "internal_node_id": "0.0-110.0-4.0", "time_elapsed": 718317, "key_press": -1, "trial_index": 150}, "uniqueid": "MTK1622:3DBQWDE4Y756W7ZK7A7EO2C9UR55NL", "dateTime": 1516050106431}, {"current_trial": 151, "trialdata": {"rt": -1, "trial_type": "single-stim", "stimulus": "<p id=\"stim\">5</p>", "internal_node_id": "0.0-110.0-5.0", "time_elapsed": 719318, "key_press": -1, "trial_index": 151}, "uniqueid": "MTK1622:3DBQWDE4Y756W7ZK7A7EO2C9UR55NL", "dateTime": 1516050107432}, {"current_trial": 152, "trialdata": {"rt": -1, "trial_type": "single-stim", "stimulus": "<p id=\"stim\">4</p>", "internal_node_id": "0.0-110.0-6.0", "time_elapsed": 720320, "key_press": -1, "trial_index": 152}, "uniqueid": "MTK1622:3DBQWDE4Y756W7ZK7A7EO2C9UR55NL", "dateTime": 1516050108434}, {"current_trial": 153, "trialdata": {"rt": -1, "trial_type": "single-stim", "stimulus": "<p id=\"stim\">3</p>", "internal_node_id": "0.0-110.0-7.0", "time_elapsed": 721322, "key_press": -1, "trial_index": 153}, "uniqueid": "MTK1622:3DBQWDE4Y756W7ZK7A7EO2C9UR55NL", "dateTime": 1516050109436}, {"current_trial": 154, "trialdata": {"rt": -1, "trial_type": "single-stim", "stimulus": "<p id=\"stim\">2</p>", "internal_node_id": "0.0-110.0-8.0", "time_elapsed": 722324, "key_press": -1, "trial_index": 154}, "uniqueid": "MTK1622:3DBQWDE4Y756W7ZK7A7EO2C9UR55NL", "dateTime": 1516050110438}, {"current_trial": 155, "trialdata": {"rt": -1, "trial_type": "single-stim", "stimulus": "<p id=\"stim\">1</p>", "internal_node_id": "0.0-110.0-9.0", "time_elapsed": 723327, "key_press": -1, "trial_index": 155}, "uniqueid": "MTK1622:3DBQWDE4Y756W7ZK7A7EO2C9UR55NL", "dateTime": 1516050111441}, {"current_trial": 156, "trialdata": {"rt": -1, "trial_type": "single-stim", "stimulus": "<p id=\"stim\">+</p>", "internal_node_id": "0.0-111.0-0.0", "time_elapsed": 724829, "key_press": -1, "type": "FIXATION", "trial_index": 156}, "uniqueid": "MTK1622:3DBQWDE4Y756W7ZK7A7EO2C9UR55NL", "dateTime": 1516050112944}, {"current_trial": 157, "trialdata": {"rt": -1, "trial_type": "single-stim", "word": "office", "stimulus": "<p id=\"stim\">OFFICE</p>", "conditions": [12, 800, "v", 12000], "internal_node_id": "0.0-112.0", "trial": 4, "time_elapsed": 725632, "serialpos": 0, "key_press": -1, "wordID": 971, "type": "PRES_VIS", "trial_index": 157}, "uniqueid": "MTK1622:3DBQWDE4Y756W7ZK7A7EO2C9UR55NL", "dateTime": 1516050113746}, {"current_trial": 158, "trialdata": {"rt": -1, "trial_type": "single-stim", "word": "cafe", "stimulus": "<p id=\"stim\">CAFE</p>", "conditions": [12, 800, "v", 12000], "internal_node_id": "0.0-113.0", "trial": 4, "time_elapsed": 727632, "serialpos": 1, "key_press": -1, "wordID": 215, "type": "PRES_VIS", "trial_index": 158}, "uniqueid": "MTK1622:3DBQWDE4Y756W7ZK7A7EO2C9UR55NL", "dateTime": 1516050115746}, {"current_trial": 159, "trialdata": {"rt": -1, "trial_type": "single-stim", "word": "sandwich", "stimulus": "<p id=\"stim\">SANDWICH</p>", "conditions": [12, 800, "v", 12000], "internal_node_id": "0.0-114.0", "trial": 4, "time_elapsed": 729608, "serialpos": 2, "key_press": -1, "wordID": 1231, "type": "PRES_VIS", "trial_index": 159}, "uniqueid": "MTK1622:3DBQWDE4Y756W7ZK7A7EO2C9UR55NL", "dateTime": 1516050117723}, {"current_trial": 160, "trialdata": {"rt": -1, "trial_type": "single-stim", "word": "brick", "stimulus": "<p id=\"stim\">BRICK</p>", "conditions": [12, 800, "v", 12000], "internal_node_id": "0.0-115.0", "trial": 4, "time_elapsed": 731580, "serialpos": 3, "key_press": -1, "wordID": 171, "type": "PRES_VIS", "trial_index": 160}, "uniqueid": "MTK1622:3DBQWDE4Y756W7ZK7A7EO2C9UR55NL", "dateTime": 1516050119694}, {"current_trial": 161, "trialdata": {"rt": -1, "trial_type": "single-stim", "word": "stone", "stimulus": "<p id=\"stim\">STONE</p>", "conditions": [12, 800, "v", 12000], "internal_node_id": "0.0-116.0", "trial": 4, "time_elapsed": 733499, "serialpos": 4, "key_press": -1, "wordID": 1384, "type": "PRES_VIS", "trial_index": 161}, "uniqueid": "MTK1622:3DBQWDE4Y756W7ZK7A7EO2C9UR55NL", "dateTime": 1516050121614}, {"current_trial": 162, "trialdata": {"rt": -1, "trial_type": "single-stim", "word": "quarter", "stimulus": "<p id=\"stim\">QUARTER</p>", "conditions": [12, 800, "v", 12000], "internal_node_id": "0.0-117.0", "trial": 4, "time_elapsed": 735446, "serialpos": 5, "key_press": -1, "wordID": 1147, "type": "PRES_VIS", "trial_index": 162}, "uniqueid": "MTK1622:3DBQWDE4Y756W7ZK7A7EO2C9UR55NL", "dateTime": 1516050123560}, {"current_trial": 163, "trialdata": {"rt": -1, "trial_type": "single-stim", "word": "carriage", "stimulus": "<p id=\"stim\">CARRIAGE</p>", "conditions": [12, 800, "v", 12000], "internal_node_id": "0.0-118.0", "trial": 4, "time_elapsed": 737328, "serialpos": 6, "key_press": -1, "wordID": 247, "type": "PRES_VIS", "trial_index": 163}, "uniqueid": "MTK1622:3DBQWDE4Y756W7ZK7A7EO2C9UR55NL", "dateTime": 1516050125442}, {"current_trial": 164, "trialdata": {"rt": -1, "trial_type": "single-stim", "word": "bacon", "stimulus": "<p id=\"stim\">BACON</p>", "conditions": [12, 800, "v", 12000], "internal_node_id": "0.0-119.0", "trial": 4, "time_elapsed": 739321, "serialpos": 7, "key_press": -1, "wordID": 66, "type": "PRES_VIS", "trial_index": 164}, "uniqueid": "MTK1622:3DBQWDE4Y756W7ZK7A7EO2C9UR55NL", "dateTime": 1516050127435}, {"current_trial": 165, "trialdata": {"rt": -1, "trial_type": "single-stim", "word": "transplant", "stimulus": "<p id=\"stim\">TRANSPLANT</p>", "conditions": [12, 800, "v", 12000], "internal_node_id": "0.0-120.0", "trial": 4, "time_elapsed": 741174, "serialpos": 8, "key_press": -1, "wordID": 1495, "type": "PRES_VIS", "trial_index": 165}, "uniqueid": "MTK1622:3DBQWDE4Y756W7ZK7A7EO2C9UR55NL", "dateTime": 1516050129288}, {"current_trial": 166, "trialdata": {"rt": -1, "trial_type": "single-stim", "word": "mummy", "stimulus": "<p id=\"stim\">MUMMY</p>", "conditions": [12, 800, "v", 12000], "internal_node_id": "0.0-121.0", "trial": 4, "time_elapsed": 743162, "serialpos": 9, "key_press": -1, "wordID": 931, "type": "PRES_VIS", "trial_index": 166}, "uniqueid": "MTK1622:3DBQWDE4Y756W7ZK7A7EO2C9UR55NL", "dateTime": 1516050131276}, {"current_trial": 167, "trialdata": {"rt": -1, "trial_type": "single-stim", "word": "popcorn", "stimulus": "<p id=\"stim\">POPCORN</p>", "conditions": [12, 800, "v", 12000], "internal_node_id": "0.0-122.0", "trial": 4, "time_elapsed": 745065, "serialpos": 10, "key_press": -1, "wordID": 1103, "type": "PRES_VIS", "trial_index": 167}, "uniqueid": "MTK1622:3DBQWDE4Y756W7ZK7A7EO2C9UR55NL", "dateTime": 1516050133180}, {"current_trial": 168, "trialdata": {"rt": -1, "trial_type": "single-stim", "word": "balloon", "stimulus": "<p id=\"stim\">BALLOON</p>", "conditions": [12, 800, "v", 12000], "internal_node_id": "0.0-123.0", "trial": 4, "time_elapsed": 746818, "serialpos": 11, "key_press": -1, "wordID": 74, "type": "PRES_VIS", "trial_index": 168}, "uniqueid": "MTK1622:3DBQWDE4Y756W7ZK7A7EO2C9UR55NL", "dateTime": 1516050134932}, {"current_trial": 169, "trialdata": {"rt": -1, "trial_type": "single-stim", "stimulus": "", "internal_node_id": "0.0-124.0-0.0", "time_elapsed": 749230, "key_press": -1, "type": "PRE_RECALL_DELAY", "trial_index": 169}, "uniqueid": "MTK1622:3DBQWDE4Y756W7ZK7A7EO2C9UR55NL", "dateTime": 1516050137344}, {"current_trial": 170, "trialdata": {"rt": -1000, "trial_type": "single-audio", "stimulus": "/static/audio/400Hz.wav", "internal_node_id": "0.0-125.0", "time_elapsed": 749733, "key_press": -1, "type": "PRE_RECALL_ALERT", "trial_index": 170}, "uniqueid": "MTK1622:3DBQWDE4Y756W7ZK7A7EO2C9UR55NL", "dateTime": 1516050137847}, {"current_trial": 171, "trialdata": {"rt": [1967, 3866, 6869, 9660, 11250, 13046, 21991, 44141, 58002, 59283], "recwords": ["balloon", "carriange", "transport", "quarter", "mummy", "balloon", "office", "office", "brick", "stone"], "key_times": [489, 649, 880, 1046, 1220, 1385, 1650, 1967, 2313, 2354, 2619, 2774, 2904, 3010, 3218, 3474, 3541, 3866, 4299, 4489, 4637, 4897, 5094, 5383, 6168, 6285, 6499, 6869, 7914, 8153, 8361, 8545, 8744, 8845, 9270, 9660, 10128, 10451, 10707, 10844, 11044, 11250, 11765, 11866, 12042, 12195, 12339, 12508, 12773, 13046, 20768, 21259, 21412, 21551, 21624, 21736, 21991, 42982, 43163, 43325, 43501, 43567, 43661, 44141, 56710, 56899, 57288, 57433, 57733, 58002, 58325, 58593, 58808, 58967, 59085, 59283], "trial_type": "free-recall", "conditions": [12, 800, "v", 12000], "internal_node_id": "0.0-126.0-0.0", "key_presses": [66, 65, 76, 76, 79, 79, 78, 13, 67, 65, 82, 82, 73, 65, 78, 71, 69, 13, 84, 82, 65, 78, 83, 80, 79, 82, 84, 13, 81, 85, 65, 82, 84, 69, 82, 13, 77, 85, 77, 77, 89, 13, 66, 65, 76, 76, 79, 79, 78, 13, 79, 70, 70, 73, 67, 69, 13, 79, 70, 70, 73, 67, 69, 13, 66, 82, 73, 67, 75, 13, 83, 84, 79, 78, 69, 13], "trial": 4, "time_elapsed": 809737, "type": "FREE_RECALL", "trial_index": 171}, "uniqueid": "MTK1622:3DBQWDE4Y756W7ZK7A7EO2C9UR55NL", "dateTime": 1516050197855}, {"current_trial": 172, "trialdata": {"rt": 1743, "trial_type": "text", "internal_node_id": "0.0-127.0", "time_elapsed": 813486, "key_press": 13, "type": "INSTRUCTIONS", "trial_index": 172}, "uniqueid": "MTK1622:3DBQWDE4Y756W7ZK7A7EO2C9UR55NL", "dateTime": 1516050201600}, {"current_trial": 173, "trialdata": {"rt": [1868, 3964, 7275, 10437, 12316, 14099, 17107, 19346, 21741, 23716], "trial_type": "math-distractor", "key_times": [1626, 1868, 3540, 3748, 3964, 6760, 7013, 7275, 9672, 10165, 10437, 11859, 12064, 12316, 13786, 14088, 14099, 16604, 16868, 17107, 19099, 19346, 21340, 21529, 21741, 23472, 23716], "responses": ["8", "16", "17", "16", "10", "8", "17", "5", "12", "7"], "num2": [2, 3, 8, 3, 1, 1, 7, 3, 3, 4, 9], "num3": [1, 7, 6, 8, 8, 6, 4, 1, 7, 1, 7], "conditions": [24, 800, "v", 24000], "internal_node_id": "0.0-128.0", "key_presses": [104, 13, 97, 102, 13, 97, 103, 13, 97, 102, 13, 97, 96, 13, 104, 16, 13, 97, 103, 13, 101, 13, 97, 98, 13, 103, 13], "trial": 5, "time_elapsed": 839489, "type": "DISTRACTOR", "trial_index": 173, "num1": [5, 6, 3, 5, 1, 1, 6, 2, 2, 2, 5]}, "uniqueid": "MTK1622:3DBQWDE4Y756W7ZK7A7EO2C9UR55NL", "dateTime": 1516050227604}, {"current_trial": 174, "trialdata": {"rt": -1, "trial_type": "single-stim", "stimulus": "<p id=\"stim\">10</p>", "internal_node_id": "0.0-129.0-0.0", "time_elapsed": 842493, "key_press": -1, "trial_index": 174}, "uniqueid": "MTK1622:3DBQWDE4Y756W7ZK7A7EO2C9UR55NL", "dateTime": 1516050230608}, {"current_trial": 175, "trialdata": {"rt": -1, "trial_type": "single-stim", "stimulus": "<p id=\"stim\">9</p>", "internal_node_id": "0.0-129.0-1.0", "time_elapsed": 843495, "key_press": -1, "trial_index": 175}, "uniqueid": "MTK1622:3DBQWDE4Y756W7ZK7A7EO2C9UR55NL", "dateTime": 1516050231609}, {"current_trial": 176, "trialdata": {"rt": -1, "trial_type": "single-stim", "stimulus": "<p id=\"stim\">8</p>", "internal_node_id": "0.0-129.0-2.0", "time_elapsed": 844498, "key_press": -1, "trial_index": 176}, "uniqueid": "MTK1622:3DBQWDE4Y756W7ZK7A7EO2C9UR55NL", "dateTime": 1516050232612}, {"current_trial": 177, "trialdata": {"rt": -1, "trial_type": "single-stim", "stimulus": "<p id=\"stim\">7</p>", "internal_node_id": "0.0-129.0-3.0", "time_elapsed": 845500, "key_press": -1, "trial_index": 177}, "uniqueid": "MTK1622:3DBQWDE4Y756W7ZK7A7EO2C9UR55NL", "dateTime": 1516050233614}, {"current_trial": 178, "trialdata": {"rt": -1, "trial_type": "single-stim", "stimulus": "<p id=\"stim\">6</p>", "internal_node_id": "0.0-129.0-4.0", "time_elapsed": 846502, "key_press": -1, "trial_index": 178}, "uniqueid": "MTK1622:3DBQWDE4Y756W7ZK7A7EO2C9UR55NL", "dateTime": 1516050234617}, {"current_trial": 179, "trialdata": {"rt": -1, "trial_type": "single-stim", "stimulus": "<p id=\"stim\">5</p>", "internal_node_id": "0.0-129.0-5.0", "time_elapsed": 847505, "key_press": -1, "trial_index": 179}, "uniqueid": "MTK1622:3DBQWDE4Y756W7ZK7A7EO2C9UR55NL", "dateTime": 1516050235619}, {"current_trial": 180, "trialdata": {"rt": -1, "trial_type": "single-stim", "stimulus": "<p id=\"stim\">4</p>", "internal_node_id": "0.0-129.0-6.0", "time_elapsed": 848508, "key_press": -1, "trial_index": 180}, "uniqueid": "MTK1622:3DBQWDE4Y756W7ZK7A7EO2C9UR55NL", "dateTime": 1516050236622}, {"current_trial": 181, "trialdata": {"rt": -1, "trial_type": "single-stim", "stimulus": "<p id=\"stim\">3</p>", "internal_node_id": "0.0-129.0-7.0", "time_elapsed": 849510, "key_press": -1, "trial_index": 181}, "uniqueid": "MTK1622:3DBQWDE4Y756W7ZK7A7EO2C9UR55NL", "dateTime": 1516050237624}, {"current_trial": 182, "trialdata": {"rt": -1, "trial_type": "single-stim", "stimulus": "<p id=\"stim\">2</p>", "internal_node_id": "0.0-129.0-8.0", "time_elapsed": 850512, "key_press": -1, "trial_index": 182}, "uniqueid": "MTK1622:3DBQWDE4Y756W7ZK7A7EO2C9UR55NL", "dateTime": 1516050238626}, {"current_trial": 183, "trialdata": {"rt": -1, "trial_type": "single-stim", "stimulus": "<p id=\"stim\">1</p>", "internal_node_id": "0.0-129.0-9.0", "time_elapsed": 851514, "key_press": -1, "trial_index": 183}, "uniqueid": "MTK1622:3DBQWDE4Y756W7ZK7A7EO2C9UR55NL", "dateTime": 1516050239628}, {"current_trial": 184, "trialdata": {"rt": -1, "trial_type": "single-stim", "stimulus": "<p id=\"stim\">+</p>", "internal_node_id": "0.0-130.0-0.0", "time_elapsed": 853015, "key_press": -1, "type": "FIXATION", "trial_index": 184}, "uniqueid": "MTK1622:3DBQWDE4Y756W7ZK7A7EO2C9UR55NL", "dateTime": 1516050241129}, {"current_trial": 185, "trialdata": {"rt": -1, "trial_type": "single-stim", "word": "rabbit", "stimulus": "<p id=\"stim\">RABBIT</p>", "conditions": [24, 800, "v", 24000], "internal_node_id": "0.0-131.0", "trial": 5, "time_elapsed": 853817, "serialpos": 0, "key_press": -1, "wordID": 1151, "type": "PRES_VIS", "trial_index": 185}, "uniqueid": "MTK1622:3DBQWDE4Y756W7ZK7A7EO2C9UR55NL", "dateTime": 1516050241932}, {"current_trial": 186, "trialdata": {"rt": -1, "trial_type": "single-stim", "word": "snack", "stimulus": "<p id=\"stim\">SNACK</p>", "conditions": [24, 800, "v", 24000], "internal_node_id": "0.0-132.0", "trial": 5, "time_elapsed": 855619, "serialpos": 1, "key_press": -1, "wordID": 1330, "type": "PRES_VIS", "trial_index": 186}, "uniqueid": "MTK1622:3DBQWDE4Y756W7ZK7A7EO2C9UR55NL", "dateTime": 1516050243733}, {"current_trial": 187, "trialdata": {"rt": -1, "trial_type": "single-stim", "word": "crayon", "stimulus": "<p id=\"stim\">CRAYON</p>", "conditions": [24, 800, "v", 24000], "internal_node_id": "0.0-133.0", "trial": 5, "time_elapsed": 857388, "serialpos": 2, "key_press": -1, "wordID": 400, "type": "PRES_VIS", "trial_index": 187}, "uniqueid": "MTK1622:3DBQWDE4Y756W7ZK7A7EO2C9UR55NL", "dateTime": 1516050245502}, {"current_trial": 188, "trialdata": {"rt": -1, "trial_type": "single-stim", "word": "actress", "stimulus": "<p id=\"stim\">ACTRESS</p>", "conditions": [24, 800, "v", 24000], "internal_node_id": "0.0-134.0", "trial": 5, "time_elapsed": 859063, "serialpos": 3, "key_press": -1, "wordID": 5, "type": "PRES_VIS", "trial_index": 188}, "uniqueid": "MTK1622:3DBQWDE4Y756W7ZK7A7EO2C9UR55NL", "dateTime": 1516050247177}, {"current_trial": 189, "trialdata": {"rt": -1, "trial_type": "single-stim", "word": "sword", "stimulus": "<p id=\"stim\">SWORD</p>", "conditions": [24, 800, "v", 24000], "internal_node_id": "0.0-135.0", "trial": 5, "time_elapsed": 860768, "serialpos": 4, "key_press": -1, "wordID": 1422, "type": "PRES_VIS", "trial_index": 189}, "uniqueid": "MTK1622:3DBQWDE4Y756W7ZK7A7EO2C9UR55NL", "dateTime": 1516050248882}, {"current_trial": 190, "trialdata": {"rt": -1, "trial_type": "single-stim", "word": "flashlight", "stimulus": "<p id=\"stim\">FLASHLIGHT</p>", "conditions": [24, 800, "v", 24000], "internal_node_id": "0.0-136.0", "trial": 5, "time_elapsed": 862420, "serialpos": 5, "key_press": -1, "wordID": 574, "type": "PRES_VIS", "trial_index": 190}, "uniqueid": "MTK1622:3DBQWDE4Y756W7ZK7A7EO2C9UR55NL", "dateTime": 1516050250535}, {"current_trial": 191, "trialdata": {"rt": -1, "trial_type": "single-stim", "word": "dress", "stimulus": "<p id=\"stim\">DRESS</p>", "conditions": [24, 800, "v", 24000], "internal_node_id": "0.0-137.0", "trial": 5, "time_elapsed": 864175, "serialpos": 6, "key_press": -1, "wordID": 494, "type": "PRES_VIS", "trial_index": 191}, "uniqueid": "MTK1622:3DBQWDE4Y756W7ZK7A7EO2C9UR55NL", "dateTime": 1516050252289}, {"current_trial": 192, "trialdata": {"rt": -1, "trial_type": "single-stim", "word": "clothes", "stimulus": "<p id=\"stim\">CLOTHES</p>", "conditions": [24, 800, "v", 24000], "internal_node_id": "0.0-138.0", "trial": 5, "time_elapsed": 865860, "serialpos": 7, "key_press": -1, "wordID": 326, "type": "PRES_VIS", "trial_index": 192}, "uniqueid": "MTK1622:3DBQWDE4Y756W7ZK7A7EO2C9UR55NL", "dateTime": 1516050253974}, {"current_trial": 193, "trialdata": {"rt": -1, "trial_type": "single-stim", "word": "robber", "stimulus": "<p id=\"stim\">ROBBER</p>", "conditions": [24, 800, "v", 24000], "internal_node_id": "0.0-139.0", "trial": 5, "time_elapsed": 867659, "serialpos": 8, "key_press": -1, "wordID": 1196, "type": "PRES_VIS", "trial_index": 193}, "uniqueid": "MTK1622:3DBQWDE4Y756W7ZK7A7EO2C9UR55NL", "dateTime": 1516050255773}, {"current_trial": 194, "trialdata": {"rt": -1, "trial_type": "single-stim", "word": "maple", "stimulus": "<p id=\"stim\">MAPLE</p>", "conditions": [24, 800, "v", 24000], "internal_node_id": "0.0-140.0", "trial": 5, "time_elapsed": 869368, "serialpos": 9, "key_press": -1, "wordID": 865, "type": "PRES_VIS", "trial_index": 194}, "uniqueid": "MTK1622:3DBQWDE4Y756W7ZK7A7EO2C9UR55NL", "dateTime": 1516050257483}, {"current_trial": 195, "trialdata": {"rt": -1, "trial_type": "single-stim", "word": "beef", "stimulus": "<p id=\"stim\">BEEF</p>", "conditions": [24, 800, "v", 24000], "internal_node_id": "0.0-141.0", "trial": 5, "time_elapsed": 871063, "serialpos": 10, "key_press": -1, "wordID": 112, "type": "PRES_VIS", "trial_index": 195}, "uniqueid": "MTK1622:3DBQWDE4Y756W7ZK7A7EO2C9UR55NL", "dateTime": 1516050259177}, {"current_trial": 196, "trialdata": {"rt": -1, "trial_type": "single-stim", "word": "suspect", "stimulus": "<p id=\"stim\">SUSPECT</p>", "conditions": [24, 800, "v", 24000], "internal_node_id": "0.0-142.0", "trial": 5, "time_elapsed": 873045, "serialpos": 11, "key_press": -1, "wordID": 1414, "type": "PRES_VIS", "trial_index": 196}, "uniqueid": "MTK1622:3DBQWDE4Y756W7ZK7A7EO2C9UR55NL", "dateTime": 1516050261159}, {"current_trial": 197, "trialdata": {"rt": -1, "trial_type": "single-stim", "word": "candy", "stimulus": "<p id=\"stim\">CANDY</p>", "conditions": [24, 800, "v", 24000], "internal_node_id": "0.0-143.0", "trial": 5, "time_elapsed": 874829, "serialpos": 12, "key_press": -1, "wordID": 229, "type": "PRES_VIS", "trial_index": 197}, "uniqueid": "MTK1622:3DBQWDE4Y756W7ZK7A7EO2C9UR55NL", "dateTime": 1516050262943}, {"current_trial": 198, "trialdata": {"rt": -1, "trial_type": "single-stim", "word": "antler", "stimulus": "<p id=\"stim\">ANTLER</p>", "conditions": [24, 800, "v", 24000], "internal_node_id": "0.0-144.0", "trial": 5, "time_elapsed": 876793, "serialpos": 13, "key_press": -1, "wordID": 28, "type": "PRES_VIS", "trial_index": 198}, "uniqueid": "MTK1622:3DBQWDE4Y756W7ZK7A7EO2C9UR55NL", "dateTime": 1516050264908}, {"current_trial": 199, "trialdata": {"rt": -1, "trial_type": "single-stim", "word": "knife", "stimulus": "<p id=\"stim\">KNIFE</p>", "conditions": [24, 800, "v", 24000], "internal_node_id": "0.0-145.0", "trial": 5, "time_elapsed": 878739, "serialpos": 14, "key_press": -1, "wordID": 784, "type": "PRES_VIS", "trial_index": 199}, "uniqueid": "MTK1622:3DBQWDE4Y756W7ZK7A7EO2C9UR55NL", "dateTime": 1516050266853}, {"current_trial": 200, "trialdata": {"rt": -1, "trial_type": "single-stim", "word": "basement", "stimulus": "<p id=\"stim\">BASEMENT</p>", "conditions": [24, 800, "v", 24000], "internal_node_id": "0.0-146.0", "trial": 5, "time_elapsed": 880707, "serialpos": 15, "key_press": -1, "wordID": 93, "type": "PRES_VIS", "trial_index": 200}, "uniqueid": "MTK1622:3DBQWDE4Y756W7ZK7A7EO2C9UR55NL", "dateTime": 1516050268821}, {"current_trial": 201, "trialdata": {"rt": -1, "trial_type": "single-stim", "word": "baby", "stimulus": "<p id=\"stim\">BABY</p>", "conditions": [24, 800, "v", 24000], "internal_node_id": "0.0-147.0", "trial": 5, "time_elapsed": 882582, "serialpos": 16, "key_press": -1, "wordID": 63, "type": "PRES_VIS", "trial_index": 201}, "uniqueid": "MTK1622:3DBQWDE4Y756W7ZK7A7EO2C9UR55NL", "dateTime": 1516050270697}, {"current_trial": 202, "trialdata": {"rt": -1, "trial_type": "single-stim", "word": "airport", "stimulus": "<p id=\"stim\">AIRPORT</p>", "conditions": [24, 800, "v", 24000], "internal_node_id": "0.0-148.0", "trial": 5, "time_elapsed": 884397, "serialpos": 17, "key_press": -1, "wordID": 12, "type": "PRES_VIS", "trial_index": 202}, "uniqueid": "MTK1622:3DBQWDE4Y756W7ZK7A7EO2C9UR55NL", "dateTime": 1516050272511}, {"current_trial": 203, "trialdata": {"rt": -1, "trial_type": "single-stim", "word": "briefcase", "stimulus": "<p id=\"stim\">BRIEFCASE</p>", "conditions": [24, 800, "v", 24000], "internal_node_id": "0.0-149.0", "trial": 5, "time_elapsed": 886379, "serialpos": 18, "key_press": -1, "wordID": 174, "type": "PRES_VIS", "trial_index": 203}, "uniqueid": "MTK1622:3DBQWDE4Y756W7ZK7A7EO2C9UR55NL", "dateTime": 1516050274493}, {"current_trial": 204, "trialdata": {"rt": -1, "trial_type": "single-stim", "word": "spider", "stimulus": "<p id=\"stim\">SPIDER</p>", "conditions": [24, 800, "v", 24000], "internal_node_id": "0.0-150.0", "trial": 5, "time_elapsed": 888178, "serialpos": 19, "key_press": -1, "wordID": 1350, "type": "PRES_VIS", "trial_index": 204}, "uniqueid": "MTK1622:3DBQWDE4Y756W7ZK7A7EO2C9UR55NL", "dateTime": 1516050276292}, {"current_trial": 205, "trialdata": {"rt": -1, "trial_type": "single-stim", "word": "pecan", "stimulus": "<p id=\"stim\">PECAN</p>", "conditions": [24, 800, "v", 24000], "internal_node_id": "0.0-151.0", "trial": 5, "time_elapsed": 890027, "serialpos": 20, "key_press": -1, "wordID": 1035, "type": "PRES_VIS", "trial_index": 205}, "uniqueid": "MTK1622:3DBQWDE4Y756W7ZK7A7EO2C9UR55NL", "dateTime": 1516050278141}, {"current_trial": 206, "trialdata": {"rt": -1, "trial_type": "single-stim", "word": "razor", "stimulus": "<p id=\"stim\">RAZOR</p>", "conditions": [24, 800, "v", 24000], "internal_node_id": "0.0-152.0", "trial": 5, "time_elapsed": 891658, "serialpos": 21, "key_press": -1, "wordID": 1170, "type": "PRES_VIS", "trial_index": 206}, "uniqueid": "MTK1622:3DBQWDE4Y756W7ZK7A7EO2C9UR55NL", "dateTime": 1516050279772}, {"current_trial": 207, "trialdata": {"rt": -1, "trial_type": "single-stim", "word": "chipmunk", "stimulus": "<p id=\"stim\">CHIPMUNK</p>", "conditions": [24, 800, "v", 24000], "internal_node_id": "0.0-153.0", "trial": 5, "time_elapsed": 893392, "serialpos": 22, "key_press": -1, "wordID": 303, "type": "PRES_VIS", "trial_index": 207}, "uniqueid": "MTK1622:3DBQWDE4Y756W7ZK7A7EO2C9UR55NL", "dateTime": 1516050281506}, {"current_trial": 208, "trialdata": {"rt": -1, "trial_type": "single-stim", "word": "lizard", "stimulus": "<p id=\"stim\">LIZARD</p>", "conditions": [24, 800, "v", 24000], "internal_node_id": "0.0-154.0", "trial": 5, "time_elapsed": 895271, "serialpos": 23, "key_press": -1, "wordID": 833, "type": "PRES_VIS", "trial_index": 208}, "uniqueid": "MTK1622:3DBQWDE4Y756W7ZK7A7EO2C9UR55NL", "dateTime": 1516050283385}, {"current_trial": 209, "trialdata": {"rt": -1, "trial_type": "single-stim", "stimulus": "", "internal_node_id": "0.0-155.0-0.0", "time_elapsed": 897688, "key_press": -1, "type": "PRE_RECALL_DELAY", "trial_index": 209}, "uniqueid": "MTK1622:3DBQWDE4Y756W7ZK7A7EO2C9UR55NL", "dateTime": 1516050285802}, {"current_trial": 210, "trialdata": {"rt": -1000, "trial_type": "single-audio", "stimulus": "/static/audio/400Hz.wav", "internal_node_id": "0.0-156.0", "time_elapsed": 898191, "key_press": -1, "type": "PRE_RECALL_ALERT", "trial_index": 210}, "uniqueid": "MTK1622:3DBQWDE4Y756W7ZK7A7EO2C9UR55NL", "dateTime": 1516050286306}, {"current_trial": 211, "trialdata": {"rt": [2552, 4325, 6900, 8668, 10303, 14921, 16583, 17912, 23993, 30574, 37431, 39307], "recwords": ["lizard", "spider", "chipminnk", "pecan", "robber", "basement", "knife", "pecan", "beef", "actor", "bunny", "snack"], "key_times": [314, 548, 1095, 1315, 1577, 1822, 2552, 3028, 3253, 3467, 3660, 3739, 3895, 4325, 4669, 4964, 5219, 5644, 5907, 6132, 6301, 6476, 6492, 6900, 7479, 7597, 7845, 7998, 8349, 8668, 9278, 9403, 9658, 9813, 9919, 10015, 10303, 10864, 10967, 11085, 11338, 11444, 11615, 11822, 12055, 12176, 13125, 13314, 13464, 13618, 14255, 14587, 14716, 14921, 15407, 15567, 15829, 16054, 16159, 16583, 16930, 17057, 17325, 17405, 17641, 17912, 23277, 23428, 23591, 23759, 23993, 29530, 29761, 29988, 30124, 30214, 30574, 36108, 36298, 36568, 36730, 36873, 37431, 38117, 38484, 38626, 38847, 38998, 39307, 56911, 57006, 57251, 57604, 57693, 58932, 59090, 59230, 59363, 59503, 59632], "trial_type": "free-recall", "conditions": [24, 800, "v", 24000], "internal_node_id": "0.0-157.0-0.0", "key_presses": [76, 73, 90, 65, 82, 68, 13, 83, 80, 73, 68, 69, 82, 13, 67, 72, 73, 80, 77, 73, 78, 78, 75, 13, 80, 69, 67, 65, 78, 13, 82, 79, 66, 66, 69, 82, 13, 66, 65, 83, 69, 77, 65, 78, 69, 84, 8, 8, 8, 8, 69, 78, 84, 13, 75, 78, 73, 70, 69, 13, 80, 69, 67, 65, 78, 13, 66, 69, 69, 70, 13, 65, 67, 84, 79, 82, 13, 66, 85, 78, 78, 89, 13, 83, 78, 65, 67, 75, 13, 75, 78, 73, 70, 69, 8, 8, 8, 8, 8, 8], "trial": 5, "time_elapsed": 958197, "type": "FREE_RECALL", "trial_index": 211}, "uniqueid": "MTK1622:3DBQWDE4Y756W7ZK7A7EO2C9UR55NL", "dateTime": 1516050346315}, {"current_trial": 212, "trialdata": {"rt": 1043, "trial_type": "text", "internal_node_id": "0.0-158.0", "time_elapsed": 961245, "key_press": 13, "type": "INSTRUCTIONS", "trial_index": 212}, "uniqueid": "MTK1622:3DBQWDE4Y756W7ZK7A7EO2C9UR55NL", "dateTime": 1516050349359}, {"current_trial": 213, "trialdata": {"rt": [1838, 4005, 5783], "trial_type": "math-distractor", "key_times": [1528, 1838, 3672, 3785, 4005, 5343, 5548, 5783], "responses": ["7", "15", "10"], "num2": [2, 7, 1, 6], "num3": [2, 2, 1, 8], "conditions": [12, 1600, "v", 12000], "internal_node_id": "0.0-159.0", "key_presses": [103, 13, 97, 101, 13, 97, 96, 13], "trial": 6, "time_elapsed": 975248, "type": "DISTRACTOR", "trial_index": 213, "num1": [3, 8, 8, 9]}, "uniqueid": "MTK1622:3DBQWDE4Y756W7ZK7A7EO2C9UR55NL", "dateTime": 1516050363362}, {"current_trial": 214, "trialdata": {"rt": -1, "trial_type": "single-stim", "stimulus": "<p id=\"stim\">10</p>", "internal_node_id": "0.0-160.0-0.0", "time_elapsed": 978251, "key_press": -1, "trial_index": 214}, "uniqueid": "MTK1622:3DBQWDE4Y756W7ZK7A7EO2C9UR55NL", "dateTime": 1516050366366}, {"current_trial": 215, "trialdata": {"rt": -1, "trial_type": "single-stim", "stimulus": "<p id=\"stim\">9</p>", "internal_node_id": "0.0-160.0-1.0", "time_elapsed": 979254, "key_press": -1, "trial_index": 215}, "uniqueid": "MTK1622:3DBQWDE4Y756W7ZK7A7EO2C9UR55NL", "dateTime": 1516050367368}, {"current_trial": 216, "trialdata": {"rt": -1, "trial_type": "single-stim", "stimulus": "<p id=\"stim\">8</p>", "internal_node_id": "0.0-160.0-2.0", "time_elapsed": 980255, "key_press": -1, "trial_index": 216}, "uniqueid": "MTK1622:3DBQWDE4Y756W7ZK7A7EO2C9UR55NL", "dateTime": 1516050368369}, {"current_trial": 217, "trialdata": {"rt": -1, "trial_type": "single-stim", "stimulus": "<p id=\"stim\">7</p>", "internal_node_id": "0.0-160.0-3.0", "time_elapsed": 981257, "key_press": -1, "trial_index": 217}, "uniqueid": "MTK1622:3DBQWDE4Y756W7ZK7A7EO2C9UR55NL", "dateTime": 1516050369371}, {"current_trial": 218, "trialdata": {"rt": -1, "trial_type": "single-stim", "stimulus": "<p id=\"stim\">6</p>", "internal_node_id": "0.0-160.0-4.0", "time_elapsed": 982258, "key_press": -1, "trial_index": 218}, "uniqueid": "MTK1622:3DBQWDE4Y756W7ZK7A7EO2C9UR55NL", "dateTime": 1516050370372}, {"current_trial": 219, "trialdata": {"rt": -1, "trial_type": "single-stim", "stimulus": "<p id=\"stim\">5</p>", "internal_node_id": "0.0-160.0-5.0", "time_elapsed": 983260, "key_press": -1, "trial_index": 219}, "uniqueid": "MTK1622:3DBQWDE4Y756W7ZK7A7EO2C9UR55NL", "dateTime": 1516050371374}, {"current_trial": 220, "trialdata": {"rt": -1, "trial_type": "single-stim", "stimulus": "<p id=\"stim\">4</p>", "internal_node_id": "0.0-160.0-6.0", "time_elapsed": 984262, "key_press": -1, "trial_index": 220}, "uniqueid": "MTK1622:3DBQWDE4Y756W7ZK7A7EO2C9UR55NL", "dateTime": 1516050372376}, {"current_trial": 221, "trialdata": {"rt": -1, "trial_type": "single-stim", "stimulus": "<p id=\"stim\">3</p>", "internal_node_id": "0.0-160.0-7.0", "time_elapsed": 985265, "key_press": -1, "trial_index": 221}, "uniqueid": "MTK1622:3DBQWDE4Y756W7ZK7A7EO2C9UR55NL", "dateTime": 1516050373379}, {"current_trial": 222, "trialdata": {"rt": -1, "trial_type": "single-stim", "stimulus": "<p id=\"stim\">2</p>", "internal_node_id": "0.0-160.0-8.0", "time_elapsed": 986266, "key_press": -1, "trial_index": 222}, "uniqueid": "MTK1622:3DBQWDE4Y756W7ZK7A7EO2C9UR55NL", "dateTime": 1516050374380}, {"current_trial": 223, "trialdata": {"rt": -1, "trial_type": "single-stim", "stimulus": "<p id=\"stim\">1</p>", "internal_node_id": "0.0-160.0-9.0", "time_elapsed": 987268, "key_press": -1, "trial_index": 223}, "uniqueid": "MTK1622:3DBQWDE4Y756W7ZK7A7EO2C9UR55NL", "dateTime": 1516050375382}, {"current_trial": 224, "trialdata": {"rt": -1, "trial_type": "single-stim", "stimulus": "<p id=\"stim\">+</p>", "internal_node_id": "0.0-161.0-0.0", "time_elapsed": 988770, "key_press": -1, "type": "FIXATION", "trial_index": 224}, "uniqueid": "MTK1622:3DBQWDE4Y756W7ZK7A7EO2C9UR55NL", "dateTime": 1516050376884}, {"current_trial": 225, "trialdata": {"rt": -1, "trial_type": "single-stim", "word": "girl", "stimulus": "<p id=\"stim\">GIRL</p>", "conditions": [12, 1600, "v", 12000], "internal_node_id": "0.0-162.0", "trial": 6, "time_elapsed": 990372, "serialpos": 0, "key_press": -1, "wordID": 636, "type": "PRES_VIS", "trial_index": 225}, "uniqueid": "MTK1622:3DBQWDE4Y756W7ZK7A7EO2C9UR55NL", "dateTime": 1516050378486}, {"current_trial": 226, "trialdata": {"rt": -1, "trial_type": "single-stim", "word": "princess", "stimulus": "<p id=\"stim\">PRINCESS</p>", "conditions": [12, 1600, "v", 12000], "internal_node_id": "0.0-163.0", "trial": 6, "time_elapsed": 993043, "serialpos": 1, "key_press": -1, "wordID": 1124, "type": "PRES_VIS", "trial_index": 226}, "uniqueid": "MTK1622:3DBQWDE4Y756W7ZK7A7EO2C9UR55NL", "dateTime": 1516050381157}, {"current_trial": 227, "trialdata": {"rt": -1, "trial_type": "single-stim", "word": "elbow", "stimulus": "<p id=\"stim\">ELBOW</p>", "conditions": [12, 1600, "v", 12000], "internal_node_id": "0.0-164.0", "trial": 6, "time_elapsed": 995680, "serialpos": 2, "key_press": -1, "wordID": 519, "type": "PRES_VIS", "trial_index": 227}, "uniqueid": "MTK1622:3DBQWDE4Y756W7ZK7A7EO2C9UR55NL", "dateTime": 1516050383794}, {"current_trial": 228, "trialdata": {"rt": -1, "trial_type": "single-stim", "word": "skirt", "stimulus": "<p id=\"stim\">SKIRT</p>", "conditions": [12, 1600, "v", 12000], "internal_node_id": "0.0-165.0", "trial": 6, "time_elapsed": 998180, "serialpos": 3, "key_press": -1, "wordID": 1318, "type": "PRES_VIS", "trial_index": 228}, "uniqueid": "MTK1622:3DBQWDE4Y756W7ZK7A7EO2C9UR55NL", "dateTime": 1516050386294}, {"current_trial": 229, "trialdata": {"rt": -1, "trial_type": "single-stim", "word": "piano", "stimulus": "<p id=\"stim\">PIANO</p>", "conditions": [12, 1600, "v", 12000], "internal_node_id": "0.0-166.0", "trial": 6, "time_elapsed": 1000825, "serialpos": 4, "key_press": -1, "wordID": 1056, "type": "PRES_VIS", "trial_index": 229}, "uniqueid": "MTK1622:3DBQWDE4Y756W7ZK7A7EO2C9UR55NL", "dateTime": 1516050388940}, {"current_trial": 230, "trialdata": {"rt": -1, "trial_type": "single-stim", "word": "sheriff", "stimulus": "<p id=\"stim\">SHERIFF</p>", "conditions": [12, 1600, "v", 12000], "internal_node_id": "0.0-167.0", "trial": 6, "time_elapsed": 1003313, "serialpos": 5, "key_press": -1, "wordID": 1283, "type": "PRES_VIS", "trial_index": 230}, "uniqueid": "MTK1622:3DBQWDE4Y756W7ZK7A7EO2C9UR55NL", "dateTime": 1516050391427}, {"current_trial": 231, "trialdata": {"rt": -1, "trial_type": "single-stim", "word": "jury", "stimulus": "<p id=\"stim\">JURY</p>", "conditions": [12, 1600, "v", 12000], "internal_node_id": "0.0-168.0", "trial": 6, "time_elapsed": 1005793, "serialpos": 6, "key_press": -1, "wordID": 765, "type": "PRES_VIS", "trial_index": 231}, "uniqueid": "MTK1622:3DBQWDE4Y756W7ZK7A7EO2C9UR55NL", "dateTime": 1516050393907}, {"current_trial": 232, "trialdata": {"rt": -1, "trial_type": "single-stim", "word": "xerox", "stimulus": "<p id=\"stim\">XEROX</p>", "conditions": [12, 1600, "v", 12000], "internal_node_id": "0.0-169.0", "trial": 6, "time_elapsed": 1008551, "serialpos": 7, "key_press": -1, "wordID": 1627, "type": "PRES_VIS", "trial_index": 232}, "uniqueid": "MTK1622:3DBQWDE4Y756W7ZK7A7EO2C9UR55NL", "dateTime": 1516050396665}, {"current_trial": 233, "trialdata": {"rt": -1, "trial_type": "single-stim", "word": "cocktail", "stimulus": "<p id=\"stim\">COCKTAIL</p>", "conditions": [12, 1600, "v", 12000], "internal_node_id": "0.0-170.0", "trial": 6, "time_elapsed": 1011272, "serialpos": 8, "key_press": -1, "wordID": 337, "type": "PRES_VIS", "trial_index": 233}, "uniqueid": "MTK1622:3DBQWDE4Y756W7ZK7A7EO2C9UR55NL", "dateTime": 1516050399386}, {"current_trial": 234, "trialdata": {"rt": -1, "trial_type": "single-stim", "word": "ankle", "stimulus": "<p id=\"stim\">ANKLE</p>", "conditions": [12, 1600, "v", 12000], "internal_node_id": "0.0-171.0", "trial": 6, "time_elapsed": 1014067, "serialpos": 9, "key_press": -1, "wordID": 23, "type": "PRES_VIS", "trial_index": 234}, "uniqueid": "MTK1622:3DBQWDE4Y756W7ZK7A7EO2C9UR55NL", "dateTime": 1516050402181}, {"current_trial": 235, "trialdata": {"rt": -1, "trial_type": "single-stim", "word": "kleenex", "stimulus": "<p id=\"stim\">KLEENEX</p>", "conditions": [12, 1600, "v", 12000], "internal_node_id": "0.0-172.0", "trial": 6, "time_elapsed": 1016549, "serialpos": 10, "key_press": -1, "wordID": 781, "type": "PRES_VIS", "trial_index": 235}, "uniqueid": "MTK1622:3DBQWDE4Y756W7ZK7A7EO2C9UR55NL", "dateTime": 1516050404663}, {"current_trial": 236, "trialdata": {"rt": -1, "trial_type": "single-stim", "word": "twig", "stimulus": "<p id=\"stim\">TWIG</p>", "conditions": [12, 1600, "v", 12000], "internal_node_id": "0.0-173.0", "trial": 6, "time_elapsed": 1019075, "serialpos": 11, "key_press": -1, "wordID": 1526, "type": "PRES_VIS", "trial_index": 236}, "uniqueid": "MTK1622:3DBQWDE4Y756W7ZK7A7EO2C9UR55NL", "dateTime": 1516050407190}, {"current_trial": 237, "trialdata": {"rt": -1, "trial_type": "single-stim", "stimulus": "", "internal_node_id": "0.0-174.0-0.0", "time_elapsed": 1021135, "key_press": -1, "type": "PRE_RECALL_DELAY", "trial_index": 237}, "uniqueid": "MTK1622:3DBQWDE4Y756W7ZK7A7EO2C9UR55NL", "dateTime": 1516050409249}, {"current_trial": 238, "trialdata": {"rt": -1000, "trial_type": "single-audio", "stimulus": "/static/audio/400Hz.wav", "internal_node_id": "0.0-175.0", "time_elapsed": 1021637, "key_press": -1, "type": "PRE_RECALL_ALERT", "trial_index": 238}, "uniqueid": "MTK1622:3DBQWDE4Y756W7ZK7A7EO2C9UR55NL", "dateTime": 1516050409751}, {"current_trial": 239, "trialdata": {"rt": [1530, 2891, 5070, 6631, 8570, 13085, 15718, 19915, 26117, 38064], "recwords": ["twig", "girl", "princess", "skirt", "piano", "elbow", "sherrif", "xerox", "jury", "elbow"], "key_times": [320, 638, 818, 1071, 1530, 2039, 2248, 2375, 2563, 2891, 3535, 3677, 3892, 4045, 4267, 4401, 4659, 4810, 5070, 5521, 5811, 6025, 6216, 6399, 6631, 7132, 7301, 7492, 7890, 8298, 8570, 9114, 9280, 9615, 12123, 12358, 12634, 12796, 13085, 13374, 13810, 13972, 14613, 14782, 15004, 15153, 15718, 18021, 18259, 18378, 18643, 18828, 19458, 19553, 19915, 21003, 21197, 21321, 22436, 23834, 23981, 24796, 24948, 26117, 36740, 36877, 37179, 37404, 37577, 38064], "trial_type": "free-recall", "conditions": [12, 1600, "v", 12000], "internal_node_id": "0.0-176.0-0.0", "key_presses": [84, 87, 73, 71, 13, 71, 73, 82, 76, 13, 80, 82, 73, 78, 67, 69, 83, 83, 13, 83, 75, 73, 82, 84, 13, 80, 73, 65, 78, 79, 13, 69, 76, 78, 8, 66, 79, 87, 13, 83, 72, 69, 82, 82, 73, 70, 13, 88, 69, 82, 79, 67, 8, 88, 13, 74, 85, 83, 82, 8, 8, 82, 89, 13, 69, 76, 66, 79, 87, 13], "trial": 6, "time_elapsed": 1081642, "type": "FREE_RECALL", "trial_index": 239}, "uniqueid": "MTK1622:3DBQWDE4Y756W7ZK7A7EO2C9UR55NL", "dateTime": 1516050469763}, {"current_trial": 240, "trialdata": {"rt": 20223, "trial_type": "text", "internal_node_id": "0.0-177.0", "time_elapsed": 1103872, "key_press": 13, "type": "INSTRUCTIONS", "trial_index": 240}, "uniqueid": "MTK1622:3DBQWDE4Y756W7ZK7A7EO2C9UR55NL", "dateTime": 1516050491986}, {"current_trial": 241, "trialdata": {"rt": [2308, 4516, 6958, 9551, 11676], "trial_type": "math-distractor", "key_times": [1903, 2124, 2308, 4107, 4286, 4516, 6568, 6757, 6958, 9084, 9347, 9551, 11326, 11494, 11676], "responses": ["18", "19", "18", "16", "22"], "num2": [7, 8, 8, 8, 4, 2], "num3": [9, 3, 5, 1, 9, 2], "conditions": [24, 800, "v", 12000], "internal_node_id": "0.0-178.0", "key_presses": [97, 104, 13, 97, 105, 13, 97, 104, 13, 97, 102, 13, 98, 98, 13], "trial": 7, "time_elapsed": 1117876, "type": "DISTRACTOR", "trial_index": 241, "num1": [2, 8, 5, 7, 9, 4]}, "uniqueid": "MTK1622:3DBQWDE4Y756W7ZK7A7EO2C9UR55NL", "dateTime": 1516050505990}, {"current_trial": 242, "trialdata": {"rt": -1, "trial_type": "single-stim", "stimulus": "<p id=\"stim\">10</p>", "internal_node_id": "0.0-179.0-0.0", "time_elapsed": 1120879, "key_press": -1, "trial_index": 242}, "uniqueid": "MTK1622:3DBQWDE4Y756W7ZK7A7EO2C9UR55NL", "dateTime": 1516050508993}, {"current_trial": 243, "trialdata": {"rt": -1, "trial_type": "single-stim", "stimulus": "<p id=\"stim\">9</p>", "internal_node_id": "0.0-179.0-1.0", "time_elapsed": 1121880, "key_press": -1, "trial_index": 243}, "uniqueid": "MTK1622:3DBQWDE4Y756W7ZK7A7EO2C9UR55NL", "dateTime": 1516050509994}, {"current_trial": 244, "trialdata": {"rt": -1, "trial_type": "single-stim", "stimulus": "<p id=\"stim\">8</p>", "internal_node_id": "0.0-179.0-2.0", "time_elapsed": 1122882, "key_press": -1, "trial_index": 244}, "uniqueid": "MTK1622:3DBQWDE4Y756W7ZK7A7EO2C9UR55NL", "dateTime": 1516050510997}, {"current_trial": 245, "trialdata": {"rt": -1, "trial_type": "single-stim", "stimulus": "<p id=\"stim\">7</p>", "internal_node_id": "0.0-179.0-3.0", "time_elapsed": 1123885, "key_press": -1, "trial_index": 245}, "uniqueid": "MTK1622:3DBQWDE4Y756W7ZK7A7EO2C9UR55NL", "dateTime": 1516050511999}, {"current_trial": 246, "trialdata": {"rt": -1, "trial_type": "single-stim", "stimulus": "<p id=\"stim\">6</p>", "internal_node_id": "0.0-179.0-4.0", "time_elapsed": 1124887, "key_press": -1, "trial_index": 246}, "uniqueid": "MTK1622:3DBQWDE4Y756W7ZK7A7EO2C9UR55NL", "dateTime": 1516050513001}, {"current_trial": 247, "trialdata": {"rt": -1, "trial_type": "single-stim", "stimulus": "<p id=\"stim\">5</p>", "internal_node_id": "0.0-179.0-5.0", "time_elapsed": 1125889, "key_press": -1, "trial_index": 247}, "uniqueid": "MTK1622:3DBQWDE4Y756W7ZK7A7EO2C9UR55NL", "dateTime": 1516050514003}, {"current_trial": 248, "trialdata": {"rt": -1, "trial_type": "single-stim", "stimulus": "<p id=\"stim\">4</p>", "internal_node_id": "0.0-179.0-6.0", "time_elapsed": 1126891, "key_press": -1, "trial_index": 248}, "uniqueid": "MTK1622:3DBQWDE4Y756W7ZK7A7EO2C9UR55NL", "dateTime": 1516050515005}, {"current_trial": 249, "trialdata": {"rt": -1, "trial_type": "single-stim", "stimulus": "<p id=\"stim\">3</p>", "internal_node_id": "0.0-179.0-7.0", "time_elapsed": 1127892, "key_press": -1, "trial_index": 249}, "uniqueid": "MTK1622:3DBQWDE4Y756W7ZK7A7EO2C9UR55NL", "dateTime": 1516050516006}, {"current_trial": 250, "trialdata": {"rt": -1, "trial_type": "single-stim", "stimulus": "<p id=\"stim\">2</p>", "internal_node_id": "0.0-179.0-8.0", "time_elapsed": 1128894, "key_press": -1, "trial_index": 250}, "uniqueid": "MTK1622:3DBQWDE4Y756W7ZK7A7EO2C9UR55NL", "dateTime": 1516050517008}, {"current_trial": 251, "trialdata": {"rt": -1, "trial_type": "single-stim", "stimulus": "<p id=\"stim\">1</p>", "internal_node_id": "0.0-179.0-9.0", "time_elapsed": 1129895, "key_press": -1, "trial_index": 251}, "uniqueid": "MTK1622:3DBQWDE4Y756W7ZK7A7EO2C9UR55NL", "dateTime": 1516050518010}, {"current_trial": 252, "trialdata": {"rt": -1, "trial_type": "single-stim", "stimulus": "<p id=\"stim\">+</p>", "internal_node_id": "0.0-180.0-0.0", "time_elapsed": 1131398, "key_press": -1, "type": "FIXATION", "trial_index": 252}, "uniqueid": "MTK1622:3DBQWDE4Y756W7ZK7A7EO2C9UR55NL", "dateTime": 1516050519512}, {"current_trial": 253, "trialdata": {"rt": -1, "trial_type": "single-stim", "word": "orchid", "stimulus": "<p id=\"stim\">ORCHID</p>", "conditions": [24, 800, "v", 12000], "internal_node_id": "0.0-181.0", "trial": 7, "time_elapsed": 1132200, "serialpos": 0, "key_press": -1, "wordID": 981, "type": "PRES_VIS", "trial_index": 253}, "uniqueid": "MTK1622:3DBQWDE4Y756W7ZK7A7EO2C9UR55NL", "dateTime": 1516050520314}, {"current_trial": 254, "trialdata": {"rt": -1, "trial_type": "single-stim", "word": "lettuce", "stimulus": "<p id=\"stim\">LETTUCE</p>", "conditions": [24, 800, "v", 12000], "internal_node_id": "0