{"assignmentId": "3D3VGR7TA1MOXQ48MY02IPJZGDC3RV", "workerId": "MTK1383", "questiondata": {"origin": "United States", "strat-rehearsal": "0", "marital": "Married/Domestic Partnership", "education": "Associate degree", "ethnicity": "Not Hispanic", "color_depth": 24, "distracted": "No", "wrote-notes": "Yes", "strat-other": "None", "screen_width": 1536, "avail_screen_width": 1536, "avail_screen_height": 824, "strat-image": "84", "language": "english", "gender": "Female", "age": "36", "gender_other": "", "race": ["White"], "strat-categorize": "94", "pixel_depth": 24, "strat-spatial": "68", "strat-story": "100", "race_other": "", "screen_height": 864}, "bonus": 0, "hitId": "389A2A304OPMNCIYVCNM2CQMW020CC", "counterbalance": 2407, "useragent": "Mozilla/5.0 (Windows NT 10.0; Win64; x64) AppleWebKit/537.36 (KHTML, like Gecko) Chrome/63.0.3239.132 Safari/537.36", "eventdata": [{"eventtype": "initialized", "interval": 0, "value": null, "timestamp": 1515867480654}, {"eventtype": "window_resize", "interval": 0, "value": [1540, 816], "timestamp": 1515867480654}, {"eventtype": "focus", "interval": 30954, "value": "off", "timestamp": 1515867511608}, {"eventtype": "focus", "interval": 4598, "value": "on", "timestamp": 1515867516206}, {"eventtype": "focus", "interval": 207220, "value": "off", "timestamp": 1515867723426}, {"eventtype": "focus", "interval": 23561, "value": "on", "timestamp": 1515867746987}, {"eventtype": "focus", "interval": 2028926, "value": "off", "timestamp": 1515869775913}, {"eventtype": "focus", "interval": 18310, "value": "on", "timestamp": 1515869794223}], "data": [{"current_trial": 0, "trialdata": {"rt": 2042, "trial_type": "text", "internal_node_id": "0.0-0.0", "time_elapsed": 2045, "key_press": 13, "type": "INSTRUCTIONS", "trial_index": 0}, "uniqueid": "MTK1383:3D3VGR7TA1MOXQ48MY02IPJZGDC3RV", "dateTime": 1515867494289}, {"current_trial": 1, "trialdata": {"rt": 30134, "trial_type": "text", "internal_node_id": "0.0-1.0", "time_elapsed": 32180, "key_press": 13, "type": "INSTRUCTIONS", "trial_index": 1}, "uniqueid": "MTK1383:3D3VGR7TA1MOXQ48MY02IPJZGDC3RV", "dateTime": 1515867524424}, {"current_trial": 2, "trialdata": {"rt": [13329], "trial_type": "audio-test", "responses": ["ocean"], "internal_node_id": "0.0-2.0", "time_elapsed": 45516, "type": "AUDIO_TEST", "trial_index": 2}, "uniqueid": "MTK1383:3D3VGR7TA1MOXQ48MY02IPJZGDC3RV", "dateTime": 1515867537760}, {"current_trial": 3, "trialdata": {"rt": [10710], "trial_type": "audio-test", "responses": ["crystal"], "internal_node_id": "0.0-3.0", "time_elapsed": 56228, "type": "AUDIO_TEST", "trial_index": 3}, "uniqueid": "MTK1383:3D3VGR7TA1MOXQ48MY02IPJZGDC3RV", "dateTime": 1515867548472}, {"current_trial": 4, "trialdata": {"rt": [12653], "trial_type": "audio-test", "responses": ["spice"], "internal_node_id": "0.0-4.0", "time_elapsed": 68884, "type": "AUDIO_TEST", "trial_index": 4}, "uniqueid": "MTK1383:3D3VGR7TA1MOXQ48MY02IPJZGDC3RV", "dateTime": 1515867561128}, {"current_trial": 5, "trialdata": {"rt": 26558, "trial_type": "survey-text", "responses": "{\"Q0\":\"11:30\",\"Q1\":\"7:00\",\"Q2\":\"4\"}", "internal_node_id": "0.0-5.0", "time_elapsed": 96196, "type": "SLEEP_SURVEY", "trial_index": 5}, "uniqueid": "MTK1383:3D3VGR7TA1MOXQ48MY02IPJZGDC3RV", "dateTime": 1515867588440}, {"current_trial": 6, "trialdata": {"rt": 28614, "trial_type": "text", "internal_node_id": "0.0-6.0", "time_elapsed": 125812, "key_press": 13, "type": "INSTRUCTIONS", "trial_index": 6}, "uniqueid": "MTK1383:3D3VGR7TA1MOXQ48MY02IPJZGDC3RV", "dateTime": 1515867618056}, {"current_trial": 7, "trialdata": {"rt": 15019, "trial_type": "text", "internal_node_id": "0.0-7.0", "time_elapsed": 141332, "key_press": 13, "type": "INSTRUCTIONS", "trial_index": 7}, "uniqueid": "MTK1383:3D3VGR7TA1MOXQ48MY02IPJZGDC3RV", "dateTime": 1515867633576}, {"current_trial": 8, "trialdata": {"rt": 136739, "trial_type": "text", "internal_node_id": "0.0-8.0", "time_elapsed": 278573, "key_press": 13, "type": "INSTRUCTIONS", "trial_index": 8}, "uniqueid": "MTK1383:3D3VGR7TA1MOXQ48MY02IPJZGDC3RV", "dateTime": 1515867770817}, {"current_trial": 9, "trialdata": {"rt": [4697, 7265, 10905, 14513], "trial_type": "math-distractor", "key_times": [4194, 4378, 4697, 6729, 6946, 7265, 9658, 9881, 10905, 13993, 14226, 14513], "responses": ["18", "17", "17", "17"], "num2": [8, 7, 2, 3, 3], "num3": [1, 7, 7, 5, 1], "conditions": [18, 1200, "a", 18000], "internal_node_id": "0.0-9.0", "key_presses": [97, 104, 13, 97, 103, 13, 97, 103, 13, 97, 103, 13], "trial": 0, "time_elapsed": 297581, "type": "DISTRACTOR", "trial_index": 9, "num1": [9, 3, 3, 9, 8]}, "uniqueid": "MTK1383:3D3VGR7TA1MOXQ48MY02IPJZGDC3RV", "dateTime": 1515867789825}, {"current_trial": 10, "trialdata": {"rt": -1, "trial_type": "single-stim", "stimulus": "<p id=\"stim\">10</p>", "internal_node_id": "0.0-10.0-0.0", "time_elapsed": 300584, "key_press": -1, "trial_index": 10}, "uniqueid": "MTK1383:3D3VGR7TA1MOXQ48MY02IPJZGDC3RV", "dateTime": 1515867792828}, {"current_trial": 11, "trialdata": {"rt": -1, "trial_type": "single-stim", "stimulus": "<p id=\"stim\">9</p>", "internal_node_id": "0.0-10.0-1.0", "time_elapsed": 301588, "key_press": -1, "trial_index": 11}, "uniqueid": "MTK1383:3D3VGR7TA1MOXQ48MY02IPJZGDC3RV", "dateTime": 1515867793832}, {"current_trial": 12, "trialdata": {"rt": -1, "trial_type": "single-stim", "stimulus": "<p id=\"stim\">8</p>", "internal_node_id": "0.0-10.0-2.0", "time_elapsed": 302589, "key_press": -1, "trial_index": 12}, "uniqueid": "MTK1383:3D3VGR7TA1MOXQ48MY02IPJZGDC3RV", "dateTime": 1515867794833}, {"current_trial": 13, "trialdata": {"rt": -1, "trial_type": "single-stim", "stimulus": "<p id=\"stim\">7</p>", "internal_node_id": "0.0-10.0-3.0", "time_elapsed": 303590, "key_press": -1, "trial_index": 13}, "uniqueid": "MTK1383:3D3VGR7TA1MOXQ48MY02IPJZGDC3RV", "dateTime": 1515867795834}, {"current_trial": 14, "trialdata": {"rt": -1, "trial_type": "single-stim", "stimulus": "<p id=\"stim\">6</p>", "internal_node_id": "0.0-10.0-4.0", "time_elapsed": 304592, "key_press": -1, "trial_index": 14}, "uniqueid": "MTK1383:3D3VGR7TA1MOXQ48MY02IPJZGDC3RV", "dateTime": 1515867796836}, {"current_trial": 15, "trialdata": {"rt": -1, "trial_type": "single-stim", "stimulus": "<p id=\"stim\">5</p>", "internal_node_id": "0.0-10.0-5.0", "time_elapsed": 305594, "key_press": -1, "trial_index": 15}, "uniqueid": "MTK1383:3D3VGR7TA1MOXQ48MY02IPJZGDC3RV", "dateTime": 1515867797838}, {"current_trial": 16, "trialdata": {"rt": -1, "trial_type": "single-stim", "stimulus": "<p id=\"stim\">4</p>", "internal_node_id": "0.0-10.0-6.0", "time_elapsed": 306595, "key_press": -1, "trial_index": 16}, "uniqueid": "MTK1383:3D3VGR7TA1MOXQ48MY02IPJZGDC3RV", "dateTime": 1515867798839}, {"current_trial": 17, "trialdata": {"rt": -1, "trial_type": "single-stim", "stimulus": "<p id=\"stim\">3</p>", "internal_node_id": "0.0-10.0-7.0", "time_elapsed": 307596, "key_press": -1, "trial_index": 17}, "uniqueid": "MTK1383:3D3VGR7TA1MOXQ48MY02IPJZGDC3RV", "dateTime": 1515867799841}, {"current_trial": 18, "trialdata": {"rt": -1, "trial_type": "single-stim", "stimulus": "<p id=\"stim\">2</p>", "internal_node_id": "0.0-10.0-8.0", "time_elapsed": 308598, "key_press": -1, "trial_index": 18}, "uniqueid": "MTK1383:3D3VGR7TA1MOXQ48MY02IPJZGDC3RV", "dateTime": 1515867800842}, {"current_trial": 19, "trialdata": {"rt": -1, "trial_type": "single-stim", "stimulus": "<p id=\"stim\">1</p>", "internal_node_id": "0.0-10.0-9.0", "time_elapsed": 309600, "key_press": -1, "trial_index": 19}, "uniqueid": "MTK1383:3D3VGR7TA1MOXQ48MY02IPJZGDC3RV", "dateTime": 1515867801844}, {"current_trial": 20, "trialdata": {"rt": -1, "trial_type": "single-stim", "stimulus": "<p id=\"stim\">+</p>", "internal_node_id": "0.0-11.0-0.0", "time_elapsed": 311102, "key_press": -1, "type": "FIXATION", "trial_index": 20}, "uniqueid": "MTK1383:3D3VGR7TA1MOXQ48MY02IPJZGDC3RV", "dateTime": 1515867803346}, {"current_trial": 21, "trialdata": {"rt": -1000, "trial_type": "single-audio", "word": "possum", "stimulus": "/static/audio/wordpool/POSSUM.wav", "conditions": [18, 1200, "a", 18000], "internal_node_id": "0.0-12.0", "trial": 0, "time_elapsed": 313393, "serialpos": 0, "key_press": -1, "wordID": 1111, "type": "PRES_AUD", "trial_index": 21}, "uniqueid": "MTK1383:3D3VGR7TA1MOXQ48MY02IPJZGDC3RV", "dateTime": 1515867805638}, {"current_trial": 22, "trialdata": {"rt": -1000, "trial_type": "single-audio", "word": "tribe", "stimulus": "/static/audio/wordpool/TRIBE.wav", "conditions": [18, 1200, "a", 18000], "internal_node_id": "0.0-13.0", "trial": 0, "time_elapsed": 315777, "serialpos": 1, "key_press": -1, "wordID": 1504, "type": "PRES_AUD", "trial_index": 22}, "uniqueid": "MTK1383:3D3VGR7TA1MOXQ48MY02IPJZGDC3RV", "dateTime": 1515867808021}, {"current_trial": 23, "trialdata": {"rt": -1000, "trial_type": "single-audio", "word": "hound", "stimulus": "/static/audio/wordpool/HOUND.wav", "conditions": [18, 1200, "a", 18000], "internal_node_id": "0.0-14.0", "trial": 0, "time_elapsed": 317813, "serialpos": 2, "key_press": -1, "wordID": 723, "type": "PRES_AUD", "trial_index": 23}, "uniqueid": "MTK1383:3D3VGR7TA1MOXQ48MY02IPJZGDC3RV", "dateTime": 1515867810057}, {"current_trial": 24, "trialdata": {"rt": -1000, "trial_type": "single-audio", "word": "climber", "stimulus": "/static/audio/wordpool/CLIMBER.wav", "conditions": [18, 1200, "a", 18000], "internal_node_id": "0.0-15.0", "trial": 0, "time_elapsed": 319922, "serialpos": 3, "key_press": -1, "wordID": 322, "type": "PRES_AUD", "trial_index": 24}, "uniqueid": "MTK1383:3D3VGR7TA1MOXQ48MY02IPJZGDC3RV", "dateTime": 1515867812166}, {"current_trial": 25, "trialdata": {"rt": -1000, "trial_type": "single-audio", "word": "goblin", "stimulus": "/static/audio/wordpool/GOBLIN.wav", "conditions": [18, 1200, "a", 18000], "internal_node_id": "0.0-16.0", "trial": 0, "time_elapsed": 322317, "serialpos": 4, "key_press": -1, "wordID": 644, "type": "PRES_AUD", "trial_index": 25}, "uniqueid": "MTK1383:3D3VGR7TA1MOXQ48MY02IPJZGDC3RV", "dateTime": 1515867814561}, {"current_trial": 26, "trialdata": {"rt": -1000, "trial_type": "single-audio", "word": "silk", "stimulus": "/static/audio/wordpool/SILK.wav", "conditions": [18, 1200, "a", 18000], "internal_node_id": "0.0-17.0", "trial": 0, "time_elapsed": 324631, "serialpos": 5, "key_press": -1, "wordID": 1306, "type": "PRES_AUD", "trial_index": 26}, "uniqueid": "MTK1383:3D3VGR7TA1MOXQ48MY02IPJZGDC3RV", "dateTime": 1515867816875}, {"current_trial": 27, "trialdata": {"rt": -1000, "trial_type": "single-audio", "word": "neutron", "stimulus": "/static/audio/wordpool/NEUTRON.wav", "conditions": [18, 1200, "a", 18000], "internal_node_id": "0.0-18.0", "trial": 0, "time_elapsed": 326746, "serialpos": 6, "key_press": -1, "wordID": 946, "type": "PRES_AUD", "trial_index": 27}, "uniqueid": "MTK1383:3D3VGR7TA1MOXQ48MY02IPJZGDC3RV", "dateTime": 1515867818990}, {"current_trial": 28, "trialdata": {"rt": -1000, "trial_type": "single-audio", "word": "briefcase", "stimulus": "/static/audio/wordpool/BRIEFCASE.wav", "conditions": [18, 1200, "a", 18000], "internal_node_id": "0.0-19.0", "trial": 0, "time_elapsed": 328823, "serialpos": 7, "key_press": -1, "wordID": 174, "type": "PRES_AUD", "trial_index": 28}, "uniqueid": "MTK1383:3D3VGR7TA1MOXQ48MY02IPJZGDC3RV", "dateTime": 1515867821067}, {"current_trial": 29, "trialdata": {"rt": -1000, "trial_type": "single-audio", "word": "spouse", "stimulus": "/static/audio/wordpool/SPOUSE.wav", "conditions": [18, 1200, "a", 18000], "internal_node_id": "0.0-20.0", "trial": 0, "time_elapsed": 331223, "serialpos": 8, "key_press": -1, "wordID": 1357, "type": "PRES_AUD", "trial_index": 29}, "uniqueid": "MTK1383:3D3VGR7TA1MOXQ48MY02IPJZGDC3RV", "dateTime": 1515867823467}, {"current_trial": 30, "trialdata": {"rt": -1000, "trial_type": "single-audio", "word": "slime", "stimulus": "/static/audio/wordpool/SLIME.wav", "conditions": [18, 1200, "a", 18000], "internal_node_id": "0.0-21.0", "trial": 0, "time_elapsed": 333430, "serialpos": 9, "key_press": -1, "wordID": 1326, "type": "PRES_AUD", "trial_index": 30}, "uniqueid": "MTK1383:3D3VGR7TA1MOXQ48MY02IPJZGDC3RV", "dateTime": 1515867825674}, {"current_trial": 31, "trialdata": {"rt": -1000, "trial_type": "single-audio", "word": "mildew", "stimulus": "/static/audio/wordpool/MILDEW.wav", "conditions": [18, 1200, "a", 18000], "internal_node_id": "0.0-22.0", "trial": 0, "time_elapsed": 335555, "serialpos": 10, "key_press": -1, "wordID": 892, "type": "PRES_AUD", "trial_index": 31}, "uniqueid": "MTK1383:3D3VGR7TA1MOXQ48MY02IPJZGDC3RV", "dateTime": 1515867827799}, {"current_trial": 32, "trialdata": {"rt": -1000, "trial_type": "single-audio", "word": "plaid", "stimulus": "/static/audio/wordpool/PLAID.wav", "conditions": [18, 1200, "a", 18000], "internal_node_id": "0.0-23.0", "trial": 0, "time_elapsed": 337626, "serialpos": 11, "key_press": -1, "wordID": 1079, "type": "PRES_AUD", "trial_index": 32}, "uniqueid": "MTK1383:3D3VGR7TA1MOXQ48MY02IPJZGDC3RV", "dateTime": 1515867829870}, {"current_trial": 33, "trialdata": {"rt": -1000, "trial_type": "single-audio", "word": "snake", "stimulus": "/static/audio/wordpool/SNAKE.wav", "conditions": [18, 1200, "a", 18000], "internal_node_id": "0.0-24.0", "trial": 0, "time_elapsed": 339827, "serialpos": 12, "key_press": -1, "wordID": 1332, "type": "PRES_AUD", "trial_index": 33}, "uniqueid": "MTK1383:3D3VGR7TA1MOXQ48MY02IPJZGDC3RV", "dateTime": 1515867832071}, {"current_trial": 34, "trialdata": {"rt": -1000, "trial_type": "single-audio", "word": "wrist", "stimulus": "/static/audio/wordpool/WRIST.wav", "conditions": [18, 1200, "a", 18000], "internal_node_id": "0.0-25.0", "trial": 0, "time_elapsed": 341927, "serialpos": 13, "key_press": -1, "wordID": 1625, "type": "PRES_AUD", "trial_index": 34}, "uniqueid": "MTK1383:3D3VGR7TA1MOXQ48MY02IPJZGDC3RV", "dateTime": 1515867834171}, {"current_trial": 35, "trialdata": {"rt": -1000, "trial_type": "single-audio", "word": "robot", "stimulus": "/static/audio/wordpool/ROBOT.wav", "conditions": [18, 1200, "a", 18000], "internal_node_id": "0.0-26.0", "trial": 0, "time_elapsed": 343999, "serialpos": 14, "key_press": -1, "wordID": 1199, "type": "PRES_AUD", "trial_index": 35}, "uniqueid": "MTK1383:3D3VGR7TA1MOXQ48MY02IPJZGDC3RV", "dateTime": 1515867836243}, {"current_trial": 36, "trialdata": {"rt": -1000, "trial_type": "single-audio", "word": "soda", "stimulus": "/static/audio/wordpool/SODA.wav", "conditions": [18, 1200, "a", 18000], "internal_node_id": "0.0-27.0", "trial": 0, "time_elapsed": 346160, "serialpos": 15, "key_press": -1, "wordID": 1340, "type": "PRES_AUD", "trial_index": 36}, "uniqueid": "MTK1383:3D3VGR7TA1MOXQ48MY02IPJZGDC3RV", "dateTime": 1515867838405}, {"current_trial": 37, "trialdata": {"rt": -1000, "trial_type": "single-audio", "word": "marrow", "stimulus": "/static/audio/wordpool/MARROW.wav", "conditions": [18, 1200, "a", 18000], "internal_node_id": "0.0-28.0", "trial": 0, "time_elapsed": 348334, "serialpos": 16, "key_press": -1, "wordID": 871, "type": "PRES_AUD", "trial_index": 37}, "uniqueid": "MTK1383:3D3VGR7TA1MOXQ48MY02IPJZGDC3RV", "dateTime": 1515867840578}, {"current_trial": 38, "trialdata": {"rt": -1000, "trial_type": "single-audio", "word": "ointment", "stimulus": "/static/audio/wordpool/OINTMENT.wav", "conditions": [18, 1200, "a", 18000], "internal_node_id": "0.0-29.0", "trial": 0, "time_elapsed": 350555, "serialpos": 17, "key_press": -1, "wordID": 973, "type": "PRES_AUD", "trial_index": 38}, "uniqueid": "MTK1383:3D3VGR7TA1MOXQ48MY02IPJZGDC3RV", "dateTime": 1515867842799}, {"current_trial": 39, "trialdata": {"rt": -1, "trial_type": "single-stim", "stimulus": "", "internal_node_id": "0.0-30.0-0.0", "time_elapsed": 351909, "key_press": -1, "type": "PRE_RECALL_DELAY", "trial_index": 39}, "uniqueid": "MTK1383:3D3VGR7TA1MOXQ48MY02IPJZGDC3RV", "dateTime": 1515867844153}, {"current_trial": 40, "trialdata": {"rt": -1000, "trial_type": "single-audio", "stimulus": "/static/audio/400Hz.wav", "internal_node_id": "0.0-31.0", "time_elapsed": 352410, "key_press": -1, "type": "PRE_RECALL_ALERT", "trial_index": 40}, "uniqueid": "MTK1383:3D3VGR7TA1MOXQ48MY02IPJZGDC3RV", "dateTime": 1515867844655}, {"current_trial": 41, "trialdata": {"rt": [7967, 11072, 13224, 18944, 23095, 27560, 32112, 36640, 41784, 44840, 48232, 54320, 59624], "recwords": ["opossum", "goblin", "silk", "neutron", "breifcase", "spouse", "slime", "mildew", "snake", "wrist", "robot", "soda", "ointment"], "key_times": [3578, 3600, 4385, 4449, 5785, 6129, 6296, 6393, 6649, 7967, 9064, 9257, 9521, 9744, 10033, 10193, 11072, 11856, 11977, 12065, 12289, 13224, 13794, 14104, 14377, 14577, 14777, 14944, 14960, 15088, 16385, 16530, 17738, 18944, 20602, 20777, 20904, 21136, 21489, 22025, 22353, 22377, 22577, 23095, 24880, 25081, 25265, 25289, 26231, 26864, 27065, 27218, 27560, 30145, 30297, 30521, 30713, 30880, 32112, 35338, 35569, 35777, 36016, 36208, 36409, 36640, 39945, 40177, 40665, 41057, 41233, 41385, 41496, 41784, 43272, 43546, 43705, 44167, 44330, 44840, 46930, 47073, 47385, 47840, 48073, 48232, 50489, 50681, 50857, 51697, 52417, 52872, 53042, 53274, 54320, 54896, 55042, 56049, 56249, 57912, 58136, 58369, 58585, 58713, 58848, 59008, 59144, 59624], "trial_type": "free-recall", "conditions": [18, 1200, "a", 18000], "internal_node_id": "0.0-32.0-0.0", "key_presses": [16, 17, 79, 80, 79, 83, 83, 85, 77, 13, 71, 79, 66, 76, 73, 78, 13, 83, 73, 76, 75, 13, 78, 69, 85, 84, 82, 79, 73, 78, 8, 8, 78, 13, 66, 82, 69, 73, 70, 67, 65, 83, 69, 13, 83, 80, 79, 73, 8, 85, 83, 69, 13, 83, 76, 73, 77, 69, 13, 77, 73, 76, 68, 69, 87, 13, 83, 66, 8, 78, 65, 75, 69, 13, 87, 82, 73, 83, 84, 13, 82, 79, 66, 79, 84, 13, 83, 79, 65, 83, 8, 8, 68, 65, 13, 77, 65, 8, 8, 79, 73, 78, 84, 77, 69, 78, 84, 13], "trial": 0, "time_elapsed": 412414, "type": "FREE_RECALL", "trial_index": 41}, "uniqueid": "MTK1383:3D3VGR7TA1MOXQ48MY02IPJZGDC3RV", "dateTime": 1515867904662}, {"current_trial": 42, "trialdata": {"rt": 6641, "trial_type": "text", "internal_node_id": "0.0-33.0", "time_elapsed": 421060, "key_press": 13, "type": "INSTRUCTIONS", "trial_index": 42}, "uniqueid": "MTK1383:3D3VGR7TA1MOXQ48MY02IPJZGDC3RV", "dateTime": 1515867913304}, {"current_trial": 43, "trialdata": {"rt": [4940, 7877, 10629, 13517, 15893], "trial_type": "math-distractor", "key_times": [4325, 4518, 4940, 7368, 7534, 7877, 10232, 10325, 10629, 12894, 13070, 13517, 15444, 15469, 15506, 15893], "responses": ["16", "10", "15", "18", "145"], "num2": [1, 5, 1, 8, 7, 9], "num3": [8, 3, 7, 3, 7, 9], "conditions": [18, 1200, "a", 18000], "internal_node_id": "0.0-34.0", "key_presses": [97, 102, 13, 97, 96, 13, 97, 101, 13, 97, 104, 13, 97, 100, 101, 13], "trial": 1, "time_elapsed": 441066, "type": "DISTRACTOR", "trial_index": 43, "num1": [7, 2, 7, 7, 1, 3]}, "uniqueid": "MTK1383:3D3VGR7TA1MOXQ48MY02IPJZGDC3RV", "dateTime": 1515867933310}, {"current_trial": 44, "trialdata": {"rt": -1, "trial_type": "single-stim", "stimulus": "<p id=\"stim\">10</p>", "internal_node_id": "0.0-35.0-0.0", "time_elapsed": 444069, "key_press": -1, "trial_index": 44}, "uniqueid": "MTK1383:3D3VGR7TA1MOXQ48MY02IPJZGDC3RV", "dateTime": 1515867936314}, {"current_trial": 45, "trialdata": {"rt": -1, "trial_type": "single-stim", "stimulus": "<p id=\"stim\">9</p>", "internal_node_id": "0.0-35.0-1.0", "time_elapsed": 445071, "key_press": -1, "trial_index": 45}, "uniqueid": "MTK1383:3D3VGR7TA1MOXQ48MY02IPJZGDC3RV", "dateTime": 1515867937315}, {"current_trial": 46, "trialdata": {"rt": -1, "trial_type": "single-stim", "stimulus": "<p id=\"stim\">8</p>", "internal_node_id": "0.0-35.0-2.0", "time_elapsed": 446072, "key_press": -1, "trial_index": 46}, "uniqueid": "MTK1383:3D3VGR7TA1MOXQ48MY02IPJZGDC3RV", "dateTime": 1515867938316}, {"current_trial": 47, "trialdata": {"rt": -1, "trial_type": "single-stim", "stimulus": "<p id=\"stim\">7</p>", "internal_node_id": "0.0-35.0-3.0", "time_elapsed": 447073, "key_press": -1, "trial_index": 47}, "uniqueid": "MTK1383:3D3VGR7TA1MOXQ48MY02IPJZGDC3RV", "dateTime": 1515867939318}, {"current_trial": 48, "trialdata": {"rt": -1, "trial_type": "single-stim", "stimulus": "<p id=\"stim\">6</p>", "internal_node_id": "0.0-35.0-4.0", "time_elapsed": 448075, "key_press": -1, "trial_index": 48}, "uniqueid": "MTK1383:3D3VGR7TA1MOXQ48MY02IPJZGDC3RV", "dateTime": 1515867940320}, {"current_trial": 49, "trialdata": {"rt": -1, "trial_type": "single-stim", "stimulus": "<p id=\"stim\">5</p>", "internal_node_id": "0.0-35.0-5.0", "time_elapsed": 449077, "key_press": -1, "trial_index": 49}, "uniqueid": "MTK1383:3D3VGR7TA1MOXQ48MY02IPJZGDC3RV", "dateTime": 1515867941321}, {"current_trial": 50, "trialdata": {"rt": -1, "trial_type": "single-stim", "stimulus": "<p id=\"stim\">4</p>", "internal_node_id": "0.0-35.0-6.0", "time_elapsed": 450079, "key_press": -1, "trial_index": 50}, "uniqueid": "MTK1383:3D3VGR7TA1MOXQ48MY02IPJZGDC3RV", "dateTime": 1515867942323}, {"current_trial": 51, "trialdata": {"rt": -1, "trial_type": "single-stim", "stimulus": "<p id=\"stim\">3</p>", "internal_node_id": "0.0-35.0-7.0", "time_elapsed": 451081, "key_press": -1, "trial_index": 51}, "uniqueid": "MTK1383:3D3VGR7TA1MOXQ48MY02IPJZGDC3RV", "dateTime": 1515867943325}, {"current_trial": 52, "trialdata": {"rt": -1, "trial_type": "single-stim", "stimulus": "<p id=\"stim\">2</p>", "internal_node_id": "0.0-35.0-8.0", "time_elapsed": 452083, "key_press": -1, "trial_index": 52}, "uniqueid": "MTK1383:3D3VGR7TA1MOXQ48MY02IPJZGDC3RV", "dateTime": 1515867944327}, {"current_trial": 53, "trialdata": {"rt": -1, "trial_type": "single-stim", "stimulus": "<p id=\"stim\">1</p>", "internal_node_id": "0.0-35.0-9.0", "time_elapsed": 453086, "key_press": -1, "trial_index": 53}, "uniqueid": "MTK1383:3D3VGR7TA1MOXQ48MY02IPJZGDC3RV", "dateTime": 1515867945331}, {"current_trial": 54, "trialdata": {"rt": -1, "trial_type": "single-stim", "stimulus": "<p id=\"stim\">+</p>", "internal_node_id": "0.0-36.0-0.0", "time_elapsed": 454590, "key_press": -1, "type": "FIXATION", "trial_index": 54}, "uniqueid": "MTK1383:3D3VGR7TA1MOXQ48MY02IPJZGDC3RV", "dateTime": 1515867946834}, {"current_trial": 55, "trialdata": {"rt": -1000, "trial_type": "single-audio", "word": "hatchet", "stimulus": "/static/audio/wordpool/HATCHET.wav", "conditions": [18, 1200, "a", 18000], "internal_node_id": "0.0-37.0", "trial": 1, "time_elapsed": 456636, "serialpos": 0, "key_press": -1, "wordID": 690, "type": "PRES_AUD", "trial_index": 55}, "uniqueid": "MTK1383:3D3VGR7TA1MOXQ48MY02IPJZGDC3RV", "dateTime": 1515867948880}, {"current_trial": 56, "trialdata": {"rt": -1000, "trial_type": "single-audio", "word": "passage", "stimulus": "/static/audio/wordpool/PASSAGE.wav", "conditions": [18, 1200, "a", 18000], "internal_node_id": "0.0-38.0", "trial": 1, "time_elapsed": 459029, "serialpos": 1, "key_press": -1, "wordID": 1018, "type": "PRES_AUD", "trial_index": 56}, "uniqueid": "MTK1383:3D3VGR7TA1MOXQ48MY02IPJZGDC3RV", "dateTime": 1515867951274}, {"current_trial": 57, "trialdata": {"rt": -1000, "trial_type": "single-audio", "word": "creature", "stimulus": "/static/audio/wordpool/CREATURE.wav", "conditions": [18, 1200, "a", 18000], "internal_node_id": "0.0-39.0", "trial": 1, "time_elapsed": 461050, "serialpos": 2, "key_press": -1, "wordID": 402, "type": "PRES_AUD", "trial_index": 57}, "uniqueid": "MTK1383:3D3VGR7TA1MOXQ48MY02IPJZGDC3RV", "dateTime": 1515867953294}, {"current_trial": 58, "trialdata": {"rt": -1000, "trial_type": "single-audio", "word": "postage", "stimulus": "/static/audio/wordpool/POSTAGE.wav", "conditions": [18, 1200, "a", 18000], "internal_node_id": "0.0-40.0", "trial": 1, "time_elapsed": 463336, "serialpos": 3, "key_press": -1, "wordID": 1112, "type": "PRES_AUD", "trial_index": 58}, "uniqueid": "MTK1383:3D3VGR7TA1MOXQ48MY02IPJZGDC3RV", "dateTime": 1515867955580}, {"current_trial": 59, "trialdata": {"rt": -1000, "trial_type": "single-audio", "word": "trout", "stimulus": "/static/audio/wordpool/TROUT.wav", "conditions": [18, 1200, "a", 18000], "internal_node_id": "0.0-41.0", "trial": 1, "time_elapsed": 465426, "serialpos": 4, "key_press": -1, "wordID": 1510, "type": "PRES_AUD", "trial_index": 59}, "uniqueid": "MTK1383:3D3VGR7TA1MOXQ48MY02IPJZGDC3RV", "dateTime": 1515867957670}, {"current_trial": 60, "trialdata": {"rt": -1000, "trial_type": "single-audio", "word": "slope", "stimulus": "/static/audio/wordpool/SLOPE.wav", "conditions": [18, 1200, "a", 18000], "internal_node_id": "0.0-42.0", "trial": 1, "time_elapsed": 467827, "serialpos": 5, "key_press": -1, "wordID": 1327, "type": "PRES_AUD", "trial_index": 60}, "uniqueid": "MTK1383:3D3VGR7TA1MOXQ48MY02IPJZGDC3RV", "dateTime": 1515867960071}, {"current_trial": 61, "trialdata": {"rt": -1000, "trial_type": "single-audio", "word": "flask", "stimulus": "/static/audio/wordpool/FLASK.wav", "conditions": [18, 1200, "a", 18000], "internal_node_id": "0.0-43.0", "trial": 1, "time_elapsed": 469873, "serialpos": 6, "key_press": -1, "wordID": 575, "type": "PRES_AUD", "trial_index": 61}, "uniqueid": "MTK1383:3D3VGR7TA1MOXQ48MY02IPJZGDC3RV", "dateTime": 1515867962117}, {"current_trial": 62, "trialdata": {"rt": -1000, "trial_type": "single-audio", "word": "critic", "stimulus": "/static/audio/wordpool/CRITIC.wav", "conditions": [18, 1200, "a", 18000], "internal_node_id": "0.0-44.0", "trial": 1, "time_elapsed": 472130, "serialpos": 7, "key_press": -1, "wordID": 409, "type": "PRES_AUD", "trial_index": 62}, "uniqueid": "MTK1383:3D3VGR7TA1MOXQ48MY02IPJZGDC3RV", "dateTime": 1515867964374}, {"current_trial": 63, "trialdata": {"rt": -1000, "trial_type": "single-audio", "word": "contract", "stimulus": "/static/audio/wordpool/CONTRACT.wav", "conditions": [18, 1200, "a", 18000], "internal_node_id": "0.0-45.0", "trial": 1, "time_elapsed": 474297, "serialpos": 8, "key_press": -1, "wordID": 367, "type": "PRES_AUD", "trial_index": 63}, "uniqueid": "MTK1383:3D3VGR7TA1MOXQ48MY02IPJZGDC3RV", "dateTime": 1515867966542}, {"current_trial": 64, "trialdata": {"rt": -1000, "trial_type": "single-audio", "word": "award", "stimulus": "/static/audio/wordpool/AWARD.wav", "conditions": [18, 1200, "a", 18000], "internal_node_id": "0.0-46.0", "trial": 1, "time_elapsed": 476465, "serialpos": 9, "key_press": -1, "wordID": 62, "type": "PRES_AUD", "trial_index": 64}, "uniqueid": "MTK1383:3D3VGR7TA1MOXQ48MY02IPJZGDC3RV", "dateTime": 1515867968709}, {"current_trial": 65, "trialdata": {"rt": -1000, "trial_type": "single-audio", "word": "glass", "stimulus": "/static/audio/wordpool/GLASS.wav", "conditions": [18, 1200, "a", 18000], "internal_node_id": "0.0-47.0", "trial": 1, "time_elapsed": 478840, "serialpos": 10, "key_press": -1, "wordID": 638, "type": "PRES_AUD", "trial_index": 65}, "uniqueid": "MTK1383:3D3VGR7TA1MOXQ48MY02IPJZGDC3RV", "dateTime": 1515867971085}, {"current_trial": 66, "trialdata": {"rt": -1000, "trial_type": "single-audio", "word": "lily", "stimulus": "/static/audio/wordpool/LILY.wav", "conditions": [18, 1200, "a", 18000], "internal_node_id": "0.0-48.0", "trial": 1, "time_elapsed": 480927, "serialpos": 11, "key_press": -1, "wordID": 820, "type": "PRES_AUD", "trial_index": 66}, "uniqueid": "MTK1383:3D3VGR7TA1MOXQ48MY02IPJZGDC3RV", "dateTime": 1515867973171}, {"current_trial": 67, "trialdata": {"rt": -1000, "trial_type": "single-audio", "word": "garbage", "stimulus": "/static/audio/wordpool/GARBAGE.wav", "conditions": [18, 1200, "a", 18000], "internal_node_id": "0.0-49.0", "trial": 1, "time_elapsed": 483029, "serialpos": 12, "key_press": -1, "wordID": 621, "type": "PRES_AUD", "trial_index": 67}, "uniqueid": "MTK1383:3D3VGR7TA1MOXQ48MY02IPJZGDC3RV", "dateTime": 1515867975273}, {"current_trial": 68, "trialdata": {"rt": -1000, "trial_type": "single-audio", "word": "captive", "stimulus": "/static/audio/wordpool/CAPTIVE.wav", "conditions": [18, 1200, "a", 18000], "internal_node_id": "0.0-50.0", "trial": 1, "time_elapsed": 485409, "serialpos": 13, "key_press": -1, "wordID": 239, "type": "PRES_AUD", "trial_index": 68}, "uniqueid": "MTK1383:3D3VGR7TA1MOXQ48MY02IPJZGDC3RV", "dateTime": 1515867977657}, {"current_trial": 69, "trialdata": {"rt": -1000, "trial_type": "single-audio", "word": "empire", "stimulus": "/static/audio/wordpool/EMPIRE.wav", "conditions": [18, 1200, "a", 18000], "internal_node_id": "0.0-51.0", "trial": 1, "time_elapsed": 487463, "serialpos": 14, "key_press": -1, "wordID": 529, "type": "PRES_AUD", "trial_index": 69}, "uniqueid": "MTK1383:3D3VGR7TA1MOXQ48MY02IPJZGDC3RV", "dateTime": 1515867979708}, {"current_trial": 70, "trialdata": {"rt": -1000, "trial_type": "single-audio", "word": "infant", "stimulus": "/static/audio/wordpool/INFANT.wav", "conditions": [18, 1200, "a", 18000], "internal_node_id": "0.0-52.0", "trial": 1, "time_elapsed": 489802, "serialpos": 15, "key_press": -1, "wordID": 736, "type": "PRES_AUD", "trial_index": 70}, "uniqueid": "MTK1383:3D3VGR7TA1MOXQ48MY02IPJZGDC3RV", "dateTime": 1515867982046}, {"current_trial": 71, "trialdata": {"rt": -1000, "trial_type": "single-audio", "word": "twister", "stimulus": "/static/audio/wordpool/TWISTER.wav", "conditions": [18, 1200, "a", 18000], "internal_node_id": "0.0-53.0", "trial": 1, "time_elapsed": 492081, "serialpos": 16, "key_press": -1, "wordID": 1529, "type": "PRES_AUD", "trial_index": 71}, "uniqueid": "MTK1383:3D3VGR7TA1MOXQ48MY02IPJZGDC3RV", "dateTime": 1515867984325}, {"current_trial": 72, "trialdata": {"rt": -1000, "trial_type": "single-audio", "word": "marsh", "stimulus": "/static/audio/wordpool/MARSH.wav", "conditions": [18, 1200, "a", 18000], "internal_node_id": "0.0-54.0", "trial": 1, "time_elapsed": 494222, "serialpos": 17, "key_press": -1, "wordID": 873, "type": "PRES_AUD", "trial_index": 72}, "uniqueid": "MTK1383:3D3VGR7TA1MOXQ48MY02IPJZGDC3RV", "dateTime": 1515867986466}, {"current_trial": 73, "trialdata": {"rt": -1, "trial_type": "single-stim", "stimulus": "", "internal_node_id": "0.0-55.0-0.0", "time_elapsed": 495448, "key_press": -1, "type": "PRE_RECALL_DELAY", "trial_index": 73}, "uniqueid": "MTK1383:3D3VGR7TA1MOXQ48MY02IPJZGDC3RV", "dateTime": 1515867987693}, {"current_trial": 74, "trialdata": {"rt": -1000, "trial_type": "single-audio", "stimulus": "/static/audio/400Hz.wav", "internal_node_id": "0.0-56.0", "time_elapsed": 495950, "key_press": -1, "type": "PRE_RECALL_ALERT", "trial_index": 74}, "uniqueid": "MTK1383:3D3VGR7TA1MOXQ48MY02IPJZGDC3RV", "dateTime": 1515867988195}, {"current_trial": 75, "trialdata": {"rt": [6171, 11075, 14251, 17643, 21299, 23763, 27835, 31299, 34707, 40451, 44947, 50443, 54715, 58595], "recwords": ["", "march", "twister", "infant", "captive", "lily", "glass", "critic", "trout", "hatchet", "award", "garbage", "passage", "slope"], "key_times": [3477, 5748, 6171, 7963, 8148, 8669, 9275, 9396, 11075, 12211, 12509, 12861, 13098, 13284, 13476, 13587, 14251, 14708, 14860, 15116, 15211, 15372, 15667, 16316, 16460, 17643, 19468, 19628, 19788, 20195, 20365, 20676, 20813, 21299, 22645, 22813, 22988, 23308, 23763, 26372, 26516, 26620, 26813, 27108, 27835, 29619, 29931, 30187, 30316, 30531, 30812, 31299, 33837, 34012, 34148, 34268, 34461, 34707, 37604, 37742, 38342, 38828, 38980, 39915, 40125, 40451, 43644, 43845, 43997, 44485, 44725, 44947, 48813, 49039, 49252, 49717, 49845, 50021, 50204, 50443, 52491, 52957, 53388, 53524, 53668, 53844, 54005, 54715, 57693, 57820, 58069, 58163, 58332, 58595], "trial_type": "free-recall", "conditions": [18, 1200, "a", 18000], "internal_node_id": "0.0-57.0-0.0", "key_presses": [120, 17, 13, 77, 65, 82, 67, 72, 13, 84, 87, 73, 83, 84, 69, 82, 13, 73, 78, 70, 65, 78, 82, 8, 84, 13, 67, 65, 80, 84, 73, 86, 69, 13, 76, 73, 76, 89, 13, 71, 76, 65, 83, 83, 13, 67, 82, 73, 84, 73, 67, 13, 84, 82, 79, 85, 84, 13, 72, 65, 84, 67, 72, 69, 84, 13, 65, 87, 65, 82, 68, 13, 71, 65, 82, 66, 65, 71, 69, 13, 80, 65, 83, 83, 65, 71, 69, 13, 83, 76, 79, 80, 69, 13], "trial": 1, "time_elapsed": 555955, "type": "FREE_RECALL", "trial_index": 75}, "uniqueid": "MTK1383:3D3VGR7TA1MOXQ48MY02IPJZGDC3RV", "dateTime": 1515868048202}, {"current_trial": 76, "trialdata": {"rt": 2469, "trial_type": "text", "internal_node_id": "0.0-58.0", "time_elapsed": 560429, "key_press": 13, "type": "INSTRUCTIONS", "trial_index": 76}, "uniqueid": "MTK1383:3D3VGR7TA1MOXQ48MY02IPJZGDC3RV", "dateTime": 1515868052673}, {"current_trial": 77, "trialdata": {"rt": [5988, 7917, 11460, 14012, 16020, 18084, 19916, 22116], "trial_type": "math-distractor", "key_times": [3964, 4173, 5988, 7302, 7406, 7917, 10880, 11046, 11460, 13652, 13773, 14012, 15653, 15821, 16020, 17893, 18084, 19549, 19661, 19916, 21918, 22116], "responses": ["18", "12", "14", "15", "14", "6", "12", "6"], "num2": [3, 1, 6, 1, 4, 1, 1, 1, 9], "num3": [9, 2, 5, 8, 7, 3, 2, 3, 3], "conditions": [24, 1600, "a", 24000], "internal_node_id": "0.0-59.0", "key_presses": [97, 104, 13, 97, 98, 13, 97, 100, 13, 97, 101, 13, 97, 100, 13, 102, 13, 97, 98, 13, 102, 13], "trial": 2, "time_elapsed": 585434, "type": "DISTRACTOR", "trial_index": 77, "num1": [6, 9, 3, 6, 3, 2, 9, 2, 5]}, "uniqueid": "MTK1383:3D3VGR7TA1MOXQ48MY02IPJZGDC3RV", "dateTime": 1515868077678}, {"current_trial": 78, "trialdata": {"rt": -1, "trial_type": "single-stim", "stimulus": "<p id=\"stim\">10</p>", "internal_node_id": "0.0-60.0-0.0", "time_elapsed": 588437, "key_press": -1, "trial_index": 78}, "uniqueid": "MTK1383:3D3VGR7TA1MOXQ48MY02IPJZGDC3RV", "dateTime": 1515868080681}, {"current_trial": 79, "trialdata": {"rt": -1, "trial_type": "single-stim", "stimulus": "<p id=\"stim\">9</p>", "internal_node_id": "0.0-60.0-1.0", "time_elapsed": 589439, "key_press": -1, "trial_index": 79}, "uniqueid": "MTK1383:3D3VGR7TA1MOXQ48MY02IPJZGDC3RV", "dateTime": 1515868081683}, {"current_trial": 80, "trialdata": {"rt": -1, "trial_type": "single-stim", "stimulus": "<p id=\"stim\">8</p>", "internal_node_id": "0.0-60.0-2.0", "time_elapsed": 590442, "key_press": -1, "trial_index": 80}, "uniqueid": "MTK1383:3D3VGR7TA1MOXQ48MY02IPJZGDC3RV", "dateTime": 1515868082687}, {"current_trial": 81, "trialdata": {"rt": -1, "trial_type": "single-stim", "stimulus": "<p id=\"stim\">7</p>", "internal_node_id": "0.0-60.0-3.0", "time_elapsed": 591444, "key_press": -1, "trial_index": 81}, "uniqueid": "MTK1383:3D3VGR7TA1MOXQ48MY02IPJZGDC3RV", "dateTime": 1515868083688}, {"current_trial": 82, "trialdata": {"rt": -1, "trial_type": "single-stim", "stimulus": "<p id=\"stim\">6</p>", "internal_node_id": "0.0-60.0-4.0", "time_elapsed": 592446, "key_press": -1, "trial_index": 82}, "uniqueid": "MTK1383:3D3VGR7TA1MOXQ48MY02IPJZGDC3RV", "dateTime": 1515868084690}, {"current_trial": 83, "trialdata": {"rt": -1, "trial_type": "single-stim", "stimulus": "<p id=\"stim\">5</p>", "internal_node_id": "0.0-60.0-5.0", "time_elapsed": 593449, "key_press": -1, "trial_index": 83}, "uniqueid": "MTK1383:3D3VGR7TA1MOXQ48MY02IPJZGDC3RV", "dateTime": 1515868085693}, {"current_trial": 84, "trialdata": {"rt": -1, "trial_type": "single-stim", "stimulus": "<p id=\"stim\">4</p>", "internal_node_id": "0.0-60.0-6.0", "time_elapsed": 594451, "key_press": -1, "trial_index": 84}, "uniqueid": "MTK1383:3D3VGR7TA1MOXQ48MY02IPJZGDC3RV", "dateTime": 1515868086695}, {"current_trial": 85, "trialdata": {"rt": -1, "trial_type": "single-stim", "stimulus": "<p id=\"stim\">3</p>", "internal_node_id": "0.0-60.0-7.0", "time_elapsed": 595452, "key_press": -1, "trial_index": 85}, "uniqueid": "MTK1383:3D3VGR7TA1MOXQ48MY02IPJZGDC3RV", "dateTime": 1515868087696}, {"current_trial": 86, "trialdata": {"rt": -1, "trial_type": "single-stim", "stimulus": "<p id=\"stim\">2</p>", "internal_node_id": "0.0-60.0-8.0", "time_elapsed": 596453, "key_press": -1, "trial_index": 86}, "uniqueid": "MTK1383:3D3VGR7TA1MOXQ48MY02IPJZGDC3RV", "dateTime": 1515868088698}, {"current_trial": 87, "trialdata": {"rt": -1, "trial_type": "single-stim", "stimulus": "<p id=\"stim\">1</p>", "internal_node_id": "0.0-60.0-9.0", "time_elapsed": 597455, "key_press": -1, "trial_index": 87}, "uniqueid": "MTK1383:3D3VGR7TA1MOXQ48MY02IPJZGDC3RV", "dateTime": 1515868089699}, {"current_trial": 88, "trialdata": {"rt": -1, "trial_type": "single-stim", "stimulus": "<p id=\"stim\">+</p>", "internal_node_id": "0.0-61.0-0.0", "time_elapsed": 598958, "key_press": -1, "type": "FIXATION", "trial_index": 88}, "uniqueid": "MTK1383:3D3VGR7TA1MOXQ48MY02IPJZGDC3RV", "dateTime": 1515868091203}, {"current_trial": 89, "trialdata": {"rt": -1000, "trial_type": "single-audio", "word": "sandwich", "stimulus": "/static/audio/wordpool/SANDWICH.wav", "conditions": [24, 1600, "a", 24000], "internal_node_id": "0.0-62.0", "trial": 2, "time_elapsed": 601615, "serialpos": 0, "key_press": -1, "wordID": 1231, "type": "PRES_AUD", "trial_index": 89}, "uniqueid": "MTK1383:3D3VGR7TA1MOXQ48MY02IPJZGDC3RV", "dateTime": 1515868093859}, {"current_trial": 90, "trialdata": {"rt": -1000, "trial_type": "single-audio", "word": "marker", "stimulus": "/static/audio/wordpool/MARKER.wav", "conditions": [24, 1600, "a", 24000], "internal_node_id": "0.0-63.0", "trial": 2, "time_elapsed": 604107, "serialpos": 1, "key_press": -1, "wordID": 869, "type": "PRES_AUD", "trial_index": 90}, "uniqueid": "MTK1383:3D3VGR7TA1MOXQ48MY02IPJZGDC3RV", "dateTime": 1515868096351}, {"current_trial": 91, "trialdata": {"rt": -1000, "trial_type": "single-audio", "word": "pimple", "stimulus": "/static/audio/wordpool/PIMPLE.wav", "conditions": [24, 1600, "a", 24000], "internal_node_id": "0.0-64.0", "trial": 2, "time_elapsed": 606698, "serialpos": 2, "key_press": -1, "wordID": 1070, "type": "PRES_AUD", "trial_index": 91}, "uniqueid": "MTK1383:3D3VGR7TA1MOXQ48MY02IPJZGDC3RV", "dateTime": 1515868098942}, {"current_trial": 92, "trialdata": {"rt": -1000, "trial_type": "single-audio", "word": "freckle", "stimulus": "/static/audio/wordpool/FRECKLE.wav", "conditions": [24, 1600, "a", 24000], "internal_node_id": "0.0-65.0", "trial": 2, "time_elapsed": 609245, "serialpos": 3, "key_press": -1, "wordID": 601, "type": "PRES_AUD", "trial_index": 92}, "uniqueid": "MTK1383:3D3VGR7TA1MOXQ48MY02IPJZGDC3RV", "dateTime": 1515868101489}, {"current_trial": 93, "trialdata": {"rt": -1000, "trial_type": "single-audio", "word": "husband", "stimulus": "/static/audio/wordpool/HUSBAND.wav", "conditions": [24, 1600, "a", 24000], "internal_node_id": "0.0-66.0", "trial": 2, "time_elapsed": 611845, "serialpos": 4, "key_press": -1, "wordID": 727, "type": "PRES_AUD", "trial_index": 93}, "uniqueid": "MTK1383:3D3VGR7TA1MOXQ48MY02IPJZGDC3RV", "dateTime": 1515868104089}, {"current_trial": 94, "trialdata": {"rt": -1000, "trial_type": "single-audio", "word": "army", "stimulus": "/static/audio/wordpool/ARMY.wav", "conditions": [24, 1600, "a", 24000], "internal_node_id": "0.0-67.0", "trial": 2, "time_elapsed": 614572, "serialpos": 5, "key_press": -1, "wordID": 38, "type": "PRES_AUD", "trial_index": 94}, "uniqueid": "MTK1383:3D3VGR7TA1MOXQ48MY02IPJZGDC3RV", "dateTime": 1515868106816}, {"current_trial": 95, "trialdata": {"rt": -1000, "trial_type": "single-audio", "word": "island", "stimulus": "/static/audio/wordpool/ISLAND.wav", "conditions": [24, 1600, "a", 24000], "internal_node_id": "0.0-68.0", "trial": 2, "time_elapsed": 617074, "serialpos": 6, "key_press": -1, "wordID": 744, "type": "PRES_AUD", "trial_index": 95}, "uniqueid": "MTK1383:3D3VGR7TA1MOXQ48MY02IPJZGDC3RV", "dateTime": 1515868109318}, {"current_trial": 96, "trialdata": {"rt": -1000, "trial_type": "single-audio", "word": "friend", "stimulus": "/static/audio/wordpool/FRIEND.wav", "conditions": [24, 1600, "a", 24000], "internal_node_id": "0.0-69.0", "trial": 2, "time_elapsed": 619499, "serialpos": 7, "key_press": -1, "wordID": 605, "type": "PRES_AUD", "trial_index": 96}, "uniqueid": "MTK1383:3D3VGR7TA1MOXQ48MY02IPJZGDC3RV", "dateTime": 1515868111743}, {"current_trial": 97, "trialdata": {"rt": -1000, "trial_type": "single-audio", "word": "turnip", "stimulus": "/static/audio/wordpool/TURNIP.wav", "conditions": [24, 1600, "a", 24000], "internal_node_id": "0.0-70.0", "trial": 2, "time_elapsed": 622053, "serialpos": 8, "key_press": -1, "wordID": 1520, "type": "PRES_AUD", "trial_index": 97}, "uniqueid": "MTK1383:3D3VGR7TA1MOXQ48MY02IPJZGDC3RV", "dateTime": 1515868114297}, {"current_trial": 98, "trialdata": {"rt": -1000, "trial_type": "single-audio", "word": "radish", "stimulus": "/static/audio/wordpool/RADISH.wav", "conditions": [24, 1600, "a", 24000], "internal_node_id": "0.0-71.0", "trial": 2, "time_elapsed": 624541, "serialpos": 9, "key_press": -1, "wordID": 1157, "type": "PRES_AUD", "trial_index": 98}, "uniqueid": "MTK1383:3D3VGR7TA1MOXQ48MY02IPJZGDC3RV", "dateTime": 1515868116785}, {"current_trial": 99, "trialdata": {"rt": -1000, "trial_type": "single-audio", "word": "hawk", "stimulus": "/static/audio/wordpool/HAWK.wav", "conditions": [24, 1600, "a", 24000], "internal_node_id": "0.0-72.0", "trial": 2, "time_elapsed": 627212, "serialpos": 10, "key_press": -1, "wordID": 691, "type": "PRES_AUD", "trial_index": 99}, "uniqueid": "MTK1383:3D3VGR7TA1MOXQ48MY02IPJZGDC3RV", "dateTime": 1515868119457}, {"current_trial": 100, "trialdata": {"rt": -1000, "trial_type": "single-audio", "word": "napkin", "stimulus": "/static/audio/wordpool/NAPKIN.wav", "conditions": [24, 1600, "a", 24000], "internal_node_id": "0.0-73.0", "trial": 2, "time_elapsed": 629962, "serialpos": 11, "key_press": -1, "wordID": 936, "type": "PRES_AUD", "trial_index": 100}, "uniqueid": "MTK1383:3D3VGR7TA1MOXQ48MY02IPJZGDC3RV", "dateTime": 1515868122207}, {"current_trial": 101, "trialdata": {"rt": -1000, "trial_type": "single-audio", "word": "valve", "stimulus": "/static/audio/wordpool/VALVE.wav", "conditions": [24, 1600, "a", 24000], "internal_node_id": "0.0-74.0", "trial": 2, "time_elapsed": 632378, "serialpos": 12, "key_press": -1, "wordID": 1545, "type": "PRES_AUD", "trial_index": 101}, "uniqueid": "MTK1383:3D3VGR7TA1MOXQ48MY02IPJZGDC3RV", "dateTime": 1515868124623}, {"current_trial": 102, "trialdata": {"rt": -1000, "trial_type": "single-audio", "word": "hand", "stimulus": "/static/audio/wordpool/HAND.wav", "conditions": [24, 1600, "a", 24000], "internal_node_id": "0.0-75.0", "trial": 2, "time_elapsed": 635048, "serialpos": 13, "key_press": -1, "wordID": 682, "type": "PRES_AUD", "trial_index": 102}, "uniqueid": "MTK1383:3D3VGR7TA1MOXQ48MY02IPJZGDC3RV", "dateTime": 1515868127292}, {"current_trial": 103, "trialdata": {"rt": -1000, "trial_type": "single-audio", "word": "headband", "stimulus": "/static/audio/wordpool/HEADBAND.wav", "conditions": [24, 1600, "a", 24000], "internal_node_id": "0.0-76.0", "trial": 2, "time_elapsed": 637469, "serialpos": 14, "key_press": -1, "wordID": 695, "type": "PRES_AUD", "trial_index": 103}, "uniqueid": "MTK1383:3D3VGR7TA1MOXQ48MY02IPJZGDC3RV", "dateTime": 1515868129713}, {"current_trial": 104, "trialdata": {"rt": -1000, "trial_type": "single-audio", "word": "piston", "stimulus": "/static/audio/wordpool/PISTON.wav", "conditions": [24, 1600, "a", 24000], "internal_node_id": "0.0-77.0", "trial": 2, "time_elapsed": 640243, "serialpos": 15, "key_press": -1, "wordID": 1075, "type": "PRES_AUD", "trial_index": 104}, "uniqueid": "MTK1383:3D3VGR7TA1MOXQ48MY02IPJZGDC3RV", "dateTime": 1515868132487}, {"current_trial": 105, "trialdata": {"rt": -1000, "trial_type": "single-audio", "word": "binder", "stimulus": "/static/audio/wordpool/BINDER.wav", "conditions": [24, 1600, "a", 24000], "internal_node_id": "0.0-78.0", "trial": 2, "time_elapsed": 643009, "serialpos": 16, "key_press": -1, "wordID": 126, "type": "PRES_AUD", "trial_index": 105}, "uniqueid": "MTK1383:3D3VGR7TA1MOXQ48MY02IPJZGDC3RV", "dateTime": 1515868135253}, {"current_trial": 106, "trialdata": {"rt": -1000, "trial_type": "single-audio", "word": "kleenex", "stimulus": "/static/audio/wordpool/KLEENEX.wav", "conditions": [24, 1600, "a", 24000], "internal_node_id": "0.0-79.0", "trial": 2, "time_elapsed": 645520, "serialpos": 17, "key_press": -1, "wordID": 781, "type": "PRES_AUD", "trial_index": 106}, "uniqueid": "MTK1383:3D3VGR7TA1MOXQ48MY02IPJZGDC3RV", "dateTime": 1515868137764}, {"current_trial": 107, "trialdata": {"rt": -1000, "trial_type": "single-audio", "word": "pigment", "stimulus": "/static/audio/wordpool/PIGMENT.wav", "conditions": [24, 1600, "a", 24000], "internal_node_id": "0.0-80.0", "trial": 2, "time_elapsed": 647997, "serialpos": 18, "key_press": -1, "wordID": 1065, "type": "PRES_AUD", "trial_index": 107}, "uniqueid": "MTK1383:3D3VGR7TA1MOXQ48MY02IPJZGDC3RV", "dateTime": 1515868140241}, {"current_trial": 108, "trialdata": {"rt": -1000, "trial_type": "single-audio", "word": "match", "stimulus": "/static/audio/wordpool/MATCH.wav", "conditions": [24, 1600, "a", 24000], "internal_node_id": "0.0-81.0", "trial": 2, "time_elapsed": 650785, "serialpos": 19, "key_press": -1, "wordID": 877, "type": "PRES_AUD", "trial_index": 108}, "uniqueid": "MTK1383:3D3VGR7TA1MOXQ48MY02IPJZGDC3RV", "dateTime": 1515868143030}, {"current_trial": 109, "trialdata": {"rt": -1000, "trial_type": "single-audio", "word": "lava", "stimulus": "/static/audio/wordpool/LAVA.wav", "conditions": [24, 1600, "a", 24000], "internal_node_id": "0.0-82.0", "trial": 2, "time_elapsed": 653387, "serialpos": 20, "key_press": -1, "wordID": 803, "type": "PRES_AUD", "trial_index": 109}, "uniqueid": "MTK1383:3D3VGR7TA1MOXQ48MY02IPJZGDC3RV", "dateTime": 1515868145632}, {"current_trial": 110, "trialdata": {"rt": -1000, "trial_type": "single-audio", "word": "crater", "stimulus": "/static/audio/wordpool/CRATER.wav", "conditions": [24, 1600, "a", 24000], "internal_node_id": "0.0-83.0", "trial": 2, "time_elapsed": 655924, "serialpos": 21, "key_press": -1, "wordID": 399, "type": "PRES_AUD", "trial_index": 110}, "uniqueid": "MTK1383:3D3VGR7TA1MOXQ48MY02IPJZGDC3RV", "dateTime": 1515868148168}, {"current_trial": 111, "trialdata": {"rt": -1000, "trial_type": "single-audio", "word": "spool", "stimulus": "/static/audio/wordpool/SPOOL.wav", "conditions": [24, 1600, "a", 24000], "internal_node_id": "0.0-84.0", "trial": 2, "time_elapsed": 658683, "serialpos": 22, "key_press": -1, "wordID": 1355, "type": "PRES_AUD", "trial_index": 111}, "uniqueid": "MTK1383:3D3VGR7TA1MOXQ48MY02IPJZGDC3RV", "dateTime": 1515868150927}, {"current_trial": 112, "trialdata": {"rt": -1000, "trial_type": "single-audio", "word": "typist", "stimulus": "/static/audio/wordpool/TYPIST.wav", "conditions": [24, 1600, "a", 24000], "internal_node_id": "0.0-85.0", "trial": 2, "time_elapsed": 661107, "serialpos": 23, "key_press": -1, "wordID": 1531, "type": "PRES_AUD", "trial_index": 112}, "uniqueid": "MTK1383:3D3VGR7TA1MOXQ48MY02IPJZGDC3RV", "dateTime": 1515868153351}, {"current_trial": 113, "trialdata": {"rt": -1, "trial_type": "single-stim", "stimulus": "", "internal_node_id": "0.0-86.0-0.0", "time_elapsed": 662409, "key_press": -1, "type": "PRE_RECALL_DELAY", "trial_index": 113}, "uniqueid": "MTK1383:3D3VGR7TA1MOXQ48MY02IPJZGDC3RV", "dateTime": 1515868154653}, {"current_trial": 114, "trialdata": {"rt": -1000, "trial_type": "single-audio", "stimulus": "/static/audio/400Hz.wav", "internal_node_id": "0.0-87.0", "time_elapsed": 662910, "key_press": -1, "type": "PRE_RECALL_ALERT", "trial_index": 114}, "uniqueid": "MTK1383:3D3VGR7TA1MOXQ48MY02IPJZGDC3RV", "dateTime": 1515868155155}, {"current_trial": 115, "trialdata": {"rt": [8380, 11396, 13900, 16197, 19765, 21412, 26324, 28253, 32837, 33533, 37621, 40109, 46692, 50508], "recwords": ["husband", "friend", "pimple", "freckle", "typist", "spool", "piston", "valve", "binder", "", "lava", "pigment", "island", "napkin\\"], "key_times": [5396, 5765, 6044, 6309, 6485, 6933, 7958, 8380, 9021, 9221, 9390, 10245, 10373, 11261, 11396, 12068, 12285, 12613, 12781, 13029, 13180, 13900, 14628, 14805, 14972, 15325, 15478, 15838, 15982, 16197, 16909, 17112, 17589, 17766, 18044, 19302, 19765, 20333, 20557, 20742, 20870, 21036, 21412, 23388, 23573, 24172, 24421, 24549, 24831, 26324, 27174, 27341, 27470, 27862, 27958, 28253, 31406, 31821, 32012, 32237, 32437, 32518, 32837, 33533, 33549, 34414, 35060, 35822, 35950, 36085, 37621, 38413, 38590, 39053, 39462, 39613, 39734, 39870, 40109, 44694, 44852, 45036, 45325, 45775, 45918, 46254, 46470, 46692, 48566, 49198, 49526, 49766, 49902, 50100, 50484, 50508, 58053, 58445, 58751, 58846, 59078, 59806], "trial_type": "free-recall", "conditions": [24, 1600, "a", 24000], "internal_node_id": "0.0-88.0-0.0", "key_presses": [72, 85, 83, 66, 65, 78, 68, 13, 70, 82, 73, 69, 78, 68, 13, 80, 73, 77, 80, 76, 69, 13, 70, 82, 69, 67, 75, 76, 69, 13, 84, 89, 80, 73, 83, 84, 13, 83, 80, 79, 79, 76, 13, 80, 73, 83, 84, 79, 78, 13, 86, 65, 76, 86, 69, 13, 66, 73, 78, 68, 69, 82, 13, 186, 76, 65, 67, 8, 86, 65, 13, 80, 73, 71, 77, 69, 78, 84, 13, 73, 83, 76, 78, 8, 65, 78, 68, 13, 78, 65, 80, 75, 73, 78, 220, 13, 75, 76, 69, 69, 78, 69], "trial": 2, "time_elapsed": 722914, "type": "FREE_RECALL", "trial_index": 115}, "uniqueid": "MTK1383:3D3VGR7TA1MOXQ48MY02IPJZGDC3RV", "dateTime": 1515868215159}, {"current_trial": 116, "trialdata": {"rt": 1608, "trial_type": "text", "internal_node_id": "0.0-89.0", "time_elapsed": 726524, "key_press": 13, "type": "INSTRUCTIONS", "trial_index": 116}, "uniqueid": "MTK1383:3D3VGR7TA1MOXQ48MY02IPJZGDC3RV", "dateTime": 1515868218768}, {"current_trial": 117, "trialdata": {"rt": [3046, 4958, 8838, 10989, 14222, 16270, 18078, 20814, 23269], "trial_type": "math-distractor", "key_times": [2743, 3046, 4687, 4958, 8255, 8469, 8838, 10632, 10759, 10989, 13855, 13959, 14222, 15759, 15943, 16270, 17655, 17791, 18078, 20406, 20631, 20814, 22935, 23029, 23269], "responses": ["7", "8", "17", "15", "15", "17", "13", "20", "15"], "num2": [2, 1, 3, 2, 3, 6, 3, 8, 1, 7], "num3": [3, 2, 8, 7, 4, 5, 5, 5, 8, 1], "conditions": [24, 800, "a", 24000], "internal_node_id": "0.0-90.0", "key_presses": [103, 13, 104, 13, 97, 103, 13, 97, 101, 13, 97, 101, 13, 97, 103, 13, 97, 99, 13, 98, 96, 13, 97, 101, 13], "trial": 3, "time_elapsed": 752529, "type": "DISTRACTOR", "trial_index": 117, "num1": [2, 5, 6, 6, 8, 6, 5, 7, 6, 1]}, "uniqueid": "MTK1383:3D3VGR7TA1MOXQ48MY02IPJZGDC3RV", "dateTime": 1515868244773}, {"current_trial": 118, "trialdata": {"rt": -1, "trial_type": "single-stim", "stimulus": "<p id=\"stim\">10</p>", "internal_node_id": "0.0-91.0-0.0", "time_elapsed": 755532, "key_press": -1, "trial_index": 118}, "uniqueid": "MTK1383:3D3VGR7TA1MOXQ48MY02IPJZGDC3RV", "dateTime": 1515868247776}, {"current_trial": 119, "trialdata": {"rt": -1, "trial_type": "single-stim", "stimulus": "<p id=\"stim\">9</p>", "internal_node_id": "0.0-91.0-1.0", "time_elapsed": 756535, "key_press": -1, "trial_index": 119}, "uniqueid": "MTK1383:3D3VGR7TA1MOXQ48MY02IPJZGDC3RV", "dateTime": 1515868248779}, {"current_trial": 120, "trialdata": {"rt": -1, "trial_type": "single-stim", "stimulus": "<p id=\"stim\">8</p>", "internal_node_id": "0.0-91.0-2.0", "time_elapsed": 757539, "key_press": -1, "trial_index": 120}, "uniqueid": "MTK1383:3D3VGR7TA1MOXQ48MY02IPJZGDC3RV", "dateTime": 1515868249783}, {"current_trial": 121, "trialdata": {"rt": -1, "trial_type": "single-stim", "stimulus": "<p id=\"stim\">7</p>", "internal_node_id": "0.0-91.0-3.0", "time_elapsed": 758541, "key_press": -1, "trial_index": 121}, "uniqueid": "MTK1383:3D3VGR7TA1MOXQ48MY02IPJZGDC3RV", "dateTime": 1515868250785}, {"current_trial": 122, "trialdata": {"rt": -1, "trial_type": "single-stim", "stimulus": "<p id=\"stim\">6</p>", "internal_node_id": "0.0-91.0-4.0", "time_elapsed": 759542, "key_press": -1, "trial_index": 122}, "uniqueid": "MTK1383:3D3VGR7TA1MOXQ48MY02IPJZGDC3RV", "dateTime": 1515868251786}, {"current_trial": 123, "trialdata": {"rt": -1, "trial_type": "single-stim", "stimulus": "<p id=\"stim\">5</p>", "internal_node_id": "0.0-91.0-5.0", "time_elapsed": 760544, "key_press": -1, "trial_index": 123}, "uniqueid": "MTK1383:3D3VGR7TA1MOXQ48MY02IPJZGDC3RV", "dateTime": 1515868252788}, {"current_trial": 124, "trialdata": {"rt": -1, "trial_type": "single-stim", "stimulus": "<p id=\"stim\">4</p>", "internal_node_id": "0.0-91.0-6.0", "time_elapsed": 761545, "key_press": -1, "trial_index": 124}, "uniqueid": "MTK1383:3D3VGR7TA1MOXQ48MY02IPJZGDC3RV", "dateTime": 1515868253789}, {"current_trial": 125, "trialdata": {"rt": -1, "trial_type": "single-stim", "stimulus": "<p id=\"stim\">3</p>", "internal_node_id": "0.0-91.0-7.0", "time_elapsed": 762547, "key_press": -1, "trial_index": 125}, "uniqueid": "MTK1383:3D3VGR7TA1MOXQ48MY02IPJZGDC3RV", "dateTime": 1515868254791}, {"current_trial": 126, "trialdata": {"rt": -1, "trial_type": "single-stim", "stimulus": "<p id=\"stim\">2</p>", "internal_node_id": "0.0-91.0-8.0", "time_elapsed": 763549, "key_press": -1, "trial_index": 126}, "uniqueid": "MTK1383:3D3VGR7TA1MOXQ48MY02IPJZGDC3RV", "dateTime": 1515868255793}, {"current_trial": 127, "trialdata": {"rt": -1, "trial_type": "single-stim", "stimulus": "<p id=\"stim\">1</p>", "internal_node_id": "0.0-91.0-9.0", "time_elapsed": 764550, "key_press": -1, "trial_index": 127}, "uniqueid": "MTK1383:3D3VGR7TA1MOXQ48MY02IPJZGDC3RV", "dateTime": 1515868256795}, {"current_trial": 128, "trialdata": {"rt": -1, "trial_type": "single-stim", "stimulus": "<p id=\"stim\">+</p>", "internal_node_id": "0.0-92.0-0.0", "time_elapsed": 766052, "key_press": -1, "type": "FIXATION", "trial_index": 128}, "uniqueid": "MTK1383:3D3VGR7TA1MOXQ48MY02IPJZGDC3RV", "dateTime": 1515868258296}, {"current_trial": 129, "trialdata": {"rt": -1000, "trial_type": "single-audio", "word": "tortoise", "stimulus": "/static/audio/wordpool/TORTOISE.wav", "conditions": [24, 800, "a", 24000], "internal_node_id": "0.0-93.0", "trial": 3, "time_elapsed": 767695, "serialpos": 0, "key_press": -1, "wordID": 1485, "type": "PRES_AUD", "trial_index": 129}, "uniqueid": "MTK1383:3D3VGR7TA1MOXQ48MY02IPJZGDC3RV", "dateTime": 1515868259940}, {"current_trial": 130, "trialdata": {"rt": -1000, "trial_type": "single-audio", "word": "custard", "stimulus": "/static/audio/wordpool/CUSTARD.wav", "conditions": [24, 800, "a", 24000], "internal_node_id": "0.0-94.0", "trial": 3, "time_elapsed": 769583, "serialpos": 1, "key_press": -1, "wordID": 428, "type": "PRES_AUD", "trial_index": 130}, "uniqueid": "MTK1383:3D3VGR7TA1MOXQ48MY02IPJZGDC3RV", "dateTime": 1515868261827}, {"current_trial": 131, "trialdata": {"rt": -1000, "trial_type": "single-audio", "word": "partner", "stimulus": "/static/audio/wordpool/PARTNER.wav", "conditions": [24, 800, "a", 24000], "internal_node_id": "0.0-95.0", "trial": 3, "time_elapsed": 771209, "serialpos": 2, "key_press": -1, "wordID": 1016, "type": "PRES_AUD", "trial_index": 131}, "uniqueid": "MTK1383:3D3VGR7TA1MOXQ48MY02IPJZGDC3RV", "dateTime": 1515868263453}, {"current_trial": 132, "trialdata": {"rt": -1000, "trial_type": "single-audio", "word": "comet", "stimulus": "/static/audio/wordpool/COMET.wav", "conditions": [24, 800, "a", 24000], "internal_node_id": "0.0-96.0", "trial": 3, "time_elapsed": 773110, "serialpos": 3, "key_press": -1, "wordID": 352, "type": "PRES_AUD", "trial_index": 132}, "uniqueid": "MTK1383:3D3VGR7TA1MOXQ48MY02IPJZGDC3RV", "dateTime": 1515868265354}, {"current_trial": 133, "trialdata": {"rt": -1000, "trial_type": "single-audio", "word": "slug", "stimulus": "/static/audio/wordpool/SLUG.wav", "conditions": [24, 800, "a", 24000], "internal_node_id": "0.0-97.0", "trial": 3, "time_elapsed": 774966, "serialpos": 4, "key_press": -1, "wordID": 1328, "type": "PRES_AUD", "trial_index": 133}, "uniqueid": "MTK1383:3D3VGR7TA1MOXQ48MY02IPJZGDC3RV", "dateTime": 1515868267210}, {"current_trial": 134, "trialdata": {"rt": -1000, "trial_type": "single-audio", "word": "judge", "stimulus": "/static/audio/wordpool/JUDGE.wav", "conditions": [24, 800, "a", 24000], "internal_node_id": "0.0-98.0", "trial": 3, "time_elapsed": 776883, "serialpos": 5, "key_press": -1, "wordID": 760, "type": "PRES_AUD", "trial_index": 134}, "uniqueid": "MTK1383:3D3VGR7TA1MOXQ48MY02IPJZGDC3RV", "dateTime": 1515868269127}, {"current_trial": 135, "trialdata": {"rt": -1000, "trial_type": "single-audio", "word": "drill", "stimulus": "/static/audio/wordpool/DRILL.wav", "conditions": [24, 800, "a", 24000], "internal_node_id": "0.0-99.0", "trial": 3, "time_elapsed": 778609, "serialpos": 6, "key_press": -1, "wordID": 496, "type": "PRES_AUD", "trial_index": 135}, "uniqueid": "MTK1383:3D3VGR7TA1MOXQ48MY02IPJZGDC3RV", "dateTime": 1515868270853}, {"current_trial": 136, "trialdata": {"rt": -1000, "trial_type": "single-audio", "word": "ground", "stimulus": "/static/audio/wordpool/GROUND.wav", "conditions": [24, 800, "a", 24000], "internal_node_id": "0.0-100.0", "trial": 3, "time_elapsed": 780565, "serialpos": 7, "key_press": -1, "wordID": 665, "type": "PRES_AUD", "trial_index": 136}, "uniqueid": "MTK1383:3D3VGR7TA1MOXQ48MY02IPJZGDC3RV", "dateTime": 1515868272809}, {"current_trial": 137, "trialdata": {"rt": -1000, "trial_type": "single-audio", "word": "shortcake", "stimulus": "/static/audio/wordpool/SHORTCAKE.wav", "conditions": [24, 800, "a", 24000], "internal_node_id": "0.0-101.0", "trial": 3, "time_elapsed": 782180, "serialpos": 8, "key_press": -1, "wordID": 1291, "type": "PRES_AUD", "trial_index": 137}, "uniqueid": "MTK1383:3D3VGR7TA1MOXQ48MY02IPJZGDC3RV", "dateTime": 1515868274424}, {"current_trial": 138, "trialdata": {"rt": -1000, "trial_type": "single-audio", "word": "barrel", "stimulus": "/static/audio/wordpool/BARREL.wav", "conditions": [24, 800, "a", 24000], "internal_node_id": "0.0-102.0", "trial": 3, "time_elapsed": 783838, "serialpos": 9, "key_press": -1, "wordID": 90, "type": "PRES_AUD", "trial_index": 138}, "uniqueid": "MTK1383:3D3VGR7TA1MOXQ48MY02IPJZGDC3RV", "dateTime": 1515868276082}, {"current_trial": 139, "trialdata": {"rt": -1000, "trial_type": "single-audio", "word": "france", "stimulus": "/static/audio/wordpool/FRANCE.wav", "conditions": [24, 800, "a", 24000], "internal_node_id": "0.0-103.0", "trial": 3, "time_elapsed": 785452, "serialpos": 10, "key_press": -1, "wordID": 600, "type": "PRES_AUD", "trial_index": 139}, "uniqueid": "MTK1383:3D3VGR7TA1MOXQ48MY02IPJZGDC3RV", "dateTime": 1515868277696}, {"current_trial": 140, "trialdata": {"rt": -1000, "trial_type": "single-audio", "word": "japan", "stimulus": "/static/audio/wordpool/JAPAN.wav", "conditions": [24, 800, "a", 24000], "internal_node_id": "0.0-104.0", "trial": 3, "time_elapsed": 787389, "serialpos": 11, "key_press": -1, "wordID": 748, "type": "PRES_AUD", "trial_index": 140}, "uniqueid": "MTK1383:3D3VGR7TA1MOXQ48MY02IPJZGDC3RV", "dateTime": 1515868279633}, {"current_trial": 141, "trialdata": {"rt": -1000, "trial_type": "single-audio", "word": "paddle", "stimulus": "/static/audio/wordpool/PADDLE.wav", "conditions": [24, 800, "a", 24000], "internal_node_id": "0.0-105.0", "trial": 3, "time_elapsed": 789017, "serialpos": 12, "key_press": -1, "wordID": 999, "type": "PRES_AUD", "trial_index": 141}, "uniqueid": "MTK1383:3D3VGR7TA1MOXQ48MY02IPJZGDC3RV", "dateTime": 1515868281261}, {"current_trial": 142, "trialdata": {"rt": -1000, "trial_type": "single-audio", "word": "harp", "stimulus": "/static/audio/wordpool/HARP.wav", "conditions": [24, 800, "a", 24000], "internal_node_id": "0.0-106.0", "trial": 3, "time_elapsed": 790836, "serialpos": 13, "key_press": -1, "wordID": 688, "type": "PRES_AUD", "trial_index": 142}, "uniqueid": "MTK1383:3D3VGR7TA1MOXQ48MY02IPJZGDC3RV", "dateTime": 1515868283081}, {"current_trial": 143, "trialdata": {"rt": -1000, "trial_type": "single-audio", "word": "outfit", "stimulus": "/static/audio/wordpool/OUTFIT.wav", "conditions": [24, 800, "a", 24000], "internal_node_id": "0.0-107.0", "trial": 3, "time_elapsed": 792784, "serialpos": 14, "key_press": -1, "wordID": 987, "type": "PRES_AUD", "trial_index": 143}, "uniqueid": "MTK1383:3D3VGR7TA1MOXQ48MY02IPJZGDC3RV", "dateTime": 1515868285028}, {"current_trial": 144, "trialdata": {"rt": -1000, "trial_type": "single-audio", "word": "compass", "stimulus": "/static/audio/wordpool/COMPASS.wav", "conditions": [24, 800, "a", 24000], "internal_node_id": "0.0-108.0", "trial": 3, "time_elapsed": 794540, "serialpos": 15, "key_press": -1, "wordID": 357, "type": "PRES_AUD", "trial_index": 144}, "uniqueid": "MTK1383:3D3VGR7TA1MOXQ48MY02IPJZGDC3RV", "dateTime": 1515868286784}, {"current_trial": 145, "trialdata": {"rt": -1000, "trial_type": "single-audio", "word": "widow", "stimulus": "/static/audio/wordpool/WIDOW.wav", "conditions": [24, 800, "a", 24000], "internal_node_id": "0.0-109.0", "trial": 3, "time_elapsed": 796265, "serialpos": 16, "key_press": -1, "wordID": 1607, "type": "PRES_AUD", "trial_index": 145}, "uniqueid": "MTK1383:3D3VGR7TA1MOXQ48MY02IPJZGDC3RV", "dateTime": 1515868288509}, {"current_trial": 146, "trialdata": {"rt": -1000, "trial_type": "single-audio", "word": "chemist", "stimulus": "/static/audio/wordpool/CHEMIST.wav", "conditions": [24, 800, "a", 24000], "internal_node_id": "0.0-110.0", "trial": 3, "time_elapsed": 797981, "serialpos": 17, "key_press": -1, "wordID": 291, "type": "PRES_AUD", "trial_index": 146}, "uniqueid": "MTK1383:3D3VGR7TA1MOXQ48MY02IPJZGDC3RV", "dateTime": 1515868290225}, {"current_trial": 147, "trialdata": {"rt": -1000, "trial_type": "single-audio", "word": "piano", "stimulus": "/static/audio/wordpool/PIANO.wav", "conditions": [24, 800, "a", 24000], "internal_node_id": "0.0-111.0", "trial": 3, "time_elapsed": 799654, "serialpos": 18, "key_press": -1, "wordID": 1056, "type": "PRES_AUD", "trial_index": 147}, "uniqueid": "MTK1383:3D3VGR7TA1MOXQ48MY02IPJZGDC3RV", "dateTime": 1515868291898}, {"current_trial": 148, "trialdata": {"rt": -1000, "trial_type": "single-audio", "word": "spider", "stimulus": "/static/audio/wordpool/SPIDER.wav", "conditions": [24, 800, "a", 24000], "internal_node_id": "0.0-112.0", "trial": 3, "time_elapsed": 801532, "serialpos": 19, "key_press": -1, "wordID": 1350, "type": "PRES_AUD", "trial_index": 148}, "uniqueid": "MTK1383:3D3VGR7TA1MOXQ48MY02IPJZGDC3RV", "dateTime": 1515868293776}, {"current_trial": 149, "trialdata": {"rt": -1000, "trial_type": "single-audio", "word": "sister", "stimulus": "/static/audio/wordpool/SISTER.wav", "conditions": [24, 800, "a", 24000], "internal_node_id": "0.0-113.0", "trial": 3, "time_elapsed": 803336, "serialpos": 20, "key_press": -1, "wordID": 1311, "type": "PRES_AUD", "trial_index": 149}, "uniqueid": "MTK1383:3D3VGR7TA1MOXQ48MY02IPJZGDC3RV", "dateTime": 1515868295580}, {"current_trial": 150, "trialdata": {"rt": -1000, "trial_type": "single-audio", "word": "sibling", "stimulus": "/static/audio/wordpool/SIBLING.wav", "conditions": [24, 800, "a", 24000], "internal_node_id": "0.0-114.0", "trial": 3, "time_elapsed": 805155, "serialpos": 21, "key_press": -1, "wordID": 1300, "type": "PRES_AUD", "trial_index": 150}, "uniqueid": "MTK1383:3D3VGR7TA1MOXQ48MY02IPJZGDC3RV", "dateTime": 1515868297400}, {"current_trial": 151, "trialdata": {"rt": -1000, "trial_type": "single-audio", "word": "picnic", "stimulus": "/static/audio/wordpool/PICNIC.wav", "conditions": [24, 800, "a", 24000], "internal_node_id": "0.0-115.0", "trial": 3, "time_elapsed": 806841, "serialpos": 22, "key_press": -1, "wordID": 1059, "type": "PRES_AUD", "trial_index": 151}, "uniqueid": "MTK1383:3D3VGR7TA1MOXQ48MY02IPJZGDC3RV", "dateTime": 1515868299085}, {"current_trial": 152, "trialdata": {"rt": -1000, "trial_type": "single-audio", "word": "rod", "stimulus": "/static/audio/wordpool/ROD.wav", "conditions": [24, 800, "a", 24000], "internal_node_id": "0.0-116.0", "trial": 3, "time_elapsed": 808707, "serialpos": 23, "key_press": -1, "wordID": 1202, "type": "PRES_AUD", "trial_index": 152}, "uniqueid": "MTK1383:3D3VGR7TA1MOXQ48MY02IPJZGDC3RV", "dateTime": 1515868300952}, {"current_trial": 153, "trialdata": {"rt": -1, "trial_type": "single-stim", "stimulus": "", "internal_node_id": "0.0-117.0-0.0", "time_elapsed": 810092, "key_press": -1, "type": "PRE_RECALL_DELAY", "trial_index": 153}, "uniqueid": "MTK1383:3D3VGR7TA1MOXQ48MY02IPJZGDC3RV", "dateTime": 1515868302336}, {"current_trial": 154, "trialdata": {"rt": -1000, "trial_type": "single-audio", "stimulus": "/static/audio/400Hz.wav", "internal_node_id": "0.0-118.0", "time_elapsed": 810594, "key_press": -1, "type": "PRE_RECALL_ALERT", "trial_index": 154}, "uniqueid": "MTK1383:3D3VGR7TA1MOXQ48MY02IPJZGDC3RV", "dateTime": 1515868302838}, {"current_trial": 155, "trialdata": {"rt": [8818, 13370, 18570, 20617, 24161, 27290, 33698, 39202, 48722, 52274, 57978], "recwords": ["picnic", "sibling", "sister", "spider", "france", "japan", "shortcake", "widow", "park", "partner", "piano"], "key_times": [2075, 2923, 3145, 3363, 3523, 3713, 3874, 4186, 5226, 5363, 5489, 5595, 6779, 7690, 7851, 8818, 11499, 11651, 11907, 12146, 12323, 12523, 13186, 13370, 13795, 14043, 14170, 14290, 14491, 14619, 14747, 15811, 15962, 16114, 16234, 16962, 17138, 17218, 18570, 19371, 19499, 19691, 19931, 20123, 20243, 20617, 22412, 22755, 22962, 23139, 23266, 23499, 23627, 24161, 24483, 24962, 25249, 25379, 26059, 26218, 27290, 29290, 29499, 30467, 31258, 31827, 32003, 32178, 32715, 32875, 33099, 33298, 33698, 38138, 38291, 38499, 38635, 38915, 39202, 45274, 45434, 45763, 46234, 46483, 47323, 48722, 50891, 51043, 51324, 51524, 51787, 51907, 52003, 52274, 56732, 56954, 57122, 57290, 57548, 57978], "trial_type": "free-recall", "conditions": [24, 800, "a", 24000], "internal_node_id": "0.0-119.0-0.0", "key_presses": [17, 80, 73, 67, 78, 73, 78, 67, 8, 8, 8, 67, 8, 73, 67, 13, 83, 73, 66, 76, 73, 78, 71, 13, 83, 73, 83, 73, 84, 69, 82, 8, 8, 8, 8, 84, 69, 82, 13, 83, 80, 73, 68, 69, 82, 13, 16, 70, 82, 65, 78, 67, 69, 13, 16, 74, 65, 80, 65, 78, 13, 83, 72, 82, 8, 79, 82, 84, 67, 65, 75, 69, 13, 87, 73, 68, 79, 87, 13, 80, 65, 65, 8, 82, 75, 13, 80, 65, 82, 84, 78, 69, 82, 13, 80, 73, 65, 78, 79, 13], "trial": 3, "time_elapsed": 870598, "type": "FREE_RECALL", "trial_index": 155}, "uniqueid": "MTK1383:3D3VGR7TA1MOXQ48MY02IPJZGDC3RV", "dateTime": 1515868362846}, {"current_trial": 156, "trialdata": {"rt": 1994, "trial_type": "text", "internal_node_id": "0.0-120.0", "time_elapsed": 874597, "key_press": 13, "type": "INSTRUCTIONS", "trial_index": 156}, "uniqueid": "MTK1383:3D3VGR7TA1MOXQ48MY02IPJZGDC3RV", "dateTime": 1515868366841}, {"current_trial": 157, "trialdata": {"rt": [2901, 8213, 10973], "trial_type": "math-distractor", "key_times": [2407, 2614, 2901, 6006, 6093, 8213, 10559, 10740, 10973], "responses": ["17", "12", "18"], "num2": [9, 5, 9, 1], "num3": [5, 4, 6, 1], "conditions": [12, 800, "a", 12000], "internal_node_id": "0.0-121.0", "key_presses": [97, 103, 13, 97, 98, 13, 97, 104, 13], "trial": 4, "time_elapsed": 888602, "type": "DISTRACTOR", "trial_index": 157, "num1": [3, 3, 3, 2]}, "uniqueid": "MTK1383:3D3VGR7TA1MOXQ48MY02IPJZGDC3RV", "dateTime": 1515868380846}, {"current_trial": 158, "trialdata": {"rt": -1, "trial_type": "single-stim", "stimulus": "<p id=\"stim\">10</p>", "internal_node_id": "0.0-122.0-0.0", "time_elapsed": 891607, "key_press": -1, "trial_index": 158}, "uniqueid": "MTK1383:3D3VGR7TA1MOXQ48MY02IPJZGDC3RV", "dateTime": 1515868383851}, {"current_trial": 159, "trialdata": {"rt": -1, "trial_type": "single-stim", "stimulus": "<p id=\"stim\">9</p>", "internal_node_id": "0.0-122.0-1.0", "time_elapsed": 892609, "key_press": -1, "trial_index": 159}, "uniqueid": "MTK1383:3D3VGR7TA1MOXQ48MY02IPJZGDC3RV", "dateTime": 1515868384854}, {"current_trial": 160, "trialdata": {"rt": -1, "trial_type": "single-stim", "stimulus": "<p id=\"stim\">8</p>", "internal_node_id": "0.0-122.0-2.0", "time_elapsed": 893611, "key_press": -1, "trial_index": 160}, "uniqueid": "MTK1383:3D3VGR7TA1MOXQ48MY02IPJZGDC3RV", "dateTime": 1515868385855}, {"current_trial": 161, "trialdata": {"rt": -1, "trial_type": "single-stim", "stimulus": "<p id=\"stim\">7</p>", "internal_node_id": "0.0-122.0-3.0", "time_elapsed": 894614, "key_press": -1, "trial_index": 161}, "uniqueid": "MTK1383:3D3VGR7TA1MOXQ48MY02IPJZGDC3RV", "dateTime": 1515868386859}, {"current_trial": 162, "trialdata": {"rt": -1, "trial_type": "single-stim", "stimulus": "<p id=\"stim\">6</p>", "internal_node_id": "0.0-122.0-4.0", "time_elapsed": 895616, "key_press": -1, "trial_index": 162}, "uniqueid": "MTK1383:3D3VGR7TA1MOXQ48MY02IPJZGDC3RV", "dateTime": 1515868387860}, {"current_trial": 163, "trialdata": {"rt": -1, "trial_type": "single-stim", "stimulus": "<p id=\"stim\">5</p>", "internal_node_id": "0.0-122.0-5.0", "time_elapsed": 896618, "key_press": -1, "trial_index": 163}, "uniqueid": "MTK1383:3D3VGR7TA1MOXQ48MY02IPJZGDC3RV", "dateTime": 1515868388862}, {"current_trial": 164, "trialdata": {"rt": -1, "trial_type": "single-stim", "stimulus": "<p id=\"stim\">4</p>", "internal_node_id": "0.0-122.0-6.0", "time_elapsed": 897621, "key_press": -1, "trial_index": 164}, "uniqueid": "MTK1383:3D3VGR7TA1MOXQ48MY02IPJZGDC3RV", "dateTime": 1515868389865}, {"current_trial": 165, "trialdata": {"rt": -1, "trial_type": "single-stim", "stimulus": "<p id=\"stim\">3</p>", "internal_node_id": "0.0-122.0-7.0", "time_elapsed": 898623, "key_press": -1, "trial_index": 165}, "uniqueid": "MTK1383:3D3VGR7TA1MOXQ48MY02IPJZGDC3RV", "dateTime": 1515868390867}, {"current_trial": 166, "trialdata": {"rt": -1, "trial_type": "single-stim", "stimulus": "<p id=\"stim\">2</p>", "internal_node_id": "0.0-122.0-8.0", "time_elapsed": 899624, "key_press": -1, "trial_index": 166}, "uniqueid": "MTK1383:3D3VGR7TA1MOXQ48MY02IPJZGDC3RV", "dateTime": 1515868391869}, {"current_trial": 167, "trialdata": {"rt": -1, "trial_type": "single-stim", "stimulus": "<p id=\"stim\">1</p>", "internal_node_id": "0.0-122.0-9.0", "time_elapsed": 900626, "key_press": -1, "trial_index": 167}, "uniqueid": "MTK1383:3D3VGR7TA1MOXQ48MY02IPJZGDC3RV", "dateTime": 1515868392871}, {"current_trial": 168, "trialdata": {"rt": -1, "trial_type": "single-stim", "stimulus": "<p id=\"stim\">+</p>", "internal_node_id": "0.0-123.0-0.0", "time_elapsed": 902128, "key_press": -1, "type": "FIXATION", "trial_index": 168}, "uniqueid": "MTK1383:3D3VGR7TA1MOXQ48MY02IPJZGDC3RV", "dateTime": 1515868394372}, {"current_trial": 169, "trialdata": {"rt": -1000, "trial_type": "single-audio", "word": "rabbit", "stimulus": "/static/audio/wordpool/RABBIT.wav", "conditions": [12, 800, "a", 12000], "internal_node_id": "0.0-124.0", "trial": 4, "time_elapsed": 904062, "serialpos": 0, "key_press": -1, "wordID": 1151, "type": "PRES_AUD", "trial_index": 169}, "uniqueid": "MTK1383:3D3VGR7TA1MOXQ48MY02IPJZGDC3RV", "dateTime": 1515868396307}, {"current_trial": 170, "trialdata": {"rt": -1000, "trial_type": "single-audio", "word": "lizard", "stimulus": "/static/audio/wordpool/LIZARD.wav", "conditions": [12, 800, "a", 12000], "internal_node_id": "0.0-125.0", "trial": 4, "time_elapsed": 905813, "serialpos": 1, "key_press": -1, "wordID": 833, "type": "PRES_AUD", "trial_index": 170}, "uniqueid": "MTK1383:3D3VGR7TA1MOXQ48MY02IPJZGDC3RV", "dateTime": 1515868398057}, {"current_trial": 171, "trialdata": {"rt": -1000, "trial_type": "single-audio", "word": "virus", "stimulus": "/static/audio/wordpool/VIRUS.wav", "conditions": [12, 800, "a", 12000], "internal_node_id": "0.0-126.0", "trial": 4, "time_elapsed": 907691, "serialpos": 2, "key_press": -1, "wordID": 1571, "type": "PRES_AUD", "trial_index": 171}, "uniqueid": "MTK1383:3D3VGR7TA1MOXQ48MY02IPJZGDC3RV", "dateTime": 1515868399936}, {"current_trial": 172, "trialdata": {"rt": -1000, "trial_type": "single-audio", "word": "termite", "stimulus": "/static/audio/wordpool/TERMITE.wav", "conditions": [12, 800, "a", 12000], "internal_node_id": "0.0-127.0", "trial": 4, "time_elapsed": 909639, "serialpos": 3, "key_press": -1, "wordID": 1450, "type": "PRES_AUD", "trial_index": 172}, "uniqueid": "MTK1383:3D3VGR7TA1MOXQ48MY02IPJZGDC3RV", "dateTime": 1515868401884}, {"current_trial": 173, "trialdata": {"rt": -1000, "trial_type": "single-audio", "word": "shrub", "stimulus": "/static/audio/wordpool/SHRUB.wav", "conditions": [12, 800, "a", 12000], "internal_node_id": "0.0-128.0", "trial": 4, "time_elapsed": 911404, "serialpos": 4, "key_press": -1, "wordID": 1298, "type": "PRES_AUD", "trial_index": 173}, "uniqueid": "MTK1383:3D3VGR7TA1MOXQ48MY02IPJZGDC3RV", "dateTime": 1515868403648}, {"current_trial": 174, "trialdata": {"rt": -1000, "trial_type": "single-audio", "word": "tourist", "stimulus": "/static/audio/wordpool/TOURIST.wav", "conditions": [12, 800, "a", 12000], "internal_node_id": "0.0-129.0", "trial": 4, "time_elapsed": 913052, "serialpos": 5, "key_press": -1, "wordID": 1487, "type": "PRES_AUD", "trial_index": 174}, "uniqueid": "MTK1383:3D3VGR7TA1MOXQ48MY02IPJZGDC3RV", "dateTime": 1515868405296}, {"current_trial": 175, "trialdata": {"rt": -1000, "trial_type": "single-audio", "word": "boyfriend", "stimulus": "/static/audio/wordpool/BOYFRIEND.wav", "conditions": [12, 800, "a", 12000], "internal_node_id": "0.0-130.0", "trial": 4, "time_elapsed": 914801, "serialpos": 6, "key_press": -1, "wordID": 161, "type": "PRES_AUD", "trial_index": 175}, "uniqueid": "MTK1383:3D3VGR7TA1MOXQ48MY02IPJZGDC3RV", "dateTime": 1515868407045}, {"current_trial": 176, "trialdata": {"rt": -1000, "trial_type": "single-audio", "word": "lodge", "stimulus": "/static/audio/wordpool/LODGE.wav", "conditions": [12, 800, "a", 12000], "internal_node_id": "0.0-131.0", "trial": 4, "time_elapsed": 916454, "serialpos": 7, "key_press": -1, "wordID": 838, "type": "PRES_AUD", "trial_index": 176}, "uniqueid": "MTK1383:3D3VGR7TA1MOXQ48MY02IPJZGDC3RV", "dateTime": 1515868408698}, {"current_trial": 177, "trialdata": {"rt": -1000, "trial_type": "single-audio", "word": "shoulder", "stimulus": "/static/audio/wordpool/SHOULDER.wav", "conditions": [12, 800, "a", 12000], "internal_node_id": "0.0-132.0", "trial": 4, "time_elapsed": 918326, "serialpos": 8, "key_press": -1, "wordID": 1293, "type": "PRES_AUD", "trial_index": 177}, "uniqueid": "MTK1383:3D3VGR7TA1MOXQ48MY02IPJZGDC3RV", "dateTime": 1515868410570}, {"current_trial": 178, "trialdata": {"rt": -1000, "trial_type": "single-audio", "word": "bunny", "stimulus": "/static/audio/wordpool/BUNNY.wav", "conditions": [12, 800, "a", 12000], "internal_node_id": "0.0-133.0", "trial": 4, "time_elapsed": 920057, "serialpos": 9, "key_press": -1, "wordID": 197, "type": "PRES_AUD", "trial_index": 178}, "uniqueid": "MTK1383:3D3VGR7TA1MOXQ48MY02IPJZGDC3RV", "dateTime": 1515868412301}, {"current_trial": 179, "trialdata": {"rt": -1000, "trial_type": "single-audio", "word": "college", "stimulus": "/static/audio/wordpool/COLLEGE.wav", "conditions": [12, 800, "a", 12000], "internal_node_id": "0.0-134.0", "trial": 4, "time_elapsed": 921960, "serialpos": 10, "key_press": -1, "wordID": 345, "type": "PRES_AUD", "trial_index": 179}, "uniqueid": "MTK1383:3D3VGR7TA1MOXQ48MY02IPJZGDC3RV", "dateTime": 1515868414205}, {"current_trial": 180, "trialdata": {"rt": -1000, "trial_type": "single-audio", "word": "student", "stimulus": "/static/audio/wordpool/STUDENT.wav", "conditions": [12, 800, "a", 12000], "internal_node_id": "0.0-135.0", "trial": 4, "time_elapsed": 923626, "serialpos": 11, "key_press": -1, "wordID": 1394, "type": "PRES_AUD", "trial_index": 180}, "uniqueid": "MTK1383:3D3VGR7TA1MOXQ48MY02IPJZGDC3RV", "dateTime": 1515868415871}, {"current_trial": 181, "trialdata": {"rt": -1, "trial_type": "single-stim", "stimulus": "", "internal_node_id": "0.0-136.0-0.0", "time_elapsed": 924989, "key_press": -1, "type": "PRE_RECALL_DELAY", "trial_index": 181}, "uniqueid": "MTK1383:3D3VGR7TA1MOXQ48MY02IPJZGDC3RV", "dateTime": 1515868417233}, {"current_trial": 182, "trialdata": {"rt": -1000, "trial_type": "single-audio", "stimulus": "/static/audio/400Hz.wav", "internal_node_id": "0.0-137.0", "time_elapsed": 925490, "key_press": -1, "type": "PRE_RECALL_ALERT", "trial_index": 182}, "uniqueid": "MTK1383:3D3VGR7TA1MOXQ48MY02IPJZGDC3RV", "dateTime": 1515868417734}, {"current_trial": 183, "trialdata": {"rt": [2994, 6345, 8218, 11386, 16226, 23722, 27458, 30481, 37850, 56514, 56866], "recwords": ["college", "student", "rabbit", "bunny", "lizard", "boyfriend", "lodge", "tourist", "study", "", ""], "key_times": [1740, 1899, 2059, 2178, 2353, 2539, 2642, 2994, 3604, 3875, 4243, 4699, 4898, 5404, 5739, 6345, 7163, 7306, 7459, 7611, 7795, 8004, 8218, 8907, 9131, 9323, 9468, 9698, 11386, 12115, 12346, 13747, 13891, 14442, 14707, 15194, 15427, 16226, 18443, 18691, 19483, 19916, 20283, 20435, 20651, 20779, 21611, 21883, 22033, 22860, 23170, 23371, 23483, 23722, 25707, 25867, 26314, 26490, 26603, 27458, 28684, 28827, 28955, 29155, 29379, 29612, 30362, 30481, 35796, 35940, 36460, 36883, 37042, 37850, 56514, 56866], "trial_type": "free-recall", "conditions": [12, 800, "a", 12000], "internal_node_id": "0.0-138.0-0.0", "key_presses": [67, 79, 76, 76, 69, 71, 69, 13, 83, 84, 85, 68, 69, 78, 84, 13, 82, 65, 66, 66, 73, 84, 13, 66, 85, 78, 78, 89, 13, 76, 73, 90, 90, 8, 65, 82, 68, 13, 66, 79, 89, 70, 82, 73, 69, 78, 8, 8, 8, 73, 69, 78, 68, 13, 76, 79, 68, 71, 69, 13, 84, 79, 85, 82, 73, 83, 84, 13, 83, 84, 85, 68, 89, 13, 13, 13], "trial": 4, "time_elapsed": 985493, "type": "FREE_RECALL", "trial_index": 183}, "uniqueid": "MTK1383:3D3VGR7TA1MOXQ48MY02IPJZGDC3RV", "dateTime": 1515868477743}, {"current_trial": 184, "trialdata": {"rt": 1722, "trial_type": "text", "internal_node_id": "0.0-139.0", "time_elapsed": 989221, "key_press": 13, "type": "INSTRUCTIONS", "trial_index": 184}, "uniqueid": "MTK1383:3D3VGR7TA1MOXQ48MY02IPJZGDC3RV", "dateTime": 1515868481465}, {"current_trial": 185, "trialdata": {"rt": [2542, 5038, 8102, 10790, 12350, 14206, 16253, 19246, 21127], "trial_type": "math-distractor", "key_times": [2096, 2271, 2542, 4438, 4710, 5038, 6238, 6415, 6653, 6670, 7497, 7607, 8102, 10359, 10519, 10790, 12039, 12128, 12350, 13767, 14206, 15839, 16023, 16253, 18799, 19023, 19246, 20776, 20895, 21127], "responses": ["18", "17", "21", "14", "13", "8", "19", "27", "16"], "num2": [9, 2, 7, 3, 3, 1, 4, 9, 7, 8], "num3": [2, 7, 7, 8, 5, 1, 9, 9, 6, 5], "conditions": [24, 1600, "a", 24000], "internal_node_id": "0.0-140.0", "key_presses": [97, 104, 13, 97, 103, 13, 98, 97, 110, 99, 8, 8, 13, 97, 100, 13, 97, 99, 13, 104, 13, 97, 105, 13, 98, 103, 13, 97, 102, 13], "trial": 5, "time_elapsed": 1015225, "type": "DISTRACTOR", "trial_index": 185, "num1": [7, 8, 7, 3, 5, 6, 6, 9, 3, 6]}, "uniqueid": "MTK1383:3D3VGR7TA1MOXQ48MY02IPJZGDC3RV", "dateTime": 1515868507469}, {"current_trial": 186, "trialdata": {"rt": -1, "trial_type": "single-stim", "stimulus": "<p id=\"stim\">10</p>", "internal_node_id": "0.0-141.0-0.0", "time_elapsed": 1018228, "key_press": -1, "trial_index": 186}, "uniqueid": "MTK1383:3D3VGR7TA1MOXQ48MY02IPJZGDC3RV", "dateTime": 1515868510472}, {"current_trial": 187, "trialdata": {"rt": -1, "trial_type": "single-stim", "stimulus": "<p id=\"stim\">9</p>", "internal_node_id": "0.0-141.0-1.0", "time_elapsed": 1019230, "key_press": -1, "trial_index": 187}, "uniqueid": "MTK1383:3D3VGR7TA1MOXQ48MY02IPJZGDC3RV", "dateTime": 1515868511474}, {"current_trial": 188, "trialdata": {"rt": -1, "trial_type": "single-stim", "stimulus": "<p id=\"stim\">8</p>", "internal_node_id": "0.0-141.0-2.0", "time_elapsed": 1020232, "key_press": -1, "trial_index": 188}, "uniqueid": "MTK1383:3D3VGR7TA1MOXQ48MY02IPJZGDC3RV", "dateTime": 1515868512477}, {"current_trial": 189, "trialdata": {"rt": -1, "trial_type": "single-stim", "stimulus": "<p id=\"stim\">7</p>", "internal_node_id": "0.0-141.0-3.0", "time_elapsed": 1021234, "key_press": -1, "trial_index": 189}, "uniqueid": "MTK1383:3D3VGR7TA1MOXQ48MY02IPJZGDC3RV", "dateTime": 1515868513479}, {"current_trial": 190, "trialdata": {"rt": -1, "trial_type": "single-stim", "stimulus": "<p id=\"stim\">6</p>", "internal_node_id": "0.0-141.0-4.0", "time_elapsed": 1022236, "key_press": -1, "trial_index": 190}, "uniqueid": "MTK1383:3D3VGR7TA1MOXQ48MY02IPJZGDC3RV", "dateTime": 1515868514480}, {"current_trial": 191, "trialdata": {"rt": -1, "trial_type": "single-stim", "stimulus": "<p id=\"stim\">5</p>", "internal_node_id": "0.0-141.0-5.0", "time_elapsed": 1023238, "key_press": -1, "trial_index": 191}, "uniqueid": "MTK1383:3D3VGR7TA1MOXQ48MY02IPJZGDC3RV", "dateTime": 1515868515482}, {"current_trial": 192, "trialdata": {"rt": -1, "trial_type": "single-stim", "stimulus": "<p id=\"stim\">4</p>", "internal_node_id": "0.0-141.0-6.0", "time_elapsed": 1024239, "key_press": -1, "trial_index": 192}, "uniqueid": "MTK1383:3D3VGR7TA1MOXQ48MY02IPJZGDC3RV", "dateTime": 1515868516484}, {"current_trial": 193, "trialdata": {"rt": -1, "trial_type": "single-stim", "stimulus": "<p id=\"stim\">3</p>", "internal_node_id": "0.0-141.0-7.0", "time_elapsed": 1025241, "key_press": -1, "trial_index": 193}, "uniqueid": "MTK1383:3D3VGR7TA1MOXQ48MY02IPJZGDC3RV", "dateTime": 1515868517486}, {"current_trial": 194, "trialdata": {"rt": -1, "trial_type": "single-stim", "stimulus": "<p id=\"stim\">2</p>", "internal_node_id": "0.0-141.0-8.0", "time_elapsed": 1026244, "key_press": -1, "trial_index": 194}, "uniqueid": "MTK1383:3D3VGR7TA1MOXQ48MY02IPJZGDC3RV", "dateTime": 1515868518488}, {"current_trial": 195, "trialdata": {"rt": -1, "trial_type": "single-stim", "stimulus": "<p id=\"stim\">1</p>", "internal_node_id": "0.0-141.0-9.0", "time_elapsed": 1027246, "key_press": -1, "trial_index": 195}, "uniqueid": "MTK1383:3D3VGR7TA1MOXQ48MY02IPJZGDC3RV", "dateTime": 1515868519490}, {"current_trial": 196, "trialdata": {"rt": -1, "trial_type": "single-stim", "stimulus": "<p id=\"stim\">+</p>", "internal_node_id": "0.0-142.0-0.0", "time_elapsed": 1028747, "key_press": -1, "type": "FIXATION", "trial_index": 196}, "uniqueid": "MTK1383:3D3VGR7TA1MOXQ48MY02IPJZGDC3RV", "dateTime": 1515868520991}, {"current_trial": 197, "trialdata": {"rt": -1000, "trial_type": "single-audio", "word": "jelly", "stimulus": "/static/audio/wordpool/JELLY.wav", "conditions": [24, 1600, "a", 24000], "internal_node_id": "0.0-143.0", "trial": 5, "time_elapsed": 1031319, "serialpos": 0, "key_press": -1, "wordID": 754, "type": "PRES_AUD", "trial_index": 197}, "uniqueid": "MTK1383:3D3VGR7TA1MOXQ48MY02IPJZGDC3RV", "dateTime": 1515868523563}, {"current_trial": 198, "trialdata": {"rt": -1000, "trial_type": "single-audio", "word": "lunch", "stimulus": "/static/audio/wordpool/LUNCH.wav", "conditions": [24, 1600, "a", 24000], "internal_node_id": "0.0-144.0", "trial": 5, "time_elapsed": 1034097, "serialpos": 1, "key_press": -1, "wordID": 848, "type": "PRES_AUD", "trial_index": 198}, "uniqueid": "MTK1383:3D3VGR7TA1MOXQ48MY02IPJZGDC3RV", "dateTime": 1515868526341}, {"current_trial": 199, "trialdata": {"rt": -1000, "trial_type": "single-audio", "word": "pepper", "stimulus": "/static/audio/wordpool/PEPPER.wav", "conditions": [24, 1600, "a", 24000], "internal_node_id": "0.0-145.0", "trial": 5, "time_elapsed": 1036683, "serialpos": 2, "key_press": -1, "wordID": 1046, "type": "PRES_AUD", "trial_index": 199}, "uniqueid": "MTK1383:3D3VGR7TA1MOXQ48MY02IPJZGDC3RV", "dateTime": 1515868528927}, {"current_trial": 200, "trialdata": {"rt": -1000, "trial_type": "single-audio", "word": "brandy", "stimulus": "/static/audio/wordpool/BRANDY.wav", "conditions": [24, 1600, "a", 24000], "internal_node_id": "0.0-146.0", "trial": 5, "time_elapsed": 1039106, "serialpos": 3, "key_press": -1, "wordID": 168, "type": "PRES_AUD", "trial_index": 200}, "uniqueid": "MTK1383:3D3VGR7TA1MOXQ48MY02IPJZGDC3RV", "dateTime": 1515868531351}, {"current_trial": 201, "trialdata": {"rt": -1000, "trial_type": "single-audio", "word": "liver", "stimulus": "/static/audio/wordpool/LIVER.wav", "conditions": [24, 1600, "a", 24000], "internal_node_id": "0.0-147.0", "trial": 5, "time_elapsed": 1041529, "serialpos": 4, "key_press": -1, "wordID": 832, "type": "PRES_AUD", "trial_index": 201}, "uniqueid": "MTK1383:3D3VGR7TA1MOXQ48MY02IPJZGDC3RV", "dateTime": 1515868533773}, {"current_trial": 202, "trialdata": {"rt": -1000, "trial_type": "single-audio", "word": "supper", "stimulus": "/static/audio/wordpool/SUPPER.wav", "conditions": [24, 1600, "a", 24000], "internal_node_id": "0.0-148.0", "trial": 5, "time_elapsed": 1044235, "serialpos": 5, "key_press": -1, "wordID": 1410, "type": "PRES_AUD", "trial_index": 202}, "uniqueid": "MTK1383:3D3VGR7TA1MOXQ48MY02IPJZGDC3RV", "dateTime": 1515868536479}, {"current_trial": 203, "trialdata": {"rt": -1000, "trial_type": "single-audio", "word": "cafe", "stimulus": "/static/audio/wordpool/CAFE.wav", "conditions": [24, 1600, "a", 24000], "internal_node_id": "0.0-149.0", "trial": 5, "time_elapsed": 1046911, "serialpos": 6, "key_press": -1, "wordID": 215, "type": "PRES_AUD", "trial_index": 203}, "uniqueid": "MTK1383:3D3VGR7TA1MOXQ48MY02IPJZGDC3RV", "dateTime": 1515868539155}, {"current_trial": 204, "trialdata": {"rt": -1000, "trial_type": "single-audio", "word": "inmate", "stimulus": "/static/audio/wordpool/INMATE.wav", "conditions": [24, 1600, "a", 24000], "internal_node_id": "0.0-150.0", "trial": 5, "time_elapsed": 1049507, "serialpos": 7, "key_press": -1, "wordID": 737, "type": "PRES_AUD", "trial_index": 204}, "uniqueid": "MTK1383:3D3VGR7TA1MOXQ48MY02IPJZGDC3RV", "dateTime": 1515868541752}, {"current_trial": 205, "trialdata": {"rt": -1000, "trial_type": "single-audio", "word": "stone", "stimulus": "/static/audio/wordpool/STONE.wav", "conditions": [24, 1600, "a", 24000], "internal_node_id": "0.0-151.0", "trial": 5, "time_elapsed": 1052113, "serialpos": 8, "key_press": -1, "wordID": 1384, "type": "PRES_AUD", "trial_index": 205}, "uniqueid": "MTK1383:3D3VGR7TA1MOXQ48MY02IPJZGDC3RV", "dateTime": 1515868544358}, {"current_trial": 206, "trialdata": {"rt": -1000, "trial_type": "single-audio", "word": "rocket", "stimulus": "/static/audio/wordpool/ROCKET.wav", "conditions": [24, 1600, "a", 24000], "internal_node_id": "0.0-152.0", "trial": 5, "time_elapsed": 1054599, "serialpos": 9, "key_press": -1, "wordID": 1201, "type": "PRES_AUD", "trial_index": 206}, "uniqueid": "MTK1383:3D3VGR7TA1MOXQ48MY02IPJZGDC3RV", "dateTime": 1515868546843}, {"current_trial": 207, "trialdata": {"rt": -1000, "trial_type": "single-audio", "word": "missile", "stimulus": "/static/audio/wordpool/MISSILE.wav", "conditions": [24, 1600, "a", 24000], "internal_node_id": "0.0-153.0", "trial": 5, "time_elapsed": 1057255, "serialpos": 10, "key_press": -1, "wordID": 899, "type": "PRES_AUD", "trial_index": 207}, "uniqueid": "MTK1383:3D3VGR7TA1MOXQ48MY02IPJZGDC3RV", "dateTime": 1515868549499}, {"current_trial": 208, "trialdata": {"rt": -1000, "trial_type": "single-audio", "word": "lady", "stimulus": "/static/audio/wordpool/LADY.wav", "conditions": [24, 1600, "a", 24000], "internal_node_id": "0.0-154.0", "trial": 5, "time_elapsed": 1060022, "serialpos": 11, "key_press": -1, "wordID": 793, "type": "PRES_AUD", "trial_index": 208}, "uniqueid": "MTK1383:3D3VGR7TA1MOXQ48MY02IPJZGDC3RV", "dateTime": 1515868552267}, {"current_trial": 209, "trialdata": {"rt": -1000, "trial_type": "single-audio", "word": "cellar", "stimulus": "/static/audio/wordpool/CELLAR.wav", "conditions": [24, 1600, "a", 24000], "internal_node_id": "0.0-155.0", "trial": 5, "time_elapsed": 1062627, "serialpos": 12, "key_press": -1, "wordID": 266, "type": "PRES_AUD", "trial_index": 209}, "uniqueid": "MTK1383:3D3VGR7TA1MOXQ48MY02IPJZGDC3RV", "dateTime": 1515868554871}, {"current_trial": 210, "trialdata": {"rt": -1000, "trial_type": "single-audio", "word": "suspect", "stimulus": "/static/audio/wordpool/SUSPECT.wav", "conditions": [24, 1600, "a", 24000], "internal_node_id": "0.0-156.0", "trial": 5, "time_elapsed": 1065156, "serialpos": 13, "key_press": -1, "wordID": 1414, "type": "PRES_AUD", "trial_index": 210}, "uniqueid": "MTK1383:3D3VGR7TA1MOXQ48MY02IPJZGDC3RV", "dateTime": 1515868557400}, {"current_trial": 211, "trialdata": {"rt": -1000, "trial_type": "single-audio", "word": "relish", "stimulus": "/static/audio/wordpool/RELISH.wav", "conditions": [24, 1600, "a", 24000], "internal_node_id": "0.0-157.0", "trial": 5, "time_elapsed": 1067784, "serialpos": 14, "key_press": -1, "wordID": 1182, "type": "PRES_AUD", "trial_index": 211}, "uniqueid": "MTK1383:3D3VGR7TA1MOXQ48MY02IPJZGDC3RV", "dateTime": 1515868560028}, {"current_trial": 212, "trialdata": {"rt": -1000, "trial_type": "single-audio", "word": "milk", "stimulus": "/static/audio/wordpool/MILK.wav", "conditions": [24, 1600, "a", 24000], "internal_node_id": "0.0-158.0", "trial": 5, "time_elapsed": 1070311, "serialpos": 15, "key_press": -1, "wordID": 894, "type": "PRES_AUD", "trial_index": 212}, "uniqueid": "MTK1383:3D3VGR7TA1MOXQ48MY02IPJZGDC3RV", "dateTime": 1515868562555}, {"current_trial": 213, "trialdata": {"rt": -1000, "trial_type": "single-audio", "word": "pasta", "stimulus": "/static/audio/wordpool/PASTA.wav", "conditions": [24, 1600, "a", 24000], "internal_node_id": "0.0-159.0", "trial": 5, "time_elapsed": 1072886, "serialpos": 16, "key_press": -1, "wordID": 1020, "type": "PRES_AUD", "trial_index": 213}, "uniqueid": "MTK1383:3D3VGR7TA1MOXQ48MY02IPJZGDC3RV", "dateTime": 1515868565130}, {"current_trial": 214, "trialdata": {"rt": -1000, "trial_type": "single-audio", "word": "brother", "stimulus": "/static/audio/wordpool/BROTHER.wav", "conditions": [24, 1600, "a", 24000], "internal_node_id": "0.0-160.0", "trial": 5, "time_elapsed": 1075607, "serialpos": 17, "key_press": -1, "wordID": 178, "type": "PRES_AUD", "trial_index": 214}, "uniqueid": "MTK1383:3D3VGR7TA1MOXQ48MY02IPJZGDC3RV", "dateTime": 1515868567851}, {"current_trial": 215, "trialdata": {"rt": -1000, "trial_type": "single-audio", "word": "cousin", "stimulus": "/static/audio/wordpool/COUSIN.wav", "conditions": [24, 1600, "a", 24000], "internal_node_id": "0.0-161.0", "trial": 5, "time_elapsed": 1078264, "serialpos": 18, "key_press": -1, "wordID": 391, "type": "PRES_AUD", "trial_index": 215}, "uniqueid": "MTK1383:3D3VGR7TA1MOXQ48MY02IPJZGDC3RV", "dateTime": 1515868570508}, {"current_trial": 216, "trialdata": {"rt": -1000, "trial_type": "single-audio", "word": "playground", "stimulus": "/static/audio/wordpool/PLAYGROUND.wav", "conditions": [24, 1600, "a", 24000], "internal_node_id": "0.0-162.0", "trial": 5, "time_elapsed": 1080717, "serialpos": 19, "key_press": -1, "wordID": 1086, "type": "PRES_AUD", "trial_index": 216}, "uniqueid": "MTK1383:3D3VGR7TA1MOXQ48MY02IPJZGDC3RV", "dateTime": 1515868572961}, {"current_trial": 217, "trialdata": {"rt": -1000, "trial_type": "single-audio", "word": "scribble", "stimulus": "/static/audio/wordpool/SCRIBBLE.wav", "conditions": [24, 1600, "a", 24000], "internal_node_id": "0.0-163.0", "trial": 5, "time_elapsed": 1083122, "serialpos": 20, "key_press": -1, "wordID": 1255, "type": "PRES_AUD", "trial_index": 217}, "uniqueid": "MTK1383:3D3VGR7TA1MOXQ48MY02IPJZGDC3RV", "dateTime": 1515868575366}, {"current_trial": 218, "trialdata": {"rt": -1000, "trial_type": "single-audio", "word": "stream", "stimulus": "/static/audio/wordpool/STREAM.wav", "conditions": [24, 1600, "a", 24000], "internal_node_id": "0.0-164.0", "trial": 5, "time_elapsed": 1085859, "serialpos": 21, "key_press": -1, "wordID": 1391, "type": "PRES_AUD", "trial_index": 218}, "uniqueid": "MTK1383:3D3VGR7TA1MOXQ48MY02IPJZGDC3RV", "dateTime": 1515868578103}, {"current_trial": 219, "trialdata": {"rt": -1000, "trial_type": "single-audio", "word": "canal", "stimulus": "/static/audio/wordpool/CANAL.wav", "conditions": [24, 1600, "a", 24000], "internal_node_id": "0.0-165.0", "trial": 5, "time_elapsed": 1088610, "serialpos": 22, "key_press": -1, "wordID": 225, "type": "PRES_AUD", "trial_index": 219}, "uniqueid": "MTK1383:3D3VGR7TA1MOXQ48MY02IPJZGDC3RV", "dateTime": 1515868580854}, {"current_trial": 220, "trialdata": {"rt": -1000, "trial_type": "single-audio", "word": "honey", "stimulus": "/static/audio/wordpool/HONEY.wav", "conditions": [24, 1600, "a", 24000], "internal_node_id": "0.0-166.0", "trial": 5, "time_elapsed": 1091326, "serialpos": 23, "key_press": -1, "wordID": 712, "type": "PRES_AUD", "trial_index": 220}, "uniqueid": "MTK1383:3D3VGR7TA1MOXQ48MY02IPJZGDC3RV", "dateTime": 1515868583570}, {"current_trial": 221, "trialdata": {"rt": -1, "trial_type": "single-stim", "stimulus": "", "internal_node_id": "0.0-167.0-0.0", "time_elapsed": 1092634, "key_press": -1, "type": "PRE_RECALL_DELAY", "trial_index": 221}, "uniqueid": "MTK1383:3D3VGR7TA1MOXQ48MY02IPJZGDC3RV", "dateTime": 1515868584879}, {"current_trial": 222, "trialdata": {"rt": -1000, "trial_type": "single-audio", "stimulus": "/static/audio/400Hz.wav", "internal_node_id": "0.0-168.0", "time_elapsed": 1093136, "key_press": -1, "type": "PRE_RECALL_ALERT", "trial_index": 222}, "uniqueid": "MTK1383:3D3VGR7TA1MOXQ48MY02IPJZGDC3RV", "dateTime": 1515868585380}, {"current_trial": 223, "trialdata": {"rt": [4236, 9950, 11684, 15884, 17940, 19908, 22004, 24044, 28900, 39060, 40652, 42980, 48524, 52452, 55517], "recwords": ["honey", "stream", "canal", "jelly", "lunch", "inmate", "brother", "cousin", "supper", "cafe", "milk", "pasta", "lady", "missile", "rocket"], "key_times": [1198, 1364, 2093, 2427, 2660, 3220, 3637, 4236, 4781, 5101, 5580, 6093, 6207, 6573, 6724, 6845, 7428, 7566, 7694, 7814, 7926, 8061, 8364, 8534, 8773, 9038, 9117, 9645, 9950, 10341, 10517, 10621, 10764, 10901, 11684, 14756, 14941, 15157, 15309, 15533, 15884, 16484, 16686, 16869, 17118, 17566, 17940, 18477, 18654, 18910, 19149, 19349, 19476, 19908, 20628, 21062, 21237, 21364, 21525, 21678, 21750, 22004, 22671, 22789, 22901, 23167, 23301, 23476, 24044, 27396, 27854, 28165, 28348, 28557, 28678, 28900, 29468, 29646, 29838, 30285, 30404, 30781, 30996, 31117, 31189, 31261, 35853, 36109, 36198, 36373, 36748, 36901, 37029, 37565, 37718, 37854, 37974, 38102, 38213, 38566, 39060, 39773, 40029, 40125, 40325, 40652, 41229, 41404, 41574, 41822, 42084, 42980, 46207, 46388, 46893, 47734, 48524, 50902, 51093, 51445, 51654, 51807, 51918, 52093, 52452, 53348, 53477, 53735, 53925, 54525, 55182, 55517, 59446, 59733, 59893], "trial_type": "free-recall", "conditions": [24, 1600, "a", 24000], "internal_node_id": "0.0-169.0-0.0", "key_presses": [72, 73, 8, 79, 78, 69, 89, 13, 83, 84, 69, 187, 82, 187, 187, 187, 8, 8, 8, 8, 8, 8, 82, 69, 65, 77, 77, 8, 32, 67, 65, 78, 65, 76, 13, 74, 69, 76, 76, 89, 13, 76, 85, 78, 67, 72, 13, 73, 78, 77, 65, 84, 69, 13, 66, 82, 79, 84, 72, 69, 82, 13, 67, 79, 85, 83, 73, 78, 13, 83, 85, 80, 80, 69, 82, 13, 67, 65, 71, 70, 69, 8, 8, 8, 70, 69, 77, 73, 76, 75, 187, 187, 187, 8, 8, 8, 8, 8, 8, 8, 13, 77, 73, 76, 75, 13, 80, 65, 83, 84, 65, 13, 76, 65, 68, 89, 13, 77, 73, 83, 83, 73, 76, 69, 13, 82, 79, 67, 75, 69, 84, 13, 66, 82, 65], "trial": 5, "time_elapsed": 1153139, "type": "FREE_RECALL", "trial_index": 223}, "uniqueid": "MTK1383:3D3VGR7TA1MOXQ48MY02IPJZGDC3RV", "dateTime": 1515868645388}, {"current_trial": 224, "trialdata": {"rt": 1141, "trial_type": "text", "internal_node_id": "0.0-170.0", "time_elapsed": 1156286, "key_press": 13, "type": "INSTRUCTIONS", "trial_index": 224}, "uniqueid": "MTK1383:3D3VGR7TA1MOXQ48MY02IPJZGDC3RV", "dateTime": 1515868648530}, {"current_trial": 225, "trialdata": {"rt": [3821, 5909, 7829, 10149], "trial_type": "math-distractor", "key_times": [3310, 3503, 3821, 5607, 5670, 5909, 7421, 7581, 7829, 9766, 9887, 10149], "responses": ["19", "12", "14", "15"], "num2": [6, 3, 1, 2, 4], "num3": [9, 3, 9, 8, 4], "conditions": [24, 800, "a", 12000], "internal_node_id": "0.0-171.0", "key_presses": [97, 105, 13, 97, 98, 13, 97, 100, 13, 97, 101, 13], "trial": 6, "time_elapsed": 1170290, "type": "DISTRACTOR", "trial_index": 225, "num1": [4, 6, 4, 5, 5]}, "uniqueid": "MTK1383:3D3VGR7TA1MOXQ48MY02IPJZGDC3RV", "dateTime": 1515868662534}, {"current_trial": 226, "trialdata": {"rt": -1, "trial_type": "single-stim", "stimulus": "<p id=\"stim\">10</p>", "internal_node_id": "0.0-172.0-0.0", "time_elapsed": 1173293, "key_press": -1, "trial_index": 226}, "uniqueid": "MTK1383:3D3VGR7TA1MOXQ48MY02IPJZGDC3RV", "dateTime": 1515868665537}, {"current_trial": 227, "trialdata": {"rt": -1, "trial_type": "single-stim", "stimulus": "<p id=\"stim\">9</p>", "internal_node_id": "0.0-172.0-1.0", "time_elapsed": 1174295, "key_press": -1, "trial_index": 227}, "uniqueid": "MTK1383:3D3VGR7TA1MOXQ48MY02IPJZGDC3RV", "dateTime": 1515868666539}, {"current_trial": 228, "trialdata": {"rt": -1, "trial_type": "single-stim", "stimulus": "<p id=\"stim\">8</p>", "internal_node_id": "0.0-172.0-2.0", "time_elapsed": 1175297, "key_press": -1, "trial_index": 228}, "uniqueid": "MTK1383:3D3VGR7TA1MOXQ48MY02IPJZGDC3RV", "dateTime": 1515868667541}, {"current_trial": 229, "trialdata": {"rt": -1, "trial_type": "single-stim", "stimulus": "<p id=\"stim\">7</p>", "internal_node_id": "0.0-172.0-3.0", "time_elapsed": 1176299, "key_press": -1, "trial_index": 229}, "uniqueid": "MTK1383:3D3VGR7TA1MOXQ48MY02IPJZGDC3RV", "dateTime": 1515868668543}, {"current_trial": 230, "trialdata": {"rt": -1, "trial_type": "single-stim", "stimulus": "<p id=\"stim\">6</p>", "internal_node_id": "0.0-172.0-4.0", "time_elapsed": 1177301, "key_press": -1, "trial_index": 230}, "uniqueid": "MTK1383:3D3VGR7TA1MOXQ48MY02IPJZGDC3RV", "dateTime": 1515868669546}, {"current_trial": 231, "trialdata": {"rt": -1, "trial_type": "single-stim", "stimulus": "<p id=\"stim\">5</p>", "internal_node_id": "0.0-172.0-5.0", "time_elapsed": 1178303, "key_press": -1, "trial_index": 231}, "uniqueid": "MTK1383:3D3VGR7TA1MOXQ48MY02IPJZGDC3RV", "dateTime": 1515868670547}, {"current_trial": 232, "trialdata": {"rt": -1, "trial_type": "single-stim", "stimulus": "<p id=\"stim\">4</p>", "internal_node_id": "0.0-172.0-6.0", "time_elapsed": 1179305, "key_press": -1, "trial_index": 232}, "uniqueid": "MTK1383:3D3VGR7TA1MOXQ48MY02IPJZGDC3RV", "dateTime": 1515868671549}, {"current_trial": 233, "trialdata": {"rt": -1, "trial_type": "single-stim", "stimulus": "<p id=\"stim\">3</p>", "internal_node_id": "0.0-172.0-7.0", "time_elapsed": 1180307, "key_press": -1, "trial_index": 233}, "uniqueid": "MTK1383:3D3VGR7TA1MOXQ48MY02IPJZGDC3RV", "dateTime": 1515868672551}, {"current_trial": 234, "trialdata": {"rt": -1, "trial_type": "single-stim", "stimulus": "<p id=\"stim\">2</p>", "internal_node_id": "0.0-172.0-8.0", "time_elapsed": 1181309, "key_press": -1, "trial_index": 234}, "uniqueid": "MTK1383:3D3VGR7TA1MOXQ48MY02IPJZGDC3RV", "dateTime": 1515868673554}, {"current_trial": 235, "trialdata": {"rt": -1, "trial_type": "single-stim", "stimulus": "<p id=\"stim\">1</p>", "internal_node_id": "0.0-172.0-9.0", "time_elapsed": 1182313, "key_press": -1, "trial_index": 235}, "uniqueid": "MTK1383:3D3VGR7TA1MOXQ48MY02IPJZGDC3RV", "dateTime": 1515868674557}, {"current_trial": 236, "trialdata": {"rt": -1, "trial_type": "single-stim", "stimulus": "<p id=\"stim\">+</p>", "internal_node_id": "0.0-173.0-0.0", "time_elapsed": 1183815, "key_press": -1, "type": "FIXATION", "trial_index": 236}, "uniqueid": "MTK1383:3D3VGR7TA1MOXQ48MY02IPJZGDC3RV", "dateTime": 1515868676059}, {"current_trial": 237, "trialdata": {"rt": -1000, "trial_type": "single-audio", "word": "loft", "stimulus": "/static/audio/wordpool/LOFT.wav", "conditions": [24, 800, "a", 12000], "internal_node_id": "0.0-174.0", "trial": 6, "time_elapsed": 1185811, "serialpos": 0, "key_press": -1, "wordID": 839, "type": "PRES_AUD", "trial_index": 237}, "uniqueid": "MTK1383:3D3VGR7TA1MOXQ48MY02IPJZGDC3RV", "dateTime": 1515868678055}, {"current_trial": 238, "trialdata": {"rt": -1000, "trial_type": "single-audio", "word": "london", "stimulus": "/static/audio/wordpool/LONDON.wav", "conditions": [24, 800, "a", 12000], "internal_node_id": "0.0-175.0", "trial": 6, "time_elapsed": 1187563, "serialpos": 1, "key_press": -1, "wordID": 842, "type": "PRES_AUD", "trial_index": 238}, "uniqueid": "MTK1383:3D3VGR7TA1MOXQ48MY02IPJZGDC3RV", "dateTime": 1515868679807}, {"current_trial": 239, "trialdata": {"rt": -1000, "trial_type": "single-audio", "word": "tile", "stimulus": "/static/audio/wordpool/TILE.wav", "conditions": [24, 800, "a", 12000], "internal_node_id": "0.0-176.0", "trial": 6, "time_elapsed": 1189266, "serialpos": 2, "key_press": -1, "wordID": 1467, "type": "PRES_AUD", "trial_index": 239}, "uniqueid": "MTK1383:3D3VGR7TA1MOXQ48MY02IPJZGDC3RV", "dateTime": 1515868681510}, {"current_trial": 240, "trialdata": {"rt": -1000, "trial_type": "single-audio", "word": "panther", "stimulus": "/static/audio/wordpool/PANTHER.wav", "conditions": [24, 800, "a", 12000], "internal_node_id": "0.0-177.0", "trial": 6, "time_elapsed": 1191252, "serialpos": 3, "key_press": -1, "wordID": 1008, "type": "PRES_AUD", "trial_index": 240}, "uniqueid": "MTK1383:3D3VGR7TA1MOXQ48MY02IPJZGDC3RV", "dateTime": 1515868683496}, {"current_trial": 241, "trialdata": {"rt": -1000, "trial_type": "single-audio", "word": "fungus", "stimulus": "/static/audio/wordpool/FUNGUS.wav", "conditions": [24, 800, "a", 12000], "internal_node_id": "0.0-178.0", "trial": 6, "time_elapsed