{"assignmentId": "3IFS6Q0HJJQFO8M4MQ7UC5QKL32ISK", "workerId": "MTK1546", "questiondata": {"origin": "United States", "strat-rehearsal": "84", "marital": "Married/Domestic Partnership", "education": "Associate degree", "ethnicity": "Not Hispanic", "color_depth": 24, "distracted": "No", "wrote-notes": "No", "strat-other": "", "screen_width": 1366, "avail_screen_width": 1366, "avail_screen_height": 728, "strat-image": "11", "language": "english", "gender": "Female", "age": "35", "gender_other": "", "race": ["White"], "strat-categorize": "26", "pixel_depth": 24, "strat-spatial": "29", "strat-story": "46", "race_other": "", "screen_height": 768}, "bonus": 0, "hitId": "3VW0145YLYJ6Y4VBU9R6NDAUPOUMJ7", "counterbalance": 386, "useragent": "Mozilla/5.0 (Windows NT 10.0; Win64; x64) AppleWebKit/537.36 (KHTML, like Gecko) Chrome/63.0.3239.132 Safari/537.36", "eventdata": [{"eventtype": "initialized", "interval": 0, "value": null, "timestamp": 1515963300753}, {"eventtype": "window_resize", "interval": 0, "value": [1366, 721], "timestamp": 1515963300753}, {"eventtype": "window_resize", "interval": 10210, "value": [1366, 677], "timestamp": 1515963310963}, {"eventtype": "focus", "interval": 126617, "value": "off", "timestamp": 1515963437580}, {"eventtype": "focus", "interval": 8203, "value": "on", "timestamp": 1515963445783}, {"eventtype": "focus", "interval": 843515, "value": "off", "timestamp": 1515964289298}, {"eventtype": "focus", "interval": 35538, "value": "on", "timestamp": 1515964324836}], "data": [{"current_trial": 0, "trialdata": {"rt": 77965, "trial_type": "text", "internal_node_id": "0.0-0.0", "time_elapsed": 77972, "key_press": 32, "type": "INSTRUCTIONS", "trial_index": 0}, "uniqueid": "MTK1546:3IFS6Q0HJJQFO8M4MQ7UC5QKL32ISK", "dateTime": 1515963380929}, {"current_trial": 1, "trialdata": {"rt": 52489, "trial_type": "text", "internal_node_id": "0.0-1.0", "time_elapsed": 130467, "key_press": 13, "type": "INSTRUCTIONS", "trial_index": 1}, "uniqueid": "MTK1546:3IFS6Q0HJJQFO8M4MQ7UC5QKL32ISK", "dateTime": 1515963433422}, {"current_trial": 2, "trialdata": {"rt": [26664], "trial_type": "audio-test", "responses": ["ocean"], "internal_node_id": "0.0-2.0", "time_elapsed": 157149, "type": "AUDIO_TEST", "trial_index": 2}, "uniqueid": "MTK1546:3IFS6Q0HJJQFO8M4MQ7UC5QKL32ISK", "dateTime": 1515963460104}, {"current_trial": 3, "trialdata": {"rt": [5371], "trial_type": "audio-test", "responses": ["crystal"], "internal_node_id": "0.0-3.0", "time_elapsed": 162531, "type": "AUDIO_TEST", "trial_index": 3}, "uniqueid": "MTK1546:3IFS6Q0HJJQFO8M4MQ7UC5QKL32ISK", "dateTime": 1515963465485}, {"current_trial": 4, "trialdata": {"rt": [6705], "trial_type": "audio-test", "responses": ["spice"], "internal_node_id": "0.0-4.0", "time_elapsed": 169246, "type": "AUDIO_TEST", "trial_index": 4}, "uniqueid": "MTK1546:3IFS6Q0HJJQFO8M4MQ7UC5QKL32ISK", "dateTime": 1515963472200}, {"current_trial": 5, "trialdata": {"rt": 16013, "trial_type": "survey-text", "responses": "{\"Q0\":\"5 a.m.\",\"Q1\":\"noon\",\"Q2\":\"5\"}", "internal_node_id": "0.0-5.0", "time_elapsed": 186016, "type": "SLEEP_SURVEY", "trial_index": 5}, "uniqueid": "MTK1546:3IFS6Q0HJJQFO8M4MQ7UC5QKL32ISK", "dateTime": 1515963488970}, {"current_trial": 6, "trialdata": {"rt": 47474, "trial_type": "text", "internal_node_id": "0.0-6.0", "time_elapsed": 234493, "key_press": 13, "type": "INSTRUCTIONS", "trial_index": 6}, "uniqueid": "MTK1546:3IFS6Q0HJJQFO8M4MQ7UC5QKL32ISK", "dateTime": 1515963537447}, {"current_trial": 7, "trialdata": {"rt": 31721, "trial_type": "text", "internal_node_id": "0.0-7.0", "time_elapsed": 266717, "key_press": 13, "type": "INSTRUCTIONS", "trial_index": 7}, "uniqueid": "MTK1546:3IFS6Q0HJJQFO8M4MQ7UC5QKL32ISK", "dateTime": 1515963569671}, {"current_trial": 8, "trialdata": {"rt": 17315, "trial_type": "text", "internal_node_id": "0.0-8.0", "time_elapsed": 284538, "key_press": 13, "type": "INSTRUCTIONS", "trial_index": 8}, "uniqueid": "MTK1546:3IFS6Q0HJJQFO8M4MQ7UC5QKL32ISK", "dateTime": 1515963587492}, {"current_trial": 9, "trialdata": {"rt": [3993, 6521, 8749, 10726, 13117, 14888, 16831], "trial_type": "math-distractor", "key_times": [3243, 3525, 3993, 5869, 6130, 6521, 8060, 8749, 10130, 10377, 10726, 12462, 12751, 13117, 14396, 14581, 14888, 16117, 16326, 16831], "responses": ["12", "14", "7", "14", "17", "11", "10"], "num2": [7, 2, 2, 1, 9, 2, 5, 9], "num3": [3, 9, 1, 4, 4, 3, 3, 1], "conditions": [18, 1200, "v", 18000], "internal_node_id": "0.0-9.0", "key_presses": [97, 98, 13, 97, 100, 13, 103, 13, 97, 100, 13, 97, 103, 13, 97, 97, 13, 97, 96, 13], "trial": 0, "time_elapsed": 303553, "type": "DISTRACTOR", "trial_index": 9, "num1": [2, 3, 4, 9, 4, 6, 2, 9]}, "uniqueid": "MTK1546:3IFS6Q0HJJQFO8M4MQ7UC5QKL32ISK", "dateTime": 1515963606507}, {"current_trial": 10, "trialdata": {"rt": -1, "trial_type": "single-stim", "stimulus": "<p id=\"stim\">10</p>", "internal_node_id": "0.0-10.0-0.0", "time_elapsed": 306560, "key_press": -1, "trial_index": 10}, "uniqueid": "MTK1546:3IFS6Q0HJJQFO8M4MQ7UC5QKL32ISK", "dateTime": 1515963609515}, {"current_trial": 11, "trialdata": {"rt": -1, "trial_type": "single-stim", "stimulus": "<p id=\"stim\">9</p>", "internal_node_id": "0.0-10.0-1.0", "time_elapsed": 307565, "key_press": -1, "trial_index": 11}, "uniqueid": "MTK1546:3IFS6Q0HJJQFO8M4MQ7UC5QKL32ISK", "dateTime": 1515963610519}, {"current_trial": 12, "trialdata": {"rt": -1, "trial_type": "single-stim", "stimulus": "<p id=\"stim\">8</p>", "internal_node_id": "0.0-10.0-2.0", "time_elapsed": 308568, "key_press": -1, "trial_index": 12}, "uniqueid": "MTK1546:3IFS6Q0HJJQFO8M4MQ7UC5QKL32ISK", "dateTime": 1515963611522}, {"current_trial": 13, "trialdata": {"rt": -1, "trial_type": "single-stim", "stimulus": "<p id=\"stim\">7</p>", "internal_node_id": "0.0-10.0-3.0", "time_elapsed": 309571, "key_press": -1, "trial_index": 13}, "uniqueid": "MTK1546:3IFS6Q0HJJQFO8M4MQ7UC5QKL32ISK", "dateTime": 1515963612525}, {"current_trial": 14, "trialdata": {"rt": -1, "trial_type": "single-stim", "stimulus": "<p id=\"stim\">6</p>", "internal_node_id": "0.0-10.0-4.0", "time_elapsed": 310574, "key_press": -1, "trial_index": 14}, "uniqueid": "MTK1546:3IFS6Q0HJJQFO8M4MQ7UC5QKL32ISK", "dateTime": 1515963613529}, {"current_trial": 15, "trialdata": {"rt": -1, "trial_type": "single-stim", "stimulus": "<p id=\"stim\">5</p>", "internal_node_id": "0.0-10.0-5.0", "time_elapsed": 311585, "key_press": -1, "trial_index": 15}, "uniqueid": "MTK1546:3IFS6Q0HJJQFO8M4MQ7UC5QKL32ISK", "dateTime": 1515963614539}, {"current_trial": 16, "trialdata": {"rt": -1, "trial_type": "single-stim", "stimulus": "<p id=\"stim\">4</p>", "internal_node_id": "0.0-10.0-6.0", "time_elapsed": 312588, "key_press": -1, "trial_index": 16}, "uniqueid": "MTK1546:3IFS6Q0HJJQFO8M4MQ7UC5QKL32ISK", "dateTime": 1515963615543}, {"current_trial": 17, "trialdata": {"rt": -1, "trial_type": "single-stim", "stimulus": "<p id=\"stim\">3</p>", "internal_node_id": "0.0-10.0-7.0", "time_elapsed": 313591, "key_press": -1, "trial_index": 17}, "uniqueid": "MTK1546:3IFS6Q0HJJQFO8M4MQ7UC5QKL32ISK", "dateTime": 1515963616546}, {"current_trial": 18, "trialdata": {"rt": -1, "trial_type": "single-stim", "stimulus": "<p id=\"stim\">2</p>", "internal_node_id": "0.0-10.0-8.0", "time_elapsed": 314594, "key_press": -1, "trial_index": 18}, "uniqueid": "MTK1546:3IFS6Q0HJJQFO8M4MQ7UC5QKL32ISK", "dateTime": 1515963617549}, {"current_trial": 19, "trialdata": {"rt": -1, "trial_type": "single-stim", "stimulus": "<p id=\"stim\">1</p>", "internal_node_id": "0.0-10.0-9.0", "time_elapsed": 315597, "key_press": -1, "trial_index": 19}, "uniqueid": "MTK1546:3IFS6Q0HJJQFO8M4MQ7UC5QKL32ISK", "dateTime": 1515963618552}, {"current_trial": 20, "trialdata": {"rt": -1, "trial_type": "single-stim", "stimulus": "<p id=\"stim\">+</p>", "internal_node_id": "0.0-11.0-0.0", "time_elapsed": 317101, "key_press": -1, "type": "FIXATION", "trial_index": 20}, "uniqueid": "MTK1546:3IFS6Q0HJJQFO8M4MQ7UC5QKL32ISK", "dateTime": 1515963620055}, {"current_trial": 21, "trialdata": {"rt": -1, "trial_type": "single-stim", "word": "clamp", "stimulus": "<p id=\"stim\">CLAMP</p>", "conditions": [18, 1200, "v", 18000], "internal_node_id": "0.0-12.0", "trial": 0, "time_elapsed": 318304, "serialpos": 0, "key_press": -1, "wordID": 315, "type": "PRES_VIS", "trial_index": 21}, "uniqueid": "MTK1546:3IFS6Q0HJJQFO8M4MQ7UC5QKL32ISK", "dateTime": 1515963621259}, {"current_trial": 22, "trialdata": {"rt": -1, "trial_type": "single-stim", "word": "breast", "stimulus": "<p id=\"stim\">BREAST</p>", "conditions": [18, 1200, "v", 18000], "internal_node_id": "0.0-13.0", "trial": 0, "time_elapsed": 320359, "serialpos": 1, "key_press": -1, "wordID": 170, "type": "PRES_VIS", "trial_index": 22}, "uniqueid": "MTK1546:3IFS6Q0HJJQFO8M4MQ7UC5QKL32ISK", "dateTime": 1515963623313}, {"current_trial": 23, "trialdata": {"rt": -1, "trial_type": "single-stim", "word": "popcorn", "stimulus": "<p id=\"stim\">POPCORN</p>", "conditions": [18, 1200, "v", 18000], "internal_node_id": "0.0-14.0", "trial": 0, "time_elapsed": 322381, "serialpos": 2, "key_press": -1, "wordID": 1103, "type": "PRES_VIS", "trial_index": 23}, "uniqueid": "MTK1546:3IFS6Q0HJJQFO8M4MQ7UC5QKL32ISK", "dateTime": 1515963625335}, {"current_trial": 24, "trialdata": {"rt": -1, "trial_type": "single-stim", "word": "flashlight", "stimulus": "<p id=\"stim\">FLASHLIGHT</p>", "conditions": [18, 1200, "v", 18000], "internal_node_id": "0.0-15.0", "trial": 0, "time_elapsed": 324738, "serialpos": 3, "key_press": -1, "wordID": 574, "type": "PRES_VIS", "trial_index": 24}, "uniqueid": "MTK1546:3IFS6Q0HJJQFO8M4MQ7UC5QKL32ISK", "dateTime": 1515963627693}, {"current_trial": 25, "trialdata": {"rt": -1, "trial_type": "single-stim", "word": "heart", "stimulus": "<p id=\"stim\">HEART</p>", "conditions": [18, 1200, "v", 18000], "internal_node_id": "0.0-16.0", "trial": 0, "time_elapsed": 327048, "serialpos": 4, "key_press": -1, "wordID": 696, "type": "PRES_VIS", "trial_index": 25}, "uniqueid": "MTK1546:3IFS6Q0HJJQFO8M4MQ7UC5QKL32ISK", "dateTime": 1515963630003}, {"current_trial": 26, "trialdata": {"rt": -1, "trial_type": "single-stim", "word": "lagoon", "stimulus": "<p id=\"stim\">LAGOON</p>", "conditions": [18, 1200, "v", 18000], "internal_node_id": "0.0-17.0", "trial": 0, "time_elapsed": 329381, "serialpos": 5, "key_press": -1, "wordID": 794, "type": "PRES_VIS", "trial_index": 26}, "uniqueid": "MTK1546:3IFS6Q0HJJQFO8M4MQ7UC5QKL32ISK", "dateTime": 1515963632335}, {"current_trial": 27, "trialdata": {"rt": -1, "trial_type": "single-stim", "word": "paper", "stimulus": "<p id=\"stim\">PAPER</p>", "conditions": [18, 1200, "v", 18000], "internal_node_id": "0.0-18.0", "trial": 0, "time_elapsed": 331472, "serialpos": 6, "key_press": -1, "wordID": 1010, "type": "PRES_VIS", "trial_index": 27}, "uniqueid": "MTK1546:3IFS6Q0HJJQFO8M4MQ7UC5QKL32ISK", "dateTime": 1515963634427}, {"current_trial": 28, "trialdata": {"rt": -1, "trial_type": "single-stim", "word": "boyfriend", "stimulus": "<p id=\"stim\">BOYFRIEND</p>", "conditions": [18, 1200, "v", 18000], "internal_node_id": "0.0-19.0", "trial": 0, "time_elapsed": 333796, "serialpos": 7, "key_press": -1, "wordID": 161, "type": "PRES_VIS", "trial_index": 28}, "uniqueid": "MTK1546:3IFS6Q0HJJQFO8M4MQ7UC5QKL32ISK", "dateTime": 1515963636750}, {"current_trial": 29, "trialdata": {"rt": -1, "trial_type": "single-stim", "word": "market", "stimulus": "<p id=\"stim\">MARKET</p>", "conditions": [18, 1200, "v", 18000], "internal_node_id": "0.0-20.0", "trial": 0, "time_elapsed": 335884, "serialpos": 8, "key_press": -1, "wordID": 870, "type": "PRES_VIS", "trial_index": 29}, "uniqueid": "MTK1546:3IFS6Q0HJJQFO8M4MQ7UC5QKL32ISK", "dateTime": 1515963638838}, {"current_trial": 30, "trialdata": {"rt": -1, "trial_type": "single-stim", "word": "slug", "stimulus": "<p id=\"stim\">SLUG</p>", "conditions": [18, 1200, "v", 18000], "internal_node_id": "0.0-21.0", "trial": 0, "time_elapsed": 338234, "serialpos": 9, "key_press": -1, "wordID": 1328, "type": "PRES_VIS", "trial_index": 30}, "uniqueid": "MTK1546:3IFS6Q0HJJQFO8M4MQ7UC5QKL32ISK", "dateTime": 1515963641189}, {"current_trial": 31, "trialdata": {"rt": -1, "trial_type": "single-stim", "word": "rug", "stimulus": "<p id=\"stim\">RUG</p>", "conditions": [18, 1200, "v", 18000], "internal_node_id": "0.0-22.0", "trial": 0, "time_elapsed": 340268, "serialpos": 10, "key_press": -1, "wordID": 1214, "type": "PRES_VIS", "trial_index": 31}, "uniqueid": "MTK1546:3IFS6Q0HJJQFO8M4MQ7UC5QKL32ISK", "dateTime": 1515963643222}, {"current_trial": 32, "trialdata": {"rt": -1, "trial_type": "single-stim", "word": "spool", "stimulus": "<p id=\"stim\">SPOOL</p>", "conditions": [18, 1200, "v", 18000], "internal_node_id": "0.0-23.0", "trial": 0, "time_elapsed": 342271, "serialpos": 11, "key_press": -1, "wordID": 1355, "type": "PRES_VIS", "trial_index": 32}, "uniqueid": "MTK1546:3IFS6Q0HJJQFO8M4MQ7UC5QKL32ISK", "dateTime": 1515963645226}, {"current_trial": 33, "trialdata": {"rt": -1, "trial_type": "single-stim", "word": "cousin", "stimulus": "<p id=\"stim\">COUSIN</p>", "conditions": [18, 1200, "v", 18000], "internal_node_id": "0.0-24.0", "trial": 0, "time_elapsed": 344635, "serialpos": 12, "key_press": -1, "wordID": 391, "type": "PRES_VIS", "trial_index": 33}, "uniqueid": "MTK1546:3IFS6Q0HJJQFO8M4MQ7UC5QKL32ISK", "dateTime": 1515963647589}, {"current_trial": 34, "trialdata": {"rt": -1, "trial_type": "single-stim", "word": "orange", "stimulus": "<p id=\"stim\">ORANGE</p>", "conditions": [18, 1200, "v", 18000], "internal_node_id": "0.0-25.0", "trial": 0, "time_elapsed": 346779, "serialpos": 13, "key_press": -1, "wordID": 979, "type": "PRES_VIS", "trial_index": 34}, "uniqueid": "MTK1546:3IFS6Q0HJJQFO8M4MQ7UC5QKL32ISK", "dateTime": 1515963649733}, {"current_trial": 35, "trialdata": {"rt": -1, "trial_type": "single-stim", "word": "comet", "stimulus": "<p id=\"stim\">COMET</p>", "conditions": [18, 1200, "v", 18000], "internal_node_id": "0.0-26.0", "trial": 0, "time_elapsed": 348841, "serialpos": 14, "key_press": -1, "wordID": 352, "type": "PRES_VIS", "trial_index": 35}, "uniqueid": "MTK1546:3IFS6Q0HJJQFO8M4MQ7UC5QKL32ISK", "dateTime": 1515963651795}, {"current_trial": 36, "trialdata": {"rt": -1, "trial_type": "single-stim", "word": "cricket", "stimulus": "<p id=\"stim\">CRICKET</p>", "conditions": [18, 1200, "v", 18000], "internal_node_id": "0.0-27.0", "trial": 0, "time_elapsed": 351154, "serialpos": 15, "key_press": -1, "wordID": 407, "type": "PRES_VIS", "trial_index": 36}, "uniqueid": "MTK1546:3IFS6Q0HJJQFO8M4MQ7UC5QKL32ISK", "dateTime": 1515963654108}, {"current_trial": 37, "trialdata": {"rt": -1, "trial_type": "single-stim", "word": "witness", "stimulus": "<p id=\"stim\">WITNESS</p>", "conditions": [18, 1200, "v", 18000], "internal_node_id": "0.0-28.0", "trial": 0, "time_elapsed": 353554, "serialpos": 16, "key_press": -1, "wordID": 1617, "type": "PRES_VIS", "trial_index": 37}, "uniqueid": "MTK1546:3IFS6Q0HJJQFO8M4MQ7UC5QKL32ISK", "dateTime": 1515963656508}, {"current_trial": 38, "trialdata": {"rt": -1, "trial_type": "single-stim", "word": "cobra", "stimulus": "<p id=\"stim\">COBRA</p>", "conditions": [18, 1200, "v", 18000], "internal_node_id": "0.0-29.0", "trial": 0, "time_elapsed": 355877, "serialpos": 17, "key_press": -1, "wordID": 335, "type": "PRES_VIS", "trial_index": 38}, "uniqueid": "MTK1546:3IFS6Q0HJJQFO8M4MQ7UC5QKL32ISK", "dateTime": 1515963658831}, {"current_trial": 39, "trialdata": {"rt": -1, "trial_type": "single-stim", "stimulus": "", "internal_node_id": "0.0-30.0-0.0", "time_elapsed": 358223, "key_press": -1, "type": "PRE_RECALL_DELAY", "trial_index": 39}, "uniqueid": "MTK1546:3IFS6Q0HJJQFO8M4MQ7UC5QKL32ISK", "dateTime": 1515963661177}, {"current_trial": 40, "trialdata": {"rt": -1000, "trial_type": "single-audio", "stimulus": "/static/audio/400Hz.wav", "internal_node_id": "0.0-31.0", "time_elapsed": 358734, "key_press": -1, "type": "PRE_RECALL_ALERT", "trial_index": 40}, "uniqueid": "MTK1546:3IFS6Q0HJJQFO8M4MQ7UC5QKL32ISK", "dateTime": 1515963661688}, {"current_trial": 41, "trialdata": {"rt": [3284, 4331, 5231, 7048, 8060, 10638, 13912, 16275], "recwords": ["slug", "rug", "comet", "orange", "breast", "clamp", "boyfriend", "comet"], "key_times": [2412, 2542, 2812, 2920, 3284, 3850, 3992, 4115, 4331, 4646, 4747, 4864, 4977, 5091, 5231, 5528, 5664, 5813, 5922, 6073, 6191, 7048, 7430, 7517, 7603, 7679, 7771, 7874, 8060, 8302, 8494, 8634, 8743, 8917, 10638, 12486, 12631, 12698, 12960, 13198, 13274, 13366, 13539, 13665, 13912, 15743, 15872, 15968, 16053, 16144, 16275], "trial_type": "free-recall", "conditions": [18, 1200, "v", 18000], "internal_node_id": "0.0-32.0-0.0", "key_presses": [83, 76, 85, 71, 13, 82, 85, 71, 13, 67, 79, 77, 69, 84, 13, 79, 82, 65, 78, 71, 69, 13, 66, 82, 69, 65, 83, 84, 13, 67, 76, 65, 77, 80, 13, 66, 79, 89, 70, 82, 73, 69, 78, 68, 13, 67, 79, 77, 69, 84, 13], "trial": 0, "time_elapsed": 418744, "type": "FREE_RECALL", "trial_index": 41}, "uniqueid": "MTK1546:3IFS6Q0HJJQFO8M4MQ7UC5QKL32ISK", "dateTime": 1515963721719}, {"current_trial": 42, "trialdata": {"rt": 2574, "trial_type": "text", "internal_node_id": "0.0-33.0", "time_elapsed": 423340, "key_press": 13, "type": "INSTRUCTIONS", "trial_index": 42}, "uniqueid": "MTK1546:3IFS6Q0HJJQFO8M4MQ7UC5QKL32ISK", "dateTime": 1515963726295}, {"current_trial": 43, "trialdata": {"rt": [3964, 6858, 11083, 13339, 15122, 17025], "trial_type": "math-distractor", "key_times": [3559, 3964, 5858, 6103, 6858, 8739, 9648, 10144, 10402, 11083, 12470, 12674, 13339, 14558, 14784, 15122, 16599, 16790, 17025], "responses": ["9", "11", "17", "14", "12", "20"], "num2": [5, 5, 1, 5, 4, 4, 3], "num3": [3, 3, 9, 8, 7, 8, 8], "conditions": [18, 1200, "v", 18000], "internal_node_id": "0.0-34.0", "key_presses": [105, 13, 97, 97, 13, 103, 8, 97, 103, 13, 97, 100, 13, 97, 98, 13, 98, 96, 13], "trial": 1, "time_elapsed": 443349, "type": "DISTRACTOR", "trial_index": 43, "num1": [1, 3, 7, 1, 1, 8, 5]}, "uniqueid": "MTK1546:3IFS6Q0HJJQFO8M4MQ7UC5QKL32ISK", "dateTime": 1515963746303}, {"current_trial": 44, "trialdata": {"rt": -1, "trial_type": "single-stim", "stimulus": "<p id=\"stim\">10</p>", "internal_node_id": "0.0-35.0-0.0", "time_elapsed": 446351, "key_press": -1, "trial_index": 44}, "uniqueid": "MTK1546:3IFS6Q0HJJQFO8M4MQ7UC5QKL32ISK", "dateTime": 1515963749305}, {"current_trial": 45, "trialdata": {"rt": -1, "trial_type": "single-stim", "stimulus": "<p id=\"stim\">9</p>", "internal_node_id": "0.0-35.0-1.0", "time_elapsed": 447352, "key_press": -1, "trial_index": 45}, "uniqueid": "MTK1546:3IFS6Q0HJJQFO8M4MQ7UC5QKL32ISK", "dateTime": 1515963750307}, {"current_trial": 46, "trialdata": {"rt": -1, "trial_type": "single-stim", "stimulus": "<p id=\"stim\">8</p>", "internal_node_id": "0.0-35.0-2.0", "time_elapsed": 448354, "key_press": -1, "trial_index": 46}, "uniqueid": "MTK1546:3IFS6Q0HJJQFO8M4MQ7UC5QKL32ISK", "dateTime": 1515963751308}, {"current_trial": 47, "trialdata": {"rt": -1, "trial_type": "single-stim", "stimulus": "<p id=\"stim\">7</p>", "internal_node_id": "0.0-35.0-3.0", "time_elapsed": 449358, "key_press": -1, "trial_index": 47}, "uniqueid": "MTK1546:3IFS6Q0HJJQFO8M4MQ7UC5QKL32ISK", "dateTime": 1515963752313}, {"current_trial": 48, "trialdata": {"rt": -1, "trial_type": "single-stim", "stimulus": "<p id=\"stim\">6</p>", "internal_node_id": "0.0-35.0-4.0", "time_elapsed": 450361, "key_press": -1, "trial_index": 48}, "uniqueid": "MTK1546:3IFS6Q0HJJQFO8M4MQ7UC5QKL32ISK", "dateTime": 1515963753316}, {"current_trial": 49, "trialdata": {"rt": -1, "trial_type": "single-stim", "stimulus": "<p id=\"stim\">5</p>", "internal_node_id": "0.0-35.0-5.0", "time_elapsed": 451363, "key_press": -1, "trial_index": 49}, "uniqueid": "MTK1546:3IFS6Q0HJJQFO8M4MQ7UC5QKL32ISK", "dateTime": 1515963754318}, {"current_trial": 50, "trialdata": {"rt": -1, "trial_type": "single-stim", "stimulus": "<p id=\"stim\">4</p>", "internal_node_id": "0.0-35.0-6.0", "time_elapsed": 452365, "key_press": -1, "trial_index": 50}, "uniqueid": "MTK1546:3IFS6Q0HJJQFO8M4MQ7UC5QKL32ISK", "dateTime": 1515963755320}, {"current_trial": 51, "trialdata": {"rt": -1, "trial_type": "single-stim", "stimulus": "<p id=\"stim\">3</p>", "internal_node_id": "0.0-35.0-7.0", "time_elapsed": 453368, "key_press": -1, "trial_index": 51}, "uniqueid": "MTK1546:3IFS6Q0HJJQFO8M4MQ7UC5QKL32ISK", "dateTime": 1515963756323}, {"current_trial": 52, "trialdata": {"rt": -1, "trial_type": "single-stim", "stimulus": "<p id=\"stim\">2</p>", "internal_node_id": "0.0-35.0-8.0", "time_elapsed": 454372, "key_press": -1, "trial_index": 52}, "uniqueid": "MTK1546:3IFS6Q0HJJQFO8M4MQ7UC5QKL32ISK", "dateTime": 1515963757327}, {"current_trial": 53, "trialdata": {"rt": -1, "trial_type": "single-stim", "stimulus": "<p id=\"stim\">1</p>", "internal_node_id": "0.0-35.0-9.0", "time_elapsed": 455375, "key_press": -1, "trial_index": 53}, "uniqueid": "MTK1546:3IFS6Q0HJJQFO8M4MQ7UC5QKL32ISK", "dateTime": 1515963758330}, {"current_trial": 54, "trialdata": {"rt": -1, "trial_type": "single-stim", "stimulus": "<p id=\"stim\">+</p>", "internal_node_id": "0.0-36.0-0.0", "time_elapsed": 456877, "key_press": -1, "type": "FIXATION", "trial_index": 54}, "uniqueid": "MTK1546:3IFS6Q0HJJQFO8M4MQ7UC5QKL32ISK", "dateTime": 1515963759832}, {"current_trial": 55, "trialdata": {"rt": -1, "trial_type": "single-stim", "word": "jello", "stimulus": "<p id=\"stim\">JELLO</p>", "conditions": [18, 1200, "v", 18000], "internal_node_id": "0.0-37.0", "trial": 1, "time_elapsed": 458079, "serialpos": 0, "key_press": -1, "wordID": 753, "type": "PRES_VIS", "trial_index": 55}, "uniqueid": "MTK1546:3IFS6Q0HJJQFO8M4MQ7UC5QKL32ISK", "dateTime": 1515963761034}, {"current_trial": 56, "trialdata": {"rt": -1, "trial_type": "single-stim", "word": "princess", "stimulus": "<p id=\"stim\">PRINCESS</p>", "conditions": [18, 1200, "v", 18000], "internal_node_id": "0.0-38.0", "trial": 1, "time_elapsed": 460100, "serialpos": 1, "key_press": -1, "wordID": 1124, "type": "PRES_VIS", "trial_index": 56}, "uniqueid": "MTK1546:3IFS6Q0HJJQFO8M4MQ7UC5QKL32ISK", "dateTime": 1515963763054}, {"current_trial": 57, "trialdata": {"rt": -1, "trial_type": "single-stim", "word": "leg", "stimulus": "<p id=\"stim\">LEG</p>", "conditions": [18, 1200, "v", 18000], "internal_node_id": "0.0-39.0", "trial": 1, "time_elapsed": 462470, "serialpos": 2, "key_press": -1, "wordID": 808, "type": "PRES_VIS", "trial_index": 57}, "uniqueid": "MTK1546:3IFS6Q0HJJQFO8M4MQ7UC5QKL32ISK", "dateTime": 1515963765425}, {"current_trial": 58, "trialdata": {"rt": -1, "trial_type": "single-stim", "word": "cross", "stimulus": "<p id=\"stim\">CROSS</p>", "conditions": [18, 1200, "v", 18000], "internal_node_id": "0.0-40.0", "trial": 1, "time_elapsed": 464690, "serialpos": 3, "key_press": -1, "wordID": 412, "type": "PRES_VIS", "trial_index": 58}, "uniqueid": "MTK1546:3IFS6Q0HJJQFO8M4MQ7UC5QKL32ISK", "dateTime": 1515963767645}, {"current_trial": 59, "trialdata": {"rt": -1, "trial_type": "single-stim", "word": "marrow", "stimulus": "<p id=\"stim\">MARROW</p>", "conditions": [18, 1200, "v", 18000], "internal_node_id": "0.0-41.0", "trial": 1, "time_elapsed": 466849, "serialpos": 4, "key_press": -1, "wordID": 871, "type": "PRES_VIS", "trial_index": 59}, "uniqueid": "MTK1546:3IFS6Q0HJJQFO8M4MQ7UC5QKL32ISK", "dateTime": 1515963769803}, {"current_trial": 60, "trialdata": {"rt": -1, "trial_type": "single-stim", "word": "juggler", "stimulus": "<p id=\"stim\">JUGGLER</p>", "conditions": [18, 1200, "v", 18000], "internal_node_id": "0.0-42.0", "trial": 1, "time_elapsed": 468980, "serialpos": 5, "key_press": -1, "wordID": 762, "type": "PRES_VIS", "trial_index": 60}, "uniqueid": "MTK1546:3IFS6Q0HJJQFO8M4MQ7UC5QKL32ISK", "dateTime": 1515963771935}, {"current_trial": 61, "trialdata": {"rt": -1, "trial_type": "single-stim", "word": "atlas", "stimulus": "<p id=\"stim\">ATLAS</p>", "conditions": [18, 1200, "v", 18000], "internal_node_id": "0.0-43.0", "trial": 1, "time_elapsed": 471063, "serialpos": 6, "key_press": -1, "wordID": 52, "type": "PRES_VIS", "trial_index": 61}, "uniqueid": "MTK1546:3IFS6Q0HJJQFO8M4MQ7UC5QKL32ISK", "dateTime": 1515963774017}, {"current_trial": 62, "trialdata": {"rt": -1, "trial_type": "single-stim", "word": "queen", "stimulus": "<p id=\"stim\">QUEEN</p>", "conditions": [18, 1200, "v", 18000], "internal_node_id": "0.0-44.0", "trial": 1, "time_elapsed": 473282, "serialpos": 7, "key_press": -1, "wordID": 1148, "type": "PRES_VIS", "trial_index": 62}, "uniqueid": "MTK1546:3IFS6Q0HJJQFO8M4MQ7UC5QKL32ISK", "dateTime": 1515963776237}, {"current_trial": 63, "trialdata": {"rt": -1, "trial_type": "single-stim", "word": "london", "stimulus": "<p id=\"stim\">LONDON</p>", "conditions": [18, 1200, "v", 18000], "internal_node_id": "0.0-45.0", "trial": 1, "time_elapsed": 475508, "serialpos": 8, "key_press": -1, "wordID": 842, "type": "PRES_VIS", "trial_index": 63}, "uniqueid": "MTK1546:3IFS6Q0HJJQFO8M4MQ7UC5QKL32ISK", "dateTime": 1515963778462}, {"current_trial": 64, "trialdata": {"rt": -1, "trial_type": "single-stim", "word": "sparrow", "stimulus": "<p id=\"stim\">SPARROW</p>", "conditions": [18, 1200, "v", 18000], "internal_node_id": "0.0-46.0", "trial": 1, "time_elapsed": 477824, "serialpos": 9, "key_press": -1, "wordID": 1346, "type": "PRES_VIS", "trial_index": 64}, "uniqueid": "MTK1546:3IFS6Q0HJJQFO8M4MQ7UC5QKL32ISK", "dateTime": 1515963780779}, {"current_trial": 65, "trialdata": {"rt": -1, "trial_type": "single-stim", "word": "scribble", "stimulus": "<p id=\"stim\">SCRIBBLE</p>", "conditions": [18, 1200, "v", 18000], "internal_node_id": "0.0-47.0", "trial": 1, "time_elapsed": 479925, "serialpos": 10, "key_press": -1, "wordID": 1255, "type": "PRES_VIS", "trial_index": 65}, "uniqueid": "MTK1546:3IFS6Q0HJJQFO8M4MQ7UC5QKL32ISK", "dateTime": 1515963782879}, {"current_trial": 66, "trialdata": {"rt": -1, "trial_type": "single-stim", "word": "table", "stimulus": "<p id=\"stim\">TABLE</p>", "conditions": [18, 1200, "v", 18000], "internal_node_id": "0.0-48.0", "trial": 1, "time_elapsed": 482276, "serialpos": 11, "key_press": -1, "wordID": 1425, "type": "PRES_VIS", "trial_index": 66}, "uniqueid": "MTK1546:3IFS6Q0HJJQFO8M4MQ7UC5QKL32ISK", "dateTime": 1515963785230}, {"current_trial": 67, "trialdata": {"rt": -1, "trial_type": "single-stim", "word": "lily", "stimulus": "<p id=\"stim\">LILY</p>", "conditions": [18, 1200, "v", 18000], "internal_node_id": "0.0-49.0", "trial": 1, "time_elapsed": 484638, "serialpos": 12, "key_press": -1, "wordID": 820, "type": "PRES_VIS", "trial_index": 67}, "uniqueid": "MTK1546:3IFS6Q0HJJQFO8M4MQ7UC5QKL32ISK", "dateTime": 1515963787593}, {"current_trial": 68, "trialdata": {"rt": -1, "trial_type": "single-stim", "word": "umpire", "stimulus": "<p id=\"stim\">UMPIRE</p>", "conditions": [18, 1200, "v", 18000], "internal_node_id": "0.0-50.0", "trial": 1, "time_elapsed": 487006, "serialpos": 13, "key_press": -1, "wordID": 1534, "type": "PRES_VIS", "trial_index": 68}, "uniqueid": "MTK1546:3IFS6Q0HJJQFO8M4MQ7UC5QKL32ISK", "dateTime": 1515963789968}, {"current_trial": 69, "trialdata": {"rt": -1, "trial_type": "single-stim", "word": "honey", "stimulus": "<p id=\"stim\">HONEY</p>", "conditions": [18, 1200, "v", 18000], "internal_node_id": "0.0-51.0", "trial": 1, "time_elapsed": 489373, "serialpos": 14, "key_press": -1, "wordID": 712, "type": "PRES_VIS", "trial_index": 69}, "uniqueid": "MTK1546:3IFS6Q0HJJQFO8M4MQ7UC5QKL32ISK", "dateTime": 1515963792328}, {"current_trial": 70, "trialdata": {"rt": -1, "trial_type": "single-stim", "word": "slope", "stimulus": "<p id=\"stim\">SLOPE</p>", "conditions": [18, 1200, "v", 18000], "internal_node_id": "0.0-52.0", "trial": 1, "time_elapsed": 491760, "serialpos": 15, "key_press": -1, "wordID": 1327, "type": "PRES_VIS", "trial_index": 70}, "uniqueid": "MTK1546:3IFS6Q0HJJQFO8M4MQ7UC5QKL32ISK", "dateTime": 1515963794714}, {"current_trial": 71, "trialdata": {"rt": -1, "trial_type": "single-stim", "word": "beaker", "stimulus": "<p id=\"stim\">BEAKER</p>", "conditions": [18, 1200, "v", 18000], "internal_node_id": "0.0-53.0", "trial": 1, "time_elapsed": 493929, "serialpos": 16, "key_press": -1, "wordID": 103, "type": "PRES_VIS", "trial_index": 71}, "uniqueid": "MTK1546:3IFS6Q0HJJQFO8M4MQ7UC5QKL32ISK", "dateTime": 1515963796883}, {"current_trial": 72, "trialdata": {"rt": -1, "trial_type": "single-stim", "word": "lettuce", "stimulus": "<p id=\"stim\">LETTUCE</p>", "conditions": [18, 1200, "v", 18000], "internal_node_id": "0.0-54.0", "trial": 1, "time_elapsed": 496156, "serialpos": 17, "key_press": -1, "wordID": 813, "type": "PRES_VIS", "trial_index": 72}, "uniqueid": "MTK1546:3IFS6Q0HJJQFO8M4MQ7UC5QKL32ISK", "dateTime": 1515963799110}, {"current_trial": 73, "trialdata": {"rt": -1, "trial_type": "single-stim", "stimulus": "", "internal_node_id": "0.0-55.0-0.0", "time_elapsed": 498373, "key_press": -1, "type": "PRE_RECALL_DELAY", "trial_index": 73}, "uniqueid": "MTK1546:3IFS6Q0HJJQFO8M4MQ7UC5QKL32ISK", "dateTime": 1515963801327}, {"current_trial": 74, "trialdata": {"rt": -1000, "trial_type": "single-audio", "stimulus": "/static/audio/400Hz.wav", "internal_node_id": "0.0-56.0", "time_elapsed": 498880, "key_press": -1, "type": "PRE_RECALL_ALERT", "trial_index": 74}, "uniqueid": "MTK1546:3IFS6Q0HJJQFO8M4MQ7UC5QKL32ISK", "dateTime": 1515963801834}, {"current_trial": 75, "trialdata": {"rt": [1152, 2447, 3404, 5019, 9038, 11141, 12714, 13952, 16777, 18872, 32537], "recwords": ["honey", "slope", "beaker", "lettue", "sparrow", "princess", "queen", "london", "table", "scribble", "beaker"], "key_times": [551, 642, 781, 847, 949, 1152, 1351, 1471, 1746, 2105, 2260, 2447, 2736, 2833, 2950, 3050, 3182, 3273, 3404, 3789, 3951, 4056, 4220, 4322, 4674, 5019, 7989, 8108, 8242, 8357, 8547, 8662, 8766, 9038, 10052, 10144, 10298, 10391, 10488, 10633, 10737, 10944, 11141, 11855, 11999, 12176, 12376, 12476, 12714, 13002, 13278, 13355, 13473, 13615, 13698, 13952, 15940, 16099, 16186, 16398, 16550, 16777, 17497, 17628, 17857, 17919, 18118, 18308, 18532, 18632, 18872, 31806, 31955, 32072, 32136, 32272, 32359, 32537], "trial_type": "free-recall", "conditions": [18, 1200, "v", 18000], "internal_node_id": "0.0-57.0-0.0", "key_presses": [72, 79, 78, 69, 89, 13, 83, 76, 79, 80, 69, 13, 66, 69, 65, 75, 69, 82, 13, 76, 69, 84, 84, 85, 69, 13, 83, 80, 65, 82, 82, 79, 87, 13, 80, 82, 73, 78, 67, 69, 83, 83, 13, 81, 85, 69, 69, 78, 13, 76, 79, 78, 68, 79, 78, 13, 84, 65, 66, 76, 69, 13, 83, 67, 82, 73, 66, 66, 76, 69, 13, 66, 69, 65, 75, 69, 82, 13], "trial": 1, "time_elapsed": 558889, "type": "FREE_RECALL", "trial_index": 75}, "uniqueid": "MTK1546:3IFS6Q0HJJQFO8M4MQ7UC5QKL32ISK", "dateTime": 1515963861862}, {"current_trial": 76, "trialdata": {"rt": 7616, "trial_type": "text", "internal_node_id": "0.0-58.0", "time_elapsed": 568526, "key_press": 13, "type": "INSTRUCTIONS", "trial_index": 76}, "uniqueid": "MTK1546:3IFS6Q0HJJQFO8M4MQ7UC5QKL32ISK", "dateTime": 1515963871480}, {"current_trial": 77, "trialdata": {"rt": [2113, 3978, 6024, 7706, 9409, 11083, 12883, 15943, 17595, 19483, 21077, 22573], "trial_type": "math-distractor", "key_times": [1580, 1841, 2113, 3321, 3482, 3978, 5519, 5737, 6024, 7397, 7706, 9089, 9409, 10617, 10815, 11083, 12269, 12578, 12883, 15397, 15589, 15943, 17126, 17316, 17595, 18921, 19148, 19483, 20633, 20795, 21077, 22095, 22290, 22573, 23686, 23848], "responses": ["13", "11", "16", "9", "7", "12", "16", "18", "12", "17", "11", "14"], "num2": [6, 4, 9, 6, 2, 8, 7, 8, 2, 5, 7, 5, 4], "num3": [4, 1, 2, 1, 4, 1, 7, 4, 5, 6, 3, 1, 6], "conditions": [12, 800, "v", 24000], "internal_node_id": "0.0-59.0", "key_presses": [97, 99, 13, 97, 97, 13, 97, 102, 13, 105, 13, 103, 13, 97, 98, 13, 97, 102, 13, 97, 104, 13, 97, 98, 13, 97, 103, 13, 97, 97, 13, 97, 100, 13, 97, 97], "trial": 2, "time_elapsed": 593535, "type": "DISTRACTOR", "trial_index": 77, "num1": [3, 6, 5, 2, 1, 3, 2, 6, 5, 6, 1, 8, 1]}, "uniqueid": "MTK1546:3IFS6Q0HJJQFO8M4MQ7UC5QKL32ISK", "dateTime": 1515963896489}, {"current_trial": 78, "trialdata": {"rt": -1, "trial_type": "single-stim", "stimulus": "<p id=\"stim\">10</p>", "internal_node_id": "0.0-60.0-0.0", "time_elapsed": 596539, "key_press": -1, "trial_index": 78}, "uniqueid": "MTK1546:3IFS6Q0HJJQFO8M4MQ7UC5QKL32ISK", "dateTime": 1515963899493}, {"current_trial": 79, "trialdata": {"rt": -1, "trial_type": "single-stim", "stimulus": "<p id=\"stim\">9</p>", "internal_node_id": "0.0-60.0-1.0", "time_elapsed": 597542, "key_press": -1, "trial_index": 79}, "uniqueid": "MTK1546:3IFS6Q0HJJQFO8M4MQ7UC5QKL32ISK", "dateTime": 1515963900496}, {"current_trial": 80, "trialdata": {"rt": -1, "trial_type": "single-stim", "stimulus": "<p id=\"stim\">8</p>", "internal_node_id": "0.0-60.0-2.0", "time_elapsed": 598546, "key_press": -1, "trial_index": 80}, "uniqueid": "MTK1546:3IFS6Q0HJJQFO8M4MQ7UC5QKL32ISK", "dateTime": 1515963901500}, {"current_trial": 81, "trialdata": {"rt": -1, "trial_type": "single-stim", "stimulus": "<p id=\"stim\">7</p>", "internal_node_id": "0.0-60.0-3.0", "time_elapsed": 599551, "key_press": -1, "trial_index": 81}, "uniqueid": "MTK1546:3IFS6Q0HJJQFO8M4MQ7UC5QKL32ISK", "dateTime": 1515963902505}, {"current_trial": 82, "trialdata": {"rt": -1, "trial_type": "single-stim", "stimulus": "<p id=\"stim\">6</p>", "internal_node_id": "0.0-60.0-4.0", "time_elapsed": 600556, "key_press": -1, "trial_index": 82}, "uniqueid": "MTK1546:3IFS6Q0HJJQFO8M4MQ7UC5QKL32ISK", "dateTime": 1515963903510}, {"current_trial": 83, "trialdata": {"rt": -1, "trial_type": "single-stim", "stimulus": "<p id=\"stim\">5</p>", "internal_node_id": "0.0-60.0-5.0", "time_elapsed": 601558, "key_press": -1, "trial_index": 83}, "uniqueid": "MTK1546:3IFS6Q0HJJQFO8M4MQ7UC5QKL32ISK", "dateTime": 1515963904513}, {"current_trial": 84, "trialdata": {"rt": -1, "trial_type": "single-stim", "stimulus": "<p id=\"stim\">4</p>", "internal_node_id": "0.0-60.0-6.0", "time_elapsed": 602565, "key_press": -1, "trial_index": 84}, "uniqueid": "MTK1546:3IFS6Q0HJJQFO8M4MQ7UC5QKL32ISK", "dateTime": 1515963905519}, {"current_trial": 85, "trialdata": {"rt": -1, "trial_type": "single-stim", "stimulus": "<p id=\"stim\">3</p>", "internal_node_id": "0.0-60.0-7.0", "time_elapsed": 603568, "key_press": -1, "trial_index": 85}, "uniqueid": "MTK1546:3IFS6Q0HJJQFO8M4MQ7UC5QKL32ISK", "dateTime": 1515963906522}, {"current_trial": 86, "trialdata": {"rt": -1, "trial_type": "single-stim", "stimulus": "<p id=\"stim\">2</p>", "internal_node_id": "0.0-60.0-8.0", "time_elapsed": 604572, "key_press": -1, "trial_index": 86}, "uniqueid": "MTK1546:3IFS6Q0HJJQFO8M4MQ7UC5QKL32ISK", "dateTime": 1515963907526}, {"current_trial": 87, "trialdata": {"rt": -1, "trial_type": "single-stim", "stimulus": "<p id=\"stim\">1</p>", "internal_node_id": "0.0-60.0-9.0", "time_elapsed": 605575, "key_press": -1, "trial_index": 87}, "uniqueid": "MTK1546:3IFS6Q0HJJQFO8M4MQ7UC5QKL32ISK", "dateTime": 1515963908532}, {"current_trial": 88, "trialdata": {"rt": -1, "trial_type": "single-stim", "stimulus": "<p id=\"stim\">+</p>", "internal_node_id": "0.0-61.0-0.0", "time_elapsed": 607080, "key_press": -1, "type": "FIXATION", "trial_index": 88}, "uniqueid": "MTK1546:3IFS6Q0HJJQFO8M4MQ7UC5QKL32ISK", "dateTime": 1515963910034}, {"current_trial": 89, "trialdata": {"rt": -1, "trial_type": "single-stim", "word": "tart", "stimulus": "<p id=\"stim\">TART</p>", "conditions": [12, 800, "v", 24000], "internal_node_id": "0.0-62.0", "trial": 2, "time_elapsed": 607882, "serialpos": 0, "key_press": -1, "wordID": 1435, "type": "PRES_VIS", "trial_index": 89}, "uniqueid": "MTK1546:3IFS6Q0HJJQFO8M4MQ7UC5QKL32ISK", "dateTime": 1515963910837}, {"current_trial": 90, "trialdata": {"rt": -1, "trial_type": "single-stim", "word": "country", "stimulus": "<p id=\"stim\">COUNTRY</p>", "conditions": [12, 800, "v", 24000], "internal_node_id": "0.0-63.0", "trial": 2, "time_elapsed": 609781, "serialpos": 1, "key_press": -1, "wordID": 387, "type": "PRES_VIS", "trial_index": 90}, "uniqueid": "MTK1546:3IFS6Q0HJJQFO8M4MQ7UC5QKL32ISK", "dateTime": 1515963912736}, {"current_trial": 91, "trialdata": {"rt": -1, "trial_type": "single-stim", "word": "blade", "stimulus": "<p id=\"stim\">BLADE</p>", "conditions": [12, 800, "v", 24000], "internal_node_id": "0.0-64.0", "trial": 2, "time_elapsed": 611745, "serialpos": 2, "key_press": -1, "wordID": 133, "type": "PRES_VIS", "trial_index": 91}, "uniqueid": "MTK1546:3IFS6Q0HJJQFO8M4MQ7UC5QKL32ISK", "dateTime": 1515963914700}, {"current_trial": 92, "trialdata": {"rt": -1, "trial_type": "single-stim", "word": "shovel", "stimulus": "<p id=\"stim\">SHOVEL</p>", "conditions": [12, 800, "v", 24000], "internal_node_id": "0.0-65.0", "trial": 2, "time_elapsed": 613711, "serialpos": 3, "key_press": -1, "wordID": 1294, "type": "PRES_VIS", "trial_index": 92}, "uniqueid": "MTK1546:3IFS6Q0HJJQFO8M4MQ7UC5QKL32ISK", "dateTime": 1515963916668}, {"current_trial": 93, "trialdata": {"rt": -1, "trial_type": "single-stim", "word": "blockade", "stimulus": "<p id=\"stim\">BLOCKADE</p>", "conditions": [12, 800, "v", 24000], "internal_node_id": "0.0-66.0", "trial": 2, "time_elapsed": 615498, "serialpos": 4, "key_press": -1, "wordID": 136, "type": "PRES_VIS", "trial_index": 93}, "uniqueid": "MTK1546:3IFS6Q0HJJQFO8M4MQ7UC5QKL32ISK", "dateTime": 1515963918452}, {"current_trial": 94, "trialdata": {"rt": -1, "trial_type": "single-stim", "word": "lizard", "stimulus": "<p id=\"stim\">LIZARD</p>", "conditions": [12, 800, "v", 24000], "internal_node_id": "0.0-67.0", "trial": 2, "time_elapsed": 617349, "serialpos": 5, "key_press": -1, "wordID": 833, "type": "PRES_VIS", "trial_index": 94}, "uniqueid": "MTK1546:3IFS6Q0HJJQFO8M4MQ7UC5QKL32ISK", "dateTime": 1515963920304}, {"current_trial": 95, "trialdata": {"rt": -1, "trial_type": "single-stim", "word": "spider", "stimulus": "<p id=\"stim\">SPIDER</p>", "conditions": [12, 800, "v", 24000], "internal_node_id": "0.0-68.0", "trial": 2, "time_elapsed": 619087, "serialpos": 6, "key_press": -1, "wordID": 1350, "type": "PRES_VIS", "trial_index": 95}, "uniqueid": "MTK1546:3IFS6Q0HJJQFO8M4MQ7UC5QKL32ISK", "dateTime": 1515963922041}, {"current_trial": 96, "trialdata": {"rt": -1, "trial_type": "single-stim", "word": "switch", "stimulus": "<p id=\"stim\">SWITCH</p>", "conditions": [12, 800, "v", 24000], "internal_node_id": "0.0-69.0", "trial": 2, "time_elapsed": 620977, "serialpos": 7, "key_press": -1, "wordID": 1421, "type": "PRES_VIS", "trial_index": 96}, "uniqueid": "MTK1546:3IFS6Q0HJJQFO8M4MQ7UC5QKL32ISK", "dateTime": 1515963923931}, {"current_trial": 97, "trialdata": {"rt": -1, "trial_type": "single-stim", "word": "dress", "stimulus": "<p id=\"stim\">DRESS</p>", "conditions": [12, 800, "v", 24000], "internal_node_id": "0.0-70.0", "trial": 2, "time_elapsed": 622629, "serialpos": 8, "key_press": -1, "wordID": 494, "type": "PRES_VIS", "trial_index": 97}, "uniqueid": "MTK1546:3IFS6Q0HJJQFO8M4MQ7UC5QKL32ISK", "dateTime": 1515963925584}, {"current_trial": 98, "trialdata": {"rt": -1, "trial_type": "single-stim", "word": "world", "stimulus": "<p id=\"stim\">WORLD</p>", "conditions": [12, 800, "v", 24000], "internal_node_id": "0.0-71.0", "trial": 2, "time_elapsed": 624628, "serialpos": 9, "key_press": -1, "wordID": 1621, "type": "PRES_VIS", "trial_index": 98}, "uniqueid": "MTK1546:3IFS6Q0HJJQFO8M4MQ7UC5QKL32ISK", "dateTime": 1515963927582}, {"current_trial": 99, "trialdata": {"rt": -1, "trial_type": "single-stim", "word": "brother", "stimulus": "<p id=\"stim\">BROTHER</p>", "conditions": [12, 800, "v", 24000], "internal_node_id": "0.0-72.0", "trial": 2, "time_elapsed": 626619, "serialpos": 10, "key_press": -1, "wordID": 178, "type": "PRES_VIS", "trial_index": 99}, "uniqueid": "MTK1546:3IFS6Q0HJJQFO8M4MQ7UC5QKL32ISK", "dateTime": 1515963929574}, {"current_trial": 100, "trialdata": {"rt": -1, "trial_type": "single-stim", "word": "body", "stimulus": "<p id=\"stim\">BODY</p>", "conditions": [12, 800, "v", 24000], "internal_node_id": "0.0-73.0", "trial": 2, "time_elapsed": 628341, "serialpos": 11, "key_press": -1, "wordID": 144, "type": "PRES_VIS", "trial_index": 100}, "uniqueid": "MTK1546:3IFS6Q0HJJQFO8M4MQ7UC5QKL32ISK", "dateTime": 1515963931295}, {"current_trial": 101, "trialdata": {"rt": -1, "trial_type": "single-stim", "stimulus": "", "internal_node_id": "0.0-74.0-0.0", "time_elapsed": 630567, "key_press": -1, "type": "PRE_RECALL_DELAY", "trial_index": 101}, "uniqueid": "MTK1546:3IFS6Q0HJJQFO8M4MQ7UC5QKL32ISK", "dateTime": 1515963933522}, {"current_trial": 102, "trialdata": {"rt": -1000, "trial_type": "single-audio", "stimulus": "/static/audio/400Hz.wav", "internal_node_id": "0.0-75.0", "time_elapsed": 631078, "key_press": -1, "type": "PRE_RECALL_ALERT", "trial_index": 102}, "uniqueid": "MTK1546:3IFS6Q0HJJQFO8M4MQ7UC5QKL32ISK", "dateTime": 1515963934032}, {"current_trial": 103, "trialdata": {"rt": [1750, 3043, 3982, 6193, 8370, 11122, 12514], "recwords": ["body", "country", "tart", "blockade", "shovel", "dress", "tart"], "key_times": [853, 1237, 1374, 1531, 1750, 1962, 2086, 2200, 2415, 2522, 2743, 2820, 3043, 3284, 3457, 3592, 3782, 3982, 4444, 4701, 4917, 5007, 5158, 5322, 5807, 6000, 6193, 7429, 7532, 7624, 7759, 7928, 8108, 8370, 8597, 8841, 8908, 9759, 10057, 11122, 11853, 12063, 12198, 12375, 12514], "trial_type": "free-recall", "conditions": [12, 800, "v", 24000], "internal_node_id": "0.0-76.0-0.0", "key_presses": [66, 79, 68, 89, 13, 67, 79, 85, 78, 84, 82, 89, 13, 84, 65, 82, 84, 13, 66, 76, 79, 67, 75, 65, 68, 69, 13, 83, 72, 79, 86, 69, 76, 13, 68, 82, 69, 83, 83, 13, 84, 65, 82, 84, 13], "trial": 2, "time_elapsed": 691084, "type": "FREE_RECALL", "trial_index": 103}, "uniqueid": "MTK1546:3IFS6Q0HJJQFO8M4MQ7UC5QKL32ISK", "dateTime": 1515963994048}, {"current_trial": 104, "trialdata": {"rt": 2192, "trial_type": "text", "internal_node_id": "0.0-77.0", "time_elapsed": 695290, "key_press": 13, "type": "INSTRUCTIONS", "trial_index": 104}, "uniqueid": "MTK1546:3IFS6Q0HJJQFO8M4MQ7UC5QKL32ISK", "dateTime": 1515963998244}, {"current_trial": 105, "trialdata": {"rt": [1396, 4008, 6526, 8194, 9682, 11708, 13462, 15133, 16904, 18789, 20657, 22635], "trial_type": "math-distractor", "key_times": [1146, 1396, 3360, 3661, 4008, 5936, 6164, 6526, 7686, 7883, 8194, 9349, 9682, 11184, 11433, 11708, 12958, 13140, 13462, 14668, 14846, 15133, 16454, 16626, 16904, 18351, 18545, 18789, 20094, 20346, 20657, 22153, 22401, 22635], "responses": ["5", "17", "17", "14", "9", "26", "18", "11", "18", "12", "17", "13"], "num2": [3, 2, 4, 2, 2, 9, 7, 1, 3, 1, 9, 6, 9], "num3": [1, 6, 5, 6, 6, 9, 8, 3, 7, 4, 1, 4, 8], "conditions": [12, 1600, "v", 24000], "internal_node_id": "0.0-78.0", "key_presses": [101, 13, 97, 103, 13, 97, 103, 13, 97, 100, 13, 105, 13, 98, 102, 13, 97, 104, 13, 97, 97, 13, 97, 104, 13, 97, 98, 13, 97, 103, 13, 97, 99, 13], "trial": 3, "time_elapsed": 721299, "type": "DISTRACTOR", "trial_index": 105, "num1": [1, 9, 8, 6, 1, 8, 3, 7, 8, 7, 7, 3, 5]}, "uniqueid": "MTK1546:3IFS6Q0HJJQFO8M4MQ7UC5QKL32ISK", "dateTime": 1515964024253}, {"current_trial": 106, "trialdata": {"rt": -1, "trial_type": "single-stim", "stimulus": "<p id=\"stim\">10</p>", "internal_node_id": "0.0-79.0-0.0", "time_elapsed": 724301, "key_press": -1, "trial_index": 106}, "uniqueid": "MTK1546:3IFS6Q0HJJQFO8M4MQ7UC5QKL32ISK", "dateTime": 1515964027255}, {"current_trial": 107, "trialdata": {"rt": -1, "trial_type": "single-stim", "stimulus": "<p id=\"stim\">9</p>", "internal_node_id": "0.0-79.0-1.0", "time_elapsed": 725303, "key_press": -1, "trial_index": 107}, "uniqueid": "MTK1546:3IFS6Q0HJJQFO8M4MQ7UC5QKL32ISK", "dateTime": 1515964028258}, {"current_trial": 108, "trialdata": {"rt": -1, "trial_type": "single-stim", "stimulus": "<p id=\"stim\">8</p>", "internal_node_id": "0.0-79.0-2.0", "time_elapsed": 726305, "key_press": -1, "trial_index": 108}, "uniqueid": "MTK1546:3IFS6Q0HJJQFO8M4MQ7UC5QKL32ISK", "dateTime": 1515964029260}, {"current_trial": 109, "trialdata": {"rt": -1, "trial_type": "single-stim", "stimulus": "<p id=\"stim\">7</p>", "internal_node_id": "0.0-79.0-3.0", "time_elapsed": 727309, "key_press": -1, "trial_index": 109}, "uniqueid": "MTK1546:3IFS6Q0HJJQFO8M4MQ7UC5QKL32ISK", "dateTime": 1515964030263}, {"current_trial": 110, "trialdata": {"rt": -1, "trial_type": "single-stim", "stimulus": "<p id=\"stim\">6</p>", "internal_node_id": "0.0-79.0-4.0", "time_elapsed": 728311, "key_press": -1, "trial_index": 110}, "uniqueid": "MTK1546:3IFS6Q0HJJQFO8M4MQ7UC5QKL32ISK", "dateTime": 1515964031265}, {"current_trial": 111, "trialdata": {"rt": -1, "trial_type": "single-stim", "stimulus": "<p id=\"stim\">5</p>", "internal_node_id": "0.0-79.0-5.0", "time_elapsed": 729312, "key_press": -1, "trial_index": 111}, "uniqueid": "MTK1546:3IFS6Q0HJJQFO8M4MQ7UC5QKL32ISK", "dateTime": 1515964032267}, {"current_trial": 112, "trialdata": {"rt": -1, "trial_type": "single-stim", "stimulus": "<p id=\"stim\">4</p>", "internal_node_id": "0.0-79.0-6.0", "time_elapsed": 730315, "key_press": -1, "trial_index": 112}, "uniqueid": "MTK1546:3IFS6Q0HJJQFO8M4MQ7UC5QKL32ISK", "dateTime": 1515964033269}, {"current_trial": 113, "trialdata": {"rt": -1, "trial_type": "single-stim", "stimulus": "<p id=\"stim\">3</p>", "internal_node_id": "0.0-79.0-7.0", "time_elapsed": 731318, "key_press": -1, "trial_index": 113}, "uniqueid": "MTK1546:3IFS6Q0HJJQFO8M4MQ7UC5QKL32ISK", "dateTime": 1515964034272}, {"current_trial": 114, "trialdata": {"rt": -1, "trial_type": "single-stim", "stimulus": "<p id=\"stim\">2</p>", "internal_node_id": "0.0-79.0-8.0", "time_elapsed": 732320, "key_press": -1, "trial_index": 114}, "uniqueid": "MTK1546:3IFS6Q0HJJQFO8M4MQ7UC5QKL32ISK", "dateTime": 1515964035275}, {"current_trial": 115, "trialdata": {"rt": -1, "trial_type": "single-stim", "stimulus": "<p id=\"stim\">1</p>", "internal_node_id": "0.0-79.0-9.0", "time_elapsed": 733323, "key_press": -1, "trial_index": 115}, "uniqueid": "MTK1546:3IFS6Q0HJJQFO8M4MQ7UC5QKL32ISK", "dateTime": 1515964036277}, {"current_trial": 116, "trialdata": {"rt": -1, "trial_type": "single-stim", "stimulus": "<p id=\"stim\">+</p>", "internal_node_id": "0.0-80.0-0.0", "time_elapsed": 734825, "key_press": -1, "type": "FIXATION", "trial_index": 116}, "uniqueid": "MTK1546:3IFS6Q0HJJQFO8M4MQ7UC5QKL32ISK", "dateTime": 1515964037780}, {"current_trial": 117, "trialdata": {"rt": -1, "trial_type": "single-stim", "word": "brick", "stimulus": "<p id=\"stim\">BRICK</p>", "conditions": [12, 1600, "v", 24000], "internal_node_id": "0.0-81.0", "trial": 3, "time_elapsed": 736428, "serialpos": 0, "key_press": -1, "wordID": 171, "type": "PRES_VIS", "trial_index": 117}, "uniqueid": "MTK1546:3IFS6Q0HJJQFO8M4MQ7UC5QKL32ISK", "dateTime": 1515964039383}, {"current_trial": 118, "trialdata": {"rt": -1, "trial_type": "single-stim", "word": "tile", "stimulus": "<p id=\"stim\">TILE</p>", "conditions": [12, 1600, "v", 24000], "internal_node_id": "0.0-82.0", "trial": 3, "time_elapsed": 738851, "serialpos": 1, "key_press": -1, "wordID": 1467, "type": "PRES_VIS", "trial_index": 118}, "uniqueid": "MTK1546:3IFS6Q0HJJQFO8M4MQ7UC5QKL32ISK", "dateTime": 1515964041806}, {"current_trial": 119, "trialdata": {"rt": -1, "trial_type": "single-stim", "word": "soda", "stimulus": "<p id=\"stim\">SODA</p>", "conditions": [12, 1600, "v", 24000], "internal_node_id": "0.0-83.0", "trial": 3, "time_elapsed": 741437, "serialpos": 2, "key_press": -1, "wordID": 1340, "type": "PRES_VIS", "trial_index": 119}, "uniqueid": "MTK1546:3IFS6Q0HJJQFO8M4MQ7UC5QKL32ISK", "dateTime": 1515964044391}, {"current_trial": 120, "trialdata": {"rt": -1, "trial_type": "single-stim", "word": "stove", "stimulus": "<p id=\"stim\">STOVE</p>", "conditions": [12, 1600, "v", 24000], "internal_node_id": "0.0-84.0", "trial": 3, "time_elapsed": 744080, "serialpos": 3, "key_press": -1, "wordID": 1387, "type": "PRES_VIS", "trial_index": 120}, "uniqueid": "MTK1546:3IFS6Q0HJJQFO8M4MQ7UC5QKL32ISK", "dateTime": 1515964047035}, {"current_trial": 121, "trialdata": {"rt": -1, "trial_type": "single-stim", "word": "shark", "stimulus": "<p id=\"stim\">SHARK</p>", "conditions": [12, 1600, "v", 24000], "internal_node_id": "0.0-85.0", "trial": 3, "time_elapsed": 746545, "serialpos": 4, "key_press": -1, "wordID": 1274, "type": "PRES_VIS", "trial_index": 121}, "uniqueid": "MTK1546:3IFS6Q0HJJQFO8M4MQ7UC5QKL32ISK", "dateTime": 1515964049500}, {"current_trial": 122, "trialdata": {"rt": -1, "trial_type": "single-stim", "word": "coffee", "stimulus": "<p id=\"stim\">COFFEE</p>", "conditions": [12, 1600, "v", 24000], "internal_node_id": "0.0-86.0", "trial": 3, "time_elapsed": 749129, "serialpos": 5, "key_press": -1, "wordID": 340, "type": "PRES_VIS", "trial_index": 122}, "uniqueid": "MTK1546:3IFS6Q0HJJQFO8M4MQ7UC5QKL32ISK", "dateTime": 1515964052084}, {"current_trial": 123, "trialdata": {"rt": -1, "trial_type": "single-stim", "word": "catcher", "stimulus": "<p id=\"stim\">CATCHER</p>", "conditions": [12, 1600, "v", 24000], "internal_node_id": "0.0-87.0", "trial": 3, "time_elapsed": 751768, "serialpos": 6, "key_press": -1, "wordID": 257, "type": "PRES_VIS", "trial_index": 123}, "uniqueid": "MTK1546:3IFS6Q0HJJQFO8M4MQ7UC5QKL32ISK", "dateTime": 1515964054722}, {"current_trial": 124, "trialdata": {"rt": -1, "trial_type": "single-stim", "word": "notebook", "stimulus": "<p id=\"stim\">NOTEBOOK</p>", "conditions": [12, 1600, "v", 24000], "internal_node_id": "0.0-88.0", "trial": 3, "time_elapsed": 754196, "serialpos": 7, "key_press": -1, "wordID": 958, "type": "PRES_VIS", "trial_index": 124}, "uniqueid": "MTK1546:3IFS6Q0HJJQFO8M4MQ7UC5QKL32ISK", "dateTime": 1515964057150}, {"current_trial": 125, "trialdata": {"rt": -1, "trial_type": "single-stim", "word": "dorm", "stimulus": "<p id=\"stim\">DORM</p>", "conditions": [12, 1600, "v", 24000], "internal_node_id": "0.0-89.0", "trial": 3, "time_elapsed": 756615, "serialpos": 8, "key_press": -1, "wordID": 487, "type": "PRES_VIS", "trial_index": 125}, "uniqueid": "MTK1546:3IFS6Q0HJJQFO8M4MQ7UC5QKL32ISK", "dateTime": 1515964059570}, {"current_trial": 126, "trialdata": {"rt": -1, "trial_type": "single-stim", "word": "robber", "stimulus": "<p id=\"stim\">ROBBER</p>", "conditions": [12, 1600, "v", 24000], "internal_node_id": "0.0-90.0", "trial": 3, "time_elapsed": 759072, "serialpos": 9, "key_press": -1, "wordID": 1196, "type": "PRES_VIS", "trial_index": 126}, "uniqueid": "MTK1546:3IFS6Q0HJJQFO8M4MQ7UC5QKL32ISK", "dateTime": 1515964062028}, {"current_trial": 127, "trialdata": {"rt": -1, "trial_type": "single-stim", "word": "package", "stimulus": "<p id=\"stim\">PACKAGE</p>", "conditions": [12, 1600, "v", 24000], "internal_node_id": "0.0-91.0", "trial": 3, "time_elapsed": 761599, "serialpos": 10, "key_press": -1, "wordID": 996, "type": "PRES_VIS", "trial_index": 127}, "uniqueid": "MTK1546:3IFS6Q0HJJQFO8M4MQ7UC5QKL32ISK", "dateTime": 1515964064553}, {"current_trial": 128, "trialdata": {"rt": -1, "trial_type": "single-stim", "word": "flask", "stimulus": "<p id=\"stim\">FLASK</p>", "conditions": [12, 1600, "v", 24000], "internal_node_id": "0.0-92.0", "trial": 3, "time_elapsed": 764106, "serialpos": 11, "key_press": -1, "wordID": 575, "type": "PRES_VIS", "trial_index": 128}, "uniqueid": "MTK1546:3IFS6Q0HJJQFO8M4MQ7UC5QKL32ISK", "dateTime": 1515964067060}, {"current_trial": 129, "trialdata": {"rt": -1, "trial_type": "single-stim", "stimulus": "", "internal_node_id": "0.0-93.0-0.0", "time_elapsed": 766436, "key_press": -1, "type": "PRE_RECALL_DELAY", "trial_index": 129}, "uniqueid": "MTK1546:3IFS6Q0HJJQFO8M4MQ7UC5QKL32ISK", "dateTime": 1515964069390}, {"current_trial": 130, "trialdata": {"rt": -1000, "trial_type": "single-audio", "stimulus": "/static/audio/400Hz.wav", "internal_node_id": "0.0-94.0", "time_elapsed": 766945, "key_press": -1, "type": "PRE_RECALL_ALERT", "trial_index": 130}, "uniqueid": "MTK1546:3IFS6Q0HJJQFO8M4MQ7UC5QKL32ISK", "dateTime": 1515964069899}, {"current_trial": 131, "trialdata": {"rt": [1018, 2160, 3287, 4205, 5440, 7746, 18533, 23654, 25679, 27008, 29228, 32256], "recwords": ["flask", "robber", "package", "flask", "dorm", "tile", "notebook", "brick", "stove", "coffee", "table", "catcher"], "key_times": [382, 543, 632, 701, 804, 1018, 1176, 1322, 1497, 1684, 1789, 1865, 2160, 2438, 2550, 2595, 2700, 2882, 2992, 3097, 3287, 3527, 3663, 3777, 3837, 3940, 4205, 4794, 4926, 5072, 5188, 5440, 7087, 7207, 7398, 7503, 7746, 17177, 17279, 17310, 17397, 17551, 17682, 17908, 18042, 18533, 22912, 23000, 23124, 23318, 23382, 23654, 25036, 25144, 25312, 25444, 25547, 25679, 25871, 26011, 26117, 26350, 26524, 26750, 27008, 28532, 28666, 28740, 28927, 28980, 29228, 31256, 31377, 31537, 31769, 31901, 32038, 32130, 32256], "trial_type": "free-recall", "conditions": [12, 1600, "v", 24000], "internal_node_id": "0.0-95.0-0.0", "key_presses": [70, 76, 65, 83, 75, 13, 82, 79, 66, 66, 69, 82, 13, 80, 65, 67, 75, 65, 71, 69, 13, 70, 76, 65, 83, 75, 13, 68, 79, 82, 77, 13, 84, 73, 76, 69, 13, 78, 79, 84, 69, 66, 79, 79, 75, 13, 66, 82, 73, 67, 75, 13, 83, 84, 79, 86, 69, 13, 67, 79, 70, 70, 69, 69, 13, 84, 65, 66, 76, 69, 13, 67, 65, 84, 67, 72, 69, 82, 13], "trial": 3, "time_elapsed": 826949, "type": "FREE_RECALL", "trial_index": 131}, "uniqueid": "MTK1546:3IFS6Q0HJJQFO8M4MQ7UC5QKL32ISK", "dateTime": 1515964129910}, {"current_trial": 132, "trialdata": {"rt": 3019, "trial_type": "text", "internal_node_id": "0.0-96.0", "time_elapsed": 831979, "key_press": 32, "type": "INSTRUCTIONS", "trial_index": 132}, "uniqueid": "MTK1546:3IFS6Q0HJJQFO8M4MQ7UC5QKL32ISK", "dateTime": 1515964134933}, {"current_trial": 133, "trialdata": {"rt": [1991, 3820, 5644, 7380, 8988, 11124, 12847, 15109, 18077, 19980, 21588, 23140], "trial_type": "math-distractor", "key_times": [1556, 1726, 1991, 3323, 3537, 3820, 5225, 5388, 5644, 6925, 7084, 7380, 8421, 8674, 8988, 10611, 10781, 11124, 12525, 12847, 14225, 14411, 15109, 17560, 17759, 18077, 19450, 19677, 19980, 21104, 21268, 21588, 22651, 22887, 23140], "responses": ["20", "14", "22", "11", "16", "17", "8", "17", "21", "19", "11", "13"], "num2": [7, 2, 8, 2, 1, 9, 2, 8, 6, 5, 4, 4, 8], "num3": [6, 9, 7, 2, 6, 3, 3, 3, 7, 5, 6, 3, 1], "conditions": [24, 1600, "v", 24000], "internal_node_id": "0.0-97.0", "key_presses": [98, 96, 13, 97, 100, 13, 98, 98, 13, 97, 97, 13, 97, 102, 13, 97, 103, 13, 104, 13, 97, 103, 13, 98, 97, 13, 97, 105, 13, 97, 97, 13, 97, 99, 13], "trial": 4, "time_elapsed": 857986, "type": "DISTRACTOR", "trial_index": 133, "num1": [7, 3, 7, 7, 9, 5, 3, 6, 8, 9, 1, 6, 3]}, "uniqueid": "MTK1546:3IFS6Q0HJJQFO8M4MQ7UC5QKL32ISK", "dateTime": 1515964160941}, {"current_trial": 134, "trialdata": {"rt": -1, "trial_type": "single-stim", "stimulus": "<p id=\"stim\">10</p>", "internal_node_id": "0.0-98.0-0.0", "time_elapsed": 860988, "key_press": -1, "trial_index": 134}, "uniqueid": "MTK1546:3IFS6Q0HJJQFO8M4MQ7UC5QKL32ISK", "dateTime": 1515964163943}, {"current_trial": 135, "trialdata": {"rt": -1, "trial_type": "single-stim", "stimulus": "<p id=\"stim\">9</p>", "internal_node_id": "0.0-98.0-1.0", "time_elapsed": 861991, "key_press": -1, "trial_index": 135}, "uniqueid": "MTK1546:3IFS6Q0HJJQFO8M4MQ7UC5QKL32ISK", "dateTime": 1515964164946}, {"current_trial": 136, "trialdata": {"rt": -1, "trial_type": "single-stim", "stimulus": "<p id=\"stim\">8</p>", "internal_node_id": "0.0-98.0-2.0", "time_elapsed": 862993, "key_press": -1, "trial_index": 136}, "uniqueid": "MTK1546:3IFS6Q0HJJQFO8M4MQ7UC5QKL32ISK", "dateTime": 1515964165948}, {"current_trial": 137, "trialdata": {"rt": -1, "trial_type": "single-stim", "stimulus": "<p id=\"stim\">7</p>", "internal_node_id": "0.0-98.0-3.0", "time_elapsed": 863995, "key_press": -1, "trial_index": 137}, "uniqueid": "MTK1546:3IFS6Q0HJJQFO8M4MQ7UC5QKL32ISK", "dateTime": 1515964166950}, {"current_trial": 138, "trialdata": {"rt": -1, "trial_type": "single-stim", "stimulus": "<p id=\"stim\">6</p>", "internal_node_id": "0.0-98.0-4.0", "time_elapsed": 864997, "key_press": -1, "trial_index": 138}, "uniqueid": "MTK1546:3IFS6Q0HJJQFO8M4MQ7UC5QKL32ISK", "dateTime": 1515964167952}, {"current_trial": 139, "trialdata": {"rt": -1, "trial_type": "single-stim", "stimulus": "<p id=\"stim\">5</p>", "internal_node_id": "0.0-98.0-5.0", "time_elapsed": 865999, "key_press": -1, "trial_index": 139}, "uniqueid": "MTK1546:3IFS6Q0HJJQFO8M4MQ7UC5QKL32ISK", "dateTime": 1515964168954}, {"current_trial": 140, "trialdata": {"rt": -1, "trial_type": "single-stim", "stimulus": "<p id=\"stim\">4</p>", "internal_node_id": "0.0-98.0-6.0", "time_elapsed": 867001, "key_press": -1, "trial_index": 140}, "uniqueid": "MTK1546:3IFS6Q0HJJQFO8M4MQ7UC5QKL32ISK", "dateTime": 1515964169956}, {"current_trial": 141, "trialdata": {"rt": -1, "trial_type": "single-stim", "stimulus": "<p id=\"stim\">3</p>", "internal_node_id": "0.0-98.0-7.0", "time_elapsed": 868003, "key_press": -1, "trial_index": 141}, "uniqueid": "MTK1546:3IFS6Q0HJJQFO8M4MQ7UC5QKL32ISK", "dateTime": 1515964170958}, {"current_trial": 142, "trialdata": {"rt": -1, "trial_type": "single-stim", "stimulus": "<p id=\"stim\">2</p>", "internal_node_id": "0.0-98.0-8.0", "time_elapsed": 869005, "key_press": -1, "trial_index": 142}, "uniqueid": "MTK1546:3IFS6Q0HJJQFO8M4MQ7UC5QKL32ISK", "dateTime": 1515964171960}, {"current_trial": 143, "trialdata": {"rt": -1, "trial_type": "single-stim", "stimulus": "<p id=\"stim\">1</p>", "internal_node_id": "0.0-98.0-9.0", "time_elapsed": 870008, "key_press": -1, "trial_index": 143}, "uniqueid": "MTK1546:3IFS6Q0HJJQFO8M4MQ7UC5QKL32ISK", "dateTime": 1515964172962}, {"current_trial": 144, "trialdata": {"rt": -1, "trial_type": "single-stim", "stimulus": "<p id=\"stim\">+</p>", "internal_node_id": "0.0-99.0-0.0", "time_elapsed": 871511, "key_press": -1, "type": "FIXATION", "trial_index": 144}, "uniqueid": "MTK1546:3IFS6Q0HJJQFO8M4MQ7UC5QKL32ISK", "dateTime": 1515964174466}, {"current_trial": 145, "trialdata": {"rt": -1, "trial_type": "single-stim", "word": "lunch", "stimulus": "<p id=\"stim\">LUNCH</p>", "conditions": [24, 1600, "v", 24000], "internal_node_id": "0.0-100.0", "trial": 4, "time_elapsed": 873114, "serialpos": 0, "key_press": -1, "wordID": 848, "type": "PRES_VIS", "trial_index": 145}, "uniqueid": "MTK1546:3IFS6Q0HJJQFO8M4MQ7UC5QKL32ISK", "dateTime": 1515964176068}, {"current_trial": 146, "trialdata": {"rt": -1, "trial_type": "single-stim", "word": "beast", "stimulus": "<p id=\"stim\">BEAST</p>", "conditions": [24, 1600, "v", 24000], "internal_node_id": "0.0-101.0", "trial": 4, "time_elapsed": 875627, "serialpos": 1, "key_press": -1, "wordID": 107, "type": "PRES_VIS", "trial_index": 146}, "uniqueid": "MTK1546:3IFS6Q0HJJQFO8M4MQ7UC5QKL32ISK", "dateTime": 1515964178581}, {"current_trial": 147, "trialdata": {"rt": -1, "trial_type": "single-stim", "word": "swimmer", "stimulus": "<p id=\"stim\">SWIMMER</p>", "conditions": [24, 1600, "v", 24000], "internal_node_id": "0.0-102.0", "trial": 4, "time_elapsed": 878035, "serialpos": 2, "key_press": -1, "wordID": 1419, "type": "PRES_VIS", "trial_index": 147}, "uniqueid": "MTK1546:3IFS6Q0HJJQFO8M4MQ7UC5QKL32ISK", "dateTime": 1515964180989}, {"current_trial": 148, "trialdata": {"rt": -1, "trial_type": "single-stim", "word": "girl", "stimulus": "<p id=\"stim\">GIRL</p>", "conditions": [24, 1600, "v", 24000], "internal_node_id": "0.0-103.0", "trial": 4, "time_elapsed": 880715, "serialpos": 3, "key_press": -1, "wordID": 636, "type": "PRES_VIS", "trial_index": 148}, "uniqueid": "MTK1546:3IFS6Q0HJJQFO8M4MQ7UC5QKL32ISK", "dateTime": 1515964183669}, {"current_trial": 149, "trialdata": {"rt": -1, "trial_type": "single-stim", "word": "turkey", "stimulus": "<p id=\"stim\">TURKEY</p>", "conditions": [24, 1600, "v", 24000], "internal_node_id": "0.0-104.0", "trial": 4, "time_elapsed": 883211, "serialpos": 4, "key_press": -1, "wordID": 1519, "type": "PRES_VIS", "trial_index": 149}, "uniqueid": "MTK1546:3IFS6Q0HJJQFO8M4MQ7UC5QKL32ISK", "dateTime": 1515964186166}, {"current_trial": 150, "trialdata": {"rt": -1, "trial_type": "single-stim", "word": "diver", "stimulus": "<p id=\"stim\">DIVER</p>", "conditions": [24, 1600, "v", 24000], "internal_node_id": "0.0-105.0", "trial": 4, "time_elapsed": 885802, "serialpos": 5, "key_press": -1, "wordID": 475, "type": "PRES_VIS", "trial_index": 150}, "uniqueid": "MTK1546:3IFS6Q0HJJQFO8M4MQ7UC5QKL32ISK", "dateTime": 1515964188757}, {"current_trial": 151, "trialdata": {"rt": -1, "trial_type": "single-stim", "word": "chapel", "stimulus": "<p id=\"stim\">CHAPEL</p>", "conditions": [24, 1600, "v", 24000], "internal_node_id": "0.0-106.0", "trial": 4, "time_elapsed": 888240, "serialpos": 6, "key_press": -1, "wordID": 279, "type": "PRES_VIS", "trial_index": 151}, "uniqueid": "MTK1546:3IFS6Q0HJJQFO8M4MQ7UC5QKL32ISK", "dateTime": 1515964191194}, {"current_trial": 152, "trialdata": {"rt": -1, "trial_type": "single-stim", "word": "church", "stimulus": "<p id=\"stim\">CHURCH</p>", "conditions": [24, 1600, "v", 24000], "internal_node_id": "0.0-107.0", "trial": 4, "time_elapsed": 890829, "serialpos": 7, "key_press": -1, "wordID": 306, "type": "PRES_VIS", "trial_index": 152}, "uniqueid": "MTK1546:3IFS6Q0HJJQFO8M4MQ7UC5QKL32ISK", "dateTime": 1515964193783}, {"current_trial": 153, "trialdata": {"rt": -1, "trial_type": "single-stim", "word": "garden", "stimulus": "<p id=\"stim\">GARDEN</p>", "conditions": [24, 1600, "v", 24000], "internal_node_id": "0.0-108.0", "trial": 4, "time_elapsed": 893275, "serialpos": 8, "key_press": -1, "wordID": 622, "type": "PRES_VIS", "trial_index": 153}, "uniqueid": "MTK1546:3IFS6Q0HJJQFO8M4MQ7UC5QKL32ISK", "dateTime": 1515964196229}, {"current_trial": 154, "trialdata": {"rt": -1, "trial_type": "single-stim", "word": "lion", "stimulus": "<p id=\"stim\">LION</p>", "conditions": [24, 1600, "v", 24000], "internal_node_id": "0.0-109.0", "trial": 4, "time_elapsed": 896063, "serialpos": 9, "key_press": -1, "wordID": 826, "type": "PRES_VIS", "trial_index": 154}, "uniqueid": "MTK1546:3IFS6Q0HJJQFO8M4MQ7UC5QKL32ISK", "dateTime": 1515964199017}, {"current_trial": 155, "trialdata": {"rt": -1, "trial_type": "single-stim", "word": "goblin", "stimulus": "<p id=\"stim\">GOBLIN</p>", "conditions": [24, 1600, "v", 24000], "internal_node_id": "0.0-110.0", "trial": 4, "time_elapsed": 898771, "serialpos": 10, "key_press": -1, "wordID": 644, "type": "PRES_VIS", "trial_index": 155}, "uniqueid": "MTK1546:3IFS6Q0HJJQFO8M4MQ7UC5QKL32ISK", "dateTime": 1515964201725}, {"current_trial": 156, "trialdata": {"rt": -1, "trial_type": "single-stim", "word": "mask", "stimulus": "<p id=\"stim\">MASK</p>", "conditions": [24, 1600, "v", 24000], "internal_node_id": "0.0-111.0", "trial": 4, "time_elapsed": 901417, "serialpos": 11, "key_press": -1, "wordID": 875, "type": "PRES_VIS", "trial_index": 156}, "uniqueid": "MTK1546:3IFS6Q0HJJQFO8M4MQ7UC5QKL32ISK", "dateTime": 1515964204372}, {"current_trial": 157, "trialdata": {"rt": -1, "trial_type": "single-stim", "word": "knife", "stimulus": "<p id=\"stim\">KNIFE</p>", "conditions": [24, 1600, "v", 24000], "internal_node_id": "0.0-112.0", "trial": 4, "time_elapsed": 903849, "serialpos": 12, "key_press": -1, "wordID": 784, "type": "PRES_VIS", "trial_index": 157}, "uniqueid": "MTK1546:3IFS6Q0HJJQFO8M4MQ7UC5QKL32ISK", "dateTime": 1515964206803}, {"current_trial": 158, "trialdata": {"rt": -1, "trial_type": "single-stim", "word": "pistol", "stimulus": "<p id=\"stim\">PISTOL</p>", "conditions": [24, 1600, "v", 24000], "internal_node_id": "0.0-113.0", "trial": 4, "time_elapsed": 906434, "serialpos": 13, "key_press": -1, "wordID": 1074, "type": "PRES_VIS", "trial_index": 158}, "uniqueid": "MTK1546:3IFS6Q0HJJQFO8M4MQ7UC5QKL32ISK", "dateTime": 1515964209389}, {"current_trial": 159, "trialdata": {"rt": -1, "trial_type": "single-stim", "word": "fruit", "stimulus": "<p id=\"stim\">FRUIT</p>", "conditions": [24, 1600, "v", 24000], "internal_node_id": "0.0-114.0", "trial": 4, "time_elapsed": 908944, "serialpos": 14, "key_press": -1, "wordID": 609, "type": "PRES_VIS", "trial_index": 159}, "uniqueid": "MTK1546:3IFS6Q0HJJQFO8M4MQ7UC5QKL32ISK", "dateTime": 1515964211901}, {"current_trial": 160, "trialdata": {"rt": -1, "trial_type": "single-stim", "word": "sausage", "stimulus": "<p id=\"stim\">SAUSAGE</p>", "conditions": [24, 1600, "v", 24000], "internal_node_id": "0.0-115.0", "trial": 4, "time_elapsed": 911442, "serialpos": 15, "key_press": -1, "wordID": 1237, "type": "PRES_VIS", "trial_index": 160}, "uniqueid": "MTK1546:3IFS6Q0HJJQFO8M4MQ7UC5QKL32ISK", "dateTime": 1515964214396}, {"current_trial": 161, "trialdata": {"rt": -1, "trial_type": "single-stim", "word": "kleenex", "stimulus": "<p id=\"stim\">KLEENEX</p>", "conditions": [24, 1600, "v", 24000], "internal_node_id": "0.0-116.0", "trial": 4, "time_elapsed": 914220, "serialpos": 16, "key_press": -1, "wordID": 781, "type": "PRES_VIS", "trial_index": 161}, "uniqueid": "MTK1546:3IFS6Q0HJJQFO8M4MQ7UC5QKL32ISK", "dateTime": 1515964217174}, {"current_trial": 162, "trialdata": {"rt": -1, "trial_type": "single-stim", "word": "flower", "stimulus": "<p id=\"stim\">FLOWER</p>", "conditions": [24, 1600, "v", 24000], "internal_node_id": "0.0-117.0", "trial": 4, "time_elapsed": 916978, "serialpos": 17, "key_press": -1, "wordID": 583, "type": "PRES_VIS", "trial_index": 162}, "uniqueid": "MTK1546:3IFS6Q0HJJQFO8M4MQ7UC5QKL32ISK", "dateTime": 1515964219933}, {"current_trial": 163, "trialdata": {"rt": -1, "trial_type": "single-stim", "word": "gazelle", "stimulus": "<p id=\"stim\">GAZELLE</p>", "conditions": [24, 1600, "v", 24000], "internal_node_id": "0.0-118.0", "trial": 4, "time_elapsed": 919769, "serialpos": 18, "key_press": -1, "wordID": 627, "type": "PRES_VIS", "trial_index": 163}, "uniqueid": "MTK1546:3IFS6Q0HJJQFO8M4MQ7UC5QKL32ISK", "dateTime": 1515964222723}, {"current_trial": 164, "trialdata": {"rt": -1, "trial_type": "single-stim", "word": "hawk", "stimulus": "<p id=\"stim\">HAWK</p>", "conditions": [24, 1600, "v", 24000], "internal_node_id": "0.0-119.0", "trial": 4, "time_elapsed": 922556, "serialpos": 19, "key_press": -1, "wordID": 691, "type": "PRES_VIS", "trial_index": 164}, "uniqueid": "MTK1546:3IFS6Q0HJJQFO8M4MQ7UC5QKL32ISK", "dateTime": 1515964225510}, {"current_trial": 165, "trialdata": {"rt": -1, "trial_type": "single-stim", "word": "football", "stimulus": "<p id=\"stim\">FOOTBALL</p>", "conditions": [24, 1600, "v", 24000], "internal_node_id": "0.0-120.0", "trial": 4, "time_elapsed": 925236, "serialpos": 20, "key_press": -1, "wordID": 590, "type": "PRES_VIS", "trial_index": 165}, "uniqueid": "MTK1546:3IFS6Q0HJJQFO8M4MQ7UC5QKL32ISK", "dateTime": 1515964228190}, {"current_trial": 166, "trialdata": {"rt": -1, "trial_type": "single-stim", "word": "missile", "stimulus": "<p id=\"stim\">MISSILE</p>", "conditions": [24, 1600, "v", 24000], "internal_node_id": "0.0-121.0", "trial": 4, "time_elapsed": 928006, "serialpos": 21, "key_press": -1, "wordID": 899, "type": "PRES_VIS", "trial_index": 166}, "uniqueid": "MTK1546:3IFS6Q0HJJQFO8M4MQ7UC5QKL32ISK", "dateTime": 1515964230961}, {"current_trial": 167, "trialdata": {"rt": -1, "trial_type": "single-stim", "word": "harp", "stimulus": "<p id=\"stim\">HARP</p>", "conditions": [24, 1600, "v", 24000], "internal_node_id": "0.0-122.0", "trial": 4, "time_elapsed": 930453, "serialpos": 22, "key_press": -1, "wordID": 688, "type": "PRES_VIS", "trial_index": 167}, "uniqueid": "MTK1546:3IFS6Q0HJJQFO8M4MQ7UC5QKL32ISK", "dateTime": 1515964233408}, {"current_trial": 168, "trialdata": {"rt": -1, "trial_type": "single-stim", "word": "foot", "stimulus": "<p id=\"stim\">FOOT</p>", "conditions": [24, 1600, "v", 24000], "internal_node_id": "0.0-123.0", "trial": 4, "time_elapsed": 932950, "serialpos": 23, "key_press": -1, "wordID": 589, "type": "PRES_VIS", "trial_index": 168}, "uniqueid": "MTK1546:3IFS6Q0HJJQFO8M4MQ7UC5QKL32ISK", "dateTime": 1515964235904}, {"current_trial": 169, "trialdata": {"rt": -1, "trial_type": "single-stim", "stimulus": "", "internal_node_id": "0.0-124.0-0.0", "time_elapsed": 934990, "key_press": -1, "type": "PRE_RECALL_DELAY", "trial_index": 169}, "uniqueid": "MTK1546:3IFS6Q0HJJQFO8M4MQ7UC5QKL32ISK", "dateTime": 1515964237944}, {"current_trial": 170, "trialdata": {"rt": -1000, "trial_type": "single-audio", "stimulus": "/static/audio/400Hz.wav", "internal_node_id": "0.0-125.0", "time_elapsed": 935498, "key_press": -1, "type": "PRE_RECALL_ALERT", "trial_index": 170}, "uniqueid": "MTK1546:3IFS6Q0HJJQFO8M4MQ7UC5QKL32ISK", "dateTime": 1515964238452}, {"current_trial": 171, "trialdata": {"rt": [1159, 1905, 3382, 4487, 5555, 6517, 7695, 8702, 10120, 11500, 12666, 15902, 17827, 22566, 25312, 26541, 29622, 33705, 37149], "recwords": ["foot", "harp", "gazelle", "church", "chapel", "turkey", "lunch", "beast", "diving", "swimming", "girl", "knife", "shovel", "weapon", "foot", "hand", "hawk", "harp", "lion"], "key_times": [627, 716, 894, 987, 1159, 1394, 1476, 1595, 1667, 1905, 2107, 2226, 2489, 2736, 2892, 3077, 3196, 3382, 3613, 3715, 3897, 3962, 4173, 4241, 4487, 4645, 4780, 4885, 5014, 5123, 5272, 5555, 5758, 5890, 6008, 6145, 6263, 6358, 6517, 6792, 7014, 7240, 7391, 7490, 7695, 8001, 8133, 8262, 8376, 8530, 8702, 9373, 9465, 9614, 9732, 9834, 9934, 10120, 10247, 10438, 10502, 10639, 10831, 11063, 11153, 11311, 11500, 11954, 12059, 12245, 12377, 12666, 15138, 15393, 15517, 15661, 15760, 15902, 16853, 16957, 17025, 17162, 17344, 17513, 17827, 19950, 20044, 20715, 20894, 21068, 21652, 21761, 21917, 22025, 22231, 22315, 22566, 24793, 24884, 25053, 25149, 25312, 25825, 25911, 26085, 26185, 26541, 29018, 29089, 29212, 29354, 29622, 33258, 33337, 33427, 33507, 33705, 36351, 36578, 36703, 36866, 37149], "trial_type": "free-recall", "conditions": [24, 1600, "v", 24000], "internal_node_id": "0.0-126.0-0.0", "key_presses": [70, 79, 79, 84, 13, 72, 65, 82, 80, 13, 71, 65, 90, 69, 76, 76, 69, 13, 67, 72, 85, 82, 67, 72, 13, 67, 72, 65, 80, 69, 76, 13, 84, 85, 82, 75, 69, 89, 13, 76, 85, 78, 67, 72, 13, 66, 69, 65, 83, 84, 13, 68, 73, 86, 73, 78, 71, 13, 83, 87, 73, 77, 77, 73, 78, 71, 13, 71, 73, 82, 76, 13, 75, 78, 73, 70, 69, 13, 83, 72, 79, 86, 69, 76, 13, 71, 85, 8, 8, 8, 87, 69, 65, 80, 79, 78, 13, 70, 79, 79, 84, 13, 72, 65, 78, 68, 13, 72, 65, 87, 75, 13, 72, 65, 82, 80, 13, 76, 73, 79, 78, 13], "trial": 4, "time_elapsed": 995505, "type": "FREE_RECALL", "trial_index": 171}, "uniqueid": "MTK1546:3IFS6Q0HJJQFO8M4MQ7UC5QKL32ISK", "dateTime": 1515964298470}, {"current_trial": 172, "trialdata": {"rt": 25855, "trial_type": "text", "internal_node_id": "0.0-127.0", "time_elapsed": 1023374, "key_press": 13, "type": "INSTRUCTIONS", "trial_index": 172}, "uniqueid": "MTK1546:3IFS6Q0HJJQFO8M4MQ7UC5QKL32ISK", "dateTime": 1515964326328}, {"current_trial": 173, "trialdata": {"rt": [2126, 3781, 6102, 8136, 9995, 11834, 13741, 15993, 17794, 19391, 21394, 23539], "trial_type": "math-distractor", "key_times": [1644, 1850, 2126, 3415, 3588, 3781, 5233, 5822, 6102, 7663, 7827, 8136, 9412, 9611, 9995, 11324, 11494, 11834, 13225, 13503, 13741, 15518, 15693, 15993, 17307, 17490, 17794, 18882, 19155, 19391, 20917, 21111, 21394, 23208, 23539], "responses": ["15", "20", "16", "19", "17", "15", "13", "11", "11", "13", "20", "9"], "num2": [6, 2, 8, 8, 6, 7, 4, 2, 3, 7, 8, 4, 4], "num3": [5, 9, 7, 7, 7, 4, 4, 4, 4, 3, 5, 2, 5], "conditions": [24, 800, "v", 24000], "internal_node_id": "0.0-128.0", "key_presses": [97, 101, 13, 98, 96, 13, 97, 102, 13, 97, 105, 13, 97, 103, 13, 97, 101, 13, 97, 99, 13, 97, 97, 13, 97, 97, 13, 97, 99, 13, 98, 96, 13, 105, 13], "trial": 5, "time_elapsed": 1049420, "type": "DISTRACTOR", "trial_index": 173, "num1": [4, 9, 1, 4, 4, 4, 5, 5, 4, 3, 7, 3, 1]}, "uniqueid": "MTK1546:3IFS6Q0HJJQFO8M4MQ7UC5QKL32ISK", "dateTime": 1515964352375}, {"current_trial": 174, "trialdata": {"rt": -1, "trial_type": "single-stim", "stimulus": "<p id=\"stim\">10</p>", "internal_node_id": "0.0-129.0-0.0", "time_elapsed": 1052423, "key_press": -1, "trial_index": 174}, "uniqueid": "MTK1546:3IFS6Q0HJJQFO8M4MQ7UC5QKL32ISK", "dateTime": 1515964355377}, {"current_trial": 175, "trialdata": {"rt": -1, "trial_type": "single-stim", "stimulus": "<p id=\"stim\">9</p>", "internal_node_id": "0.0-129.0-1.0", "time_elapsed": 1053426, "key_press": -1, "trial_index": 175}, "uniqueid": "MTK1546:3IFS6Q0HJJQFO8M4MQ7UC5QKL32ISK", "dateTime": 1515964356381}, {"current_trial": 176, "trialdata": {"rt": -1, "trial_type": "single-stim", "stimulus": "<p id=\"stim\">8</p>", "internal_node_id": "0.0-129.0-2.0", "time_elapsed": 1054429, "key_press": -1, "trial_index": 176}, "uniqueid": "MTK1546:3IFS6Q0HJJQFO8M4MQ7UC5QKL32ISK", "dateTime": 1515964357384}, {"current_trial": 177, "trialdata": {"rt": -1, "trial_type": "single-stim", "stimulus": "<p id=\"stim\">7</p>", "internal_node_id": "0.0-129.0-3.0", "time_elapsed": 1055432, "key_press": -1, "trial_index": 177}, "uniqueid": "MTK1546:3IFS6Q0HJJQFO8M4MQ7UC5QKL32ISK", "dateTime": 1515964358386}, {"current_trial": 178, "trialdata": {"rt": -1, "trial_type": "single-stim", "stimulus": "<p id=\"stim\">6</p>", "internal_node_id": "0.0-129.0-4.0", "time_elapsed": 1056435, "key_press": -1, "trial_index": 178}, "uniqueid": "MTK1546:3IFS6Q0HJJQFO8M4MQ7UC5QKL32ISK", "dateTime": 1515964359390}, {"current_trial": 179, "trialdata": {"rt": -1, "trial_type": "single-stim", "stimulus": "<p id=\"stim\">5</p>", "internal_node_id": "0.0-129.0-5.0", "time_elapsed": 1057442, "key_press": -1, "trial_index": 179}, "uniqueid": "MTK1546:3IFS6Q0HJJQFO8M4MQ7UC5QKL32ISK", "dateTime": 1515964360397}, {"current_trial": 180, "trialdata": {"rt": -1, "trial_type": "single-stim", "stimulus": "<p id=\"stim\">4</p>", "internal_node_id": "0.0-129.0-6.0", "time_elapsed": 1058446, "key_press": -1, "trial_index": 180}, "uniqueid": "MTK1546:3IFS6Q0HJJQFO8M4MQ7UC5QKL32ISK", "dateTime": 1515964361400}, {"current_trial": 181, "trialdata": {"rt": -1, "trial_type": "single-stim", "stimulus": "<p id=\"stim\">3</p>", "internal_node_id": "0.0-129.0-7.0", "time_elapsed": 1059449, "key_press": -1, "trial_index": 181}, "uniqueid": "MTK1546:3IFS6Q0HJJQFO8M4MQ7UC5QKL32ISK", "dateTime": 1515964362404}, {"current_trial": 182, "trialdata": {"rt": -1, "trial_type": "single-stim", "stimulus": "<p id=\"stim\">2</p>", "internal_node_id": "0.0-129.0-8.0", "time_elapsed": 1060452, "key_press": -1, "trial_index": 182}, "uniqueid": "MTK1546:3IFS6Q0HJJQFO8M4MQ7UC5QKL32ISK", "dateTime": 1515964363407}, {"current_trial": 183, "trialdata": {"rt": -1, "trial_type": "single-stim", "stimulus": "<p id=\"stim\">1</p>", "internal_node_id": "0.0-129.0-9.0", "time_elapsed": 1061460, "key_press": -1, "trial_index": 183}, "uniqueid": "MTK1546:3IFS6Q0HJJQFO8M4MQ7UC5QKL32ISK", "dateTime": 1515964364414}, {"current_trial": 184, "trialdata": {"rt": -1, "trial_type": "single-stim", "stimulus": "<p id=\"stim\">+</p>", "internal_node_id": "0.0-130.0-0.0", "time_elapsed": 1062966, "key_press": -1, "type": "FIXATION", "trial_index": 184}, "uniqueid": "MTK1546:3IFS6Q0HJJQFO8M4MQ7UC5QKL32ISK", "dateTime": 1515964365966}, {"current_trial": 185, "trialdata": {"rt": -1, "trial_type": "single-stim", "word": "lava", "stimulus": "<p id=\"stim\">LAVA</p>", "conditions": [24, 800, "v", 24000], "internal_node_id": "0.0-131.0", "trial": 5, "time_elapsed": 1063815, "serialpos": 0, "key_press": -1, "wordID": 803, "type": "PRES_VIS", "trial_index": 185}, "uniqueid": "MTK1546:3IFS6Q0HJJQFO8M4MQ7UC5QKL32ISK", "dateTime": 1515964366769}, {"current_trial": 186, "trialdata": {"rt": -1, "trial_type": "single-stim", "word": "napkin", "stimulus": "<p id=\"stim\">NAPKIN</p>", "conditions": [24, 800, "v", 24000], "internal_node_id": "0.0-132.0", "trial": 5, "time_elapsed": 1065676, "serialpos": 1, "key_press": -1, "wordID": 936, "type": "PRES_VIS", "trial_index": 186}, "uniqueid": "MTK1546:3IFS6Q0HJJQFO8M4MQ7UC5QKL32ISK", "dateTime": 1515964368631}, {"current_trial": 187, "trialdata": {"rt": -1, "trial_type": "single-stim", "word": "stallion", "stimulus": "<p id=\"stim\">STALLION</p>", "conditions": [24, 800, "v", 24000], "internal_node_id": "0.0-133.0", "trial": 5, "time_elapsed": 1067610, "serialpos": 2, "key_press": -1, "wordID": 1368, "type": "PRES_VIS", "trial_index": 187}, "uniqueid": "MTK1546:3IFS6Q0HJJQFO8M4MQ7UC5QKL32ISK", "dateTime": 1515964370565}, {"current_trial": 188, "trialdata": {"rt": -1, "trial_type": "single-stim", "word": "bacon", "stimulus": "<p id=\"stim\">BACON</p>", "conditions": [24, 800, "v", 24000], "internal_node_id": "0.0-134.0", "trial": 5, "time_elapsed": 1069286, "serialpos": 3, "key_press": -1, "wordID": 66, "type": "PRES_VIS", "trial_index": 188}, "uniqueid": "MTK1546:3IFS6Q0HJJQFO8M4MQ7UC5QKL32ISK", "dateTime": 1515964372241}, {"current_trial": 189, "trialdata": {"rt": -1, "trial_type": "single-stim", "word": "costume", "stimulus": "<p id=\"stim\">COSTUME</p>", "conditions": [24, 800, "v", 24000], "internal_node_id": "0.0-135.0", "trial": 5, "time_elapsed": 1070898, "serialpos": 4, "key_press": -1, "wordID": 382, "type": "PRES_VIS", "trial_index": 189}, "uniqueid": "MTK1546:3IFS6Q0HJJQFO8M4MQ7UC5QKL32ISK", "dateTime": 1515964373853}, {"current_trial": 190, "trialdata": {"rt": -1, "trial_type": "single-stim", "word": "fireman", "stimulus": "<p id=\"stim\">FIREMAN</p>", "conditions": [24, 800, "v", 24000], "internal_node_id": "0.0-136.0", "trial": 5, "time_elapsed": 1072524, "serialpos": 5, "key_press": -1, "wordID": 568, "type": "PRES_VIS", "trial_index": 190}, "uniqueid": "MTK1546:3IFS6Q0HJJQFO8M4MQ7UC5QKL32ISK", "dateTime": 1515964375478}, {"current_trial": 191, "trialdata": {"rt": -1, "trial_type": "single-stim", "word": "rooster", "stimulus": "<p id=\"stim\">ROOSTER</p>", "conditions": [24, 800, "v", 24000], "internal_node_id": "0.0-137.0", "trial": 5, "time_elapsed": 1074233, "serialpos": 6, "key_press": -1, "wordID": 1208, "type": "PRES_VIS", "trial_index": 191}, "uniqueid": "MTK1546:3IFS6Q0HJJQFO8M4MQ7UC5QKL32ISK", "dateTime": 1515964377188}, {"current_trial": 192, "trialdata": {"rt": -1, "trial_type": "single-stim", "word": "pastry", "stimulus": "<p id=\"stim\">PASTRY</p>", "conditions": [24, 800, "v", 24000], "internal_node_id": "0.0-138.0", "trial": 5, "time_elapsed": 1075990, "serialpos": 7, "key_press": -1, "wordID": 1021, "type": "PRES_VIS", "trial_index": 192}, "uniqueid": "MTK1546:3IFS6Q0HJJQFO8M4MQ7UC5QKL32ISK", "dateTime": 1515964378944}, {"current_trial": 193, "trialdata": {"rt": -1, "trial_type": "single-stim", "word": "poison", "stimulus": "<p id=\"stim\">POISON</p>", "conditions": [24, 800, "v", 24000], "internal_node_id": "0.0-139.0", "trial": 5, "time_elapsed": 1077652, "serialpos": 8, "key_press": -1, "wordID": 1095, "type": "PRES_VIS", "trial_index": 193}, "uniqueid": "MTK1546:3IFS6Q0HJJQFO8M4MQ7UC5QKL32ISK", "dateTime": 1515964380607}, {"current_trial": 194, "trialdata": {"rt": -1, "trial_type": "single-stim", "word": "scarecrow", "stimulus": "<p id=\"stim\">SCARECROW</p>", "conditions": [24, 800, "v", 24000], "internal_node_id": "0.0-140.0", "trial": 5, "time_elapsed": 1079422, "serialpos": 9, "key_press": -1, "wordID": 1244, "type": "PRES_VIS", "trial_index": 194}, "uniqueid": "MTK1546:3IFS6Q0HJJQFO8M4MQ7UC5QKL32ISK", "dateTime": 1515964382377}, {"current_trial": 195, "trialdata": {"rt": -1, "trial_type": "single-stim", "word": "cabbage", "stimulus": "<p id=\"stim\">CABBAGE</p>", "conditions": [24, 800, "v", 24000], "internal_node_id": "0.0-141.0", "trial": 5, "time_elapsed": 1081282, "serialpos": 10, "key_press": -1, "wordID": 209, "type": "PRES_VIS", "trial_index": 195}, "uniqueid": "MTK1546:3IFS6Q0HJJQFO8M4MQ7UC5QKL32ISK", "dateTime": 1515964384236}, {"current_trial": 196, "trialdata": {"rt": -1, "trial_type": "single-stim", "word": "radish", "stimulus": "<p id=\"stim\">RADISH</p>", "conditions": [24, 800, "v", 24000], "internal_node_id": "0.0-142.0", "trial": 5, "time_elapsed": 1083181, "serialpos": 11, "key_press": -1, "wordID": 1157, "type": "PRES_VIS", "trial_index": 196}, "uniqueid": "MTK1546:3IFS6Q0HJJQFO8M4MQ7UC5QKL32ISK", "dateTime": 1515964386135}, {"current_trial": 197, "trialdata": {"rt": -1, "trial_type": "single-stim", "word": "shirt", "stimulus": "<p id=\"stim\">SHIRT</p>", "conditions": [24, 800, "v", 24000], "internal_node_id": "0.0-143.0", "trial": 5, "time_elapsed": 1084842, "serialpos": 12, "key_press": -1, "wordID": 1286, "type": "PRES_VIS", "trial_index": 197}, "uniqueid": "MTK1546:3IFS6Q0HJJQFO8M4MQ7UC5QKL32ISK", "dateTime": 1515964387797}, {"current_trial": 198, "trialdata": {"rt": -1, "trial_type": "single-stim", "word": "powder", "stimulus": "<p id=\"stim\">POWDER</p>", "conditions": [24, 800, "v", 24000], "internal_node_id": "0.0-144.0", "trial": 5, "time_elapsed": 1086724, "serialpos": 13, "key_press": -1, "wordID": 1116, "type": "PRES_VIS", "trial_index": 198}, "uniqueid": "MTK1546:3IFS6Q0HJJQFO8M4MQ7UC5QKL32ISK", "dateTime": 1515964389678}, {"current_trial": 199, "trialdata": {"rt": -1, "trial_type": "single-stim", "word": "dime", "stimulus": "<p id=\"stim\">DIME</p>", "conditions": [24, 800, "v", 24000], "internal_node_id": "0.0-145.0", "trial": 5, "time_elapsed": 1088719, "serialpos": 14, "key_press": -1, "wordID": 465, "type": "PRES_VIS", "trial_index": 199}, "uniqueid": "MTK1546:3IFS6Q0HJJQFO8M4MQ7UC5QKL32ISK", "dateTime": 1515964391673}, {"current_trial": 200, "trialdata": {"rt": -1, "trial_type": "single-stim", "word": "mustard", "stimulus": "<p id=\"stim\">MUSTARD</p>", "conditions": [24, 800, "v", 24000], "internal_node_id": "0.0-146.0", "trial": 5, "time_elapsed": 1090428, "serialpos": 15, "key_press": -1, "wordID": 934, "type": "PRES_VIS", "trial_index": 200}, "uniqueid": "MTK1546:3IFS6Q0HJJQFO8M4MQ7UC5QKL32ISK", "dateTime": 1515964393382}, {"current_trial": 201, "trialdata": {"rt": -1, "trial_type": "single-stim", "word": "briefcase", "stimulus": "<p id=\"stim\">BRIEFCASE</p>", "conditions": [24, 800, "v", 24000], "internal_node_id": "0.0-147.0", "trial": 5, "time_elapsed": 1092034, "serialpos": 16, "key_press": -1, "wordID": 174, "type": "PRES_VIS", "trial_index": 201}, "uniqueid": "MTK1546:3IFS6Q0HJJQFO8M4MQ7UC5QKL32ISK", "dateTime": 1515964394988}, {"current_trial": 202, "trialdata": {"rt": -1, "trial_type": "single-stim", "word": "carriage", "stimulus": "<p id=\"stim\">CARRIAGE</p>", "conditions": [24, 800, "v", 24000], "internal_node_id": "0.0-148.0", "trial": 5, "time_elapsed": 1093664, "serialpos": 17, "key_press": -1, "wordID": 247, "type": "PRES_VIS", "trial_index": 202}, "uniqueid": "MTK1546:3IFS6Q0HJJQFO8M4MQ7UC5QKL32ISK", "dateTime": 1515964396619}, {"current_trial": 203, "trialdata": {"rt": -1, "trial_type": "single-stim", "word": "cabin", "stimulus": "<p id=\"stim\">CABIN</p>", "conditions": [24, 800, "v", 24000], "internal_node_id": "0.0-149.0", "trial": 5, "time_elapsed": 1095300, "serialpos": 18, "key_press": -1, "wordID": 210, "type": "PRES_VIS", "trial_index": 203}, "uniqueid": "MTK1546:3IFS6Q0HJJQFO8M4MQ7UC5QKL32ISK", "dateTime": 1515964398254}, {"current_trial": 204, "trialdata": {"rt": -1, "trial_type": "single-stim", "word": "backbone", "stimulus": "<p id=\"stim\">BACKBONE</p>", "conditions": [24, 800, "v", 24000], "internal_node_id": "0.0-150.0", "trial": 5, "time_elapsed": 1097158, "serialpos": 19, "key_press": -1, "wordID": 65, "type": "PRES_VIS", "trial_index": 204}, "uniqueid": "MTK1546:3IFS6Q0HJJQFO8M4MQ7UC5QKL32ISK", "dateTime": 1515964400112}, {"current_trial": 205, "trialdata": {"rt": -1, "trial_type": "single-stim", "word": "europe", "stimulus": "<p id=\"stim\">EUROPE</p>", "conditions": [24, 800, "v", 24000], "internal_node_id": "0.0-151.0", "trial": 5, "time_elapsed": 1098772, "serialpos": 20, "key_press": -1, "wordID": 540, "type": "PRES_VIS", "trial_index": 205}, "uniqueid": "MTK1546:3IFS6Q0HJJQFO8M4MQ7UC5QKL32ISK", "dateTime": 1515964401726}, {"current_trial": 206, "trialdata": {"rt": -1, "trial_type": "single-stim", "word": "asia", "stimulus": "<p id=\"stim\">ASIA</p>", "conditions": [24, 800, "v", 24000], "internal_node_id": "0.0-152.0", "trial": 5, "time_elapsed": 1100634, "serialpos": 21, "key_press": -1, "wordID": 45, "type": "PRES_VIS", "trial_index": 206}, "uniqueid": "MTK1546:3IFS6Q0HJJQFO8M4MQ7UC5QKL32ISK", "dateTime": 1515964403588}, {"current_trial": 207, "trialdata": {"rt": -1, "trial_type": "single-stim", "word": "knapsack", "stimulus": "<p id=\"stim\">KNAPSACK</p>", "conditions": [24, 800, "v", 24000], "internal_node_id": "0.0-153.0", "trial": 5, "time_elapsed": 1102239, "serialpos": 22, "key_press": -1, "wordID": 782, "type": "PRES_VIS", "trial_index": 207}, "uniqueid": "MTK1546:3IFS6Q0HJJQFO8M4MQ7UC5QKL32ISK", "dateTime": 1515964405194}, {"current_trial": 208, "trialdata": {"rt": -1, "trial_type": "single-stim", "word": "eyelash", "stimulus": "<p id=\"stim\">EYELASH</p>", "conditions": [24, 800, "v", 24000], "internal_node_id": "0.0-154.0", "trial": 5, "time_elapsed": 1104065, "serialpos": 23, "key_press": -1, "wordID": 545, "type": "PRES_VIS", "trial_index": 208}, "uniqueid": "MTK1546:3IFS6Q0HJJQFO8M4MQ7UC5QKL32ISK", "dateTime": 1515964407019}, {"current_trial": 209, "trialdata": {"rt": -1, "trial_type": "single-stim", "stimulus": "", "internal_node_id": "0.0-155.0-0.0", "time_elapsed": 1106402, "key_press": -1, "type": "PRE_RECALL_DELAY", "trial_index": 209}, "uniqueid": "MTK1546:3IFS6Q0HJJQFO8M4MQ7UC5QKL32ISK", "dateTime": 1515964409357}, {"current_trial": 210, "trialdata": {"rt": -1000, "trial_type": "single-audio", "stimulus": "/static/audio/400Hz.wav", "internal_node_id": "0.0-156.0", "time_elapsed": 1106914, "key_press": -1, "type": "PRE_RECALL_ALERT", "trial_index": 210}, "uniqueid": "MTK1546:3IFS6Q0HJJQFO8M4MQ7UC5QKL32ISK", "dateTime": 1515964409868}, {"current_trial": 211, "trialdata": {"rt": [2771, 3403, 5494, 8806, 10592, 12844, 15151, 18809, 20973, 22860], "recwords": ["europe", "asia", "backpack", "knapsack", "cabbage", "sauerkraut", "pastry", "mustard", "lava", "lamp"], "key_times": [766, 869, 1018, 1132, 1522, 1714, 1883, 1989, 2150, 2232, 2465, 2587, 2771, 2972, 3008, 3135, 3294, 3403, 4348, 4494, 4595, 4690, 4920, 5041, 5105, 5210, 5494, 6385, 6506, 6641, 6778, 7032, 7499, 7667, 7827, 7939, 7999, 8806, 9750, 9804, 9915, 10102, 10188, 10291, 10446, 10592, 11522, 11636, 11727, 11856, 11956, 12087, 12220, 12287, 12501, 12647, 12844, 14252, 14381, 14407, 14594, 14785, 14872, 15151, 17614, 17894, 17946, 18010, 18207, 18292, 18498, 18809, 20330, 20389, 20568, 20788, 20973, 21410, 21830, 22106, 22255, 22420, 22569, 22860, 26655, 26769, 26891, 27792, 27993, 28172, 28370], "trial_type": "free-recall", "conditions": [24, 800, "v", 24000], "internal_node_id": "0.0-157.0-0.0", "key_presses": [69, 82, 85, 80, 8, 8, 8, 85, 82, 79, 80, 69, 13, 65, 83, 73, 65, 13, 66, 65, 67, 75, 80, 65, 67, 75, 13, 75, 78, 65, 80, 67, 8, 83, 65, 67, 75, 13, 67, 65, 66, 66, 65, 71, 69, 13, 83, 65, 85, 69, 82, 75, 82, 65, 85, 84, 13, 80, 65, 83, 84, 82, 89, 13, 77, 85, 83, 84, 65, 82, 68, 13, 76, 65, 86, 65, 13, 70, 8, 76, 65, 77, 80, 13, 72, 65, 82, 8, 8, 8, 8], "trial": 5, "time_elapsed": 1166938, "type": "FREE_RECALL", "trial_index": 211}, "uniqueid": "MTK1546:3IFS6Q0HJJQFO8M4MQ7UC5QKL32ISK", "dateTime": 1515964469899}, {"current_trial": 212, "trialdata": {"rt": 1380, "trial_type": "text", "internal_node_id": "0.0-158.0", "time_elapsed": 1170328, "key_press": 13, "type": "INSTRUCTIONS", "trial_index": 212}, "uniqueid": "MTK1546:3IFS6Q0HJJQFO8M4MQ7UC5QKL32ISK", "dateTime": 1515964473283}, {"current_trial": 213, "trialdata": {"rt": [1633, 3908, 5507, 8040, 9691, 11570], "trial_type": "math-distractor", "key_times": [1130, 1385, 1633, 3285, 3494, 3908, 4976, 5215, 5507, 7518, 7745, 8040, 9185, 9404, 9691, 11051, 11254, 11570], "responses": ["13", "20", "18", "15", "15", "18"], "num2": [2, 5, 8, 6, 4, 6, 4], "num3": [2, 6, 2, 8, 5, 7, 3], "conditions": [12, 800, "v", 12000], "internal_node_id": "0.0-159.0", "key_presses": [97, 99, 13, 98, 96, 13, 97, 104, 13, 97, 101, 13, 97, 101, 13, 97, 104, 13], "trial": 6, "time_elapsed": 1184334, "type": "DISTRACTOR", "trial_index": 213, "num1": [9, 9, 8, 1, 6, 5, 8]}, "uniqueid": "MTK1546:3IFS6Q0HJJQFO8M4MQ7UC5QKL32ISK", "dateTime": 1515964487289}, {"current_trial": 214, "trialdata": {"rt": -1, "trial_type": "single-stim", "stimulus": "<p id=\"stim\">10</p>", "internal_node_id": "0.0-160.0-0.0", "time_elapsed": 1187337, "key_press": -1, "trial_index": 214}, "uniqueid": "MTK1546:3IFS6Q0HJJQFO8M4MQ7UC5QKL32ISK", "dateTime": 1515964490295}, {"current_trial": 215, "trialdata": {"rt": -1, "trial_type": "single-stim", "stimulus": "<p id=\"stim\">9</p>", "internal_node_id": "0.0-160.0-1.0", "time_elapsed": 1188343, "key_press": -1, "trial_index": 215}, "uniqueid": "MTK1546:3IFS6Q0HJJQFO8M4MQ7UC5QKL32ISK", "dateTime": 1515964491298}, {"current_trial": 216, "trialdata": {"rt": -1, "trial_type": "single-stim", "stimulus": "<p id=\"stim\">8</p>", "internal_node_id": "0.0-160.0-2.0", "time_elapsed": 1189345, "key_press": -1, "trial_index": 216}, "uniqueid": "MTK1546:3IFS6Q0HJJQFO8M4MQ7UC5QKL32ISK", "dateTime": 1515964492300}, {"current_trial": 217, "trialdata": {"rt": -1, "trial_type": "single-stim", "stimulus": "<p id=\"stim\">7</p>", "internal_node_id": "0.0-160.0-3.0", "time_elapsed": 1190347, "key_press": -1, "trial_index": 217}, "uniqueid": "MTK1546:3IFS6Q0HJJQFO8M4MQ7UC5QKL32ISK", "dateTime": 1515964493302}, {"current_trial": 218, "trialdata": {"rt": -1, "trial_type": "single-stim", "stimulus": "<p id=\"stim\">6</p>", "internal_node_id": "0.0-160.0-4.0", "time_elapsed": 1191349, "key_press": -1, "trial_index": 218}, "uniqueid": "MTK1546:3IFS6Q0HJJQFO8M4MQ7UC5QKL32ISK", "dateTime": 1515964494304}, {"current_trial": 219, "trialdata": {"rt": -1, "trial_type": "single-stim", "stimulus": "<p id=\"stim\">5</p>", "internal_node_id": "0.0-160.0-5.0", "time_elapsed": 1192353, "key_press": -1, "trial_index": 219}, "uniqueid": "MTK1546:3IFS6Q0HJJQFO8M4MQ7UC5QKL32ISK", "dateTime": 1515964495307}, {"current_trial": 220, "trialdata": {"rt": -1, "trial_type": "single-stim", "stimulus": "<p id=\"stim\">4</p>", "internal_node_id": "0.0-160.0-6.0", "time_elapsed": 1193355, "key_press": -1, "trial_index": 220}, "uniqueid": "MTK1546:3IFS6Q0HJJQFO8M4MQ7UC5QKL32ISK", "dateTime": 1515964496309}, {"current_trial": 221, "trialdata": {"rt": -1, "trial_type": "single-stim", "stimulus": "<p id=\"stim\">3</p>", "internal_node_id": "0.0-160.0-7.0", "time_elapsed": 1194357, "key_press": -1, "trial_index": 221}, "uniqueid": "MTK1546:3IFS6Q0HJJQFO8M4MQ7UC5QKL32ISK", "dateTime": 1515964497311}, {"current_trial": 222, "trialdata": {"rt": -1, "trial_type": "single-stim", "stimulus": "<p id=\"stim\">2</p>", "internal_node_id": "0.0-160.0-8.0", "time_elapsed": 1195358, "key_press": -1, "trial_index": 222}, "uniqueid": "MTK1546:3IFS6Q0HJJQFO8M4MQ7UC5QKL32ISK", "dateTime": 1515964498313}, {"current_trial": 223, "trialdata": {"rt": -1, "trial_type": "single-stim", "stimulus": "<p id=\"stim\">1</p>", "internal_node_id": "0.0-160.0-9.0", "time_elapsed": 1196360, "key_press": -1, "trial_index": 223}, "uniqueid": "MTK1546:3IFS6Q0HJJQFO8M4MQ7UC5QKL32ISK", "dateTime": 1515964499315}, {"current_trial": 224, "trialdata": {"rt": -1, "trial_type": "single-stim", "stimulus": "<p id=\"stim\">+</p>", "internal_node_id": "0.0-161.0-0.0", "time_elapsed": 1197864, "key_press": -1, "type": "FIXATION", "trial_index": 224}, "uniqueid": "MTK1546:3IFS6Q0HJJQFO8M4MQ7UC5QKL32ISK", "dateTime": 1515964500819}, {"current_trial": 225, "trialdata": {"rt": -1, "trial_type": "single-stim", "word": "turnip", "stimulus": "<p id=\"stim\">TURNIP</p>", "conditions": [12, 800, "v", 12000], "internal_node_id": "0.0-162.0", "trial": 6, "time_elapsed": 1198667, "serialpos": 0, "key_press": -1, "wordID": 1520, "type": "PRES_VIS", "trial_index": 225}, "uniqueid": "MTK1546:3IFS6Q0HJJQFO8M4MQ7UC5QKL32ISK", "dateTime": 1515964501622}, {"current_trial": 226, "trialdata": {"rt": -1, "trial_type": "single-stim", "word": "patient", "stimulus": "<p id=\"stim\">PATIENT</p>", "conditions": [12, 800, "v", 12000], "internal_node_id": "0.0-163.0", "trial": 6, "time_elapsed": 1200527, "serialpos": 1, "key_press": -1, "wordID": 1023, "type": "PRES_VIS", "trial_index": 226}, "uniqueid": "MTK1546:3IFS6Q0HJJQFO8M4MQ7UC5QKL32ISK", "dateTime": 1515964503482}, {"current_trial": 227, "trialdata": {"rt": -1, "trial_type": "single-stim", "word": "cattle", "stimulus": "<p id=\"stim\">CATTLE</p>", "conditions": [12, 800, "v", 12000], "internal_node_id": "0.0-164.0", "trial": 6, "time_elapsed": 1202309, "serialpos": 2, "key_press": -1, "wordID": 260, "type": "PRES_VIS", "trial_index": 227}, "uniqueid": "MTK1546:3IFS6Q0HJJQFO8M4MQ7UC5QKL32ISK", "dateTime": 1515964505264}, {"current_trial": 228, "trialdata": {"rt": -1, "trial_type": "single-stim", "word": "bison", "stimulus": "<p id=\"stim\">BISON</p>", "conditions": [12, 800, "v", 12000], "internal_node_id": "0.0-165.0", "trial": 6, "time_elapsed": 1204273, "serialpos": 3, "key_press": -1, "wordID": 130, "type": "PRES_VIS", "trial_index": 228}, "uniqueid": "MTK1546:3IFS6Q0HJJQFO8M4MQ7UC5QKL32ISK", "dateTime": 1515964507227}, {"current_trial": 229, "trialdata": {"rt": -1, "trial_type": "single-stim", "word": "poet", "stimulus": "<p id=\"stim\">POET</p>", "conditions": [12, 800, "v", 12000], "internal_node_id": "0.0-166.0", "trial": 6, "time_elapsed": 1206147, "serialpos": 4, "key_press": -1, "wordID": 1094, "type": "PRES_VIS", "trial_index": 229}, "uniqueid": "MTK1546:3IFS6Q0HJJQFO8M4MQ7UC5QKL32ISK", "dateTime": 1515964509102}, {"current_trial": 230, "trialdata": {"rt": -1, "trial_type": "single-stim", "word": "bunny", "stimulus": "<p id=\"stim\">BUNNY</p>", "conditions": [12, 800, "v", 12000], "internal_node_id": "0.0-167.0", "trial": 6, "time_elapsed": 1207959, "serialpos": 5, "key_press": -1, "wordID": 197, "type": "PRES_VIS", "trial_index": 230}, "uniqueid": "MTK1546:3IFS6Q0HJJQFO8M4MQ7UC5QKL32ISK", "dateTime": 1515964510914}, {"current_trial": 231, "trialdata": {"rt": -1, "trial_type": "single-stim", "word": "pudding", "stimulus": "<p id=\"stim\">PUDDING</p>", "conditions": [12, 800, "v", 12000], "internal_node_id": "0.0-168.0", "trial": 6, "time_elapsed": 1209913, "serialpos": 6, "key_press": -1, "wordID": 1138, "type": "PRES_VIS", "trial_index": 231}, "uniqueid": "MTK1546:3IFS6Q0HJJQFO8M4MQ7UC5QKL32ISK", "dateTime": 1515964512868}, {"current_trial": 232, "trialdata": {"rt": -1, "trial_type": "single-stim", "word": "creature", "stimulus": "<p id=\"stim\">CREATURE</p>", "conditions": [12, 800, "v", 12000], "internal_node_id": "0.0-169.0", "trial": 6, "time_elapsed": 1211728, "serialpos": 7, "key_press": -1, "wordID": 402, "type": "PRES_VIS", "trial_index": 232}, "uniqueid": "MTK1546:3IFS6Q0HJJQFO8M4MQ7UC5QKL32ISK", "dateTime": 1515964514682}, {"current_trial": 233, "trialdata": {"rt": -1, "trial_type": "single-stim", "word": "basement", "stimulus": "<p id=\"stim\">BASEMENT</p>", "conditions": [12, 800, "v", 12000], "internal_node_id": "0.0-170.0", "trial": 6, "time_elapsed": 1213390, "serialpos": 8, "key_press": -1, "wordID": 93, "type": "PRES_VIS", "trial_index": 233}, "uniqueid": "MTK1546:3IFS6Q0HJJQFO8M4MQ7UC5QKL32ISK", "dateTime": 1515964516345}, {"current_trial": 234, "trialdata": {"rt": -1, "trial_type": "single-stim", "word": "nurse", "stimulus": "<p id=\"stim\">NURSE</p>", "conditions": [12, 800, "v", 12000], "internal_node_id": "0.0-171.0", "trial": 6, "time_elapsed": 1215216, "serialpos": 9, "key_press": -1, "wordID": 962, "type": "PRES_VIS", "trial_index": 234}, "uniqueid": "MTK1546:3IFS6Q0HJJQFO8M4MQ7UC5QKL32ISK", "dateTime": 1515964518170}, {"current_trial": 235, "trialdata": {"rt": -1, "trial_type": "single-stim", "word": "waiter", "stimulus": "<p id=\"stim\">WAITER</p>", "conditions": [12, 800, "v", 12000], "internal_node_id": "0.0-172.0", "trial": 6, "time_elapsed": 1216887, "serialpos": 10, "key_press": -1, "wordID": 1579, "type": "PRES_VIS", "trial_index": 235}, "uniqueid": "MTK1546:3IFS6Q0HJJQFO8M4MQ7UC5QKL32ISK", "dateTime": 1515964519842}, {"current_trial": 236, "trialdata": {"rt": -1, "trial_type": "single-stim", "word": "picture", "stimulus": "<p id=\"stim\">PICTURE</p>", "conditions": [12, 800, "v", 12000], "internal_node_id": "0.0-173.0", "trial": 6, "time_elapsed": 1218733, "serialpos": 11, "key_press": -1, "wordID": 1060, "type": "PRES_VIS", "trial_index": 236}, "uniqueid": "MTK1546:3IFS6Q0HJJQFO8M4MQ7UC5QKL32ISK", "dateTime": 1515964521687}, {"current_trial": 237, "trialdata": {"rt": -1, "trial_type": "single-stim", "stimulus": "", "internal_node_id": "0.0-174.0-0.0", "time_elapsed": 1221035, "key_press": -1, "type": "PRE_RECALL_DELAY", "trial_index": 237}, "uniqueid": "MTK1546:3IFS6Q0HJJQFO8M4MQ7UC5QKL32ISK", "dateTime": 1515964523990}, {"current_trial": 238, "trialdata": {"rt": -1000, "trial_type": "single-audio", "stimulus": "/static/audio/400Hz.wav", "internal_node_id": "0.0-175.0", "time_elapsed": 1221540, "key_press": -1, "type": "PRE_RECALL_ALERT", "trial_index": 238}, "uniqueid": "MTK1546:3IFS6Q0HJJQFO8M4MQ7UC5QKL32ISK", "dateTime": 1515964524494}, {"current_trial": 239, "trialdata": {"rt": [2205, 3317, 4365, 5501, 6841, 7835, 14779, 18254, 20456], "recwords": ["picture", "basement", "bunny", "turnip", "cattle", "bison", "waiter", "basement", "nurse"], "key_times": [1230, 1474, 1546, 1799, 1890, 2031, 2108, 2205, 2480, 2571, 2610, 2693, 2884, 2985, 3121, 3233, 3317, 3535, 3728, 3959, 4106, 4219, 4365, 4529, 4652, 4808, 4931, 5086, 5336, 5501, 5923, 6059, 6222, 6396, 6518, 6677, 6841, 7084, 7234, 7354, 7503, 7576, 7835, 14045, 14171, 14267, 14408, 14535, 14702, 14779, 17363, 17454, 17503, 17601, 17781, 17896, 18003, 18106, 18254, 19795, 20051, 20091, 20233, 20326, 20456], "trial_type": "free-recall", "conditions": [12, 800, "v", 12000], "internal_node_id": "0.0-176.0-0.0", "key_presses": [80, 73, 67, 84, 85, 82, 69, 13, 66, 65, 83, 69, 77, 69, 78, 84, 13, 66, 85, 78, 78, 89, 13, 84, 85, 82, 78, 73, 80, 13, 67, 65, 84, 84, 76, 69, 13, 66, 73, 83, 79, 78, 13, 87, 65, 73, 84, 69, 82, 13, 66, 65, 83, 69, 77, 69, 78, 84, 13, 78, 85, 82, 83, 69, 13], "trial": 6, "time_elapsed": 1281545, "type": "FREE_RECALL", "trial_index": 239}, "uniqueid": "MTK1546:3IFS6Q0HJJQFO8M4MQ7UC5QKL32ISK", "dateTime": 1515964584511}, {"current_trial": 240, "trialdata": {"rt": 1673, "trial_type": "text", "internal_node_id": "0.0-177.0", "time_elapsed": 1285234, "key_press": 13, "type": "INSTRUCTIONS", "trial_index": 240}, "uniqueid": "MTK1546:3IFS6Q0HJJQFO8M4MQ7UC5QKL32ISK", "dateTime": 1515964588188}, {"current_trial": 241, "trialdata": {"rt": [1798, 3466, 5437, 7862, 9490, 10746], "trial_type": "math-distractor", "key_times": [1340, 1508, 1798, 2923, 3144, 3466, 4982, 5161, 5437, 7326, 7542, 7862, 9195, 9490, 10460, 10746, 11900], "responses": ["16", "14", "15", "14", "9", "5"], "num2": [8, 6, 6, 9, 2, 3, 3], "num3": [4, 6, 4, 2, 1, 1, 2], "conditions": [12, 800, "v", 12000], "internal_node_id": "0.0-178.0", "key_presses": [97, 102, 13, 97, 100, 13, 97, 101, 13, 97, 100, 13, 105, 13, 101, 13, 97], "trial": 7, "time_elapsed": 1299240, "type": "DISTRACTOR", "trial_index": 241, "num1": [4, 2, 5, 3, 6, 1, 9]}, "uniqueid": "MTK1546:3IFS6Q0HJJQFO8M4MQ7UC5QKL32ISK", "dateTime": 1515964602195}, {"current_trial": 242, "trialdata": {"rt": -1, "trial_type": "single-stim", "stimulus": "<p id=\"stim\">10</p>", "internal_node_id": "0.0-179.0-0.0", "time_elapsed": 1302243, "key_press": -1, "trial_index": 242}, "uniqueid": "MTK1546:3IFS6Q0HJJQFO8M4MQ7UC5QKL32ISK", "dateTime": 1515964605197}, {"current_trial": 243, "trialdata": {"rt": -1, "trial_type": "single-stim", "stimulus": "<p id=\"stim\">9</p>", "internal_node_id": "0.0-179.0-1.0", "time_elapsed": 1303245, "key_press": -1, "trial_index": 243}, "uniqueid": "MTK1546:3IFS6Q0HJJQFO8M4MQ7UC5QKL32ISK", "dateTime": 1515964606199}, {"current_trial": 244, "trialdata": {"rt": -1, "trial_type": "single-stim", "stimulus": "<p id=\"stim\">8</p>", "internal_node_id": "0.0-179.0-2.0", "time_elapsed": 1304247, "key_press": -1, "trial_index": 244}, "uniqueid": "MTK1546:3IFS6Q0HJJQFO8M4MQ7UC5QKL32ISK", "dateTime": 1515964607201}, {"current_trial": 245, "trialdata": {"rt": -1, "trial_type": "single-stim", "stimulus": "<p id=\"stim\">7</p>", "internal_node_id": "0.0-179.0-3.0", "time_elapsed": 1305249, "key_press": -1, "trial_index": 245}, "uniqueid": "MTK1546:3IFS6Q0HJJQFO8M4MQ7UC5QKL32ISK", "dateTime": 1515964608203}, {"current_trial": 246, "trialdata": {"rt": -1, "trial_type": "single-stim", "stimulus": "<p id=\"stim\">6</p>", "internal_node_id": "0.0-179.0-4.0", "time_elapsed": 1306253, "key_press": -1, "trial_index": 246}, "uniquei