{"assignmentId": "3V26SBZTBELYKAXSHMPO8TQD4POZZB", "workerId": "MTK1363", "questiondata": {"origin": "United States", "strat-rehearsal": "49", "marital": "Married/Domestic Partnership", "education": "Some college", "ethnicity": "Hispanic", "color_depth": 24, "distracted": "No", "wrote-notes": "Yes", "strat-other": "", "screen_width": 1920, "avail_screen_width": 1920, "avail_screen_height": 1040, "strat-image": "75", "language": "english", "gender": "Male", "age": "34", "gender_other": "", "race": ["Other"], "strat-categorize": "92", "pixel_depth": 24, "strat-spatial": "75", "strat-story": "88", "race_other": "hispanic", "screen_height": 1080}, "bonus": 0, "hitId": "36QZ6V1589KIAFJAQ5R66OIBYSRUS2", "counterbalance": 2953, "useragent": "Mozilla/5.0 (Windows NT 10.0; Win64; x64) AppleWebKit/537.36 (KHTML, like Gecko) Chrome/63.0.3239.132 Safari/537.36", "eventdata": [{"eventtype": "initialized", "interval": 0, "value": null, "timestamp": 1515864383601}, {"eventtype": "window_resize", "interval": 0, "value": [1920, 1033], "timestamp": 1515864383601}, {"eventtype": "window_resize", "interval": 32543, "value": [1920, 989], "timestamp": 1515864416144}, {"eventtype": "focus", "interval": 34182, "value": "off", "timestamp": 1515864450326}, {"eventtype": "focus", "interval": 1, "value": "on", "timestamp": 1515864450327}, {"eventtype": "focus", "interval": 67383, "value": "off", "timestamp": 1515864517710}, {"eventtype": "focus", "interval": 4664, "value": "on", "timestamp": 1515864522374}, {"eventtype": "focus", "interval": 535, "value": "off", "timestamp": 1515864522909}, {"eventtype": "focus", "interval": 3093, "value": "on", "timestamp": 1515864526002}, {"eventtype": "focus", "interval": 436, "value": "off", "timestamp": 1515864526438}, {"eventtype": "focus", "interval": 16891, "value": "on", "timestamp": 1515864543329}, {"eventtype": "focus", "interval": 1391100, "value": "off", "timestamp": 1515865934429}, {"eventtype": "focus", "interval": 27713, "value": "on", "timestamp": 1515865962142}, {"eventtype": "focus", "interval": 525, "value": "off", "timestamp": 1515865962667}, {"eventtype": "focus", "interval": 573244, "value": "on", "timestamp": 1515866535911}, {"eventtype": "focus", "interval": 522716, "value": "off", "timestamp": 1515867058627}, {"eventtype": "focus", "interval": 723799, "value": "on", "timestamp": 1515867782426}, {"eventtype": "focus", "interval": 104527, "value": "off", "timestamp": 1515867886953}, {"eventtype": "focus", "interval": 5419, "value": "on", "timestamp": 1515867892372}, {"eventtype": "focus", "interval": 1174444, "value": "off", "timestamp": 1515869066816}, {"eventtype": "focus", "interval": 9764, "value": "on", "timestamp": 1515869076580}], "data": [{"current_trial": 0, "trialdata": {"rt": 2633, "trial_type": "text", "internal_node_id": "0.0-0.0", "time_elapsed": 2636, "key_press": 13, "type": "INSTRUCTIONS", "trial_index": 0}, "uniqueid": "MTK1363:3V26SBZTBELYKAXSHMPO8TQD4POZZB", "dateTime": 1515864387137}, {"current_trial": 1, "trialdata": {"rt": 33839, "trial_type": "text", "internal_node_id": "0.0-1.0", "time_elapsed": 36476, "key_press": 13, "type": "INSTRUCTIONS", "trial_index": 1}, "uniqueid": "MTK1363:3V26SBZTBELYKAXSHMPO8TQD4POZZB", "dateTime": 1515864420977}, {"current_trial": 2, "trialdata": {"rt": [17826], "trial_type": "audio-test", "responses": ["ocean"], "internal_node_id": "0.0-2.0", "time_elapsed": 54308, "type": "AUDIO_TEST", "trial_index": 2}, "uniqueid": "MTK1363:3V26SBZTBELYKAXSHMPO8TQD4POZZB", "dateTime": 1515864438809}, {"current_trial": 3, "trialdata": {"rt": [7661, 17669], "trial_type": "audio-test", "responses": ["cristal", "crystal"], "internal_node_id": "0.0-3.0", "time_elapsed": 71979, "type": "AUDIO_TEST", "trial_index": 3}, "uniqueid": "MTK1363:3V26SBZTBELYKAXSHMPO8TQD4POZZB", "dateTime": 1515864456480}, {"current_trial": 4, "trialdata": {"rt": [20254], "trial_type": "audio-test", "responses": ["spice"], "internal_node_id": "0.0-4.0", "time_elapsed": 92235, "type": "AUDIO_TEST", "trial_index": 4}, "uniqueid": "MTK1363:3V26SBZTBELYKAXSHMPO8TQD4POZZB", "dateTime": 1515864476736}, {"current_trial": 5, "trialdata": {"rt": 20402, "trial_type": "survey-text", "responses": "{\"Q0\":\"1am\",\"Q1\":\"8am\",\"Q2\":\"4\"}", "internal_node_id": "0.0-5.0", "time_elapsed": 113390, "type": "SLEEP_SURVEY", "trial_index": 5}, "uniqueid": "MTK1363:3V26SBZTBELYKAXSHMPO8TQD4POZZB", "dateTime": 1515864497891}, {"current_trial": 6, "trialdata": {"rt": 18697, "trial_type": "text", "internal_node_id": "0.0-6.0", "time_elapsed": 133089, "key_press": 18, "type": "INSTRUCTIONS", "trial_index": 6}, "uniqueid": "MTK1363:3V26SBZTBELYKAXSHMPO8TQD4POZZB", "dateTime": 1515864517591}, {"current_trial": 7, "trialdata": {"rt": 673642, "trial_type": "text", "internal_node_id": "0.0-7.0", "time_elapsed": 807232, "key_press": 13, "type": "INSTRUCTIONS", "trial_index": 7}, "uniqueid": "MTK1363:3V26SBZTBELYKAXSHMPO8TQD4POZZB", "dateTime": 1515865191733}, {"current_trial": 8, "trialdata": {"rt": 15589, "trial_type": "text", "internal_node_id": "0.0-8.0", "time_elapsed": 823323, "key_press": 13, "type": "INSTRUCTIONS", "trial_index": 8}, "uniqueid": "MTK1363:3V26SBZTBELYKAXSHMPO8TQD4POZZB", "dateTime": 1515865207824}, {"current_trial": 9, "trialdata": {"rt": [4407, 6630, 10215], "trial_type": "math-distractor", "key_times": [3898, 3985, 4407, 6210, 6410, 6630, 8969, 9098, 10215], "responses": ["13", "10", "15"], "num2": [5, 2, 4, 4], "num3": [4, 5, 3, 3], "conditions": [18, 1200, "v", 18000], "internal_node_id": "0.0-9.0", "key_presses": [97, 99, 13, 97, 96, 13, 97, 101, 13], "trial": 0, "time_elapsed": 842351, "type": "DISTRACTOR", "trial_index": 9, "num1": [6, 3, 8, 9]}, "uniqueid": "MTK1363:3V26SBZTBELYKAXSHMPO8TQD4POZZB", "dateTime": 1515865226852}, {"current_trial": 10, "trialdata": {"rt": -1, "trial_type": "single-stim", "stimulus": "<p id=\"stim\">10</p>", "internal_node_id": "0.0-10.0-0.0", "time_elapsed": 845354, "key_press": -1, "trial_index": 10}, "uniqueid": "MTK1363:3V26SBZTBELYKAXSHMPO8TQD4POZZB", "dateTime": 1515865229856}, {"current_trial": 11, "trialdata": {"rt": -1, "trial_type": "single-stim", "stimulus": "<p id=\"stim\">9</p>", "internal_node_id": "0.0-10.0-1.0", "time_elapsed": 846357, "key_press": -1, "trial_index": 11}, "uniqueid": "MTK1363:3V26SBZTBELYKAXSHMPO8TQD4POZZB", "dateTime": 1515865230858}, {"current_trial": 12, "trialdata": {"rt": -1, "trial_type": "single-stim", "stimulus": "<p id=\"stim\">8</p>", "internal_node_id": "0.0-10.0-2.0", "time_elapsed": 847359, "key_press": -1, "trial_index": 12}, "uniqueid": "MTK1363:3V26SBZTBELYKAXSHMPO8TQD4POZZB", "dateTime": 1515865231860}, {"current_trial": 13, "trialdata": {"rt": -1, "trial_type": "single-stim", "stimulus": "<p id=\"stim\">7</p>", "internal_node_id": "0.0-10.0-3.0", "time_elapsed": 848360, "key_press": -1, "trial_index": 13}, "uniqueid": "MTK1363:3V26SBZTBELYKAXSHMPO8TQD4POZZB", "dateTime": 1515865232861}, {"current_trial": 14, "trialdata": {"rt": -1, "trial_type": "single-stim", "stimulus": "<p id=\"stim\">6</p>", "internal_node_id": "0.0-10.0-4.0", "time_elapsed": 849362, "key_press": -1, "trial_index": 14}, "uniqueid": "MTK1363:3V26SBZTBELYKAXSHMPO8TQD4POZZB", "dateTime": 1515865233863}, {"current_trial": 15, "trialdata": {"rt": -1, "trial_type": "single-stim", "stimulus": "<p id=\"stim\">5</p>", "internal_node_id": "0.0-10.0-5.0", "time_elapsed": 850364, "key_press": -1, "trial_index": 15}, "uniqueid": "MTK1363:3V26SBZTBELYKAXSHMPO8TQD4POZZB", "dateTime": 1515865234866}, {"current_trial": 16, "trialdata": {"rt": -1, "trial_type": "single-stim", "stimulus": "<p id=\"stim\">4</p>", "internal_node_id": "0.0-10.0-6.0", "time_elapsed": 851366, "key_press": -1, "trial_index": 16}, "uniqueid": "MTK1363:3V26SBZTBELYKAXSHMPO8TQD4POZZB", "dateTime": 1515865235868}, {"current_trial": 17, "trialdata": {"rt": -1, "trial_type": "single-stim", "stimulus": "<p id=\"stim\">3</p>", "internal_node_id": "0.0-10.0-7.0", "time_elapsed": 852368, "key_press": -1, "trial_index": 17}, "uniqueid": "MTK1363:3V26SBZTBELYKAXSHMPO8TQD4POZZB", "dateTime": 1515865236869}, {"current_trial": 18, "trialdata": {"rt": -1, "trial_type": "single-stim", "stimulus": "<p id=\"stim\">2</p>", "internal_node_id": "0.0-10.0-8.0", "time_elapsed": 853370, "key_press": -1, "trial_index": 18}, "uniqueid": "MTK1363:3V26SBZTBELYKAXSHMPO8TQD4POZZB", "dateTime": 1515865237871}, {"current_trial": 19, "trialdata": {"rt": -1, "trial_type": "single-stim", "stimulus": "<p id=\"stim\">1</p>", "internal_node_id": "0.0-10.0-9.0", "time_elapsed": 854371, "key_press": -1, "trial_index": 19}, "uniqueid": "MTK1363:3V26SBZTBELYKAXSHMPO8TQD4POZZB", "dateTime": 1515865238872}, {"current_trial": 20, "trialdata": {"rt": -1, "trial_type": "single-stim", "stimulus": "<p id=\"stim\">+</p>", "internal_node_id": "0.0-11.0-0.0", "time_elapsed": 855873, "key_press": -1, "type": "FIXATION", "trial_index": 20}, "uniqueid": "MTK1363:3V26SBZTBELYKAXSHMPO8TQD4POZZB", "dateTime": 1515865240374}, {"current_trial": 21, "trialdata": {"rt": -1, "trial_type": "single-stim", "word": "tile", "stimulus": "<p id=\"stim\">TILE</p>", "conditions": [18, 1200, "v", 18000], "internal_node_id": "0.0-12.0", "trial": 0, "time_elapsed": 857075, "serialpos": 0, "key_press": -1, "wordID": 1467, "type": "PRES_VIS", "trial_index": 21}, "uniqueid": "MTK1363:3V26SBZTBELYKAXSHMPO8TQD4POZZB", "dateTime": 1515865241577}, {"current_trial": 22, "trialdata": {"rt": -1, "trial_type": "single-stim", "word": "pliers", "stimulus": "<p id=\"stim\">PLIERS</p>", "conditions": [18, 1200, "v", 18000], "internal_node_id": "0.0-13.0", "trial": 0, "time_elapsed": 859335, "serialpos": 1, "key_press": -1, "wordID": 1088, "type": "PRES_VIS", "trial_index": 22}, "uniqueid": "MTK1363:3V26SBZTBELYKAXSHMPO8TQD4POZZB", "dateTime": 1515865243836}, {"current_trial": 23, "trialdata": {"rt": -1, "trial_type": "single-stim", "word": "diver", "stimulus": "<p id=\"stim\">DIVER</p>", "conditions": [18, 1200, "v", 18000], "internal_node_id": "0.0-14.0", "trial": 0, "time_elapsed": 861340, "serialpos": 2, "key_press": -1, "wordID": 475, "type": "PRES_VIS", "trial_index": 23}, "uniqueid": "MTK1363:3V26SBZTBELYKAXSHMPO8TQD4POZZB", "dateTime": 1515865245841}, {"current_trial": 24, "trialdata": {"rt": -1, "trial_type": "single-stim", "word": "hamper", "stimulus": "<p id=\"stim\">HAMPER</p>", "conditions": [18, 1200, "v", 18000], "internal_node_id": "0.0-15.0", "trial": 0, "time_elapsed": 863483, "serialpos": 3, "key_press": -1, "wordID": 681, "type": "PRES_VIS", "trial_index": 24}, "uniqueid": "MTK1363:3V26SBZTBELYKAXSHMPO8TQD4POZZB", "dateTime": 1515865247984}, {"current_trial": 25, "trialdata": {"rt": -1, "trial_type": "single-stim", "word": "report", "stimulus": "<p id=\"stim\">REPORT</p>", "conditions": [18, 1200, "v", 18000], "internal_node_id": "0.0-16.0", "trial": 0, "time_elapsed": 865565, "serialpos": 4, "key_press": -1, "wordID": 1183, "type": "PRES_VIS", "trial_index": 25}, "uniqueid": "MTK1363:3V26SBZTBELYKAXSHMPO8TQD4POZZB", "dateTime": 1515865250066}, {"current_trial": 26, "trialdata": {"rt": -1, "trial_type": "single-stim", "word": "casket", "stimulus": "<p id=\"stim\">CASKET</p>", "conditions": [18, 1200, "v", 18000], "internal_node_id": "0.0-17.0", "trial": 0, "time_elapsed": 867702, "serialpos": 5, "key_press": -1, "wordID": 254, "type": "PRES_VIS", "trial_index": 26}, "uniqueid": "MTK1363:3V26SBZTBELYKAXSHMPO8TQD4POZZB", "dateTime": 1515865252203}, {"current_trial": 27, "trialdata": {"rt": -1, "trial_type": "single-stim", "word": "postage", "stimulus": "<p id=\"stim\">POSTAGE</p>", "conditions": [18, 1200, "v", 18000], "internal_node_id": "0.0-18.0", "trial": 0, "time_elapsed": 870035, "serialpos": 6, "key_press": -1, "wordID": 1112, "type": "PRES_VIS", "trial_index": 27}, "uniqueid": "MTK1363:3V26SBZTBELYKAXSHMPO8TQD4POZZB", "dateTime": 1515865254536}, {"current_trial": 28, "trialdata": {"rt": -1, "trial_type": "single-stim", "word": "victim", "stimulus": "<p id=\"stim\">VICTIM</p>", "conditions": [18, 1200, "v", 18000], "internal_node_id": "0.0-19.0", "trial": 0, "time_elapsed": 872248, "serialpos": 7, "key_press": -1, "wordID": 1561, "type": "PRES_VIS", "trial_index": 28}, "uniqueid": "MTK1363:3V26SBZTBELYKAXSHMPO8TQD4POZZB", "dateTime": 1515865256749}, {"current_trial": 29, "trialdata": {"rt": -1, "trial_type": "single-stim", "word": "icing", "stimulus": "<p id=\"stim\">ICING</p>", "conditions": [18, 1200, "v", 18000], "internal_node_id": "0.0-20.0", "trial": 0, "time_elapsed": 874318, "serialpos": 8, "key_press": -1, "wordID": 731, "type": "PRES_VIS", "trial_index": 29}, "uniqueid": "MTK1363:3V26SBZTBELYKAXSHMPO8TQD4POZZB", "dateTime": 1515865258819}, {"current_trial": 30, "trialdata": {"rt": -1, "trial_type": "single-stim", "word": "muffin", "stimulus": "<p id=\"stim\">MUFFIN</p>", "conditions": [18, 1200, "v", 18000], "internal_node_id": "0.0-21.0", "trial": 0, "time_elapsed": 876339, "serialpos": 9, "key_press": -1, "wordID": 928, "type": "PRES_VIS", "trial_index": 30}, "uniqueid": "MTK1363:3V26SBZTBELYKAXSHMPO8TQD4POZZB", "dateTime": 1515865260840}, {"current_trial": 31, "trialdata": {"rt": -1, "trial_type": "single-stim", "word": "daughter", "stimulus": "<p id=\"stim\">DAUGHTER</p>", "conditions": [18, 1200, "v", 18000], "internal_node_id": "0.0-22.0", "trial": 0, "time_elapsed": 878423, "serialpos": 10, "key_press": -1, "wordID": 441, "type": "PRES_VIS", "trial_index": 31}, "uniqueid": "MTK1363:3V26SBZTBELYKAXSHMPO8TQD4POZZB", "dateTime": 1515865262924}, {"current_trial": 32, "trialdata": {"rt": -1, "trial_type": "single-stim", "word": "girl", "stimulus": "<p id=\"stim\">GIRL</p>", "conditions": [18, 1200, "v", 18000], "internal_node_id": "0.0-23.0", "trial": 0, "time_elapsed": 880484, "serialpos": 11, "key_press": -1, "wordID": 636, "type": "PRES_VIS", "trial_index": 32}, "uniqueid": "MTK1363:3V26SBZTBELYKAXSHMPO8TQD4POZZB", "dateTime": 1515865264985}, {"current_trial": 33, "trialdata": {"rt": -1, "trial_type": "single-stim", "word": "drink", "stimulus": "<p id=\"stim\">DRINK</p>", "conditions": [18, 1200, "v", 18000], "internal_node_id": "0.0-24.0", "trial": 0, "time_elapsed": 882739, "serialpos": 12, "key_press": -1, "wordID": 497, "type": "PRES_VIS", "trial_index": 33}, "uniqueid": "MTK1363:3V26SBZTBELYKAXSHMPO8TQD4POZZB", "dateTime": 1515865267241}, {"current_trial": 34, "trialdata": {"rt": -1, "trial_type": "single-stim", "word": "switch", "stimulus": "<p id=\"stim\">SWITCH</p>", "conditions": [18, 1200, "v", 18000], "internal_node_id": "0.0-25.0", "trial": 0, "time_elapsed": 884805, "serialpos": 13, "key_press": -1, "wordID": 1421, "type": "PRES_VIS", "trial_index": 34}, "uniqueid": "MTK1363:3V26SBZTBELYKAXSHMPO8TQD4POZZB", "dateTime": 1515865269306}, {"current_trial": 35, "trialdata": {"rt": -1, "trial_type": "single-stim", "word": "cod", "stimulus": "<p id=\"stim\">COD</p>", "conditions": [18, 1200, "v", 18000], "internal_node_id": "0.0-26.0", "trial": 0, "time_elapsed": 887069, "serialpos": 14, "key_press": -1, "wordID": 339, "type": "PRES_VIS", "trial_index": 35}, "uniqueid": "MTK1363:3V26SBZTBELYKAXSHMPO8TQD4POZZB", "dateTime": 1515865271570}, {"current_trial": 36, "trialdata": {"rt": -1, "trial_type": "single-stim", "word": "fleet", "stimulus": "<p id=\"stim\">FLEET</p>", "conditions": [18, 1200, "v", 18000], "internal_node_id": "0.0-27.0", "trial": 0, "time_elapsed": 889106, "serialpos": 15, "key_press": -1, "wordID": 577, "type": "PRES_VIS", "trial_index": 36}, "uniqueid": "MTK1363:3V26SBZTBELYKAXSHMPO8TQD4POZZB", "dateTime": 1515865273608}, {"current_trial": 37, "trialdata": {"rt": -1, "trial_type": "single-stim", "word": "swamp", "stimulus": "<p id=\"stim\">SWAMP</p>", "conditions": [18, 1200, "v", 18000], "internal_node_id": "0.0-28.0", "trial": 0, "time_elapsed": 891401, "serialpos": 16, "key_press": -1, "wordID": 1415, "type": "PRES_VIS", "trial_index": 37}, "uniqueid": "MTK1363:3V26SBZTBELYKAXSHMPO8TQD4POZZB", "dateTime": 1515865275902}, {"current_trial": 38, "trialdata": {"rt": -1, "trial_type": "single-stim", "word": "shorts", "stimulus": "<p id=\"stim\">SHORTS</p>", "conditions": [18, 1200, "v", 18000], "internal_node_id": "0.0-29.0", "trial": 0, "time_elapsed": 893572, "serialpos": 17, "key_press": -1, "wordID": 1292, "type": "PRES_VIS", "trial_index": 38}, "uniqueid": "MTK1363:3V26SBZTBELYKAXSHMPO8TQD4POZZB", "dateTime": 1515865278073}, {"current_trial": 39, "trialdata": {"rt": -1, "trial_type": "single-stim", "stimulus": "", "internal_node_id": "0.0-30.0-0.0", "time_elapsed": 895722, "key_press": -1, "type": "PRE_RECALL_DELAY", "trial_index": 39}, "uniqueid": "MTK1363:3V26SBZTBELYKAXSHMPO8TQD4POZZB", "dateTime": 1515865280223}, {"current_trial": 40, "trialdata": {"rt": -1000, "trial_type": "single-audio", "stimulus": "/static/audio/400Hz.wav", "internal_node_id": "0.0-31.0", "time_elapsed": 896225, "key_press": -1, "type": "PRE_RECALL_ALERT", "trial_index": 40}, "uniqueid": "MTK1363:3V26SBZTBELYKAXSHMPO8TQD4POZZB", "dateTime": 1515865280727}, {"current_trial": 41, "trialdata": {"rt": [1409, 1609, 4081, 7449, 10297, 12761, 25360, 25833, 27297, 54681, 57439, 57695, 57911, 58111, 58271, 58479], "recwords": ["icing", "", "muffin", "daugher", "girl", "drink", "", "", "", "short", "", "", "", "", "", ""], "key_times": [707, 882, 968, 1106, 1234, 1409, 1609, 1698, 2035, 2187, 2553, 2746, 2897, 2968, 3121, 4081, 5026, 5210, 5338, 5474, 5603, 5762, 5938, 6770, 6920, 7449, 8114, 8322, 8394, 8983, 9153, 9443, 9570, 9690, 10297, 10698, 10874, 10938, 11050, 11219, 12761, 25360, 25833, 27297, 54106, 54171, 54290, 54388, 54578, 54681, 57439, 57695, 57911, 58111, 58271, 58479, 59969], "trial_type": "free-recall", "conditions": [18, 1200, "v", 18000], "internal_node_id": "0.0-32.0-0.0", "key_presses": [73, 67, 73, 78, 71, 188, 32, 77, 85, 85, 8, 70, 70, 73, 78, 188, 68, 65, 85, 71, 72, 69, 84, 8, 82, 188, 71, 82, 73, 8, 8, 73, 82, 76, 188, 68, 82, 73, 78, 75, 188, 13, 188, 188, 83, 72, 79, 82, 84, 188, 13, 13, 13, 13, 13, 13, 190], "trial": 0, "time_elapsed": 956230, "type": "FREE_RECALL", "trial_index": 41}, "uniqueid": "MTK1363:3V26SBZTBELYKAXSHMPO8TQD4POZZB", "dateTime": 1515865340736}, {"current_trial": 42, "trialdata": {"rt": 1558, "trial_type": "text", "internal_node_id": "0.0-33.0", "time_elapsed": 959794, "key_press": 13, "type": "INSTRUCTIONS", "trial_index": 42}, "uniqueid": "MTK1363:3V26SBZTBELYKAXSHMPO8TQD4POZZB", "dateTime": 1515865344295}, {"current_trial": 43, "trialdata": {"rt": [3093, 5293, 9845, 11373, 13405, 15710, 17885], "trial_type": "math-distractor", "key_times": [1985, 3093, 4721, 4840, 5293, 8296, 8448, 9845, 10984, 11136, 11373, 13072, 13153, 13405, 15104, 15272, 15710, 17553, 17648, 17885], "responses": ["6", "18", "20", "13", "15", "10", "12"], "num2": [1, 3, 9, 3, 4, 3, 6, 9], "num3": [4, 8, 8, 5, 7, 2, 4, 7], "conditions": [18, 1200, "v", 18000], "internal_node_id": "0.0-34.0", "key_presses": [102, 13, 97, 104, 13, 98, 96, 13, 97, 99, 13, 97, 101, 13, 97, 96, 13, 97, 98, 13], "trial": 1, "time_elapsed": 979799, "type": "DISTRACTOR", "trial_index": 43, "num1": [1, 7, 3, 5, 4, 5, 2, 3]}, "uniqueid": "MTK1363:3V26SBZTBELYKAXSHMPO8TQD4POZZB", "dateTime": 1515865364300}, {"current_trial": 44, "trialdata": {"rt": -1, "trial_type": "single-stim", "stimulus": "<p id=\"stim\">10</p>", "internal_node_id": "0.0-35.0-0.0", "time_elapsed": 982802, "key_press": -1, "trial_index": 44}, "uniqueid": "MTK1363:3V26SBZTBELYKAXSHMPO8TQD4POZZB", "dateTime": 1515865367303}, {"current_trial": 45, "trialdata": {"rt": -1, "trial_type": "single-stim", "stimulus": "<p id=\"stim\">9</p>", "internal_node_id": "0.0-35.0-1.0", "time_elapsed": 983803, "key_press": -1, "trial_index": 45}, "uniqueid": "MTK1363:3V26SBZTBELYKAXSHMPO8TQD4POZZB", "dateTime": 1515865368305}, {"current_trial": 46, "trialdata": {"rt": -1, "trial_type": "single-stim", "stimulus": "<p id=\"stim\">8</p>", "internal_node_id": "0.0-35.0-2.0", "time_elapsed": 984805, "key_press": -1, "trial_index": 46}, "uniqueid": "MTK1363:3V26SBZTBELYKAXSHMPO8TQD4POZZB", "dateTime": 1515865369306}, {"current_trial": 47, "trialdata": {"rt": -1, "trial_type": "single-stim", "stimulus": "<p id=\"stim\">7</p>", "internal_node_id": "0.0-35.0-3.0", "time_elapsed": 985807, "key_press": -1, "trial_index": 47}, "uniqueid": "MTK1363:3V26SBZTBELYKAXSHMPO8TQD4POZZB", "dateTime": 1515865370308}, {"current_trial": 48, "trialdata": {"rt": -1, "trial_type": "single-stim", "stimulus": "<p id=\"stim\">6</p>", "internal_node_id": "0.0-35.0-4.0", "time_elapsed": 986809, "key_press": -1, "trial_index": 48}, "uniqueid": "MTK1363:3V26SBZTBELYKAXSHMPO8TQD4POZZB", "dateTime": 1515865371310}, {"current_trial": 49, "trialdata": {"rt": -1, "trial_type": "single-stim", "stimulus": "<p id=\"stim\">5</p>", "internal_node_id": "0.0-35.0-5.0", "time_elapsed": 987811, "key_press": -1, "trial_index": 49}, "uniqueid": "MTK1363:3V26SBZTBELYKAXSHMPO8TQD4POZZB", "dateTime": 1515865372312}, {"current_trial": 50, "trialdata": {"rt": -1, "trial_type": "single-stim", "stimulus": "<p id=\"stim\">4</p>", "internal_node_id": "0.0-35.0-6.0", "time_elapsed": 988812, "key_press": -1, "trial_index": 50}, "uniqueid": "MTK1363:3V26SBZTBELYKAXSHMPO8TQD4POZZB", "dateTime": 1515865373313}, {"current_trial": 51, "trialdata": {"rt": -1, "trial_type": "single-stim", "stimulus": "<p id=\"stim\">3</p>", "internal_node_id": "0.0-35.0-7.0", "time_elapsed": 989814, "key_press": -1, "trial_index": 51}, "uniqueid": "MTK1363:3V26SBZTBELYKAXSHMPO8TQD4POZZB", "dateTime": 1515865374315}, {"current_trial": 52, "trialdata": {"rt": -1, "trial_type": "single-stim", "stimulus": "<p id=\"stim\">2</p>", "internal_node_id": "0.0-35.0-8.0", "time_elapsed": 990817, "key_press": -1, "trial_index": 52}, "uniqueid": "MTK1363:3V26SBZTBELYKAXSHMPO8TQD4POZZB", "dateTime": 1515865375318}, {"current_trial": 53, "trialdata": {"rt": -1, "trial_type": "single-stim", "stimulus": "<p id=\"stim\">1</p>", "internal_node_id": "0.0-35.0-9.0", "time_elapsed": 991819, "key_press": -1, "trial_index": 53}, "uniqueid": "MTK1363:3V26SBZTBELYKAXSHMPO8TQD4POZZB", "dateTime": 1515865376320}, {"current_trial": 54, "trialdata": {"rt": -1, "trial_type": "single-stim", "stimulus": "<p id=\"stim\">+</p>", "internal_node_id": "0.0-36.0-0.0", "time_elapsed": 993320, "key_press": -1, "type": "FIXATION", "trial_index": 54}, "uniqueid": "MTK1363:3V26SBZTBELYKAXSHMPO8TQD4POZZB", "dateTime": 1515865377822}, {"current_trial": 55, "trialdata": {"rt": -1, "trial_type": "single-stim", "word": "hostess", "stimulus": "<p id=\"stim\">HOSTESS</p>", "conditions": [18, 1200, "v", 18000], "internal_node_id": "0.0-37.0", "trial": 1, "time_elapsed": 994523, "serialpos": 0, "key_press": -1, "wordID": 722, "type": "PRES_VIS", "trial_index": 55}, "uniqueid": "MTK1363:3V26SBZTBELYKAXSHMPO8TQD4POZZB", "dateTime": 1515865379024}, {"current_trial": 56, "trialdata": {"rt": -1, "trial_type": "single-stim", "word": "primate", "stimulus": "<p id=\"stim\">PRIMATE</p>", "conditions": [18, 1200, "v", 18000], "internal_node_id": "0.0-38.0", "trial": 1, "time_elapsed": 996533, "serialpos": 1, "key_press": -1, "wordID": 1122, "type": "PRES_VIS", "trial_index": 56}, "uniqueid": "MTK1363:3V26SBZTBELYKAXSHMPO8TQD4POZZB", "dateTime": 1515865381035}, {"current_trial": 57, "trialdata": {"rt": -1, "trial_type": "single-stim", "word": "grave", "stimulus": "<p id=\"stim\">GRAVE</p>", "conditions": [18, 1200, "v", 18000], "internal_node_id": "0.0-39.0", "trial": 1, "time_elapsed": 998678, "serialpos": 2, "key_press": -1, "wordID": 657, "type": "PRES_VIS", "trial_index": 57}, "uniqueid": "MTK1363:3V26SBZTBELYKAXSHMPO8TQD4POZZB", "dateTime": 1515865383179}, {"current_trial": 58, "trialdata": {"rt": -1, "trial_type": "single-stim", "word": "rattle", "stimulus": "<p id=\"stim\">RATTLE</p>", "conditions": [18, 1200, "v", 18000], "internal_node_id": "0.0-40.0", "trial": 1, "time_elapsed": 1000867, "serialpos": 3, "key_press": -1, "wordID": 1169, "type": "PRES_VIS", "trial_index": 58}, "uniqueid": "MTK1363:3V26SBZTBELYKAXSHMPO8TQD4POZZB", "dateTime": 1515865385368}, {"current_trial": 59, "trialdata": {"rt": -1, "trial_type": "single-stim", "word": "rod", "stimulus": "<p id=\"stim\">ROD</p>", "conditions": [18, 1200, "v", 18000], "internal_node_id": "0.0-41.0", "trial": 1, "time_elapsed": 1003152, "serialpos": 4, "key_press": -1, "wordID": 1202, "type": "PRES_VIS", "trial_index": 59}, "uniqueid": "MTK1363:3V26SBZTBELYKAXSHMPO8TQD4POZZB", "dateTime": 1515865387653}, {"current_trial": 60, "trialdata": {"rt": -1, "trial_type": "single-stim", "word": "driver", "stimulus": "<p id=\"stim\">DRIVER</p>", "conditions": [18, 1200, "v", 18000], "internal_node_id": "0.0-42.0", "trial": 1, "time_elapsed": 1005229, "serialpos": 5, "key_press": -1, "wordID": 498, "type": "PRES_VIS", "trial_index": 60}, "uniqueid": "MTK1363:3V26SBZTBELYKAXSHMPO8TQD4POZZB", "dateTime": 1515865389730}, {"current_trial": 61, "trialdata": {"rt": -1, "trial_type": "single-stim", "word": "parrot", "stimulus": "<p id=\"stim\">PARROT</p>", "conditions": [18, 1200, "v", 18000], "internal_node_id": "0.0-43.0", "trial": 1, "time_elapsed": 1007432, "serialpos": 6, "key_press": -1, "wordID": 1014, "type": "PRES_VIS", "trial_index": 61}, "uniqueid": "MTK1363:3V26SBZTBELYKAXSHMPO8TQD4POZZB", "dateTime": 1515865391933}, {"current_trial": 62, "trialdata": {"rt": -1, "trial_type": "single-stim", "word": "mattress", "stimulus": "<p id=\"stim\">MATTRESS</p>", "conditions": [18, 1200, "v", 18000], "internal_node_id": "0.0-44.0", "trial": 1, "time_elapsed": 1009614, "serialpos": 7, "key_press": -1, "wordID": 878, "type": "PRES_VIS", "trial_index": 62}, "uniqueid": "MTK1363:3V26SBZTBELYKAXSHMPO8TQD4POZZB", "dateTime": 1515865394115}, {"current_trial": 63, "trialdata": {"rt": -1, "trial_type": "single-stim", "word": "breast", "stimulus": "<p id=\"stim\">BREAST</p>", "conditions": [18, 1200, "v", 18000], "internal_node_id": "0.0-45.0", "trial": 1, "time_elapsed": 1011728, "serialpos": 8, "key_press": -1, "wordID": 170, "type": "PRES_VIS", "trial_index": 63}, "uniqueid": "MTK1363:3V26SBZTBELYKAXSHMPO8TQD4POZZB", "dateTime": 1515865396229}, {"current_trial": 64, "trialdata": {"rt": -1, "trial_type": "single-stim", "word": "statue", "stimulus": "<p id=\"stim\">STATUE</p>", "conditions": [18, 1200, "v", 18000], "internal_node_id": "0.0-46.0", "trial": 1, "time_elapsed": 1013987, "serialpos": 9, "key_press": -1, "wordID": 1373, "type": "PRES_VIS", "trial_index": 64}, "uniqueid": "MTK1363:3V26SBZTBELYKAXSHMPO8TQD4POZZB", "dateTime": 1515865398488}, {"current_trial": 65, "trialdata": {"rt": -1, "trial_type": "single-stim", "word": "hawk", "stimulus": "<p id=\"stim\">HAWK</p>", "conditions": [18, 1200, "v", 18000], "internal_node_id": "0.0-47.0", "trial": 1, "time_elapsed": 1016102, "serialpos": 10, "key_press": -1, "wordID": 691, "type": "PRES_VIS", "trial_index": 65}, "uniqueid": "MTK1363:3V26SBZTBELYKAXSHMPO8TQD4POZZB", "dateTime": 1515865400604}, {"current_trial": 66, "trialdata": {"rt": -1, "trial_type": "single-stim", "word": "blueprint", "stimulus": "<p id=\"stim\">BLUEPRINT</p>", "conditions": [18, 1200, "v", 18000], "internal_node_id": "0.0-48.0", "trial": 1, "time_elapsed": 1018277, "serialpos": 11, "key_press": -1, "wordID": 141, "type": "PRES_VIS", "trial_index": 66}, "uniqueid": "MTK1363:3V26SBZTBELYKAXSHMPO8TQD4POZZB", "dateTime": 1515865402778}, {"current_trial": 67, "trialdata": {"rt": -1, "trial_type": "single-stim", "word": "bullet", "stimulus": "<p id=\"stim\">BULLET</p>", "conditions": [18, 1200, "v", 18000], "internal_node_id": "0.0-49.0", "trial": 1, "time_elapsed": 1020527, "serialpos": 12, "key_press": -1, "wordID": 193, "type": "PRES_VIS", "trial_index": 67}, "uniqueid": "MTK1363:3V26SBZTBELYKAXSHMPO8TQD4POZZB", "dateTime": 1515865405028}, {"current_trial": 68, "trialdata": {"rt": -1, "trial_type": "single-stim", "word": "judge", "stimulus": "<p id=\"stim\">JUDGE</p>", "conditions": [18, 1200, "v", 18000], "internal_node_id": "0.0-50.0", "trial": 1, "time_elapsed": 1022740, "serialpos": 13, "key_press": -1, "wordID": 760, "type": "PRES_VIS", "trial_index": 68}, "uniqueid": "MTK1363:3V26SBZTBELYKAXSHMPO8TQD4POZZB", "dateTime": 1515865407246}, {"current_trial": 69, "trialdata": {"rt": -1, "trial_type": "single-stim", "word": "piano", "stimulus": "<p id=\"stim\">PIANO</p>", "conditions": [18, 1200, "v", 18000], "internal_node_id": "0.0-51.0", "trial": 1, "time_elapsed": 1024873, "serialpos": 14, "key_press": -1, "wordID": 1056, "type": "PRES_VIS", "trial_index": 69}, "uniqueid": "MTK1363:3V26SBZTBELYKAXSHMPO8TQD4POZZB", "dateTime": 1515865409374}, {"current_trial": 70, "trialdata": {"rt": -1, "trial_type": "single-stim", "word": "award", "stimulus": "<p id=\"stim\">AWARD</p>", "conditions": [18, 1200, "v", 18000], "internal_node_id": "0.0-52.0", "trial": 1, "time_elapsed": 1027228, "serialpos": 15, "key_press": -1, "wordID": 62, "type": "PRES_VIS", "trial_index": 70}, "uniqueid": "MTK1363:3V26SBZTBELYKAXSHMPO8TQD4POZZB", "dateTime": 1515865411730}, {"current_trial": 71, "trialdata": {"rt": -1, "trial_type": "single-stim", "word": "bug", "stimulus": "<p id=\"stim\">BUG</p>", "conditions": [18, 1200, "v", 18000], "internal_node_id": "0.0-53.0", "trial": 1, "time_elapsed": 1029622, "serialpos": 16, "key_press": -1, "wordID": 186, "type": "PRES_VIS", "trial_index": 71}, "uniqueid": "MTK1363:3V26SBZTBELYKAXSHMPO8TQD4POZZB", "dateTime": 1515865414123}, {"current_trial": 72, "trialdata": {"rt": -1, "trial_type": "single-stim", "word": "climber", "stimulus": "<p id=\"stim\">CLIMBER</p>", "conditions": [18, 1200, "v", 18000], "internal_node_id": "0.0-54.0", "trial": 1, "time_elapsed": 1031957, "serialpos": 17, "key_press": -1, "wordID": 322, "type": "PRES_VIS", "trial_index": 72}, "uniqueid": "MTK1363:3V26SBZTBELYKAXSHMPO8TQD4POZZB", "dateTime": 1515865416458}, {"current_trial": 73, "trialdata": {"rt": -1, "trial_type": "single-stim", "stimulus": "", "internal_node_id": "0.0-55.0-0.0", "time_elapsed": 1034238, "key_press": -1, "type": "PRE_RECALL_DELAY", "trial_index": 73}, "uniqueid": "MTK1363:3V26SBZTBELYKAXSHMPO8TQD4POZZB", "dateTime": 1515865418739}, {"current_trial": 74, "trialdata": {"rt": -1000, "trial_type": "single-audio", "stimulus": "/static/audio/400Hz.wav", "internal_node_id": "0.0-56.0", "time_elapsed": 1034739, "key_press": -1, "type": "PRE_RECALL_ALERT", "trial_index": 74}, "uniqueid": "MTK1363:3V26SBZTBELYKAXSHMPO8TQD4POZZB", "dateTime": 1515865419241}, {"current_trial": 75, "trialdata": {"rt": [2198, 4070, 6508, 8614, 13670, 28518, 33421, 38949, 39188, 39452, 39724, 41070, 41380, 41750, 42061, 42374, 42652, 55446], "recwords": ["rod", "rattle", "hostess", "primate", "breast", "rod", "award", "", "", "", "", "", "", "", "", "", "", "dance"], "key_times": [1272, 1407, 1559, 2198, 3183, 3279, 3454, 3606, 3759, 3942, 4070, 4519, 4679, 4783, 4967, 5095, 5271, 5447, 5911, 6070, 6182, 6359, 6508, 6959, 7119, 7167, 7319, 7423, 7551, 7679, 8614, 11439, 11671, 11760, 11943, 12079, 12351, 13670, 27552, 27647, 27759, 28518, 32199, 32391, 32558, 32766, 32961, 33421, 38949, 39188, 39452, 39724, 41070, 41380, 41750, 42061, 42374, 42652, 54607, 54767, 54848, 55007, 55191, 55446], "trial_type": "free-recall", "conditions": [18, 1200, "v", 18000], "internal_node_id": "0.0-57.0-0.0", "key_presses": [82, 79, 68, 188, 82, 65, 84, 84, 76, 69, 188, 72, 79, 83, 84, 69, 82, 83, 8, 8, 83, 83, 188, 80, 82, 73, 77, 65, 84, 69, 188, 66, 82, 69, 65, 83, 84, 188, 82, 79, 68, 188, 65, 87, 65, 82, 68, 188, 13, 13, 13, 13, 188, 13, 188, 13, 188, 13, 68, 65, 78, 67, 69, 188], "trial": 1, "time_elapsed": 1094744, "type": "FREE_RECALL", "trial_index": 75}, "uniqueid": "MTK1363:3V26SBZTBELYKAXSHMPO8TQD4POZZB", "dateTime": 1515865479248}, {"current_trial": 76, "trialdata": {"rt": 6925, "trial_type": "text", "internal_node_id": "0.0-58.0", "time_elapsed": 1103675, "key_press": 13, "type": "INSTRUCTIONS", "trial_index": 76}, "uniqueid": "MTK1363:3V26SBZTBELYKAXSHMPO8TQD4POZZB", "dateTime": 1515865488176}, {"current_trial": 77, "trialdata": {"rt": [2229, 5549, 7285, 9805], "trial_type": "math-distractor", "key_times": [1688, 1768, 2229, 5216, 5384, 5549, 7000, 7285, 9272, 9376, 9805], "responses": ["12", "14", "7", "12"], "num2": [2, 2, 4, 6, 9], "num3": [2, 3, 2, 1, 5], "conditions": [12, 1600, "v", 12000], "internal_node_id": "0.0-59.0", "key_presses": [97, 98, 13, 97, 100, 13, 103, 13, 97, 98, 13], "trial": 2, "time_elapsed": 1116679, "type": "DISTRACTOR", "trial_index": 77, "num1": [8, 9, 1, 5, 4]}, "uniqueid": "MTK1363:3V26SBZTBELYKAXSHMPO8TQD4POZZB", "dateTime": 1515865501180}, {"current_trial": 78, "trialdata": {"rt": -1, "trial_type": "single-stim", "stimulus": "<p id=\"stim\">10</p>", "internal_node_id": "0.0-60.0-0.0", "time_elapsed": 1119682, "key_press": -1, "trial_index": 78}, "uniqueid": "MTK1363:3V26SBZTBELYKAXSHMPO8TQD4POZZB", "dateTime": 1515865504183}, {"current_trial": 79, "trialdata": {"rt": -1, "trial_type": "single-stim", "stimulus": "<p id=\"stim\">9</p>", "internal_node_id": "0.0-60.0-1.0", "time_elapsed": 1120683, "key_press": -1, "trial_index": 79}, "uniqueid": "MTK1363:3V26SBZTBELYKAXSHMPO8TQD4POZZB", "dateTime": 1515865505184}, {"current_trial": 80, "trialdata": {"rt": -1, "trial_type": "single-stim", "stimulus": "<p id=\"stim\">8</p>", "internal_node_id": "0.0-60.0-2.0", "time_elapsed": 1121685, "key_press": -1, "trial_index": 80}, "uniqueid": "MTK1363:3V26SBZTBELYKAXSHMPO8TQD4POZZB", "dateTime": 1515865506187}, {"current_trial": 81, "trialdata": {"rt": -1, "trial_type": "single-stim", "stimulus": "<p id=\"stim\">7</p>", "internal_node_id": "0.0-60.0-3.0", "time_elapsed": 1122688, "key_press": -1, "trial_index": 81}, "uniqueid": "MTK1363:3V26SBZTBELYKAXSHMPO8TQD4POZZB", "dateTime": 1515865507189}, {"current_trial": 82, "trialdata": {"rt": -1, "trial_type": "single-stim", "stimulus": "<p id=\"stim\">6</p>", "internal_node_id": "0.0-60.0-4.0", "time_elapsed": 1123689, "key_press": -1, "trial_index": 82}, "uniqueid": "MTK1363:3V26SBZTBELYKAXSHMPO8TQD4POZZB", "dateTime": 1515865508191}, {"current_trial": 83, "trialdata": {"rt": -1, "trial_type": "single-stim", "stimulus": "<p id=\"stim\">5</p>", "internal_node_id": "0.0-60.0-5.0", "time_elapsed": 1124691, "key_press": -1, "trial_index": 83}, "uniqueid": "MTK1363:3V26SBZTBELYKAXSHMPO8TQD4POZZB", "dateTime": 1515865509192}, {"current_trial": 84, "trialdata": {"rt": -1, "trial_type": "single-stim", "stimulus": "<p id=\"stim\">4</p>", "internal_node_id": "0.0-60.0-6.0", "time_elapsed": 1125693, "key_press": -1, "trial_index": 84}, "uniqueid": "MTK1363:3V26SBZTBELYKAXSHMPO8TQD4POZZB", "dateTime": 1515865510194}, {"current_trial": 85, "trialdata": {"rt": -1, "trial_type": "single-stim", "stimulus": "<p id=\"stim\">3</p>", "internal_node_id": "0.0-60.0-7.0", "time_elapsed": 1126694, "key_press": -1, "trial_index": 85}, "uniqueid": "MTK1363:3V26SBZTBELYKAXSHMPO8TQD4POZZB", "dateTime": 1515865511195}, {"current_trial": 86, "trialdata": {"rt": -1, "trial_type": "single-stim", "stimulus": "<p id=\"stim\">2</p>", "internal_node_id": "0.0-60.0-8.0", "time_elapsed": 1127696, "key_press": -1, "trial_index": 86}, "uniqueid": "MTK1363:3V26SBZTBELYKAXSHMPO8TQD4POZZB", "dateTime": 1515865512197}, {"current_trial": 87, "trialdata": {"rt": -1, "trial_type": "single-stim", "stimulus": "<p id=\"stim\">1</p>", "internal_node_id": "0.0-60.0-9.0", "time_elapsed": 1128697, "key_press": -1, "trial_index": 87}, "uniqueid": "MTK1363:3V26SBZTBELYKAXSHMPO8TQD4POZZB", "dateTime": 1515865513198}, {"current_trial": 88, "trialdata": {"rt": -1, "trial_type": "single-stim", "stimulus": "<p id=\"stim\">+</p>", "internal_node_id": "0.0-61.0-0.0", "time_elapsed": 1130198, "key_press": -1, "type": "FIXATION", "trial_index": 88}, "uniqueid": "MTK1363:3V26SBZTBELYKAXSHMPO8TQD4POZZB", "dateTime": 1515865514700}, {"current_trial": 89, "trialdata": {"rt": -1, "trial_type": "single-stim", "word": "lily", "stimulus": "<p id=\"stim\">LILY</p>", "conditions": [12, 1600, "v", 12000], "internal_node_id": "0.0-62.0", "trial": 2, "time_elapsed": 1131800, "serialpos": 0, "key_press": -1, "wordID": 820, "type": "PRES_VIS", "trial_index": 89}, "uniqueid": "MTK1363:3V26SBZTBELYKAXSHMPO8TQD4POZZB", "dateTime": 1515865516301}, {"current_trial": 90, "trialdata": {"rt": -1, "trial_type": "single-stim", "word": "lettuce", "stimulus": "<p id=\"stim\">LETTUCE</p>", "conditions": [12, 1600, "v", 12000], "internal_node_id": "0.0-63.0", "trial": 2, "time_elapsed": 1134503, "serialpos": 1, "key_press": -1, "wordID": 813, "type": "PRES_VIS", "trial_index": 90}, "uniqueid": "MTK1363:3V26SBZTBELYKAXSHMPO8TQD4POZZB", "dateTime": 1515865519004}, {"current_trial": 91, "trialdata": {"rt": -1, "trial_type": "single-stim", "word": "plate", "stimulus": "<p id=\"stim\">PLATE</p>", "conditions": [12, 1600, "v", 12000], "internal_node_id": "0.0-64.0", "trial": 2, "time_elapsed": 1136956, "serialpos": 2, "key_press": -1, "wordID": 1085, "type": "PRES_VIS", "trial_index": 91}, "uniqueid": "MTK1363:3V26SBZTBELYKAXSHMPO8TQD4POZZB", "dateTime": 1515865521457}, {"current_trial": 92, "trialdata": {"rt": -1, "trial_type": "single-stim", "word": "pimple", "stimulus": "<p id=\"stim\">PIMPLE</p>", "conditions": [12, 1600, "v", 12000], "internal_node_id": "0.0-65.0", "trial": 2, "time_elapsed": 1139676, "serialpos": 3, "key_press": -1, "wordID": 1070, "type": "PRES_VIS", "trial_index": 92}, "uniqueid": "MTK1363:3V26SBZTBELYKAXSHMPO8TQD4POZZB", "dateTime": 1515865524177}, {"current_trial": 93, "trialdata": {"rt": -1, "trial_type": "single-stim", "word": "flashlight", "stimulus": "<p id=\"stim\">FLASHLIGHT</p>", "conditions": [12, 1600, "v", 12000], "internal_node_id": "0.0-66.0", "trial": 2, "time_elapsed": 1142425, "serialpos": 4, "key_press": -1, "wordID": 574, "type": "PRES_VIS", "trial_index": 93}, "uniqueid": "MTK1363:3V26SBZTBELYKAXSHMPO8TQD4POZZB", "dateTime": 1515865526926}, {"current_trial": 94, "trialdata": {"rt": -1, "trial_type": "single-stim", "word": "finger", "stimulus": "<p id=\"stim\">FINGER</p>", "conditions": [12, 1600, "v", 12000], "internal_node_id": "0.0-67.0", "trial": 2, "time_elapsed": 1144845, "serialpos": 5, "key_press": -1, "wordID": 566, "type": "PRES_VIS", "trial_index": 94}, "uniqueid": "MTK1363:3V26SBZTBELYKAXSHMPO8TQD4POZZB", "dateTime": 1515865529346}, {"current_trial": 95, "trialdata": {"rt": -1, "trial_type": "single-stim", "word": "cabbage", "stimulus": "<p id=\"stim\">CABBAGE</p>", "conditions": [12, 1600, "v", 12000], "internal_node_id": "0.0-68.0", "trial": 2, "time_elapsed": 1147332, "serialpos": 6, "key_press": -1, "wordID": 209, "type": "PRES_VIS", "trial_index": 95}, "uniqueid": "MTK1363:3V26SBZTBELYKAXSHMPO8TQD4POZZB", "dateTime": 1515865531834}, {"current_trial": 96, "trialdata": {"rt": -1, "trial_type": "single-stim", "word": "binder", "stimulus": "<p id=\"stim\">BINDER</p>", "conditions": [12, 1600, "v", 12000], "internal_node_id": "0.0-69.0", "trial": 2, "time_elapsed": 1149892, "serialpos": 7, "key_press": -1, "wordID": 126, "type": "PRES_VIS", "trial_index": 96}, "uniqueid": "MTK1363:3V26SBZTBELYKAXSHMPO8TQD4POZZB", "dateTime": 1515865534393}, {"current_trial": 97, "trialdata": {"rt": -1, "trial_type": "single-stim", "word": "cook", "stimulus": "<p id=\"stim\">COOK</p>", "conditions": [12, 1600, "v", 12000], "internal_node_id": "0.0-70.0", "trial": 2, "time_elapsed": 1152602, "serialpos": 8, "key_press": -1, "wordID": 371, "type": "PRES_VIS", "trial_index": 97}, "uniqueid": "MTK1363:3V26SBZTBELYKAXSHMPO8TQD4POZZB", "dateTime": 1515865537103}, {"current_trial": 98, "trialdata": {"rt": -1, "trial_type": "single-stim", "word": "kitchen", "stimulus": "<p id=\"stim\">KITCHEN</p>", "conditions": [12, 1600, "v", 12000], "internal_node_id": "0.0-71.0", "trial": 2, "time_elapsed": 1155245, "serialpos": 9, "key_press": -1, "wordID": 777, "type": "PRES_VIS", "trial_index": 98}, "uniqueid": "MTK1363:3V26SBZTBELYKAXSHMPO8TQD4POZZB", "dateTime": 1515865539746}, {"current_trial": 99, "trialdata": {"rt": -1, "trial_type": "single-stim", "word": "london", "stimulus": "<p id=\"stim\">LONDON</p>", "conditions": [12, 1600, "v", 12000], "internal_node_id": "0.0-72.0", "trial": 2, "time_elapsed": 1157779, "serialpos": 10, "key_press": -1, "wordID": 842, "type": "PRES_VIS", "trial_index": 99}, "uniqueid": "MTK1363:3V26SBZTBELYKAXSHMPO8TQD4POZZB", "dateTime": 1515865542280}, {"current_trial": 100, "trialdata": {"rt": -1, "trial_type": "single-stim", "word": "fruit", "stimulus": "<p id=\"stim\">FRUIT</p>", "conditions": [12, 1600, "v", 12000], "internal_node_id": "0.0-73.0", "trial": 2, "time_elapsed": 1160287, "serialpos": 11, "key_press": -1, "wordID": 609, "type": "PRES_VIS", "trial_index": 100}, "uniqueid": "MTK1363:3V26SBZTBELYKAXSHMPO8TQD4POZZB", "dateTime": 1515865544788}, {"current_trial": 101, "trialdata": {"rt": -1, "trial_type": "single-stim", "stimulus": "", "internal_node_id": "0.0-74.0-0.0", "time_elapsed": 1162840, "key_press": -1, "type": "PRE_RECALL_DELAY", "trial_index": 101}, "uniqueid": "MTK1363:3V26SBZTBELYKAXSHMPO8TQD4POZZB", "dateTime": 1515865547341}, {"current_trial": 102, "trialdata": {"rt": -1000, "trial_type": "single-audio", "stimulus": "/static/audio/400Hz.wav", "internal_node_id": "0.0-75.0", "time_elapsed": 1163342, "key_press": -1, "type": "PRE_RECALL_ALERT", "trial_index": 102}, "uniqueid": "MTK1363:3V26SBZTBELYKAXSHMPO8TQD4POZZB", "dateTime": 1515865547843}, {"current_trial": 103, "trialdata": {"rt": [6498, 8571, 10234, 12314, 16226, 18794, 25147, 26706, 29947, 36090, 38050, 45394], "recwords": ["lily", "cook", "london", "fruit", "lettuce", "plate", "flashlight", "pimple", "ringer", "cook", "kitchen", "fruit"], "key_times": [4949, 5117, 5293, 5497, 6498, 7676, 7925, 8116, 8317, 8571, 9293, 9469, 9621, 9773, 9869, 9930, 10234, 10533, 11229, 11341, 11414, 11636, 12314, 15053, 15173, 15357, 15524, 15588, 15773, 16005, 16226, 17918, 18141, 18269, 18477, 18566, 18794, 23293, 23429, 23581, 23851, 24005, 24421, 24557, 24685, 24789, 24940, 25147, 25533, 25701, 25941, 26116, 26350, 26484, 26706, 28981, 29069, 29189, 29333, 29573, 29756, 29947, 35221, 35477, 35620, 35821, 36090, 36724, 36973, 37109, 37365, 37451, 37645, 37772, 38050, 43485, 43701, 43781, 43917, 44044, 45394], "trial_type": "free-recall", "conditions": [12, 1600, "v", 12000], "internal_node_id": "0.0-76.0-0.0", "key_presses": [76, 73, 76, 89, 13, 67, 79, 79, 75, 13, 76, 79, 78, 68, 79, 78, 13, 70, 82, 85, 73, 84, 13, 76, 69, 84, 84, 85, 67, 69, 13, 80, 76, 65, 84, 69, 13, 70, 76, 65, 83, 72, 76, 73, 71, 72, 84, 13, 80, 73, 77, 80, 76, 69, 13, 82, 73, 78, 71, 69, 82, 13, 67, 79, 79, 75, 13, 75, 73, 84, 67, 72, 69, 78, 13, 70, 82, 85, 73, 84, 13], "trial": 2, "time_elapsed": 1223346, "type": "FREE_RECALL", "trial_index": 103}, "uniqueid": "MTK1363:3V26SBZTBELYKAXSHMPO8TQD4POZZB", "dateTime": 1515865607853}, {"current_trial": 104, "trialdata": {"rt": 13602, "trial_type": "text", "internal_node_id": "0.0-77.0", "time_elapsed": 1238955, "key_press": 13, "type": "INSTRUCTIONS", "trial_index": 104}, "uniqueid": "MTK1363:3V26SBZTBELYKAXSHMPO8TQD4POZZB", "dateTime": 1515865623456}, {"current_trial": 105, "trialdata": {"rt": [2445, 4125, 6277, 11141], "trial_type": "math-distractor", "key_times": [2031, 2191, 2445, 3808, 3911, 4125, 5920, 6072, 6277, 10688, 10895, 11141], "responses": ["19", "16", "11", "17"], "num2": [7, 5, 3, 6, 8], "num3": [3, 5, 4, 7, 2], "conditions": [24, 800, "v", 12000], "internal_node_id": "0.0-78.0", "key_presses": [97, 105, 13, 97, 102, 13, 97, 97, 13, 97, 103, 13], "trial": 3, "time_elapsed": 1252959, "type": "DISTRACTOR", "trial_index": 105, "num1": [9, 6, 4, 4, 2]}, "uniqueid": "MTK1363:3V26SBZTBELYKAXSHMPO8TQD4POZZB", "dateTime": 1515865637460}, {"current_trial": 106, "trialdata": {"rt": -1, "trial_type": "single-stim", "stimulus": "<p id=\"stim\">10</p>", "internal_node_id": "0.0-79.0-0.0", "time_elapsed": 1255963, "key_press": -1, "trial_index": 106}, "uniqueid": "MTK1363:3V26SBZTBELYKAXSHMPO8TQD4POZZB", "dateTime": 1515865640464}, {"current_trial": 107, "trialdata": {"rt": -1, "trial_type": "single-stim", "stimulus": "<p id=\"stim\">9</p>", "internal_node_id": "0.0-79.0-1.0", "time_elapsed": 1256965, "key_press": -1, "trial_index": 107}, "uniqueid": "MTK1363:3V26SBZTBELYKAXSHMPO8TQD4POZZB", "dateTime": 1515865641466}, {"current_trial": 108, "trialdata": {"rt": -1, "trial_type": "single-stim", "stimulus": "<p id=\"stim\">8</p>", "internal_node_id": "0.0-79.0-2.0", "time_elapsed": 1257966, "key_press": -1, "trial_index": 108}, "uniqueid": "MTK1363:3V26SBZTBELYKAXSHMPO8TQD4POZZB", "dateTime": 1515865642467}, {"current_trial": 109, "trialdata": {"rt": -1, "trial_type": "single-stim", "stimulus": "<p id=\"stim\">7</p>", "internal_node_id": "0.0-79.0-3.0", "time_elapsed": 1258968, "key_press": -1, "trial_index": 109}, "uniqueid": "MTK1363:3V26SBZTBELYKAXSHMPO8TQD4POZZB", "dateTime": 1515865643469}, {"current_trial": 110, "trialdata": {"rt": -1, "trial_type": "single-stim", "stimulus": "<p id=\"stim\">6</p>", "internal_node_id": "0.0-79.0-4.0", "time_elapsed": 1259970, "key_press": -1, "trial_index": 110}, "uniqueid": "MTK1363:3V26SBZTBELYKAXSHMPO8TQD4POZZB", "dateTime": 1515865644471}, {"current_trial": 111, "trialdata": {"rt": -1, "trial_type": "single-stim", "stimulus": "<p id=\"stim\">5</p>", "internal_node_id": "0.0-79.0-5.0", "time_elapsed": 1260972, "key_press": -1, "trial_index": 111}, "uniqueid": "MTK1363:3V26SBZTBELYKAXSHMPO8TQD4POZZB", "dateTime": 1515865645473}, {"current_trial": 112, "trialdata": {"rt": -1, "trial_type": "single-stim", "stimulus": "<p id=\"stim\">4</p>", "internal_node_id": "0.0-79.0-6.0", "time_elapsed": 1261974, "key_press": -1, "trial_index": 112}, "uniqueid": "MTK1363:3V26SBZTBELYKAXSHMPO8TQD4POZZB", "dateTime": 1515865646475}, {"current_trial": 113, "trialdata": {"rt": -1, "trial_type": "single-stim", "stimulus": "<p id=\"stim\">3</p>", "internal_node_id": "0.0-79.0-7.0", "time_elapsed": 1262976, "key_press": -1, "trial_index": 113}, "uniqueid": "MTK1363:3V26SBZTBELYKAXSHMPO8TQD4POZZB", "dateTime": 1515865647477}, {"current_trial": 114, "trialdata": {"rt": -1, "trial_type": "single-stim", "stimulus": "<p id=\"stim\">2</p>", "internal_node_id": "0.0-79.0-8.0", "time_elapsed": 1263979, "key_press": -1, "trial_index": 114}, "uniqueid": "MTK1363:3V26SBZTBELYKAXSHMPO8TQD4POZZB", "dateTime": 1515865648480}, {"current_trial": 115, "trialdata": {"rt": -1, "trial_type": "single-stim", "stimulus": "<p id=\"stim\">1</p>", "internal_node_id": "0.0-79.0-9.0", "time_elapsed": 1264980, "key_press": -1, "trial_index": 115}, "uniqueid": "MTK1363:3V26SBZTBELYKAXSHMPO8TQD4POZZB", "dateTime": 1515865649481}, {"current_trial": 116, "trialdata": {"rt": -1, "trial_type": "single-stim", "stimulus": "<p id=\"stim\">+</p>", "internal_node_id": "0.0-80.0-0.0", "time_elapsed": 1266481, "key_press": -1, "type": "FIXATION", "trial_index": 116}, "uniqueid": "MTK1363:3V26SBZTBELYKAXSHMPO8TQD4POZZB", "dateTime": 1515865650982}, {"current_trial": 117, "trialdata": {"rt": -1, "trial_type": "single-stim", "word": "robin", "stimulus": "<p id=\"stim\">ROBIN</p>", "conditions": [24, 800, "v", 12000], "internal_node_id": "0.0-81.0", "trial": 3, "time_elapsed": 1267283, "serialpos": 0, "key_press": -1, "wordID": 1198, "type": "PRES_VIS", "trial_index": 117}, "uniqueid": "MTK1363:3V26SBZTBELYKAXSHMPO8TQD4POZZB", "dateTime": 1515865651784}, {"current_trial": 118, "trialdata": {"rt": -1, "trial_type": "single-stim", "word": "dresser", "stimulus": "<p id=\"stim\">DRESSER</p>", "conditions": [24, 800, "v", 12000], "internal_node_id": "0.0-82.0", "trial": 3, "time_elapsed": 1268894, "serialpos": 1, "key_press": -1, "wordID": 495, "type": "PRES_VIS", "trial_index": 118}, "uniqueid": "MTK1363:3V26SBZTBELYKAXSHMPO8TQD4POZZB", "dateTime": 1515865653396}, {"current_trial": 119, "trialdata": {"rt": -1, "trial_type": "single-stim", "word": "cupboard", "stimulus": "<p id=\"stim\">CUPBOARD</p>", "conditions": [24, 800, "v", 12000], "internal_node_id": "0.0-83.0", "trial": 3, "time_elapsed": 1270838, "serialpos": 2, "key_press": -1, "wordID": 424, "type": "PRES_VIS", "trial_index": 119}, "uniqueid": "MTK1363:3V26SBZTBELYKAXSHMPO8TQD4POZZB", "dateTime": 1515865655339}, {"current_trial": 120, "trialdata": {"rt": -1, "trial_type": "single-stim", "word": "nightgown", "stimulus": "<p id=\"stim\">NIGHTGOWN</p>", "conditions": [24, 800, "v", 12000], "internal_node_id": "0.0-84.0", "trial": 3, "time_elapsed": 1272838, "serialpos": 3, "key_press": -1, "wordID": 952, "type": "PRES_VIS", "trial_index": 120}, "uniqueid": "MTK1363:3V26SBZTBELYKAXSHMPO8TQD4POZZB", "dateTime": 1515865657339}, {"current_trial": 121, "trialdata": {"rt": -1, "trial_type": "single-stim", "word": "jungle", "stimulus": "<p id=\"stim\">JUNGLE</p>", "conditions": [24, 800, "v", 12000], "internal_node_id": "0.0-85.0", "trial": 3, "time_elapsed": 1274516, "serialpos": 4, "key_press": -1, "wordID": 763, "type": "PRES_VIS", "trial_index": 121}, "uniqueid": "MTK1363:3V26SBZTBELYKAXSHMPO8TQD4POZZB", "dateTime": 1515865659017}, {"current_trial": 122, "trialdata": {"rt": -1, "trial_type": "single-stim", "word": "island", "stimulus": "<p id=\"stim\">ISLAND</p>", "conditions": [24, 800, "v", 12000], "internal_node_id": "0.0-86.0", "trial": 3, "time_elapsed": 1276361, "serialpos": 5, "key_press": -1, "wordID": 744, "type": "PRES_VIS", "trial_index": 122}, "uniqueid": "MTK1363:3V26SBZTBELYKAXSHMPO8TQD4POZZB", "dateTime": 1515865660862}, {"current_trial": 123, "trialdata": {"rt": -1, "trial_type": "single-stim", "word": "blouse", "stimulus": "<p id=\"stim\">BLOUSE</p>", "conditions": [24, 800, "v", 12000], "internal_node_id": "0.0-87.0", "trial": 3, "time_elapsed": 1278085, "serialpos": 6, "key_press": -1, "wordID": 138, "type": "PRES_VIS", "trial_index": 123}, "uniqueid": "MTK1363:3V26SBZTBELYKAXSHMPO8TQD4POZZB", "dateTime": 1515865662586}, {"current_trial": 124, "trialdata": {"rt": -1, "trial_type": "single-stim", "word": "mammal", "stimulus": "<p id=\"stim\">MAMMAL</p>", "conditions": [24, 800, "v", 12000], "internal_node_id": "0.0-88.0", "trial": 3, "time_elapsed": 1279801, "serialpos": 7, "key_press": -1, "wordID": 860, "type": "PRES_VIS", "trial_index": 124}, "uniqueid": "MTK1363:3V26SBZTBELYKAXSHMPO8TQD4POZZB", "dateTime": 1515865664302}, {"current_trial": 125, "trialdata": {"rt": -1, "trial_type": "single-stim", "word": "brother", "stimulus": "<p id=\"stim\">BROTHER</p>", "conditions": [24, 800, "v", 12000], "internal_node_id": "0.0-89.0", "trial": 3, "time_elapsed": 1281594, "serialpos": 8, "key_press": -1, "wordID": 178, "type": "PRES_VIS", "trial_index": 125}, "uniqueid": "MTK1363:3V26SBZTBELYKAXSHMPO8TQD4POZZB", "dateTime": 1515865666095}, {"current_trial": 126, "trialdata": {"rt": -1, "trial_type": "single-stim", "word": "sheriff", "stimulus": "<p id=\"stim\">SHERIFF</p>", "conditions": [24, 800, "v", 12000], "internal_node_id": "0.0-90.0", "trial": 3, "time_elapsed": 1283546, "serialpos": 9, "key_press": -1, "wordID": 1283, "type": "PRES_VIS", "trial_index": 126}, "uniqueid": "MTK1363:3V26SBZTBELYKAXSHMPO8TQD4POZZB", "dateTime": 1515865668047}, {"current_trial": 127, "trialdata": {"rt": -1, "trial_type": "single-stim", "word": "picnic", "stimulus": "<p id=\"stim\">PICNIC</p>", "conditions": [24, 800, "v", 12000], "internal_node_id": "0.0-91.0", "trial": 3, "time_elapsed": 1285200, "serialpos": 10, "key_press": -1, "wordID": 1059, "type": "PRES_VIS", "trial_index": 127}, "uniqueid": "MTK1363:3V26SBZTBELYKAXSHMPO8TQD4POZZB", "dateTime": 1515865669701}, {"current_trial": 128, "trialdata": {"rt": -1, "trial_type": "single-stim", "word": "iceberg", "stimulus": "<p id=\"stim\">ICEBERG</p>", "conditions": [24, 800, "v", 12000], "internal_node_id": "0.0-92.0", "trial": 3, "time_elapsed": 1287055, "serialpos": 11, "key_press": -1, "wordID": 730, "type": "PRES_VIS", "trial_index": 128}, "uniqueid": "MTK1363:3V26SBZTBELYKAXSHMPO8TQD4POZZB", "dateTime": 1515865671556}, {"current_trial": 129, "trialdata": {"rt": -1, "trial_type": "single-stim", "word": "fragrance", "stimulus": "<p id=\"stim\">FRAGRANCE</p>", "conditions": [24, 800, "v", 12000], "internal_node_id": "0.0-93.0", "trial": 3, "time_elapsed": 1289045, "serialpos": 12, "key_press": -1, "wordID": 598, "type": "PRES_VIS", "trial_index": 129}, "uniqueid": "MTK1363:3V26SBZTBELYKAXSHMPO8TQD4POZZB", "dateTime": 1515865673546}, {"current_trial": 130, "trialdata": {"rt": -1, "trial_type": "single-stim", "word": "bunny", "stimulus": "<p id=\"stim\">BUNNY</p>", "conditions": [24, 800, "v", 12000], "internal_node_id": "0.0-94.0", "trial": 3, "time_elapsed": 1290694, "serialpos": 13, "key_press": -1, "wordID": 197, "type": "PRES_VIS", "trial_index": 130}, "uniqueid": "MTK1363:3V26SBZTBELYKAXSHMPO8TQD4POZZB", "dateTime": 1515865675195}, {"current_trial": 131, "trialdata": {"rt": -1, "trial_type": "single-stim", "word": "brick", "stimulus": "<p id=\"stim\">BRICK</p>", "conditions": [24, 800, "v", 12000], "internal_node_id": "0.0-95.0", "trial": 3, "time_elapsed": 1292529, "serialpos": 14, "key_press": -1, "wordID": 171, "type": "PRES_VIS", "trial_index": 131}, "uniqueid": "MTK1363:3V26SBZTBELYKAXSHMPO8TQD4POZZB", "dateTime": 1515865677030}, {"current_trial": 132, "trialdata": {"rt": -1, "trial_type": "single-stim", "word": "child", "stimulus": "<p id=\"stim\">CHILD</p>", "conditions": [24, 800, "v", 12000], "internal_node_id": "0.0-96.0", "trial": 3, "time_elapsed": 1294460, "serialpos": 15, "key_press": -1, "wordID": 298, "type": "PRES_VIS", "trial_index": 132}, "uniqueid": "MTK1363:3V26SBZTBELYKAXSHMPO8TQD4POZZB", "dateTime": 1515865678962}, {"current_trial": 133, "trialdata": {"rt": -1, "trial_type": "single-stim", "word": "robot", "stimulus": "<p id=\"stim\">ROBOT</p>", "conditions": [24, 800, "v", 12000], "internal_node_id": "0.0-97.0", "trial": 3, "time_elapsed": 1296313, "serialpos": 16, "key_press": -1, "wordID": 1199, "type": "PRES_VIS", "trial_index": 133}, "uniqueid": "MTK1363:3V26SBZTBELYKAXSHMPO8TQD4POZZB", "dateTime": 1515865680814}, {"current_trial": 134, "trialdata": {"rt": -1, "trial_type": "single-stim", "word": "expert", "stimulus": "<p id=\"stim\">EXPERT</p>", "conditions": [24, 800, "v", 12000], "internal_node_id": "0.0-98.0", "trial": 3, "time_elapsed": 1298095, "serialpos": 17, "key_press": -1, "wordID": 542, "type": "PRES_VIS", "trial_index": 134}, "uniqueid": "MTK1363:3V26SBZTBELYKAXSHMPO8TQD4POZZB", "dateTime": 1515865682596}, {"current_trial": 135, "trialdata": {"rt": -1, "trial_type": "single-stim", "word": "beaker", "stimulus": "<p id=\"stim\">BEAKER</p>", "conditions": [24, 800, "v", 12000], "internal_node_id": "0.0-99.0", "trial": 3, "time_elapsed": 1299705, "serialpos": 18, "key_press": -1, "wordID": 103, "type": "PRES_VIS", "trial_index": 135}, "uniqueid": "MTK1363:3V26SBZTBELYKAXSHMPO8TQD4POZZB", "dateTime": 1515865684206}, {"current_trial": 136, "trialdata": {"rt": -1, "trial_type": "single-stim", "word": "pecan", "stimulus": "<p id=\"stim\">PECAN</p>", "conditions": [24, 800, "v", 12000], "internal_node_id": "0.0-100.0", "trial": 3, "time_elapsed": 1301446, "serialpos": 19, "key_press": -1, "wordID": 1035, "type": "PRES_VIS", "trial_index": 136}, "uniqueid": "MTK1363:3V26SBZTBELYKAXSHMPO8TQD4POZZB", "dateTime": 1515865685948}, {"current_trial": 137, "trialdata": {"rt": -1, "trial_type": "single-stim", "word": "peanut", "stimulus": "<p id=\"stim\">PEANUT</p>", "conditions": [24, 800, "v", 12000], "internal_node_id": "0.0-101.0", "trial": 3, "time_elapsed": 1303065, "serialpos": 20, "key_press": -1, "wordID": 1031, "type": "PRES_VIS", "trial_index": 137}, "uniqueid": "MTK1363:3V26SBZTBELYKAXSHMPO8TQD4POZZB", "dateTime": 1515865687566}, {"current_trial": 138, "trialdata": {"rt": -1, "trial_type": "single-stim", "word": "preacher", "stimulus": "<p id=\"stim\">PREACHER</p>", "conditions": [24, 800, "v", 12000], "internal_node_id": "0.0-102.0", "trial": 3, "time_elapsed": 1304969, "serialpos": 21, "key_press": -1, "wordID": 1118, "type": "PRES_VIS", "trial_index": 138}, "uniqueid": "MTK1363:3V26SBZTBELYKAXSHMPO8TQD4POZZB", "dateTime": 1515865689470}, {"current_trial": 139, "trialdata": {"rt": -1, "trial_type": "single-stim", "word": "lady", "stimulus": "<p id=\"stim\">LADY</p>", "conditions": [24, 800, "v", 12000], "internal_node_id": "0.0-103.0", "trial": 3, "time_elapsed": 1306636, "serialpos": 22, "key_press": -1, "wordID": 793, "type": "PRES_VIS", "trial_index": 139}, "uniqueid": "MTK1363:3V26SBZTBELYKAXSHMPO8TQD4POZZB", "dateTime": 1515865691137}, {"current_trial": 140, "trialdata": {"rt": -1, "trial_type": "single-stim", "word": "perfume", "stimulus": "<p id=\"stim\">PERFUME</p>", "conditions": [24, 800, "v", 12000], "internal_node_id": "0.0-104.0", "trial": 3, "time_elapsed": 1308624, "serialpos": 23, "key_press": -1, "wordID": 1048, "type": "PRES_VIS", "trial_index": 140}, "uniqueid": "MTK1363:3V26SBZTBELYKAXSHMPO8TQD4POZZB", "dateTime": 1515865693125}, {"current_trial": 141, "trialdata": {"rt": -1, "trial_type": "single-stim", "stimulus": "", "internal_node_id": "0.0-105.0-0.0", "time_elapsed": 1311101, "key_press": -1, "type": "PRE_RECALL_DELAY", "trial_index": 141}, "uniqueid": "MTK1363:3V26SBZTBELYKAXSHMPO8TQD4POZZB", "dateTime": 1515865695602}, {"current_trial": 142, "trialdata": {"rt": -1000, "trial_type": "single-audio", "stimulus": "/static/audio/400Hz.wav", "internal_node_id": "0.0-106.0", "time_elapsed": 1311603, "key_press": -1, "type": "PRE_RECALL_ALERT", "trial_index": 142}, "uniqueid": "MTK1363:3V26SBZTBELYKAXSHMPO8TQD4POZZB", "dateTime": 1515865696104}, {"current_trial": 143, "trialdata": {"rt": [9286, 10990, 14974, 20702, 24526, 28278, 30206, 35470, 37054, 38910, 43174, 47510, 50798], "recwords": ["jungle", "peanut", "dresser", "island", "mammal", "brother", "picnic", "bunny", "brick", "child", "expert", "pecan", "lady"], "key_times": [8050, 8200, 8393, 8547, 8666, 8746, 9286, 9848, 10001, 10185, 10321, 10520, 10671, 10990, 13361, 13600, 13705, 13889, 14032, 14138, 14489, 14974, 19841, 20001, 20121, 20216, 20287, 20416, 20702, 23360, 23464, 23674, 23840, 23993, 24128, 24526, 27114, 27416, 27568, 27688, 27841, 27921, 27984, 28278, 29145, 29264, 29456, 29704, 29816, 29977, 30206, 34400, 34560, 34761, 34897, 35088, 35470, 36216, 36440, 36552, 36745, 36825, 37054, 38383, 38432, 38489, 38695, 38752, 38910, 41977, 42224, 42432, 42552, 42696, 42961, 43174, 45977, 46160, 46440, 46913, 47159, 47510, 50145, 50282, 50471, 50560, 50798], "trial_type": "free-recall", "conditions": [24, 800, "v", 12000], "internal_node_id": "0.0-107.0-0.0", "key_presses": [74, 85, 78, 71, 76, 69, 13, 80, 69, 65, 78, 85, 84, 13, 68, 82, 69, 83, 83, 69, 82, 13, 73, 83, 76, 65, 78, 68, 13, 77, 65, 77, 77, 65, 76, 13, 66, 82, 79, 84, 72, 69, 82, 13, 80, 73, 67, 78, 73, 67, 13, 66, 85, 78, 78, 89, 13, 66, 82, 73, 67, 75, 13, 67, 72, 73, 76, 68, 13, 69, 88, 80, 69, 82, 84, 13, 80, 69, 67, 65, 78, 13, 76, 65, 68, 89, 13], "trial": 3, "time_elapsed": 1371606, "type": "FREE_RECALL", "trial_index": 143}, "uniqueid": "MTK1363:3V26SBZTBELYKAXSHMPO8TQD4POZZB", "dateTime": 1515865756112}, {"current_trial": 144, "trialdata": {"rt": 3366, "trial_type": "text", "internal_node_id": "0.0-108.0", "time_elapsed": 1376978, "key_press": 13, "type": "INSTRUCTIONS", "trial_index": 144}, "uniqueid": "MTK1363:3V26SBZTBELYKAXSHMPO8TQD4POZZB", "dateTime": 1515865761479}, {"current_trial": 145, "trialdata": {"rt": [2718, 4774, 7078, 8326, 9814, 12622, 14102, 15702, 18046, 20534], "trial_type": "math-distractor", "key_times": [2384, 2512, 2718, 4457, 4553, 4774, 6768, 6880, 7078, 8017, 8153, 8326, 9454, 9592, 9814, 12257, 12376, 12622, 13824, 13905, 14102, 15392, 15536, 15702, 17168, 17809, 18046, 20144, 20319, 20534, 23889], "responses": ["16", "15", "14", "16", "20", "15", "12", "11", "16", "15"], "num2": [2, 8, 3, 1, 9, 1, 7, 8, 4, 6, 2], "num3": [9, 1, 9, 6, 2, 8, 3, 1, 8, 1, 4], "conditions": [24, 1600, "v", 24000], "internal_node_id": "0.0-109.0", "key_presses": [97, 102, 13, 97, 101, 13, 97, 100, 13, 97, 102, 13, 98, 96, 13, 97, 101, 13, 97, 98, 13, 97, 97, 13, 97, 102, 13, 97, 101, 13, 103], "trial": 4, "time_elapsed": 1402983, "type": "DISTRACTOR", "trial_index": 145, "num1": [5, 6, 2, 9, 9, 6, 2, 2, 4, 8, 1]}, "uniqueid": "MTK1363:3V26SBZTBELYKAXSHMPO8TQD4POZZB", "dateTime": 1515865787484}, {"current_trial": 146, "trialdata": {"rt": -1, "trial_type": "single-stim", "stimulus": "<p id=\"stim\">10</p>", "internal_node_id": "0.0-110.0-0.0", "time_elapsed": 1405986, "key_press": -1, "trial_index": 146}, "uniqueid": "MTK1363:3V26SBZTBELYKAXSHMPO8TQD4POZZB", "dateTime": 1515865790487}, {"current_trial": 147, "trialdata": {"rt": -1, "trial_type": "single-stim", "stimulus": "<p id=\"stim\">9</p>", "internal_node_id": "0.0-110.0-1.0", "time_elapsed": 1406989, "key_press": -1, "trial_index": 147}, "uniqueid": "MTK1363:3V26SBZTBELYKAXSHMPO8TQD4POZZB", "dateTime": 1515865791490}, {"current_trial": 148, "trialdata": {"rt": -1, "trial_type": "single-stim", "stimulus": "<p id=\"stim\">8</p>", "internal_node_id": "0.0-110.0-2.0", "time_elapsed": 1407991, "key_press": -1, "trial_index": 148}, "uniqueid": "MTK1363:3V26SBZTBELYKAXSHMPO8TQD4POZZB", "dateTime": 1515865792492}, {"current_trial": 149, "trialdata": {"rt": -1, "trial_type": "single-stim", "stimulus": "<p id=\"stim\">7</p>", "internal_node_id": "0.0-110.0-3.0", "time_elapsed": 1408993, "key_press": -1, "trial_index": 149}, "uniqueid": "MTK1363:3V26SBZTBELYKAXSHMPO8TQD4POZZB", "dateTime": 1515865793494}, {"current_trial": 150, "trialdata": {"rt": -1, "trial_type": "single-stim", "stimulus": "<p id=\"stim\">6</p>", "internal_node_id": "0.0-110.0-4.0", "time_elapsed": 1409994, "key_press": -1, "trial_index": 150}, "uniqueid": "MTK1363:3V26SBZTBELYKAXSHMPO8TQD4POZZB", "dateTime": 1515865794495}, {"current_trial": 151, "trialdata": {"rt": -1, "trial_type": "single-stim", "stimulus": "<p id=\"stim\">5</p>", "internal_node_id": "0.0-110.0-5.0", "time_elapsed": 1410996, "key_press": -1, "trial_index": 151}, "uniqueid": "MTK1363:3V26SBZTBELYKAXSHMPO8TQD4POZZB", "dateTime": 1515865795497}, {"current_trial": 152, "trialdata": {"rt": -1, "trial_type": "single-stim", "stimulus": "<p id=\"stim\">4</p>", "internal_node_id": "0.0-110.0-6.0", "time_elapsed": 1411997, "key_press": -1, "trial_index": 152}, "uniqueid": "MTK1363:3V26SBZTBELYKAXSHMPO8TQD4POZZB", "dateTime": 1515865796498}, {"current_trial": 153, "trialdata": {"rt": -1, "trial_type": "single-stim", "stimulus": "<p id=\"stim\">3</p>", "internal_node_id": "0.0-110.0-7.0", "time_elapsed": 1412998, "key_press": -1, "trial_index": 153}, "uniqueid": "MTK1363:3V26SBZTBELYKAXSHMPO8TQD4POZZB", "dateTime": 1515865797499}, {"current_trial": 154, "trialdata": {"rt": -1, "trial_type": "single-stim", "stimulus": "<p id=\"stim\">2</p>", "internal_node_id": "0.0-110.0-8.0", "time_elapsed": 1414000, "key_press": -1, "trial_index": 154}, "uniqueid": "MTK1363:3V26SBZTBELYKAXSHMPO8TQD4POZZB", "dateTime": 1515865798501}, {"current_trial": 155, "trialdata": {"rt": -1, "trial_type": "single-stim", "stimulus": "<p id=\"stim\">1</p>", "internal_node_id": "0.0-110.0-9.0", "time_elapsed": 1415003, "key_press": -1, "trial_index": 155}, "uniqueid": "MTK1363:3V26SBZTBELYKAXSHMPO8TQD4POZZB", "dateTime": 1515865799504}, {"current_trial": 156, "trialdata": {"rt": -1, "trial_type": "single-stim", "stimulus": "<p id=\"stim\">+</p>", "internal_node_id": "0.0-111.0-0.0", "time_elapsed": 1416504, "key_press": -1, "type": "FIXATION", "trial_index": 156}, "uniqueid": "MTK1363:3V26SBZTBELYKAXSHMPO8TQD4POZZB", "dateTime": 1515865801005}, {"current_trial": 157, "trialdata": {"rt": -1, "trial_type": "single-stim", "word": "softball", "stimulus": "<p id=\"stim\">SOFTBALL</p>", "conditions": [24, 1600, "v", 24000], "internal_node_id": "0.0-112.0", "trial": 4, "time_elapsed": 1418105, "serialpos": 0, "key_press": -1, "wordID": 1342, "type": "PRES_VIS", "trial_index": 157}, "uniqueid": "MTK1363:3V26SBZTBELYKAXSHMPO8TQD4POZZB", "dateTime": 1515865802606}, {"current_trial": 158, "trialdata": {"rt": -1, "trial_type": "single-stim", "word": "glass", "stimulus": "<p id=\"stim\">GLASS</p>", "conditions": [24, 1600, "v", 24000], "internal_node_id": "0.0-113.0", "trial": 4, "time_elapsed": 1420536, "serialpos": 1, "key_press": -1, "wordID": 638, "type": "PRES_VIS", "trial_index": 158}, "uniqueid": "MTK1363:3V26SBZTBELYKAXSHMPO8TQD4POZZB", "dateTime": 1515865805037}, {"current_trial": 159, "trialdata": {"rt": -1, "trial_type": "single-stim", "word": "sculpture", "stimulus": "<p id=\"stim\">SCULPTURE</p>", "conditions": [24, 1600, "v", 24000], "internal_node_id": "0.0-114.0", "trial": 4, "time_elapsed": 1422960, "serialpos": 2, "key_press": -1, "wordID": 1257, "type": "PRES_VIS", "trial_index": 159}, "uniqueid": "MTK1363:3V26SBZTBELYKAXSHMPO8TQD4POZZB", "dateTime": 1515865807461}, {"current_trial": 160, "trialdata": {"rt": -1, "trial_type": "single-stim", "word": "guard", "stimulus": "<p id=\"stim\">GUARD</p>", "conditions": [24, 1600, "v", 24000], "internal_node_id": "0.0-115.0", "trial": 4, "time_elapsed": 1425367, "serialpos": 3, "key_press": -1, "wordID": 666, "type": "PRES_VIS", "trial_index": 160}, "uniqueid": "MTK1363:3V26SBZTBELYKAXSHMPO8TQD4POZZB", "dateTime": 1515865809868}, {"current_trial": 161, "trialdata": {"rt": -1, "trial_type": "single-stim", "word": "soda", "stimulus": "<p id=\"stim\">SODA</p>", "conditions": [24, 1600, "v", 24000], "internal_node_id": "0.0-116.0", "trial": 4, "time_elapsed": 1427974, "serialpos": 4, "key_press": -1, "wordID": 1340, "type": "PRES_VIS", "trial_index": 161}, "uniqueid": "MTK1363:3V26SBZTBELYKAXSHMPO8TQD4POZZB", "dateTime": 1515865812476}, {"current_trial": 162, "trialdata": {"rt": -1, "trial_type": "single-stim", "word": "coffee", "stimulus": "<p id=\"stim\">COFFEE</p>", "conditions": [24, 1600, "v", 24000], "internal_node_id": "0.0-117.0", "trial": 4, "time_elapsed": 1430594, "serialpos": 5, "key_press": -1, "wordID": 340, "type": "PRES_VIS", "trial_index": 162}, "uniqueid": "MTK1363:3V26SBZTBELYKAXSHMPO8TQD4POZZB", "dateTime": 1515865815096}, {"current_trial": 163, "trialdata": {"rt": -1, "trial_type": "single-stim", "word": "tombstone", "stimulus": "<p id=\"stim\">TOMBSTONE</p>", "conditions": [24, 1600, "v", 24000], "internal_node_id": "0.0-118.0", "trial": 4, "time_elapsed": 1433083, "serialpos": 6, "key_press": -1, "wordID": 1477, "type": "PRES_VIS", "trial_index": 163}, "uniqueid": "MTK1363:3V26SBZTBELYKAXSHMPO8TQD4POZZB", "dateTime": 1515865817584}, {"current_trial": 164, "trialdata": {"rt": -1, "trial_type": "single-stim", "word": "radish", "stimulus": "<p id=\"stim\">RADISH</p>", "conditions": [24, 1600, "v", 24000], "internal_node_id": "0.0-119.0", "trial": 4, "time_elapsed": 1435598, "serialpos": 7, "key_press": -1, "wordID": 1157, "type": "PRES_VIS", "trial_index": 164}, "uniqueid": "MTK1363:3V26SBZTBELYKAXSHMPO8TQD4POZZB", "dateTime": 1515865820099}, {"current_trial": 165, "trialdata": {"rt": -1, "trial_type": "single-stim", "word": "poison", "stimulus": "<p id=\"stim\">POISON</p>", "conditions": [24, 1600, "v", 24000], "internal_node_id": "0.0-120.0", "trial": 4, "time_elapsed": 1438018, "serialpos": 8, "key_press": -1, "wordID": 1095, "type": "PRES_VIS", "trial_index": 165}, "uniqueid": "MTK1363:3V26SBZTBELYKAXSHMPO8TQD4POZZB", "dateTime": 1515865822520}, {"current_trial": 166, "trialdata": {"rt": -1, "trial_type": "single-stim", "word": "scalpel", "stimulus": "<p id=\"stim\">SCALPEL</p>", "conditions": [24, 1600, "v", 24000], "internal_node_id": "0.0-121.0", "trial": 4, "time_elapsed": 1440705, "serialpos": 9, "key_press": -1, "wordID": 1242, "type": "PRES_VIS", "trial_index": 166}, "uniqueid": "MTK1363:3V26SBZTBELYKAXSHMPO8TQD4POZZB", "dateTime": 1515865825206}, {"current_trial": 167, "trialdata": {"rt": -1, "trial_type": "single-stim", "word": "grill", "stimulus": "<p id=\"stim\">GRILL</p>", "conditions": [24, 1600, "v", 24000], "internal_node_id": "0.0-122.0", "trial": 4, "time_elapsed": 1443488, "serialpos": 10, "key_press": -1, "wordID": 660, "type": "PRES_VIS", "trial_index": 167}, "uniqueid": "MTK1363:3V26SBZTBELYKAXSHMPO8TQD4POZZB", "dateTime": 1515865827990}, {"current_trial": 168, "trialdata": {"rt": -1, "trial_type": "single-stim", "word": "onion", "stimulus": "<p id=\"stim\">ONION</p>", "conditions": [24, 1600, "v", 24000], "internal_node_id": "0.0-123.0", "trial": 4, "time_elapsed": 1445972, "serialpos": 11, "key_press": -1, "wordID": 976, "type": "PRES_VIS", "trial_index": 168}, "uniqueid": "MTK1363:3V26SBZTBELYKAXSHMPO8TQD4POZZB", "dateTime": 1515865830473}, {"current_trial": 169, "trialdata": {"rt": -1, "trial_type": "single-stim", "word": "tunnel", "stimulus": "<p id=\"stim\">TUNNEL</p>", "conditions": [24, 1600, "v", 24000], "internal_node_id": "0.0-124.0", "trial": 4, "time_elapsed": 1448662, "serialpos": 12, "key_press": -1, "wordID": 1518, "type": "PRES_VIS", "trial_index": 169}, "uniqueid": "MTK1363:3V26SBZTBELYKAXSHMPO8TQD4POZZB", "dateTime": 1515865833163}, {"current_trial": 170, "trialdata": {"rt": -1, "trial_type": "single-stim", "word": "river", "stimulus": "<p id=\"stim\">RIVER</p>", "conditions": [24, 1600, "v", 24000], "internal_node_id": "0.0-125.0", "trial": 4, "time_elapsed": 1451419, "serialpos": 13, "key_press": -1, "wordID": 1193, "type": "PRES_VIS", "trial_index": 170}, "uniqueid": "MTK1363:3V26SBZTBELYKAXSHMPO8TQD4POZZB", "dateTime": 1515865835920}, {"current_trial": 171, "trialdata": {"rt": -1, "trial_type": "single-stim", "word": "hornet", "stimulus": "<p id=\"stim\">HORNET</p>", "conditions": [24, 1600, "v", 24000], "internal_node_id": "0.0-126.0", "trial": 4, "time_elapsed": 1453934, "serialpos": 14, "key_press": -1, "wordID": 717, "type": "PRES_VIS", "trial_index": 171}, "uniqueid": "MTK1363:3V26SBZTBELYKAXSHMPO8TQD4POZZB", "dateTime": 1515865838435}, {"current_trial": 172, "trialdata": {"rt": -1, "trial_type": "single-stim", "word": "wasp", "stimulus": "<p id=\"stim\">WASP</p>", "conditions": [24, 1600, "v", 24000], "internal_node_id": "0.0-127.0", "trial": 4, "time_elapsed": 1456461, "serialpos": 15, "key_press": -1, "wordID": 1592, "type": "PRES_VIS", "trial_index": 172}, "uniqueid": "MTK1363:3V26SBZTBELYKAXSHMPO8TQD4POZZB", "dateTime": 1515865840962}, {"current_trial": 173, "trialdata": {"rt": -1, "trial_type": "single-stim", "word": "lipstick", "stimulus": "<p id=\"stim\">LIPSTICK</p>", "conditions": [24, 1600, "v", 24000], "internal_node_id": "0.0-128.0", "trial": 4, "time_elapsed": 1458871, "serialpos": 16, "key_press": -1, "wordID": 828, "type": "PRES_VIS", "trial_index": 173}, "uniqueid": "MTK1363:3V26SBZTBELYKAXSHMPO8TQD4POZZB", "dateTime": 1515865843372}, {"current_trial": 174, "trialdata": {"rt": -1, "trial_type": "single-stim", "word": "arm", "stimulus": "<p id=\"stim\">ARM</p>", "conditions": [24, 1600, "v", 24000], "internal_node_id": "0.0-129.0", "trial": 4, "time_elapsed": 1461366, "serialpos": 17, "key_press": -1, "wordID": 37, "type": "PRES_VIS", "trial_index": 174}, "uniqueid": "MTK1363:3V26SBZTBELYKAXSHMPO8TQD4POZZB", "dateTime": 1515865845867}, {"current_trial": 175, "trialdata": {"rt": -1, "trial_type": "single-stim", "word": "scissors", "stimulus": "<p id=\"stim\">SCISSORS</p>", "conditions": [24, 1600, "v", 24000], "internal_node_id": "0.0-130.0", "trial": 4, "time_elapsed": 1464133, "serialpos": 18, "key_press": -1, "wordID": 1249, "type": "PRES_VIS", "trial_index": 175}, "uniqueid": "MTK1363:3V26SBZTBELYKAXSHMPO8TQD4POZZB", "dateTime": 1515865848634}, {"current_trial": 176, "trialdata": {"rt": -1, "trial_type": "single-stim", "word": "cottage", "stimulus": "<p id=\"stim\">COTTAGE</p>", "conditions": [24, 1600, "v", 24000], "internal_node_id": "0.0-131.0", "trial": 4, "time_elapsed": 1466681, "serialpos": 19, "key_press": -1, "wordID": 383, "type": "PRES_VIS", "trial_index": 176}, "uniqueid": "MTK1363:3V26SBZTBELYKAXSHMPO8TQD4POZZB", "dateTime": 1515865851182}, {"current_trial": 177, "trialdata": {"rt": -1, "trial_type": "single-stim", "word": "turkey", "stimulus": "<p id=\"stim\">TURKEY</p>", "conditions": [24, 1600, "v", 24000], "internal_node_id": "0.0-132.0", "trial": 4, "time_elapsed": 1469140, "serialpos": 20, "key_press": -1, "wordID": 1519, "type": "PRES_VIS", "trial_index": 177}, "uniqueid": "MTK1363:3V26SBZTBELYKAXSHMPO8TQD4POZZB", "dateTime": 1515865853641}, {"current_trial": 178, "trialdata": {"rt": -1, "trial_type": "single-stim", "word": "whistle", "stimulus": "<p id=\"stim\">WHISTLE</p>", "conditions": [24, 1600, "v", 24000], "internal_node_id": "0.0-133.0", "trial": 4, "time_elapsed": 1471729, "serialpos": 21, "key_press": -1, "wordID": 1605, "type": "PRES_VIS", "trial_index": 178}, "uniqueid": "MTK1363:3V26SBZTBELYKAXSHMPO8TQD4POZZB", "dateTime": 1515865856230}, {"current_trial": 179, "trialdata": {"rt": -1, "trial_type": "single-stim", "word": "brook", "stimulus": "<p id=\"stim\">BROOK</p>", "conditions": [24, 1600, "v", 24000], "internal_node_id": "0.0-134.0", "trial": 4, "time_elapsed": 1474294, "serialpos": 22, "key_press": -1, "wordID": 176, "type": "PRES_VIS", "trial_index": 179}, "uniqueid": "MTK1363:3V26SBZTBELYKAXSHMPO8TQD4POZZB", "dateTime": 1515865858795}, {"current_trial": 180, "trialdata": {"rt": -1, "trial_type": "single-stim", "word": "airport", "stimulus": "<p id=\"stim\">AIRPORT</p>", "conditions": [24, 1600, "v", 24000], "internal_node_id": "0.0-135.0", "trial": 4, "time_elapsed": 1476947, "serialpos": 23, "key_press": -1, "wordID": 12, "type": "PRES_VIS", "trial_index": 180}, "uniqueid": "MTK1363:3V26SBZTBELYKAXSHMPO8TQD4POZZB", "dateTime": 1515865861449}, {"current_trial": 181, "trialdata": {"rt": -1, "trial_type": "single-stim", "stimulus": "", "internal_node_id": "0.0-136.0-0.0", "time_elapsed": 1479099, "key_press": -1, "type": "PRE_RECALL_DELAY", "trial_index": 181}, "uniqueid": "MTK1363:3V26SBZTBELYKAXSHMPO8TQD4POZZB", "dateTime": 1515865863600}, {"current_trial": 182, "trialdata": {"rt": -1000, "trial_type": "single-audio", "stimulus": "/static/audio/400Hz.wav", "internal_node_id": "0.0-137.0", "time_elapsed": 1479601, "key_press": -1, "type": "PRE_RECALL_ALERT", "trial_index": 182}, "uniqueid": "MTK1363:3V26SBZTBELYKAXSHMPO8TQD4POZZB", "dateTime": 1515865864102}, {"current_trial": 183, "trialdata": {"rt": [5975, 8863, 10479, 16743, 18150, 21319, 29039, 36327, 42063, 51727, 52735], "recwords": ["turkey", "airport", "glass", "guard", "soda", "coffee", "poison", "onion", "river", "island", "arm"], "key_times": [4530, 4625, 5272, 5370, 5568, 5681, 5975, 6481, 6865, 6993, 7527, 7680, 7938, 8089, 8249, 8355, 8481, 8681, 8863, 9666, 9833, 9923, 10057, 10209, 10479, 15723, 15809, 15937, 16073, 16323, 16743, 17601, 17729, 17865, 17993, 18150, 20361, 20449, 20609, 20752, 20906, 21122, 21319, 27682, 27865, 28225, 28465, 28593, 28713, 29039, 35465, 35673, 35809, 35929, 36002, 36327, 41202, 41338, 41545, 41777, 41849, 42063, 50513, 50665, 50849, 50953, 51074, 51201, 51727, 51985, 52137, 52313, 52735, 59977], "trial_type": "free-recall", "conditions": [24, 1600, "v", 24000], "internal_node_id": "0.0-138.0-0.0", "key_presses": [84, 85, 82, 75, 69, 89, 13, 65, 82, 73, 8, 8, 73, 82, 80, 79, 82, 84, 13, 71, 76, 65, 83, 83, 13, 71, 85, 65, 82, 68, 13, 83, 79, 68, 65, 13, 67, 79, 70, 70, 69, 69, 13, 80, 79, 73, 83, 79, 78, 13, 79, 78, 73, 79, 78, 13, 82, 73, 86, 69, 82, 13, 73, 83, 76, 65, 78, 68, 13, 65, 82, 77, 13, 84], "trial": 4, "time_elapsed": 1539607, "type": "FREE_RECALL", "trial_index": 183}, "uniqueid": "MTK1363:3V26SBZTBELYKAXSHMPO8TQD4POZZB", "dateTime": 1515865924114}, {"current_trial": 184, "trialdata": {"rt": 611259, "trial_type": "text", "internal_node_id": "0.0-139.0", "time_elapsed": 2152873, "key_press": 13, "type": "INSTRUCTIONS", "trial_index": 184}, "uniqueid": "MTK1363:3V26SBZTBELYKAXSHMPO8TQD4POZZB", "dateTime": 1515866537374}, {"current_trial": 185, "trialdata": {"rt": [4206, 10430, 14318, 17102, 18621, 21221, 23174], "trial_type": "math-distractor", "key_times": [3768, 3928, 4206, 9993, 10209, 10430, 13865, 14040, 14318, 16720, 16856, 17102, 18272, 18440, 18621, 20857, 20968, 21221, 22870, 22944, 23174], "responses": ["10", "16", "18", "16", "14", "13", "21"], "num2": [7, 7, 6, 2, 4, 7, 8, 7], "num3": [2, 1, 7, 5, 9, 2, 5, 2], "conditions": [24, 800, "v", 24000], "internal_node_id": "0.0-140.0", "key_presses": [97, 96, 13, 97, 102, 13, 97, 104, 13, 97, 102, 13, 97, 100, 13, 97, 99, 13, 98, 97, 13], "trial": 5, "time_elapsed": 2178877, "type": "DISTRACTOR", "trial_index": 185, "num1": [1, 8, 5, 9, 1, 4, 8, 3]}, "uniqueid": "MTK1363:3V26SBZTBELYKAXSHMPO8TQD4POZZB", "dateTime": 1515866563379}, {"current_trial": 186, "trialdata": {"rt": -1, "trial_type": "single-stim", "stimulus": "<p id=\"stim\">10</p>", "internal_node_id": "0.0-141.0-0.0", "time_elapsed": 2181880, "key_press": -1, "trial_index": 186}, "uniqueid": "MTK1363:3V26SBZTBELYKAXSHMPO8TQD4POZZB", "dateTime": 1515866566381}, {"current_trial": 187, "trialdata": {"rt": -1, "trial_type": "single-stim", "stimulus": "<p id=\"stim\">9</p>", "internal_node_id": "0.0-141.0-1.0", "time_elapsed": 2182882, "key_press": -1, "trial_index": 187}, "uniqueid": "MTK1363:3V26SBZTBELYKAXSHMPO8TQD4POZZB", "dateTime": 1515866567383}, {"current_trial": 188, "trialdata": {"rt": -1, "trial_type": "single-stim", "stimulus": "<p id=\"stim\">8</p>", "internal_node_id": "0.0-141.0-2.0", "time_elapsed": 2183883, "key_press": -1, "trial_index": 188}, "uniqueid": "MTK1363:3V26SBZTBELYKAXSHMPO8TQD4POZZB", "dateTime": 1515866568385}, {"current_trial": 189, "trialdata": {"rt": -1, "trial_type": "single-stim", "stimulus": "<p id=\"stim\">7</p>", "internal_node_id": "0.0-141.0-3.0", "time_elapsed": 2184885, "key_press": -1, "trial_index": 189}, "uniqueid": "MTK1363:3V26SBZTBELYKAXSHMPO8TQD4POZZB", "dateTime": 1515866569387}, {"current_trial": 190, "trialdata": {"rt": -1, "trial_type": "single-stim", "stimulus": "<p id=\"stim\">6</p>", "internal_node_id": "0.0-141.0-4.0", "time_elapsed": 2185888, "key_press": -1, "trial_index": 190}, "uniqueid": "MTK1363:3V26SBZTBELYKAXSHMPO8TQD4POZZB", "dateTime": 1515866570389}, {"current_trial": 191, "trialdata": {"rt": -1, "trial_type": "single-stim", "stimulus": "<p id=\"stim\">5</p>", "internal_node_id": "0.0-141.0-5.0", "time_elapsed": 2186890, "key_press": -1, "trial_index": 191}, "uniqueid": "MTK1363:3V26SBZTBELYKAXSHMPO8TQD4POZZB", "dateTime": 1515866571391}, {"current_trial": 192, "trialdata": {"rt": -1, "trial_type": "single-stim", "stimulus": "<p id=\"stim\">4</p>", "internal_node_id": "0.0-141.0-6.0", "time_elapsed": 2187892, "key_press": -1, "trial_index": 192}, "uniqueid": "MTK1363:3V26SBZTBELYKAXSHMPO8TQD4POZZB", "dateTime": 1515866572394}, {"current_trial": 193, "trialdata": {"rt": -1, "trial_type": "single-stim", "stimulus": "<p id=\"stim\">3</p>", "internal_node_id": "0.0-141.0-7.0", "time_elapsed": 2188894, "key_press": -1, "trial_index": 193}, "uniqueid": "MTK1363:3V26SBZTBELYKAXSHMPO8TQD4POZZB", "dateTime": 1515866573396}, {"current_trial": 194, "trialdata": {"rt": -1, "trial_type": "single-stim", "stimulus": "<p id=\"stim\">2</p>", "internal_node_id": "0.0-141.0-8.0", "time_elapsed": 2189896, "key_press": -1, "trial_index": 194}, "uniqueid": "MTK1363:3V26SBZTBELYKAXSHMPO8TQD4POZZB", "dateTime": 1515866574398}, {"current_trial": 195, "trialdata": {"rt": -1, "trial_type": "single-stim", "stimulus": "<p id=\"stim\">1</p>", "internal_node_id": "0.0-141.0-9.0", "time_elapsed": 2190899, "key_press": -1, "trial_index": 195}, "uniqueid": "MTK1363:3V26SBZTBELYKAXSHMPO8TQD4POZZB", "dateTime": 1515866575401}, {"current_trial": 196, "trialdata": {"rt": -1, "trial_type": "single-stim", "stimulus": "<p id=\"stim\">+</p>", "internal_node_id": "0.0-142.0-0.0", "time_elapsed": 2192402, "key_press": -1, "type": "FIXATION", "trial_index": 196}, "uniqueid": "MTK1363:3V26SBZTBELYKAXSHMPO8TQD4POZZB", "dateTime": 1515866576908}, {"current_trial": 197, "trialdata": {"rt": -1, "trial_type": "single-stim", "word": "fox", "stimulus": "<p id=\"stim\">FOX</p>", "conditions": [24, 800, "v", 24000], "internal_node_id": "0.0-143.0", "trial": 5, "time_elapsed": 2193209, "serialpos": 0, "key_press": -1, "wordID": 597, "type": "PRES_VIS", "trial_index": 197}, "uniqueid": "MTK1363:3V26SBZTBELYKAXSHMPO8TQD4POZZB", "dateTime": 1515866577710}, {"current_trial": 198, "trialdata": {"rt": -1, "trial_type": "single-stim", "word": "pigeon", "stimulus": "<p id=\"stim\">PIGEON</p>", "conditions": [24, 800, "v", 24000], "internal_node_id": "0.0-144.0", "trial": 5, "time_elapsed": 2195026, "serialpos": 1, "key_press": -1, "wordID": 1064, "type": "PRES_VIS", "trial_index": 198}, "uniqueid": "MTK1363:3V26SBZTBELYKAXSHMPO8TQD4POZZB", "dateTime": 1515866579528}, {"current_trial": 199, "trialdata": {"rt": -1, "trial_type": "single-stim", "word": "apple", "stimulus": "<p id=\"stim\">APPLE</p>", "conditions": [24, 800, "v", 24000], "internal_node_id": "0.0-145.0", "trial": 5, "time_elapsed": 2196709, "serialpos": 2, "key_press": -1, "wordID": 32, "type": "PRES_VIS", "trial_index": 199}, "uniqueid": "MTK1363:3V26SBZTBELYKAXSHMPO8TQD4POZZB", "dateTime": 1515866581210}, {"current_trial": 200, "trialdata": {"rt": -1, "trial_type": "single-stim", "word": "forest", "stimulus": "<p id=\"stim\">FOREST</p>", "conditions": [24, 800, "v", 24000], "internal_node_id": "0.0-146.0", "trial": 5, "time_elapsed": 2198619, "serialpos": 3, "key_press": -1, "wordID": 592, "type": "PRES_VIS", "trial_index": 200}, "uniqueid": "MTK1363:3V26SBZTBELYKAXSHMPO8TQD4POZZB", "dateTime": 1515866583121}, {"current_trial": 201, "trialdata": {"rt": -1, "trial_type": "single-stim", "word": "costume", "stimulus": "<p id=\"stim\">COSTUME</p>", "conditions": [24, 800, "v", 24000], "internal_node_id": "0.0-147.0", "trial": 5, "time_elapsed": 2200340, "serialpos": 4, "key_press": -1, "wordID": 382, "type": "PRES_VIS", "trial_index": 201}, "uniqueid": "MTK1363:3V26SBZTBELYKAXSHMPO8TQD4POZZB", "dateTime": 1515866584841}, {"current_trial": 202, "trialdata": {"rt": -1, "trial_type": "single-stim", "word": "ulcer", "stimulus": "<p id=\"stim\">ULCER</p>", "conditions": [24, 800, "v", 24000], "internal_node_id": "0.0-148.0", "trial": 5, "time_elapsed": 2202079, "serialpos": 5, "key_press": -1, "wordID": 1532, "type": "PRES_VIS", "trial_index": 202}, "uniqueid": "MTK1363:3V26SBZTBELYKAXSHMPO8TQD4POZZB", "dateTime": 1515866586580}, {"current_trial": 203, "trialdata": {"rt": -1, "trial_type": "single-stim", "word": "virus", "stimulus": "<p id=\"stim\">VIRUS</p>", "conditions": [24, 800, "v", 24000], "internal_node_id": "0.0-149.0", "trial": 5, "time_elapsed": 2203958, "serialpos": 6, "key_press": -1, "wordID": 1571, "type": "PRES_VIS", "trial_index": 203}, "uniqueid": "MTK1363:3V26SBZTBELYKAXSHMPO8TQD4POZZB", "dateTime": 1515866588459}, {"current_trial": 204, "trialdata": {"rt": -1, "trial_type": "single-stim", "word": "scarecrow", "stimulus": "<p id=\"stim\">SCARECROW</p>", "conditions": [24, 800, "v", 24000], "internal_node_id": "0.0-150.0", "trial": 5, "time_elapsed": 2205885, "serialpos": 7, "key_press": -1, "wordID": 1244, "type": "PRES_VIS", "trial_index": 204}, "uniqueid": "MTK1363:3V26SBZTBELYKAXSHMPO8TQD4POZZB", "dateTime": 1515866590386}, {"current_trial": 205, "trialdata": {"rt": -1, "trial_type": "single-stim", "word": "asia", "stimulus": "<p id=\"stim\">ASIA</p>", "conditions": [24, 800, "v", 24000], "internal_node_id": "0.0-151.0", "trial": 5, "time_elapsed": 2207559, "serialpos": 8, "key_press": -1, "wordID": 45, "type": "PRES_VIS", "trial_index": 205}, "uniqueid": "MTK1363:3V26SBZTBELYKAXSHMPO8TQD4POZZB", "dateTime": 1515866592061}, {"current_trial": 206, "trialdata": {"rt": -1, "trial_type": "single-stim", "word": "worker", "stimulus": "<p id=\"stim\">WORKER</p>", "conditions": [24, 800, "v", 24000], "internal_node_id": "0.0-152.0", "trial": 5, "time_elapsed": 2209258, "serialpos": 9, "key_press": -1, "wordID": 1620, "type": "PRES_VIS", "trial_index": 206}, "uniqueid": "MTK1363:3V26SBZTBELYKAXSHMPO8TQD4POZZB", "dateTime": 1515866593760}, {"current_trial": 207, "trialdata": {"rt": -1, "trial_type": "single-stim", "word": "bathtub", "stimulus": "<p id=\"stim\">BATHTUB</p>", "conditions": [24, 800, "v", 24000], "internal_node_id": "0.0-153.0", "trial": 5, "time_elapsed": 2210935, "serialpos": 10, "key_press": -1, "wordID": 99, "type": "PRES_VIS", "trial_index": 207}, "uniqueid": "MTK1363:3V26SBZTBELYKAXSHMPO8TQD4POZZB", "dateTime": 1515866595436}, {"current_trial": 208, "trialdata": {"rt": -1, "trial_type": "single-stim", "word": "lizard", "stimulus": "<p id=\"stim\">LIZARD</p>", "conditions": [24, 800, "v", 24000], "internal_node_id": "0.0-154.0", "trial": 5, "time_elapsed": 2212631, "serialpos": 11, "key_press": -1, "wordID": 833, "type": "PRES_VIS", "trial_index": 208}, "uniqueid": "MTK1363:3V26SBZTBELYKAXSHMPO8TQD4POZZB", "dateTime": 1515866597132}, {"current_trial": 209, "trialdata": {"rt": -1, "trial_type": "single-stim", "word": "pastry", "stimulus": "<p id=\"stim\">PASTRY</p>", "conditions": [24, 800, "v", 24000], "internal_node_id": "0.0-155.0", "trial": 5, "time_elapsed": 2214455, "serialpos": 12, "key_press": -1, "wordID": 1021, "type": "PRES_VIS", "trial_index": 209}, "uniqueid": "MTK1363:3V26SBZTBELYKAXSHMPO8TQD4POZZB", "dateTime": 1515866598956}, {"current_trial": 210, "trialdata": {"rt": -1, "trial_type": "single-stim", "word": "piston", "stimulus": "<p id=\"stim\">PISTON</p>", "conditions": [24, 800, "v", 24000], "internal_node_id": "0.0-156.0", "trial": 5, "time_elapsed": 2216065, "serialpos": 13, "key_press": -1, "wordID": 1075, "type": "PRES_VIS", "trial_index": 210}, "uniqueid": "MTK1363:3V26SBZTBELYKAXSHMPO8TQD4POZZB", "dateTime": 1515866600566}, {"current_trial": 211, "trialdata": {"rt": -1, "trial_type": "single-stim", "word": "valley", "stimulus": "<p id=\"stim\">VALLEY</p>", "conditions": [24, 800, "v", 24000], "internal_node_id": "0.0-157.0", "trial": 5, "time_elapsed": 2217803, "serialpos": 14, "key_press": -1, "wordID": 1544, "type": "PRES_VIS", "trial_index": 211}, "uniqueid": "MTK1363:3V26SBZTBELYKAXSHMPO8TQD4POZZB", "dateTime": 1515866602306}, {"current_trial": 212, "trialdata": {"rt": -1, "trial_type": "single-stim", "word": "forehead", "stimulus": "<p id=\"stim\">FOREHEAD</p>", "conditions": [24, 800, "v", 24000], "internal_node_id": "0.0-158.0", "trial": 5, "time_elapsed": 2219743, "serialpos": 15, "key_press": -1, "wordID": 591, "type": "PRES_VIS", "trial_index": 212}, "uniqueid": "MTK1363:3V26SBZTBELYKAXSHMPO8TQD4POZZB", "dateTime": 1515866604244}, {"current_trial": 213, "trialdata": {"rt": -1, "trial_type": "single-stim", "word": "survey", "stimulus": "<p id=\"stim\">SURVEY</p>", "conditions": [24, 800, "v", 24000], "internal_node_id": "0.0-159.0", "trial": 5, "time_elapsed": 2221487, "serialpos": 16, "key_press": -1, "wordID": 1413, "type": "PRES_VIS", "trial_index": 213}, "uniqueid": "MTK1363:3V26SBZTBELYKAXSHMPO8TQD4POZZB", "dateTime": 1515866605988}, {"current_trial": 214, "trialdata": {"rt": -1, "trial_type": "single-stim", "word": "country", "stimulus": "<p id=\"stim\">COUNTRY</p>", "conditions": [24, 800, "v", 24000], "internal_node_id": "0.0-160.0", "trial": 5, "time_elapsed": 2223351, "serialpos": 17, "key_press": -1, "wordID": 387, "type": "PRES_VIS", "trial_index": 214}, "uniqueid": "MTK1363:3V26SBZTBELYKAXSHMPO8TQD4POZZB", "dateTime": 1515866607853}, {"current_trial": 215, "trialdata": {"rt": -1, "trial_type": "single-stim", "word": "ox", "stimulus": "<p id=\"stim\">OX</p>", "conditions": [24, 800, "v", 24000], "internal_node_id": "0.0-161.0", "trial": 5, "time_elapsed": 2225274, "serialpos": 18, "key_press": -1, "wordID": 993, "type": "PRES_VIS", "trial_index": 215}, "uniqueid": "MTK1363:3V26SBZTBELYKAXSHMPO8TQD4POZZB", "dateTime": 1515866609776}, {"current_trial": 216, "trialdata": {"rt": -1, "trial_type": "single-stim", "word": "stallion", "stimulus": "<p id=\"stim\">STALLION</p>", "conditions": [24, 800, "v", 24000], "internal_node_id": "0.0-162.0", "trial": 5, "time_elapsed": 2227252, "serialpos": 19, "key_press": -1, "wordID": 1368, "type": "PRES_VIS", "trial_index": 216}, "uniqueid": "MTK1363:3V26SBZTBELYKAXSHMPO8TQD4POZZB", "dateTime": 1515866611753}, {"current_trial": 217, "trialdata": {"rt": -1, "trial_type": "single-stim", "word": "valve", "stimulus": "<p id=\"stim\">VALVE</p>", "conditions": [24, 800, "v", 24000], "internal_node_id": "0.0-163.0", "trial": 5, "time_elapsed": 2229248, "serialpos": 20, "key_press": -1, "wordID": 1545, "type": "PRES_VIS", "trial_index": 217}, "uniqueid": "MTK1363:3V26SBZTBELYKAXSHMPO8TQD4POZZB", "dateTime": 1515866613749}, {"current_trial": 218, "trialdata": {"rt": -1, "trial_type": "single-stim", "word": "nurse", "stimulus": "<p id=\"stim\">NURSE</p>", "conditions": [24, 800, "v", 24000], "internal_node_id": "0.0-164.0", "trial": 5, "time_elapsed": 2230901, "serialpos": 21, "key_press": -1, "wordID": 962, "type": "PRES_VIS", "trial_index": 218}, "uniqueid": "MTK1363:3V26SBZTBELYKAXSHMPO8TQD4POZZB", "dateTime": 1515866615402}, {"current_trial": 219, "trialdata": {"rt": -1, "trial_type": "single-stim", "word": "patient", "stimulus": "<p id=\"stim\">PATIENT</p>", "conditions": [24, 800, "v", 24000], "internal_node_id": "0.0-165.0", "trial": 5, "time_elapsed": 2232664, "serialpos": 22, "key_press": -1, "wordID": 1023, "type": "PRES_VIS", "trial_index": 219}, "uniqueid": "MTK1363:3V26SBZTBELYKAXSHMPO8TQD4POZZB", "dateTime": 1515866617165}, {"current_trial": 220, "trialdata": {"rt": -1, "trial_type": "single-stim", "word": "headband", "stimulus": "<p id=\"stim\">HEADBAND</p>", "conditions": [24, 800, "v", 24000], "internal_node_id": "0.0-166.0", "trial": 5, "time_elapsed": 2234484, "serialpos": 23, "key_press": -1, "wordID": 695, "type": "PRES_VIS", "trial_index": 220}, "uniqueid": "MTK1363:3V26SBZTBELYKAXSHMPO8TQD4POZZB", "dateTime": 1515866618985}, {"current_trial": 221, "trialdata": {"rt": -1, "trial_type": "single-stim", "stimulus": "", "internal_node_id": "0.0-167.0-0.0", "time_elapsed": 2236643, "key_press": -1, "type": "PRE_RECALL_DELAY", "trial_index": 221}, "uniqueid": "MTK1363:3V26SBZTBELYKAXSHMPO8TQD4POZZB", "dateTime": 1515866621144}, {"current_trial": 222, "trialdata": {"rt": -1000, "trial_type": "single-audio", "stimulus": "/static/audio/400Hz.wav", "internal_node_id": "0.0-168.0", "time_elapsed": 2237146, "key_press": -1, "type": "PRE_RECALL_ALERT", "trial_index": 222}, "uniqueid": "MTK1363:3V26SBZTBELYKAXSHMPO8TQD4POZZB", "dateTime": 1515866621647}, {"current_trial": 223, "trialdata": {"rt": [6444, 7636, 11020, 12949, 14220, 18100, 21884, 23780, 24756, 28300, 33540], "recwords": ["ox", "fox", "forest", "pigeon", "apple", "valley", "virus", "asia", "china", "lizard", "valley"], "key_times": [5735, 6118, 6444, 6958, 7054, 7358, 7636, 9430, 9495, 9630, 9879, 10495, 10646, 10806, 10918, 11020, 11583, 12108, 12366, 12550, 12638, 12798, 12949, 13054, 13198, 13350, 13574, 13679, 14220, 16391, 16518, 16670, 16813, 17479, 17557, 18100, 19663, 19766, 19814, 20030, 20308, 20463, 20621, 20773, 20934, 21246, 21350, 21486, 21591, 21734, 21884, 23238, 23398, 23486, 23622, 23780, 24086, 24142, 24230, 24398, 24542, 24756, 27086, 27182, 27454, 27702, 27870, 28094, 28300, 32558, 32646, 32790, 32958, 33110, 33214, 33540], "trial_type": "free-recall", "conditions": [24, 800, "v", 24000], "internal_node_id": "0.0-169.0-0.0", "key_presses": [79, 88, 13, 70, 79, 88, 13, 70, 79, 82, 83, 8, 69, 83, 84, 13, 80, 73, 71, 69, 79, 78, 32, 65, 80, 80, 76, 69, 13, 86, 65, 76, 76, 69, 89, 13, 67, 72, 73, 78, 8, 8, 8, 8, 8, 86, 73, 82, 85, 83, 13, 65, 83, 73, 65, 13, 67, 72, 73, 78, 65, 13, 76, 73, 90, 65, 82, 68, 13, 86, 65, 76, 76, 69, 89, 13], "trial": 5, "time_elapsed": 2297151, "type": "FREE_RECALL", "trial_index": 223}, "uniqueid": "MTK1363:3V26SBZTBELYKAXSHMPO8TQD4POZZB", "dateTime": 1515866681660}, {"current_trial": 224, "trialdata": {"rt": 39899, "trial_type": "text", "internal_node_id": "0.0-170.0", "time_elapsed": 2339060, "key_press": 32, "type": "INSTRUCTIONS", "trial_index": 224}, "uniqueid": "MTK1363:3V26SBZTBELYKAXSHMPO8TQD4POZZB", "dateTime": 1515866723561}, {"current_trial": 225, "trialdata": {"rt": [2466, 3993, 10314], "trial_type": "math-distractor", "key_times": [2133, 2285, 2466, 3748, 3993, 8486, 8620, 8638, 9339, 9499, 10156, 10314], "responses": ["11", "8", "22"], "num2": [4, 2, 9, 6], "num3": [6, 2, 8, 3], "conditions": [12, 800, "v", 12000], "internal_node_id": "0.0-171.0", "key_presses": [97, 97, 13, 104, 13, 98, 101, 98, 8, 8, 98, 13], "trial": 6, "time_elapsed": 2353065, "type": "DISTRACTOR", "trial_index": 225, "num1": [1, 4, 5, 7]}, "uniqueid": "MTK1363:3V26SBZTBELYKAXSHMPO8TQD4POZZB", "dateTime": 1515866737566}, {"current_trial": 226, "trialdata": {"rt": -1, "trial_type": "single-stim", "stimulus": "<p id=\"stim\">10</p>", "internal_node_id": "0.0-172.0-0.0", "time_elapsed": 2356067, "key_press": -1, "trial_index": 226}, "uniqueid": "MTK1363:3V26SBZTBELYKAXSHMPO8TQD4POZZB", "dateTime": 1515866740568}, {"current_trial": 227, "trialdata": {"rt": -1, "trial_type": "single-stim", "stimulus": "<p id=\"stim\">9</p>", "internal_node_id": "0.0-172.0-1.0", "time_elapsed": 2357068, "key_press": -1, "trial_index": 227}, "uniqueid": "MTK1363:3V26SBZTBELYKAXSHMPO8TQD4POZZB", "dateTime": 1515866741569}, {"current_trial": 228, "trialdata": {"rt": -1, "trial_type": "single-stim", "stimulus": "<p id=\"stim\">8</p>", "internal_node_id": "0.0-172.0-2.0", "time_elapsed": 2358071, "key_press": -1, "trial_index": 228}, "uniqueid": "MTK1363:3V26SBZTBELYKAXSHMPO8TQD4POZZB", "dateTime": 1515866742572}, {"current_trial": 229, "trialdata": {"rt": -1, "trial_type": "single-stim", "stimulus": "<p id=\"stim\">7</p>", "internal_node_id": "0.0-172.0-3.0", "time_elapsed": 2359073, "key_press": -1, "trial_index": 229}, "uniqueid": "MTK1363:3V26SBZTBELYKAXSHMPO8TQD4POZZB", "dateTime": 1515866743574}, {"current_trial": 230, "trialdata": {"rt": -1, "trial_type": "single-stim", "stimulus": "<p id=\"stim\">6</p>", "internal_node_id": "0.0-172.0-4.0", "time_elapsed": 2360075, "key_press": -1, "trial_index": 230}, "uniqueid": "MTK1363:3V26SBZTBELYKAXSHMPO8TQD4POZZB", "dateTime": 1515866744576}, {"current_trial": 231, "trialdata": {"rt": -1, "trial_type": "single-stim", "stimulus": "<p id=\"stim\">5</p>", "internal_node_id": "0.0-172.0-5.0", "time_elapsed": 2361076, "key_press": -1, "trial_index": 231}, "uniqueid": "MTK1363:3V26SBZTBELYKAXSHMPO8TQD4POZZB", "dateTime": 1515866745577}, {"current_trial": 232, "trialdata": {"rt": -1, "trial_type": "single-stim", "stimulus": "<p id=\"stim\">4</p>", "internal_node_id": "0.0-172.0-6.0", "time_elapsed": 2362077, "key_press": -1, "trial_index": 232}, "uniqueid": "MTK1363:3V26SBZTBELYKAXSHMPO8TQD4POZZB", "dateTime": 1515866746579}, {"current_trial": 233, "trialdata": {"rt": -1, "trial_type": "single-stim", "stimulus": "<p id=\"stim\">3</p>", "internal_node_id": "0.0-172.0-7.0", "time_elapsed": 2363079, "key_press": -1, "trial_index": 233}, "uniqueid": "MTK1363:3V26SBZTBELYKAXSHMPO8TQD4POZZB", "dateTime": 1515866747581}, {"current_trial": 234, "trialdata": {"rt": -1, "trial_type": "single-stim", "stimulus": "<p id=\"stim\">2</p>", "internal_node_id": "0.0-172.0-8.0", "time_elapsed": 2364081, "key_press": -1, "trial_index": 234}, "uniqueid": "MTK1363:3V26SBZTBELYKAXSHMPO8TQD4POZZB", "dateTime": 1515866748582}, {"current_trial": 235, "trialdata": {"rt": -1, "trial_type": "single-stim", "stimulus": "<p id=\"stim\">1</p>", "internal_node_id": "0.0-172.0-9.0", "time_elapsed": 2365083, "key_press": -1, "trial_index": 235}, "uniqueid": "MTK1363:3V26SBZTBELYKAXSHMPO8TQD4POZZB", "dateTime": 1515866749584}, {"current_trial": 236, "trialdata": {"rt": -1, "trial_type": "single-stim", "stimulus": "<p id=\"stim\">+</p>", "internal_node_id": "0.0-173.0-0.0", "time_elapsed": 2366586, "key_press": -1, "type": "FIXATION", "trial_index": 236}, "uniqueid": "MTK1363:3V26SBZTBELYKAXSHMPO8TQD4POZZB", "dateTime": 1515866751087}, {"current_trial": 237, "trialdata": {"rt": -1, "trial_type": "single-stim", "word": "oyster", "stimulus": "<p id=\"stim\">OYSTER</p>", "conditions": [12, 800, "v", 12000], "internal_node_id": "0.0-174.0", "trial": 6, "time_elapsed": 2367387, "serialpos": 0, "key_press": -1, "wordID": 994, "type": "PRES_VIS", "trial_index": 237}, "uniqueid": "MTK1363:3V26SBZTBELYKAXSHMPO8TQD4POZZB", "dateTime": 1515866751888}, {"current_trial": 238, "trialdata": {"rt": -1, "trial_type": "single-stim", "word": "barley", "stimulus": "<p id=\"stim\">BARLEY</p>", "conditions": [12, 800, "v", 12000], "internal_node_id": "0.0-175.0", "trial": 6, "time_elapsed": 2369223, "serialpos": 1, "key_press": -1, "wordID": 87, "type": "PRES_VIS", "trial_index": 238}, "uniqueid": "MTK1363:3V26SBZTBELYKAXSHMPO8TQD4POZZB", "dateTime": 1515866753724}, {"current_trial": 239, "trialdata": {"rt": -1, "trial_type": "single-stim", "word": "grape", "stimulus": "<p id=\"stim\">GRAPE</p>", "conditions": [12, 800, "v", 12000], "internal_node_id": "0.0-176.0", "trial": 6, "time_elapsed": 2370932, "serialpos": 2, "key_press": -1, "wordID": 653, "type": "PRES_VIS", "trial_index": 239}, "uniqueid": "MTK1363:3V26SBZTBELYKAXSHMPO8TQD4POZZB", "dateTime": 1515866755433}, {"current_trial": 240, "trialdata": {"rt": -1, "trial_type": "single-stim", "word": "airplane", "stimulus": "<p id=\"stim\">AIRPLANE</p>", "conditions": [12, 800, "v", 12000], "internal_node_id": "0.0-177.0", "trial": 6, "time_elapsed": 2372660, "serialpos": 3, "key_press": -1, "wordID": 11, "type": "PRES_VIS", "trial_index": 240}, "uniqueid": "MTK1363:3V26SBZTBELYKAXSHMPO8TQD4POZZB", "dateTime": 1515866757161}, {"current_trial": 241, "trialdata": {"rt": -1, "trial_type": "single-stim", "word": "fiddle", "stimulus": "<p id=\"stim\">FIDDLE</p>", "conditions": [12, 800, "v", 12000], "internal_node_id": "0.0-178.0", "trial": 6, "time_elapsed": 2374627, "serialpos": 4, "key_press": -1, "wordID": 560, "type": "PRES_VIS", "trial_index": 241}, "uniqueid": "MTK1363:3V26SBZTBELYKAXSHMPO8TQD4POZZB", "dateTime": 1515866759129}, {"current_trial": 242, "trialdata": {"rt": -1, "trial_type": "single-stim", "word": "scallop", "stimulus": "<p id=\"stim\">SCALLOP</p>", "conditions": [12, 800, "v", 12000], "internal_node_id": "0.0-179.0", "trial": 6, "time_elapsed": 2376550, "serialpos": 5, "key_press": -1, "wordID": 1241, "type": "PRES_VIS", "trial_index": 242}, "uniqueid": "MTK1363:3V26SBZTBELYKAXSHMPO8TQD4POZZB", "dateTime": 1515866761051}, {"current_trial": 243, "trialdata": {"rt": -1, "trial_type": "single-stim", "word": "notebook", "stimulus": "<p id=\"stim\">NOTEBOOK</p>", "conditions": [12, 800, "v", 12000], "internal_node_id": "0.0-180.0", "trial": 6, "time_elapsed": 2378521, "serialpos": 6, "key_press": -1, "wordID": 958, "type": "PRES_VIS", "trial_index": 243}, "uniqueid": "MTK1363:3V26SBZTBELYKAXSHMPO8TQD4POZZB", "dateTime": 1515866763023}, {"current_trial": 244, "trialdata": {"rt": -1, "trial_type": "single-stim", "word": "cafe", "stimulus": "<p id=\"stim\">CAFE</p>", "conditions": [12, 800, "v", 12000], "internal_node_id": "0.0-181.0", "trial": 6, "time_elapsed": 2380427, "serialpos": 7, "key_press": -1, "wordID": 215, "type": "PRES_VIS", "trial_index": 244}, "uniqueid": "MTK1363:3V26SBZTBELYKAXSHMPO8TQD4POZZB", "dateTime": 1515866764928}, {"current_trial": 245, "trialdata": {"rt": -1, "trial_type": "single-stim", "word": "chemist", "stimulus": "<p id=\"stim\">CHEMIST</p>", "conditions": [12, 800, "v", 12000], "internal_node_id": "0.0-182.0", "trial": 6, "time_elapsed": 2382283, "serialpos": 8, "key_press": -1, "wordID": 291, "type": "PRES_VIS", "trial_index": 245}, "uniqueid": "MTK1363:3V26SBZTBELYKAXSHMPO8TQD4POZZB", "dateTime": 1515866766784}, {"current_trial": 246, "trialdata": {"rt": -1, "trial_type": "single-stim", "word": "blender", "stimulus": "<p id=\"stim\">BLENDER</p>", "conditions": [12, 800, "v", 12000], "internal_node_id": "0.0-183.0", "trial": 6, "time_elapsed": 2384081, "serialpos": 9, "key_press": -1, "wordID": 135, "type": "PRES_VIS", "trial_index": 246}, "uniqueid": "MTK1363:3V26SBZTBELYKAXSHMPO8TQD4POZZB", "dateTime": 1515866768582}, {"current_trial": 247, "trialdata": {"rt": -1, "trial_type": "single-stim", "word": "cigar", "stimulus": "<p id=\"stim\">CIGAR</p>", "conditions": [12, 800, "v", 12000], "internal_node_id": "0.