{"assignmentId": "3X65QVEQI1U17S5EA7E7PGEUGU9LCM", "workerId": "MTK1358", "questiondata": {"origin": "United States", "strat-rehearsal": "90", "marital": "Single", "education": "High school diploma", "ethnicity": "Not Hispanic", "color_depth": 24, "distracted": "No", "wrote-notes": "Yes", "strat-other": "I'd say the words to myself in a funny voice to help me remember them. Like saying Chauffeur in an exaggerated french accent. ", "screen_width": 1920, "avail_screen_width": 1920, "avail_screen_height": 1040, "strat-image": "21", "language": "English", "gender": "Male", "age": "28", "gender_other": "", "race": ["White"], "strat-categorize": "70", "pixel_depth": 24, "strat-spatial": "0", "strat-story": "50", "race_other": "", "screen_height": 1080}, "bonus": 0, "hitId": "3BKZLF990Z6NE8O282ZQE99NCRUQYI", "counterbalance": 2507, "useragent": "Mozilla/5.0 (Windows NT 6.3; Win64; x64) AppleWebKit/537.36 (KHTML, like Gecko) Chrome/63.0.3239.132 Safari/537.36", "eventdata": [{"eventtype": "initialized", "interval": 0, "value": null, "timestamp": 1515810507164}, {"eventtype": "window_resize", "interval": 0, "value": [1920, 989], "timestamp": 1515810507164}, {"eventtype": "focus", "interval": 1149927, "value": "off", "timestamp": 1515811657091}, {"eventtype": "focus", "interval": 5940, "value": "on", "timestamp": 1515811663031}, {"eventtype": "focus", "interval": 172016, "value": "off", "timestamp": 1515811835047}, {"eventtype": "focus", "interval": 41932, "value": "on", "timestamp": 1515811876979}, {"eventtype": "focus", "interval": 2112, "value": "off", "timestamp": 1515811879091}, {"eventtype": "focus", "interval": 105143, "value": "on", "timestamp": 1515811984234}, {"eventtype": "focus", "interval": 1256, "value": "off", "timestamp": 1515811985490}, {"eventtype": "focus", "interval": 4647, "value": "on", "timestamp": 1515811990137}, {"eventtype": "focus", "interval": 461111, "value": "off", "timestamp": 1515812451248}, {"eventtype": "focus", "interval": 905, "value": "on", "timestamp": 1515812452153}, {"eventtype": "focus", "interval": 602, "value": "off", "timestamp": 1515812452755}, {"eventtype": "focus", "interval": 1500, "value": "on", "timestamp": 1515812454255}, {"eventtype": "focus", "interval": 971471, "value": "off", "timestamp": 1515813425726}, {"eventtype": "focus", "interval": 4603, "value": "on", "timestamp": 1515813430329}, {"eventtype": "focus", "interval": 9554, "value": "off", "timestamp": 1515813439883}, {"eventtype": "focus", "interval": 103036, "value": "on", "timestamp": 1515813542919}, {"eventtype": "focus", "interval": 12383, "value": "off", "timestamp": 1515813555302}, {"eventtype": "focus", "interval": 6187, "value": "on", "timestamp": 1515813561489}], "data": [{"current_trial": 0, "trialdata": {"rt": 2089, "trial_type": "text", "internal_node_id": "0.0-0.0", "time_elapsed": 2090, "key_press": 75, "type": "INSTRUCTIONS", "trial_index": 0}, "uniqueid": "MTK1358:3X65QVEQI1U17S5EA7E7PGEUGU9LCM", "dateTime": 1515810509928}, {"current_trial": 1, "trialdata": {"rt": 26645, "trial_type": "text", "internal_node_id": "0.0-1.0", "time_elapsed": 28737, "key_press": 13, "type": "INSTRUCTIONS", "trial_index": 1}, "uniqueid": "MTK1358:3X65QVEQI1U17S5EA7E7PGEUGU9LCM", "dateTime": 1515810536574}, {"current_trial": 2, "trialdata": {"rt": [13973], "trial_type": "audio-test", "responses": ["ocean"], "internal_node_id": "0.0-2.0", "time_elapsed": 42729, "type": "AUDIO_TEST", "trial_index": 2}, "uniqueid": "MTK1358:3X65QVEQI1U17S5EA7E7PGEUGU9LCM", "dateTime": 1515810550566}, {"current_trial": 3, "trialdata": {"rt": [5444], "trial_type": "audio-test", "responses": ["crystal"], "internal_node_id": "0.0-3.0", "time_elapsed": 48178, "type": "AUDIO_TEST", "trial_index": 3}, "uniqueid": "MTK1358:3X65QVEQI1U17S5EA7E7PGEUGU9LCM", "dateTime": 1515810556016}, {"current_trial": 4, "trialdata": {"rt": [5458], "trial_type": "audio-test", "responses": ["spice"], "internal_node_id": "0.0-4.0", "time_elapsed": 53640, "type": "AUDIO_TEST", "trial_index": 4}, "uniqueid": "MTK1358:3X65QVEQI1U17S5EA7E7PGEUGU9LCM", "dateTime": 1515810561477}, {"current_trial": 5, "trialdata": {"rt": 27525, "trial_type": "survey-text", "responses": "{\"Q0\":\"5 AM\",\"Q1\":\"12 PM\",\"Q2\":\"3\"}", "internal_node_id": "0.0-5.0", "time_elapsed": 81917, "type": "SLEEP_SURVEY", "trial_index": 5}, "uniqueid": "MTK1358:3X65QVEQI1U17S5EA7E7PGEUGU9LCM", "dateTime": 1515810589754}, {"current_trial": 6, "trialdata": {"rt": 48346, "trial_type": "text", "internal_node_id": "0.0-6.0", "time_elapsed": 131265, "key_press": 13, "type": "INSTRUCTIONS", "trial_index": 6}, "uniqueid": "MTK1358:3X65QVEQI1U17S5EA7E7PGEUGU9LCM", "dateTime": 1515810639102}, {"current_trial": 7, "trialdata": {"rt": 21027, "trial_type": "text", "internal_node_id": "0.0-7.0", "time_elapsed": 152792, "key_press": 13, "type": "INSTRUCTIONS", "trial_index": 7}, "uniqueid": "MTK1358:3X65QVEQI1U17S5EA7E7PGEUGU9LCM", "dateTime": 1515810660629}, {"current_trial": 8, "trialdata": {"rt": 9115, "trial_type": "text", "internal_node_id": "0.0-8.0", "time_elapsed": 162408, "key_press": 13, "type": "INSTRUCTIONS", "trial_index": 8}, "uniqueid": "MTK1358:3X65QVEQI1U17S5EA7E7PGEUGU9LCM", "dateTime": 1515810670246}, {"current_trial": 9, "trialdata": {"rt": [4644, 8580, 15037], "trial_type": "math-distractor", "key_times": [3580, 3660, 4644, 7836, 7980, 8580, 13773, 14060, 14477, 14596, 14732, 14788, 15037], "responses": ["20", "11", "25"], "num2": [8, 3, 9, 9], "num3": [8, 4, 7, 7], "conditions": [18, 1200, "v", 18000], "internal_node_id": "0.0-9.0", "key_presses": [50, 48, 13, 49, 49, 13, 49, 53, 8, 8, 50, 53, 13], "trial": 0, "time_elapsed": 181413, "type": "DISTRACTOR", "trial_index": 9, "num1": [4, 4, 8, 6]}, "uniqueid": "MTK1358:3X65QVEQI1U17S5EA7E7PGEUGU9LCM", "dateTime": 1515810689251}, {"current_trial": 10, "trialdata": {"rt": -1, "trial_type": "single-stim", "stimulus": "<p id=\"stim\">10</p>", "internal_node_id": "0.0-10.0-0.0", "time_elapsed": 184414, "key_press": -1, "trial_index": 10}, "uniqueid": "MTK1358:3X65QVEQI1U17S5EA7E7PGEUGU9LCM", "dateTime": 1515810692251}, {"current_trial": 11, "trialdata": {"rt": -1, "trial_type": "single-stim", "stimulus": "<p id=\"stim\">9</p>", "internal_node_id": "0.0-10.0-1.0", "time_elapsed": 185415, "key_press": -1, "trial_index": 11}, "uniqueid": "MTK1358:3X65QVEQI1U17S5EA7E7PGEUGU9LCM", "dateTime": 1515810693252}, {"current_trial": 12, "trialdata": {"rt": -1, "trial_type": "single-stim", "stimulus": "<p id=\"stim\">8</p>", "internal_node_id": "0.0-10.0-2.0", "time_elapsed": 186415, "key_press": -1, "trial_index": 12}, "uniqueid": "MTK1358:3X65QVEQI1U17S5EA7E7PGEUGU9LCM", "dateTime": 1515810694252}, {"current_trial": 13, "trialdata": {"rt": -1, "trial_type": "single-stim", "stimulus": "<p id=\"stim\">7</p>", "internal_node_id": "0.0-10.0-3.0", "time_elapsed": 187415, "key_press": -1, "trial_index": 13}, "uniqueid": "MTK1358:3X65QVEQI1U17S5EA7E7PGEUGU9LCM", "dateTime": 1515810695252}, {"current_trial": 14, "trialdata": {"rt": -1, "trial_type": "single-stim", "stimulus": "<p id=\"stim\">6</p>", "internal_node_id": "0.0-10.0-4.0", "time_elapsed": 188415, "key_press": -1, "trial_index": 14}, "uniqueid": "MTK1358:3X65QVEQI1U17S5EA7E7PGEUGU9LCM", "dateTime": 1515810696252}, {"current_trial": 15, "trialdata": {"rt": -1, "trial_type": "single-stim", "stimulus": "<p id=\"stim\">5</p>", "internal_node_id": "0.0-10.0-5.0", "time_elapsed": 189416, "key_press": -1, "trial_index": 15}, "uniqueid": "MTK1358:3X65QVEQI1U17S5EA7E7PGEUGU9LCM", "dateTime": 1515810697253}, {"current_trial": 16, "trialdata": {"rt": -1, "trial_type": "single-stim", "stimulus": "<p id=\"stim\">4</p>", "internal_node_id": "0.0-10.0-6.0", "time_elapsed": 190418, "key_press": -1, "trial_index": 16}, "uniqueid": "MTK1358:3X65QVEQI1U17S5EA7E7PGEUGU9LCM", "dateTime": 1515810698255}, {"current_trial": 17, "trialdata": {"rt": -1, "trial_type": "single-stim", "stimulus": "<p id=\"stim\">3</p>", "internal_node_id": "0.0-10.0-7.0", "time_elapsed": 191420, "key_press": -1, "trial_index": 17}, "uniqueid": "MTK1358:3X65QVEQI1U17S5EA7E7PGEUGU9LCM", "dateTime": 1515810699257}, {"current_trial": 18, "trialdata": {"rt": -1, "trial_type": "single-stim", "stimulus": "<p id=\"stim\">2</p>", "internal_node_id": "0.0-10.0-8.0", "time_elapsed": 192420, "key_press": -1, "trial_index": 18}, "uniqueid": "MTK1358:3X65QVEQI1U17S5EA7E7PGEUGU9LCM", "dateTime": 1515810700257}, {"current_trial": 19, "trialdata": {"rt": -1, "trial_type": "single-stim", "stimulus": "<p id=\"stim\">1</p>", "internal_node_id": "0.0-10.0-9.0", "time_elapsed": 193421, "key_press": -1, "trial_index": 19}, "uniqueid": "MTK1358:3X65QVEQI1U17S5EA7E7PGEUGU9LCM", "dateTime": 1515810701258}, {"current_trial": 20, "trialdata": {"rt": -1, "trial_type": "single-stim", "stimulus": "<p id=\"stim\">+</p>", "internal_node_id": "0.0-11.0-0.0", "time_elapsed": 194923, "key_press": -1, "type": "FIXATION", "trial_index": 20}, "uniqueid": "MTK1358:3X65QVEQI1U17S5EA7E7PGEUGU9LCM", "dateTime": 1515810702760}, {"current_trial": 21, "trialdata": {"rt": -1, "trial_type": "single-stim", "word": "puppy", "stimulus": "<p id=\"stim\">PUPPY</p>", "conditions": [18, 1200, "v", 18000], "internal_node_id": "0.0-12.0", "trial": 0, "time_elapsed": 196124, "serialpos": 0, "key_press": -1, "wordID": 1143, "type": "PRES_VIS", "trial_index": 21}, "uniqueid": "MTK1358:3X65QVEQI1U17S5EA7E7PGEUGU9LCM", "dateTime": 1515810703961}, {"current_trial": 22, "trialdata": {"rt": -1, "trial_type": "single-stim", "word": "salt", "stimulus": "<p id=\"stim\">SALT</p>", "conditions": [18, 1200, "v", 18000], "internal_node_id": "0.0-13.0", "trial": 0, "time_elapsed": 198321, "serialpos": 1, "key_press": -1, "wordID": 1228, "type": "PRES_VIS", "trial_index": 22}, "uniqueid": "MTK1358:3X65QVEQI1U17S5EA7E7PGEUGU9LCM", "dateTime": 1515810706158}, {"current_trial": 23, "trialdata": {"rt": -1, "trial_type": "single-stim", "word": "canal", "stimulus": "<p id=\"stim\">CANAL</p>", "conditions": [18, 1200, "v", 18000], "internal_node_id": "0.0-14.0", "trial": 0, "time_elapsed": 200453, "serialpos": 2, "key_press": -1, "wordID": 225, "type": "PRES_VIS", "trial_index": 23}, "uniqueid": "MTK1358:3X65QVEQI1U17S5EA7E7PGEUGU9LCM", "dateTime": 1515810708290}, {"current_trial": 24, "trialdata": {"rt": -1, "trial_type": "single-stim", "word": "vagrant", "stimulus": "<p id=\"stim\">VAGRANT</p>", "conditions": [18, 1200, "v", 18000], "internal_node_id": "0.0-15.0", "trial": 0, "time_elapsed": 202629, "serialpos": 3, "key_press": -1, "wordID": 1543, "type": "PRES_VIS", "trial_index": 24}, "uniqueid": "MTK1358:3X65QVEQI1U17S5EA7E7PGEUGU9LCM", "dateTime": 1515810710467}, {"current_trial": 25, "trialdata": {"rt": -1, "trial_type": "single-stim", "word": "infant", "stimulus": "<p id=\"stim\">INFANT</p>", "conditions": [18, 1200, "v", 18000], "internal_node_id": "0.0-16.0", "trial": 0, "time_elapsed": 204960, "serialpos": 4, "key_press": -1, "wordID": 736, "type": "PRES_VIS", "trial_index": 25}, "uniqueid": "MTK1358:3X65QVEQI1U17S5EA7E7PGEUGU9LCM", "dateTime": 1515810712797}, {"current_trial": 26, "trialdata": {"rt": -1, "trial_type": "single-stim", "word": "soda", "stimulus": "<p id=\"stim\">SODA</p>", "conditions": [18, 1200, "v", 18000], "internal_node_id": "0.0-17.0", "trial": 0, "time_elapsed": 207140, "serialpos": 5, "key_press": -1, "wordID": 1340, "type": "PRES_VIS", "trial_index": 26}, "uniqueid": "MTK1358:3X65QVEQI1U17S5EA7E7PGEUGU9LCM", "dateTime": 1515810714977}, {"current_trial": 27, "trialdata": {"rt": -1, "trial_type": "single-stim", "word": "powder", "stimulus": "<p id=\"stim\">POWDER</p>", "conditions": [18, 1200, "v", 18000], "internal_node_id": "0.0-18.0", "trial": 0, "time_elapsed": 209267, "serialpos": 6, "key_press": -1, "wordID": 1116, "type": "PRES_VIS", "trial_index": 27}, "uniqueid": "MTK1358:3X65QVEQI1U17S5EA7E7PGEUGU9LCM", "dateTime": 1515810717104}, {"current_trial": 28, "trialdata": {"rt": -1, "trial_type": "single-stim", "word": "nightgown", "stimulus": "<p id=\"stim\">NIGHTGOWN</p>", "conditions": [18, 1200, "v", 18000], "internal_node_id": "0.0-19.0", "trial": 0, "time_elapsed": 211276, "serialpos": 7, "key_press": -1, "wordID": 952, "type": "PRES_VIS", "trial_index": 28}, "uniqueid": "MTK1358:3X65QVEQI1U17S5EA7E7PGEUGU9LCM", "dateTime": 1515810719113}, {"current_trial": 29, "trialdata": {"rt": -1, "trial_type": "single-stim", "word": "coffee", "stimulus": "<p id=\"stim\">COFFEE</p>", "conditions": [18, 1200, "v", 18000], "internal_node_id": "0.0-20.0", "trial": 0, "time_elapsed": 213528, "serialpos": 8, "key_press": -1, "wordID": 340, "type": "PRES_VIS", "trial_index": 29}, "uniqueid": "MTK1358:3X65QVEQI1U17S5EA7E7PGEUGU9LCM", "dateTime": 1515810721365}, {"current_trial": 30, "trialdata": {"rt": -1, "trial_type": "single-stim", "word": "blade", "stimulus": "<p id=\"stim\">BLADE</p>", "conditions": [18, 1200, "v", 18000], "internal_node_id": "0.0-21.0", "trial": 0, "time_elapsed": 215697, "serialpos": 9, "key_press": -1, "wordID": 133, "type": "PRES_VIS", "trial_index": 30}, "uniqueid": "MTK1358:3X65QVEQI1U17S5EA7E7PGEUGU9LCM", "dateTime": 1515810723534}, {"current_trial": 31, "trialdata": {"rt": -1, "trial_type": "single-stim", "word": "atom", "stimulus": "<p id=\"stim\">ATOM</p>", "conditions": [18, 1200, "v", 18000], "internal_node_id": "0.0-22.0", "trial": 0, "time_elapsed": 217948, "serialpos": 10, "key_press": -1, "wordID": 54, "type": "PRES_VIS", "trial_index": 31}, "uniqueid": "MTK1358:3X65QVEQI1U17S5EA7E7PGEUGU9LCM", "dateTime": 1515810725785}, {"current_trial": 32, "trialdata": {"rt": -1, "trial_type": "single-stim", "word": "branch", "stimulus": "<p id=\"stim\">BRANCH</p>", "conditions": [18, 1200, "v", 18000], "internal_node_id": "0.0-23.0", "trial": 0, "time_elapsed": 219994, "serialpos": 11, "key_press": -1, "wordID": 167, "type": "PRES_VIS", "trial_index": 32}, "uniqueid": "MTK1358:3X65QVEQI1U17S5EA7E7PGEUGU9LCM", "dateTime": 1515810727831}, {"current_trial": 33, "trialdata": {"rt": -1, "trial_type": "single-stim", "word": "laser", "stimulus": "<p id=\"stim\">LASER</p>", "conditions": [18, 1200, "v", 18000], "internal_node_id": "0.0-24.0", "trial": 0, "time_elapsed": 222181, "serialpos": 12, "key_press": -1, "wordID": 800, "type": "PRES_VIS", "trial_index": 33}, "uniqueid": "MTK1358:3X65QVEQI1U17S5EA7E7PGEUGU9LCM", "dateTime": 1515810730018}, {"current_trial": 34, "trialdata": {"rt": -1, "trial_type": "single-stim", "word": "softball", "stimulus": "<p id=\"stim\">SOFTBALL</p>", "conditions": [18, 1200, "v", 18000], "internal_node_id": "0.0-25.0", "trial": 0, "time_elapsed": 224489, "serialpos": 13, "key_press": -1, "wordID": 1342, "type": "PRES_VIS", "trial_index": 34}, "uniqueid": "MTK1358:3X65QVEQI1U17S5EA7E7PGEUGU9LCM", "dateTime": 1515810732327}, {"current_trial": 35, "trialdata": {"rt": -1, "trial_type": "single-stim", "word": "drink", "stimulus": "<p id=\"stim\">DRINK</p>", "conditions": [18, 1200, "v", 18000], "internal_node_id": "0.0-26.0", "trial": 0, "time_elapsed": 226749, "serialpos": 14, "key_press": -1, "wordID": 497, "type": "PRES_VIS", "trial_index": 35}, "uniqueid": "MTK1358:3X65QVEQI1U17S5EA7E7PGEUGU9LCM", "dateTime": 1515810734586}, {"current_trial": 36, "trialdata": {"rt": -1, "trial_type": "single-stim", "word": "cook", "stimulus": "<p id=\"stim\">COOK</p>", "conditions": [18, 1200, "v", 18000], "internal_node_id": "0.0-27.0", "trial": 0, "time_elapsed": 229119, "serialpos": 15, "key_press": -1, "wordID": 371, "type": "PRES_VIS", "trial_index": 36}, "uniqueid": "MTK1358:3X65QVEQI1U17S5EA7E7PGEUGU9LCM", "dateTime": 1515810736956}, {"current_trial": 37, "trialdata": {"rt": -1, "trial_type": "single-stim", "word": "pimple", "stimulus": "<p id=\"stim\">PIMPLE</p>", "conditions": [18, 1200, "v", 18000], "internal_node_id": "0.0-28.0", "trial": 0, "time_elapsed": 231483, "serialpos": 16, "key_press": -1, "wordID": 1070, "type": "PRES_VIS", "trial_index": 37}, "uniqueid": "MTK1358:3X65QVEQI1U17S5EA7E7PGEUGU9LCM", "dateTime": 1515810739320}, {"current_trial": 38, "trialdata": {"rt": -1, "trial_type": "single-stim", "word": "cowboy", "stimulus": "<p id=\"stim\">COWBOY</p>", "conditions": [18, 1200, "v", 18000], "internal_node_id": "0.0-29.0", "trial": 0, "time_elapsed": 233825, "serialpos": 17, "key_press": -1, "wordID": 394, "type": "PRES_VIS", "trial_index": 38}, "uniqueid": "MTK1358:3X65QVEQI1U17S5EA7E7PGEUGU9LCM", "dateTime": 1515810741662}, {"current_trial": 39, "trialdata": {"rt": -1, "trial_type": "single-stim", "stimulus": "", "internal_node_id": "0.0-30.0-0.0", "time_elapsed": 236118, "key_press": -1, "type": "PRE_RECALL_DELAY", "trial_index": 39}, "uniqueid": "MTK1358:3X65QVEQI1U17S5EA7E7PGEUGU9LCM", "dateTime": 1515810743955}, {"current_trial": 40, "trialdata": {"rt": -1000, "trial_type": "single-audio", "stimulus": "/static/audio/400Hz.wav", "internal_node_id": "0.0-31.0", "time_elapsed": 236620, "key_press": -1, "type": "PRE_RECALL_ALERT", "trial_index": 40}, "uniqueid": "MTK1358:3X65QVEQI1U17S5EA7E7PGEUGU9LCM", "dateTime": 1515810744457}, {"current_trial": 41, "trialdata": {"rt": [3554, 6569, 7865, 9401, 10521, 11930], "recwords": ["cowboy", "softball", "canal", "puppy", "salt", "atom"], "key_times": [1570, 1730, 1810, 2002, 2074, 2418, 3554, 4882, 4970, 5050, 5218, 5490, 5730, 5810, 5953, 5978, 6105, 6569, 6913, 7049, 7201, 7297, 7417, 7865, 8513, 8721, 8889, 9009, 9209, 9401, 9769, 9898, 9977, 10097, 10521, 11401, 11569, 11641, 11713, 11930], "trial_type": "free-recall", "conditions": [18, 1200, "v", 18000], "internal_node_id": "0.0-32.0-0.0", "key_presses": [67, 79, 87, 66, 79, 89, 32, 83, 79, 70, 84, 65, 8, 66, 65, 76, 76, 32, 67, 65, 78, 65, 76, 32, 80, 85, 80, 80, 89, 32, 83, 65, 76, 84, 32, 65, 84, 79, 77, 32], "trial": 0, "time_elapsed": 296623, "type": "FREE_RECALL", "trial_index": 41}, "uniqueid": "MTK1358:3X65QVEQI1U17S5EA7E7PGEUGU9LCM", "dateTime": 1515810804471}, {"current_trial": 42, "trialdata": {"rt": 1709, "trial_type": "text", "internal_node_id": "0.0-33.0", "time_elapsed": 300344, "key_press": 32, "type": "INSTRUCTIONS", "trial_index": 42}, "uniqueid": "MTK1358:3X65QVEQI1U17S5EA7E7PGEUGU9LCM", "dateTime": 1515810808181}, {"current_trial": 43, "trialdata": {"rt": [5326, 7102, 13565, 17934], "trial_type": "math-distractor", "key_times": [2614, 2782, 3286, 3862, 5326, 6630, 6782, 7102, 13022, 13205, 13565, 17190, 17550, 17934], "responses": ["14", "11", "13", "20"], "num2": [5, 1, 6, 3, 9], "num3": [3, 1, 2, 8, 2], "conditions": [18, 1200, "v", 18000], "internal_node_id": "0.0-34.0", "key_presses": [49, 52, 32, 8, 13, 49, 49, 13, 49, 51, 13, 50, 48, 13], "trial": 1, "time_elapsed": 320346, "type": "DISTRACTOR", "trial_index": 43, "num1": [6, 9, 5, 9, 3]}, "uniqueid": "MTK1358:3X65QVEQI1U17S5EA7E7PGEUGU9LCM", "dateTime": 1515810828183}, {"current_trial": 44, "trialdata": {"rt": -1, "trial_type": "single-stim", "stimulus": "<p id=\"stim\">10</p>", "internal_node_id": "0.0-35.0-0.0", "time_elapsed": 323347, "key_press": -1, "trial_index": 44}, "uniqueid": "MTK1358:3X65QVEQI1U17S5EA7E7PGEUGU9LCM", "dateTime": 1515810831184}, {"current_trial": 45, "trialdata": {"rt": -1, "trial_type": "single-stim", "stimulus": "<p id=\"stim\">9</p>", "internal_node_id": "0.0-35.0-1.0", "time_elapsed": 324347, "key_press": -1, "trial_index": 45}, "uniqueid": "MTK1358:3X65QVEQI1U17S5EA7E7PGEUGU9LCM", "dateTime": 1515810832184}, {"current_trial": 46, "trialdata": {"rt": -1, "trial_type": "single-stim", "stimulus": "<p id=\"stim\">8</p>", "internal_node_id": "0.0-35.0-2.0", "time_elapsed": 325348, "key_press": -1, "trial_index": 46}, "uniqueid": "MTK1358:3X65QVEQI1U17S5EA7E7PGEUGU9LCM", "dateTime": 1515810833185}, {"current_trial": 47, "trialdata": {"rt": -1, "trial_type": "single-stim", "stimulus": "<p id=\"stim\">7</p>", "internal_node_id": "0.0-35.0-3.0", "time_elapsed": 326349, "key_press": -1, "trial_index": 47}, "uniqueid": "MTK1358:3X65QVEQI1U17S5EA7E7PGEUGU9LCM", "dateTime": 1515810834186}, {"current_trial": 48, "trialdata": {"rt": -1, "trial_type": "single-stim", "stimulus": "<p id=\"stim\">6</p>", "internal_node_id": "0.0-35.0-4.0", "time_elapsed": 327350, "key_press": -1, "trial_index": 48}, "uniqueid": "MTK1358:3X65QVEQI1U17S5EA7E7PGEUGU9LCM", "dateTime": 1515810835187}, {"current_trial": 49, "trialdata": {"rt": -1, "trial_type": "single-stim", "stimulus": "<p id=\"stim\">5</p>", "internal_node_id": "0.0-35.0-5.0", "time_elapsed": 328351, "key_press": -1, "trial_index": 49}, "uniqueid": "MTK1358:3X65QVEQI1U17S5EA7E7PGEUGU9LCM", "dateTime": 1515810836188}, {"current_trial": 50, "trialdata": {"rt": -1, "trial_type": "single-stim", "stimulus": "<p id=\"stim\">4</p>", "internal_node_id": "0.0-35.0-6.0", "time_elapsed": 329351, "key_press": -1, "trial_index": 50}, "uniqueid": "MTK1358:3X65QVEQI1U17S5EA7E7PGEUGU9LCM", "dateTime": 1515810837188}, {"current_trial": 51, "trialdata": {"rt": -1, "trial_type": "single-stim", "stimulus": "<p id=\"stim\">3</p>", "internal_node_id": "0.0-35.0-7.0", "time_elapsed": 330352, "key_press": -1, "trial_index": 51}, "uniqueid": "MTK1358:3X65QVEQI1U17S5EA7E7PGEUGU9LCM", "dateTime": 1515810838189}, {"current_trial": 52, "trialdata": {"rt": -1, "trial_type": "single-stim", "stimulus": "<p id=\"stim\">2</p>", "internal_node_id": "0.0-35.0-8.0", "time_elapsed": 331352, "key_press": -1, "trial_index": 52}, "uniqueid": "MTK1358:3X65QVEQI1U17S5EA7E7PGEUGU9LCM", "dateTime": 1515810839189}, {"current_trial": 53, "trialdata": {"rt": -1, "trial_type": "single-stim", "stimulus": "<p id=\"stim\">1</p>", "internal_node_id": "0.0-35.0-9.0", "time_elapsed": 332353, "key_press": -1, "trial_index": 53}, "uniqueid": "MTK1358:3X65QVEQI1U17S5EA7E7PGEUGU9LCM", "dateTime": 1515810840190}, {"current_trial": 54, "trialdata": {"rt": -1, "trial_type": "single-stim", "stimulus": "<p id=\"stim\">+</p>", "internal_node_id": "0.0-36.0-0.0", "time_elapsed": 333854, "key_press": -1, "type": "FIXATION", "trial_index": 54}, "uniqueid": "MTK1358:3X65QVEQI1U17S5EA7E7PGEUGU9LCM", "dateTime": 1515810841691}, {"current_trial": 55, "trialdata": {"rt": -1, "trial_type": "single-stim", "word": "freezer", "stimulus": "<p id=\"stim\">FREEZER</p>", "conditions": [18, 1200, "v", 18000], "internal_node_id": "0.0-37.0", "trial": 1, "time_elapsed": 335055, "serialpos": 0, "key_press": -1, "wordID": 603, "type": "PRES_VIS", "trial_index": 55}, "uniqueid": "MTK1358:3X65QVEQI1U17S5EA7E7PGEUGU9LCM", "dateTime": 1515810842892}, {"current_trial": 56, "trialdata": {"rt": -1, "trial_type": "single-stim", "word": "seal", "stimulus": "<p id=\"stim\">SEAL</p>", "conditions": [18, 1200, "v", 18000], "internal_node_id": "0.0-38.0", "trial": 1, "time_elapsed": 337187, "serialpos": 1, "key_press": -1, "wordID": 1261, "type": "PRES_VIS", "trial_index": 56}, "uniqueid": "MTK1358:3X65QVEQI1U17S5EA7E7PGEUGU9LCM", "dateTime": 1515810845024}, {"current_trial": 57, "trialdata": {"rt": -1, "trial_type": "single-stim", "word": "paddle", "stimulus": "<p id=\"stim\">PADDLE</p>", "conditions": [18, 1200, "v", 18000], "internal_node_id": "0.0-39.0", "trial": 1, "time_elapsed": 339553, "serialpos": 2, "key_press": -1, "wordID": 999, "type": "PRES_VIS", "trial_index": 57}, "uniqueid": "MTK1358:3X65QVEQI1U17S5EA7E7PGEUGU9LCM", "dateTime": 1515810847390}, {"current_trial": 58, "trialdata": {"rt": -1, "trial_type": "single-stim", "word": "doughnut", "stimulus": "<p id=\"stim\">DOUGHNUT</p>", "conditions": [18, 1200, "v", 18000], "internal_node_id": "0.0-40.0", "trial": 1, "time_elapsed": 341570, "serialpos": 3, "key_press": -1, "wordID": 489, "type": "PRES_VIS", "trial_index": 58}, "uniqueid": "MTK1358:3X65QVEQI1U17S5EA7E7PGEUGU9LCM", "dateTime": 1515810849407}, {"current_trial": 59, "trialdata": {"rt": -1, "trial_type": "single-stim", "word": "iceberg", "stimulus": "<p id=\"stim\">ICEBERG</p>", "conditions": [18, 1200, "v", 18000], "internal_node_id": "0.0-41.0", "trial": 1, "time_elapsed": 343741, "serialpos": 4, "key_press": -1, "wordID": 730, "type": "PRES_VIS", "trial_index": 59}, "uniqueid": "MTK1358:3X65QVEQI1U17S5EA7E7PGEUGU9LCM", "dateTime": 1515810851578}, {"current_trial": 60, "trialdata": {"rt": -1, "trial_type": "single-stim", "word": "champagne", "stimulus": "<p id=\"stim\">CHAMPAGNE</p>", "conditions": [18, 1200, "v", 18000], "internal_node_id": "0.0-42.0", "trial": 1, "time_elapsed": 345791, "serialpos": 5, "key_press": -1, "wordID": 277, "type": "PRES_VIS", "trial_index": 60}, "uniqueid": "MTK1358:3X65QVEQI1U17S5EA7E7PGEUGU9LCM", "dateTime": 1515810853628}, {"current_trial": 61, "trialdata": {"rt": -1, "trial_type": "single-stim", "word": "rifle", "stimulus": "<p id=\"stim\">RIFLE</p>", "conditions": [18, 1200, "v", 18000], "internal_node_id": "0.0-43.0", "trial": 1, "time_elapsed": 347954, "serialpos": 6, "key_press": -1, "wordID": 1191, "type": "PRES_VIS", "trial_index": 61}, "uniqueid": "MTK1358:3X65QVEQI1U17S5EA7E7PGEUGU9LCM", "dateTime": 1515810855791}, {"current_trial": 62, "trialdata": {"rt": -1, "trial_type": "single-stim", "word": "scotch", "stimulus": "<p id=\"stim\">SCOTCH</p>", "conditions": [18, 1200, "v", 18000], "internal_node_id": "0.0-44.0", "trial": 1, "time_elapsed": 350055, "serialpos": 7, "key_press": -1, "wordID": 1250, "type": "PRES_VIS", "trial_index": 62}, "uniqueid": "MTK1358:3X65QVEQI1U17S5EA7E7PGEUGU9LCM", "dateTime": 1515810857892}, {"current_trial": 63, "trialdata": {"rt": -1, "trial_type": "single-stim", "word": "tribe", "stimulus": "<p id=\"stim\">TRIBE</p>", "conditions": [18, 1200, "v", 18000], "internal_node_id": "0.0-45.0", "trial": 1, "time_elapsed": 352093, "serialpos": 8, "key_press": -1, "wordID": 1504, "type": "PRES_VIS", "trial_index": 63}, "uniqueid": "MTK1358:3X65QVEQI1U17S5EA7E7PGEUGU9LCM", "dateTime": 1515810859930}, {"current_trial": 64, "trialdata": {"rt": -1, "trial_type": "single-stim", "word": "milk", "stimulus": "<p id=\"stim\">MILK</p>", "conditions": [18, 1200, "v", 18000], "internal_node_id": "0.0-46.0", "trial": 1, "time_elapsed": 354453, "serialpos": 9, "key_press": -1, "wordID": 894, "type": "PRES_VIS", "trial_index": 64}, "uniqueid": "MTK1358:3X65QVEQI1U17S5EA7E7PGEUGU9LCM", "dateTime": 1515810862290}, {"current_trial": 65, "trialdata": {"rt": -1, "trial_type": "single-stim", "word": "lumber", "stimulus": "<p id=\"stim\">LUMBER</p>", "conditions": [18, 1200, "v", 18000], "internal_node_id": "0.0-47.0", "trial": 1, "time_elapsed": 356845, "serialpos": 10, "key_press": -1, "wordID": 847, "type": "PRES_VIS", "trial_index": 65}, "uniqueid": "MTK1358:3X65QVEQI1U17S5EA7E7PGEUGU9LCM", "dateTime": 1515810864682}, {"current_trial": 66, "trialdata": {"rt": -1, "trial_type": "single-stim", "word": "creature", "stimulus": "<p id=\"stim\">CREATURE</p>", "conditions": [18, 1200, "v", 18000], "internal_node_id": "0.0-48.0", "trial": 1, "time_elapsed": 359101, "serialpos": 11, "key_press": -1, "wordID": 402, "type": "PRES_VIS", "trial_index": 66}, "uniqueid": "MTK1358:3X65QVEQI1U17S5EA7E7PGEUGU9LCM", "dateTime": 1515810866938}, {"current_trial": 67, "trialdata": {"rt": -1, "trial_type": "single-stim", "word": "record", "stimulus": "<p id=\"stim\">RECORD</p>", "conditions": [18, 1200, "v", 18000], "internal_node_id": "0.0-49.0", "trial": 1, "time_elapsed": 361258, "serialpos": 12, "key_press": -1, "wordID": 1175, "type": "PRES_VIS", "trial_index": 67}, "uniqueid": "MTK1358:3X65QVEQI1U17S5EA7E7PGEUGU9LCM", "dateTime": 1515810869095}, {"current_trial": 68, "trialdata": {"rt": -1, "trial_type": "single-stim", "word": "cigar", "stimulus": "<p id=\"stim\">CIGAR</p>", "conditions": [18, 1200, "v", 18000], "internal_node_id": "0.0-50.0", "trial": 1, "time_elapsed": 363297, "serialpos": 13, "key_press": -1, "wordID": 307, "type": "PRES_VIS", "trial_index": 68}, "uniqueid": "MTK1358:3X65QVEQI1U17S5EA7E7PGEUGU9LCM", "dateTime": 1515810871136}, {"current_trial": 69, "trialdata": {"rt": -1, "trial_type": "single-stim", "word": "slime", "stimulus": "<p id=\"stim\">SLIME</p>", "conditions": [18, 1200, "v", 18000], "internal_node_id": "0.0-51.0", "trial": 1, "time_elapsed": 365300, "serialpos": 14, "key_press": -1, "wordID": 1326, "type": "PRES_VIS", "trial_index": 69}, "uniqueid": "MTK1358:3X65QVEQI1U17S5EA7E7PGEUGU9LCM", "dateTime": 1515810873137}, {"current_trial": 70, "trialdata": {"rt": -1, "trial_type": "single-stim", "word": "outfit", "stimulus": "<p id=\"stim\">OUTFIT</p>", "conditions": [18, 1200, "v", 18000], "internal_node_id": "0.0-52.0", "trial": 1, "time_elapsed": 367463, "serialpos": 15, "key_press": -1, "wordID": 987, "type": "PRES_VIS", "trial_index": 70}, "uniqueid": "MTK1358:3X65QVEQI1U17S5EA7E7PGEUGU9LCM", "dateTime": 1515810875300}, {"current_trial": 71, "trialdata": {"rt": -1, "trial_type": "single-stim", "word": "gallon", "stimulus": "<p id=\"stim\">GALLON</p>", "conditions": [18, 1200, "v", 18000], "internal_node_id": "0.0-53.0", "trial": 1, "time_elapsed": 369798, "serialpos": 16, "key_press": -1, "wordID": 617, "type": "PRES_VIS", "trial_index": 71}, "uniqueid": "MTK1358:3X65QVEQI1U17S5EA7E7PGEUGU9LCM", "dateTime": 1515810877635}, {"current_trial": 72, "trialdata": {"rt": -1, "trial_type": "single-stim", "word": "lightning", "stimulus": "<p id=\"stim\">LIGHTNING</p>", "conditions": [18, 1200, "v", 18000], "internal_node_id": "0.0-54.0", "trial": 1, "time_elapsed": 371954, "serialpos": 17, "key_press": -1, "wordID": 819, "type": "PRES_VIS", "trial_index": 72}, "uniqueid": "MTK1358:3X65QVEQI1U17S5EA7E7PGEUGU9LCM", "dateTime": 1515810879791}, {"current_trial": 73, "trialdata": {"rt": -1, "trial_type": "single-stim", "stimulus": "", "internal_node_id": "0.0-55.0-0.0", "time_elapsed": 374015, "key_press": -1, "type": "PRE_RECALL_DELAY", "trial_index": 73}, "uniqueid": "MTK1358:3X65QVEQI1U17S5EA7E7PGEUGU9LCM", "dateTime": 1515810881852}, {"current_trial": 74, "trialdata": {"rt": -1000, "trial_type": "single-audio", "stimulus": "/static/audio/400Hz.wav", "internal_node_id": "0.0-56.0", "time_elapsed": 374515, "key_press": -1, "type": "PRE_RECALL_ALERT", "trial_index": 74}, "uniqueid": "MTK1358:3X65QVEQI1U17S5EA7E7PGEUGU9LCM", "dateTime": 1515810882353}, {"current_trial": 75, "trialdata": {"rt": [4723, 6547, 9546, 12186, 21995, 30314, 34131], "recwords": ["lightning", "gallon", "seal", "freezer", "iceburg", "champagne", "rifle"], "key_times": [1131, 1323, 1467, 1547, 1667, 1763, 1931, 2011, 2099, 2547, 2683, 2819, 2939, 3067, 3475, 3715, 3955, 4027, 4091, 4723, 5627, 5755, 5803, 5923, 6067, 6139, 6547, 8947, 9098, 9154, 9219, 9546, 11066, 11251, 11394, 11514, 11674, 11810, 11946, 12186, 18171, 18259, 18427, 18611, 18931, 19059, 19179, 19315, 19411, 19691, 19779, 19971, 20075, 20299, 21043, 21995, 27474, 27682, 27794, 27898, 28082, 28234, 28578, 29058, 29266, 29474, 29842, 30314, 33123, 33459, 33579, 33723, 33827, 34131], "trial_type": "free-recall", "conditions": [18, 1200, "v", 18000], "internal_node_id": "0.0-57.0-0.0", "key_presses": [76, 73, 71, 72, 84, 78, 73, 78, 71, 8, 8, 8, 8, 8, 84, 78, 73, 78, 71, 32, 71, 65, 76, 76, 79, 78, 32, 83, 69, 65, 76, 32, 70, 82, 69, 69, 90, 69, 82, 32, 76, 69, 84, 85, 8, 8, 8, 8, 73, 67, 69, 66, 85, 82, 71, 32, 67, 72, 65, 77, 80, 65, 73, 8, 71, 78, 69, 32, 82, 73, 70, 76, 69, 32], "trial": 1, "time_elapsed": 434517, "type": "FREE_RECALL", "trial_index": 75}, "uniqueid": "MTK1358:3X65QVEQI1U17S5EA7E7PGEUGU9LCM", "dateTime": 1515810942356}, {"current_trial": 76, "trialdata": {"rt": 2968, "trial_type": "text", "internal_node_id": "0.0-58.0", "time_elapsed": 439488, "key_press": 32, "type": "INSTRUCTIONS", "trial_index": 76}, "uniqueid": "MTK1358:3X65QVEQI1U17S5EA7E7PGEUGU9LCM", "dateTime": 1515810947325}, {"current_trial": 77, "trialdata": {"rt": [2799, 8047, 11239], "trial_type": "math-distractor", "key_times": [2007, 2103, 2799, 6447, 6519, 8047, 10663, 11023, 11239], "responses": ["12", "12", "17"], "num2": [3, 1, 8, 1], "num3": [8, 7, 7, 1], "conditions": [12, 800, "v", 12000], "internal_node_id": "0.0-59.0", "key_presses": [49, 50, 13, 49, 50, 13, 49, 55, 13], "trial": 2, "time_elapsed": 452489, "type": "DISTRACTOR", "trial_index": 77, "num1": [1, 4, 2, 3]}, "uniqueid": "MTK1358:3X65QVEQI1U17S5EA7E7PGEUGU9LCM", "dateTime": 1515810960326}, {"current_trial": 78, "trialdata": {"rt": -1, "trial_type": "single-stim", "stimulus": "<p id=\"stim\">10</p>", "internal_node_id": "0.0-60.0-0.0", "time_elapsed": 455489, "key_press": -1, "trial_index": 78}, "uniqueid": "MTK1358:3X65QVEQI1U17S5EA7E7PGEUGU9LCM", "dateTime": 1515810963326}, {"current_trial": 79, "trialdata": {"rt": -1, "trial_type": "single-stim", "stimulus": "<p id=\"stim\">9</p>", "internal_node_id": "0.0-60.0-1.0", "time_elapsed": 456489, "key_press": -1, "trial_index": 79}, "uniqueid": "MTK1358:3X65QVEQI1U17S5EA7E7PGEUGU9LCM", "dateTime": 1515810964326}, {"current_trial": 80, "trialdata": {"rt": -1, "trial_type": "single-stim", "stimulus": "<p id=\"stim\">8</p>", "internal_node_id": "0.0-60.0-2.0", "time_elapsed": 457489, "key_press": -1, "trial_index": 80}, "uniqueid": "MTK1358:3X65QVEQI1U17S5EA7E7PGEUGU9LCM", "dateTime": 1515810965326}, {"current_trial": 81, "trialdata": {"rt": -1, "trial_type": "single-stim", "stimulus": "<p id=\"stim\">7</p>", "internal_node_id": "0.0-60.0-3.0", "time_elapsed": 458490, "key_press": -1, "trial_index": 81}, "uniqueid": "MTK1358:3X65QVEQI1U17S5EA7E7PGEUGU9LCM", "dateTime": 1515810966327}, {"current_trial": 82, "trialdata": {"rt": -1, "trial_type": "single-stim", "stimulus": "<p id=\"stim\">6</p>", "internal_node_id": "0.0-60.0-4.0", "time_elapsed": 459490, "key_press": -1, "trial_index": 82}, "uniqueid": "MTK1358:3X65QVEQI1U17S5EA7E7PGEUGU9LCM", "dateTime": 1515810967327}, {"current_trial": 83, "trialdata": {"rt": -1, "trial_type": "single-stim", "stimulus": "<p id=\"stim\">5</p>", "internal_node_id": "0.0-60.0-5.0", "time_elapsed": 460490, "key_press": -1, "trial_index": 83}, "uniqueid": "MTK1358:3X65QVEQI1U17S5EA7E7PGEUGU9LCM", "dateTime": 1515810968327}, {"current_trial": 84, "trialdata": {"rt": -1, "trial_type": "single-stim", "stimulus": "<p id=\"stim\">4</p>", "internal_node_id": "0.0-60.0-6.0", "time_elapsed": 461491, "key_press": -1, "trial_index": 84}, "uniqueid": "MTK1358:3X65QVEQI1U17S5EA7E7PGEUGU9LCM", "dateTime": 1515810969328}, {"current_trial": 85, "trialdata": {"rt": -1, "trial_type": "single-stim", "stimulus": "<p id=\"stim\">3</p>", "internal_node_id": "0.0-60.0-7.0", "time_elapsed": 462491, "key_press": -1, "trial_index": 85}, "uniqueid": "MTK1358:3X65QVEQI1U17S5EA7E7PGEUGU9LCM", "dateTime": 1515810970328}, {"current_trial": 86, "trialdata": {"rt": -1, "trial_type": "single-stim", "stimulus": "<p id=\"stim\">2</p>", "internal_node_id": "0.0-60.0-8.0", "time_elapsed": 463491, "key_press": -1, "trial_index": 86}, "uniqueid": "MTK1358:3X65QVEQI1U17S5EA7E7PGEUGU9LCM", "dateTime": 1515810971328}, {"current_trial": 87, "trialdata": {"rt": -1, "trial_type": "single-stim", "stimulus": "<p id=\"stim\">1</p>", "internal_node_id": "0.0-60.0-9.0", "time_elapsed": 464491, "key_press": -1, "trial_index": 87}, "uniqueid": "MTK1358:3X65QVEQI1U17S5EA7E7PGEUGU9LCM", "dateTime": 1515810972328}, {"current_trial": 88, "trialdata": {"rt": -1, "trial_type": "single-stim", "stimulus": "<p id=\"stim\">+</p>", "internal_node_id": "0.0-61.0-0.0", "time_elapsed": 465992, "key_press": -1, "type": "FIXATION", "trial_index": 88}, "uniqueid": "MTK1358:3X65QVEQI1U17S5EA7E7PGEUGU9LCM", "dateTime": 1515810973829}, {"current_trial": 89, "trialdata": {"rt": -1, "trial_type": "single-stim", "word": "asia", "stimulus": "<p id=\"stim\">ASIA</p>", "conditions": [12, 800, "v", 12000], "internal_node_id": "0.0-62.0", "trial": 2, "time_elapsed": 466792, "serialpos": 0, "key_press": -1, "wordID": 45, "type": "PRES_VIS", "trial_index": 89}, "uniqueid": "MTK1358:3X65QVEQI1U17S5EA7E7PGEUGU9LCM", "dateTime": 1515810974629}, {"current_trial": 90, "trialdata": {"rt": -1, "trial_type": "single-stim", "word": "napkin", "stimulus": "<p id=\"stim\">NAPKIN</p>", "conditions": [12, 800, "v", 12000], "internal_node_id": "0.0-63.0", "trial": 2, "time_elapsed": 468747, "serialpos": 1, "key_press": -1, "wordID": 936, "type": "PRES_VIS", "trial_index": 90}, "uniqueid": "MTK1358:3X65QVEQI1U17S5EA7E7PGEUGU9LCM", "dateTime": 1515810976584}, {"current_trial": 91, "trialdata": {"rt": -1, "trial_type": "single-stim", "word": "blouse", "stimulus": "<p id=\"stim\">BLOUSE</p>", "conditions": [12, 800, "v", 12000], "internal_node_id": "0.0-64.0", "trial": 2, "time_elapsed": 470455, "serialpos": 2, "key_press": -1, "wordID": 138, "type": "PRES_VIS", "trial_index": 91}, "uniqueid": "MTK1358:3X65QVEQI1U17S5EA7E7PGEUGU9LCM", "dateTime": 1515810978292}, {"current_trial": 92, "trialdata": {"rt": -1, "trial_type": "single-stim", "word": "widow", "stimulus": "<p id=\"stim\">WIDOW</p>", "conditions": [12, 800, "v", 12000], "internal_node_id": "0.0-65.0", "trial": 2, "time_elapsed": 472447, "serialpos": 3, "key_press": -1, "wordID": 1607, "type": "PRES_VIS", "trial_index": 92}, "uniqueid": "MTK1358:3X65QVEQI1U17S5EA7E7PGEUGU9LCM", "dateTime": 1515810980284}, {"current_trial": 93, "trialdata": {"rt": -1, "trial_type": "single-stim", "word": "dolphin", "stimulus": "<p id=\"stim\">DOLPHIN</p>", "conditions": [12, 800, "v", 12000], "internal_node_id": "0.0-66.0", "trial": 2, "time_elapsed": 474266, "serialpos": 4, "key_press": -1, "wordID": 482, "type": "PRES_VIS", "trial_index": 93}, "uniqueid": "MTK1358:3X65QVEQI1U17S5EA7E7PGEUGU9LCM", "dateTime": 1515810982103}, {"current_trial": 94, "trialdata": {"rt": -1, "trial_type": "single-stim", "word": "turtle", "stimulus": "<p id=\"stim\">TURTLE</p>", "conditions": [12, 800, "v", 12000], "internal_node_id": "0.0-67.0", "trial": 2, "time_elapsed": 475954, "serialpos": 5, "key_press": -1, "wordID": 1521, "type": "PRES_VIS", "trial_index": 94}, "uniqueid": "MTK1358:3X65QVEQI1U17S5EA7E7PGEUGU9LCM", "dateTime": 1515810983791}, {"current_trial": 95, "trialdata": {"rt": -1, "trial_type": "single-stim", "word": "table", "stimulus": "<p id=\"stim\">TABLE</p>", "conditions": [12, 800, "v", 12000], "internal_node_id": "0.0-68.0", "trial": 2, "time_elapsed": 477685, "serialpos": 6, "key_press": -1, "wordID": 1425, "type": "PRES_VIS", "trial_index": 95}, "uniqueid": "MTK1358:3X65QVEQI1U17S5EA7E7PGEUGU9LCM", "dateTime": 1515810985522}, {"current_trial": 96, "trialdata": {"rt": -1, "trial_type": "single-stim", "word": "shorts", "stimulus": "<p id=\"stim\">SHORTS</p>", "conditions": [12, 800, "v", 12000], "internal_node_id": "0.0-69.0", "trial": 2, "time_elapsed": 479353, "serialpos": 7, "key_press": -1, "wordID": 1292, "type": "PRES_VIS", "trial_index": 96}, "uniqueid": "MTK1358:3X65QVEQI1U17S5EA7E7PGEUGU9LCM", "dateTime": 1515810987190}, {"current_trial": 97, "trialdata": {"rt": -1, "trial_type": "single-stim", "word": "plate", "stimulus": "<p id=\"stim\">PLATE</p>", "conditions": [12, 800, "v", 12000], "internal_node_id": "0.0-70.0", "trial": 2, "time_elapsed": 481204, "serialpos": 8, "key_press": -1, "wordID": 1085, "type": "PRES_VIS", "trial_index": 97}, "uniqueid": "MTK1358:3X65QVEQI1U17S5EA7E7PGEUGU9LCM", "dateTime": 1515810989041}, {"current_trial": 98, "trialdata": {"rt": -1, "trial_type": "single-stim", "word": "cabbage", "stimulus": "<p id=\"stim\">CABBAGE</p>", "conditions": [12, 800, "v", 12000], "internal_node_id": "0.0-71.0", "trial": 2, "time_elapsed": 483053, "serialpos": 9, "key_press": -1, "wordID": 209, "type": "PRES_VIS", "trial_index": 98}, "uniqueid": "MTK1358:3X65QVEQI1U17S5EA7E7PGEUGU9LCM", "dateTime": 1515810990890}, {"current_trial": 99, "trialdata": {"rt": -1, "trial_type": "single-stim", "word": "europe", "stimulus": "<p id=\"stim\">EUROPE</p>", "conditions": [12, 800, "v", 12000], "internal_node_id": "0.0-72.0", "trial": 2, "time_elapsed": 485024, "serialpos": 10, "key_press": -1, "wordID": 540, "type": "PRES_VIS", "trial_index": 99}, "uniqueid": "MTK1358:3X65QVEQI1U17S5EA7E7PGEUGU9LCM", "dateTime": 1515810992861}, {"current_trial": 100, "trialdata": {"rt": -1, "trial_type": "single-stim", "word": "supper", "stimulus": "<p id=\"stim\">SUPPER</p>", "conditions": [12, 800, "v", 12000], "internal_node_id": "0.0-73.0", "trial": 2, "time_elapsed": 486797, "serialpos": 11, "key_press": -1, "wordID": 1410, "type": "PRES_VIS", "trial_index": 100}, "uniqueid": "MTK1358:3X65QVEQI1U17S5EA7E7PGEUGU9LCM", "dateTime": 1515810994634}, {"current_trial": 101, "trialdata": {"rt": -1, "trial_type": "single-stim", "stimulus": "", "internal_node_id": "0.0-74.0-0.0", "time_elapsed": 489227, "key_press": -1, "type": "PRE_RECALL_DELAY", "trial_index": 101}, "uniqueid": "MTK1358:3X65QVEQI1U17S5EA7E7PGEUGU9LCM", "dateTime": 1515810997064}, {"current_trial": 102, "trialdata": {"rt": -1000, "trial_type": "single-audio", "stimulus": "/static/audio/400Hz.wav", "internal_node_id": "0.0-75.0", "time_elapsed": 489727, "key_press": -1, "type": "PRE_RECALL_ALERT", "trial_index": 102}, "uniqueid": "MTK1358:3X65QVEQI1U17S5EA7E7PGEUGU9LCM", "dateTime": 1515810997564}, {"current_trial": 103, "trialdata": {"rt": [3152, 5344, 7616, 9640, 12344, 14232], "recwords": ["supper", "europe", "cabbage", "dolphin", "turtle", "asia"], "key_times": [1256, 1367, 1839, 1967, 2120, 2287, 3152, 3632, 3832, 4232, 4560, 4752, 4832, 5344, 5824, 5960, 6336, 6464, 6632, 6936, 7016, 7616, 8248, 8344, 8488, 8640, 8800, 8840, 8952, 9640, 11040, 11096, 11232, 11736, 11816, 11952, 12344, 13304, 13440, 13544, 13632, 14232], "trial_type": "free-recall", "conditions": [12, 800, "v", 12000], "internal_node_id": "0.0-76.0-0.0", "key_presses": [83, 85, 80, 80, 69, 82, 32, 69, 85, 82, 79, 80, 69, 32, 67, 65, 66, 66, 65, 71, 69, 32, 68, 79, 76, 80, 72, 73, 78, 32, 84, 85, 82, 84, 76, 69, 32, 65, 83, 73, 65, 32], "trial": 2, "time_elapsed": 549728, "type": "FREE_RECALL", "trial_index": 103}, "uniqueid": "MTK1358:3X65QVEQI1U17S5EA7E7PGEUGU9LCM", "dateTime": 1515811057567}, {"current_trial": 104, "trialdata": {"rt": 1190, "trial_type": "text", "internal_node_id": "0.0-77.0", "time_elapsed": 552921, "key_press": 32, "type": "INSTRUCTIONS", "trial_index": 104}, "uniqueid": "MTK1358:3X65QVEQI1U17S5EA7E7PGEUGU9LCM", "dateTime": 1515811060758}, {"current_trial": 105, "trialdata": {"rt": [3294, 6605, 9302, 11278, 15518, 21605], "trial_type": "math-distractor", "key_times": [2678, 2885, 3294, 6269, 6485, 6605, 9015, 9134, 9302, 10854, 11134, 11278, 13630, 14062, 14534, 14670, 14758, 14822, 15518, 21222, 21366, 21605], "responses": ["19", "14", "11", "16", "24", "15"], "num2": [2, 4, 3, 5, 7, 3, 8], "num3": [9, 8, 2, 6, 2, 8, 9], "conditions": [12, 800, "v", 24000], "internal_node_id": "0.0-78.0", "key_presses": [49, 57, 13, 49, 52, 13, 49, 49, 13, 49, 54, 13, 49, 52, 8, 8, 50, 52, 13, 49, 53, 13], "trial": 3, "time_elapsed": 578922, "type": "DISTRACTOR", "trial_index": 105, "num1": [8, 2, 6, 5, 5, 4, 5]}, "uniqueid": "MTK1358:3X65QVEQI1U17S5EA7E7PGEUGU9LCM", "dateTime": 1515811086759}, {"current_trial": 106, "trialdata": {"rt": -1, "trial_type": "single-stim", "stimulus": "<p id=\"stim\">10</p>", "internal_node_id": "0.0-79.0-0.0", "time_elapsed": 581924, "key_press": -1, "trial_index": 106}, "uniqueid": "MTK1358:3X65QVEQI1U17S5EA7E7PGEUGU9LCM", "dateTime": 1515811089761}, {"current_trial": 107, "trialdata": {"rt": -1, "trial_type": "single-stim", "stimulus": "<p id=\"stim\">9</p>", "internal_node_id": "0.0-79.0-1.0", "time_elapsed": 582925, "key_press": -1, "trial_index": 107}, "uniqueid": "MTK1358:3X65QVEQI1U17S5EA7E7PGEUGU9LCM", "dateTime": 1515811090762}, {"current_trial": 108, "trialdata": {"rt": -1, "trial_type": "single-stim", "stimulus": "<p id=\"stim\">8</p>", "internal_node_id": "0.0-79.0-2.0", "time_elapsed": 583925, "key_press": -1, "trial_index": 108}, "uniqueid": "MTK1358:3X65QVEQI1U17S5EA7E7PGEUGU9LCM", "dateTime": 1515811091762}, {"current_trial": 109, "trialdata": {"rt": -1, "trial_type": "single-stim", "stimulus": "<p id=\"stim\">7</p>", "internal_node_id": "0.0-79.0-3.0", "time_elapsed": 584926, "key_press": -1, "trial_index": 109}, "uniqueid": "MTK1358:3X65QVEQI1U17S5EA7E7PGEUGU9LCM", "dateTime": 1515811092763}, {"current_trial": 110, "trialdata": {"rt": -1, "trial_type": "single-stim", "stimulus": "<p id=\"stim\">6</p>", "internal_node_id": "0.0-79.0-4.0", "time_elapsed": 585926, "key_press": -1, "trial_index": 110}, "uniqueid": "MTK1358:3X65QVEQI1U17S5EA7E7PGEUGU9LCM", "dateTime": 1515811093763}, {"current_trial": 111, "trialdata": {"rt": -1, "trial_type": "single-stim", "stimulus": "<p id=\"stim\">5</p>", "internal_node_id": "0.0-79.0-5.0", "time_elapsed": 586926, "key_press": -1, "trial_index": 111}, "uniqueid": "MTK1358:3X65QVEQI1U17S5EA7E7PGEUGU9LCM", "dateTime": 1515811094763}, {"current_trial": 112, "trialdata": {"rt": -1, "trial_type": "single-stim", "stimulus": "<p id=\"stim\">4</p>", "internal_node_id": "0.0-79.0-6.0", "time_elapsed": 587926, "key_press": -1, "trial_index": 112}, "uniqueid": "MTK1358:3X65QVEQI1U17S5EA7E7PGEUGU9LCM", "dateTime": 1515811095763}, {"current_trial": 113, "trialdata": {"rt": -1, "trial_type": "single-stim", "stimulus": "<p id=\"stim\">3</p>", "internal_node_id": "0.0-79.0-7.0", "time_elapsed": 588927, "key_press": -1, "trial_index": 113}, "uniqueid": "MTK1358:3X65QVEQI1U17S5EA7E7PGEUGU9LCM", "dateTime": 1515811096764}, {"current_trial": 114, "trialdata": {"rt": -1, "trial_type": "single-stim", "stimulus": "<p id=\"stim\">2</p>", "internal_node_id": "0.0-79.0-8.0", "time_elapsed": 589927, "key_press": -1, "trial_index": 114}, "uniqueid": "MTK1358:3X65QVEQI1U17S5EA7E7PGEUGU9LCM", "dateTime": 1515811097764}, {"current_trial": 115, "trialdata": {"rt": -1, "trial_type": "single-stim", "stimulus": "<p id=\"stim\">1</p>", "internal_node_id": "0.0-79.0-9.0", "time_elapsed": 590927, "key_press": -1, "trial_index": 115}, "uniqueid": "MTK1358:3X65QVEQI1U17S5EA7E7PGEUGU9LCM", "dateTime": 1515811098764}, {"current_trial": 116, "trialdata": {"rt": -1, "trial_type": "single-stim", "stimulus": "<p id=\"stim\">+</p>", "internal_node_id": "0.0-80.0-0.0", "time_elapsed": 592427, "key_press": -1, "type": "FIXATION", "trial_index": 116}, "uniqueid": "MTK1358:3X65QVEQI1U17S5EA7E7PGEUGU9LCM", "dateTime": 1515811100264}, {"current_trial": 117, "trialdata": {"rt": -1, "trial_type": "single-stim", "word": "patrol", "stimulus": "<p id=\"stim\">PATROL</p>", "conditions": [12, 800, "v", 24000], "internal_node_id": "0.0-81.0", "trial": 3, "time_elapsed": 593228, "serialpos": 0, "key_press": -1, "wordID": 1026, "type": "PRES_VIS", "trial_index": 117}, "uniqueid": "MTK1358:3X65QVEQI1U17S5EA7E7PGEUGU9LCM", "dateTime": 1515811101065}, {"current_trial": 118, "trialdata": {"rt": -1, "trial_type": "single-stim", "word": "pigeon", "stimulus": "<p id=\"stim\">PIGEON</p>", "conditions": [12, 800, "v", 24000], "internal_node_id": "0.0-82.0", "trial": 3, "time_elapsed": 595191, "serialpos": 1, "key_press": -1, "wordID": 1064, "type": "PRES_VIS", "trial_index": 118}, "uniqueid": "MTK1358:3X65QVEQI1U17S5EA7E7PGEUGU9LCM", "dateTime": 1515811103028}, {"current_trial": 119, "trialdata": {"rt": -1, "trial_type": "single-stim", "word": "scalpel", "stimulus": "<p id=\"stim\">SCALPEL</p>", "conditions": [12, 800, "v", 24000], "internal_node_id": "0.0-83.0", "trial": 3, "time_elapsed": 596866, "serialpos": 2, "key_press": -1, "wordID": 1242, "type": "PRES_VIS", "trial_index": 119}, "uniqueid": "MTK1358:3X65QVEQI1U17S5EA7E7PGEUGU9LCM", "dateTime": 1515811104703}, {"current_trial": 120, "trialdata": {"rt": -1, "trial_type": "single-stim", "word": "costume", "stimulus": "<p id=\"stim\">COSTUME</p>", "conditions": [12, 800, "v", 24000], "internal_node_id": "0.0-84.0", "trial": 3, "time_elapsed": 598677, "serialpos": 3, "key_press": -1, "wordID": 382, "type": "PRES_VIS", "trial_index": 120}, "uniqueid": "MTK1358:3X65QVEQI1U17S5EA7E7PGEUGU9LCM", "dateTime": 1515811106514}, {"current_trial": 121, "trialdata": {"rt": -1, "trial_type": "single-stim", "word": "tuba", "stimulus": "<p id=\"stim\">TUBA</p>", "conditions": [12, 800, "v", 24000], "internal_node_id": "0.0-85.0", "trial": 3, "time_elapsed": 600516, "serialpos": 4, "key_press": -1, "wordID": 1514, "type": "PRES_VIS", "trial_index": 121}, "uniqueid": "MTK1358:3X65QVEQI1U17S5EA7E7PGEUGU9LCM", "dateTime": 1515811108353}, {"current_trial": 122, "trialdata": {"rt": -1, "trial_type": "single-stim", "word": "blackboard", "stimulus": "<p id=\"stim\">BLACKBOARD</p>", "conditions": [12, 800, "v", 24000], "internal_node_id": "0.0-86.0", "trial": 3, "time_elapsed": 602334, "serialpos": 5, "key_press": -1, "wordID": 132, "type": "PRES_VIS", "trial_index": 122}, "uniqueid": "MTK1358:3X65QVEQI1U17S5EA7E7PGEUGU9LCM", "dateTime": 1515811110171}, {"current_trial": 123, "trialdata": {"rt": -1, "trial_type": "single-stim", "word": "rabbit", "stimulus": "<p id=\"stim\">RABBIT</p>", "conditions": [12, 800, "v", 24000], "internal_node_id": "0.0-87.0", "trial": 3, "time_elapsed": 604305, "serialpos": 6, "key_press": -1, "wordID": 1151, "type": "PRES_VIS", "trial_index": 123}, "uniqueid": "MTK1358:3X65QVEQI1U17S5EA7E7PGEUGU9LCM", "dateTime": 1515811112142}, {"current_trial": 124, "trialdata": {"rt": -1, "trial_type": "single-stim", "word": "pistol", "stimulus": "<p id=\"stim\">PISTOL</p>", "conditions": [12, 800, "v", 24000], "internal_node_id": "0.0-88.0", "trial": 3, "time_elapsed": 606044, "serialpos": 7, "key_press": -1, "wordID": 1074, "type": "PRES_VIS", "trial_index": 124}, "uniqueid": "MTK1358:3X65QVEQI1U17S5EA7E7PGEUGU9LCM", "dateTime": 1515811113881}, {"current_trial": 125, "trialdata": {"rt": -1, "trial_type": "single-stim", "word": "knife", "stimulus": "<p id=\"stim\">KNIFE</p>", "conditions": [12, 800, "v", 24000], "internal_node_id": "0.0-89.0", "trial": 3, "time_elapsed": 608005, "serialpos": 8, "key_press": -1, "wordID": 784, "type": "PRES_VIS", "trial_index": 125}, "uniqueid": "MTK1358:3X65QVEQI1U17S5EA7E7PGEUGU9LCM", "dateTime": 1515811115842}, {"current_trial": 126, "trialdata": {"rt": -1, "trial_type": "single-stim", "word": "police", "stimulus": "<p id=\"stim\">POLICE</p>", "conditions": [12, 800, "v", 24000], "internal_node_id": "0.0-90.0", "trial": 3, "time_elapsed": 609657, "serialpos": 9, "key_press": -1, "wordID": 1097, "type": "PRES_VIS", "trial_index": 126}, "uniqueid": "MTK1358:3X65QVEQI1U17S5EA7E7PGEUGU9LCM", "dateTime": 1515811117494}, {"current_trial": 127, "trialdata": {"rt": -1, "trial_type": "single-stim", "word": "plaza", "stimulus": "<p id=\"stim\">PLAZA</p>", "conditions": [12, 800, "v", 24000], "internal_node_id": "0.0-91.0", "trial": 3, "time_elapsed": 611388, "serialpos": 10, "key_press": -1, "wordID": 1087, "type": "PRES_VIS", "trial_index": 127}, "uniqueid": "MTK1358:3X65QVEQI1U17S5EA7E7PGEUGU9LCM", "dateTime": 1515811119225}, {"current_trial": 128, "trialdata": {"rt": -1, "trial_type": "single-stim", "word": "spoon", "stimulus": "<p id=\"stim\">SPOON</p>", "conditions": [12, 800, "v", 24000], "internal_node_id": "0.0-92.0", "trial": 3, "time_elapsed": 613377, "serialpos": 11, "key_press": -1, "wordID": 1356, "type": "PRES_VIS", "trial_index": 128}, "uniqueid": "MTK1358:3X65QVEQI1U17S5EA7E7PGEUGU9LCM", "dateTime": 1515811121214}, {"current_trial": 129, "trialdata": {"rt": -1, "trial_type": "single-stim", "stimulus": "", "internal_node_id": "0.0-93.0-0.0", "time_elapsed": 615638, "key_press": -1, "type": "PRE_RECALL_DELAY", "trial_index": 129}, "uniqueid": "MTK1358:3X65QVEQI1U17S5EA7E7PGEUGU9LCM", "dateTime": 1515811123475}, {"current_trial": 130, "trialdata": {"rt": -1000, "trial_type": "single-audio", "stimulus": "/static/audio/400Hz.wav", "internal_node_id": "0.0-94.0", "time_elapsed": 616139, "key_press": -1, "type": "PRE_RECALL_ALERT", "trial_index": 130}, "uniqueid": "MTK1358:3X65QVEQI1U17S5EA7E7PGEUGU9LCM", "dateTime": 1515811123976}, {"current_trial": 131, "trialdata": {"rt": [1933, 3605, 5757, 10693, 18837, 22493, 49763, 56548], "recwords": ["spoon", "plaza", "police", "tuba", "blackboard", "spoon", "costume", "patrol"], "key_times": [1086, 1221, 1373, 1501, 1613, 1933, 2261, 2413, 2493, 2653, 2829, 3605, 4045, 4221, 4373, 4509, 4573, 4645, 5757, 9973, 10141, 10245, 10381, 10693, 16477, 16653, 16765, 16813, 16837, 17013, 17181, 17333, 17493, 17789, 17909, 18021, 18053, 18141, 18245, 18421, 18837, 21557, 21765, 21965, 22093, 22173, 22493, 48516, 48716, 48843, 49052, 49132, 49220, 49299, 49763, 55404, 55532, 55732, 55868, 55964, 56100, 56548], "trial_type": "free-recall", "conditions": [12, 800, "v", 24000], "internal_node_id": "0.0-95.0-0.0", "key_presses": [83, 80, 79, 79, 78, 32, 80, 76, 65, 90, 65, 32, 80, 79, 76, 73, 67, 69, 32, 84, 85, 66, 65, 32, 66, 76, 65, 67, 75, 66, 65, 82, 68, 8, 8, 8, 79, 65, 82, 68, 32, 83, 80, 79, 79, 78, 32, 67, 79, 83, 84, 85, 77, 69, 32, 80, 65, 84, 82, 79, 76, 32], "trial": 3, "time_elapsed": 676140, "type": "FREE_RECALL", "trial_index": 131}, "uniqueid": "MTK1358:3X65QVEQI1U17S5EA7E7PGEUGU9LCM", "dateTime": 1515811183979}, {"current_trial": 132, "trialdata": {"rt": 1770, "trial_type": "text", "internal_node_id": "0.0-96.0", "time_elapsed": 679912, "key_press": 32, "type": "INSTRUCTIONS", "trial_index": 132}, "uniqueid": "MTK1358:3X65QVEQI1U17S5EA7E7PGEUGU9LCM", "dateTime": 1515811187749}, {"current_trial": 133, "trialdata": {"rt": [2591, 5727, 8719], "trial_type": "math-distractor", "key_times": [2022, 2110, 2591, 5391, 5519, 5727, 7759, 8063, 8383, 8439, 8719], "responses": ["17", "13", "19"], "num2": [4, 6, 9, 7], "num3": [7, 5, 1, 4], "conditions": [12, 1600, "v", 12000], "internal_node_id": "0.0-97.0", "key_presses": [49, 55, 13, 49, 51, 13, 49, 56, 8, 57, 13], "trial": 4, "time_elapsed": 693913, "type": "DISTRACTOR", "trial_index": 133, "num1": [6, 2, 9, 5]}, "uniqueid": "MTK1358:3X65QVEQI1U17S5EA7E7PGEUGU9LCM", "dateTime": 1515811201750}, {"current_trial": 134, "trialdata": {"rt": -1, "trial_type": "single-stim", "stimulus": "<p id=\"stim\">10</p>", "internal_node_id": "0.0-98.0-0.0", "time_elapsed": 696915, "key_press": -1, "trial_index": 134}, "uniqueid": "MTK1358:3X65QVEQI1U17S5EA7E7PGEUGU9LCM", "dateTime": 1515811204752}, {"current_trial": 135, "trialdata": {"rt": -1, "trial_type": "single-stim", "stimulus": "<p id=\"stim\">9</p>", "internal_node_id": "0.0-98.0-1.0", "time_elapsed": 697915, "key_press": -1, "trial_index": 135}, "uniqueid": "MTK1358:3X65QVEQI1U17S5EA7E7PGEUGU9LCM", "dateTime": 1515811205752}, {"current_trial": 136, "trialdata": {"rt": -1, "trial_type": "single-stim", "stimulus": "<p id=\"stim\">8</p>", "internal_node_id": "0.0-98.0-2.0", "time_elapsed": 698915, "key_press": -1, "trial_index": 136}, "uniqueid": "MTK1358:3X65QVEQI1U17S5EA7E7PGEUGU9LCM", "dateTime": 1515811206752}, {"current_trial": 137, "trialdata": {"rt": -1, "trial_type": "single-stim", "stimulus": "<p id=\"stim\">7</p>", "internal_node_id": "0.0-98.0-3.0", "time_elapsed": 699915, "key_press": -1, "trial_index": 137}, "uniqueid": "MTK1358:3X65QVEQI1U17S5EA7E7PGEUGU9LCM", "dateTime": 1515811207752}, {"current_trial": 138, "trialdata": {"rt": -1, "trial_type": "single-stim", "stimulus": "<p id=\"stim\">6</p>", "internal_node_id": "0.0-98.0-4.0", "time_elapsed": 700915, "key_press": -1, "trial_index": 138}, "uniqueid": "MTK1358:3X65QVEQI1U17S5EA7E7PGEUGU9LCM", "dateTime": 1515811208752}, {"current_trial": 139, "trialdata": {"rt": -1, "trial_type": "single-stim", "stimulus": "<p id=\"stim\">5</p>", "internal_node_id": "0.0-98.0-5.0", "time_elapsed": 701915, "key_press": -1, "trial_index": 139}, "uniqueid": "MTK1358:3X65QVEQI1U17S5EA7E7PGEUGU9LCM", "dateTime": 1515811209752}, {"current_trial": 140, "trialdata": {"rt": -1, "trial_type": "single-stim", "stimulus": "<p id=\"stim\">4</p>", "internal_node_id": "0.0-98.0-6.0", "time_elapsed": 702915, "key_press": -1, "trial_index": 140}, "uniqueid": "MTK1358:3X65QVEQI1U17S5EA7E7PGEUGU9LCM", "dateTime": 1515811210752}, {"current_trial": 141, "trialdata": {"rt": -1, "trial_type": "single-stim", "stimulus": "<p id=\"stim\">3</p>", "internal_node_id": "0.0-98.0-7.0", "time_elapsed": 703915, "key_press": -1, "trial_index": 141}, "uniqueid": "MTK1358:3X65QVEQI1U17S5EA7E7PGEUGU9LCM", "dateTime": 1515811211752}, {"current_trial": 142, "trialdata": {"rt": -1, "trial_type": "single-stim", "stimulus": "<p id=\"stim\">2</p>", "internal_node_id": "0.0-98.0-8.0", "time_elapsed": 704916, "key_press": -1, "trial_index": 142}, "uniqueid": "MTK1358:3X65QVEQI1U17S5EA7E7PGEUGU9LCM", "dateTime": 1515811212753}, {"current_trial": 143, "trialdata": {"rt": -1, "trial_type": "single-stim", "stimulus": "<p id=\"stim\">1</p>", "internal_node_id": "0.0-98.0-9.0", "time_elapsed": 705916, "key_press": -1, "trial_index": 143}, "uniqueid": "MTK1358:3X65QVEQI1U17S5EA7E7PGEUGU9LCM", "dateTime": 1515811213753}, {"current_trial": 144, "trialdata": {"rt": -1, "trial_type": "single-stim", "stimulus": "<p id=\"stim\">+</p>", "internal_node_id": "0.0-99.0-0.0", "time_elapsed": 707417, "key_press": -1, "type": "FIXATION", "trial_index": 144}, "uniqueid": "MTK1358:3X65QVEQI1U17S5EA7E7PGEUGU9LCM", "dateTime": 1515811215254}, {"current_trial": 145, "trialdata": {"rt": -1, "trial_type": "single-stim", "word": "fleet", "stimulus": "<p id=\"stim\">FLEET</p>", "conditions": [12, 1600, "v", 12000], "internal_node_id": "0.0-100.0", "trial": 4, "time_elapsed": 709017, "serialpos": 0, "key_press": -1, "wordID": 577, "type": "PRES_VIS", "trial_index": 145}, "uniqueid": "MTK1358:3X65QVEQI1U17S5EA7E7PGEUGU9LCM", "dateTime": 1515811216854}, {"current_trial": 146, "trialdata": {"rt": -1, "trial_type": "single-stim", "word": "hound", "stimulus": "<p id=\"stim\">HOUND</p>", "conditions": [12, 1600, "v", 12000], "internal_node_id": "0.0-101.0", "trial": 4, "time_elapsed": 711540, "serialpos": 1, "key_press": -1, "wordID": 723, "type": "PRES_VIS", "trial_index": 146}, "uniqueid": "MTK1358:3X65QVEQI1U17S5EA7E7PGEUGU9LCM", "dateTime": 1515811219377}, {"current_trial": 147, "trialdata": {"rt": -1, "trial_type": "single-stim", "word": "couch", "stimulus": "<p id=\"stim\">COUCH</p>", "conditions": [12, 1600, "v", 12000], "internal_node_id": "0.0-102.0", "trial": 4, "time_elapsed": 714122, "serialpos": 2, "key_press": -1, "wordID": 385, "type": "PRES_VIS", "trial_index": 147}, "uniqueid": "MTK1358:3X65QVEQI1U17S5EA7E7PGEUGU9LCM", "dateTime": 1515811221959}, {"current_trial": 148, "trialdata": {"rt": -1, "trial_type": "single-stim", "word": "drug", "stimulus": "<p id=\"stim\">DRUG</p>", "conditions": [12, 1600, "v", 12000], "internal_node_id": "0.0-103.0", "trial": 4, "time_elapsed": 716601, "serialpos": 3, "key_press": -1, "wordID": 500, "type": "PRES_VIS", "trial_index": 148}, "uniqueid": "MTK1358:3X65QVEQI1U17S5EA7E7PGEUGU9LCM", "dateTime": 1515811224438}, {"current_trial": 149, "trialdata": {"rt": -1, "trial_type": "single-stim", "word": "twister", "stimulus": "<p id=\"stim\">TWISTER</p>", "conditions": [12, 1600, "v", 12000], "internal_node_id": "0.0-104.0", "trial": 4, "time_elapsed": 719204, "serialpos": 4, "key_press": -1, "wordID": 1529, "type": "PRES_VIS", "trial_index": 149}, "uniqueid": "MTK1358:3X65QVEQI1U17S5EA7E7PGEUGU9LCM", "dateTime": 1515811227041}, {"current_trial": 150, "trialdata": {"rt": -1, "trial_type": "single-stim", "word": "comet", "stimulus": "<p id=\"stim\">COMET</p>", "conditions": [12, 1600, "v", 12000], "internal_node_id": "0.0-105.0", "trial": 4, "time_elapsed": 721967, "serialpos": 5, "key_press": -1, "wordID": 352, "type": "PRES_VIS", "trial_index": 150}, "uniqueid": "MTK1358:3X65QVEQI1U17S5EA7E7PGEUGU9LCM", "dateTime": 1515811229804}, {"current_trial": 151, "trialdata": {"rt": -1, "trial_type": "single-stim", "word": "palace", "stimulus": "<p id=\"stim\">PALACE</p>", "conditions": [12, 1600, "v", 12000], "internal_node_id": "0.0-106.0", "trial": 4, "time_elapsed": 724582, "serialpos": 6, "key_press": -1, "wordID": 1005, "type": "PRES_VIS", "trial_index": 151}, "uniqueid": "MTK1358:3X65QVEQI1U17S5EA7E7PGEUGU9LCM", "dateTime": 1515811232419}, {"current_trial": 152, "trialdata": {"rt": -1, "trial_type": "single-stim", "word": "banjo", "stimulus": "<p id=\"stim\">BANJO</p>", "conditions": [12, 1600, "v", 12000], "internal_node_id": "0.0-107.0", "trial": 4, "time_elapsed": 727072, "serialpos": 7, "key_press": -1, "wordID": 81, "type": "PRES_VIS", "trial_index": 152}, "uniqueid": "MTK1358:3X65QVEQI1U17S5EA7E7PGEUGU9LCM", "dateTime": 1515811234909}, {"current_trial": 153, "trialdata": {"rt": -1, "trial_type": "single-stim", "word": "queen", "stimulus": "<p id=\"stim\">QUEEN</p>", "conditions": [12, 1600, "v", 12000], "internal_node_id": "0.0-108.0", "trial": 4, "time_elapsed": 729838, "serialpos": 8, "key_press": -1, "wordID": 1148, "type": "PRES_VIS", "trial_index": 153}, "uniqueid": "MTK1358:3X65QVEQI1U17S5EA7E7PGEUGU9LCM", "dateTime": 1515811237675}, {"current_trial": 154, "trialdata": {"rt": -1, "trial_type": "single-stim", "word": "princess", "stimulus": "<p id=\"stim\">PRINCESS</p>", "conditions": [12, 1600, "v", 12000], "internal_node_id": "0.0-109.0", "trial": 4, "time_elapsed": 732244, "serialpos": 9, "key_press": -1, "wordID": 1124, "type": "PRES_VIS", "trial_index": 154}, "uniqueid": "MTK1358:3X65QVEQI1U17S5EA7E7PGEUGU9LCM", "dateTime": 1515811240081}, {"current_trial": 155, "trialdata": {"rt": -1, "trial_type": "single-stim", "word": "airport", "stimulus": "<p id=\"stim\">AIRPORT</p>", "conditions": [12, 1600, "v", 12000], "internal_node_id": "0.0-110.0", "trial": 4, "time_elapsed": 734665, "serialpos": 10, "key_press": -1, "wordID": 12, "type": "PRES_VIS", "trial_index": 155}, "uniqueid": "MTK1358:3X65QVEQI1U17S5EA7E7PGEUGU9LCM", "dateTime": 1515811242502}, {"current_trial": 156, "trialdata": {"rt": -1, "trial_type": "single-stim", "word": "fiddle", "stimulus": "<p id=\"stim\">FIDDLE</p>", "conditions": [12, 1600, "v", 12000], "internal_node_id": "0.0-111.0", "trial": 4, "time_elapsed": 737419, "serialpos": 11, "key_press": -1, "wordID": 560, "type": "PRES_VIS", "trial_index": 156}, "uniqueid": "MTK1358:3X65QVEQI1U17S5EA7E7PGEUGU9LCM", "dateTime": 1515811245257}, {"current_trial": 157, "trialdata": {"rt": -1, "trial_type": "single-stim", "stimulus": "", "internal_node_id": "0.0-112.0-0.0", "time_elapsed": 739893, "key_press": -1, "type": "PRE_RECALL_DELAY", "trial_index": 157}, "uniqueid": "MTK1358:3X65QVEQI1U17S5EA7E7PGEUGU9LCM", "dateTime": 1515811247730}, {"current_trial": 158, "trialdata": {"rt": -1000, "trial_type": "single-audio", "stimulus": "/static/audio/400Hz.wav", "internal_node_id": "0.0-113.0", "time_elapsed": 740393, "key_press": -1, "type": "PRE_RECALL_ALERT", "trial_index": 158}, "uniqueid": "MTK1358:3X65QVEQI1U17S5EA7E7PGEUGU9LCM", "dateTime": 1515811248230}, {"current_trial": 159, "trialdata": {"rt": [1678, 3382, 4878, 11534, 14950, 22262], "recwords": ["banjo", "fiddle", "palace", "princess", "queen", "fleet"], "key_times": [678, 846, 894, 1070, 1150, 1678, 1998, 2334, 2422, 2574, 2662, 2734, 3382, 3678, 3806, 3910, 4014, 4142, 4182, 4878, 10406, 10502, 10622, 10678, 10774, 10822, 10973, 11102, 11534, 14062, 14230, 14357, 14494, 14574, 14950, 21334, 21542, 21622, 21750, 21950, 22262], "trial_type": "free-recall", "conditions": [12, 1600, "v", 12000], "internal_node_id": "0.0-114.0-0.0", "key_presses": [66, 65, 78, 74, 79, 32, 70, 73, 68, 68, 76, 69, 32, 80, 65, 76, 65, 67, 69, 32, 80, 82, 73, 78, 67, 69, 83, 83, 32, 81, 85, 69, 69, 78, 32, 70, 76, 69, 69, 84, 32], "trial": 4, "time_elapsed": 800395, "type": "FREE_RECALL", "trial_index": 159}, "uniqueid": "MTK1358:3X65QVEQI1U17S5EA7E7PGEUGU9LCM", "dateTime": 1515811308234}, {"current_trial": 160, "trialdata": {"rt": 1059, "trial_type": "text", "internal_node_id": "0.0-115.0", "time_elapsed": 803456, "key_press": 32, "type": "INSTRUCTIONS", "trial_index": 160}, "uniqueid": "MTK1358:3X65QVEQI1U17S5EA7E7PGEUGU9LCM", "dateTime": 1515811311293}, {"current_trial": 161, "trialdata": {"rt": [3711, 8119, 11407, 14687, 18366, 20751], "trial_type": "math-distractor", "key_times": [3351, 3407, 3711, 7799, 7903, 8119, 10895, 11087, 11407, 14343, 14463, 14687, 18030, 18143, 18366, 20359, 20447, 20751], "responses": ["19", "21", "15", "18", "17", "10"], "num2": [7, 9, 7, 6, 7, 1, 7], "num3": [4, 4, 7, 6, 2, 6, 6], "conditions": [24, 800, "v", 24000], "internal_node_id": "0.0-116.0", "key_presses": [49, 57, 13, 50, 49, 13, 49, 53, 13, 49, 56, 13, 49, 55, 13, 49, 48, 13], "trial": 5, "time_elapsed": 829458, "type": "DISTRACTOR", "trial_index": 161, "num1": [8, 8, 1, 6, 8, 3, 9]}, "uniqueid": "MTK1358:3X65QVEQI1U17S5EA7E7PGEUGU9LCM", "dateTime": 1515811337295}, {"current_trial": 162, "trialdata": {"rt": -1, "trial_type": "single-stim", "stimulus": "<p id=\"stim\">10</p>", "internal_node_id": "0.0-117.0-0.0", "time_elapsed": 832459, "key_press": -1, "trial_index": 162}, "uniqueid": "MTK1358:3X65QVEQI1U17S5EA7E7PGEUGU9LCM", "dateTime": 1515811340296}, {"current_trial": 163, "trialdata": {"rt": -1, "trial_type": "single-stim", "stimulus": "<p id=\"stim\">9</p>", "internal_node_id": "0.0-117.0-1.0", "time_elapsed": 833460, "key_press": -1, "trial_index": 163}, "uniqueid": "MTK1358:3X65QVEQI1U17S5EA7E7PGEUGU9LCM", "dateTime": 1515811341297}, {"current_trial": 164, "trialdata": {"rt": -1, "trial_type": "single-stim", "stimulus": "<p id=\"stim\">8</p>", "internal_node_id": "0.0-117.0-2.0", "time_elapsed": 834461, "key_press": -1, "trial_index": 164}, "uniqueid": "MTK1358:3X65QVEQI1U17S5EA7E7PGEUGU9LCM", "dateTime": 1515811342298}, {"current_trial": 165, "trialdata": {"rt": -1, "trial_type": "single-stim", "stimulus": "<p id=\"stim\">7</p>", "internal_node_id": "0.0-117.0-3.0", "time_elapsed": 835462, "key_press": -1, "trial_index": 165}, "uniqueid": "MTK1358:3X65QVEQI1U17S5EA7E7PGEUGU9LCM", "dateTime": 1515811343299}, {"current_trial": 166, "trialdata": {"rt": -1, "trial_type": "single-stim", "stimulus": "<p id=\"stim\">6</p>", "internal_node_id": "0.0-117.0-4.0", "time_elapsed": 836463, "key_press": -1, "trial_index": 166}, "uniqueid": "MTK1358:3X65QVEQI1U17S5EA7E7PGEUGU9LCM", "dateTime": 1515811344300}, {"current_trial": 167, "trialdata": {"rt": -1, "trial_type": "single-stim", "stimulus": "<p id=\"stim\">5</p>", "internal_node_id": "0.0-117.0-5.0", "time_elapsed": 837464, "key_press": -1, "trial_index": 167}, "uniqueid": "MTK1358:3X65QVEQI1U17S5EA7E7PGEUGU9LCM", "dateTime": 1515811345301}, {"current_trial": 168, "trialdata": {"rt": -1, "trial_type": "single-stim", "stimulus": "<p id=\"stim\">4</p>", "internal_node_id": "0.0-117.0-6.0", "time_elapsed": 838464, "key_press": -1, "trial_index": 168}, "uniqueid": "MTK1358:3X65QVEQI1U17S5EA7E7PGEUGU9LCM", "dateTime": 1515811346301}, {"current_trial": 169, "trialdata": {"rt": -1, "trial_type": "single-stim", "stimulus": "<p id=\"stim\">3</p>", "internal_node_id": "0.0-117.0-7.0", "time_elapsed": 839465, "key_press": -1, "trial_index": 169}, "uniqueid": "MTK1358:3X65QVEQI1U17S5EA7E7PGEUGU9LCM", "dateTime": 1515811347302}, {"current_trial": 170, "trialdata": {"rt": -1, "trial_type": "single-stim", "stimulus": "<p id=\"stim\">2</p>", "internal_node_id": "0.0-117.0-8.0", "time_elapsed": 840465, "key_press": -1, "trial_index": 170}, "uniqueid": "MTK1358:3X65QVEQI1U17S5EA7E7PGEUGU9LCM", "dateTime": 1515811348302}, {"current_trial": 171, "trialdata": {"rt": -1, "trial_type": "single-stim", "stimulus": "<p id=\"stim\">1</p>", "internal_node_id": "0.0-117.0-9.0", "time_elapsed": 841465, "key_press": -1, "trial_index": 171}, "uniqueid": "MTK1358:3X65QVEQI1U17S5EA7E7PGEUGU9LCM", "dateTime": 1515811349302}, {"current_trial": 172, "trialdata": {"rt": -1, "trial_type": "single-stim", "stimulus": "<p id=\"stim\">+</p>", "internal_node_id": "0.0-118.0-0.0", "time_elapsed": 842965, "key_press": -1, "type": "FIXATION", "trial_index": 172}, "uniqueid": "MTK1358:3X65QVEQI1U17S5EA7E7PGEUGU9LCM", "dateTime": 1515811350802}, {"current_trial": 173, "trialdata": {"rt": -1, "trial_type": "single-stim", "word": "husband", "stimulus": "<p id=\"stim\">HUSBAND</p>", "conditions": [24, 800, "v", 24000], "internal_node_id": "0.0-119.0", "trial": 5, "time_elapsed": 843765, "serialpos": 0, "key_press": -1, "wordID": 727, "type": "PRES_VIS", "trial_index": 173}, "uniqueid": "MTK1358:3X65QVEQI1U17S5EA7E7PGEUGU9LCM", "dateTime": 1515811351602}, {"current_trial": 174, "trialdata": {"rt": -1, "trial_type": "single-stim", "word": "wife", "stimulus": "<p id=\"stim\">WIFE</p>", "conditions": [24, 800, "v", 24000], "internal_node_id": "0.0-120.0", "trial": 5, "time_elapsed": 845599, "serialpos": 1, "key_press": -1, "wordID": 1608, "type": "PRES_VIS", "trial_index": 174}, "uniqueid": "MTK1358:3X65QVEQI1U17S5EA7E7PGEUGU9LCM", "dateTime": 1515811353436}, {"current_trial": 175, "trialdata": {"rt": -1, "trial_type": "single-stim", "word": "camel", "stimulus": "<p id=\"stim\">CAMEL</p>", "conditions": [24, 800, "v", 24000], "internal_node_id": "0.0-121.0", "trial": 5, "time_elapsed": 847294, "serialpos": 2, "key_press": -1, "wordID": 222, "type": "PRES_VIS", "trial_index": 175}, "uniqueid": "MTK1358:3X65QVEQI1U17S5EA7E7PGEUGU9LCM", "dateTime": 1515811355131}, {"current_trial": 176, "trialdata": {"rt": -1, "trial_type": "single-stim", "word": "cabin", "stimulus": "<p id=\"stim\">CABIN</p>", "conditions": [24, 800, "v", 24000], "internal_node_id": "0.0-122.0", "trial": 5, "time_elapsed": 849238, "serialpos": 3, "key_press": -1, "wordID": 210, "type": "PRES_VIS", "trial_index": 176}, "uniqueid": "MTK1358:3X65QVEQI1U17S5EA7E7PGEUGU9LCM", "dateTime": 1515811357075}, {"current_trial": 177, "trialdata": {"rt": -1, "trial_type": "single-stim", "word": "eagle", "stimulus": "<p id=\"stim\">EAGLE</p>", "conditions": [24, 800, "v", 24000], "internal_node_id": "0.0-123.0", "trial": 5, "time_elapsed": 851121, "serialpos": 4, "key_press": -1, "wordID": 511, "type": "PRES_VIS", "trial_index": 177}, "uniqueid": "MTK1358:3X65QVEQI1U17S5EA7E7PGEUGU9LCM", "dateTime": 1515811358958}, {"current_trial": 178, "trialdata": {"rt": -1, "trial_type": "single-stim", "word": "donkey", "stimulus": "<p id=\"stim\">DONKEY</p>", "conditions": [24, 800, "v", 24000], "internal_node_id": "0.0-124.0", "trial": 5, "time_elapsed": 853095, "serialpos": 5, "key_press": -1, "wordID": 483, "type": "PRES_VIS", "trial_index": 178}, "uniqueid": "MTK1358:3X65QVEQI1U17S5EA7E7PGEUGU9LCM", "dateTime": 1515811360932}, {"current_trial": 179, "trialdata": {"rt": -1, "trial_type": "single-stim", "word": "taxi", "stimulus": "<p id=\"stim\">TAXI</p>", "conditions": [24, 800, "v", 24000], "internal_node_id": "0.0-125.0", "trial": 5, "time_elapsed": 854759, "serialpos": 6, "key_press": -1, "wordID": 1437, "type": "PRES_VIS", "trial_index": 179}, "uniqueid": "MTK1358:3X65QVEQI1U17S5EA7E7PGEUGU9LCM", "dateTime": 1515811362596}, {"current_trial": 180, "trialdata": {"rt": -1, "trial_type": "single-stim", "word": "pizza", "stimulus": "<p id=\"stim\">PIZZA</p>", "conditions": [24, 800, "v", 24000], "internal_node_id": "0.0-126.0", "trial": 5, "time_elapsed": 856520, "serialpos": 7, "key_press": -1, "wordID": 1078, "type": "PRES_VIS", "trial_index": 180}, "uniqueid": "MTK1358:3X65QVEQI1U17S5EA7E7PGEUGU9LCM", "dateTime": 1515811364357}, {"current_trial": 181, "trialdata": {"rt": -1, "trial_type": "single-stim", "word": "monster", "stimulus": "<p id=\"stim\">MONSTER</p>", "conditions": [24, 800, "v", 24000], "internal_node_id": "0.0-127.0", "trial": 5, "time_elapsed": 858348, "serialpos": 8, "key_press": -1, "wordID": 911, "type": "PRES_VIS", "trial_index": 181}, "uniqueid": "MTK1358:3X65QVEQI1U17S5EA7E7PGEUGU9LCM", "dateTime": 1515811366185}, {"current_trial": 182, "trialdata": {"rt": -1, "trial_type": "single-stim", "word": "critic", "stimulus": "<p id=\"stim\">CRITIC</p>", "conditions": [24, 800, "v", 24000], "internal_node_id": "0.0-128.0", "trial": 5, "time_elapsed": 859968, "serialpos": 9, "key_press": -1, "wordID": 409, "type": "PRES_VIS", "trial_index": 182}, "uniqueid": "MTK1358:3X65QVEQI1U17S5EA7E7PGEUGU9LCM", "dateTime": 1515811367805}, {"current_trial": 183, "trialdata": {"rt": -1, "trial_type": "single-stim", "word": "cloud", "stimulus": "<p id=\"stim\">CLOUD</p>", "conditions": [24, 800, "v", 24000], "internal_node_id": "0.0-129.0", "trial": 5, "time_elapsed": 861686, "serialpos": 10, "key_press": -1, "wordID": 327, "type": "PRES_VIS", "trial_index": 183}, "uniqueid": "MTK1358:3X65QVEQI1U17S5EA7E7PGEUGU9LCM", "dateTime": 1515811369523}, {"current_trial": 184, "trialdata": {"rt": -1, "trial_type": "single-stim", "word": "rooster", "stimulus": "<p id=\"stim\">ROOSTER</p>", "conditions": [24, 800, "v", 24000], "internal_node_id": "0.0-130.0", "trial": 5, "time_elapsed": 863583, "serialpos": 11, "key_press": -1, "wordID": 1208, "type": "PRES_VIS", "trial_index": 184}, "uniqueid": "MTK1358:3X65QVEQI1U17S5EA7E7PGEUGU9LCM", "dateTime": 1515811371420}, {"current_trial": 185, "trialdata": {"rt": -1, "trial_type": "single-stim", "word": "whiskers", "stimulus": "<p id=\"stim\">WHISKERS</p>", "conditions": [24, 800, "v", 24000], "internal_node_id": "0.0-131.0", "trial": 5, "time_elapsed": 865216, "serialpos": 12, "key_press": -1, "wordID": 1604, "type": "PRES_VIS", "trial_index": 185}, "uniqueid": "MTK1358:3X65QVEQI1U17S5EA7E7PGEUGU9LCM", "dateTime": 1515811373053}, {"current_trial": 186, "trialdata": {"rt": -1, "trial_type": "single-stim", "word": "hornet", "stimulus": "<p id=\"stim\">HORNET</p>", "conditions": [24, 800, "v", 24000], "internal_node_id": "0.0-132.0", "trial": 5, "time_elapsed": 866850, "serialpos": 13, "key_press": -1, "wordID": 717, "type": "PRES_VIS", "trial_index": 186}, "uniqueid": "MTK1358:3X65QVEQI1U17S5EA7E7PGEUGU9LCM", "dateTime": 1515811374687}, {"current_trial": 187, "trialdata": {"rt": -1, "trial_type": "single-stim", "word": "dancer", "stimulus": "<p id=\"stim\">DANCER</p>", "conditions": [24, 800, "v", 24000], "internal_node_id": "0.0-133.0", "trial": 5, "time_elapsed": 868780, "serialpos": 14, "key_press": -1, "wordID": 436, "type": "PRES_VIS", "trial_index": 187}, "uniqueid": "MTK1358:3X65QVEQI1U17S5EA7E7PGEUGU9LCM", "dateTime": 1515811376617}, {"current_trial": 188, "trialdata": {"rt": -1, "trial_type": "single-stim", "word": "onion", "stimulus": "<p id=\"stim\">ONION</p>", "conditions": [24, 800, "v", 24000], "internal_node_id": "0.0-134.0", "trial": 5, "time_elapsed": 870493, "serialpos": 15, "key_press": -1, "wordID": 976, "type": "PRES_VIS", "trial_index": 188}, "uniqueid": "MTK1358:3X65QVEQI1U17S5EA7E7PGEUGU9LCM", "dateTime": 1515811378330}, {"current_trial": 189, "trialdata": {"rt": -1, "trial_type": "single-stim", "word": "dentist", "stimulus": "<p id=\"stim\">DENTIST</p>", "conditions": [24, 800, "v", 24000], "internal_node_id": "0.0-135.0", "trial": 5, "time_elapsed": 872283, "serialpos": 16, "key_press": -1, "wordID": 446, "type": "PRES_VIS", "trial_index": 189}, "uniqueid": "MTK1358:3X65QVEQI1U17S5EA7E7PGEUGU9LCM", "dateTime": 1515811380120}, {"current_trial": 190, "trialdata": {"rt": -1, "trial_type": "single-stim", "word": "flower", "stimulus": "<p id=\"stim\">FLOWER</p>", "conditions": [24, 800, "v", 24000], "internal_node_id": "0.0-136.0", "trial": 5, "time_elapsed": 874128, "serialpos": 17, "key_press": -1, "wordID": 583, "type": "PRES_VIS", "trial_index": 190}, "uniqueid": "MTK1358:3X65QVEQI1U17S5EA7E7PGEUGU9LCM", "dateTime": 1515811381966}, {"current_trial": 191, "trialdata": {"rt": -1, "trial_type": "single-stim", "word": "grape", "stimulus": "<p id=\"stim\">GRAPE</p>", "conditions": [24, 800, "v", 24000], "internal_node_id": "0.0-137.0", "trial": 5, "time_elapsed": 875752, "serialpos": 18, "key_press": -1, "wordID": 653, "type": "PRES_VIS", "trial_index": 191}, "uniqueid": "MTK1358:3X65QVEQI1U17S5EA7E7PGEUGU9LCM", "dateTime": 1515811383589}, {"current_trial": 192, "trialdata": {"rt": -1, "trial_type": "single-stim", "word": "honey", "stimulus": "<p id=\"stim\">HONEY</p>", "conditions": [24, 800, "v", 24000], "internal_node_id": "0.0-138.0", "trial": 5, "time_elapsed": 877671, "serialpos": 19, "key_press": -1, "wordID": 712, "type": "PRES_VIS", "trial_index": 192}, "uniqueid": "MTK1358:3X65QVEQI1U17S5EA7E7PGEUGU9LCM", "dateTime": 1515811385508}, {"current_trial": 193, "trialdata": {"rt": -1, "trial_type": "single-stim", "word": "wasp", "stimulus": "<p id=\"stim\">WASP</p>", "conditions": [24, 800, "v", 24000], "internal_node_id": "0.0-139.0", "trial": 5, "time_elapsed": 879611, "serialpos": 20, "key_press": -1, "wordID": 1592, "type": "PRES_VIS", "trial_index": 193}, "uniqueid": "MTK1358:3X65QVEQI1U17S5EA7E7PGEUGU9LCM", "dateTime": 1515811387448}, {"current_trial": 194, "trialdata": {"rt": -1, "trial_type": "single-stim", "word": "journal", "stimulus": "<p id=\"stim\">JOURNAL</p>", "conditions": [24, 800, "v", 24000], "internal_node_id": "0.0-140.0", "trial": 5, "time_elapsed": 881496, "serialpos": 21, "key_press": -1, "wordID": 759, "type": "PRES_VIS", "trial_index": 194}, "uniqueid": "MTK1358:3X65QVEQI1U17S5EA7E7PGEUGU9LCM", "dateTime": 1515811389333}, {"current_trial": 195, "trialdata": {"rt": -1, "trial_type": "single-stim", "word": "atlas", "stimulus": "<p id=\"stim\">ATLAS</p>", "conditions": [24, 800, "v", 24000], "internal_node_id": "0.0-141.0", "trial": 5, "time_elapsed": 883306, "serialpos": 22, "key_press": -1, "wordID": 52, "type": "PRES_VIS", "trial_index": 195}, "uniqueid": "MTK1358:3X65QVEQI1U17S5EA7E7PGEUGU9LCM", "dateTime": 1515811391143}, {"current_trial": 196, "trialdata": {"rt": -1, "trial_type": "single-stim", "word": "stamp", "stimulus": "<p id=\"stim\">STAMP</p>", "conditions": [24, 800, "v", 24000], "internal_node_id": "0.0-142.0", "trial": 5, "time_elapsed": 884952, "serialpos": 23, "key_press": -1, "wordID": 1369, "type": "PRES_VIS", "trial_index": 196}, "uniqueid": "MTK1358:3X65QVEQI1U17S5EA7E7PGEUGU9LCM", "dateTime": 1515811392789}, {"current_trial": 197, "trialdata": {"rt": -1, "trial_type": "single-stim", "stimulus": "", "internal_node_id": "0.0-143.0-0.0", "time_elapsed": 887189, "key_press": -1, "type": "PRE_RECALL_DELAY", "trial_index": 197}, "uniqueid": "MTK1358:3X65QVEQI1U17S5EA7E7PGEUGU9LCM", "dateTime": 1515811395026}, {"current_trial": 198, "trialdata": {"rt": -1000, "trial_type": "single-audio", "stimulus": "/static/audio/400Hz.wav", "internal_node_id": "0.0-144.0", "time_elapsed": 887689, "key_press": -1, "type": "PRE_RECALL_ALERT", "trial_index": 198}, "uniqueid": "MTK1358:3X65QVEQI1U17S5EA7E7PGEUGU9LCM", "dateTime": 1515811395526}, {"current_trial": 199, "trialdata": {"rt": [1526, 2774, 4861, 5693, 8318, 29734, 33814, 47966], "recwords": ["atlas", "stamp", "husband", "wife", "camel", "dancer", "taxi", "cloud"], "key_times": [661, 806, 942, 1038, 1118, 1526, 1766, 1950, 2102, 2134, 2222, 2774, 3142, 3262, 3366, 3518, 3670, 3726, 3782, 4861, 5142, 5230, 5317, 5373, 5693, 7254, 7366, 7430, 7606, 7710, 8318, 28103, 28206, 28302, 28374, 28438, 28590, 29734, 31798, 32118, 32510, 32558, 32702, 32798, 33046, 33550, 33814, 44911, 45414, 47102, 47182, 47334, 47510, 47614, 47966], "trial_type": "free-recall", "conditions": [24, 800, "v", 24000], "internal_node_id": "0.0-145.0-0.0", "key_presses": [65, 84, 76, 65, 83, 32, 83, 84, 65, 77, 80, 32, 72, 85, 83, 66, 65, 78, 68, 32, 87, 73, 70, 69, 32, 67, 65, 77, 69, 76, 32, 68, 65, 78, 67, 69, 82, 32, 84, 88, 8, 65, 88, 73, 8, 73, 32, 67, 8, 67, 76, 79, 85, 68, 32], "trial": 5, "time_elapsed": 947690, "type": "FREE_RECALL", "trial_index": 199}, "uniqueid": "MTK1358:3X65QVEQI1U17S5EA7E7PGEUGU9LCM", "dateTime": 1515811455530}, {"current_trial": 200, "trialdata": {"rt": 63603, "trial_type": "text", "internal_node_id": "0.0-146.0", "time_elapsed": 1013296, "key_press": 32, "type": "INSTRUCTIONS", "trial_index": 200}, "uniqueid": "MTK1358:3X65QVEQI1U17S5EA7E7PGEUGU9LCM", "dateTime": 1515811521133}, {"current_trial": 201, "trialdata": {"rt": [2999, 4551, 6863, 9735], "trial_type": "math-distractor", "key_times": [2431, 2583, 2999, 4263, 4343, 4551, 6607, 6695, 6863, 9087, 9175, 9735], "responses": ["16", "18", "20", "20"], "num2": [8, 5, 9, 9, 7], "num3": [1, 5, 2, 9, 2], "conditions": [24, 800, "v", 12000], "internal_node_id": "0.0-147.0", "key_presses": [49, 54, 13, 49, 56, 13, 50, 48, 13, 50, 48, 13], "trial": 6, "time_elapsed": 1027298, "type": "DISTRACTOR", "trial_index": 201, "num1": [7, 8, 9, 2, 9]}, "uniqueid": "MTK1358:3X65QVEQI1U17S5EA7E7PGEUGU9LCM", "dateTime": 1515811535135}, {"current_trial": 202, "trialdata": {"rt": -1, "trial_type": "single-stim", "stimulus": "<p id=\"stim\">10</p>", "internal_node_id": "0.0-148.0-0.0", "time_elapsed": 1030298, "key_press": -1, "trial_index": 202}, "uniqueid": "MTK1358:3X65QVEQI1U17S5EA7E7PGEUGU9LCM", "dateTime": 1515811538135}, {"current_trial": 203, "trialdata": {"rt": -1, "trial_type": "single-stim", "stimulus": "<p id=\"stim\">9</p>", "internal_node_id": "0.0-148.0-1.0", "time_elapsed": 1031298, "key_press": -1, "trial_index": 203}, "uniqueid": "MTK1358:3X65QVEQI1U17S5EA7E7PGEUGU9LCM", "dateTime": 1515811539135}, {"current_trial": 204, "trialdata": {"rt": -1, "trial_type": "single-stim", "stimulus": "<p id=\"stim\">8</p>", "internal_node_id": "0.0-148.0-2.0", "time_elapsed": 1032298, "key_press": -1, "trial_index": 204}, "uniqueid": "MTK1358:3X65QVEQI1U17S5EA7E7PGEUGU9LCM", "dateTime": 1515811540135}, {"current_trial": 205, "trialdata": {"rt": -1, "trial_type": "single-stim", "stimulus": "<p id=\"stim\">7</p>", "internal_node_id": "0.0-148.0-3.0", "time_elapsed": 1033298, "key_press": -1, "trial_index": 205}, "uniqueid": "MTK1358:3X65QVEQI1U17S5EA7E7PGEUGU9LCM", "dateTime": 1515811541135}, {"current_trial": 206, "trialdata": {"rt": -1, "trial_type": "single-stim", "stimulus": "<p id=\"stim\">6</p>", "internal_node_id": "0.0-148.0-4.0", "time_elapsed": 1034299, "key_press": -1, "trial_index": 206}, "uniqueid": "MTK1358:3X65QVEQI1U17S5EA7E7PGEUGU9LCM", "dateTime": 1515811542136}, {"current_trial": 207, "trialdata": {"rt": -1, "trial_type": "single-stim", "stimulus": "<p id=\"stim\">5</p>", "internal_node_id": "0.0-148.0-5.0", "time_elapsed": 1035299, "key_press": -1, "trial_index": 207}, "uniqueid": "MTK1358:3X65QVEQI1U17S5EA7E7PGEUGU9LCM", "dateTime": 1515811543136}, {"current_trial": 208, "trialdata": {"rt": -1, "trial_type": "single-stim", "stimulus": "<p id=\"stim\">4</p>", "internal_node_id": "0.0-148.0-6.0", "time_elapsed": 1036299, "key_press": -1, "trial_index": 208}, "uniqueid": "MTK1358:3X65QVEQI1U17S5EA7E7PGEUGU9LCM", "dateTime": 1515811544136}, {"current_trial": 209, "trialdata": {"rt": -1, "trial_type": "single-stim", "stimulus": "<p id=\"stim\">3</p>", "internal_node_id": "0.0-148.0-7.0", "time_elapsed": 1037299, "key_press": -1, "trial_index": 209}, "uniqueid": "MTK1358:3X65QVEQI1U17S5EA7E7PGEUGU9LCM", "dateTime": 1515811545136}, {"current_trial": 210, "trialdata": {"rt": -1, "trial_type": "single-stim", "stimulus": "<p id=\"stim\">2</p>", "internal_node_id": "0.0-148.0-8.0", "time_elapsed": 1038299, "key_press": -1, "trial_index": 210}, "uniqueid": "MTK1358:3X65QVEQI1U17S5EA7E7PGEUGU9LCM", "dateTime": 1515811546136}, {"current_trial": 211, "trialdata": {"rt": -1, "trial_type": "single-stim", "stimulus": "<p id=\"stim\">1</p>", "internal_node_id": "0.0-148.0-9.0", "time_elapsed": 1039299, "key_press": -1, "trial_index": 211}, "uniqueid": "MTK1358:3X65QVEQI1U17S5EA7E7PGEUGU9LCM", "dateTime": 1515811547137}, {"current_trial": 212, "trialdata": {"rt": -1, "trial_type": "single-stim", "stimulus": "<p id=\"stim\">+</p>", "internal_node_id": "0.0-149.0-0.0", "time_elapsed": 1040800, "key_press": -1, "type": "FIXATION", "trial_index": 212}, "uniqueid": "MTK1358:3X65QVEQI1U17S5EA7E7PGEUGU9LCM", "dateTime": 1515811548637}, {"current_trial": 213, "trialdata": {"rt": -1, "trial_type": "single-stim", "word": "island", "stimulus": "<p id=\"stim\">ISLAND</p>", "conditions": [24, 800, "v", 12000], "internal_node_id": "0.0-150.0", "trial": 6, "time_elapsed": 1041601, "serialpos": 0, "key_press": -1, "wordID": 744, "type": "PRES_VIS", "trial_index": 213}, "uniqueid": "MTK1358:3X65QVEQI1U17S5EA7E7PGEUGU9LCM", "dateTime": 1515811549438}, {"current_trial": 214, "trialdata": {"rt": -1, "trial_type": "single-stim", "word": "piano", "stimulus": "<p id=\"stim\">PIANO</p>", "conditions": [24, 800, "v", 12000], "internal_node_id": "0.0-151.0", "trial": 6, "time_elapsed": 1043242, "serialpos": 1, "key_press": -1, "wordID": 1056, "type": "PRES_VIS", "trial_index": 214}, "uniqueid": "MTK1358:3X65QVEQI1U17S5EA7E7PGEUGU9LCM", "dateTime": 1515811551079}, {"current_trial": 215, "trialdata": {"rt": -1, "trial_type": "single-stim", "word": "beaver", "stimulus": "<p id=\"stim\">BEAVER</p>", "conditions": [24, 800, "v", 12000], "internal_node_id": "0.0-152.0", "trial": 6, "time_elapsed": 1044974, "serialpos": 2, "key_press": -1, "wordID": 108, "type": "PRES_VIS", "trial_index": 215}, "uniqueid": "MTK1358:3X65QVEQI1U17S5EA7E7PGEUGU9LCM", "dateTime": 1515811552811}, {"current_trial": 216, "trialdata": {"rt": -1, "trial_type": "single-stim", "word": "sheriff", "stimulus": "<p id=\"stim\">SHERIFF</p>", "conditions": [24, 800, "v", 12000], "internal_node_id": "0.0-153.0", "trial": 6, "time_elapsed": 1046848, "serialpos": 3, "key_press": -1, "wordID": 1283, "type": "PRES_VIS", "trial_index": 216}, "uniqueid": "MTK1358:3X65QVEQI1U17S5EA7E7PGEUGU9LCM", "dateTime": 1515811554685}, {"current_trial": 217, "trialdata": {"rt": -1, "trial_type": "single-stim", "word": "brook", "stimulus": "<p id=\"stim\">BROOK</p>", "conditions": [24, 800, "v", 12000], "internal_node_id": "0.0-154.0", "trial": 6, "time_elapsed": 1048715, "serialpos": 4, "key_press": -1, "wordID": 176, "type": "PRES_VIS", "trial_index": 217}, "uniqueid": "MTK1358:3X65QVEQI1U17S5EA7E7PGEUGU9LCM", "dateTime": 1515811556552}, {"current_trial": 218, "trialdata": {"rt": -1, "trial_type": "single-stim", "word": "sphinx", "stimulus": "<p id=\"stim\">SPHINX</p>", "conditions": [24, 800, "v", 12000], "internal_node_id": "0.0-155.0", "trial": 6, "time_elapsed": 1050383, "serialpos": 5, "key_press": -1, "wordID": 1348, "type": "PRES_VIS", "trial_index": 218}, "uniqueid": "MTK1358:3X65QVEQI1U17S5EA7E7PGEUGU9LCM", "dateTime": 1515811558220}, {"current_trial": 219, "trialdata": {"rt": -1, "trial_type": "single-stim", "word": "pocket", "stimulus": "<p id=\"stim\">POCKET</p>", "conditions": [24, 800, "v", 12000], "internal_node_id": "0.0-156.0", "trial": 6, "time_elapsed": 1052102, "serialpos": 6, "key_press": -1, "wordID": 1092, "type": "PRES_VIS", "trial_index": 219}, "uniqueid": "MTK1358:3X65QVEQI1U17S5EA7E7PGEUGU9LCM", "dateTime": 1515811559939}, {"current_trial": 220, "trialdata": {"rt": -1, "trial_type": "single-stim", "word": "postage", "stimulus": "<p id=\"stim\">POSTAGE</p>", "conditions": [24, 800, "v", 12000], "internal_node_id": "0.0-157.0", "trial": 6, "time_elapsed": 1054071, "serialpos": 7, "key_press": -1, "wordID": 1112, "type": "PRES_VIS", "trial_index": 220}, "uniqueid": "MTK1358:3X65QVEQI1U17S5EA7E7PGEUGU9LCM", "dateTime": 1515811561908}, {"current_trial": 221, "trialdata": {"rt": -1, "trial_type": "single-stim", "word": "brick", "stimulus": "<p id=\"stim\">BRICK</p>", "conditions": [24, 800, "v", 12000], "internal_node_id": "0.0-158.0", "trial": 6, "time_elapsed": 1055729, "serialpos": 8, "key_press": -1, "wordID": 171, "type": "PRES_VIS", "trial_index": 221}, "uniqueid": "MTK1358:3X65QVEQI1U17S5EA7E7PGEUGU9LCM", "dateTime": 1515811563566}, {"current_trial": 222, "trialdata": {"rt": -1, "trial_type": "single-stim", "word": "stone", "stimulus": "<p id=\"stim\">STONE</p>", "conditions": [24, 800, "v", 12000], "internal_node_id": "0.0-159.0", "trial": 6, "time_elapsed": 1057522, "serialpos": 9, "key_press": -1, "wordID": 1384, "type": "PRES_VIS", "trial_index": 222}, "uniqueid": "MTK1358:3X65QVEQI1U17S5EA7E7PGEUGU9LCM", "dateTime": 1515811565359}, {"current_trial": 223, "trialdata": {"rt": -1, "trial_type": "single-stim", "word": "mister", "stimulus": "<p id=\"stim\">MISTER</p>", "conditions": [24, 800, "v", 12000], "internal_node_id": "0.0-160.0", "trial": 6, "time_elapsed": 1059413, "serialpos": 10, "key_press": -1, "wordID": 900, "type": "PRES_VIS", "trial_index": 223}, "uniqueid": "MTK1358:3X65QVEQI1U17S5EA7E7PGEUGU9LCM", "dateTime": 1515811567250}, {"current_trial": 224, "trialdata": {"rt": -1, "trial_type": "single-stim", "word": "county", "stimulus": "<p id=\"stim\">COUNTY</p>", "conditions": [24, 800, "v", 12000], "internal_node_id": "0.0-161.0", "trial": 6, "time_elapsed": 1061214, "serialpos": 11, "key_press": -1, "wordID": 388, "type": "PRES_VIS", "trial_index": 224}, "uniqueid": "MTK1358:3X65QVEQI1U17S5EA7E7PGEUGU9LCM", "dateTime": 1515811569051}, {"current_trial": 225, "trialdata": {"rt": -1, "trial_type": "single-stim", "word": "gymnast", "stimulus": "<p id=\"stim\">GYMNAST</p>", "conditions": [24, 800, "v", 12000], "internal_node_id": "0.0-162.0", "trial": 6, "time_elapsed": 1062955, "serialpos": 12, "key_press": -1, "wordID": 674, "type": "PRES_VIS", "trial_index": 225}, "uniqueid": "MTK1358:3X65QVEQI1U17S5EA7E7PGEUGU9LCM", "dateTime": 1515811570792}, {"current_trial": 226, "trialdata": {"rt": -1, "trial_type": "single-stim", "word": "picture", "stimulus": "<p id=\"stim\">PICTURE</p>", "conditions": [24, 800, "v", 12000], "internal_node_id": "0.0-163.0", "trial": 6, "time_elapsed": 1064899, "serialpos": 13, "key_press": -1, "wordID": 1060, "type": "PRES_VIS", "trial_index": 226}, "uniqueid": "MTK1358:3X65QVEQI1U17S5EA7E7PGEUGU9LCM", "dateTime": 1515811572736}, {"current_trial": 227, "trialdata": {"rt": -1, "trial_type": "single-stim", "word": "skillet", "stimulus": "<p id=\"stim\">SKILLET</p>", "conditions": [24, 800, "v", 12000], "internal_node_id": "0.0-164.0", "trial": 6, "time_elapsed": 1066650, "serialpos": 14, "key_press": -1, "wordID": 1316, "type": "PRES_VIS", "trial_index": 227}, "uniqueid": "MTK1358:3X65QVEQI1U17S5EA7E7PGEUGU9LCM", "dateTime": 1515811574487}, {"current_trial": 228, "trialdata": {"rt": -1, "trial_type": "single-stim", "word": "poet", "stimulus": "<p id=\"stim\">POET</p>", "conditions": [24, 800, "v", 12000], "internal_node_id": "0.0-165.0", "trial": 6, "time_elapsed": 1068330, "serialpos": 15, "key_press": -1, "wordID": 1094, "type": "PRES_VIS", "trial_index": 228}, "uniqueid": "MTK1358:3X65QVEQI1U17S5EA7E7PGEUGU9LCM", "dateTime": 1515811576167}, {"current_trial": 229, "trialdata": {"rt": -1, "trial_type": "single-stim", "word": "swimmer", "stimulus": "<p id=\"stim\">SWIMMER</p>", "conditions": [24, 800, "v", 12000], "internal_node_id": "0.0-166.0", "trial": 6, "time_elapsed": 1070253, "serialpos": 16, "key_press": -1, "wordID": 1419, "type": "PRES_VIS", "trial_index": 229}, "uniqueid": "MTK1358:3X65QVEQI1U17S5EA7E7PGEUGU9LCM", "dateTime": 1515811578090}, {"current_trial": 230, "trialdata": {"rt": -1, "trial_type": "single-stim", "word": "playground", "stimulus": "<p id=\"stim\">PLAYGROUND</p>", "conditions": [24, 800, "v", 12000], "internal_node_id": "0.0-167.0", "trial": 6, "time_elapsed": 1072184, "serialpos": 17, "key_press": -1, "wordID": 1086, "type": "PRES_VIS", "trial_index": 230}, "uniqueid": "MTK1358:3X65QVEQI1U17S5EA7E7PGEUGU9LCM", "dateTime": 1515811580021}, {"current_trial": 231, "trialdata": {"rt": -1, "trial_type": "single-stim", "word": "sculpture", "stimulus": "<p id=\"stim\">SCULPTURE</p>", "conditions": [24, 800, "v", 12000], "internal_node_id": "0.0-168.0", "trial": 6, "time_elapsed": 1073917, "serialpos": 18, "key_press": -1, "wordID": 1257, "type": "PRES_VIS", "trial_index": 231}, "uniqueid": "MTK1358:3X65QVEQI1U17S5EA7E7PGEUGU9LCM", "dateTime": 1515811581754}, {"current_trial": 232, "trialdata": {"rt": -1, "trial_type": "single-stim", "word": "statue", "stimulus": "<p id=\"stim\">STATUE</p>", "conditions": [24, 800, "v", 12000], "internal_node_id": "0.0-169.0", "trial": 6, "time_elapsed": 1075830, "serialpos": 19, "key_press": -1, "wordID": 1373, "type": "PRES_VIS", "trial_index": 232}, "uniqueid": "MTK1358:3X65QVEQI1U17S5EA7E7PGEUGU9LCM", "dateTime": 1515811583667}, {"current_trial": 233, "trialdata": {"rt": -1, "trial_type": "single-stim", "word": "woman", "stimulus": "<p id=\"stim\">WOMAN</p>", "conditions": [24, 800, "v", 12000], "internal_node_id": "0.0-170.0", "trial": 6, "time_elapsed": 1077576, "serialpos": 20, "key_press": -1, "wordID": 1619, "type": "PRES_VIS", "trial_index": 233}, "uniqueid": "MTK1358:3X65QVEQI1U17S5EA7E7PGEUGU9LCM", "dateTime": 1515811585413}, {"current_trial": 234, "trialdata": {"rt": -1, "trial_type": "single-stim", "word": "termite", "stimulus": "<p id=\"stim\">TERMITE</p>", "conditions": [24, 800, "v", 12000], "internal_node_id": "0.0-171.0", "trial": 6, "time_elapsed": 1079273, "serialpos": 21, "key_press": -1, "wordID": 1450, "type": "PRES_VIS", "trial_index": 234}, "uniqueid": "MTK1358:3X65QVEQI1U17S5EA7E7PGEUGU9LCM", "dateTime": 1515811587110}, {"current_trial": 235, "trialdata": {"rt": -1, "trial_type": "single-stim", "word": "goblin", "stimulus": "<p id=\"stim\">GOBLIN</p>", "conditions": [24, 800, "v", 12000], "internal_node_id": "0.0-172.0", "trial": 6, "time_elapsed": 1081132, "serialpos": 22, "key_press": -1, "wordID": 644, "type": "PRES_VIS", "trial_index": 235}, "uniqueid": "MTK1358:3X65QVEQI1U17S5EA7E7PGEUGU9LCM", "dateTime": 1515811588969}, {"current_trial": 236, "trialdata": {"rt": -1, "trial_type": "single-stim", "word": "typist", "stimulus": "<p id=\"stim\">TYPIST</p>", "conditions": [24, 800, "v", 12000], "internal_node_id": "0.0-173.0", "trial": 6, "time_elapsed": 1083032, "serialpos": 23, "key_press": -1, "wordID": 1531, "type": "PRES_VIS", "trial_index": 236}, "uniqueid": "MTK1358:3X65QVEQI1U17S5EA7E7PGEUGU9LCM", "dateTime": 1515811590869}, {"current_trial": 237, "trialdata": {"rt": -1, "trial_type": "single-stim", "stimulus": "", "internal_node_id": "0.0-174.0-0.0", "time_elapsed": 1085580, "key_press": -1, "type": "PRE_RECALL_DELAY", "trial_index": 237}, "uniqueid": "MTK1358:3X65QVEQI1U17S5EA7E7PGEUGU9LCM", "dateTime": 1515811593417}, {"current_trial": 238, "trialdata": {"rt": -1000, "trial_type": "single-audio", "stimulus": "/static/audio/400Hz.wav", "internal_node_id": "0.0-175.0", "time_elapsed": 1086080, "key_press": -1, "type": "PRE_RECALL_ALERT", "trial_index": 238}, "uniqueid": "MTK1358:3X65QVEQI1U17S5EA7E7PGEUGU9LCM", "dateTime": 1515811593917}, {"current_trial": 239, "trialdata": {"rt": [1462, 2710, 3694, 5110, 6878, 8830, 20366, 22046, 44574, 52127], "recwords": ["typist", "piano", "woman", "termite", "goblin", "sphinx", "playground", "country", "creature", "minster"], "key_times": [382, 446, 670, 838, 903, 1102, 1462, 1678, 1846, 1911, 2014, 2086, 2710, 2918, 2999, 3030, 3118, 3174, 3694, 3902, 4062, 4182, 4270, 4350, 4478, 4646, 5110, 5326, 5414, 5510, 5590, 5726, 5790, 6278, 6662, 6878, 7214, 7358, 7790, 7870, 7958, 8054, 8830, 9038, 9230, 9558, 9702, 9854, 18783, 18942, 19078, 19190, 19302, 19399, 19462, 19622, 19670, 19742, 20366, 20998, 21238, 21422, 21486, 21542, 21678, 21742, 22046, 43118, 43310, 43470, 43494, 43654, 43742, 43838, 43982, 44574, 50039, 50183, 50263, 50335, 50559, 50719, 50847, 52127], "trial_type": "free-recall", "conditions": [24, 800, "v", 12000], "internal_node_id": "0.0-176.0-0.0", "key_presses": [84, 89, 80, 73, 83, 84, 32, 80, 73, 65, 78, 79, 32, 87, 79, 77, 65, 78, 32, 84, 69, 82, 77, 73, 84, 69, 13, 71, 79, 66, 76, 73, 78, 65, 8, 32, 83, 80, 72, 73, 78, 88, 32, 80, 73, 8, 8, 8, 80, 76, 65, 89, 71, 82, 79, 85, 78, 68, 32, 67, 79, 85, 78, 84, 82, 89, 32, 67, 82, 69, 65, 84, 85, 82, 69, 32, 77, 73, 78, 83, 84, 69, 82, 32], "trial": 6, "time_elapsed": 1146084, "type": "FREE_RECALL", "trial_index": 239}, "uniqueid": "MTK1358:3X65QVEQI1U17S5EA7E7PGEUGU9LCM", "dateTime": 1515811653924}, {"current_trial": 240, "trialdata": {"rt": 10098, "trial_type": "text", "internal_node_id": "0.0-177.0", "time_elapsed": 1158186, "key_press": 32, "type": "INSTRUCTIONS", "trial_index": 240}, "uniqueid": "MTK1358:3X65QVEQI1U17S5EA7E7PGEUGU9LCM", "dateTime": 1515811666023}, {"current_trial": 241, "trialdata": {"rt": [2125, 9949, 12604, 14805, 16629, 20757], "trial_type": "math-distractor", "key_times": [1757, 1853, 2125, 4013, 4109, 5941, 6845, 8837, 9045, 9949, 12021, 12349, 12604, 14565, 14805, 15853, 16206, 16629, 19365, 20005, 20013, 20109, 20381, 20485, 20533, 20757], "responses": ["19", "19", "16", "7", "15", "8"], "num2": [6, 8, 8, 1, 5, 2, 8], "num3": [9, 4, 7, 4, 5, 5, 9], "conditions": [24, 1600, "v", 24000], "internal_node_id": "0.0-178.0", "key_presses": [49, 57, 13, 49, 50, 8, 8, 49, 57, 13, 49, 54, 13, 55, 13, 49, 53, 13, 55, 187, 8, 56, 8, 8, 56, 13], "trial": 7, "time_elapsed": 1184188, "type": "DISTRACTOR", "trial_index": 241, "num1": [4, 7, 1, 2, 5, 1, 3]}, "uniqueid": "MTK1358:3X65QVEQI1U17S5EA7E7PGEUGU9LCM", "dateTime": 1515811692025}, {"current_trial": 242, "trialdata": {"rt": -1, "trial_type": "single-stim", "stimulus": "<p id=\"stim\">10</p>", "internal_node_id": "0.0-179.0-0.0", "time_elapsed": 1187188, "key_press": -1, "trial_index": 242}, "uniqueid": "MTK1358:3X65QVEQI1U17S5EA7E7PGEUGU9LCM", "dateTime": 1515811695025}, {"current_trial": 243, "trialdata": {"rt": -1, "trial_type": "single-stim", "stimulus": "<p id=\"stim\">9</p>", "internal_node_id": "0.0-179.0-1.0", "time_elapsed": 1188188, "key_press": -1, "trial_index": 243}, "uniqueid": "MTK1358:3X65QVEQI1U17S5EA7E7PGEUGU9LCM", "dateTime": 1515811696025}, {"current_trial": 244, "trialdata": {"rt": -1, "trial_type": "single-stim", "stimulus": "<p id=\"stim\">8</p>", "internal_node_id": "0.0-179.0-2.0", "time_elapsed": 1189188, "key_press": -1, "trial_index": 244}, "uniqueid": "MTK1358:3X65QVEQI1U17S5EA7E7PGEUGU9LCM", "dateTime": 1515811697025}, {"current_trial": 245, "trialdata": {"rt": -1, "trial_type": "single-stim", "stimulus": "<p id=\"stim\">7</p>", "internal_node_id": "0.0-179.0-3.0", "time_elapsed": 1190188, "key_press": -1, "trial_index": 245}, "uniqueid": "MTK1358:3X65QVEQI1U17S5EA7E7PGEUGU9LCM", "dateTime": 1515811698025}, {"current_trial": 246, "trialdata": {"rt": -1, "trial_type": "single-stim", "stimulus": "<p id=\"stim\">6</p>", "internal_node_id": "0.0-179.0-4.0", "time_elapsed": 1191188, "key_press": -1, "trial_index": 246}, "uniqueid": "MTK1358:3X65QVEQI1U17S5EA7E7PGEUGU9LCM", "dateTime": 1515811699025}, {"current_trial": 247, "trialdata": {"rt": -1, "trial_type": "single-stim", "stimulus": "<p id=\"stim\">5</p>", "internal_node_id": "0.0-179.0-5.0", "time_elapsed": 1192188, "key_press": -1, "trial_index": 247}, "uniqueid": "MTK1358:3X65QVEQI1U17S5EA7E7PGEUGU9LCM", "dateTime": 1515811700025}, {"current_trial": 248, "trialdata": {"rt": -1, "trial_type": "single-stim", "stimulus": "<p id=\"stim\">4</p>", "internal_node_id": "0.0-179.0-6.0", "time_elapsed": 1193188, "key_press": -1, "trial_index": 248}, "uniqueid": "MTK1358:3X65QVEQI1U17S5EA7E7PGEUGU9LCM", "dateTime": 1515811701025}, {"current_trial": 249, "trialdata": {"rt": -1, "trial_type": "single-stim", "stimulus": "<p id=\"stim\">3</p>", "internal_node_id": "0.0-179.0-7.0", "time_elapsed": 1194189, "key_press": -1, "trial_index": 249}, "uniqueid": "MTK1358:3X65QVEQI1U17S5EA7E7PGEUGU9LCM", "dateTime": 1515811702026}, {"current_trial": 250, "trialdata": {"rt": -1, "trial_type": "single-stim", "stimulus": "<p id=\"stim\">2</p>", "internal_node_id": "0.0-179.0-8.0", "time_elapsed": 1195188, "key_press": -1, "trial_index": 250}, "uniqueid": "MTK1358:3X65QVEQI1U17S5EA7E7PGEUGU9LCM", "dateTime": 1515811703025}, {"current_trial": 251, "trialdata": {"rt": -1, "trial_type": "single-stim", "stimulus": "<p id=\"stim\">1</p>", "internal_node_id": "0.0-179.0-9.0", "time_elapsed": 1196188, "key_press": -1, "trial_index": 251}, "uniqueid": "MTK1358:3X65QVEQI1U17S5EA7E7PGEUGU9LCM", "dateTime": 1515811704025}, {"current_trial": 252, "trialdata": {"rt": -1, "trial_type": "single-stim", "stimulus": "<p id=\"stim\">+</p>", "internal_node_id": "0.0-180.0-0.0", "time_elapsed": 1197688, "key_press": -1, "type": "FIXATION", "trial_index": 252}, "uniqueid": "MTK1358:3X65QVEQI1U17S5EA7E7PGEUGU9LCM", "dateTime": 1515811705525}, {"current_trial": 253, "trialdata": {"rt": -1, "trial_type": "single-stim", "word": "message", "stimulus": "<p id=\"stim\">MESSAGE</p>", "conditions": [24, 1600, "v", 24000], "internal_node_id": "0.0-181.0", "trial": 7, "time_elapsed": 1199288, "serialpos": 0, "key_press": -1, "wordID": 887, "type": "PRES_VIS", "trial_index": 253}, "uniqueid": "MTK1358:3X65QVEQI1U17S5EA7E7PGEUGU9LCM", "dateTime": 1515811707125}, {"current_trial": 254, "trialdata": {"rt": -1, "trial_type": "single-stim", "word": "luggage", "stimulus": "<p id=\"stim\">LUGGAGE</p>", "conditions": [24, 1600, 