{"assignmentId": "345LHZDEDYZGDIWPQSV7N06JNJ1U3P", "workerId": "MTK1562", "questiondata": {"origin": "United States", "strat-rehearsal": "96", "marital": "Single", "education": "Associate degree", "ethnicity": "Not Hispanic", "color_depth": 24, "distracted": "No", "wrote-notes": "No", "strat-other": "i grouped them into things i know like music and food ect", "screen_width": 1280, "avail_screen_width": 1280, "avail_screen_height": 760, "strat-image": "93", "language": "english", "gender": "Female", "age": "45", "gender_other": "", "race": ["Black"], "strat-categorize": "96", "pixel_depth": 24, "strat-spatial": "0", "strat-story": "2", "race_other": "", "screen_height": 800}, "bonus": 0, "hitId": "39HYCOOPKOSTVIVJKD5VKFFHK4XMDT", "counterbalance": 2434, "useragent": "Mozilla/5.0 (Windows NT 10.0; Win64; x64) AppleWebKit/537.36 (KHTML, like Gecko) Chrome/63.0.3239.84 Safari/537.36", "eventdata": [{"eventtype": "initialized", "interval": 0, "value": null, "timestamp": 1515970065843}, {"eventtype": "window_resize", "interval": 0, "value": [1280, 753], "timestamp": 1515970065843}], "data": [{"current_trial": 0, "trialdata": {"rt": 2854, "trial_type": "text", "internal_node_id": "0.0-0.0", "time_elapsed": 2859, "key_press": 32, "type": "INSTRUCTIONS", "trial_index": 0}, "uniqueid": "MTK1562:345LHZDEDYZGDIWPQSV7N06JNJ1U3P", "dateTime": 1515970069443}, {"current_trial": 1, "trialdata": {"rt": 79484, "trial_type": "text", "internal_node_id": "0.0-1.0", "time_elapsed": 82346, "key_press": 32, "type": "INSTRUCTIONS", "trial_index": 1}, "uniqueid": "MTK1562:345LHZDEDYZGDIWPQSV7N06JNJ1U3P", "dateTime": 1515970148929}, {"current_trial": 2, "trialdata": {"rt": [18257], "trial_type": "audio-test", "responses": ["ocean"], "internal_node_id": "0.0-2.0", "time_elapsed": 100624, "type": "AUDIO_TEST", "trial_index": 2}, "uniqueid": "MTK1562:345LHZDEDYZGDIWPQSV7N06JNJ1U3P", "dateTime": 1515970167207}, {"current_trial": 3, "trialdata": {"rt": [20477], "trial_type": "audio-test", "responses": ["crystal"], "internal_node_id": "0.0-3.0", "time_elapsed": 121104, "type": "AUDIO_TEST", "trial_index": 3}, "uniqueid": "MTK1562:345LHZDEDYZGDIWPQSV7N06JNJ1U3P", "dateTime": 1515970187687}, {"current_trial": 4, "trialdata": {"rt": [56676], "trial_type": "audio-test", "responses": ["spice"], "internal_node_id": "0.0-4.0", "time_elapsed": 177783, "type": "AUDIO_TEST", "trial_index": 4}, "uniqueid": "MTK1562:345LHZDEDYZGDIWPQSV7N06JNJ1U3P", "dateTime": 1515970244366}, {"current_trial": 5, "trialdata": {"rt": 12814, "trial_type": "survey-text", "responses": "{\"Q0\":\"10\",\"Q1\":\"7\",\"Q2\":\"5\"}", "internal_node_id": "0.0-5.0", "time_elapsed": 191351, "type": "SLEEP_SURVEY", "trial_index": 5}, "uniqueid": "MTK1562:345LHZDEDYZGDIWPQSV7N06JNJ1U3P", "dateTime": 1515970257934}, {"current_trial": 6, "trialdata": {"rt": 307673, "trial_type": "text", "internal_node_id": "0.0-6.0", "time_elapsed": 500027, "key_press": 32, "type": "INSTRUCTIONS", "trial_index": 6}, "uniqueid": "MTK1562:345LHZDEDYZGDIWPQSV7N06JNJ1U3P", "dateTime": 1515970566610}, {"current_trial": 7, "trialdata": {"rt": 31581, "trial_type": "text", "internal_node_id": "0.0-7.0", "time_elapsed": 532111, "key_press": 32, "type": "INSTRUCTIONS", "trial_index": 7}, "uniqueid": "MTK1562:345LHZDEDYZGDIWPQSV7N06JNJ1U3P", "dateTime": 1515970598694}, {"current_trial": 8, "trialdata": {"rt": 1682, "trial_type": "text", "internal_node_id": "0.0-8.0", "time_elapsed": 534295, "key_press": 32, "type": "INSTRUCTIONS", "trial_index": 8}, "uniqueid": "MTK1562:345LHZDEDYZGDIWPQSV7N06JNJ1U3P", "dateTime": 1515970600878}, {"current_trial": 9, "trialdata": {"rt": [3715, 5962, 9674, 13722, 16042], "trial_type": "math-distractor", "key_times": [2267, 3715, 5443, 5699, 5962, 9347, 9467, 9674, 13187, 13458, 13722, 15659, 15762, 16042], "responses": ["6", "17", "20", "27", "16"], "num2": [1, 3, 5, 9, 2, 3], "num3": [3, 7, 9, 9, 6, 2], "conditions": [18, 1200, "v", 18000], "internal_node_id": "0.0-9.0", "key_presses": [102, 13, 97, 103, 13, 98, 96, 13, 98, 103, 13, 97, 102, 13], "trial": 0, "time_elapsed": 553318, "type": "DISTRACTOR", "trial_index": 9, "num1": [2, 4, 6, 8, 8, 5]}, "uniqueid": "MTK1562:345LHZDEDYZGDIWPQSV7N06JNJ1U3P", "dateTime": 1515970619901}, {"current_trial": 10, "trialdata": {"rt": -1, "trial_type": "single-stim", "stimulus": "<p id=\"stim\">10</p>", "internal_node_id": "0.0-10.0-0.0", "time_elapsed": 556322, "key_press": -1, "trial_index": 10}, "uniqueid": "MTK1562:345LHZDEDYZGDIWPQSV7N06JNJ1U3P", "dateTime": 1515970622905}, {"current_trial": 11, "trialdata": {"rt": -1, "trial_type": "single-stim", "stimulus": "<p id=\"stim\">9</p>", "internal_node_id": "0.0-10.0-1.0", "time_elapsed": 557324, "key_press": -1, "trial_index": 11}, "uniqueid": "MTK1562:345LHZDEDYZGDIWPQSV7N06JNJ1U3P", "dateTime": 1515970623907}, {"current_trial": 12, "trialdata": {"rt": -1, "trial_type": "single-stim", "stimulus": "<p id=\"stim\">8</p>", "internal_node_id": "0.0-10.0-2.0", "time_elapsed": 558325, "key_press": -1, "trial_index": 12}, "uniqueid": "MTK1562:345LHZDEDYZGDIWPQSV7N06JNJ1U3P", "dateTime": 1515970624909}, {"current_trial": 13, "trialdata": {"rt": -1, "trial_type": "single-stim", "stimulus": "<p id=\"stim\">7</p>", "internal_node_id": "0.0-10.0-3.0", "time_elapsed": 559327, "key_press": -1, "trial_index": 13}, "uniqueid": "MTK1562:345LHZDEDYZGDIWPQSV7N06JNJ1U3P", "dateTime": 1515970625910}, {"current_trial": 14, "trialdata": {"rt": -1, "trial_type": "single-stim", "stimulus": "<p id=\"stim\">6</p>", "internal_node_id": "0.0-10.0-4.0", "time_elapsed": 560329, "key_press": -1, "trial_index": 14}, "uniqueid": "MTK1562:345LHZDEDYZGDIWPQSV7N06JNJ1U3P", "dateTime": 1515970626912}, {"current_trial": 15, "trialdata": {"rt": -1, "trial_type": "single-stim", "stimulus": "<p id=\"stim\">5</p>", "internal_node_id": "0.0-10.0-5.0", "time_elapsed": 561331, "key_press": -1, "trial_index": 15}, "uniqueid": "MTK1562:345LHZDEDYZGDIWPQSV7N06JNJ1U3P", "dateTime": 1515970627914}, {"current_trial": 16, "trialdata": {"rt": -1, "trial_type": "single-stim", "stimulus": "<p id=\"stim\">4</p>", "internal_node_id": "0.0-10.0-6.0", "time_elapsed": 562333, "key_press": -1, "trial_index": 16}, "uniqueid": "MTK1562:345LHZDEDYZGDIWPQSV7N06JNJ1U3P", "dateTime": 1515970628916}, {"current_trial": 17, "trialdata": {"rt": -1, "trial_type": "single-stim", "stimulus": "<p id=\"stim\">3</p>", "internal_node_id": "0.0-10.0-7.0", "time_elapsed": 563335, "key_press": -1, "trial_index": 17}, "uniqueid": "MTK1562:345LHZDEDYZGDIWPQSV7N06JNJ1U3P", "dateTime": 1515970629918}, {"current_trial": 18, "trialdata": {"rt": -1, "trial_type": "single-stim", "stimulus": "<p id=\"stim\">2</p>", "internal_node_id": "0.0-10.0-8.0", "time_elapsed": 564336, "key_press": -1, "trial_index": 18}, "uniqueid": "MTK1562:345LHZDEDYZGDIWPQSV7N06JNJ1U3P", "dateTime": 1515970630919}, {"current_trial": 19, "trialdata": {"rt": -1, "trial_type": "single-stim", "stimulus": "<p id=\"stim\">1</p>", "internal_node_id": "0.0-10.0-9.0", "time_elapsed": 565338, "key_press": -1, "trial_index": 19}, "uniqueid": "MTK1562:345LHZDEDYZGDIWPQSV7N06JNJ1U3P", "dateTime": 1515970631921}, {"current_trial": 20, "trialdata": {"rt": -1, "trial_type": "single-stim", "stimulus": "<p id=\"stim\">+</p>", "internal_node_id": "0.0-11.0-0.0", "time_elapsed": 566840, "key_press": -1, "type": "FIXATION", "trial_index": 20}, "uniqueid": "MTK1562:345LHZDEDYZGDIWPQSV7N06JNJ1U3P", "dateTime": 1515970633423}, {"current_trial": 21, "trialdata": {"rt": -1, "trial_type": "single-stim", "word": "expert", "stimulus": "<p id=\"stim\">EXPERT</p>", "conditions": [18, 1200, "v", 18000], "internal_node_id": "0.0-12.0", "trial": 0, "time_elapsed": 568042, "serialpos": 0, "key_press": -1, "wordID": 542, "type": "PRES_VIS", "trial_index": 21}, "uniqueid": "MTK1562:345LHZDEDYZGDIWPQSV7N06JNJ1U3P", "dateTime": 1515970634626}, {"current_trial": 22, "trialdata": {"rt": -1, "trial_type": "single-stim", "word": "twig", "stimulus": "<p id=\"stim\">TWIG</p>", "conditions": [18, 1200, "v", 18000], "internal_node_id": "0.0-13.0", "trial": 0, "time_elapsed": 570397, "serialpos": 1, "key_press": -1, "wordID": 1526, "type": "PRES_VIS", "trial_index": 22}, "uniqueid": "MTK1562:345LHZDEDYZGDIWPQSV7N06JNJ1U3P", "dateTime": 1515970636980}, {"current_trial": 23, "trialdata": {"rt": -1, "trial_type": "single-stim", "word": "lady", "stimulus": "<p id=\"stim\">LADY</p>", "conditions": [18, 1200, "v", 18000], "internal_node_id": "0.0-14.0", "trial": 0, "time_elapsed": 572725, "serialpos": 2, "key_press": -1, "wordID": 793, "type": "PRES_VIS", "trial_index": 23}, "uniqueid": "MTK1562:345LHZDEDYZGDIWPQSV7N06JNJ1U3P", "dateTime": 1515970639308}, {"current_trial": 24, "trialdata": {"rt": -1, "trial_type": "single-stim", "word": "ground", "stimulus": "<p id=\"stim\">GROUND</p>", "conditions": [18, 1200, "v", 18000], "internal_node_id": "0.0-15.0", "trial": 0, "time_elapsed": 574757, "serialpos": 3, "key_press": -1, "wordID": 665, "type": "PRES_VIS", "trial_index": 24}, "uniqueid": "MTK1562:345LHZDEDYZGDIWPQSV7N06JNJ1U3P", "dateTime": 1515970641340}, {"current_trial": 25, "trialdata": {"rt": -1, "trial_type": "single-stim", "word": "portrait", "stimulus": "<p id=\"stim\">PORTRAIT</p>", "conditions": [18, 1200, "v", 18000], "internal_node_id": "0.0-16.0", "trial": 0, "time_elapsed": 577097, "serialpos": 4, "key_press": -1, "wordID": 1110, "type": "PRES_VIS", "trial_index": 25}, "uniqueid": "MTK1562:345LHZDEDYZGDIWPQSV7N06JNJ1U3P", "dateTime": 1515970643680}, {"current_trial": 26, "trialdata": {"rt": -1, "trial_type": "single-stim", "word": "heart", "stimulus": "<p id=\"stim\">HEART</p>", "conditions": [18, 1200, "v", 18000], "internal_node_id": "0.0-17.0", "trial": 0, "time_elapsed": 579451, "serialpos": 5, "key_press": -1, "wordID": 696, "type": "PRES_VIS", "trial_index": 26}, "uniqueid": "MTK1562:345LHZDEDYZGDIWPQSV7N06JNJ1U3P", "dateTime": 1515970646034}, {"current_trial": 27, "trialdata": {"rt": -1, "trial_type": "single-stim", "word": "turtle", "stimulus": "<p id=\"stim\">TURTLE</p>", "conditions": [18, 1200, "v", 18000], "internal_node_id": "0.0-18.0", "trial": 0, "time_elapsed": 581464, "serialpos": 6, "key_press": -1, "wordID": 1521, "type": "PRES_VIS", "trial_index": 27}, "uniqueid": "MTK1562:345LHZDEDYZGDIWPQSV7N06JNJ1U3P", "dateTime": 1515970648047}, {"current_trial": 28, "trialdata": {"rt": -1, "trial_type": "single-stim", "word": "parrot", "stimulus": "<p id=\"stim\">PARROT</p>", "conditions": [18, 1200, "v", 18000], "internal_node_id": "0.0-19.0", "trial": 0, "time_elapsed": 583620, "serialpos": 7, "key_press": -1, "wordID": 1014, "type": "PRES_VIS", "trial_index": 28}, "uniqueid": "MTK1562:345LHZDEDYZGDIWPQSV7N06JNJ1U3P", "dateTime": 1515970650203}, {"current_trial": 29, "trialdata": {"rt": -1, "trial_type": "single-stim", "word": "sheriff", "stimulus": "<p id=\"stim\">SHERIFF</p>", "conditions": [18, 1200, "v", 18000], "internal_node_id": "0.0-20.0", "trial": 0, "time_elapsed": 585959, "serialpos": 8, "key_press": -1, "wordID": 1283, "type": "PRES_VIS", "trial_index": 29}, "uniqueid": "MTK1562:345LHZDEDYZGDIWPQSV7N06JNJ1U3P", "dateTime": 1515970652543}, {"current_trial": 30, "trialdata": {"rt": -1, "trial_type": "single-stim", "word": "shorts", "stimulus": "<p id=\"stim\">SHORTS</p>", "conditions": [18, 1200, "v", 18000], "internal_node_id": "0.0-21.0", "trial": 0, "time_elapsed": 588261, "serialpos": 9, "key_press": -1, "wordID": 1292, "type": "PRES_VIS", "trial_index": 30}, "uniqueid": "MTK1562:345LHZDEDYZGDIWPQSV7N06JNJ1U3P", "dateTime": 1515970654844}, {"current_trial": 31, "trialdata": {"rt": -1, "trial_type": "single-stim", "word": "doughnut", "stimulus": "<p id=\"stim\">DOUGHNUT</p>", "conditions": [18, 1200, "v", 18000], "internal_node_id": "0.0-22.0", "trial": 0, "time_elapsed": 590399, "serialpos": 10, "key_press": -1, "wordID": 489, "type": "PRES_VIS", "trial_index": 31}, "uniqueid": "MTK1562:345LHZDEDYZGDIWPQSV7N06JNJ1U3P", "dateTime": 1515970656983}, {"current_trial": 32, "trialdata": {"rt": -1, "trial_type": "single-stim", "word": "turkey", "stimulus": "<p id=\"stim\">TURKEY</p>", "conditions": [18, 1200, "v", 18000], "internal_node_id": "0.0-23.0", "trial": 0, "time_elapsed": 592411, "serialpos": 11, "key_press": -1, "wordID": 1519, "type": "PRES_VIS", "trial_index": 32}, "uniqueid": "MTK1562:345LHZDEDYZGDIWPQSV7N06JNJ1U3P", "dateTime": 1515970658994}, {"current_trial": 33, "trialdata": {"rt": -1, "trial_type": "single-stim", "word": "victim", "stimulus": "<p id=\"stim\">VICTIM</p>", "conditions": [18, 1200, "v", 18000], "internal_node_id": "0.0-24.0", "trial": 0, "time_elapsed": 594508, "serialpos": 12, "key_press": -1, "wordID": 1561, "type": "PRES_VIS", "trial_index": 33}, "uniqueid": "MTK1562:345LHZDEDYZGDIWPQSV7N06JNJ1U3P", "dateTime": 1515970661091}, {"current_trial": 34, "trialdata": {"rt": -1, "trial_type": "single-stim", "word": "record", "stimulus": "<p id=\"stim\">RECORD</p>", "conditions": [18, 1200, "v", 18000], "internal_node_id": "0.0-25.0", "trial": 0, "time_elapsed": 596646, "serialpos": 13, "key_press": -1, "wordID": 1175, "type": "PRES_VIS", "trial_index": 34}, "uniqueid": "MTK1562:345LHZDEDYZGDIWPQSV7N06JNJ1U3P", "dateTime": 1515970663229}, {"current_trial": 35, "trialdata": {"rt": -1, "trial_type": "single-stim", "word": "wrench", "stimulus": "<p id=\"stim\">WRENCH</p>", "conditions": [18, 1200, "v", 18000], "internal_node_id": "0.0-26.0", "trial": 0, "time_elapsed": 598822, "serialpos": 14, "key_press": -1, "wordID": 1624, "type": "PRES_VIS", "trial_index": 35}, "uniqueid": "MTK1562:345LHZDEDYZGDIWPQSV7N06JNJ1U3P", "dateTime": 1515970665405}, {"current_trial": 36, "trialdata": {"rt": -1, "trial_type": "single-stim", "word": "maple", "stimulus": "<p id=\"stim\">MAPLE</p>", "conditions": [18, 1200, "v", 18000], "internal_node_id": "0.0-27.0", "trial": 0, "time_elapsed": 600956, "serialpos": 15, "key_press": -1, "wordID": 865, "type": "PRES_VIS", "trial_index": 36}, "uniqueid": "MTK1562:345LHZDEDYZGDIWPQSV7N06JNJ1U3P", "dateTime": 1515970667539}, {"current_trial": 37, "trialdata": {"rt": -1, "trial_type": "single-stim", "word": "mildew", "stimulus": "<p id=\"stim\">MILDEW</p>", "conditions": [18, 1200, "v", 18000], "internal_node_id": "0.0-28.0", "trial": 0, "time_elapsed": 603028, "serialpos": 16, "key_press": -1, "wordID": 892, "type": "PRES_VIS", "trial_index": 37}, "uniqueid": "MTK1562:345LHZDEDYZGDIWPQSV7N06JNJ1U3P", "dateTime": 1515970669612}, {"current_trial": 38, "trialdata": {"rt": -1, "trial_type": "single-stim", "word": "slug", "stimulus": "<p id=\"stim\">SLUG</p>", "conditions": [18, 1200, "v", 18000], "internal_node_id": "0.0-29.0", "trial": 0, "time_elapsed": 605303, "serialpos": 17, "key_press": -1, "wordID": 1328, "type": "PRES_VIS", "trial_index": 38}, "uniqueid": "MTK1562:345LHZDEDYZGDIWPQSV7N06JNJ1U3P", "dateTime": 1515970671886}, {"current_trial": 39, "trialdata": {"rt": -1, "trial_type": "single-stim", "stimulus": "", "internal_node_id": "0.0-30.0-0.0", "time_elapsed": 607448, "key_press": -1, "type": "PRE_RECALL_DELAY", "trial_index": 39}, "uniqueid": "MTK1562:345LHZDEDYZGDIWPQSV7N06JNJ1U3P", "dateTime": 1515970674031}, {"current_trial": 40, "trialdata": {"rt": -1000, "trial_type": "single-audio", "stimulus": "/static/audio/400Hz.wav", "internal_node_id": "0.0-31.0", "time_elapsed": 607951, "key_press": -1, "type": "PRE_RECALL_ALERT", "trial_index": 40}, "uniqueid": "MTK1562:345LHZDEDYZGDIWPQSV7N06JNJ1U3P", "dateTime": 1515970674534}, {"current_trial": 41, "trialdata": {"rt": [2473, 7672, 11920, 15368, 19632, 22511, 26000, 29192, 47912], "recwords": ["", "lady", "turtle", "heart", "turtle", "twig", "parrot", "sherrif", ""], "key_times": [2473, 2648, 2881, 3185, 4417, 4916, 4949, 4983, 5015, 5048, 5081, 5114, 5148, 5181, 5214, 5841, 6296, 6601, 6825, 7672, 9200, 9448, 9712, 10016, 10345, 11736, 11920, 12858, 13016, 13553, 13856, 14104, 15368, 17264, 17464, 17688, 18184, 18376, 18560, 19632, 20616, 21280, 21448, 22056, 22511, 24488, 24568, 24848, 25064, 25304, 25488, 26000, 27512, 27688, 27896, 28008, 28239, 28432, 28592, 29192, 47912], "trial_type": "free-recall", "conditions": [18, 1200, "v", 18000], "internal_node_id": "0.0-32.0-0.0", "key_presses": [186, 65, 68, 89, 8, 8, 8, 8, 8, 8, 8, 8, 8, 8, 8, 76, 65, 68, 89, 13, 84, 85, 82, 84, 76, 69, 13, 72, 69, 65, 82, 84, 13, 84, 85, 82, 84, 76, 69, 13, 84, 87, 73, 71, 13, 80, 65, 82, 82, 79, 84, 13, 83, 72, 69, 82, 82, 73, 70, 13, 13], "trial": 0, "time_elapsed": 667959, "type": "FREE_RECALL", "trial_index": 41}, "uniqueid": "MTK1562:345LHZDEDYZGDIWPQSV7N06JNJ1U3P", "dateTime": 1515970734543}, {"current_trial": 42, "trialdata": {"rt": 1356, "trial_type": "text", "internal_node_id": "0.0-33.0", "time_elapsed": 671317, "key_press": 13, "type": "INSTRUCTIONS", "trial_index": 42}, "uniqueid": "MTK1562:345LHZDEDYZGDIWPQSV7N06JNJ1U3P", "dateTime": 1515970737900}, {"current_trial": 43, "trialdata": {"rt": [3165, 5925, 8222, 10301, 12117, 16685], "trial_type": "math-distractor", "key_times": [2534, 2614, 3165, 5382, 5590, 5925, 7557, 7861, 8222, 9917, 10093, 10301, 11702, 11806, 12117, 15846, 16046, 16685], "responses": ["12", "17", "17", "11", "15", "17"], "num2": [7, 3, 5, 4, 7, 7, 3], "num3": [1, 9, 7, 6, 7, 5, 9], "conditions": [18, 1200, "v", 18000], "internal_node_id": "0.0-34.0", "key_presses": [97, 98, 13, 97, 103, 13, 97, 103, 13, 97, 97, 13, 97, 101, 13, 97, 103, 13], "trial": 1, "time_elapsed": 691320, "type": "DISTRACTOR", "trial_index": 43, "num1": [4, 6, 5, 1, 1, 8, 4]}, "uniqueid": "MTK1562:345LHZDEDYZGDIWPQSV7N06JNJ1U3P", "dateTime": 1515970757904}, {"current_trial": 44, "trialdata": {"rt": 267, "trial_type": "single-stim", "stimulus": "<p id=\"stim\">10</p>", "internal_node_id": "0.0-35.0-0.0", "time_elapsed": 694325, "key_press": 97, "trial_index": 44}, "uniqueid": "MTK1562:345LHZDEDYZGDIWPQSV7N06JNJ1U3P", "dateTime": 1515970760908}, {"current_trial": 45, "trialdata": {"rt": -1, "trial_type": "single-stim", "stimulus": "<p id=\"stim\">9</p>", "internal_node_id": "0.0-35.0-1.0", "time_elapsed": 695327, "key_press": -1, "trial_index": 45}, "uniqueid": "MTK1562:345LHZDEDYZGDIWPQSV7N06JNJ1U3P", "dateTime": 1515970761910}, {"current_trial": 46, "trialdata": {"rt": -1, "trial_type": "single-stim", "stimulus": "<p id=\"stim\">8</p>", "internal_node_id": "0.0-35.0-2.0", "time_elapsed": 696329, "key_press": -1, "trial_index": 46}, "uniqueid": "MTK1562:345LHZDEDYZGDIWPQSV7N06JNJ1U3P", "dateTime": 1515970762912}, {"current_trial": 47, "trialdata": {"rt": -1, "trial_type": "single-stim", "stimulus": "<p id=\"stim\">7</p>", "internal_node_id": "0.0-35.0-3.0", "time_elapsed": 697332, "key_press": -1, "trial_index": 47}, "uniqueid": "MTK1562:345LHZDEDYZGDIWPQSV7N06JNJ1U3P", "dateTime": 1515970763915}, {"current_trial": 48, "trialdata": {"rt": -1, "trial_type": "single-stim", "stimulus": "<p id=\"stim\">6</p>", "internal_node_id": "0.0-35.0-4.0", "time_elapsed": 698334, "key_press": -1, "trial_index": 48}, "uniqueid": "MTK1562:345LHZDEDYZGDIWPQSV7N06JNJ1U3P", "dateTime": 1515970764917}, {"current_trial": 49, "trialdata": {"rt": -1, "trial_type": "single-stim", "stimulus": "<p id=\"stim\">5</p>", "internal_node_id": "0.0-35.0-5.0", "time_elapsed": 699336, "key_press": -1, "trial_index": 49}, "uniqueid": "MTK1562:345LHZDEDYZGDIWPQSV7N06JNJ1U3P", "dateTime": 1515970765919}, {"current_trial": 50, "trialdata": {"rt": -1, "trial_type": "single-stim", "stimulus": "<p id=\"stim\">4</p>", "internal_node_id": "0.0-35.0-6.0", "time_elapsed": 700338, "key_press": -1, "trial_index": 50}, "uniqueid": "MTK1562:345LHZDEDYZGDIWPQSV7N06JNJ1U3P", "dateTime": 1515970766922}, {"current_trial": 51, "trialdata": {"rt": -1, "trial_type": "single-stim", "stimulus": "<p id=\"stim\">3</p>", "internal_node_id": "0.0-35.0-7.0", "time_elapsed": 701340, "key_press": -1, "trial_index": 51}, "uniqueid": "MTK1562:345LHZDEDYZGDIWPQSV7N06JNJ1U3P", "dateTime": 1515970767923}, {"current_trial": 52, "trialdata": {"rt": -1, "trial_type": "single-stim", "stimulus": "<p id=\"stim\">2</p>", "internal_node_id": "0.0-35.0-8.0", "time_elapsed": 702342, "key_press": -1, "trial_index": 52}, "uniqueid": "MTK1562:345LHZDEDYZGDIWPQSV7N06JNJ1U3P", "dateTime": 1515970768925}, {"current_trial": 53, "trialdata": {"rt": -1, "trial_type": "single-stim", "stimulus": "<p id=\"stim\">1</p>", "internal_node_id": "0.0-35.0-9.0", "time_elapsed": 703343, "key_press": -1, "trial_index": 53}, "uniqueid": "MTK1562:345LHZDEDYZGDIWPQSV7N06JNJ1U3P", "dateTime": 1515970769926}, {"current_trial": 54, "trialdata": {"rt": -1, "trial_type": "single-stim", "stimulus": "<p id=\"stim\">+</p>", "internal_node_id": "0.0-36.0-0.0", "time_elapsed": 704847, "key_press": -1, "type": "FIXATION", "trial_index": 54}, "uniqueid": "MTK1562:345LHZDEDYZGDIWPQSV7N06JNJ1U3P", "dateTime": 1515970771430}, {"current_trial": 55, "trialdata": {"rt": -1, "trial_type": "single-stim", "word": "beaver", "stimulus": "<p id=\"stim\">BEAVER</p>", "conditions": [18, 1200, "v", 18000], "internal_node_id": "0.0-37.0", "trial": 1, "time_elapsed": 706051, "serialpos": 0, "key_press": -1, "wordID": 108, "type": "PRES_VIS", "trial_index": 55}, "uniqueid": "MTK1562:345LHZDEDYZGDIWPQSV7N06JNJ1U3P", "dateTime": 1515970772634}, {"current_trial": 56, "trialdata": {"rt": -1, "trial_type": "single-stim", "word": "robot", "stimulus": "<p id=\"stim\">ROBOT</p>", "conditions": [18, 1200, "v", 18000], "internal_node_id": "0.0-38.0", "trial": 1, "time_elapsed": 708339, "serialpos": 1, "key_press": -1, "wordID": 1199, "type": "PRES_VIS", "trial_index": 56}, "uniqueid": "MTK1562:345LHZDEDYZGDIWPQSV7N06JNJ1U3P", "dateTime": 1515970774922}, {"current_trial": 57, "trialdata": {"rt": -1, "trial_type": "single-stim", "word": "lumber", "stimulus": "<p id=\"stim\">LUMBER</p>", "conditions": [18, 1200, "v", 18000], "internal_node_id": "0.0-39.0", "trial": 1, "time_elapsed": 710605, "serialpos": 2, "key_press": -1, "wordID": 847, "type": "PRES_VIS", "trial_index": 57}, "uniqueid": "MTK1562:345LHZDEDYZGDIWPQSV7N06JNJ1U3P", "dateTime": 1515970777188}, {"current_trial": 58, "trialdata": {"rt": -1, "trial_type": "single-stim", "word": "bunny", "stimulus": "<p id=\"stim\">BUNNY</p>", "conditions": [18, 1200, "v", 18000], "internal_node_id": "0.0-40.0", "trial": 1, "time_elapsed": 712785, "serialpos": 3, "key_press": -1, "wordID": 197, "type": "PRES_VIS", "trial_index": 58}, "uniqueid": "MTK1562:345LHZDEDYZGDIWPQSV7N06JNJ1U3P", "dateTime": 1515970779368}, {"current_trial": 59, "trialdata": {"rt": -1, "trial_type": "single-stim", "word": "glove", "stimulus": "<p id=\"stim\">GLOVE</p>", "conditions": [18, 1200, "v", 18000], "internal_node_id": "0.0-41.0", "trial": 1, "time_elapsed": 715108, "serialpos": 4, "key_press": -1, "wordID": 641, "type": "PRES_VIS", "trial_index": 59}, "uniqueid": "MTK1562:345LHZDEDYZGDIWPQSV7N06JNJ1U3P", "dateTime": 1515970781691}, {"current_trial": 60, "trialdata": {"rt": -1, "trial_type": "single-stim", "word": "tortoise", "stimulus": "<p id=\"stim\">TORTOISE</p>", "conditions": [18, 1200, "v", 18000], "internal_node_id": "0.0-42.0", "trial": 1, "time_elapsed": 717119, "serialpos": 5, "key_press": -1, "wordID": 1485, "type": "PRES_VIS", "trial_index": 60}, "uniqueid": "MTK1562:345LHZDEDYZGDIWPQSV7N06JNJ1U3P", "dateTime": 1515970783702}, {"current_trial": 61, "trialdata": {"rt": -1, "trial_type": "single-stim", "word": "luggage", "stimulus": "<p id=\"stim\">LUGGAGE</p>", "conditions": [18, 1200, "v", 18000], "internal_node_id": "0.0-43.0", "trial": 1, "time_elapsed": 719343, "serialpos": 6, "key_press": -1, "wordID": 846, "type": "PRES_VIS", "trial_index": 61}, "uniqueid": "MTK1562:345LHZDEDYZGDIWPQSV7N06JNJ1U3P", "dateTime": 1515970785926}, {"current_trial": 62, "trialdata": {"rt": -1, "trial_type": "single-stim", "word": "bureau", "stimulus": "<p id=\"stim\">BUREAU</p>", "conditions": [18, 1200, "v", 18000], "internal_node_id": "0.0-44.0", "trial": 1, "time_elapsed": 721526, "serialpos": 7, "key_press": -1, "wordID": 198, "type": "PRES_VIS", "trial_index": 62}, "uniqueid": "MTK1562:345LHZDEDYZGDIWPQSV7N06JNJ1U3P", "dateTime": 1515970788110}, {"current_trial": 63, "trialdata": {"rt": -1, "trial_type": "single-stim", "word": "yacht", "stimulus": "<p id=\"stim\">YACHT</p>", "conditions": [18, 1200, "v", 18000], "internal_node_id": "0.0-45.0", "trial": 1, "time_elapsed": 723926, "serialpos": 8, "key_press": -1, "wordID": 1628, "type": "PRES_VIS", "trial_index": 63}, "uniqueid": "MTK1562:345LHZDEDYZGDIWPQSV7N06JNJ1U3P", "dateTime": 1515970790509}, {"current_trial": 64, "trialdata": {"rt": -1, "trial_type": "single-stim", "word": "convict", "stimulus": "<p id=\"stim\">CONVICT</p>", "conditions": [18, 1200, "v", 18000], "internal_node_id": "0.0-46.0", "trial": 1, "time_elapsed": 726047, "serialpos": 9, "key_press": -1, "wordID": 370, "type": "PRES_VIS", "trial_index": 64}, "uniqueid": "MTK1562:345LHZDEDYZGDIWPQSV7N06JNJ1U3P", "dateTime": 1515970792630}, {"current_trial": 65, "trialdata": {"rt": -1, "trial_type": "single-stim", "word": "dress", "stimulus": "<p id=\"stim\">DRESS</p>", "conditions": [18, 1200, "v", 18000], "internal_node_id": "0.0-47.0", "trial": 1, "time_elapsed": 728216, "serialpos": 10, "key_press": -1, "wordID": 494, "type": "PRES_VIS", "trial_index": 65}, "uniqueid": "MTK1562:345LHZDEDYZGDIWPQSV7N06JNJ1U3P", "dateTime": 1515970794799}, {"current_trial": 66, "trialdata": {"rt": -1, "trial_type": "single-stim", "word": "hedge", "stimulus": "<p id=\"stim\">HEDGE</p>", "conditions": [18, 1200, "v", 18000], "internal_node_id": "0.0-48.0", "trial": 1, "time_elapsed": 730240, "serialpos": 11, "key_press": -1, "wordID": 698, "type": "PRES_VIS", "trial_index": 66}, "uniqueid": "MTK1562:345LHZDEDYZGDIWPQSV7N06JNJ1U3P", "dateTime": 1515970796823}, {"current_trial": 67, "trialdata": {"rt": -1, "trial_type": "single-stim", "word": "tuba", "stimulus": "<p id=\"stim\">TUBA</p>", "conditions": [18, 1200, "v", 18000], "internal_node_id": "0.0-49.0", "trial": 1, "time_elapsed": 732509, "serialpos": 12, "key_press": -1, "wordID": 1514, "type": "PRES_VIS", "trial_index": 67}, "uniqueid": "MTK1562:345LHZDEDYZGDIWPQSV7N06JNJ1U3P", "dateTime": 1515970799093}, {"current_trial": 68, "trialdata": {"rt": -1, "trial_type": "single-stim", "word": "parent", "stimulus": "<p id=\"stim\">PARENT</p>", "conditions": [18, 1200, "v", 18000], "internal_node_id": "0.0-50.0", "trial": 1, "time_elapsed": 734659, "serialpos": 13, "key_press": -1, "wordID": 1012, "type": "PRES_VIS", "trial_index": 68}, "uniqueid": "MTK1562:345LHZDEDYZGDIWPQSV7N06JNJ1U3P", "dateTime": 1515970801247}, {"current_trial": 69, "trialdata": {"rt": -1, "trial_type": "single-stim", "word": "mailbox", "stimulus": "<p id=\"stim\">MAILBOX</p>", "conditions": [18, 1200, "v", 18000], "internal_node_id": "0.0-51.0", "trial": 1, "time_elapsed": 736902, "serialpos": 14, "key_press": -1, "wordID": 856, "type": "PRES_VIS", "trial_index": 69}, "uniqueid": "MTK1562:345LHZDEDYZGDIWPQSV7N06JNJ1U3P", "dateTime": 1515970803485}, {"current_trial": 70, "trialdata": {"rt": -1, "trial_type": "single-stim", "word": "dolphin", "stimulus": "<p id=\"stim\">DOLPHIN</p>", "conditions": [18, 1200, "v", 18000], "internal_node_id": "0.0-52.0", "trial": 1, "time_elapsed": 739116, "serialpos": 15, "key_press": -1, "wordID": 482, "type": "PRES_VIS", "trial_index": 70}, "uniqueid": "MTK1562:345LHZDEDYZGDIWPQSV7N06JNJ1U3P", "dateTime": 1515970805700}, {"current_trial": 71, "trialdata": {"rt": -1, "trial_type": "single-stim", "word": "sculpture", "stimulus": "<p id=\"stim\">SCULPTURE</p>", "conditions": [18, 1200, "v", 18000], "internal_node_id": "0.0-53.0", "trial": 1, "time_elapsed": 741177, "serialpos": 16, "key_press": -1, "wordID": 1257, "type": "PRES_VIS", "trial_index": 71}, "uniqueid": "MTK1562:345LHZDEDYZGDIWPQSV7N06JNJ1U3P", "dateTime": 1515970807760}, {"current_trial": 72, "trialdata": {"rt": -1, "trial_type": "single-stim", "word": "knapsack", "stimulus": "<p id=\"stim\">KNAPSACK</p>", "conditions": [18, 1200, "v", 18000], "internal_node_id": "0.0-54.0", "trial": 1, "time_elapsed": 743217, "serialpos": 17, "key_press": -1, "wordID": 782, "type": "PRES_VIS", "trial_index": 72}, "uniqueid": "MTK1562:345LHZDEDYZGDIWPQSV7N06JNJ1U3P", "dateTime": 1515970809800}, {"current_trial": 73, "trialdata": {"rt": -1, "trial_type": "single-stim", "stimulus": "", "internal_node_id": "0.0-55.0-0.0", "time_elapsed": 745698, "key_press": -1, "type": "PRE_RECALL_DELAY", "trial_index": 73}, "uniqueid": "MTK1562:345LHZDEDYZGDIWPQSV7N06JNJ1U3P", "dateTime": 1515970812282}, {"current_trial": 74, "trialdata": {"rt": -1000, "trial_type": "single-audio", "stimulus": "/static/audio/400Hz.wav", "internal_node_id": "0.0-56.0", "time_elapsed": 746200, "key_press": -1, "type": "PRE_RECALL_ALERT", "trial_index": 74}, "uniqueid": "MTK1562:345LHZDEDYZGDIWPQSV7N06JNJ1U3P", "dateTime": 1515970812783}, {"current_trial": 75, "trialdata": {"rt": [4355, 6315, 8659, 11571], "recwords": ["turtoise", "manner", "gog", "parrot"], "key_times": [1900, 2132, 2387, 2651, 2884, 3251, 3716, 3812, 4355, 5196, 5364, 5524, 5700, 5851, 5963, 6315, 7516, 7683, 8316, 8659, 9852, 9971, 10699, 10892, 11068, 11267, 11571], "trial_type": "free-recall", "conditions": [18, 1200, "v", 18000], "internal_node_id": "0.0-57.0-0.0", "key_presses": [84, 85, 82, 84, 79, 73, 83, 69, 13, 77, 65, 78, 78, 69, 82, 13, 71, 79, 71, 13, 80, 65, 82, 82, 79, 84, 13], "trial": 1, "time_elapsed": 806202, "type": "FREE_RECALL", "trial_index": 75}, "uniqueid": "MTK1562:345LHZDEDYZGDIWPQSV7N06JNJ1U3P", "dateTime": 1515970872787}, {"current_trial": 76, "trialdata": {"rt": 2039, "trial_type": "text", "internal_node_id": "0.0-58.0", "time_elapsed": 810244, "key_press": 13, "type": "INSTRUCTIONS", "trial_index": 76}, "uniqueid": "MTK1562:345LHZDEDYZGDIWPQSV7N06JNJ1U3P", "dateTime": 1515970876828}, {"current_trial": 77, "trialdata": {"rt": [2565, 5044, 7684, 9364, 11500, 14988, 17668, 19604, 21964], "trial_type": "math-distractor", "key_times": [2149, 2236, 2565, 4533, 4693, 5044, 7236, 7365, 7684, 8956, 9141, 9364, 10749, 11221, 11500, 14597, 14789, 14988, 17149, 17373, 17668, 19181, 19285, 19604, 20869, 21693, 21964], "responses": ["16", "15", "18", "14", "15", "22", "17", "16", "14"], "num2": [7, 5, 4, 3, 8, 8, 9, 6, 2, 7], "num3": [3, 8, 9, 4, 5, 5, 2, 6, 8, 6], "conditions": [24, 800, "v", 24000], "internal_node_id": "0.0-59.0", "key_presses": [97, 102, 13, 97, 101, 13, 97, 104, 13, 97, 100, 13, 97, 101, 13, 98, 98, 13, 97, 103, 13, 97, 102, 13, 97, 100, 13], "trial": 2, "time_elapsed": 835249, "type": "DISTRACTOR", "trial_index": 77, "num1": [6, 2, 8, 7, 2, 9, 6, 4, 4, 9]}, "uniqueid": "MTK1562:345LHZDEDYZGDIWPQSV7N06JNJ1U3P", "dateTime": 1515970901832}, {"current_trial": 78, "trialdata": {"rt": -1, "trial_type": "single-stim", "stimulus": "<p id=\"stim\">10</p>", "internal_node_id": "0.0-60.0-0.0", "time_elapsed": 838252, "key_press": -1, "trial_index": 78}, "uniqueid": "MTK1562:345LHZDEDYZGDIWPQSV7N06JNJ1U3P", "dateTime": 1515970904835}, {"current_trial": 79, "trialdata": {"rt": -1, "trial_type": "single-stim", "stimulus": "<p id=\"stim\">9</p>", "internal_node_id": "0.0-60.0-1.0", "time_elapsed": 839254, "key_press": -1, "trial_index": 79}, "uniqueid": "MTK1562:345LHZDEDYZGDIWPQSV7N06JNJ1U3P", "dateTime": 1515970905837}, {"current_trial": 80, "trialdata": {"rt": -1, "trial_type": "single-stim", "stimulus": "<p id=\"stim\">8</p>", "internal_node_id": "0.0-60.0-2.0", "time_elapsed": 840256, "key_press": -1, "trial_index": 80}, "uniqueid": "MTK1562:345LHZDEDYZGDIWPQSV7N06JNJ1U3P", "dateTime": 1515970906839}, {"current_trial": 81, "trialdata": {"rt": -1, "trial_type": "single-stim", "stimulus": "<p id=\"stim\">7</p>", "internal_node_id": "0.0-60.0-3.0", "time_elapsed": 841258, "key_press": -1, "trial_index": 81}, "uniqueid": "MTK1562:345LHZDEDYZGDIWPQSV7N06JNJ1U3P", "dateTime": 1515970907841}, {"current_trial": 82, "trialdata": {"rt": -1, "trial_type": "single-stim", "stimulus": "<p id=\"stim\">6</p>", "internal_node_id": "0.0-60.0-4.0", "time_elapsed": 842259, "key_press": -1, "trial_index": 82}, "uniqueid": "MTK1562:345LHZDEDYZGDIWPQSV7N06JNJ1U3P", "dateTime": 1515970908842}, {"current_trial": 83, "trialdata": {"rt": -1, "trial_type": "single-stim", "stimulus": "<p id=\"stim\">5</p>", "internal_node_id": "0.0-60.0-5.0", "time_elapsed": 843261, "key_press": -1, "trial_index": 83}, "uniqueid": "MTK1562:345LHZDEDYZGDIWPQSV7N06JNJ1U3P", "dateTime": 1515970909844}, {"current_trial": 84, "trialdata": {"rt": -1, "trial_type": "single-stim", "stimulus": "<p id=\"stim\">4</p>", "internal_node_id": "0.0-60.0-6.0", "time_elapsed": 844262, "key_press": -1, "trial_index": 84}, "uniqueid": "MTK1562:345LHZDEDYZGDIWPQSV7N06JNJ1U3P", "dateTime": 1515970910845}, {"current_trial": 85, "trialdata": {"rt": -1, "trial_type": "single-stim", "stimulus": "<p id=\"stim\">3</p>", "internal_node_id": "0.0-60.0-7.0", "time_elapsed": 845264, "key_press": -1, "trial_index": 85}, "uniqueid": "MTK1562:345LHZDEDYZGDIWPQSV7N06JNJ1U3P", "dateTime": 1515970911847}, {"current_trial": 86, "trialdata": {"rt": -1, "trial_type": "single-stim", "stimulus": "<p id=\"stim\">2</p>", "internal_node_id": "0.0-60.0-8.0", "time_elapsed": 846265, "key_press": -1, "trial_index": 86}, "uniqueid": "MTK1562:345LHZDEDYZGDIWPQSV7N06JNJ1U3P", "dateTime": 1515970912849}, {"current_trial": 87, "trialdata": {"rt": -1, "trial_type": "single-stim", "stimulus": "<p id=\"stim\">1</p>", "internal_node_id": "0.0-60.0-9.0", "time_elapsed": 847267, "key_press": -1, "trial_index": 87}, "uniqueid": "MTK1562:345LHZDEDYZGDIWPQSV7N06JNJ1U3P", "dateTime": 1515970913850}, {"current_trial": 88, "trialdata": {"rt": -1, "trial_type": "single-stim", "stimulus": "<p id=\"stim\">+</p>", "internal_node_id": "0.0-61.0-0.0", "time_elapsed": 848775, "key_press": -1, "type": "FIXATION", "trial_index": 88}, "uniqueid": "MTK1562:345LHZDEDYZGDIWPQSV7N06JNJ1U3P", "dateTime": 1515970915358}, {"current_trial": 89, "trialdata": {"rt": -1, "trial_type": "single-stim", "word": "antler", "stimulus": "<p id=\"stim\">ANTLER</p>", "conditions": [24, 800, "v", 24000], "internal_node_id": "0.0-62.0", "trial": 2, "time_elapsed": 849576, "serialpos": 0, "key_press": -1, "wordID": 28, "type": "PRES_VIS", "trial_index": 89}, "uniqueid": "MTK1562:345LHZDEDYZGDIWPQSV7N06JNJ1U3P", "dateTime": 1515970916159}, {"current_trial": 90, "trialdata": {"rt": -1, "trial_type": "single-stim", "word": "frame", "stimulus": "<p id=\"stim\">FRAME</p>", "conditions": [24, 800, "v", 24000], "internal_node_id": "0.0-63.0", "trial": 2, "time_elapsed": 851430, "serialpos": 1, "key_press": -1, "wordID": 599, "type": "PRES_VIS", "trial_index": 90}, "uniqueid": "MTK1562:345LHZDEDYZGDIWPQSV7N06JNJ1U3P", "dateTime": 1515970918014}, {"current_trial": 91, "trialdata": {"rt": -1, "trial_type": "single-stim", "word": "teacher", "stimulus": "<p id=\"stim\">TEACHER</p>", "conditions": [24, 800, "v", 24000], "internal_node_id": "0.0-64.0", "trial": 2, "time_elapsed": 853061, "serialpos": 2, "key_press": -1, "wordID": 1439, "type": "PRES_VIS", "trial_index": 91}, "uniqueid": "MTK1562:345LHZDEDYZGDIWPQSV7N06JNJ1U3P", "dateTime": 1515970919644}, {"current_trial": 92, "trialdata": {"rt": -1, "trial_type": "single-stim", "word": "mars", "stimulus": "<p id=\"stim\">MARS</p>", "conditions": [24, 800, "v", 24000], "internal_node_id": "0.0-65.0", "trial": 2, "time_elapsed": 854859, "serialpos": 3, "key_press": -1, "wordID": 872, "type": "PRES_VIS", "trial_index": 92}, "uniqueid": "MTK1562:345LHZDEDYZGDIWPQSV7N06JNJ1U3P", "dateTime": 1515970921442}, {"current_trial": 93, "trialdata": {"rt": -1, "trial_type": "single-stim", "word": "palace", "stimulus": "<p id=\"stim\">PALACE</p>", "conditions": [24, 800, "v", 24000], "internal_node_id": "0.0-66.0", "trial": 2, "time_elapsed": 856592, "serialpos": 4, "key_press": -1, "wordID": 1005, "type": "PRES_VIS", "trial_index": 93}, "uniqueid": "MTK1562:345LHZDEDYZGDIWPQSV7N06JNJ1U3P", "dateTime": 1515970923175}, {"current_trial": 94, "trialdata": {"rt": -1, "trial_type": "single-stim", "word": "tractor", "stimulus": "<p id=\"stim\">TRACTOR</p>", "conditions": [24, 800, "v", 24000], "internal_node_id": "0.0-67.0", "trial": 2, "time_elapsed": 858210, "serialpos": 5, "key_press": -1, "wordID": 1492, "type": "PRES_VIS", "trial_index": 94}, "uniqueid": "MTK1562:345LHZDEDYZGDIWPQSV7N06JNJ1U3P", "dateTime": 1515970924793}, {"current_trial": 95, "trialdata": {"rt": -1, "trial_type": "single-stim", "word": "student", "stimulus": "<p id=\"stim\">STUDENT</p>", "conditions": [24, 800, "v", 24000], "internal_node_id": "0.0-68.0", "trial": 2, "time_elapsed": 859994, "serialpos": 6, "key_press": -1, "wordID": 1394, "type": "PRES_VIS", "trial_index": 95}, "uniqueid": "MTK1562:345LHZDEDYZGDIWPQSV7N06JNJ1U3P", "dateTime": 1515970926578}, {"current_trial": 96, "trialdata": {"rt": -1, "trial_type": "single-stim", "word": "cocoon", "stimulus": "<p id=\"stim\">COCOON</p>", "conditions": [24, 800, "v", 24000], "internal_node_id": "0.0-69.0", "trial": 2, "time_elapsed": 861705, "serialpos": 7, "key_press": -1, "wordID": 338, "type": "PRES_VIS", "trial_index": 96}, "uniqueid": "MTK1562:345LHZDEDYZGDIWPQSV7N06JNJ1U3P", "dateTime": 1515970928289}, {"current_trial": 97, "trialdata": {"rt": -1, "trial_type": "single-stim", "word": "egypt", "stimulus": "<p id=\"stim\">EGYPT</p>", "conditions": [24, 800, "v", 24000], "internal_node_id": "0.0-70.0", "trial": 2, "time_elapsed": 863645, "serialpos": 8, "key_press": -1, "wordID": 518, "type": "PRES_VIS", "trial_index": 97}, "uniqueid": "MTK1562:345LHZDEDYZGDIWPQSV7N06JNJ1U3P", "dateTime": 1515970930228}, {"current_trial": 98, "trialdata": {"rt": -1, "trial_type": "single-stim", "word": "hostess", "stimulus": "<p id=\"stim\">HOSTESS</p>", "conditions": [24, 800, "v", 24000], "internal_node_id": "0.0-71.0", "trial": 2, "time_elapsed": 865608, "serialpos": 9, "key_press": -1, "wordID": 722, "type": "PRES_VIS", "trial_index": 98}, "uniqueid": "MTK1562:345LHZDEDYZGDIWPQSV7N06JNJ1U3P", "dateTime": 1515970932191}, {"current_trial": 99, "trialdata": {"rt": -1, "trial_type": "single-stim", "word": "waitress", "stimulus": "<p id=\"stim\">WAITRESS</p>", "conditions": [24, 800, "v", 24000], "internal_node_id": "0.0-72.0", "trial": 2, "time_elapsed": 867526, "serialpos": 10, "key_press": -1, "wordID": 1580, "type": "PRES_VIS", "trial_index": 99}, "uniqueid": "MTK1562:345LHZDEDYZGDIWPQSV7N06JNJ1U3P", "dateTime": 1515970934109}, {"current_trial": 100, "trialdata": {"rt": -1, "trial_type": "single-stim", "word": "perfume", "stimulus": "<p id=\"stim\">PERFUME</p>", "conditions": [24, 800, "v", 24000], "internal_node_id": "0.0-73.0", "trial": 2, "time_elapsed": 869430, "serialpos": 11, "key_press": -1, "wordID": 1048, "type": "PRES_VIS", "trial_index": 100}, "uniqueid": "MTK1562:345LHZDEDYZGDIWPQSV7N06JNJ1U3P", "dateTime": 1515970936013}, {"current_trial": 101, "trialdata": {"rt": -1, "trial_type": "single-stim", "word": "leg", "stimulus": "<p id=\"stim\">LEG</p>", "conditions": [24, 800, "v", 24000], "internal_node_id": "0.0-74.0", "trial": 2, "time_elapsed": 871263, "serialpos": 12, "key_press": -1, "wordID": 808, "type": "PRES_VIS", "trial_index": 101}, "uniqueid": "MTK1562:345LHZDEDYZGDIWPQSV7N06JNJ1U3P", "dateTime": 1515970937847}, {"current_trial": 102, "trialdata": {"rt": -1, "trial_type": "single-stim", "word": "lover", "stimulus": "<p id=\"stim\">LOVER</p>", "conditions": [24, 800, "v", 24000], "internal_node_id": "0.0-75.0", "trial": 2, "time_elapsed": 872980, "serialpos": 13, "key_press": -1, "wordID": 845, "type": "PRES_VIS", "trial_index": 102}, "uniqueid": "MTK1562:345LHZDEDYZGDIWPQSV7N06JNJ1U3P", "dateTime": 1515970939563}, {"current_trial": 103, "trialdata": {"rt": -1, "trial_type": "single-stim", "word": "citrus", "stimulus": "<p id=\"stim\">CITRUS</p>", "conditions": [24, 800, "v", 24000], "internal_node_id": "0.0-76.0", "trial": 2, "time_elapsed": 874873, "serialpos": 14, "key_press": -1, "wordID": 312, "type": "PRES_VIS", "trial_index": 103}, "uniqueid": "MTK1562:345LHZDEDYZGDIWPQSV7N06JNJ1U3P", "dateTime": 1515970941456}, {"current_trial": 104, "trialdata": {"rt": -1, "trial_type": "single-stim", "word": "whiskers", "stimulus": "<p id=\"stim\">WHISKERS</p>", "conditions": [24, 800, "v", 24000], "internal_node_id": "0.0-77.0", "trial": 2, "time_elapsed": 876567, "serialpos": 15, "key_press": -1, "wordID": 1604, "type": "PRES_VIS", "trial_index": 104}, "uniqueid": "MTK1562:345LHZDEDYZGDIWPQSV7N06JNJ1U3P", "dateTime": 1515970943150}, {"current_trial": 105, "trialdata": {"rt": -1, "trial_type": "single-stim", "word": "staple", "stimulus": "<p id=\"stim\">STAPLE</p>", "conditions": [24, 800, "v", 24000], "internal_node_id": "0.0-78.0", "trial": 2, "time_elapsed": 878214, "serialpos": 16, "key_press": -1, "wordID": 1370, "type": "PRES_VIS", "trial_index": 105}, "uniqueid": "MTK1562:345LHZDEDYZGDIWPQSV7N06JNJ1U3P", "dateTime": 1515970944797}, {"current_trial": 106, "trialdata": {"rt": -1, "trial_type": "single-stim", "word": "canyon", "stimulus": "<p id=\"stim\">CANYON</p>", "conditions": [24, 800, "v", 24000], "internal_node_id": "0.0-79.0", "trial": 2, "time_elapsed": 880028, "serialpos": 17, "key_press": -1, "wordID": 234, "type": "PRES_VIS", "trial_index": 106}, "uniqueid": "MTK1562:345LHZDEDYZGDIWPQSV7N06JNJ1U3P", "dateTime": 1515970946611}, {"current_trial": 107, "trialdata": {"rt": -1, "trial_type": "single-stim", "word": "valley", "stimulus": "<p id=\"stim\">VALLEY</p>", "conditions": [24, 800, "v", 24000], "internal_node_id": "0.0-80.0", "trial": 2, "time_elapsed": 881982, "serialpos": 18, "key_press": -1, "wordID": 1544, "type": "PRES_VIS", "trial_index": 107}, "uniqueid": "MTK1562:345LHZDEDYZGDIWPQSV7N06JNJ1U3P", "dateTime": 1515970948565}, {"current_trial": 108, "trialdata": {"rt": -1, "trial_type": "single-stim", "word": "bison", "stimulus": "<p id=\"stim\">BISON</p>", "conditions": [24, 800, "v", 24000], "internal_node_id": "0.0-81.0", "trial": 2, "time_elapsed": 883832, "serialpos": 19, "key_press": -1, "wordID": 130, "type": "PRES_VIS", "trial_index": 108}, "uniqueid": "MTK1562:345LHZDEDYZGDIWPQSV7N06JNJ1U3P", "dateTime": 1515970950415}, {"current_trial": 109, "trialdata": {"rt": -1, "trial_type": "single-stim", "word": "ankle", "stimulus": "<p id=\"stim\">ANKLE</p>", "conditions": [24, 800, "v", 24000], "internal_node_id": "0.0-82.0", "trial": 2, "time_elapsed": 885591, "serialpos": 20, "key_press": -1, "wordID": 23, "type": "PRES_VIS", "trial_index": 109}, "uniqueid": "MTK1562:345LHZDEDYZGDIWPQSV7N06JNJ1U3P", "dateTime": 1515970952174}, {"current_trial": 110, "trialdata": {"rt": -1, "trial_type": "single-stim", "word": "jury", "stimulus": "<p id=\"stim\">JURY</p>", "conditions": [24, 800, "v", 24000], "internal_node_id": "0.0-83.0", "trial": 2, "time_elapsed": 887429, "serialpos": 21, "key_press": -1, "wordID": 765, "type": "PRES_VIS", "trial_index": 110}, "uniqueid": "MTK1562:345LHZDEDYZGDIWPQSV7N06JNJ1U3P", "dateTime": 1515970954012}, {"current_trial": 111, "trialdata": {"rt": -1, "trial_type": "single-stim", "word": "slope", "stimulus": "<p id=\"stim\">SLOPE</p>", "conditions": [24, 800, "v", 24000], "internal_node_id": "0.0-84.0", "trial": 2, "time_elapsed": 889373, "serialpos": 22, "key_press": -1, "wordID": 1327, "type": "PRES_VIS", "trial_index": 111}, "uniqueid": "MTK1562:345LHZDEDYZGDIWPQSV7N06JNJ1U3P", "dateTime": 1515970955956}, {"current_trial": 112, "trialdata": {"rt": -1, "trial_type": "single-stim", "word": "crater", "stimulus": "<p id=\"stim\">CRATER</p>", "conditions": [24, 800, "v", 24000], "internal_node_id": "0.0-85.0", "trial": 2, "time_elapsed": 891341, "serialpos": 23, "key_press": -1, "wordID": 399, "type": "PRES_VIS", "trial_index": 112}, "uniqueid": "MTK1562:345LHZDEDYZGDIWPQSV7N06JNJ1U3P", "dateTime": 1515970957924}, {"current_trial": 113, "trialdata": {"rt": -1, "trial_type": "single-stim", "stimulus": "", "internal_node_id": "0.0-86.0-0.0", "time_elapsed": 893736, "key_press": -1, "type": "PRE_RECALL_DELAY", "trial_index": 113}, "uniqueid": "MTK1562:345LHZDEDYZGDIWPQSV7N06JNJ1U3P", "dateTime": 1515970960319}, {"current_trial": 114, "trialdata": {"rt": -1000, "trial_type": "single-audio", "stimulus": "/static/audio/400Hz.wav", "internal_node_id": "0.0-87.0", "time_elapsed": 894237, "key_press": -1, "type": "PRE_RECALL_ALERT", "trial_index": 114}, "uniqueid": "MTK1562:345LHZDEDYZGDIWPQSV7N06JNJ1U3P", "dateTime": 1515970960820}, {"current_trial": 115, "trialdata": {"rt": [4109, 9317, 12612, 15405, 18716, 25012, 30900, 36924, 44677], "recwords": ["teacher", "student", "valley", "mars", "leg", "ankle", "bison", "egypt", "vally"], "key_times": [1830, 1949, 2149, 2605, 2797, 3005, 3093, 4109, 4565, 6421, 6645, 6965, 7205, 7869, 8093, 8269, 8445, 9317, 10581, 10782, 11069, 11253, 12005, 12053, 12612, 14093, 14237, 14541, 14782, 15405, 17908, 18068, 18444, 18716, 19196, 19444, 19940, 20364, 22277, 22469, 23692, 24317, 24468, 25012, 29580, 29685, 30028, 30220, 30332, 30900, 33893, 34660, 35684, 36332, 36596, 36924, 42340, 42564, 43268, 43444, 43780, 44677], "trial_type": "free-recall", "conditions": [24, 800, "v", 24000], "internal_node_id": "0.0-88.0-0.0", "key_presses": [84, 69, 65, 67, 72, 69, 82, 13, 65, 8, 83, 84, 85, 68, 69, 78, 84, 13, 86, 65, 76, 76, 69, 89, 13, 77, 65, 82, 83, 13, 76, 69, 71, 13, 65, 78, 75, 69, 8, 8, 75, 76, 69, 13, 66, 73, 83, 79, 78, 13, 69, 71, 89, 80, 84, 13, 86, 65, 76, 76, 89, 13], "trial": 2, "time_elapsed": 954241, "type": "FREE_RECALL", "trial_index": 115}, "uniqueid": "MTK1562:345LHZDEDYZGDIWPQSV7N06JNJ1U3P", "dateTime": 1515971020829}, {"current_trial": 116, "trialdata": {"rt": 1310, "trial_type": "text", "internal_node_id": "0.0-89.0", "time_elapsed": 957556, "key_press": 13, "type": "INSTRUCTIONS", "trial_index": 116}, "uniqueid": "MTK1562:345LHZDEDYZGDIWPQSV7N06JNJ1U3P", "dateTime": 1515971024139}, {"current_trial": 117, "trialdata": {"rt": [1748, 4588, 7084, 8845, 10972, 15740, 18468, 22956], "trial_type": "math-distractor", "key_times": [1301, 1509, 1748, 3965, 4317, 4588, 6797, 6916, 7084, 8494, 8604, 8845, 10581, 10684, 10972, 15405, 15581, 15740, 18005, 18237, 18468, 22572, 22717, 22956], "responses": ["15", "19", "20", "16", "12", "22", "14", "23"], "num2": [7, 9, 8, 1, 7, 8, 6, 9, 1], "num3": [1, 8, 7, 9, 2, 6, 5, 7, 6], "conditions": [12, 800, "v", 24000], "internal_node_id": "0.0-90.0", "key_presses": [97, 101, 13, 97, 105, 13, 98, 96, 13, 97, 102, 13, 97, 98, 13, 98, 98, 13, 97, 100, 13, 98, 99, 13], "trial": 3, "time_elapsed": 983560, "type": "DISTRACTOR", "trial_index": 117, "num1": [7, 2, 5, 6, 3, 6, 3, 7, 2]}, "uniqueid": "MTK1562:345LHZDEDYZGDIWPQSV7N06JNJ1U3P", "dateTime": 1515971050143}, {"current_trial": 118, "trialdata": {"rt": -1, "trial_type": "single-stim", "stimulus": "<p id=\"stim\">10</p>", "internal_node_id": "0.0-91.0-0.0", "time_elapsed": 986562, "key_press": -1, "trial_index": 118}, "uniqueid": "MTK1562:345LHZDEDYZGDIWPQSV7N06JNJ1U3P", "dateTime": 1515971053145}, {"current_trial": 119, "trialdata": {"rt": -1, "trial_type": "single-stim", "stimulus": "<p id=\"stim\">9</p>", "internal_node_id": "0.0-91.0-1.0", "time_elapsed": 987563, "key_press": -1, "trial_index": 119}, "uniqueid": "MTK1562:345LHZDEDYZGDIWPQSV7N06JNJ1U3P", "dateTime": 1515971054146}, {"current_trial": 120, "trialdata": {"rt": -1, "trial_type": "single-stim", "stimulus": "<p id=\"stim\">8</p>", "internal_node_id": "0.0-91.0-2.0", "time_elapsed": 988565, "key_press": -1, "trial_index": 120}, "uniqueid": "MTK1562:345LHZDEDYZGDIWPQSV7N06JNJ1U3P", "dateTime": 1515971055148}, {"current_trial": 121, "trialdata": {"rt": -1, "trial_type": "single-stim", "stimulus": "<p id=\"stim\">7</p>", "internal_node_id": "0.0-91.0-3.0", "time_elapsed": 989566, "key_press": -1, "trial_index": 121}, "uniqueid": "MTK1562:345LHZDEDYZGDIWPQSV7N06JNJ1U3P", "dateTime": 1515971056150}, {"current_trial": 122, "trialdata": {"rt": -1, "trial_type": "single-stim", "stimulus": "<p id=\"stim\">6</p>", "internal_node_id": "0.0-91.0-4.0", "time_elapsed": 990568, "key_press": -1, "trial_index": 122}, "uniqueid": "MTK1562:345LHZDEDYZGDIWPQSV7N06JNJ1U3P", "dateTime": 1515971057151}, {"current_trial": 123, "trialdata": {"rt": -1, "trial_type": "single-stim", "stimulus": "<p id=\"stim\">5</p>", "internal_node_id": "0.0-91.0-5.0", "time_elapsed": 991569, "key_press": -1, "trial_index": 123}, "uniqueid": "MTK1562:345LHZDEDYZGDIWPQSV7N06JNJ1U3P", "dateTime": 1515971058152}, {"current_trial": 124, "trialdata": {"rt": -1, "trial_type": "single-stim", "stimulus": "<p id=\"stim\">4</p>", "internal_node_id": "0.0-91.0-6.0", "time_elapsed": 992571, "key_press": -1, "trial_index": 124}, "uniqueid": "MTK1562:345LHZDEDYZGDIWPQSV7N06JNJ1U3P", "dateTime": 1515971059154}, {"current_trial": 125, "trialdata": {"rt": -1, "trial_type": "single-stim", "stimulus": "<p id=\"stim\">3</p>", "internal_node_id": "0.0-91.0-7.0", "time_elapsed": 993573, "key_press": -1, "trial_index": 125}, "uniqueid": "MTK1562:345LHZDEDYZGDIWPQSV7N06JNJ1U3P", "dateTime": 1515971060156}, {"current_trial": 126, "trialdata": {"rt": -1, "trial_type": "single-stim", "stimulus": "<p id=\"stim\">2</p>", "internal_node_id": "0.0-91.0-8.0", "time_elapsed": 994575, "key_press": -1, "trial_index": 126}, "uniqueid": "MTK1562:345LHZDEDYZGDIWPQSV7N06JNJ1U3P", "dateTime": 1515971061158}, {"current_trial": 127, "trialdata": {"rt": -1, "trial_type": "single-stim", "stimulus": "<p id=\"stim\">1</p>", "internal_node_id": "0.0-91.0-9.0", "time_elapsed": 995577, "key_press": -1, "trial_index": 127}, "uniqueid": "MTK1562:345LHZDEDYZGDIWPQSV7N06JNJ1U3P", "dateTime": 1515971062160}, {"current_trial": 128, "trialdata": {"rt": -1, "trial_type": "single-stim", "stimulus": "<p id=\"stim\">+</p>", "internal_node_id": "0.0-92.0-0.0", "time_elapsed": 997078, "key_press": -1, "type": "FIXATION", "trial_index": 128}, "uniqueid": "MTK1562:345LHZDEDYZGDIWPQSV7N06JNJ1U3P", "dateTime": 1515971063662}, {"current_trial": 129, "trialdata": {"rt": -1, "trial_type": "single-stim", "word": "space", "stimulus": "<p id=\"stim\">SPACE</p>", "conditions": [12, 800, "v", 24000], "internal_node_id": "0.0-93.0", "trial": 3, "time_elapsed": 997880, "serialpos": 0, "key_press": -1, "wordID": 1344, "type": "PRES_VIS", "trial_index": 129}, "uniqueid": "MTK1562:345LHZDEDYZGDIWPQSV7N06JNJ1U3P", "dateTime": 1515971064464}, {"current_trial": 130, "trialdata": {"rt": -1, "trial_type": "single-stim", "word": "truck", "stimulus": "<p id=\"stim\">TRUCK</p>", "conditions": [12, 800, "v", 24000], "internal_node_id": "0.0-94.0", "trial": 3, "time_elapsed": 999538, "serialpos": 1, "key_press": -1, "wordID": 1511, "type": "PRES_VIS", "trial_index": 130}, "uniqueid": "MTK1562:345LHZDEDYZGDIWPQSV7N06JNJ1U3P", "dateTime": 1515971066121}, {"current_trial": 131, "trialdata": {"rt": -1, "trial_type": "single-stim", "word": "banquet", "stimulus": "<p id=\"stim\">BANQUET</p>", "conditions": [12, 800, "v", 24000], "internal_node_id": "0.0-95.0", "trial": 3, "time_elapsed": 1001266, "serialpos": 2, "key_press": -1, "wordID": 85, "type": "PRES_VIS", "trial_index": 131}, "uniqueid": "MTK1562:345LHZDEDYZGDIWPQSV7N06JNJ1U3P", "dateTime": 1515971067849}, {"current_trial": 132, "trialdata": {"rt": -1, "trial_type": "single-stim", "word": "freezer", "stimulus": "<p id=\"stim\">FREEZER</p>", "conditions": [12, 800, "v", 24000], "internal_node_id": "0.0-96.0", "trial": 3, "time_elapsed": 1003031, "serialpos": 3, "key_press": -1, "wordID": 603, "type": "PRES_VIS", "trial_index": 132}, "uniqueid": "MTK1562:345LHZDEDYZGDIWPQSV7N06JNJ1U3P", "dateTime": 1515971069614}, {"current_trial": 133, "trialdata": {"rt": -1, "trial_type": "single-stim", "word": "pilot", "stimulus": "<p id=\"stim\">PILOT</p>", "conditions": [12, 800, "v", 24000], "internal_node_id": "0.0-97.0", "trial": 3, "time_elapsed": 1004934, "serialpos": 4, "key_press": -1, "wordID": 1069, "type": "PRES_VIS", "trial_index": 133}, "uniqueid": "MTK1562:345LHZDEDYZGDIWPQSV7N06JNJ1U3P", "dateTime": 1515971071517}, {"current_trial": 134, "trialdata": {"rt": -1, "trial_type": "single-stim", "word": "kleenex", "stimulus": "<p id=\"stim\">KLEENEX</p>", "conditions": [12, 800, "v", 24000], "internal_node_id": "0.0-98.0", "trial": 3, "time_elapsed": 1006899, "serialpos": 5, "key_press": -1, "wordID": 781, "type": "PRES_VIS", "trial_index": 134}, "uniqueid": "MTK1562:345LHZDEDYZGDIWPQSV7N06JNJ1U3P", "dateTime": 1515971073482}, {"current_trial": 135, "trialdata": {"rt": -1, "trial_type": "single-stim", "word": "goblin", "stimulus": "<p id=\"stim\">GOBLIN</p>", "conditions": [12, 800, "v", 24000], "internal_node_id": "0.0-99.0", "trial": 3, "time_elapsed": 1008537, "serialpos": 6, "key_press": -1, "wordID": 644, "type": "PRES_VIS", "trial_index": 135}, "uniqueid": "MTK1562:345LHZDEDYZGDIWPQSV7N06JNJ1U3P", "dateTime": 1515971075120}, {"current_trial": 136, "trialdata": {"rt": -1, "trial_type": "single-stim", "word": "temple", "stimulus": "<p id=\"stim\">TEMPLE</p>", "conditions": [12, 800, "v", 24000], "internal_node_id": "0.0-100.0", "trial": 3, "time_elapsed": 1010403, "serialpos": 7, "key_press": -1, "wordID": 1447, "type": "PRES_VIS", "trial_index": 136}, "uniqueid": "MTK1562:345LHZDEDYZGDIWPQSV7N06JNJ1U3P", "dateTime": 1515971076986}, {"current_trial": 137, "trialdata": {"rt": -1, "trial_type": "single-stim", "word": "orchid", "stimulus": "<p id=\"stim\">ORCHID</p>", "conditions": [12, 800, "v", 24000], "internal_node_id": "0.0-101.0", "trial": 3, "time_elapsed": 1012166, "serialpos": 8, "key_press": -1, "wordID": 981, "type": "PRES_VIS", "trial_index": 137}, "uniqueid": "MTK1562:345LHZDEDYZGDIWPQSV7N06JNJ1U3P", "dateTime": 1515971078749}, {"current_trial": 138, "trialdata": {"rt": -1, "trial_type": "single-stim", "word": "wagon", "stimulus": "<p id=\"stim\">WAGON</p>", "conditions": [12, 800, "v", 24000], "internal_node_id": "0.0-102.0", "trial": 3, "time_elapsed": 1014137, "serialpos": 9, "key_press": -1, "wordID": 1577, "type": "PRES_VIS", "trial_index": 138}, "uniqueid": "MTK1562:345LHZDEDYZGDIWPQSV7N06JNJ1U3P", "dateTime": 1515971080720}, {"current_trial": 139, "trialdata": {"rt": -1, "trial_type": "single-stim", "word": "possum", "stimulus": "<p id=\"stim\">POSSUM</p>", "conditions": [12, 800, "v", 24000], "internal_node_id": "0.0-103.0", "trial": 3, "time_elapsed": 1015982, "serialpos": 10, "key_press": -1, "wordID": 1111, "type": "PRES_VIS", "trial_index": 139}, "uniqueid": "MTK1562:345LHZDEDYZGDIWPQSV7N06JNJ1U3P", "dateTime": 1515971082565}, {"current_trial": 140, "trialdata": {"rt": -1, "trial_type": "single-stim", "word": "snake", "stimulus": "<p id=\"stim\">SNAKE</p>", "conditions": [12, 800, "v", 24000], "internal_node_id": "0.0-104.0", "trial": 3, "time_elapsed": 1017889, "serialpos": 11, "key_press": -1, "wordID": 1332, "type": "PRES_VIS", "trial_index": 140}, "uniqueid": "MTK1562:345LHZDEDYZGDIWPQSV7N06JNJ1U3P", "dateTime": 1515971084472}, {"current_trial": 141, "trialdata": {"rt": -1, "trial_type": "single-stim", "stimulus": "", "internal_node_id": "0.0-105.0-0.0", "time_elapsed": 1020428, "key_press": -1, "type": "PRE_RECALL_DELAY", "trial_index": 141}, "uniqueid": "MTK1562:345LHZDEDYZGDIWPQSV7N06JNJ1U3P", "dateTime": 1515971087012}, {"current_trial": 142, "trialdata": {"rt": -1000, "trial_type": "single-audio", "stimulus": "/static/audio/400Hz.wav", "internal_node_id": "0.0-106.0", "time_elapsed": 1020931, "key_press": -1, "type": "PRE_RECALL_ALERT", "trial_index": 142}, "uniqueid": "MTK1562:345LHZDEDYZGDIWPQSV7N06JNJ1U3P", "dateTime": 1515971087514}, {"current_trial": 143, "trialdata": {"rt": [5326, 8958, 13654, 16574, 20822, 22838], "recwords": ["space", "pilot", "temple", "wagon", "truck", "snake"], "key_times": [3391, 3526, 3679, 3975, 4087, 5326, 6415, 7167, 7463, 7671, 8007, 8958, 9727, 9943, 11231, 11558, 11793, 12103, 12343, 12591, 13654, 15143, 15351, 15686, 15895, 16014, 16574, 16959, 17191, 17583, 18055, 19423, 19871, 20030, 20822, 21502, 21663, 21847, 22007, 22238, 22838], "trial_type": "free-recall", "conditions": [12, 800, "v", 24000], "internal_node_id": "0.0-107.0-0.0", "key_presses": [83, 80, 65, 67, 69, 13, 80, 73, 76, 79, 84, 13, 84, 77, 8, 69, 77, 80, 76, 69, 13, 87, 65, 71, 79, 78, 13, 84, 82, 85, 86, 8, 67, 75, 13, 83, 78, 65, 75, 69, 13], "trial": 3, "time_elapsed": 1080936, "type": "FREE_RECALL", "trial_index": 143}, "uniqueid": "MTK1562:345LHZDEDYZGDIWPQSV7N06JNJ1U3P", "dateTime": 1515971147524}, {"current_trial": 144, "trialdata": {"rt": 1317, "trial_type": "text", "internal_node_id": "0.0-108.0", "time_elapsed": 1084259, "key_press": 13, "type": "INSTRUCTIONS", "trial_index": 144}, "uniqueid": "MTK1562:345LHZDEDYZGDIWPQSV7N06JNJ1U3P", "dateTime": 1515971150843}, {"current_trial": 145, "trialdata": {"rt": [2069, 4173, 5917, 7965, 10477, 14541, 17429, 19589, 21365], "trial_type": "math-distractor", "key_times": [1718, 1806, 2069, 3862, 3965, 4173, 5494, 5589, 5917, 7606, 7669, 7965, 9965, 10189, 10477, 12461, 13605, 14190, 14301, 14541, 16925, 17173, 17429, 19038, 19326, 19589, 20901, 21109, 21365], "responses": ["16", "20", "15", "15", "14", "10", "17", "17", "14"], "num2": [6, 8, 7, 6, 1, 6, 8, 8, 2, 9], "num3": [5, 7, 5, 3, 8, 2, 3, 7, 4, 9], "conditions": [24, 1600, "v", 24000], "internal_node_id": "0.0-109.0", "key_presses": [97, 102, 13, 98, 96, 13, 97, 101, 13, 97, 101, 13, 97, 100, 13, 98, 8, 97, 96, 13, 97, 103, 13, 97, 103, 13, 97, 100, 13], "trial": 4, "time_elapsed": 1110263, "type": "DISTRACTOR", "trial_index": 145, "num1": [5, 5, 3, 4, 5, 2, 6, 2, 8, 8]}, "uniqueid": "MTK1562:345LHZDEDYZGDIWPQSV7N06JNJ1U3P", "dateTime": 1515971176846}, {"current_trial": 146, "trialdata": {"rt": -1, "trial_type": "single-stim", "stimulus": "<p id=\"stim\">10</p>", "internal_node_id": "0.0-110.0-0.0", "time_elapsed": 1113266, "key_press": -1, "trial_index": 146}, "uniqueid": "MTK1562:345LHZDEDYZGDIWPQSV7N06JNJ1U3P", "dateTime": 1515971179849}, {"current_trial": 147, "trialdata": {"rt": -1, "trial_type": "single-stim", "stimulus": "<p id=\"stim\">9</p>", "internal_node_id": "0.0-110.0-1.0", "time_elapsed": 1114268, "key_press": -1, "trial_index": 147}, "uniqueid": "MTK1562:345LHZDEDYZGDIWPQSV7N06JNJ1U3P", "dateTime": 1515971180851}, {"current_trial": 148, "trialdata": {"rt": -1, "trial_type": "single-stim", "stimulus": "<p id=\"stim\">8</p>", "internal_node_id": "0.0-110.0-2.0", "time_elapsed": 1115269, "key_press": -1, "trial_index": 148}, "uniqueid": "MTK1562:345LHZDEDYZGDIWPQSV7N06JNJ1U3P", "dateTime": 1515971181852}, {"current_trial": 149, "trialdata": {"rt": -1, "trial_type": "single-stim", "stimulus": "<p id=\"stim\">7</p>", "internal_node_id": "0.0-110.0-3.0", "time_elapsed": 1116271, "key_press": -1, "trial_index": 149}, "uniqueid": "MTK1562:345LHZDEDYZGDIWPQSV7N06JNJ1U3P", "dateTime": 1515971182854}, {"current_trial": 150, "trialdata": {"rt": -1, "trial_type": "single-stim", "stimulus": "<p id=\"stim\">6</p>", "internal_node_id": "0.0-110.0-4.0", "time_elapsed": 1117273, "key_press": -1, "trial_index": 150}, "uniqueid": "MTK1562:345LHZDEDYZGDIWPQSV7N06JNJ1U3P", "dateTime": 1515971183856}, {"current_trial": 151, "trialdata": {"rt": -1, "trial_type": "single-stim", "stimulus": "<p id=\"stim\">5</p>", "internal_node_id": "0.0-110.0-5.0", "time_elapsed": 1118275, "key_press": -1, "trial_index": 151}, "uniqueid": "MTK1562:345LHZDEDYZGDIWPQSV7N06JNJ1U3P", "dateTime": 1515971184858}, {"current_trial": 152, "trialdata": {"rt": -1, "trial_type": "single-stim", "stimulus": "<p id=\"stim\">4</p>", "internal_node_id": "0.0-110.0-6.0", "time_elapsed": 1119276, "key_press": -1, "trial_index": 152}, "uniqueid": "MTK1562:345LHZDEDYZGDIWPQSV7N06JNJ1U3P", "dateTime": 1515971185859}, {"current_trial": 153, "trialdata": {"rt": -1, "trial_type": "single-stim", "stimulus": "<p id=\"stim\">3</p>", "internal_node_id": "0.0-110.0-7.0", "time_elapsed": 1120277, "key_press": -1, "trial_index": 153}, "uniqueid": "MTK1562:345LHZDEDYZGDIWPQSV7N06JNJ1U3P", "dateTime": 1515971186860}, {"current_trial": 154, "trialdata": {"rt": -1, "trial_type": "single-stim", "stimulus": "<p id=\"stim\">2</p>", "internal_node_id": "0.0-110.0-8.0", "time_elapsed": 1121278, "key_press": -1, "trial_index": 154}, "uniqueid": "MTK1562:345LHZDEDYZGDIWPQSV7N06JNJ1U3P", "dateTime": 1515971187861}, {"current_trial": 155, "trialdata": {"rt": -1, "trial_type": "single-stim", "stimulus": "<p id=\"stim\">1</p>", "internal_node_id": "0.0-110.0-9.0", "time_elapsed": 1122280, "key_press": -1, "trial_index": 155}, "uniqueid": "MTK1562:345LHZDEDYZGDIWPQSV7N06JNJ1U3P", "dateTime": 1515971188863}, {"current_trial": 156, "trialdata": {"rt": -1, "trial_type": "single-stim", "stimulus": "<p id=\"stim\">+</p>", "internal_node_id": "0.0-111.0-0.0", "time_elapsed": 1123781, "key_press": -1, "type": "FIXATION", "trial_index": 156}, "uniqueid": "MTK1562:345LHZDEDYZGDIWPQSV7N06JNJ1U3P", "dateTime": 1515971190365}, {"current_trial": 157, "trialdata": {"rt": -1, "trial_type": "single-stim", "word": "skillet", "stimulus": "<p id=\"stim\">SKILLET</p>", "conditions": [24, 1600, "v", 24000], "internal_node_id": "0.0-112.0", "trial": 4, "time_elapsed": 1125383, "serialpos": 0, "key_press": -1, "wordID": 1316, "type": "PRES_VIS", "trial_index": 157}, "uniqueid": "MTK1562:345LHZDEDYZGDIWPQSV7N06JNJ1U3P", "dateTime": 1515971191966}, {"current_trial": 158, "trialdata": {"rt": -1, "trial_type": "single-stim", "word": "river", "stimulus": "<p id=\"stim\">RIVER</p>", "conditions": [24, 1600, "v", 24000], "internal_node_id": "0.0-113.0", "trial": 4, "time_elapsed": 1127978, "serialpos": 1, "key_press": -1, "wordID": 1193, "type": "PRES_VIS", "trial_index": 158}, "uniqueid": "MTK1562:345LHZDEDYZGDIWPQSV7N06JNJ1U3P", "dateTime": 1515971194562}, {"current_trial": 159, "trialdata": {"rt": -1, "trial_type": "single-stim", "word": "transplant", "stimulus": "<p id=\"stim\">TRANSPLANT</p>", "conditions": [24, 1600, "v", 24000], "internal_node_id": "0.0-114.0", "trial": 4, "time_elapsed": 1130569, "serialpos": 2, "key_press": -1, "wordID": 1495, "type": "PRES_VIS", "trial_index": 159}, "uniqueid": "MTK1562:345LHZDEDYZGDIWPQSV7N06JNJ1U3P", "dateTime": 1515971197152}, {"current_trial": 160, "trialdata": {"rt": -1, "trial_type": "single-stim", "word": "pliers", "stimulus": "<p id=\"stim\">PLIERS</p>", "conditions": [24, 1600, "v", 24000], "internal_node_id": "0.0-115.0", "trial": 4, "time_elapsed": 1133066, "serialpos": 3, "key_press": -1, "wordID": 1088, "type": "PRES_VIS", "trial_index": 160}, "uniqueid": "MTK1562:345LHZDEDYZGDIWPQSV7N06JNJ1U3P", "dateTime": 1515971199649}, {"current_trial": 161, "trialdata": {"rt": -1, "trial_type": "single-stim", "word": "wardrobe", "stimulus": "<p id=\"stim\">WARDROBE</p>", "conditions": [24, 1600, "v", 24000], "internal_node_id": "0.0-116.0", "trial": 4, "time_elapsed": 1135654, "serialpos": 4, "key_press": -1, "wordID": 1586, "type": "PRES_VIS", "trial_index": 161}, "uniqueid": "MTK1562:345LHZDEDYZGDIWPQSV7N06JNJ1U3P", "dateTime": 1515971202237}, {"current_trial": 162, "trialdata": {"rt": -1, "trial_type": "single-stim", "word": "clothes", "stimulus": "<p id=\"stim\">CLOTHES</p>", "conditions": [24, 1600, "v", 24000], "internal_node_id": "0.0-117.0", "trial": 4, "time_elapsed": 1138319, "serialpos": 5, "key_press": -1, "wordID": 326, "type": "PRES_VIS", "trial_index": 162}, "uniqueid": "MTK1562:345LHZDEDYZGDIWPQSV7N06JNJ1U3P", "dateTime": 1515971204902}, {"current_trial": 163, "trialdata": {"rt": -1, "trial_type": "single-stim", "word": "mister", "stimulus": "<p id=\"stim\">MISTER</p>", "conditions": [24, 1600, "v", 24000], "internal_node_id": "0.0-118.0", "trial": 4, "time_elapsed": 1141071, "serialpos": 6, "key_press": -1, "wordID": 900, "type": "PRES_VIS", "trial_index": 163}, "uniqueid": "MTK1562:345LHZDEDYZGDIWPQSV7N06JNJ1U3P", "dateTime": 1515971207655}, {"current_trial": 164, "trialdata": {"rt": -1, "trial_type": "single-stim", "word": "cyclone", "stimulus": "<p id=\"stim\">CYCLONE</p>", "conditions": [24, 1600, "v", 24000], "internal_node_id": "0.0-119.0", "trial": 4, "time_elapsed": 1143491, "serialpos": 7, "key_press": -1, "wordID": 430, "type": "PRES_VIS", "trial_index": 164}, "uniqueid": "MTK1562:345LHZDEDYZGDIWPQSV7N06JNJ1U3P", "dateTime": 1515971210074}, {"current_trial": 165, "trialdata": {"rt": -1, "trial_type": "single-stim", "word": "catcher", "stimulus": "<p id=\"stim\">CATCHER</p>", "conditions": [24, 1600, "v", 24000], "internal_node_id": "0.0-120.0", "trial": 4, "time_elapsed": 1146223, "serialpos": 8, "key_press": -1, "wordID": 257, "type": "PRES_VIS", "trial_index": 165}, "uniqueid": "MTK1562:345LHZDEDYZGDIWPQSV7N06JNJ1U3P", "dateTime": 1515971212807}, {"current_trial": 166, "trialdata": {"rt": -1, "trial_type": "single-stim", "word": "flute", "stimulus": "<p id=\"stim\">FLUTE</p>", "conditions": [24, 1600, "v", 24000], "internal_node_id": "0.0-121.0", "trial": 4, "time_elapsed": 1148963, "serialpos": 9, "key_press": -1, "wordID": 584, "type": "PRES_VIS", "trial_index": 166}, "uniqueid": "MTK1562:345LHZDEDYZGDIWPQSV7N06JNJ1U3P", "dateTime": 1515971215547}, {"current_trial": 167, "trialdata": {"rt": -1, "trial_type": "single-stim", "word": "mailman", "stimulus": "<p id=\"stim\">MAILMAN</p>", "conditions": [24, 1600, "v", 24000], "internal_node_id": "0.0-122.0", "trial": 4, "time_elapsed": 1151648, "serialpos": 10, "key_press": -1, "wordID": 857, "type": "PRES_VIS", "trial_index": 167}, "uniqueid": "MTK1562:345LHZDEDYZGDIWPQSV7N06JNJ1U3P", "dateTime": 1515971218231}, {"current_trial": 168, "trialdata": {"rt": -1, "trial_type": "single-stim", "word": "brook", "stimulus": "<p id=\"stim\">BROOK</p>", "conditions": [24, 1600, "v", 24000], "internal_node_id": "0.0-123.0", "trial": 4, "time_elapsed": 1154326, "serialpos": 11, "key_press": -1, "wordID": 176, "type": "PRES_VIS", "trial_index": 168}, "uniqueid": "MTK1562:345LHZDEDYZGDIWPQSV7N06JNJ1U3P", "dateTime": 1515971220909}, {"current_trial": 169, "trialdata": {"rt": -1, "trial_type": "single-stim", "word": "japan", "stimulus": "<p id=\"stim\">JAPAN</p>", "conditions": [24, 1600, "v", 24000], "internal_node_id": "0.0-124.0", "trial": 4, "time_elapsed": 1156742, "serialpos": 12, "key_press": -1, "wordID": 748, "type": "PRES_VIS", "trial_index": 169}, "uniqueid": "MTK1562:345LHZDEDYZGDIWPQSV7N06JNJ1U3P", "dateTime": 1515971223325}, {"current_trial": 170, "trialdata": {"rt": -1, "trial_type": "single-stim", "word": "empire", "stimulus": "<p id=\"stim\">EMPIRE</p>", "conditions": [24, 1600, "v", 24000], "internal_node_id": "0.0-125.0", "trial": 4, "time_elapsed": 1159199, "serialpos": 13, "key_press": -1, "wordID": 529, "type": "PRES_VIS", "trial_index": 170}, "uniqueid": "MTK1562:345LHZDEDYZGDIWPQSV7N06JNJ1U3P", "dateTime": 1515971225782}, {"current_trial": 171, "trialdata": {"rt": -1, "trial_type": "single-stim", "word": "sister", "stimulus": "<p id=\"stim\">SISTER</p>", "conditions": [24, 1600, "v", 24000], "internal_node_id": "0.0-126.0", "trial": 4, "time_elapsed": 1161770, "serialpos": 14, "key_press": -1, "wordID": 1311, "type": "PRES_VIS", "trial_index": 171}, "uniqueid": "MTK1562:345LHZDEDYZGDIWPQSV7N06JNJ1U3P", "dateTime": 1515971228353}, {"current_trial": 172, "trialdata": {"rt": -1, "trial_type": "single-stim", "word": "brother", "stimulus": "<p id=\"stim\">BROTHER</p>", "conditions": [24, 1600, "v", 24000], "internal_node_id": "0.0-127.0", "trial": 4, "time_elapsed": 1164488, "serialpos": 15, "key_press": -1, "wordID": 178, "type": "PRES_VIS", "trial_index": 172}, "uniqueid": "MTK1562:345LHZDEDYZGDIWPQSV7N06JNJ1U3P", "dateTime": 1515971231071}, {"current_trial": 173, "trialdata": {"rt": -1, "trial_type": "single-stim", "word": "lily", "stimulus": "<p id=\"stim\">LILY</p>", "conditions": [24, 1600, "v", 24000], "internal_node_id": "0.0-128.0", "trial": 4, "time_elapsed": 1167094, "serialpos": 16, "key_press": -1, "wordID": 820, "type": "PRES_VIS", "trial_index": 173}, "uniqueid": "MTK1562:345LHZDEDYZGDIWPQSV7N06JNJ1U3P", "dateTime": 1515971233677}, {"current_trial": 174, "trialdata": {"rt": -1, "trial_type": "single-stim", "word": "france", "stimulus": "<p id=\"stim\">FRANCE</p>", "conditions": [24, 1600, "v", 24000], "internal_node_id": "0.0-129.0", "trial": 4, "time_elapsed": 1169762, "serialpos": 17, "key_press": -1, "wordID": 600, "type": "PRES_VIS", "trial_index": 174}, "uniqueid": "MTK1562:345LHZDEDYZGDIWPQSV7N06JNJ1U3P", "dateTime": 1515971236345}, {"current_trial": 175, "trialdata": {"rt": -1, "trial_type": "single-stim", "word": "gazelle", "stimulus": "<p id=\"stim\">GAZELLE</p>", "conditions": [24, 1600, "v", 24000], "internal_node_id": "0.0-130.0", "trial": 4, "time_elapsed": 1172421, "serialpos": 18, "key_press": -1, "wordID": 627, "type": "PRES_VIS", "trial_index": 175}, "uniqueid": "MTK1562:345LHZDEDYZGDIWPQSV7N06JNJ1U3P", "dateTime": 1515971239004}, {"current_trial": 176, "trialdata": {"rt": -1, "trial_type": "single-stim", "word": "airplane", "stimulus": "<p id=\"stim\">AIRPLANE</p>", "conditions": [24, 1600, "v", 24000], "internal_node_id": "0.0-131.0", "trial": 4, "time_elapsed": 1175039, "serialpos": 19, "key_press": -1, "wordID": 11, "type": "PRES_VIS", "trial_index": 176}, "uniqueid": "MTK1562:345LHZDEDYZGDIWPQSV7N06JNJ1U3P", "dateTime": 1515971241622}, {"current_trial": 177, "trialdata": {"rt": -1, "trial_type": "single-stim", "word": "outdoors", "stimulus": "<p id=\"stim\">OUTDOORS</p>", "conditions": [24, 1600, "v", 24000], "internal_node_id": "0.0-132.0", "trial": 4, "time_elapsed": 1177478, "serialpos": 20, "key_press": -1, "wordID": 986, "type": "PRES_VIS", "trial_index": 177}, "uniqueid": "MTK1562:345LHZDEDYZGDIWPQSV7N06JNJ1U3P", "dateTime": 1515971244062}, {"current_trial": 178, "trialdata": {"rt": -1, "trial_type": "single-stim", "word": "sunset", "stimulus": "<p id=\"stim\">SUNSET</p>", "conditions": [24, 1600, "v", 24000], "internal_node_id": "0.0-133.0", "trial": 4, "time_elapsed": 1180122, "serialpos": 21, "key_press": -1, "wordID": 1407, "type": "PRES_VIS", "trial_index": 178}, "uniqueid": "MTK1562:345LHZDEDYZGDIWPQSV7N06JNJ1U3P", "dateTime": 1515971246705}, {"current_trial": 179, "trialdata": {"rt": -1, "trial_type": "single-stim", "word": "seagull", "stimulus": "<p id=\"stim\">SEAGULL</p>", "conditions": [24, 1600, "v", 24000], "internal_node_id": "0.0-134.0", "trial": 4, "time_elapsed": 1182745, "serialpos": 22, "key_press": -1, "wordID": 1260, "type": "PRES_VIS", "trial_index": 179}, "uniqueid": "MTK1562:345LHZDEDYZGDIWPQSV7N06JNJ1U3P", "dateTime": 1515971249328}, {"current_trial": 180, "trialdata": {"rt": -1, "trial_type": "single-stim", "word": "country", "stimulus": "<p id=\"stim\">COUNTRY</p>", "conditions": [24, 1600, "v", 24000], "internal_node_id": "0.0-135.0", "trial": 4, "time_elapsed": 1185482, "serialpos": 23, "key_press": -1, "wordID": 387, "type": "PRES_VIS", "trial_index": 180}, "uniqueid": "MTK1562:345LHZDEDYZGDIWPQSV7N06JNJ1U3P", "dateTime": 1515971252065}, {"current_trial": 181, "trialdata": {"rt": -1, "trial_type": "single-stim", "stimulus": "", "internal_node_id": "0.0-136.0-0.0", "time_elapsed": 1187879, "key_press": -1, "type": "PRE_RECALL_DELAY", "trial_index": 181}, "uniqueid": "MTK1562:345LHZDEDYZGDIWPQSV7N06JNJ1U3P", "dateTime": 1515971254462}, {"current_trial": 182, "trialdata": {"rt": -1000, "trial_type": "single-audio", "stimulus": "/static/audio/400Hz.wav", "internal_node_id": "0.0-137.0", "time_elapsed": 1188380, "key_press": -1, "type": "PRE_RECALL_ALERT", "trial_index": 182}, "uniqueid": "MTK1562:345LHZDEDYZGDIWPQSV7N06JNJ1U3P", "dateTime": 1515971254963}, {"current_trial": 183, "trialdata": {"rt": [3244, 6196, 8796, 12540, 16116, 19420, 22725, 26292, 29197, 31276], "recwords": ["sister", "brother", "france", "japan", "pliers", "clothes", "wardrobe", "mailman", "flute", "mister"], "key_times": [1319, 1413, 1557, 1925, 2116, 2205, 3244, 3989, 4198, 4661, 4925, 5076, 5229, 5309, 6196, 7509, 7709, 7965, 8108, 8293, 8413, 8796, 9221, 9389, 9860, 10109, 10245, 12540, 13693, 13941, 14189, 14541, 14653, 15029, 16116, 17525, 17661, 17884, 18221, 18364, 18788, 19132, 19420, 19860, 20021, 20292, 20631, 20957, 21437, 21773, 21981, 22725, 23244, 23357, 23557, 23685, 24269, 24447, 25132, 26292, 27557, 27685, 28029, 28405, 28557, 29197, 29741, 29860, 30045, 30317, 30500, 30629, 31276], "trial_type": "free-recall", "conditions": [24, 1600, "v", 24000], "internal_node_id": "0.0-138.0-0.0", "key_presses": [83, 73, 83, 84, 69, 82, 13, 66, 82, 79, 84, 72, 69, 82, 13, 70, 82, 65, 78, 67, 69, 13, 74, 65, 80, 65, 78, 13, 80, 76, 73, 69, 82, 83, 13, 67, 76, 79, 84, 72, 69, 83, 13, 87, 65, 82, 68, 82, 79, 66, 69, 13, 77, 65, 73, 76, 77, 65, 78, 13, 70, 76, 85, 84, 69, 13, 77, 73, 83, 84, 69, 82, 13], "trial": 4, "time_elapsed": 1248384, "type": "FREE_RECALL", "trial_index": 183}, "uniqueid": "MTK1562:345LHZDEDYZGDIWPQSV7N06JNJ1U3P", "dateTime": 1515971314974}, {"current_trial": 184, "trialdata": {"rt": 19322, "trial_type": "text", "internal_node_id": "0.0-139.0", "time_elapsed": 1269714, "key_press": 13, "type": "INSTRUCTIONS", "trial_index": 184}, "uniqueid": "MTK1562:345LHZDEDYZGDIWPQSV7N06JNJ1U3P", "dateTime": 1515971336298}, {"current_trial": 185, "trialdata": {"rt": [6459, 9867], "trial_type": "math-distractor", "key_times": [4332, 5508, 6075, 6276, 6459, 9531, 9708, 9867], "responses": ["25", "22"], "num2": [7, 9, 7], "num3": [9, 5, 1], "conditions": [24, 1600, "v", 12000], "internal_node_id": "0.0-140.0", "key_presses": [97, 8, 98, 101, 13, 98, 98, 13], "trial": 5, "time_elapsed": 1283719, "type": "DISTRACTOR", "trial_index": 185, "num1": [9, 8, 6]}, "uniqueid": "MTK1562:345LHZDEDYZGDIWPQSV7N06JNJ1U3P", "dateTime": 1515971350302}, {"current_trial": 186, "trialdata": {"rt": -1, "trial_type": "single-stim", "stimulus": "<p id=\"stim\">10</p>", "internal_node_id": "0.0-141.0-0.0", "time_elapsed": 1286721, "key_press": -1, "trial_index": 186}, "uniqueid": "MTK1562:345LHZDEDYZGDIWPQSV7N06JNJ1U3P", "dateTime": 1515971353304}, {"current_trial": 187, "trialdata": {"rt": -1, "trial_type": "single-stim", "stimulus": "<p id=\"stim\">9</p>", "internal_node_id": "0.0-141.0-1.0", "time_elapsed": 1287723, "key_press": -1, "trial_index": 187}, "uniqueid": "MTK1562:345LHZDEDYZGDIWPQSV7N06JNJ1U3P", "dateTime": 1515971354306}, {"current_trial": 188, "trialdata": {"rt": -1, "trial_type": "single-stim", "stimulus": "<p id=\"stim\">8</p>", "internal_node_id": "0.0-141.0-2.0", "time_elapsed": 1288724, "key_press": -1, "trial_index": 188}, "uniqueid": "MTK1562:345LHZDEDYZGDIWPQSV7N06JNJ1U3P", "dateTime": 1515971355308}, {"current_trial": 189, "trialdata": {"rt": -1, "trial_type": "single-stim", "stimulus": "<p id=\"stim\">7</p>", "internal_node_id": "0.0-141.0-3.0", "time_elapsed": 1289726, "key_press": -1, "trial_index": 189}, "uniqueid": "MTK1562:345LHZDEDYZGDIWPQSV7N06JNJ1U3P", "dateTime": 1515971356309}, {"current_trial": 190, "trialdata": {"rt": -1, "trial_type": "single-stim", "stimulus": "<p id=\"stim\">6</p>", "internal_node_id": "0.0-141.0-4.0", "time_elapsed": 1290728, "key_press": -1, "trial_index": 190}, "uniqueid": "MTK1562:345LHZDEDYZGDIWPQSV7N06JNJ1U3P", "dateTime": 1515971357311}, {"current_trial": 191, "trialdata": {"rt": -1, "trial_type": "single-stim", "stimulus": "<p id=\"stim\">5</p>", "internal_node_id": "0.0-141.0-5.0", "time_elapsed": 1291730, "key_press": -1, "trial_index": 191}, "uniqueid": "MTK1562:345LHZDEDYZGDIWPQSV7N06JNJ1U3P", "dateTime": 1515971358313}, {"current_trial": 192, "trialdata": {"rt": -1, "trial_type": "single-stim", "stimulus": "<p id=\"stim\">4</p>", "internal_node_id": "0.0-141.0-6.0", "time_elapsed": 1292732, "key_press": -1, "trial_index": 192}, "uniqueid": "MTK1562:345LHZDEDYZGDIWPQSV7N06JNJ1U3P", "dateTime": 1515971359315}, {"current_trial": 193, "trialdata": {"rt": -1, "trial_type": "single-stim", "stimulus": "<p id=\"stim\">3</p>", "internal_node_id": "0.0-141.0-7.0", "time_elapsed": 1293733, "key_press": -1, "trial_index": 193}, "uniqueid": "MTK1562:345LHZDEDYZGDIWPQSV7N06JNJ1U3P", "dateTime": 1515971360317}, {"current_trial": 194, "trialdata": {"rt": -1, "trial_type": "single-stim", "stimulus": "<p id=\"stim\">2</p>", "internal_node_id": "0.0-141.0-8.0", "time_elapsed": 1294735, "key_press": -1, "trial_index": 194}, "uniqueid": "MTK1562:345LHZDEDYZGDIWPQSV7N06JNJ1U3P", "dateTime": 1515971361318}, {"current_trial": 195, "trialdata": {"rt": -1, "trial_type": "single-stim", "stimulus": "<p id=\"stim\">1</p>", "internal_node_id": "0.0-141.0-9.0", "time_elapsed": 1295738, "key_press": -1, "trial_index": 195}, "uniqueid": "MTK1562:345LHZDEDYZGDIWPQSV7N06JNJ1U3P", "dateTime": 1515971362321}, {"current_trial": 196, "trialdata": {"rt": -1, "trial_type": "single-stim", "stimulus": "<p id=\"stim\">+</p>", "internal_node_id": "0.0-142.0-0.0", "time_elapsed": 1297239, "key_press": -1, "type": "FIXATION", "trial_index": 196}, "uniqueid": "MTK1562:345LHZDEDYZGDIWPQSV7N06JNJ1U3P", "dateTime": 1515971363822}, {"current_trial": 197, "trialdata": {"rt": -1, "trial_type": "single-stim", "word": "barrel", "stimulus": "<p id=\"stim\">BARREL</p>", "conditions": [24, 1600, "v", 12000], "internal_node_id": "0.0-143.0", "trial": 5, "time_elapsed": 1298841, "serialpos": 0, "key_press": -1, "wordID": 90, "type": "PRES_VIS", "trial_index": 197}, "uniqueid": "MTK1562:345LHZDEDYZGDIWPQSV7N06JNJ1U3P", "dateTime": 1515971365424}, {"current_trial": 198, "trialdata": {"rt": -1, "trial_type": "single-stim", "word": "gallon", "stimulus": "<p id=\"stim\">GALLON</p>", "conditions": [24, 1600, "v", 12000], "internal_node_id": "0.0-144.0", "trial": 5, "time_elapsed": 1301524, "serialpos": 1, "key_press": -1, "wordID": 617, "type": "PRES_VIS", "trial_index": 198}, "uniqueid": "MTK1562:345LHZDEDYZGDIWPQSV7N06JNJ1U3P", "dateTime": 1515971368107}, {"current_trial": 199, "trialdata": {"rt": -1, "trial_type": "single-stim", "word": "oyster", "stimulus": "<p id=\"stim\">OYSTER</p>", "conditions": [24, 1600, "v", 12000], "internal_node_id": "0.0-145.0", "trial": 5, "time_elapsed": 1304273, "serialpos": 2, "key_press": -1, "wordID": 994, "type": "PRES_VIS", "trial_index": 199}, "uniqueid": "MTK1562:345LHZDEDYZGDIWPQSV7N06JNJ1U3P", "dateTime": 1515971370857}, {"current_trial": 200, "trialdata": {"rt": -1, "trial_type": "single-stim", "word": "piano", "stimulus": "<p id=\"stim\">PIANO</p>", "conditions": [24, 1600, "v", 12000], "internal_node_id": "0.0-146.0", "trial": 5, "time_elapsed": 1306912, "serialpos": 3, "key_press": -1, "wordID": 1056, "type": "PRES_VIS", "trial_index": 200}, "uniqueid": "MTK1562:345LHZDEDYZGDIWPQSV7N06JNJ1U3P", "dateTime": 1515971373496}, {"current_trial": 201, "trialdata": {"rt": -1, "trial_type": "single-stim", "word": "window", "stimulus": "<p id=\"stim\">WINDOW</p>", "conditions": [24, 1600, "v", 12000], "internal_node_id": "0.0-147.0", "trial": 5, "time_elapsed": 1309689, "serialpos": 4, "key_press": -1, "wordID": 1610, "type": "PRES_VIS", "trial_index": 201}, "uniqueid": "MTK1562:345LHZDEDYZGDIWPQSV7N06JNJ1U3P", "dateTime": 1515971376272}, {"current_trial": 202, "trialdata": {"rt": -1, "trial_type": "single-stim", "word": "tablet", "stimulus": "<p id=\"stim\">TABLET</p>", "conditions": [24, 1600, "v", 12000], "internal_node_id": "0.0-148.0", "trial": 5, "time_elapsed": 1312413, "serialpos": 5, "key_press": -1, "wordID": 1426, "type": "PRES_VIS", "trial_index": 202}, "uniqueid": "MTK1562:345LHZDEDYZGDIWPQSV7N06JNJ1U3P", "dateTime": 1515971378996}, {"current_trial": 203, "trialdata": {"rt": -1, "trial_type": "single-stim", "word": "cobra", "stimulus": "<p id=\"stim\">COBRA</p>", "conditions": [24, 1600, "v", 12000], "internal_node_id": "0.0-149.0", "trial": 5, "time_elapsed": 1315144, "serialpos": 6, "key_press": -1, "wordID": 335, "type": "PRES_VIS", "trial_index": 203}, "uniqueid": "MTK1562:345LHZDEDYZGDIWPQSV7N06JNJ1U3P", "dateTime": 1515971381727}, {"current_trial": 204, "trialdata": {"rt": -1, "trial_type": "single-stim", "word": "suitcase", "stimulus": "<p id=\"stim\">SUITCASE</p>", "conditions": [24, 1600, "v", 12000], "internal_node_id": "0.0-150.0", "trial": 5, "time_elapsed": 1317626, "serialpos": 7, "key_press": -1, "wordID": 1402, "type": "PRES_VIS", "trial_index": 204}, "uniqueid": "MTK1562:345LHZDEDYZGDIWPQSV7N06JNJ1U3P", "dateTime": 1515971384209}, {"current_trial": 205, "trialdata": {"rt": -1, "trial_type": "single-stim", "word": "shovel", "stimulus": "<p id=\"stim\">SHOVEL</p>", "conditions": [24, 1600, "v", 12000], "internal_node_id": "0.0-151.0", "trial": 5, "time_elapsed": 1320341, "serialpos": 8, "key_press": -1, "wordID": 1294, "type": "PRES_VIS", "trial_index": 205}, "uniqueid": "MTK1562:345LHZDEDYZGDIWPQSV7N06JNJ1U3P", "dateTime": 1515971386924}, {"current_trial": 206, "trialdata": {"rt": -1, "trial_type": "single-stim", "word": "dancer", "stimulus": "<p id=\"stim\">DANCER</p>", "conditions": [24, 1600, "v", 12000], "internal_node_id": "0.0-152.0", "trial": 5, "time_elapsed": 1323045, "serialpos": 9, "key_press": -1, "wordID": 436, "type": "PRES_VIS", "trial_index": 206}, "uniqueid": "MTK1562:345LHZDEDYZGDIWPQSV7N06JNJ1U3P", "dateTime": 1515971389628}, {"current_trial": 207, "trialdata": {"rt": -1, "trial_type": "single-stim", "word": "mustard", "stimulus": "<p id=\"stim\">MUSTARD</p>", "conditions": [24, 1600, "v", 12000], "internal_node_id": "0.0-153.0", "trial": 5, "time_elapsed": 1325663, "serialpos": 10, "key_press": -1, "wordID": 934, "type": "PRES_VIS", "trial_index": 207}, "uniqueid": "MTK1562:345LHZDEDYZGDIWPQSV7N06JNJ1U3P", "dateTime": 1515971392247}, {"current_trial": 208, "trialdata": {"rt": -1, "trial_type": "single-stim", "word": "guitar", "stimulus": "<p id=\"stim\">GUITAR</p>", "conditions": [24, 1600, "v", 12000], "internal_node_id": "0.0-154.0", "trial": 5, "time_elapsed": 1328442, "serialpos": 11, "key_press": -1, "wordID": 669, "type": "PRES_VIS", "trial_index": 208}, "uniqueid": "MTK1562:345LHZDEDYZGDIWPQSV7N06JNJ1U3P", "dateTime": 1515971395025}, {"current_trial": 209, "trialdata": {"rt": -1, "trial_type": "single-stim", "word": "pocket", "stimulus": "<p id=\"stim\">POCKET</p>", "conditions": [24, 1600, "v", 12000], "internal_node_id": "0.0-155.0", "trial": 5, "time_elapsed": 1330972, "serialpos": 12, "key_press": -1, "wordID": 1092, "type": "PRES_VIS", "trial_index": 209}, "uniqueid": "MTK1562:345LHZDEDYZGDIWPQSV7N06JNJ1U3P", "dateTime": 1515971397555}, {"current_trial": 210, "trialdata": {"rt": -1, "trial_type": "single-stim", "word": "kidney", "stimulus": "<p id=\"stim\">KIDNEY</p>", "conditions": [24, 1600, "v", 12000], "internal_node_id": "0.0-156.0", "trial": 5, "time_elapsed": 1333742, "serialpos": 13, "key_press": -1, "wordID": 775, "type": "PRES_VIS", "trial_index": 210}, "uniqueid": "MTK1562:345LHZDEDYZGDIWPQSV7N06JNJ1U3P", "dateTime": 1515971400325}, {"current_trial": 211, "trialdata": {"rt": -1, "trial_type": "single-stim", "word": "taxi", "stimulus": "<p id=\"stim\">TAXI</p>", "conditions": [24, 1600, "v", 12000], "internal_node_id": "0.0-157.0", "trial": 5, "time_elapsed": 1336407, "serialpos": 14, "key_press": -1, "wordID": 1437, "type": "PRES_VIS", "trial_index": 211}, "uniqueid": "MTK1562:345LHZDEDYZGDIWPQSV7N06JNJ1U3P", "dateTime": 1515971402990}, {"current_trial": 212, "trialdata": {"rt": -1, "trial_type": "single-stim", "word": "costume", "stimulus": "<p id=\"stim\">COSTUME</p>", "conditions": [24, 1600, "v", 12000], "internal_node_id": "0.0-158.0", "trial": 5, "time_elapsed": 1338953, "serialpos": 15, "key_press": -1, "wordID": 382, "type": "PRES_VIS", "trial_index": 212}, "uniqueid": "MTK1562:345LHZDEDYZGDIWPQSV7N06JNJ1U3P", "dateTime": 1515971405536}, {"current_trial": 213, "trialdata": {"rt": -1, "trial_type": "single-stim", "word": "briefcase", "stimulus": "<p id=\"stim\">BRIEFCASE</p>", "conditions": [24, 1600, "v", 12000], "internal_node_id": "0.0-159.0", "trial": 5, "time_elapsed": 1341656, "serialpos": 16, "key_press": -1, "wordID": 174, "type": "PRES_VIS", "trial_index": 213}, "uniqueid": "MTK1562:345LHZDEDYZGDIWPQSV7N06JNJ1U3P", "dateTime": 1515971408239}, {"current_trial": 214, "trialdata": {"rt": -1, "trial_type": "single-stim", "word": "cellar", "stimulus": "<p id=\"stim\">CELLAR</p>", "conditions": [24, 1600, "v", 12000], "internal_node_id": "0.0-160.0", "trial": 5, "time_elapsed": 1344121, "serialpos": 17, "key_press": -1, "wordID": 266, "type": "PRES_VIS", "trial_index": 214}, "uniqueid": "MTK1562:345LHZDEDYZGDIWPQSV7N06JNJ1U3P", "dateTime": 1515971410704}, {"current_trial": 215, "trialdata": {"rt": -1, "trial_type": "single-stim", "word": "beaker", "stimulus": "<p id=\"stim\">BEAKER</p>", "conditions": [24, 1600, "v", 12000], "internal_node_id": "0.0-161.0", "trial": 5, "time_elapsed": 1346921, "serialpos": 18, "key_press": -1, "wordID": 103, "type": "PRES_VIS", "trial_index": 215}, "uniqueid": "MTK1562:345LHZDEDYZGDIWPQSV7N06JNJ1U3P", "dateTime": 1515971413504}, {"current_trial": 216, "trialdata": {"rt": -1, "trial_type": "single-stim", "word": "crevice", "stimulus": "<p id=\"stim\">CREVICE</p>", "conditions": [24, 1600, "v", 12000], "internal_node_id": "0.0-162.0", "trial": 5, "time_elapsed": 1349620, "serialpos": 19, "key_press": -1, "wordID": 404, "type": "PRES_VIS", "trial_index": 216}, "uniqueid": "MTK1562:345LHZDEDYZGDIWPQSV7N06JNJ1U3P", "dateTime": 1515971416203}, {"current_trial": 217, "trialdata": {"rt": -1, "trial_type": "single-stim", "word": "supper", "stimulus": "<p id=\"stim\">SUPPER</p>", "conditions": [24, 1600, "v", 12000], "internal_node_id": "0.0-163.0", "trial": 5, "time_elapsed": 1352075, "serialpos": 20, "key_press": -1, "wordID": 1410, "type": "PRES_VIS", "trial_index": 217}, "uniqueid": "MTK1562:345LHZDEDYZGDIWPQSV7N06JNJ1U3P", "dateTime": 1515971418658}, {"current_trial": 218, "trialdata": {"rt": -1, "trial_type": "single-stim", "word": "blouse", "stimulus": "<p id=\"stim\">BLOUSE</p>", "conditions": [24, 1600, "v", 12000], "internal_node_id": "0.0-164.0", "trial": 5, "time_elapsed": 1354677, "serialpos": 21, "key_press": -1, "wordID": 138, "type": "PRES_VIS", "trial_index": 218}, "uniqueid": "MTK1562:345LHZDEDYZGDIWPQSV7N06JNJ1U3P", "dateTime": 1515971421261}, {"current_trial": 219, "trialdata": {"rt": -1, "trial_type": "single-stim", "word": "shirt", "stimulus": "<p id=\"stim\">SHIRT</p>", "conditions": [24, 1600, "v", 12000], "internal_node_id": "0.0-165.0", "trial": 5, "time_elapsed": 1357300, "serialpos": 22, "key_press": -1, "wordID": 1286, "type": "PRES_VIS", "trial_index": 219}, "uniqueid": "MTK1562:345LHZDEDYZGDIWPQSV7N06JNJ1U3P", "dateTime": 1515971423884}, {"current_trial": 220, "trialdata": {"rt": -1, "trial_type": "single-stim", "word": "sandwich", "stimulus": "<p id=\"stim\">SANDWICH</p>", "conditions": [24, 1600, "v", 12000], "internal_node_id": "0.0-166.0", "trial": 5, "time_elapsed": 1360094, "serialpos": 23, "key_press": -1, "wordID": 1231, "type": "PRES_VIS", "trial_index": 220}, "uniqueid": "MTK1562:345LHZDEDYZGDIWPQSV7N06JNJ1U3P", "dateTime": 1515971426678}, {"current_trial": 221, "trialdata": {"rt": -1, "trial_type": "single-stim", "stimulus": "", "internal_node_id": "0.0-167.0-0.0", "time_elapsed": 1362478, "key_press": -1, "type": "PRE_RECALL_DELAY", "trial_index": 221}, "uniqueid": "MTK1562:345LHZDEDYZGDIWPQSV7N06JNJ1U3P", "dateTime": 1515971429061}, {"current_trial": 222, "trialdata": {"rt": -1000, "trial_type": "single-audio", "stimulus": "/static/audio/400Hz.wav", "internal_node_id": "0.0-168.0", "time_elapsed": 1362979, "key_press": -1, "type": "PRE_RECALL_ALERT", "trial_index": 222}, "uniqueid": "MTK1562:345LHZDEDYZGDIWPQSV7N06JNJ1U3P", "dateTime": 1515971429563}, {"current_trial": 223, "trialdata": {"rt": [3292, 4988, 7812, 11364, 14516, 21212, 24788, 34859, 37092], "recwords": ["blose", "shirt", "sandwich", "paino", "guitar", "barrel", "oyster", "windoe", "tablet"], "key_times": [1783, 1940, 2156, 2420, 2540, 3292, 3652, 3916, 4012, 4444, 4660, 4988, 5397, 5637, 5804, 6068, 6421, 6580, 6916, 7061, 7812, 9652, 9796, 10164, 10572, 10700, 11364, 12165, 12428, 12932, 13148, 13372, 13700, 14516, 18508, 18620, 18916, 19101, 19364, 20524, 21212, 22284, 22596, 23532, 23868, 24052, 24164, 24788, 32685, 32980, 33108, 33452, 33612, 33756, 34859, 35644, 35876, 36196, 36356, 36524, 36636, 37092], "trial_type": "free-recall", "conditions": [24, 1600, "v", 12000], "internal_node_id": "0.0-169.0-0.0", "key_presses": [66, 76, 79, 83, 69, 13, 83, 72, 73, 82, 84, 13, 83, 65, 78, 68, 87, 73, 67, 72, 13, 80, 65, 73, 78, 79, 13, 71, 85, 73, 84, 65, 82, 13, 66, 65, 82, 82, 69, 76, 13, 79, 89, 83, 84, 69, 82, 13, 87, 73, 78, 68, 79, 69, 13, 84, 65, 66, 76, 69, 84, 13], "trial": 5, "time_elapsed": 1422984, "type": "FREE_RECALL", "trial_index": 223}, "uniqueid": "MTK1562:345LHZDEDYZGDIWPQSV7N06JNJ1U3P", "dateTime": 1515971489574}, {"current_trial": 224, "trialdata": {"rt": 5378, "trial_type": "text", "internal_node_id": "0.0-170.0", "time_elapsed": 1430370, "key_press": 13, "type": "INSTRUCTIONS", "trial_index": 224}, "uniqueid": "MTK1562:345LHZDEDYZGDIWPQSV7N06JNJ1U3P", "dateTime": 1515971496953}, {"current_trial": 225, "trialdata": {"rt": [2236, 6052, 8940, 10700, 12772, 14724, 16788, 18408, 20140, 23596], "trial_type": "math-distractor", "key_times": [1812, 1933, 2236, 5717, 5836, 6052, 8534, 8748, 8940, 10357, 10461, 10700, 12373, 12541, 12772, 14277, 14509, 14724, 16309, 16557, 16788, 18045, 18198, 18408, 19765, 19877, 20140, 21925, 22813, 23269, 23389, 23596], "responses": ["15", "20", "11", "16", "10", "14", "17", "10", "16", "20"], "num2": [8, 6, 2, 7, 1, 8, 5, 1, 9, 7, 5], "num3": [3, 6, 1, 6, 7, 2, 6, 1, 1, 7, 2], "conditions": [24, 1600, "v", 24000], "internal_node_id": "0.0-171.0", "key_presses": [97, 101, 13, 98, 96, 13, 97, 97, 13, 97, 102, 13, 97, 96, 13, 97, 100, 13, 97, 103, 13, 97, 96, 13, 97, 102, 13, 97, 8, 98, 96, 13], "trial": 6, "time_elapsed": 1456376, "type": "DISTRACTOR", "trial_index": 225, "num1": [4, 8, 8, 3, 2, 4, 6, 8, 6, 6, 6]}, "uniqueid": "MTK1562:345LHZDEDYZGDIWPQSV7N06JNJ1U3P", "dateTime": 1515971522959}, {"current_trial": 226, "trialdata": {"rt": -1, "trial_type": "single-stim", "stimulus": "<p id=\"stim\">10</p>", "internal_node_id": "0.0-172.0-0.0", "time_elapsed": 1459378, "key_press": -1, "trial_index": 226}, "uniqueid": "MTK1562:345LHZDEDYZGDIWPQSV7N06JNJ1U3P", "dateTime": 1515971525961}, {"current_trial": 227, "trialdata": {"rt": -1, "trial_type": "single-stim", "stimulus": "<p id=\"stim\">9</p>", "internal_node_id": "0.0-172.0-1.0", "time_elapsed": 1460381, "key_press": -1, "trial_index": 227}, "uniqueid": "MTK1562:345LHZDEDYZGDIWPQSV7N06JNJ1U3P", "dateTime": 1515971526964}, {"current_trial": 228, "trialdata": {"rt": -1, "trial_type": "single-stim", "stimulus": "<p id=\"stim\">8</p>", "internal_node_id": "0.0-172.0-2.0", "time_elapsed": 1461383, "key_press": -1, "trial_index": 228}, "uniqueid": "MTK1562:345LHZDEDYZGDIWPQSV7N06JNJ1U3P", "dateTime": 1515971527966}, {"current_trial": 229, "trialdata": {"rt": -1, "trial_type": "single-stim", "stimulus": "<p id=\"stim\">7</p>", "internal_node_id": "0.0-172.0-3.0", "time_elapsed": 1462384, "key_press": -1, "trial_index": 229}, "uniqueid": "MTK1562:345LHZDEDYZGDIWPQSV7N06JNJ1U3P", "dateTime": 1515971528967}, {"current_trial": 230, "trialdata": {"rt": -1, "trial_type": "single-stim", "stimulus": "<p id=\"stim\">6</p>", "internal_node_id": "0.0-172.0-4.0", "time_elapsed": 1463386, "key_press": -1, "trial_index": 230}, "uniqueid": "MTK1562:345LHZDEDYZGDIWPQSV7N06JNJ1U3P", "dateTime": 1515971529969}, {"current_trial": 231, "trialdata": {"rt": -1, "trial_type": "single-stim", "stimulus": "<p id=\"stim\">5</p>", "internal_node_id": "0.0-172.0-5.0", "time_elapsed": 1464388, "key_press": -1, "trial_index": 231}, "uniqueid": "MTK1562:345LHZDEDYZGDIWPQSV7N06JNJ1U3P", "dateTime": 1515971530971}, {"current_trial": 232, "trialdata": {"rt": -1, "trial_type": "single-stim", "stimulus": "<p id=\"stim\">4</p>", "internal_node_id": "0.0-172.0-6.0", "time_elapsed": 1465390, "key_press": -1, "trial_index": 232}, "uniqueid": "MTK1562:345LHZDEDYZGDIWPQSV7N06JNJ1U3P", "dateTime": 1515971531973}, {"current_trial": 233, "trialdata": {"rt": -1, "trial_type": "single-stim", "stimulus": "<p id=\"stim\">3</p>", "internal_node_id": "0.0-172.0-7.0", "time_elapsed": 1466392, "key_press": -1, "trial_index": 233}, "uniqueid": "MTK1562:345LHZDEDYZGDIWPQSV7N06JNJ1U3P", "dateTime": 1515971532975}, {"current_trial": 234, "trialdata": {"rt": -1, "trial_type": "single-stim", "stimulus": "<p id=\"stim\">2</p>", "internal_node_id": "0.0-172.0-8.0", "time_elapsed": 1467393, "key_press": -1, "trial_index": 234}, "uniqueid": "MTK1562:345LHZDEDYZGDIWPQSV7N06JNJ1U3P", "dateTime": 1515971533976}, {"current_trial": 235, "trialdata": {"rt": -1, "trial_type": "single-stim", "stimulus": "<p id=\"stim\">1</p>", "internal_node_id": "0.0-172.0-9.0", "time_elapsed": 1468394, "key_press": -1, "trial_index": 235}, "uniqueid": "MTK1562:345LHZDEDYZGDIWPQSV7N06JNJ1U3P", "dateTime": 1515971534977}, {"current_trial": 236, "trialdata": {"rt": -1, "trial_type": "single-stim", "stimulus": "<p id=\"stim\">+</p>", "internal_node_id": "0.0-173.0-0.0", "time_elapsed": 1469896, "key_press": -1, "type": "FIXATION", "trial_index": 236}, "uniqueid": "MTK1562:345LHZDEDYZGDIWPQSV7N06JNJ1U3P", "dateTime": 1515971536479}, {"current_trial": 237, "trialdata": {"rt": -1, "trial_type": "single-stim", "word": "plate", "stimulus": "<p id=\"stim\">PLATE</p>", "conditions": [24, 1600, "v", 24000], "internal_node_id": "0.0-174.0", "trial": 6, "time_elapsed": 1471497, "serialpos": 0, "key_press": -1, "wordID": 1085, "type": "PRES_VIS", "trial_index": 237}, "uniqueid": "MTK1562:345LHZDEDYZGDIWPQSV7N06JNJ1U3P", "dateTime": 1515971538080}, {"current_trial": 238, "trialdata": {"rt": -1, "trial_type": "single-stim", "word": "scarf", "stimulus": "<p id=\"stim\">SCARF</p>", "conditions": [24, 1600, "v", 24000], "internal_node_id": "0.0-175.0", "trial": 6, "time_elapsed": 1474152, "serialpos": 1, "key_press": -1, "wordID": 1245, "type": "PRES_VIS", "trial_index": 238}, "uniqueid": "MTK1562:345LHZDEDYZGDIWPQSV7N06JNJ1U3P", "dateTime": 1515971540736}, {"current_trial": 239, "trialdata": {"rt": -1, "trial_type": "single-stim", "word": "stomach", "stimulus": "<p id=\"stim\">STOMACH</p>", "conditions": [24, 1600, "v", 24000], "internal_node_id": "0.0-176.0", "trial": 6, "time_elapsed": 1476839, "serialpos": 2, "key_press": -1, "wordID": 1383, "type": "PRES_VIS", "trial_index": 239}, "uniqueid": "MTK1562:345LHZDEDYZGDIWPQSV7N06JNJ1U3P", "dateTime": 1515971543422}, {"current_trial": 240, "trialdata": {"rt": -1, "trial_type": "single-stim", "word": "table", "stimulus": "<p id=\"stim\">TABLE</p>", "conditions": [24, 1600, "v", 24000], "internal_node_id": "0.0-177.0", "trial": 6, "time_elapsed": 1479302, "serialpos": 3, "key_press": -1, "wordID": 1425, "type": "PRES_VIS", "trial_index": 240}, "uniqueid": "MTK1562:345LHZDEDYZGDIWPQSV7N06JNJ1U3P", "dateTime": 1515971545886}, {"current_trial": 241, "trialdata": {"rt": -1, "trial_type": "single-stim", "word": "sibling", "stimulus": "<p id=\"stim\">SIBLING</p>", "conditions": [24, 1600, "v", 24000], "internal_node_id": "0.0-178.0", "trial": 6, "time_elapsed": 1481911, "serialpos": 4, "key_press": -1, "wordID": 1300, "type": "PRES_VIS", "trial_index": 241}, "uniqueid": "MTK1562:345LHZDEDYZGDIWPQSV7N06JNJ1U3P", "dateTime": 1515971548494}, {"current_trial": 242, "trialdata": {"rt": -1, "trial_type": "single-stim", "word": "boyfriend", "stimulus": "<p id=\"stim\">BOYFRIEND</p>", "conditions": [24, 1600, "v", 24000], "internal_node_id": "0.0-179.0", "trial": 6, "time_elapsed": 1484321, "serialpos": 5, "key_press": -1, "wordID": 161, "type": "PRES_VIS", "trial_index": 242}, "uniqueid": "MTK1562:345LHZDEDYZGDIWPQSV7N06JNJ1U3P", "dateTime": 1515971550904}, {"current_trial": 243, "trialdata": {"rt": -1, "trial_type": "single-stim", "word": "cupboard", "stimulus": "<p id=\"stim\">CUPBOARD</p>", "conditions": [24, 1600, "v", 24000], "internal_node_id": "0.0-180.0", "trial": 6, "time_elapsed": 1487033, "serialpos": 6, "key_press": -1, "wordID": 424, "type": "PRES_VIS", "trial_index": 243}, "uniqueid": "MTK1562:345LHZDEDYZGDIWPQSV7N06JNJ1U3P", "dateTime": 1515971553616}, {"current_trial": 244, "trialdata": {"rt": -1, "trial_type": "single-stim", "word": "drug", "stimulus": "<p id=\"stim\">DRUG</p>", "conditions": [24, 1600, "v", 24000], "internal_node_id": "0.0-181.0", "trial": 6, "time_elapsed": 1489722, "serialpos": 7, "key_press": -1, "wordID": 500, "type": "PRES_VIS", "trial_index": 244}, "uniqueid": "MTK1562:345LHZDEDYZGDIWPQSV7N06JNJ1U3P", "dateTime": 1515971556305}, {"current_trial": 245, "trialdata": {"rt": -1, "trial_type": "single-stim", "word": "stove", "stimulus": "<p id=\"stim\">STOVE</p>", "conditions": [24, 1600, "v", 24000], "internal_node_id": "0.0-182.0", "trial": 6, "time_elapsed": 1492489, "serialpos": 8, "key_press": -1, "wordID": 1387, "type": "PRES_VIS", "trial_index": 245}, "uniqueid": "MTK1562:345LHZDEDYZGDIWPQSV7N06JNJ1U3P", "dateTime": 1515971559072}, {"current_trial": 246, "trialdata": {"rt": -1, "trial_type": "single-stim", "word": "cook", "stimulus": "<p id=\"stim\">COOK</p>", "conditions": [24, 1600, "v", 24000], "internal_node_id": "0.0-183.0", "trial": 6, "time_elapsed": 1495009, "serialpos": 9, "key_press": -1, "wordID": 371, "type": "PRES_VIS", "trial_index": 246}, "uniqueid": "MTK1562:345LHZDEDYZGDIWPQSV7N06JNJ1U3P", "dateTime": 1515971561592}, {"current_trial": 247, "trialdata": {"rt": -1, "trial_type": "single-stim", "word": "pudding", "stimulus": "<p id=\"stim\">PUDDING</p>", "conditions": [24, 1600, "v", 24000], "internal_node_id": "0.0-184.0", "trial": 6, "time_elapsed": 1497566, "serialpos": 10, "key_press": -1, "wordID": 1138, "type": "PRES_VIS", "trial_index": 247}, "uniqueid": "MTK1562:345LHZDEDYZGDIWPQSV7N06JNJ1U3P", "dateTime": 1515971564149}, {"current_trial": 248, "trialdata": {"rt": -1, "trial_type": "single-stim", "word": "kitchen", "stimulus": "<p id=\"stim\">KITCHEN</p>", "conditions": [24, 1600, "v", 24000], "internal_node_id": "0.0-185.0", "trial": 6, "time_elapsed": 1500135, "serialpos": 11, "key_press": -1, "wordID": 777, "type": "PRES_VIS", "trial_index": 248}, "uniqueid": "MTK1562:345LHZDEDYZGDIWPQSV7N06JNJ1U3P", "dateTime": 1515971566718}, {"current_trial": 249, "trialdata": {"rt": -1, "trial_type": "single-stim", "word": "glass", "stimulus": "<p id=\"stim\">GLASS</p>", "conditions": [24, 1600, "v", 24000], "internal_node_id": "0.0-186.0", "trial": 6, "time_elapsed": 1502638, "serialpos": 12, "key_press": -1, "wordID": 638, "type": "PRES_VIS", "trial_index": 249}, "uniqueid": "MTK1562:345LHZDEDYZGDIWPQSV7N06JNJ1U3P", "dateTime": 1515971569221}, {"current_trial": 250, "trialdata": {"rt": -1, "trial_type": "single-stim", "word": "scallop", "stimulus": "<p id=\"stim\">SCALLOP</p>", "conditions": [24, 1600, "v", 24000], "internal_node_id": "0.0-187.0", "trial": 6, "time_elapsed": 1505111, "serialpos": 13, "key_press": -1, "wordID": 1241, "type": "PRES_VIS", "trial_index": 250}, "uniqueid": "MTK1562:345LHZDEDYZGDIWPQSV7N06JNJ1U3P", "dateTime": 1515971571695}, {"current_trial": 251, "trialdata": {"rt": -1, "trial_type": "single-stim", "word": "saddle", "stimulus": "<p id=\"stim\">SADDLE</p>", "conditions": [24, 1600, "v", 24000], "internal_node_id": "0.0-188.0", "trial": 6, "time_elapsed": 1507865, "serialpos": 14, "key_press": -1, "wordID": 1220, "type": "PRES_VIS", "trial_index": 251}, "uniqueid": "MTK1562:345LHZDEDYZGDIWPQSV7N06JNJ1U3P", "dateTime": 1515971574449}, {"current_trial": 252, "trialdata": {"rt": -1, "trial_type": "single-stim", "word": "girl", "stimulus": "<p id=\"stim\">GIRL</p>", "conditions": [24, 1600, "v", 24000], "internal_node_id": "0.0-189.0", "trial": 6, "time_elapsed": 1510462, "serialpos": 15, "key_press": -1, "wordID": 636, "type": "PRES_VIS", "trial_index": 252}, "uniqueid": "MTK1562:345LHZDEDYZGDIWPQSV7N06JNJ1U3P", "dateTime": 1515971577045}, {"current_trial": 253, "trialdata": {"rt": -1, "trial_type": "single-stim", "word": "queen", "stimulus": "<p id=\"stim\">QUEEN</p>", "conditions": [24, 1600, "v", 24000], "internal_node_id": "0.0-190.0", "trial": 6, "time_elapsed": 1512933, "serialpos": 16, "key_press": -1, "wordID": 1148, "type": "PRES_VIS", "trial_index": 253}, "uniqueid": "MTK1562:345LHZDEDYZGDIWPQSV7N06JNJ1U3P", "dateTime": 1515971579516}, {"current_trial": 25