{"condition": 0, "counterbalance": 2006, "assignmentId": "3JJVG1YBEC44VYAN4K25X7CFA6FB5V", "workerId": "MTK1066", "hitId": "3OJX0UFJ0ZE050NBHZRFPTDL5DIU9O", "currenttrial": 626, "bonus": 0, "data": [{"uniqueid": "MTK1066:3JJVG1YBEC44VYAN4K25X7CFA6FB5V", "current_trial": 0, "dateTime": 1513026985366, "trialdata": {"rt": 118068, "key_press": 32, "type": "INSTRUCTIONS", "trial_type": "text", "trial_index": 0, "time_elapsed": 118071, "internal_node_id": "0.0-0.0"}}, {"uniqueid": "MTK1066:3JJVG1YBEC44VYAN4K25X7CFA6FB5V", "current_trial": 1, "dateTime": 1513027008200, "trialdata": {"rt": 22833, "key_press": 32, "type": "INSTRUCTIONS", "trial_type": "text", "trial_index": 1, "time_elapsed": 140906, "internal_node_id": "0.0-1.0"}}, {"uniqueid": "MTK1066:3JJVG1YBEC44VYAN4K25X7CFA6FB5V", "current_trial": 2, "dateTime": 1513027028537, "trialdata": {"rt": [20327], "responses": ["ocean"], "type": "AUDIO_TEST", "trial_type": "audio-test", "trial_index": 2, "time_elapsed": 161243, "internal_node_id": "0.0-2.0"}}, {"uniqueid": "MTK1066:3JJVG1YBEC44VYAN4K25X7CFA6FB5V", "current_trial": 3, "dateTime": 1513027038739, "trialdata": {"rt": [10198], "responses": ["crystal"], "type": "AUDIO_TEST", "trial_type": "audio-test", "trial_index": 3, "time_elapsed": 171445, "internal_node_id": "0.0-3.0"}}, {"uniqueid": "MTK1066:3JJVG1YBEC44VYAN4K25X7CFA6FB5V", "current_trial": 4, "dateTime": 1513027043707, "trialdata": {"rt": [4962], "responses": ["spice"], "type": "AUDIO_TEST", "trial_type": "audio-test", "trial_index": 4, "time_elapsed": 176413, "internal_node_id": "0.0-4.0"}}, {"uniqueid": "MTK1066:3JJVG1YBEC44VYAN4K25X7CFA6FB5V", "current_trial": 5, "dateTime": 1513027061936, "trialdata": {"rt": 17473, "responses": "{\"Q0\":\"10pm\",\"Q1\":\"6am\",\"Q2\":\"4\"}", "type": "SLEEP_SURVEY", "trial_type": "survey-text", "trial_index": 5, "time_elapsed": 194642, "internal_node_id": "0.0-5.0"}}, {"uniqueid": "MTK1066:3JJVG1YBEC44VYAN4K25X7CFA6FB5V", "current_trial": 6, "dateTime": 1513027239481, "trialdata": {"rt": 176540, "key_press": 32, "type": "INSTRUCTIONS", "trial_type": "text", "trial_index": 6, "time_elapsed": 372187, "internal_node_id": "0.0-6.0"}}, {"uniqueid": "MTK1066:3JJVG1YBEC44VYAN4K25X7CFA6FB5V", "current_trial": 7, "dateTime": 1513027262422, "trialdata": {"rt": 22439, "key_press": 32, "type": "INSTRUCTIONS", "trial_type": "text", "trial_index": 7, "time_elapsed": 395128, "internal_node_id": "0.0-7.0"}}, {"uniqueid": "MTK1066:3JJVG1YBEC44VYAN4K25X7CFA6FB5V", "current_trial": 8, "dateTime": 1513027265709, "trialdata": {"rt": 2784, "key_press": 32, "type": "INSTRUCTIONS", "trial_type": "text", "trial_index": 8, "time_elapsed": 398415, "internal_node_id": "0.0-8.0"}}, {"uniqueid": "MTK1066:3JJVG1YBEC44VYAN4K25X7CFA6FB5V", "current_trial": 9, "dateTime": 1513027284719, "trialdata": {"rt": [2751, 4295, 6758, 9606, 11686, 14143, 17359], "responses": ["20", "15", "27 ", "20", "5", "14", "9"], "num1": [8, 5, 9, 7, 2, 4, 3, 6], "num2": [4, 5, 9, 4, 1, 2, 4, 8], "num3": [8, 5, 9, 9, 2, 8, 2, 6], "type": "DISTRACTOR", "conditions": [18, 1200, "a", 18000], "trial": 0, "trial_type": "math-distractor", "trial_index": 9, "time_elapsed": 417425, "internal_node_id": "0.0-9.0"}}, {"uniqueid": "MTK1066:3JJVG1YBEC44VYAN4K25X7CFA6FB5V", "current_trial": 10, "dateTime": 1513027287725, "trialdata": {"rt": -1, "stimulus": "<p id=\"stim\">10</p>", "key_press": -1, "trial_type": "single-stim", "trial_index": 10, "time_elapsed": 420431, "internal_node_id": "0.0-10.0-0.0"}}, {"uniqueid": "MTK1066:3JJVG1YBEC44VYAN4K25X7CFA6FB5V", "current_trial": 11, "dateTime": 1513027288729, "trialdata": {"rt": -1, "stimulus": "<p id=\"stim\">9</p>", "key_press": -1, "trial_type": "single-stim", "trial_index": 11, "time_elapsed": 421434, "internal_node_id": "0.0-10.0-1.0"}}, {"uniqueid": "MTK1066:3JJVG1YBEC44VYAN4K25X7CFA6FB5V", "current_trial": 12, "dateTime": 1513027289733, "trialdata": {"rt": -1, "stimulus": "<p id=\"stim\">8</p>", "key_press": -1, "trial_type": "single-stim", "trial_index": 12, "time_elapsed": 422439, "internal_node_id": "0.0-10.0-2.0"}}, {"uniqueid": "MTK1066:3JJVG1YBEC44VYAN4K25X7CFA6FB5V", "current_trial": 13, "dateTime": 1513027290736, "trialdata": {"rt": -1, "stimulus": "<p id=\"stim\">7</p>", "key_press": -1, "trial_type": "single-stim", "trial_index": 13, "time_elapsed": 423442, "internal_node_id": "0.0-10.0-3.0"}}, {"uniqueid": "MTK1066:3JJVG1YBEC44VYAN4K25X7CFA6FB5V", "current_trial": 14, "dateTime": 1513027291741, "trialdata": {"rt": -1, "stimulus": "<p id=\"stim\">6</p>", "key_press": -1, "trial_type": "single-stim", "trial_index": 14, "time_elapsed": 424447, "internal_node_id": "0.0-10.0-4.0"}}, {"uniqueid": "MTK1066:3JJVG1YBEC44VYAN4K25X7CFA6FB5V", "current_trial": 15, "dateTime": 1513027292745, "trialdata": {"rt": -1, "stimulus": "<p id=\"stim\">5</p>", "key_press": -1, "trial_type": "single-stim", "trial_index": 15, "time_elapsed": 425451, "internal_node_id": "0.0-10.0-5.0"}}, {"uniqueid": "MTK1066:3JJVG1YBEC44VYAN4K25X7CFA6FB5V", "current_trial": 16, "dateTime": 1513027293750, "trialdata": {"rt": -1, "stimulus": "<p id=\"stim\">4</p>", "key_press": -1, "trial_type": "single-stim", "trial_index": 16, "time_elapsed": 426455, "internal_node_id": "0.0-10.0-6.0"}}, {"uniqueid": "MTK1066:3JJVG1YBEC44VYAN4K25X7CFA6FB5V", "current_trial": 17, "dateTime": 1513027294753, "trialdata": {"rt": -1, "stimulus": "<p id=\"stim\">3</p>", "key_press": -1, "trial_type": "single-stim", "trial_index": 17, "time_elapsed": 427459, "internal_node_id": "0.0-10.0-7.0"}}, {"uniqueid": "MTK1066:3JJVG1YBEC44VYAN4K25X7CFA6FB5V", "current_trial": 18, "dateTime": 1513027295757, "trialdata": {"rt": -1, "stimulus": "<p id=\"stim\">2</p>", "key_press": -1, "trial_type": "single-stim", "trial_index": 18, "time_elapsed": 428463, "internal_node_id": "0.0-10.0-8.0"}}, {"uniqueid": "MTK1066:3JJVG1YBEC44VYAN4K25X7CFA6FB5V", "current_trial": 19, "dateTime": 1513027296761, "trialdata": {"rt": -1, "stimulus": "<p id=\"stim\">1</p>", "key_press": -1, "trial_type": "single-stim", "trial_index": 19, "time_elapsed": 429467, "internal_node_id": "0.0-10.0-9.0"}}, {"uniqueid": "MTK1066:3JJVG1YBEC44VYAN4K25X7CFA6FB5V", "current_trial": 20, "dateTime": 1513027298265, "trialdata": {"rt": -1, "stimulus": "<p id=\"stim\">+</p>", "key_press": -1, "type": "FIXATION", "trial_type": "single-stim", "trial_index": 20, "time_elapsed": 430970, "internal_node_id": "0.0-11.0-0.0"}}, {"uniqueid": "MTK1066:3JJVG1YBEC44VYAN4K25X7CFA6FB5V", "current_trial": 21, "dateTime": 1513027300412, "trialdata": {"rt": -1000, "stimulus": "/static/audio/wordpool/TAXI.wav", "key_press": -1, "type": "PRES_AUD", "word": "taxi", "wordID": 1437, "conditions": [18, 1200, "a", 18000], "trial": 0, "serialpos": 0, "trial_type": "single-audio", "trial_index": 21, "time_elapsed": 433117, "internal_node_id": "0.0-12.0"}}, {"uniqueid": "MTK1066:3JJVG1YBEC44VYAN4K25X7CFA6FB5V", "current_trial": 22, "dateTime": 1513027302770, "trialdata": {"rt": -1000, "stimulus": "/static/audio/wordpool/SANDWICH.wav", "key_press": -1, "type": "PRES_AUD", "word": "sandwich", "wordID": 1231, "conditions": [18, 1200, "a", 18000], "trial": 0, "serialpos": 1, "trial_type": "single-audio", "trial_index": 22, "time_elapsed": 435476, "internal_node_id": "0.0-13.0"}}, {"uniqueid": "MTK1066:3JJVG1YBEC44VYAN4K25X7CFA6FB5V", "current_trial": 23, "dateTime": 1513027305026, "trialdata": {"rt": -1000, "stimulus": "/static/audio/wordpool/LAGOON.wav", "key_press": -1, "type": "PRES_AUD", "word": "lagoon", "wordID": 794, "conditions": [18, 1200, "a", 18000], "trial": 0, "serialpos": 2, "trial_type": "single-audio", "trial_index": 23, "time_elapsed": 437732, "internal_node_id": "0.0-14.0"}}, {"uniqueid": "MTK1066:3JJVG1YBEC44VYAN4K25X7CFA6FB5V", "current_trial": 24, "dateTime": 1513027307400, "trialdata": {"rt": -1000, "stimulus": "/static/audio/wordpool/TWISTER.wav", "key_press": -1, "type": "PRES_AUD", "word": "twister", "wordID": 1529, "conditions": [18, 1200, "a", 18000], "trial": 0, "serialpos": 3, "trial_type": "single-audio", "trial_index": 24, "time_elapsed": 440106, "internal_node_id": "0.0-15.0"}}, {"uniqueid": "MTK1066:3JJVG1YBEC44VYAN4K25X7CFA6FB5V", "current_trial": 25, "dateTime": 1513027309418, "trialdata": {"rt": -1000, "stimulus": "/static/audio/wordpool/MOTOR.wav", "key_press": -1, "type": "PRES_AUD", "word": "motor", "wordID": 921, "conditions": [18, 1200, "a", 18000], "trial": 0, "serialpos": 4, "trial_type": "single-audio", "trial_index": 25, "time_elapsed": 442124, "internal_node_id": "0.0-16.0"}}, {"uniqueid": "MTK1066:3JJVG1YBEC44VYAN4K25X7CFA6FB5V", "current_trial": 26, "dateTime": 1513027311603, "trialdata": {"rt": -1000, "stimulus": "/static/audio/wordpool/CANAL.wav", "key_press": -1, "type": "PRES_AUD", "word": "canal", "wordID": 225, "conditions": [18, 1200, "a", 18000], "trial": 0, "serialpos": 5, "trial_type": "single-audio", "trial_index": 26, "time_elapsed": 444309, "internal_node_id": "0.0-17.0"}}, {"uniqueid": "MTK1066:3JJVG1YBEC44VYAN4K25X7CFA6FB5V", "current_trial": 27, "dateTime": 1513027313663, "trialdata": {"rt": -1000, "stimulus": "/static/audio/wordpool/XEROX.wav", "key_press": -1, "type": "PRES_AUD", "word": "xerox", "wordID": 1627, "conditions": [18, 1200, "a", 18000], "trial": 0, "serialpos": 6, "trial_type": "single-audio", "trial_index": 27, "time_elapsed": 446369, "internal_node_id": "0.0-18.0"}}, {"uniqueid": "MTK1066:3JJVG1YBEC44VYAN4K25X7CFA6FB5V", "current_trial": 28, "dateTime": 1513027315711, "trialdata": {"rt": -1000, "stimulus": "/static/audio/wordpool/DUST.wav", "key_press": -1, "type": "PRES_AUD", "word": "dust", "wordID": 507, "conditions": [18, 1200, "a", 18000], "trial": 0, "serialpos": 7, "trial_type": "single-audio", "trial_index": 28, "time_elapsed": 448417, "internal_node_id": "0.0-19.0"}}, {"uniqueid": "MTK1066:3JJVG1YBEC44VYAN4K25X7CFA6FB5V", "current_trial": 29, "dateTime": 1513027317773, "trialdata": {"rt": -1000, "stimulus": "/static/audio/wordpool/CRATER.wav", "key_press": -1, "type": "PRES_AUD", "word": "crater", "wordID": 399, "conditions": [18, 1200, "a", 18000], "trial": 0, "serialpos": 8, "trial_type": "single-audio", "trial_index": 29, "time_elapsed": 450479, "internal_node_id": "0.0-20.0"}}, {"uniqueid": "MTK1066:3JJVG1YBEC44VYAN4K25X7CFA6FB5V", "current_trial": 30, "dateTime": 1513027319992, "trialdata": {"rt": -1000, "stimulus": "/static/audio/wordpool/CYCLONE.wav", "key_press": -1, "type": "PRES_AUD", "word": "cyclone", "wordID": 430, "conditions": [18, 1200, "a", 18000], "trial": 0, "serialpos": 9, "trial_type": "single-audio", "trial_index": 30, "time_elapsed": 452698, "internal_node_id": "0.0-21.0"}}, {"uniqueid": "MTK1066:3JJVG1YBEC44VYAN4K25X7CFA6FB5V", "current_trial": 31, "dateTime": 1513027322243, "trialdata": {"rt": -1000, "stimulus": "/static/audio/wordpool/SWORD.wav", "key_press": -1, "type": "PRES_AUD", "word": "sword", "wordID": 1422, "conditions": [18, 1200, "a", 18000], "trial": 0, "serialpos": 10, "trial_type": "single-audio", "trial_index": 31, "time_elapsed": 454948, "internal_node_id": "0.0-22.0"}}, {"uniqueid": "MTK1066:3JJVG1YBEC44VYAN4K25X7CFA6FB5V", "current_trial": 32, "dateTime": 1513027324337, "trialdata": {"rt": -1000, "stimulus": "/static/audio/wordpool/BANKER.wav", "key_press": -1, "type": "PRES_AUD", "word": "banker", "wordID": 83, "conditions": [18, 1200, "a", 18000], "trial": 0, "serialpos": 11, "trial_type": "single-audio", "trial_index": 32, "time_elapsed": 457043, "internal_node_id": "0.0-23.0"}}, {"uniqueid": "MTK1066:3JJVG1YBEC44VYAN4K25X7CFA6FB5V", "current_trial": 33, "dateTime": 1513027326423, "trialdata": {"rt": -1000, "stimulus": "/static/audio/wordpool/CASHEW.wav", "key_press": -1, "type": "PRES_AUD", "word": "cashew", "wordID": 252, "conditions": [18, 1200, "a", 18000], "trial": 0, "serialpos": 12, "trial_type": "single-audio", "trial_index": 33, "time_elapsed": 459129, "internal_node_id": "0.0-24.0"}}, {"uniqueid": "MTK1066:3JJVG1YBEC44VYAN4K25X7CFA6FB5V", "current_trial": 34, "dateTime": 1513027328530, "trialdata": {"rt": -1000, "stimulus": "/static/audio/wordpool/KITCHEN.wav", "key_press": -1, "type": "PRES_AUD", "word": "kitchen", "wordID": 777, "conditions": [18, 1200, "a", 18000], "trial": 0, "serialpos": 13, "trial_type": "single-audio", "trial_index": 34, "time_elapsed": 461236, "internal_node_id": "0.0-25.0"}}, {"uniqueid": "MTK1066:3JJVG1YBEC44VYAN4K25X7CFA6FB5V", "current_trial": 35, "dateTime": 1513027330699, "trialdata": {"rt": -1000, "stimulus": "/static/audio/wordpool/COBRA.wav", "key_press": -1, "type": "PRES_AUD", "word": "cobra", "wordID": 335, "conditions": [18, 1200, "a", 18000], "trial": 0, "serialpos": 14, "trial_type": "single-audio", "trial_index": 35, "time_elapsed": 463405, "internal_node_id": "0.0-26.0"}}, {"uniqueid": "MTK1066:3JJVG1YBEC44VYAN4K25X7CFA6FB5V", "current_trial": 36, "dateTime": 1513027333034, "trialdata": {"rt": -1000, "stimulus": "/static/audio/wordpool/BLOUSE.wav", "key_press": -1, "type": "PRES_AUD", "word": "blouse", "wordID": 138, "conditions": [18, 1200, "a", 18000], "trial": 0, "serialpos": 15, "trial_type": "single-audio", "trial_index": 36, "time_elapsed": 465740, "internal_node_id": "0.0-27.0"}}, {"uniqueid": "MTK1066:3JJVG1YBEC44VYAN4K25X7CFA6FB5V", "current_trial": 37, "dateTime": 1513027335374, "trialdata": {"rt": -1000, "stimulus": "/static/audio/wordpool/FOOTBALL.wav", "key_press": -1, "type": "PRES_AUD", "word": "football", "wordID": 590, "conditions": [18, 1200, "a", 18000], "trial": 0, "serialpos": 16, "trial_type": "single-audio", "trial_index": 37, "time_elapsed": 468080, "internal_node_id": "0.0-28.0"}}, {"uniqueid": "MTK1066:3JJVG1YBEC44VYAN4K25X7CFA6FB5V", "current_trial": 38, "dateTime": 1513027337545, "trialdata": {"rt": -1000, "stimulus": "/static/audio/wordpool/LAVA.wav", "key_press": -1, "type": "PRES_AUD", "word": "lava", "wordID": 803, "conditions": [18, 1200, "a", 18000], "trial": 0, "serialpos": 17, "trial_type": "single-audio", "trial_index": 38, "time_elapsed": 470251, "internal_node_id": "0.0-29.0"}}, {"uniqueid": "MTK1066:3JJVG1YBEC44VYAN4K25X7CFA6FB5V", "current_trial": 39, "dateTime": 1513027338915, "trialdata": {"rt": -1, "stimulus": "", "key_press": -1, "type": "PRE_RECALL_DELAY", "trial_type": "single-stim", "trial_index": 39, "time_elapsed": 471621, "internal_node_id": "0.0-30.0-0.0"}}, {"uniqueid": "MTK1066:3JJVG1YBEC44VYAN4K25X7CFA6FB5V", "current_trial": 40, "dateTime": 1513027339417, "trialdata": {"rt": -1000, "stimulus": "/static/audio/400Hz.wav", "key_press": -1, "type": "PRE_RECALL_ALERT", "trial_type": "single-audio", "trial_index": 40, "time_elapsed": 472123, "internal_node_id": "0.0-31.0"}}, {"uniqueid": "MTK1066:3JJVG1YBEC44VYAN4K25X7CFA6FB5V", "current_trial": 41, "dateTime": 1513027399422, "trialdata": {"rt": [1904, 3521, 5625, 10074, 12593, 22513, 28828, 51275, 51411, 51771, 52211, 52443, 56991], "recwords": ["lava", "football", "xerox", "banker", "volcano", "dust", "", "", "", "", "", "", "list"], "type": "FREE_RECALL", "conditions": [18, 1200, "a", 18000], "trial": 0, "trial_type": "free-recall", "trial_index": 41, "time_elapsed": 532126, "internal_node_id": "0.0-32.0-0.0"}}, {"uniqueid": "MTK1066:3JJVG1YBEC44VYAN4K25X7CFA6FB5V", "current_trial": 42, "dateTime": 1513027403860, "trialdata": {"rt": 2436, "key_press": 32, "type": "INSTRUCTIONS", "trial_type": "text", "trial_index": 42, "time_elapsed": 536566, "internal_node_id": "0.0-33.0"}}, {"uniqueid": "MTK1066:3JJVG1YBEC44VYAN4K25X7CFA6FB5V", "current_trial": 43, "dateTime": 1513027423867, "trialdata": {"rt": [4433, 7721, 10857, 14585, 17632], "responses": ["20", "12", "20", "21", "15"], "num1": [6, 6, 6, 4, 4, 3], "num2": [5, 5, 5, 8, 2, 5], "num3": [9, 1, 9, 9, 9, 1], "type": "DISTRACTOR", "conditions": [18, 1200, "v", 18000], "trial": 1, "trial_type": "math-distractor", "trial_index": 43, "time_elapsed": 556573, "internal_node_id": "0.0-34.0"}}, {"uniqueid": "MTK1066:3JJVG1YBEC44VYAN4K25X7CFA6FB5V", "current_trial": 44, "dateTime": 1513027426870, "trialdata": {"rt": -1, "stimulus": "<p id=\"stim\">10</p>", "key_press": -1, "trial_type": "single-stim", "trial_index": 44, "time_elapsed": 559576, "internal_node_id": "0.0-35.0-0.0"}}, {"uniqueid": "MTK1066:3JJVG1YBEC44VYAN4K25X7CFA6FB5V", "current_trial": 45, "dateTime": 1513027427872, "trialdata": {"rt": -1, "stimulus": "<p id=\"stim\">9</p>", "key_press": -1, "trial_type": "single-stim", "trial_index": 45, "time_elapsed": 560578, "internal_node_id": "0.0-35.0-1.0"}}, {"uniqueid": "MTK1066:3JJVG1YBEC44VYAN4K25X7CFA6FB5V", "current_trial": 46, "dateTime": 1513027428876, "trialdata": {"rt": -1, "stimulus": "<p id=\"stim\">8</p>", "key_press": -1, "trial_type": "single-stim", "trial_index": 46, "time_elapsed": 561582, "internal_node_id": "0.0-35.0-2.0"}}, {"uniqueid": "MTK1066:3JJVG1YBEC44VYAN4K25X7CFA6FB5V", "current_trial": 47, "dateTime": 1513027429879, "trialdata": {"rt": -1, "stimulus": "<p id=\"stim\">7</p>", "key_press": -1, "trial_type": "single-stim", "trial_index": 47, "time_elapsed": 562585, "internal_node_id": "0.0-35.0-3.0"}}, {"uniqueid": "MTK1066:3JJVG1YBEC44VYAN4K25X7CFA6FB5V", "current_trial": 48, "dateTime": 1513027430882, "trialdata": {"rt": -1, "stimulus": "<p id=\"stim\">6</p>", "key_press": -1, "trial_type": "single-stim", "trial_index": 48, "time_elapsed": 563588, "internal_node_id": "0.0-35.0-4.0"}}, {"uniqueid": "MTK1066:3JJVG1YBEC44VYAN4K25X7CFA6FB5V", "current_trial": 49, "dateTime": 1513027431885, "trialdata": {"rt": -1, "stimulus": "<p id=\"stim\">5</p>", "key_press": -1, "trial_type": "single-stim", "trial_index": 49, "time_elapsed": 564591, "internal_node_id": "0.0-35.0-5.0"}}, {"uniqueid": "MTK1066:3JJVG1YBEC44VYAN4K25X7CFA6FB5V", "current_trial": 50, "dateTime": 1513027432889, "trialdata": {"rt": -1, "stimulus": "<p id=\"stim\">4</p>", "key_press": -1, "trial_type": "single-stim", "trial_index": 50, "time_elapsed": 565594, "internal_node_id": "0.0-35.0-6.0"}}, {"uniqueid": "MTK1066:3JJVG1YBEC44VYAN4K25X7CFA6FB5V", "current_trial": 51, "dateTime": 1513027433892, "trialdata": {"rt": -1, "stimulus": "<p id=\"stim\">3</p>", "key_press": -1, "trial_type": "single-stim", "trial_index": 51, "time_elapsed": 566598, "internal_node_id": "0.0-35.0-7.0"}}, {"uniqueid": "MTK1066:3JJVG1YBEC44VYAN4K25X7CFA6FB5V", "current_trial": 52, "dateTime": 1513027434895, "trialdata": {"rt": -1, "stimulus": "<p id=\"stim\">2</p>", "key_press": -1, "trial_type": "single-stim", "trial_index": 52, "time_elapsed": 567600, "internal_node_id": "0.0-35.0-8.0"}}, {"uniqueid": "MTK1066:3JJVG1YBEC44VYAN4K25X7CFA6FB5V", "current_trial": 53, "dateTime": 1513027435899, "trialdata": {"rt": -1, "stimulus": "<p id=\"stim\">1</p>", "key_press": -1, "trial_type": "single-stim", "trial_index": 53, "time_elapsed": 568604, "internal_node_id": "0.0-35.0-9.0"}}, {"uniqueid": "MTK1066:3JJVG1YBEC44VYAN4K25X7CFA6FB5V", "current_trial": 54, "dateTime": 1513027437404, "trialdata": {"rt": -1, "stimulus": "<p id=\"stim\">+</p>", "key_press": -1, "type": "FIXATION", "trial_type": "single-stim", "trial_index": 54, "time_elapsed": 570109, "internal_node_id": "0.0-36.0-0.0"}}, {"uniqueid": "MTK1066:3JJVG1YBEC44VYAN4K25X7CFA6FB5V", "current_trial": 55, "dateTime": 1513027438608, "trialdata": {"rt": -1, "stimulus": "<p id=\"stim\">ARM</p>", "key_press": -1, "type": "PRES_VIS", "word": "arm", "wordID": 37, "conditions": [18, 1200, "v", 18000], "trial": 1, "serialpos": 0, "trial_type": "single-stim", "trial_index": 55, "time_elapsed": 571314, "internal_node_id": "0.0-37.0"}}, {"uniqueid": "MTK1066:3JJVG1YBEC44VYAN4K25X7CFA6FB5V", "current_trial": 56, "dateTime": 1513027440843, "trialdata": {"rt": -1, "stimulus": "<p id=\"stim\">SILK</p>", "key_press": -1, "type": "PRES_VIS", "word": "silk", "wordID": 1306, "conditions": [18, 1200, "v", 18000], "trial": 1, "serialpos": 1, "trial_type": "single-stim", "trial_index": 56, "time_elapsed": 573549, "internal_node_id": "0.0-38.0"}}, {"uniqueid": "MTK1066:3JJVG1YBEC44VYAN4K25X7CFA6FB5V", "current_trial": 57, "dateTime": 1513027443038, "trialdata": {"rt": -1, "stimulus": "<p id=\"stim\">VALLEY</p>", "key_press": -1, "type": "PRES_VIS", "word": "valley", "wordID": 1544, "conditions": [18, 1200, "v", 18000], "trial": 1, "serialpos": 2, "trial_type": "single-stim", "trial_index": 57, "time_elapsed": 575744, "internal_node_id": "0.0-39.0"}}, {"uniqueid": "MTK1066:3JJVG1YBEC44VYAN4K25X7CFA6FB5V", "current_trial": 58, "dateTime": 1513027445097, "trialdata": {"rt": -1, "stimulus": "<p id=\"stim\">OUTDOORS</p>", "key_press": -1, "type": "PRES_VIS", "word": "outdoors", "wordID": 986, "conditions": [18, 1200, "v", 18000], "trial": 1, "serialpos": 3, "trial_type": "single-stim", "trial_index": 58, "time_elapsed": 577803, "internal_node_id": "0.0-40.0"}}, {"uniqueid": "MTK1066:3JJVG1YBEC44VYAN4K25X7CFA6FB5V", "current_trial": 59, "dateTime": 1513027447378, "trialdata": {"rt": -1, "stimulus": "<p id=\"stim\">BOUQUET</p>", "key_press": -1, "type": "PRES_VIS", "word": "bouquet", "wordID": 156, "conditions": [18, 1200, "v", 18000], "trial": 1, "serialpos": 4, "trial_type": "single-stim", "trial_index": 59, "time_elapsed": 580084, "internal_node_id": "0.0-41.0"}}, {"uniqueid": "MTK1066:3JJVG1YBEC44VYAN4K25X7CFA6FB5V", "current_trial": 60, "dateTime": 1513027449775, "trialdata": {"rt": -1, "stimulus": "<p id=\"stim\">PISTON</p>", "key_press": -1, "type": "PRES_VIS", "word": "piston", "wordID": 1075, "conditions": [18, 1200, "v", 18000], "trial": 1, "serialpos": 5, "trial_type": "single-stim", "trial_index": 60, "time_elapsed": 582481, "internal_node_id": "0.0-42.0"}}, {"uniqueid": "MTK1066:3JJVG1YBEC44VYAN4K25X7CFA6FB5V", "current_trial": 61, "dateTime": 1513027451882, "trialdata": {"rt": -1, "stimulus": "<p id=\"stim\">OUTLAW</p>", "key_press": -1, "type": "PRES_VIS", "word": "outlaw", "wordID": 988, "conditions": [18, 1200, "v", 18000], "trial": 1, "serialpos": 6, "trial_type": "single-stim", "trial_index": 61, "time_elapsed": 584588, "internal_node_id": "0.0-43.0"}}, {"uniqueid": "MTK1066:3JJVG1YBEC44VYAN4K25X7CFA6FB5V", "current_trial": 62, "dateTime": 1513027454110, "trialdata": {"rt": -1, "stimulus": "<p id=\"stim\">PARTNER</p>", "key_press": -1, "type": "PRES_VIS", "word": "partner", "wordID": 1016, "conditions": [18, 1200, "v", 18000], "trial": 1, "serialpos": 7, "trial_type": "single-stim", "trial_index": 62, "time_elapsed": 586816, "internal_node_id": "0.0-44.0"}}, {"uniqueid": "MTK1066:3JJVG1YBEC44VYAN4K25X7CFA6FB5V", "current_trial": 63, "dateTime": 1513027456339, "trialdata": {"rt": -1, "stimulus": "<p id=\"stim\">POPCORN</p>", "key_press": -1, "type": "PRES_VIS", "word": "popcorn", "wordID": 1103, "conditions": [18, 1200, "v", 18000], "trial": 1, "serialpos": 8, "trial_type": "single-stim", "trial_index": 63, "time_elapsed": 589045, "internal_node_id": "0.0-45.0"}}, {"uniqueid": "MTK1066:3JJVG1YBEC44VYAN4K25X7CFA6FB5V", "current_trial": 64, "dateTime": 1513027458719, "trialdata": {"rt": -1, "stimulus": "<p id=\"stim\">ROBOT</p>", "key_press": -1, "type": "PRES_VIS", "word": "robot", "wordID": 1199, "conditions": [18, 1200, "v", 18000], "trial": 1, "serialpos": 9, "trial_type": "single-stim", "trial_index": 64, "time_elapsed": 591425, "internal_node_id": "0.0-46.0"}}, {"uniqueid": "MTK1066:3JJVG1YBEC44VYAN4K25X7CFA6FB5V", "current_trial": 65, "dateTime": 1513027460774, "trialdata": {"rt": -1, "stimulus": "<p id=\"stim\">OYSTER</p>", "key_press": -1, "type": "PRES_VIS", "word": "oyster", "wordID": 994, "conditions": [18, 1200, "v", 18000], "trial": 1, "serialpos": 10, "trial_type": "single-stim", "trial_index": 65, "time_elapsed": 593480, "internal_node_id": "0.0-47.0"}}, {"uniqueid": "MTK1066:3JJVG1YBEC44VYAN4K25X7CFA6FB5V", "current_trial": 66, "dateTime": 1513027462969, "trialdata": {"rt": -1, "stimulus": "<p id=\"stim\">FRUIT</p>", "key_press": -1, "type": "PRES_VIS", "word": "fruit", "wordID": 609, "conditions": [18, 1200, "v", 18000], "trial": 1, "serialpos": 11, "trial_type": "single-stim", "trial_index": 66, "time_elapsed": 595675, "internal_node_id": "0.0-48.0"}}, {"uniqueid": "MTK1066:3JJVG1YBEC44VYAN4K25X7CFA6FB5V", "current_trial": 67, "dateTime": 1513027465243, "trialdata": {"rt": -1, "stimulus": "<p id=\"stim\">FLIPPER</p>", "key_press": -1, "type": "PRES_VIS", "word": "flipper", "wordID": 579, "conditions": [18, 1200, "v", 18000], "trial": 1, "serialpos": 12, "trial_type": "single-stim", "trial_index": 67, "time_elapsed": 597948, "internal_node_id": "0.0-49.0"}}, {"uniqueid": "MTK1066:3JJVG1YBEC44VYAN4K25X7CFA6FB5V", "current_trial": 68, "dateTime": 1513027467402, "trialdata": {"rt": -1, "stimulus": "<p id=\"stim\">FRAGRANCE</p>", "key_press": -1, "type": "PRES_VIS", "word": "fragrance", "wordID": 598, "conditions": [18, 1200, "v", 18000], "trial": 1, "serialpos": 13, "trial_type": "single-stim", "trial_index": 68, "time_elapsed": 600105, "internal_node_id": "0.0-50.0"}}, {"uniqueid": "MTK1066:3JJVG1YBEC44VYAN4K25X7CFA6FB5V", "current_trial": 69, "dateTime": 1513027469578, "trialdata": {"rt": -1, "stimulus": "<p id=\"stim\">NEUTRON</p>", "key_press": -1, "type": "PRES_VIS", "word": "neutron", "wordID": 946, "conditions": [18, 1200, "v", 18000], "trial": 1, "serialpos": 14, "trial_type": "single-stim", "trial_index": 69, "time_elapsed": 602284, "internal_node_id": "0.0-51.0"}}, {"uniqueid": "MTK1066:3JJVG1YBEC44VYAN4K25X7CFA6FB5V", "current_trial": 70, "dateTime": 1513027471951, "trialdata": {"rt": -1, "stimulus": "<p id=\"stim\">TURNIP</p>", "key_press": -1, "type": "PRES_VIS", "word": "turnip", "wordID": 1520, "conditions": [18, 1200, "v", 18000], "trial": 1, "serialpos": 15, "trial_type": "single-stim", "trial_index": 70, "time_elapsed": 604657, "internal_node_id": "0.0-52.0"}}, {"uniqueid": "MTK1066:3JJVG1YBEC44VYAN4K25X7CFA6FB5V", "current_trial": 71, "dateTime": 1513027473959, "trialdata": {"rt": -1, "stimulus": "<p id=\"stim\">ORCHID</p>", "key_press": -1, "type": "PRES_VIS", "word": "orchid", "wordID": 981, "conditions": [18, 1200, "v", 18000], "trial": 1, "serialpos": 16, "trial_type": "single-stim", "trial_index": 71, "time_elapsed": 606665, "internal_node_id": "0.0-53.0"}}, {"uniqueid": "MTK1066:3JJVG1YBEC44VYAN4K25X7CFA6FB5V", "current_trial": 72, "dateTime": 1513027476322, "trialdata": {"rt": -1, "stimulus": "<p id=\"stim\">GRAPE</p>", "key_press": -1, "type": "PRES_VIS", "word": "grape", "wordID": 653, "conditions": [18, 1200, "v", 18000], "trial": 1, "serialpos": 17, "trial_type": "single-stim", "trial_index": 72, "time_elapsed": 609028, "internal_node_id": "0.0-54.0"}}, {"uniqueid": "MTK1066:3JJVG1YBEC44VYAN4K25X7CFA6FB5V", "current_trial": 73, "dateTime": 1513027478568, "trialdata": {"rt": -1, "stimulus": "", "key_press": -1, "type": "PRE_RECALL_DELAY", "trial_type": "single-stim", "trial_index": 73, "time_elapsed": 611274, "internal_node_id": "0.0-55.0-0.0"}}, {"uniqueid": "MTK1066:3JJVG1YBEC44VYAN4K25X7CFA6FB5V", "current_trial": 74, "dateTime": 1513027479070, "trialdata": {"rt": -1000, "stimulus": "/static/audio/400Hz.wav", "key_press": -1, "type": "PRE_RECALL_ALERT", "trial_type": "single-audio", "trial_index": 74, "time_elapsed": 611776, "internal_node_id": "0.0-56.0"}}, {"uniqueid": "MTK1066:3JJVG1YBEC44VYAN4K25X7CFA6FB5V", "current_trial": 75, "dateTime": 1513027539075, "trialdata": {"rt": [1871, 4575, 12885, 16733, 19957, 21372, 53204, 53932, 54435, 54613, 55004, 55348, 55589, 55803, 56076, 56686, 59036], "recwords": ["grape", "turnip", "fruit", "grape", "oyster", "robot", "", "", "", "", "", "", "", "", "", "", ""], "type": "FREE_RECALL", "conditions": [18, 1200, "v", 18000], "trial": 1, "trial_type": "free-recall", "trial_index": 75, "time_elapsed": 671778, "internal_node_id": "0.0-57.0-0.0"}}, {"uniqueid": "MTK1066:3JJVG1YBEC44VYAN4K25X7CFA6FB5V", "current_trial": 76, "dateTime": 1513027542899, "trialdata": {"rt": 1815, "key_press": 32, "type": "INSTRUCTIONS", "trial_type": "text", "trial_index": 76, "time_elapsed": 675601, "internal_node_id": "0.0-58.0"}}, {"uniqueid": "MTK1066:3JJVG1YBEC44VYAN4K25X7CFA6FB5V", "current_trial": 77, "dateTime": 1513027555903, "trialdata": {"rt": [2345, 7551], "responses": ["10", "21"], "num1": [2, 8, 8], "num2": [6, 6, 4], "num3": [2, 7, 3], "type": "DISTRACTOR", "conditions": [12, 1600, "v", 12000], "trial": 2, "trial_type": "math-distractor", "trial_index": 77, "time_elapsed": 688609, "internal_node_id": "0.0-59.0"}}, {"uniqueid": "MTK1066:3JJVG1YBEC44VYAN4K25X7CFA6FB5V", "current_trial": 78, "dateTime": 1513027558907, "trialdata": {"rt": -1, "stimulus": "<p id=\"stim\">10</p>", "key_press": -1, "trial_type": "single-stim", "trial_index": 78, "time_elapsed": 691613, "internal_node_id": "0.0-60.0-0.0"}}, {"uniqueid": "MTK1066:3JJVG1YBEC44VYAN4K25X7CFA6FB5V", "current_trial": 79, "dateTime": 1513027559908, "trialdata": {"rt": -1, "stimulus": "<p id=\"stim\">9</p>", "key_press": -1, "trial_type": "single-stim", "trial_index": 79, "time_elapsed": 692614, "internal_node_id": "0.0-60.0-1.0"}}, {"uniqueid": "MTK1066:3JJVG1YBEC44VYAN4K25X7CFA6FB5V", "current_trial": 80, "dateTime": 1513027560911, "trialdata": {"rt": -1, "stimulus": "<p id=\"stim\">8</p>", "key_press": -1, "trial_type": "single-stim", "trial_index": 80, "time_elapsed": 693617, "internal_node_id": "0.0-60.0-2.0"}}, {"uniqueid": "MTK1066:3JJVG1YBEC44VYAN4K25X7CFA6FB5V", "current_trial": 81, "dateTime": 1513027561916, "trialdata": {"rt": -1, "stimulus": "<p id=\"stim\">7</p>", "key_press": -1, "trial_type": "single-stim", "trial_index": 81, "time_elapsed": 694622, "internal_node_id": "0.0-60.0-3.0"}}, {"uniqueid": "MTK1066:3JJVG1YBEC44VYAN4K25X7CFA6FB5V", "current_trial": 82, "dateTime": 1513027562920, "trialdata": {"rt": -1, "stimulus": "<p id=\"stim\">6</p>", "key_press": -1, "trial_type": "single-stim", "trial_index": 82, "time_elapsed": 695626, "internal_node_id": "0.0-60.0-4.0"}}, {"uniqueid": "MTK1066:3JJVG1YBEC44VYAN4K25X7CFA6FB5V", "current_trial": 83, "dateTime": 1513027563924, "trialdata": {"rt": -1, "stimulus": "<p id=\"stim\">5</p>", "key_press": -1, "trial_type": "single-stim", "trial_index": 83, "time_elapsed": 696630, "internal_node_id": "0.0-60.0-5.0"}}, {"uniqueid": "MTK1066:3JJVG1YBEC44VYAN4K25X7CFA6FB5V", "current_trial": 84, "dateTime": 1513027564928, "trialdata": {"rt": -1, "stimulus": "<p id=\"stim\">4</p>", "key_press": -1, "trial_type": "single-stim", "trial_index": 84, "time_elapsed": 697633, "internal_node_id": "0.0-60.0-6.0"}}, {"uniqueid": "MTK1066:3JJVG1YBEC44VYAN4K25X7CFA6FB5V", "current_trial": 85, "dateTime": 1513027565932, "trialdata": {"rt": -1, "stimulus": "<p id=\"stim\">3</p>", "key_press": -1, "trial_type": "single-stim", "trial_index": 85, "time_elapsed": 698638, "internal_node_id": "0.0-60.0-7.0"}}, {"uniqueid": "MTK1066:3JJVG1YBEC44VYAN4K25X7CFA6FB5V", "current_trial": 86, "dateTime": 1513027566936, "trialdata": {"rt": -1, "stimulus": "<p id=\"stim\">2</p>", "key_press": -1, "trial_type": "single-stim", "trial_index": 86, "time_elapsed": 699642, "internal_node_id": "0.0-60.0-8.0"}}, {"uniqueid": "MTK1066:3JJVG1YBEC44VYAN4K25X7CFA6FB5V", "current_trial": 87, "dateTime": 1513027567940, "trialdata": {"rt": -1, "stimulus": "<p id=\"stim\">1</p>", "key_press": -1, "trial_type": "single-stim", "trial_index": 87, "time_elapsed": 700646, "internal_node_id": "0.0-60.0-9.0"}}, {"uniqueid": "MTK1066:3JJVG1YBEC44VYAN4K25X7CFA6FB5V", "current_trial": 88, "dateTime": 1513027569445, "trialdata": {"rt": -1, "stimulus": "<p id=\"stim\">+</p>", "key_press": -1, "type": "FIXATION", "trial_type": "single-stim", "trial_index": 88, "time_elapsed": 702150, "internal_node_id": "0.0-61.0-0.0"}}, {"uniqueid": "MTK1066:3JJVG1YBEC44VYAN4K25X7CFA6FB5V", "current_trial": 89, "dateTime": 1513027571048, "trialdata": {"rt": -1, "stimulus": "<p id=\"stim\">WIFE</p>", "key_press": -1, "type": "PRES_VIS", "word": "wife", "wordID": 1608, "conditions": [12, 1600, "v", 12000], "trial": 2, "serialpos": 0, "trial_type": "single-stim", "trial_index": 89, "time_elapsed": 703754, "internal_node_id": "0.0-62.0"}}, {"uniqueid": "MTK1066:3JJVG1YBEC44VYAN4K25X7CFA6FB5V", "current_trial": 90, "dateTime": 1513027573622, "trialdata": {"rt": -1, "stimulus": "<p id=\"stim\">GLOVE</p>", "key_press": -1, "type": "PRES_VIS", "word": "glove", "wordID": 641, "conditions": [12, 1600, "v", 12000], "trial": 2, "serialpos": 1, "trial_type": "single-stim", "trial_index": 90, "time_elapsed": 706328, "internal_node_id": "0.0-63.0"}}, {"uniqueid": "MTK1066:3JJVG1YBEC44VYAN4K25X7CFA6FB5V", "current_trial": 91, "dateTime": 1513027576321, "trialdata": {"rt": -1, "stimulus": "<p id=\"stim\">DAUGHTER</p>", "key_press": -1, "type": "PRES_VIS", "word": "daughter", "wordID": 441, "conditions": [12, 1600, "v", 12000], "trial": 2, "serialpos": 2, "trial_type": "single-stim", "trial_index": 91, "time_elapsed": 709027, "internal_node_id": "0.0-64.0"}}, {"uniqueid": "MTK1066:3JJVG1YBEC44VYAN4K25X7CFA6FB5V", "current_trial": 92, "dateTime": 1513027579118, "trialdata": {"rt": -1, "stimulus": "<p id=\"stim\">CELLAR</p>", "key_press": -1, "type": "PRES_VIS", "word": "cellar", "wordID": 266, "conditions": [12, 1600, "v", 12000], "trial": 2, "serialpos": 3, "trial_type": "single-stim", "trial_index": 92, "time_elapsed": 711824, "internal_node_id": "0.0-65.0"}}, {"uniqueid": "MTK1066:3JJVG1YBEC44VYAN4K25X7CFA6FB5V", "current_trial": 93, "dateTime": 1513027581561, "trialdata": {"rt": -1, "stimulus": "<p id=\"stim\">LASER</p>", "key_press": -1, "type": "PRES_VIS", "word": "laser", "wordID": 800, "conditions": [12, 1600, "v", 12000], "trial": 2, "serialpos": 4, "trial_type": "single-stim", "trial_index": 93, "time_elapsed": 714267, "internal_node_id": "0.0-66.0"}}, {"uniqueid": "MTK1066:3JJVG1YBEC44VYAN4K25X7CFA6FB5V", "current_trial": 94, "dateTime": 1513027584197, "trialdata": {"rt": -1, "stimulus": "<p id=\"stim\">BROTHER</p>", "key_press": -1, "type": "PRES_VIS", "word": "brother", "wordID": 178, "conditions": [12, 1600, "v", 12000], "trial": 2, "serialpos": 5, "trial_type": "single-stim", "trial_index": 94, "time_elapsed": 716903, "internal_node_id": "0.0-67.0"}}, {"uniqueid": "MTK1066:3JJVG1YBEC44VYAN4K25X7CFA6FB5V", "current_trial": 95, "dateTime": 1513027586936, "trialdata": {"rt": -1, "stimulus": "<p id=\"stim\">PUDDING</p>", "key_press": -1, "type": "PRES_VIS", "word": "pudding", "wordID": 1138, "conditions": [12, 1600, "v", 12000], "trial": 2, "serialpos": 6, "trial_type": "single-stim", "trial_index": 95, "time_elapsed": 719642, "internal_node_id": "0.0-68.0"}}, {"uniqueid": "MTK1066:3JJVG1YBEC44VYAN4K25X7CFA6FB5V", "current_trial": 96, "dateTime": 1513027589466, "trialdata": {"rt": -1, "stimulus": "<p id=\"stim\">PLATE</p>", "key_press": -1, "type": "PRES_VIS", "word": "plate", "wordID": 1085, "conditions": [12, 1600, "v", 12000], "trial": 2, "serialpos": 7, "trial_type": "single-stim", "trial_index": 96, "time_elapsed": 722172, "internal_node_id": "0.0-69.0"}}, {"uniqueid": "MTK1066:3JJVG1YBEC44VYAN4K25X7CFA6FB5V", "current_trial": 97, "dateTime": 1513027592084, "trialdata": {"rt": -1, "stimulus": "<p id=\"stim\">DENIM</p>", "key_press": -1, "type": "PRES_VIS", "word": "denim", "wordID": 445, "conditions": [12, 1600, "v", 12000], "trial": 2, "serialpos": 8, "trial_type": "single-stim", "trial_index": 97, "time_elapsed": 724790, "internal_node_id": "0.0-70.0"}}, {"uniqueid": "MTK1066:3JJVG1YBEC44VYAN4K25X7CFA6FB5V", "current_trial": 98, "dateTime": 1513027594754, "trialdata": {"rt": -1, "stimulus": "<p id=\"stim\">WAGON</p>", "key_press": -1, "type": "PRES_VIS", "word": "wagon", "wordID": 1577, "conditions": [12, 1600, "v", 12000], "trial": 2, "serialpos": 9, "trial_type": "single-stim", "trial_index": 98, "time_elapsed": 727460, "internal_node_id": "0.0-71.0"}}, {"uniqueid": "MTK1066:3JJVG1YBEC44VYAN4K25X7CFA6FB5V", "current_trial": 99, "dateTime": 1513027597325, "trialdata": {"rt": -1, "stimulus": "<p id=\"stim\">STATUE</p>", "key_press": -1, "type": "PRES_VIS", "word": "statue", "wordID": 1373, "conditions": [12, 1600, "v", 12000], "trial": 2, "serialpos": 10, "trial_type": "single-stim", "trial_index": 99, "time_elapsed": 730031, "internal_node_id": "0.0-72.0"}}, {"uniqueid": "MTK1066:3JJVG1YBEC44VYAN4K25X7CFA6FB5V", "current_trial": 100, "dateTime": 1513027600087, "trialdata": {"rt": -1, "stimulus": "<p id=\"stim\">SCULPTURE</p>", "key_press": -1, "type": "PRES_VIS", "word": "sculpture", "wordID": 1257, "conditions": [12, 1600, "v", 12000], "trial": 2, "serialpos": 11, "trial_type": "single-stim", "trial_index": 100, "time_elapsed": 732793, "internal_node_id": "0.0-73.0"}}, {"uniqueid": "MTK1066:3JJVG1YBEC44VYAN4K25X7CFA6FB5V", "current_trial": 101, "dateTime": 1513027602392, "trialdata": {"rt": -1, "stimulus": "", "key_press": -1, "type": "PRE_RECALL_DELAY", "trial_type": "single-stim", "trial_index": 101, "time_elapsed": 735098, "internal_node_id": "0.0-74.0-0.0"}}, {"uniqueid": "MTK1066:3JJVG1YBEC44VYAN4K25X7CFA6FB5V", "current_trial": 102, "dateTime": 1513027602894, "trialdata": {"rt": -1000, "stimulus": "/static/audio/400Hz.wav", "key_press": -1, "type": "PRE_RECALL_ALERT", "trial_type": "single-audio", "trial_index": 102, "time_elapsed": 735599, "internal_node_id": "0.0-75.0"}}, {"uniqueid": "MTK1066:3JJVG1YBEC44VYAN4K25X7CFA6FB5V", "current_trial": 103, "dateTime": 1513027662899, "trialdata": {"rt": [2196, 5308, 6795, 8883, 10636, 12988, 13595, 13940, 14452, 14844, 15379, 23854, 26048, 27569, 28757, 30549, 30709, 33704, 54434], "recwords": ["statue", "sculpture", "wife", "daughter", "brother", "laser", "", "", "", "", "", "", "", "", "", "", "", "", ""], "type": "FREE_RECALL", "conditions": [12, 1600, "v", 12000], "trial": 2, "trial_type": "free-recall", "trial_index": 103, "time_elapsed": 795603, "internal_node_id": "0.0-76.0-0.0"}}, {"uniqueid": "MTK1066:3JJVG1YBEC44VYAN4K25X7CFA6FB5V", "current_trial": 104, "dateTime": 1513027665869, "trialdata": {"rt": 968, "key_press": 32, "type": "INSTRUCTIONS", "trial_type": "text", "trial_index": 104, "time_elapsed": 798575, "internal_node_id": "0.0-77.0"}}, {"uniqueid": "MTK1066:3JJVG1YBEC44VYAN4K25X7CFA6FB5V", "current_trial": 105, "dateTime": 1513027679872, "trialdata": {"rt": [2122, 4402, 7290, 9082, 11441], "responses": ["16", "15", "11", "15", "16"], "num1": [6, 4, 7, 1, 7, 8], "num2": [3, 5, 1, 7, 6, 7], "num3": [7, 6, 3, 7, 2, 6], "type": "DISTRACTOR", "conditions": [12, 800, "v", 12000], "trial": 3, "trial_type": "math-distractor", "trial_index": 105, "time_elapsed": 812578, "internal_node_id": "0.0-78.0"}}, {"uniqueid": "MTK1066:3JJVG1YBEC44VYAN4K25X7CFA6FB5V", "current_trial": 106, "dateTime": 1513027682876, "trialdata": {"rt": -1, "stimulus": "<p id=\"stim\">10</p>", "key_press": -1, "trial_type": "single-stim", "trial_index": 106, "time_elapsed": 815582, "internal_node_id": "0.0-79.0-0.0"}}, {"uniqueid": "MTK1066:3JJVG1YBEC44VYAN4K25X7CFA6FB5V", "current_trial": 107, "dateTime": 1513027683879, "trialdata": {"rt": -1, "stimulus": "<p id=\"stim\">9</p>", "key_press": -1, "trial_type": "single-stim", "trial_index": 107, "time_elapsed": 816585, "internal_node_id": "0.0-79.0-1.0"}}, {"uniqueid": "MTK1066:3JJVG1YBEC44VYAN4K25X7CFA6FB5V", "current_trial": 108, "dateTime": 1513027684883, "trialdata": {"rt": -1, "stimulus": "<p id=\"stim\">8</p>", "key_press": -1, "trial_type": "single-stim", "trial_index": 108, "time_elapsed": 817588, "internal_node_id": "0.0-79.0-2.0"}}, {"uniqueid": "MTK1066:3JJVG1YBEC44VYAN4K25X7CFA6FB5V", "current_trial": 109, "dateTime": 1513027685886, "trialdata": {"rt": -1, "stimulus": "<p id=\"stim\">7</p>", "key_press": -1, "trial_type": "single-stim", "trial_index": 109, "time_elapsed": 818591, "internal_node_id": "0.0-79.0-3.0"}}, {"uniqueid": "MTK1066:3JJVG1YBEC44VYAN4K25X7CFA6FB5V", "current_trial": 110, "dateTime": 1513027686889, "trialdata": {"rt": -1, "stimulus": "<p id=\"stim\">6</p>", "key_press": -1, "trial_type": "single-stim", "trial_index": 110, "time_elapsed": 819595, "internal_node_id": "0.0-79.0-4.0"}}, {"uniqueid": "MTK1066:3JJVG1YBEC44VYAN4K25X7CFA6FB5V", "current_trial": 111, "dateTime": 1513027687894, "trialdata": {"rt": -1, "stimulus": "<p id=\"stim\">5</p>", "key_press": -1, "trial_type": "single-stim", "trial_index": 111, "time_elapsed": 820599, "internal_node_id": "0.0-79.0-5.0"}}, {"uniqueid": "MTK1066:3JJVG1YBEC44VYAN4K25X7CFA6FB5V", "current_trial": 112, "dateTime": 1513027688898, "trialdata": {"rt": -1, "stimulus": "<p id=\"stim\">4</p>", "key_press": -1, "trial_type": "single-stim", "trial_index": 112, "time_elapsed": 821604, "internal_node_id": "0.0-79.0-6.0"}}, {"uniqueid": "MTK1066:3JJVG1YBEC44VYAN4K25X7CFA6FB5V", "current_trial": 113, "dateTime": 1513027689902, "trialdata": {"rt": -1, "stimulus": "<p id=\"stim\">3</p>", "key_press": -1, "trial_type": "single-stim", "trial_index": 113, "time_elapsed": 822608, "internal_node_id": "0.0-79.0-7.0"}}, {"uniqueid": "MTK1066:3JJVG1YBEC44VYAN4K25X7CFA6FB5V", "current_trial": 114, "dateTime": 1513027690906, "trialdata": {"rt": -1, "stimulus": "<p id=\"stim\">2</p>", "key_press": -1, "trial_type": "single-stim", "trial_index": 114, "time_elapsed": 823612, "internal_node_id": "0.0-79.0-8.0"}}, {"uniqueid": "MTK1066:3JJVG1YBEC44VYAN4K25X7CFA6FB5V", "current_trial": 115, "dateTime": 1513027691911, "trialdata": {"rt": -1, "stimulus": "<p id=\"stim\">1</p>", "key_press": -1, "trial_type": "single-stim", "trial_index": 115, "time_elapsed": 824616, "internal_node_id": "0.0-79.0-9.0"}}, {"uniqueid": "MTK1066:3JJVG1YBEC44VYAN4K25X7CFA6FB5V", "current_trial": 116, "dateTime": 1513027693413, "trialdata": {"rt": -1, "stimulus": "<p id=\"stim\">+</p>", "key_press": -1, "type": "FIXATION", "trial_type": "single-stim", "trial_index": 116, "time_elapsed": 826119, "internal_node_id": "0.0-80.0-0.0"}}, {"uniqueid": "MTK1066:3JJVG1YBEC44VYAN4K25X7CFA6FB5V", "current_trial": 117, "dateTime": 1513027694214, "trialdata": {"rt": -1, "stimulus": "<p id=\"stim\">SCALLOP</p>", "key_press": -1, "type": "PRES_VIS", "word": "scallop", "wordID": 1241, "conditions": [12, 800, "v", 12000], "trial": 3, "serialpos": 0, "trial_type": "single-stim", "trial_index": 117, "time_elapsed": 826920, "internal_node_id": "0.0-81.0"}}, {"uniqueid": "MTK1066:3JJVG1YBEC44VYAN4K25X7CFA6FB5V", "current_trial": 118, "dateTime": 1513027696004, "trialdata": {"rt": -1, "stimulus": "<p id=\"stim\">CLAM</p>", "key_press": -1, "type": "PRES_VIS", "word": "clam", "wordID": 314, "conditions": [12, 800, "v", 12000], "trial": 3, "serialpos": 1, "trial_type": "single-stim", "trial_index": 118, "time_elapsed": 828710, "internal_node_id": "0.0-82.0"}}, {"uniqueid": "MTK1066:3JJVG1YBEC44VYAN4K25X7CFA6FB5V", "current_trial": 119, "dateTime": 1513027697679, "trialdata": {"rt": -1, "stimulus": "<p id=\"stim\">COUSIN</p>", "key_press": -1, "type": "PRES_VIS", "word": "cousin", "wordID": 391, "conditions": [12, 800, "v", 12000], "trial": 3, "serialpos": 2, "trial_type": "single-stim", "trial_index": 119, "time_elapsed": 830385, "internal_node_id": "0.0-83.0"}}, {"uniqueid": "MTK1066:3JJVG1YBEC44VYAN4K25X7CFA6FB5V", "current_trial": 120, "dateTime": 1513027699426, "trialdata": {"rt": -1, "stimulus": "<p id=\"stim\">DANCER</p>", "key_press": -1, "type": "PRES_VIS", "word": "dancer", "wordID": 436, "conditions": [12, 800, "v", 12000], "trial": 3, "serialpos": 3, "trial_type": "single-stim", "trial_index": 120, "time_elapsed": 832132, "internal_node_id": "0.0-84.0"}}, {"uniqueid": "MTK1066:3JJVG1YBEC44VYAN4K25X7CFA6FB5V", "current_trial": 121, "dateTime": 1513027701097, "trialdata": {"rt": -1, "stimulus": "<p id=\"stim\">EYELASH</p>", "key_press": -1, "type": "PRES_VIS", "word": "eyelash", "wordID": 545, "conditions": [12, 800, "v", 12000], "trial": 3, "serialpos": 4, "trial_type": "single-stim", "trial_index": 121, "time_elapsed": 833803, "internal_node_id": "0.0-85.0"}}, {"uniqueid": "MTK1066:3JJVG1YBEC44VYAN4K25X7CFA6FB5V", "current_trial": 122, "dateTime": 1513027702874, "trialdata": {"rt": -1, "stimulus": "<p id=\"stim\">BROOK</p>", "key_press": -1, "type": "PRES_VIS", "word": "brook", "wordID": 176, "conditions": [12, 800, "v", 12000], "trial": 3, "serialpos": 5, "trial_type": "single-stim", "trial_index": 122, "time_elapsed": 835580, "internal_node_id": "0.0-86.0"}}, {"uniqueid": "MTK1066:3JJVG1YBEC44VYAN4K25X7CFA6FB5V", "current_trial": 123, "dateTime": 1513027704597, "trialdata": {"rt": -1, "stimulus": "<p id=\"stim\">PATROL</p>", "key_press": -1, "type": "PRES_VIS", "word": "patrol", "wordID": 1026, "conditions": [12, 800, "v", 12000], "trial": 3, "serialpos": 6, "trial_type": "single-stim", "trial_index": 123, "time_elapsed": 837303, "internal_node_id": "0.0-87.0"}}, {"uniqueid": "MTK1066:3JJVG1YBEC44VYAN4K25X7CFA6FB5V", "current_trial": 124, "dateTime": 1513027706369, "trialdata": {"rt": -1, "stimulus": "<p id=\"stim\">CONCERT</p>", "key_press": -1, "type": "PRES_VIS", "word": "concert", "wordID": 359, "conditions": [12, 800, "v", 12000], "trial": 3, "serialpos": 7, "trial_type": "single-stim", "trial_index": 124, "time_elapsed": 839075, "internal_node_id": "0.0-88.0"}}, {"uniqueid": "MTK1066:3JJVG1YBEC44VYAN4K25X7CFA6FB5V", "current_trial": 125, "dateTime": 1513027708176, "trialdata": {"rt": -1, "stimulus": "<p id=\"stim\">CRAYON</p>", "key_press": -1, "type": "PRES_VIS", "word": "crayon", "wordID": 400, "conditions": [12, 800, "v", 12000], "trial": 3, "serialpos": 8, "trial_type": "single-stim", "trial_index": 125, "time_elapsed": 840882, "internal_node_id": "0.0-89.0"}}, {"uniqueid": "MTK1066:3JJVG1YBEC44VYAN4K25X7CFA6FB5V", "current_trial": 126, "dateTime": 1513027709902, "trialdata": {"rt": -1, "stimulus": "<p id=\"stim\">PARENT</p>", "key_press": -1, "type": "PRES_VIS", "word": "parent", "wordID": 1012, "conditions": [12, 800, "v", 12000], "trial": 3, "serialpos": 9, "trial_type": "single-stim", "trial_index": 126, "time_elapsed": 842608, "internal_node_id": "0.0-90.0"}}, {"uniqueid": "MTK1066:3JJVG1YBEC44VYAN4K25X7CFA6FB5V", "current_trial": 127, "dateTime": 1513027711644, "trialdata": {"rt": -1, "stimulus": "<p id=\"stim\">POLICE</p>", "key_press": -1, "type": "PRES_VIS", "word": "police", "wordID": 1097, "conditions": [12, 800, "v", 12000], "trial": 3, "serialpos": 10, "trial_type": "single-stim", "trial_index": 127, "time_elapsed": 844349, "internal_node_id": "0.0-91.0"}}, {"uniqueid": "MTK1066:3JJVG1YBEC44VYAN4K25X7CFA6FB5V", "current_trial": 128, "dateTime": 1513027713356, "trialdata": {"rt": -1, "stimulus": "<p id=\"stim\">SKETCH</p>", "key_press": -1, "type": "PRES_VIS", "word": "sketch", "wordID": 1314, "conditions": [12, 800, "v", 12000], "trial": 3, "serialpos": 11, "trial_type": "single-stim", "trial_index": 128, "time_elapsed": 846062, "internal_node_id": "0.0-92.0"}}, {"uniqueid": "MTK1066:3JJVG1YBEC44VYAN4K25X7CFA6FB5V", "current_trial": 129, "dateTime": 1513027715674, "trialdata": {"rt": -1, "stimulus": "", "key_press": -1, "type": "PRE_RECALL_DELAY", "trial_type": "single-stim", "trial_index": 129, "time_elapsed": 848380, "internal_node_id": "0.0-93.0-0.0"}}, {"uniqueid": "MTK1066:3JJVG1YBEC44VYAN4K25X7CFA6FB5V", "current_trial": 130, "dateTime": 1513027716176, "trialdata": {"rt": -1000, "stimulus": "/static/audio/400Hz.wav", "key_press": -1, "type": "PRE_RECALL_ALERT", "trial_type": "single-audio", "trial_index": 130, "time_elapsed": 848881, "internal_node_id": "0.0-94.0"}}, {"uniqueid": "MTK1066:3JJVG1YBEC44VYAN4K25X7CFA6FB5V", "current_trial": 131, "dateTime": 1513027776183, "trialdata": {"rt": [2872, 3640, 6120, 8784, 13750, 15870, 17085], "recwords": ["scallop", "clam", "cousin", "police", "fancer", "patrol", "parent"], "type": "FREE_RECALL", "conditions": [12, 800, "v", 12000], "trial": 3, "trial_type": "free-recall", "trial_index": 131, "time_elapsed": 908887, "internal_node_id": "0.0-95.0-0.0"}}, {"uniqueid": "MTK1066:3JJVG1YBEC44VYAN4K25X7CFA6FB5V", "current_trial": 132, "dateTime": 1513027779537, "trialdata": {"rt": 1352, "key_press": 32, "type": "INSTRUCTIONS", "trial_type": "text", "trial_index": 132, "time_elapsed": 912243, "internal_node_id": "0.0-96.0"}}, {"uniqueid": "MTK1066:3JJVG1YBEC44VYAN4K25X7CFA6FB5V", "current_trial": 133, "dateTime": 1513027805543, "trialdata": {"rt": [2848, 4208, 7063, 9728, 11320, 13519, 15863, 18095, 20615, 23247], "responses": ["15", "18", "21", "22", "14", "19", "11", "15", "14", "18"], "num1": [2, 8, 9, 9, 4, 4, 8, 6, 6, 4, 9], "num2": [5, 5, 8, 5, 2, 9, 1, 3, 1, 5, 9], "num3": [8, 5, 4, 8, 8, 6, 2, 6, 7, 9, 8], "type": "DISTRACTOR", "conditions": [12, 1600, "v", 24000], "trial": 4, "trial_type": "math-distractor", "trial_index": 133, "time_elapsed": 938249, "internal_node_id": "0.0-97.0"}}, {"uniqueid": "MTK1066:3JJVG1YBEC44VYAN4K25X7CFA6FB5V", "current_trial": 134, "dateTime": 1513027808549, "trialdata": {"rt": -1, "stimulus": "<p id=\"stim\">10</p>", "key_press": -1, "trial_type": "single-stim", "trial_index": 134, "time_elapsed": 941255, "internal_node_id": "0.0-98.0-0.0"}}, {"uniqueid": "MTK1066:3JJVG1YBEC44VYAN4K25X7CFA6FB5V", "current_trial": 135, "dateTime": 1513027809554, "trialdata": {"rt": -1, "stimulus": "<p id=\"stim\">9</p>", "key_press": -1, "trial_type": "single-stim", "trial_index": 135, "time_elapsed": 942259, "internal_node_id": "0.0-98.0-1.0"}}, {"uniqueid": "MTK1066:3JJVG1YBEC44VYAN4K25X7CFA6FB5V", "current_trial": 136, "dateTime": 1513027810558, "trialdata": {"rt": -1, "stimulus": "<p id=\"stim\">8</p>", "key_press": -1, "trial_type": "single-stim", "trial_index": 136, "time_elapsed": 943264, "internal_node_id": "0.0-98.0-2.0"}}, {"uniqueid": "MTK1066:3JJVG1YBEC44VYAN4K25X7CFA6FB5V", "current_trial": 137, "dateTime": 1513027811561, "trialdata": {"rt": -1, "stimulus": "<p id=\"stim\">7</p>", "key_press": -1, "trial_type": "single-stim", "trial_index": 137, "time_elapsed": 944267, "internal_node_id": "0.0-98.0-3.0"}}, {"uniqueid": "MTK1066:3JJVG1YBEC44VYAN4K25X7CFA6FB5V", "current_trial": 138, "dateTime": 1513027812566, "trialdata": {"rt": -1, "stimulus": "<p id=\"stim\">6</p>", "key_press": -1, "trial_type": "single-stim", "trial_index": 138, "time_elapsed": 945272, "internal_node_id": "0.0-98.0-4.0"}}, {"uniqueid": "MTK1066:3JJVG1YBEC44VYAN4K25X7CFA6FB5V", "current_trial": 139, "dateTime": 1513027813569, "trialdata": {"rt": -1, "stimulus": "<p id=\"stim\">5</p>", "key_press": -1, "trial_type": "single-stim", "trial_index": 139, "time_elapsed": 946275, "internal_node_id": "0.0-98.0-5.0"}}, {"uniqueid": "MTK1066:3JJVG1YBEC44VYAN4K25X7CFA6FB5V", "current_trial": 140, "dateTime": 1513027814574, "trialdata": {"rt": -1, "stimulus": "<p id=\"stim\">4</p>", "key_press": -1, "trial_type": "single-stim", "trial_index": 140, "time_elapsed": 947280, "internal_node_id": "0.0-98.0-6.0"}}, {"uniqueid": "MTK1066:3JJVG1YBEC44VYAN4K25X7CFA6FB5V", "current_trial": 141, "dateTime": 1513027815578, "trialdata": {"rt": -1, "stimulus": "<p id=\"stim\">3</p>", "key_press": -1, "trial_type": "single-stim", "trial_index": 141, "time_elapsed": 948284, "internal_node_id": "0.0-98.0-7.0"}}, {"uniqueid": "MTK1066:3JJVG1YBEC44VYAN4K25X7CFA6FB5V", "current_trial": 142, "dateTime": 1513027816582, "trialdata": {"rt": -1, "stimulus": "<p id=\"stim\">2</p>", "key_press": -1, "trial_type": "single-stim", "trial_index": 142, "time_elapsed": 949288, "internal_node_id": "0.0-98.0-8.0"}}, {"uniqueid": "MTK1066:3JJVG1YBEC44VYAN4K25X7CFA6FB5V", "current_trial": 143, "dateTime": 1513027817586, "trialdata": {"rt": -1, "stimulus": "<p id=\"stim\">1</p>", "key_press": -1, "trial_type": "single-stim", "trial_index": 143, "time_elapsed": 950292, "internal_node_id": "0.0-98.0-9.0"}}, {"uniqueid": "MTK1066:3JJVG1YBEC44VYAN4K25X7CFA6FB5V", "current_trial": 144, "dateTime": 1513027819089, "trialdata": {"rt": -1, "stimulus": "<p id=\"stim\">+</p>", "key_press": -1, "type": "FIXATION", "trial_type": "single-stim", "trial_index": 144, "time_elapsed": 951795, "internal_node_id": "0.0-99.0-0.0"}}, {"uniqueid": "MTK1066:3JJVG1YBEC44VYAN4K25X7CFA6FB5V", "current_trial": 145, "dateTime": 1513027820691, "trialdata": {"rt": -1, "stimulus": "<p id=\"stim\">MAILBOX</p>", "key_press": -1, "type": "PRES_VIS", "word": "mailbox", "wordID": 856, "conditions": [12, 1600, "v", 24000], "trial": 4, "serialpos": 0, "trial_type": "single-stim", "trial_index": 145, "time_elapsed": 953397, "internal_node_id": "0.0-100.0"}}, {"uniqueid": "MTK1066:3JJVG1YBEC44VYAN4K25X7CFA6FB5V", "current_trial": 146, "dateTime": 1513027823431, "trialdata": {"rt": -1, "stimulus": "<p id=\"stim\">MOTEL</p>", "key_press": -1, "type": "PRES_VIS", "word": "motel", "wordID": 918, "conditions": [12, 1600, "v", 24000], "trial": 4, "serialpos": 1, "trial_type": "single-stim", "trial_index": 146, "time_elapsed": 956136, "internal_node_id": "0.0-101.0"}}, {"uniqueid": "MTK1066:3JJVG1YBEC44VYAN4K25X7CFA6FB5V", "current_trial": 147, "dateTime": 1513027826187, "trialdata": {"rt": -1, "stimulus": "<p id=\"stim\">GAVEL</p>", "key_press": -1, "type": "PRES_VIS", "word": "gavel", "wordID": 626, "conditions": [12, 1600, "v", 24000], "trial": 4, "serialpos": 2, "trial_type": "single-stim", "trial_index": 147, "time_elapsed": 958893, "internal_node_id": "0.0-102.0"}}, {"uniqueid": "MTK1066:3JJVG1YBEC44VYAN4K25X7CFA6FB5V", "current_trial": 148, "dateTime": 1513027828689, "trialdata": {"rt": -1, "stimulus": "<p id=\"stim\">BADGE</p>", "key_press": -1, "type": "PRES_VIS", "word": "badge", "wordID": 67, "conditions": [12, 1600, "v", 24000], "trial": 4, "serialpos": 3, "trial_type": "single-stim", "trial_index": 148, "time_elapsed": 961394, "internal_node_id": "0.0-103.0"}}, {"uniqueid": "MTK1066:3JJVG1YBEC44VYAN4K25X7CFA6FB5V", "current_trial": 149, "dateTime": 1513027831422, "trialdata": {"rt": -1, "stimulus": "<p id=\"stim\">CRUTCH</p>", "key_press": -1, "type": "PRES_VIS", "word": "crutch", "wordID": 416, "conditions": [12, 1600, "v", 24000], "trial": 4, "serialpos": 4, "trial_type": "single-stim", "trial_index": 149, "time_elapsed": 964128, "internal_node_id": "0.0-104.0"}}, {"uniqueid": "MTK1066:3JJVG1YBEC44VYAN4K25X7CFA6FB5V", "current_trial": 150, "dateTime": 1513027834203, "trialdata": {"rt": -1, "stimulus": "<p id=\"stim\">SKILLET</p>", "key_press": -1, "type": "PRES_VIS", "word": "skillet", "wordID": 1316, "conditions": [12, 1600, "v", 24000], "trial": 4, "serialpos": 5, "trial_type": "single-stim", "trial_index": 150, "time_elapsed": 966909, "internal_node_id": "0.0-105.0"}}, {"uniqueid": "MTK1066:3JJVG1YBEC44VYAN4K25X7CFA6FB5V", "current_trial": 151, "dateTime": 1513027836826, "trialdata": {"rt": -1, "stimulus": "<p id=\"stim\">GRILL</p>", "key_press": -1, "type": "PRES_VIS", "word": "grill", "wordID": 660, "conditions": [12, 1600, "v", 24000], "trial": 4, "serialpos": 6, "trial_type": "single-stim", "trial_index": 151, "time_elapsed": 969531, "internal_node_id": "0.0-106.0"}}, {"uniqueid": "MTK1066:3JJVG1YBEC44VYAN4K25X7CFA6FB5V", "current_trial": 152, "dateTime": 1513027839264, "trialdata": {"rt": -1, "stimulus": "<p id=\"stim\">COTTAGE</p>", "key_press": -1, "type": "PRES_VIS", "word": "cottage", "wordID": 383, "conditions": [12, 1600, "v", 24000], "trial": 4, "serialpos": 7, "trial_type": "single-stim", "trial_index": 152, "time_elapsed": 971970, "internal_node_id": "0.0-107.0"}}, {"uniqueid": "MTK1066:3JJVG1YBEC44VYAN4K25X7CFA6FB5V", "current_trial": 153, "dateTime": 1513027841730, "trialdata": {"rt": -1, "stimulus": "<p id=\"stim\">COUNTRY</p>", "key_press": -1, "type": "PRES_VIS", "word": "country", "wordID": 387, "conditions": [12, 1600, "v", 24000], "trial": 4, "serialpos": 8, "trial_type": "single-stim", "trial_index": 153, "time_elapsed": 974436, "internal_node_id": "0.0-108.0"}}, {"uniqueid": "MTK1066:3JJVG1YBEC44VYAN4K25X7CFA6FB5V", "current_trial": 154, "dateTime": 1513027844180, "trialdata": {"rt": -1, "stimulus": "<p id=\"stim\">STICKER</p>", "key_press": -1, "type": "PRES_VIS", "word": "sticker", "wordID": 1381, "conditions": [12, 1600, "v", 24000], "trial": 4, "serialpos": 9, "trial_type": "single-stim", "trial_index": 154, "time_elapsed": 976885, "internal_node_id": "0.0-109.0"}}, {"uniqueid": "MTK1066:3JJVG1YBEC44VYAN4K25X7CFA6FB5V", "current_trial": 155, "dateTime": 1513027846907, "trialdata": {"rt": -1, "stimulus": "<p id=\"stim\">SEAFOOD</p>", "key_press": -1, "type": "PRES_VIS", "word": "seafood", "wordID": 1259, "conditions": [12, 1600, "v", 24000], "trial": 4, "serialpos": 10, "trial_type": "single-stim", "trial_index": 155, "time_elapsed": 979613, "internal_node_id": "0.0-110.0"}}, {"uniqueid": "MTK1066:3JJVG1YBEC44VYAN4K25X7CFA6FB5V", "current_trial": 156, "dateTime": 1513027849345, "trialdata": {"rt": -1, "stimulus": "<p id=\"stim\">RABBIT</p>", "key_press": -1, "type": "PRES_VIS", "word": "rabbit", "wordID": 1151, "conditions": [12, 1600, "v", 24000], "trial": 4, "serialpos": 11, "trial_type": "single-stim", "trial_index": 156, "time_elapsed": 982051, "internal_node_id": "0.0-111.0"}}, {"uniqueid": "MTK1066:3JJVG1YBEC44VYAN4K25X7CFA6FB5V", "current_trial": 157, "dateTime": 1513027851690, "trialdata": {"rt": -1, "stimulus": "", "key_press": -1, "type": "PRE_RECALL_DELAY", "trial_type": "single-stim", "trial_index": 157, "time_elapsed": 984396, "internal_node_id": "0.0-112.0-0.0"}}, {"uniqueid": "MTK1066:3JJVG1YBEC44VYAN4K25X7CFA6FB5V", "current_trial": 158, "dateTime": 1513027852192, "trialdata": {"rt": -1000, "stimulus": "/static/audio/400Hz.wav", "key_press": -1, "type": "PRE_RECALL_ALERT", "trial_type": "single-audio", "trial_index": 158, "time_elapsed": 984898, "internal_node_id": "0.0-113.0"}}, {"uniqueid": "MTK1066:3JJVG1YBEC44VYAN4K25X7CFA6FB5V", "current_trial": 159, "dateTime": 1513027912201, "trialdata": {"rt": [1597, 2836, 3895, 5253, 6141, 7868, 9101, 25563], "recwords": ["seafood", "rabbit", "skillet", "grill", "gravel", "country", "cottage", ""], "type": "FREE_RECALL", "conditions": [12, 1600, "v", 24000], "trial": 4, "trial_type": "free-recall", "trial_index": 159, "time_elapsed": 1044903, "internal_node_id": "0.0-114.0-0.0"}}, {"uniqueid": "MTK1066:3JJVG1YBEC44VYAN4K25X7CFA6FB5V", "current_trial": 160, "dateTime": 1513027915458, "trialdata": {"rt": 1255, "key_press": 32, "type": "INSTRUCTIONS", "trial_type": "text", "trial_index": 160, "time_elapsed": 1048164, "internal_node_id": "0.0-115.0"}}, {"uniqueid": "MTK1066:3JJVG1YBEC44VYAN4K25X7CFA6FB5V", "current_trial": 161, "dateTime": 1513027929467, "trialdata": {"rt": [2825, 5771], "responses": ["4", "24"], "num1": [2, 9, 9], "num2": [1, 9, 9], "num3": [1, 7, 7], "type": "DISTRACTOR", "conditions": [24, 800, "v", 12000], "trial": 5, "trial_type": "math-distractor", "trial_index": 161, "time_elapsed": 1062173, "internal_node_id": "0.0-116.0"}}, {"uniqueid": "MTK1066:3JJVG1YBEC44VYAN4K25X7CFA6FB5V", "current_trial": 162, "dateTime": 1513027932473, "trialdata": {"rt": -1, "stimulus": "<p id=\"stim\">10</p>", "key_press": -1, "trial_type": "single-stim", "trial_index": 162, "time_elapsed": 1065179, "internal_node_id": "0.0-117.0-0.0"}}, {"uniqueid": "MTK1066:3JJVG1YBEC44VYAN4K25X7CFA6FB5V", "current_trial": 163, "dateTime": 1513027933476, "trialdata": {"rt": -1, "stimulus": "<p id=\"stim\">9</p>", "key_press": -1, "trial_type": "single-stim", "trial_index": 163, "time_elapsed": 1066182, "internal_node_id": "0.0-117.0-1.0"}}, {"uniqueid": "MTK1066:3JJVG1YBEC44VYAN4K25X7CFA6FB5V", "current_trial": 164, "dateTime": 1513027934481, "trialdata": {"rt": -1, "stimulus": "<p id=\"stim\">8</p>", "key_press": -1, "trial_type": "single-stim", "trial_index": 164, "time_elapsed": 1067187, "internal_node_id": "0.0-117.0-2.0"}}, {"uniqueid": "MTK1066:3JJVG1YBEC44VYAN4K25X7CFA6FB5V", "current_trial": 165, "dateTime": 1513027935485, "trialdata": {"rt": -1, "stimulus": "<p id=\"stim\">7</p>", "key_press": -1, "trial_type": "single-stim", "trial_index": 165, "time_elapsed": 1068191, "internal_node_id": "0.0-117.0-3.0"}}, {"uniqueid": "MTK1066:3JJVG1YBEC44VYAN4K25X7CFA6FB5V", "current_trial": 166, "dateTime": 1513027936489, "trialdata": {"rt": -1, "stimulus": "<p id=\"stim\">6</p>", "key_press": -1, "trial_type": "single-stim", "trial_index": 166, "time_elapsed": 1069195, "internal_node_id": "0.0-117.0-4.0"}}, {"uniqueid": "MTK1066:3JJVG1YBEC44VYAN4K25X7CFA6FB5V", "current_trial": 167, "dateTime": 1513027937493, "trialdata": {"rt": -1, "stimulus": "<p id=\"stim\">5</p>", "key_press": -1, "trial_type": "single-stim", "trial_index": 167, "time_elapsed": 1070199, "internal_node_id": "0.0-117.0-5.0"}}, {"uniqueid": "MTK1066:3JJVG1YBEC44VYAN4K25X7CFA6FB5V", "current_trial": 168, "dateTime": 1513027938494, "trialdata": {"rt": -1, "stimulus": "<p id=\"stim\">4</p>", "key_press": -1, "trial_type": "single-stim", "trial_index": 168, "time_elapsed": 1071200, "internal_node_id": "0.0-117.0-6.0"}}, {"uniqueid": "MTK1066:3JJVG1YBEC44VYAN4K25X7CFA6FB5V", "current_trial": 169, "dateTime": 1513027939496, "trialdata": {"rt": -1, "stimulus": "<p id=\"stim\">3</p>", "key_press": -1, "trial_type": "single-stim", "trial_index": 169, "time_elapsed": 1072202, "internal_node_id": "0.0-117.0-7.0"}}, {"uniqueid": "MTK1066:3JJVG1YBEC44VYAN4K25X7CFA6FB5V", "current_trial": 170, "dateTime": 1513027940500, "trialdata": {"rt": -1, "stimulus": "<p id=\"stim\">2</p>", "key_press": -1, "trial_type": "single-stim", "trial_index": 170, "time_elapsed": 1073206, "internal_node_id": "0.0-117.0-8.0"}}, {"uniqueid": "MTK1066:3JJVG1YBEC44VYAN4K25X7CFA6FB5V", "current_trial": 171, "dateTime": 1513027941503, "trialdata": {"rt": -1, "stimulus": "<p id=\"stim\">1</p>", "key_press": -1, "trial_type": "single-stim", "trial_index": 171, "time_elapsed": 1074209, "internal_node_id": "0.0-117.0-9.0"}}, {"uniqueid": "MTK1066:3JJVG1YBEC44VYAN4K25X7CFA6FB5V", "current_trial": 172, "dateTime": 1513027943007, "trialdata": {"rt": -1, "stimulus": "<p id=\"stim\">+</p>", "key_press": -1, "type": "FIXATION", "trial_type": "single-stim", "trial_index": 172, "time_elapsed": 1075712, "internal_node_id": "0.0-118.0-0.0"}}, {"uniqueid": "MTK1066:3JJVG1YBEC44VYAN4K25X7CFA6FB5V", "current_trial": 173, "dateTime": 1513027943808, "trialdata": {"rt": -1, "stimulus": "<p id=\"stim\">MAILMAN</p>", "key_press": -1, "type": "PRES_VIS", "word": "mailman", "wordID": 857, "conditions": [24, 800, "v", 12000], "trial": 5, "serialpos": 0, "trial_type": "single-stim", "trial_index": 173, "time_elapsed": 1076514, "internal_node_id": "0.0-119.0"}}, {"uniqueid": "MTK1066:3JJVG1YBEC44VYAN4K25X7CFA6FB5V", "current_trial": 174, "dateTime": 1513027945433, "trialdata": {"rt": -1, "stimulus": "<p id=\"stim\">PRIMATE</p>", "key_press": -1, "type": "PRES_VIS", "word": "primate", "wordID": 1122, "conditions": [24, 800, "v", 12000], "trial": 5, "serialpos": 1, "trial_type": "single-stim", "trial_index": 174, "time_elapsed": 1078139, "internal_node_id": "0.0-120.0"}}, {"uniqueid": "MTK1066:3JJVG1YBEC44VYAN4K25X7CFA6FB5V", "current_trial": 175, "dateTime": 1513027947053, "trialdata": {"rt": -1, "stimulus": "<p id=\"stim\">LAMP</p>", "key_press": -1, "type": "PRES_VIS", "word": "lamp", "wordID": 797, "conditions": [24, 800, "v", 12000], "trial": 5, "serialpos": 2, "trial_type": "single-stim", "trial_index": 175, "time_elapsed": 1079758, "internal_node_id": "0.0-121.0"}}, {"uniqueid": "MTK1066:3JJVG1YBEC44VYAN4K25X7CFA6FB5V", "current_trial": 176, "dateTime": 1513027948712, "trialdata": {"rt": -1, "stimulus": "<p id=\"stim\">IGLOO</p>", "key_press": -1, "type": "PRES_VIS", "word": "igloo", "wordID": 733, "conditions": [24, 800, "v", 12000], "trial": 5, "serialpos": 3, "trial_type": "single-stim", "trial_index": 176, "time_elapsed": 1081418, "internal_node_id": "0.0-122.0"}}, {"uniqueid": "MTK1066:3JJVG1YBEC44VYAN4K25X7CFA6FB5V", "current_trial": 177, "dateTime": 1513027950392, "trialdata": {"rt": -1, "stimulus": "<p id=\"stim\">LUNCH</p>", "key_press": -1, "type": "PRES_VIS", "word": "lunch", "wordID": 848, "conditions": [24, 800, "v", 12000], "trial": 5, "serialpos": 4, "trial_type": "single-stim", "trial_index": 177, "time_elapsed": 1083098, "internal_node_id": "0.0-123.0"}}, {"uniqueid": "MTK1066:3JJVG1YBEC44VYAN4K25X7CFA6FB5V", "current_trial": 178, "dateTime": 1513027952015, "trialdata": {"rt": -1, "stimulus": "<p id=\"stim\">SNACK</p>", "key_press": -1, "type": "PRES_VIS", "word": "snack", "wordID": 1330, "conditions": [24, 800, "v", 12000], "trial": 5, "serialpos": 5, "trial_type": "single-stim", "trial_index": 178, "time_elapsed": 1084720, "internal_node_id": "0.0-124.0"}}, {"uniqueid": "MTK1066:3JJVG1YBEC44VYAN4K25X7CFA6FB5V", "current_trial": 179, "dateTime": 1513027953808, "trialdata": {"rt": -1, "stimulus": "<p id=\"stim\">PLIERS</p>", "key_press": -1, "type": "PRES_VIS", "word": "pliers", "wordID": 1088, "conditions": [24, 800, "v", 12000], "trial": 5, "serialpos": 6, "trial_type": "single-stim", "trial_index": 179, "time_elapsed": 1086514, "internal_node_id": "0.0-125.0"}}, {"uniqueid": "MTK1066:3JJVG1YBEC44VYAN4K25X7CFA6FB5V", "current_trial": 180, "dateTime": 1513027955538, "trialdata": {"rt": -1, "stimulus": "<p id=\"stim\">MAMMAL</p>", "key_press": -1, "type": "PRES_VIS", "word": "mammal", "wordID": 860, "conditions": [24, 800, "v", 12000], "trial": 5, "serialpos": 7, "trial_type": "single-stim", "trial_index": 180, "time_elapsed": 1088244, "internal_node_id": "0.0-126.0"}}, {"uniqueid": "MTK1066:3JJVG1YBEC44VYAN4K25X7CFA6FB5V", "current_trial": 181, "dateTime": 1513027957416, "trialdata": {"rt": -1, "stimulus": "<p id=\"stim\">KNAPSACK</p>", "key_press": -1, "type": "PRES_VIS", "word": "knapsack", "wordID": 782, "conditions": [24, 800, "v", 12000], "trial": 5, "serialpos": 8, "trial_type": "single-stim", "trial_index": 181, "time_elapsed": 1090122, "internal_node_id": "0.0-127.0"}}, {"uniqueid": "MTK1066:3JJVG1YBEC44VYAN4K25X7CFA6FB5V", "current_trial": 182, "dateTime": 1513027959293, "trialdata": {"rt": -1, "stimulus": "<p id=\"stim\">QUARTER</p>", "key_press": -1, "type": "PRES_VIS", "word": "quarter", "wordID": 1147, "conditions": [24, 800, "v", 12000], "trial": 5, "serialpos": 9, "trial_type": "single-stim", "trial_index": 182, "time_elapsed": 1091999, "internal_node_id": "0.0-128.0"}}, {"uniqueid": "MTK1066:3JJVG1YBEC44VYAN4K25X7CFA6FB5V", "current_trial": 183, "dateTime": 1513027961162, "trialdata": {"rt": -1, "stimulus": "<p id=\"stim\">DRINK</p>", "key_press": -1, "type": "PRES_VIS", "word": "drink", "wordID": 497, "conditions": [24, 800, "v", 12000], "trial": 5, "serialpos": 10, "trial_type": "single-stim", "trial_index": 183, "time_elapsed": 1093868, "internal_node_id": "0.0-129.0"}}, {"uniqueid": "MTK1066:3JJVG1YBEC44VYAN4K25X7CFA6FB5V", "current_trial": 184, "dateTime": 1513027962851, "trialdata": {"rt": -1, "stimulus": "<p id=\"stim\">SCALPEL</p>", "key_press": -1, "type": "PRES_VIS", "word": "scalpel", "wordID": 1242, "conditions": [24, 800, "v", 12000], "trial": 5, "serialpos": 11, "trial_type": "single-stim", "trial_index": 184, "time_elapsed": 1095557, "internal_node_id": "0.0-130.0"}}, {"uniqueid": "MTK1066:3JJVG1YBEC44VYAN4K25X7CFA6FB5V", "current_trial": 185, "dateTime": 1513027964603, "trialdata": {"rt": -1, "stimulus": "<p id=\"stim\">PEBBLE</p>", "key_press": -1, "type": "PRES_VIS", "word": "pebble", "wordID": 1034, "conditions": [24, 800, "v", 12000], "trial": 5, "serialpos": 12, "trial_type": "single-stim", "trial_index": 185, "time_elapsed": 1097309, "internal_node_id": "0.0-131.0"}}, {"uniqueid": "MTK1066:3JJVG1YBEC44VYAN4K25X7CFA6FB5V", "current_trial": 186, "dateTime": 1513027966222, "trialdata": {"rt": -1, "stimulus": "<p id=\"stim\">ROD</p>", "key_press": -1, "type": "PRES_VIS", "word": "rod", "wordID": 1202, "conditions": [24, 800, "v", 12000], "trial": 5, "serialpos": 13, "trial_type": "single-stim", "trial_index": 186, "time_elapsed": 1098928, "internal_node_id": "0.0-132.0"}}, {"uniqueid": "MTK1066:3JJVG1YBEC44VYAN4K25X7CFA6FB5V", "current_trial": 187, "dateTime": 1513027967999, "trialdata": {"rt": -1, "stimulus": "<p id=\"stim\">TEMPLE</p>", "key_press": -1, "type": "PRES_VIS", "word": "temple", "wordID": 1447, "conditions": [24, 800, "v", 12000], "trial": 5, "serialpos": 14, "trial_type": "single-stim", "trial_index": 187, "time_elapsed": 1100705, "internal_node_id": "0.0-133.0"}}, {"uniqueid": "MTK1066:3JJVG1YBEC44VYAN4K25X7CFA6FB5V", "current_trial": 188, "dateTime": 1513027969914, "trialdata": {"rt": -1, "stimulus": "<p id=\"stim\">DIVER</p>", "key_press": -1, "type": "PRES_VIS", "word": "diver", "wordID": 475, "conditions": [24, 800, "v", 12000], "trial": 5, "serialpos": 15, "trial_type": "single-stim", "trial_index": 188, "time_elapsed": 1102620, "internal_node_id": "0.0-134.0"}}, {"uniqueid": "MTK1066:3JJVG1YBEC44VYAN4K25X7CFA6FB5V", "current_trial": 189, "dateTime": 1513027971609, "trialdata": {"rt": -1, "stimulus": "<p id=\"stim\">MARINE</p>", "key_press": -1, "type": "PRES_VIS", "word": "marine", "wordID": 868, "conditions": [24, 800, "v", 12000], "trial": 5, "serialpos": 16, "trial_type": "single-stim", "trial_index": 189, "time_elapsed": 1104314, "internal_node_id": "0.0-135.0"}}, {"uniqueid": "MTK1066:3JJVG1YBEC44VYAN4K25X7CFA6FB5V", "current_trial": 190, "dateTime": 1513027973446, "trialdata": {"rt": -1, "stimulus": "<p id=\"stim\">TUBA</p>", "key_press": -1, "type": "PRES_VIS", "word": "tuba", "wordID": 1514, "conditions": [24, 800, "v", 12000], "trial": 5, "serialpos": 17, "trial_type": "single-stim", "trial_index": 190, "time_elapsed": 1106152, "internal_node_id": "0.0-136.0"}}, {"uniqueid": "MTK1066:3JJVG1YBEC44VYAN4K25X7CFA6FB5V", "current_trial": 191, "dateTime": 1513027975318, "trialdata": {"rt": -1, "stimulus": "<p id=\"stim\">VIKING</p>", "key_press": -1, "type": "PRES_VIS", "word": "viking", "wordID": 1564, "conditions": [24, 800, "v", 12000], "trial": 5, "serialpos": 18, "trial_type": "single-stim", "trial_index": 191, "time_elapsed": 1108024, "internal_node_id": "0.0-137.0"}}, {"uniqueid": "MTK1066:3JJVG1YBEC44VYAN4K25X7CFA6FB5V", "current_trial": 192, "dateTime": 1513027977163, "trialdata": {"rt": -1, "stimulus": "<p id=\"stim\">HEDGE</p>", "key_press": -1, "type": "PRES_VIS", "word": "hedge", "wordID": 698, "conditions": [24, 800, "v", 12000], "trial": 5, "serialpos": 19, "trial_type": "single-stim", "trial_index": 192, "time_elapsed": 1109869, "internal_node_id": "0.0-138.0"}}, {"uniqueid": "MTK1066:3JJVG1YBEC44VYAN4K25X7CFA6FB5V", "current_trial": 193, "dateTime": 1513027978905, "trialdata": {"rt": -1, "stimulus": "<p id=\"stim\">BANJO</p>", "key_press": -1, "type": "PRES_VIS", "word": "banjo", "wordID": 81, "conditions": [24, 800, "v", 12000], "trial": 5, "serialpos": 20, "trial_type": "single-stim", "trial_index": 193, "time_elapsed": 1111611, "internal_node_id": "0.0-139.0"}}, {"uniqueid": "MTK1066:3JJVG1YBEC44VYAN4K25X7CFA6FB5V", "current_trial": 194, "dateTime": 1513027980518, "trialdata": {"rt": -1, "stimulus": "<p id=\"stim\">WRIST</p>", "key_press": -1, "type": "PRES_VIS", "word": "wrist", "wordID": 1625, "conditions": [24, 800, "v", 12000], "trial": 5, "serialpos": 21, "trial_type": "single-stim", "trial_index": 194, "time_elapsed": 1113224, "internal_node_id": "0.0-140.0"}}, {"uniqueid": "MTK1066:3JJVG1YBEC44VYAN4K25X7CFA6FB5V", "current_trial": 195, "dateTime": 1513027982291, "trialdata": {"rt": -1, "stimulus": "<p id=\"stim\">SHOULDER</p>", "key_press": -1, "type": "PRES_VIS", "word": "shoulder", "wordID": 1293, "conditions": [24, 800, "v", 12000], "trial": 5, "serialpos": 22, "trial_type": "single-stim", "trial_index": 195, "time_elapsed": 1114996, "internal_node_id": "0.0-141.0"}}, {"uniqueid": "MTK1066:3JJVG1YBEC44VYAN4K25X7CFA6FB5V", "current_trial": 196, "dateTime": 1513027984093, "trialdata": {"rt": -1, "stimulus": "<p id=\"stim\">FOX</p>", "key_press": -1, "type": "PRES_VIS", "word": "fox", "wordID": 597, "conditions": [24, 800, "v", 12000], "trial": 5, "serialpos": 23, "trial_type": "single-stim", "trial_index": 196, "time_elapsed": 1116799, "internal_node_id": "0.0-142.0"}}, {"uniqueid": "MTK1066:3JJVG1YBEC44VYAN4K25X7CFA6FB5V", "current_trial": 197, "dateTime": 1513027986503, "trialdata": {"rt": -1, "stimulus": "", "key_press": -1, "type": "PRE_RECALL_DELAY", "trial_type": "single-stim", "trial_index": 197, "time_elapsed": 1119209, "internal_node_id": "0.0-143.0-0.0"}}, {"uniqueid": "MTK1066:3JJVG1YBEC44VYAN4K25X7CFA6FB5V", "current_trial": 198, "dateTime": 1513027987005, "trialdata": {"rt": -1000, "stimulus": "/static/audio/400Hz.wav", "key_press": -1, "type": "PRE_RECALL_ALERT", "trial_type": "single-audio", "trial_index": 198, "time_elapsed": 1119710, "internal_node_id": "0.0-144.0"}}, {"uniqueid": "MTK1066:3JJVG1YBEC44VYAN4K25X7CFA6FB5V", "current_trial": 199, "dateTime": 1513028047011, "trialdata": {"rt": [1878, 2943, 3806, 8511, 10086], "recwords": ["viper", "marine", "tuba", "mammal", "scalpel"], "type": "FREE_RECALL", "conditions": [24, 800, "v", 12000], "trial": 5, "trial_type": "free-recall", "trial_index": 199, "time_elapsed": 1179716, "internal_node_id": "0.0-145.0-0.0"}}, {"uniqueid": "MTK1066:3JJVG1YBEC44VYAN4K25X7CFA6FB5V", "current_trial": 200, "dateTime": 1513028079732, "trialdata": {"rt": 30719, "key_press": 32, "type": "INSTRUCTIONS", "trial_type": "text", "trial_index": 200, "time_elapsed": 1212438, "internal_node_id": "0.0-146.0"}}, {"uniqueid": "MTK1066:3JJVG1YBEC44VYAN4K25X7CFA6FB5V", "current_trial": 201, "dateTime": 1513028093737, "trialdata": {"rt": [2237, 5325, 7109, 10190], "responses": ["9", "16", "6", "22"], "num1": [6, 3, 4, 8, 3], "num2": [2, 9, 1, 9, 1], "num3": [1, 4, 1, 5, 3], "type": "DISTRACTOR", "conditions": [12, 800, "a", 12000], "trial": 6, "trial_type": "math-distractor", "trial_index": 201, "time_elapsed": 1226443, "internal_node_id": "0.0-147.0"}}, {"uniqueid": "MTK1066:3JJVG1YBEC44VYAN4K25X7CFA6FB5V", "current_trial": 202, "dateTime": 1513028096744, "trialdata": {"rt": -1, "stimulus": "<p id=\"stim\">10</p>", "key_press": -1, "trial_type": "single-stim", "trial_index": 202, "time_elapsed": 1229449, "internal_node_id": "0.0-148.0-0.0"}}, {"uniqueid": "MTK1066:3JJVG1YBEC44VYAN4K25X7CFA6FB5V", "current_trial": 203, "dateTime": 1513028097745, "trialdata": {"rt": -1, "stimulus": "<p id=\"stim\">9</p>", "key_press": -1, "trial_type": "single-stim", "trial_index": 203, "time_elapsed": 1230451, "internal_node_id": "0.0-148.0-1.0"}}, {"uniqueid": "MTK1066:3JJVG1YBEC44VYAN4K25X7CFA6FB5V", "current_trial": 204, "dateTime": 1513028098748, "trialdata": {"rt": -1, "stimulus": "<p id=\"stim\">8</p>", "key_press": -1, "trial_type": "single-stim", "trial_index": 204, "time_elapsed": 1231453, "internal_node_id": "0.0-148.0-2.0"}}, {"uniqueid": "MTK1066:3JJVG1YBEC44VYAN4K25X7CFA6FB5V", "current_trial": 205, "dateTime": 1513028099750, "trialdata": {"rt": -1, "stimulus": "<p id=\"stim\">7</p>", "key_press": -1, "trial_type": "single-stim", "trial_index": 205, "time_elapsed": 1232456, "internal_node_id": "0.0-148.0-3.0"}}, {"uniqueid": "MTK1066:3JJVG1YBEC44VYAN4K25X7CFA6FB5V", "current_trial": 206, "dateTime": 1513028100754, "trialdata": {"rt": -1, "stimulus": "<p id=\"stim\">6</p>", "key_press": -1, "trial_type": "single-stim", "trial_index": 206, "time_elapsed": 1233460, "internal_node_id": "0.0-148.0-4.0"}}, {"uniqueid": "MTK1066:3JJVG1YBEC44VYAN4K25X7CFA6FB5V", "current_trial": 207, "dateTime": 1513028101758, "trialdata": {"rt": -1, "stimulus": "<p id=\"stim\">5</p>", "key_press": -1, "trial_type": "single-stim", "trial_index": 207, "time_elapsed": 1234464, "internal_node_id": "0.0-148.0-5.0"}}, {"uniqueid": "MTK1066:3JJVG1YBEC44VYAN4K25X7CFA6FB5V", "current_trial": 208, "dateTime": 1513028102763, "trialdata": {"rt": -1, "stimulus": "<p id=\"stim\">4</p>", "key_press": -1, "trial_type": "single-stim", "trial_index": 208, "time_elapsed": 1235469, "internal_node_id": "0.0-148.0-6.0"}}, {"uniqueid": "MTK1066:3JJVG1YBEC44VYAN4K25X7CFA6FB5V", "current_trial": 209, "dateTime": 1513028103767, "trialdata": {"rt": -1, "stimulus": "<p id=\"stim\">3</p>", "key_press": -1, "trial_type": "single-stim", "trial_index": 209, "time_elapsed": 1236473, "internal_node_id": "0.0-148.0-7.0"}}, {"uniqueid": "MTK1066:3JJVG1YBEC44VYAN4K25X7CFA6FB5V", "current_trial": 210, "dateTime": 1513028104768, "trialdata": {"rt": -1, "stimulus": "<p id=\"stim\">2</p>", "key_press": -1, "trial_type": "single-stim", "trial_index": 210, "time_elapsed": 1237474, "internal_node_id": "0.0-148.0-8.0"}}, {"uniqueid": "MTK1066:3JJVG1YBEC44VYAN4K25X7CFA6FB5V", "current_trial": 211, "dateTime": 1513028105770, "trialdata": {"rt": -1, "stimulus": "<p id=\"stim\">1</p>", "key_press": -1, "trial_type": "single-stim", "trial_index": 211, "time_elapsed": 1238476, "internal_node_id": "0.0-148.0-9.0"}}, {"uniqueid": "MTK1066:3JJVG1YBEC44VYAN4K25X7CFA6FB5V", "current_trial": 212, "dateTime": 1513028107272, "trialdata": {"rt": -1, "stimulus": "<p id=\"stim\">+</p>", "key_press": -1, "type": "FIXATION", "trial_type": "single-stim", "trial_index": 212, "time_elapsed": 1239978, "internal_node_id": "0.0-149.0-0.0"}}, {"uniqueid": "MTK1066:3JJVG1YBEC44VYAN4K25X7CFA6FB5V", "current_trial": 213, "dateTime": 1513028108919, "trialdata": {"rt": -1000, "stimulus": "/static/audio/wordpool/COSTUME.wav", "key_press": -1, "type": "PRES_AUD", "word": "costume", "wordID": 382, "conditions": [12, 800, "a", 12000], "trial": 6, "serialpos": 0, "trial_type": "single-audio", "trial_index": 213, "time_elapsed": 1241624, "internal_node_id": "0.0-150.0"}}, {"uniqueid": "MTK1066:3JJVG1YBEC44VYAN4K25X7CFA6FB5V", "current_trial": 214, "dateTime": 1513028110719, "trialdata": {"rt": -1000, "stimulus": "/static/audio/wordpool/FIDDLE.wav", "key_press": -1, "type": "PRES_AUD", "word": "fiddle", "wordID": 560, "conditions": [12, 800, "a", 12000], "trial": 6, "serialpos": 1, "trial_type": "single-audio", "trial_index": 214, "time_elapsed": 1243425, "internal_node_id": "0.0-151.0"}}, {"uniqueid": "MTK1066:3JJVG1YBEC44VYAN4K25X7CFA6FB5V", "current_trial": 215, "dateTime": 1513028112465, "trialdata": {"rt": -1000, "stimulus": "/static/audio/wordpool/TILE.wav", "key_press": -1, "type": "PRES_AUD", "word": "tile", "wordID": 1467, "conditions": [12, 800, "a", 12000], "trial": 6, "serialpos": 2, "trial_type": "single-audio", "trial_index": 215, "time_elapsed": 1245171, "internal_node_id": "0.0-152.0"}}, {"uniqueid": "MTK1066:3JJVG1YBEC44VYAN4K25X7CFA6FB5V", "current_trial": 216, "dateTime": 1513028114204, "trialdata": {"rt": -1000, "stimulus": "/static/audio/wordpool/LADY.wav", "key_press": -1, "type": "PRES_AUD", "word": "lady", "wordID": 793, "conditions": [12, 800, "a", 12000], "trial": 6, "serialpos": 3, "trial_type": "single-audio", "trial_index": 216, "time_elapsed": 1246910, "internal_node_id": "0.0-153.0"}}, {"uniqueid": "MTK1066:3JJVG1YBEC44VYAN4K25X7CFA6FB5V", "current_trial": 217, "dateTime": 1513028115958, "trialdata": {"rt": -1000, "stimulus": "/static/audio/wordpool/SUITCASE.wav", "key_press": -1, "type": "PRES_AUD", "word": "suitcase", "wordID": 1402, "conditions": [12, 800, "a", 12000], "trial": 6, "serialpos": 4, "trial_type": "single-audio", "trial_index": 217, "time_elapsed": 1248664, "internal_node_id": "0.0-154.0"}}, {"uniqueid": "MTK1066:3JJVG1YBEC44VYAN4K25X7CFA6FB5V", "current_trial": 218, "dateTime": 1513028117568, "trialdata": {"rt": -1000, "stimulus": "/static/audio/wordpool/KNIFE.wav", "key_press": -1, "type": "PRES_AUD", "word": "knife", "wordID": 784, "conditions": [12, 800, "a", 12000], "trial": 6, "serialpos": 5, "trial_type": "single-audio", "trial_index": 218, "time_elapsed": 1250273, "internal_node_id": "0.0-155.0"}}, {"uniqueid": "MTK1066:3JJVG1YBEC44VYAN4K25X7CFA6FB5V", "current_trial": 219, "dateTime": 1513028119431, "trialdata": {"rt": -1000, "stimulus": "/static/audio/wordpool/SALAD.wav", "key_press": -1, "type": "PRES_AUD", "word": "salad", "wordID": 1223, "conditions": [12, 800, "a", 12000], "trial": 6, "serialpos": 6, "trial_type": "single-audio", "trial_index": 219, "time_elapsed": 1252137, "internal_node_id": "0.0-156.0"}}, {"uniqueid": "MTK1066:3JJVG1YBEC44VYAN4K25X7CFA6FB5V", "current_trial": 220, "dateTime": 1513028121405, "trialdata": {"rt": -1000, "stimulus": "/static/audio/wordpool/FLOWER.wav", "key_press": -1, "type": "PRES_AUD", "word": "flower", "wordID": 583, "conditions": [12, 800, "a", 12000], "trial": 6, "serialpos": 7, "trial_type": "single-audio", "trial_index": 220, "time_elapsed": 1254111, "internal_node_id": "0.0-157.0"}}, {"uniqueid": "MTK1066:3JJVG1YBEC44VYAN4K25X7CFA6FB5V", "current_trial": 221, "dateTime": 1513028123164, "trialdata": {"rt": -1000, "stimulus": "/static/audio/wordpool/LILY.wav", "key_press": -1, "type": "PRES_AUD", "word": "lily", "wordID": 820, "conditions": [12, 800, "a", 12000], "trial": 6, "serialpos": 8, "trial_type": "single-audio", "trial_index": 221, "time_elapsed": 1255869, "internal_node_id": "0.0-158.0"}}, {"uniqueid": "MTK1066:3JJVG1YBEC44VYAN4K25X7CFA6FB5V", "current_trial": 222, "dateTime": 1513028125102, "trialdata": {"rt": -1000, "stimulus": "/static/audio/wordpool/FLUTE.wav", "key_press": -1, "type": "PRES_AUD", "word": "flute", "wordID": 584, "conditions": [12, 800, "a", 12000], "trial": 6, "serialpos": 9, "trial_type": "single-audio", "trial_index": 222, "time_elapsed": 1257808, "internal_node_id": "0.0-159.0"}}, {"uniqueid": "MTK1066:3JJVG1YBEC44VYAN4K25X7CFA6FB5V", "current_trial": 223, "dateTime": 1513028127092, "trialdata": {"rt": -1000, "stimulus": "/static/audio/wordpool/HARP.wav", "key_press": -1, "type": "PRES_AUD", "word": "harp", "wordID": 688, "conditions": [12, 800, "a", 12000], "trial": 6, "serialpos": 10, "trial_type": "single-audio", "trial_index": 223, "time_elapsed": 1259798, "internal_node_id": "0.0-160.0"}}, {"uniqueid": "MTK1066:3JJVG1YBEC44VYAN4K25X7CFA6FB5V", "current_trial": 224, "dateTime": 1513028128743, "trialdata": {"rt": -1000, "stimulus": "/static/audio/wordpool/SLOPE.wav", "key_press": -1, "type": "PRES_AUD", "word": "slope", "wordID": 1327, "conditions": [12, 800, "a", 12000], "trial": 6, "serialpos": 11, "trial_type": "single-audio", "trial_index": 224, "time_elapsed": 1261449, "internal_node_id": "0.0-161.0"}}, {"uniqueid": "MTK1066:3JJVG1YBEC44VYAN4K25X7CFA6FB5V", "current_trial": 225, "dateTime": 1513028130041, "trialdata": {"rt": -1, "stimulus": "", "key_press": -1, "type": "PRE_RECALL_DELAY", "trial_type": "single-stim", "trial_index": 225, "time_elapsed": 1262747, "internal_node_id": "0.0-162.0-0.0"}}, {"uniqueid": "MTK1066:3JJVG1YBEC44VYAN4K25X7CFA6FB5V", "current_trial": 226, "dateTime": 1513028130542, "trialdata": {"rt": -1000, "stimulus": "/static/audio/400Hz.wav", "key_press": -1, "type": "PRE_RECALL_ALERT", "trial_type": "single-audio", "trial_index": 226, "time_elapsed": 1263248, "internal_node_id": "0.0-163.0"}}, {"uniqueid": "MTK1066:3JJVG1YBEC44VYAN4K25X7CFA6FB5V", "current_trial": 227, "dateTime": 1513028190548, "trialdata": {"rt": [1287, 4022, 4863, 6687, 8614, 10119, 12143, 13622, 15440], "recwords": ["costime", "costume", "lady", "fiddle", "flower", "lily", "slope", "harp", "slope"], "type": "FREE_RECALL", "conditions": [12, 800, "a", 12000], "trial": 6, "trial_type": "free-recall", "trial_index": 227, "time_elapsed": 1323251, "internal_node_id": "0.0-164.0-0.0"}}, {"uniqueid": "MTK1066:3JJVG1YBEC44VYAN4K25X7CFA6FB5V", "current_trial": 228, "dateTime": 1513028193493, "trialdata": {"rt": 943, "key_press": 32, "type": "INSTRUCTIONS", "trial_type": "text", "trial_index": 228, "time_elapsed": 1326199, "internal_node_id": "0.0-165.0"}}, {"uniqueid": "MTK1066:3JJVG1YBEC44VYAN4K25X7CFA6FB5V", "current_trial": 229, "dateTime": 1513028207502, "trialdata": {"rt": [2174, 4509, 7550, 10885], "responses": ["9", "7", "10", "10"], "num1": [2, 2, 1, 2, 6], "num2": [3, 2, 6, 4, 3], "num3": [4, 3, 3, 5, 6], "type": "DISTRACTOR", "conditions": [24, 1600, "v", 12000], "trial": 7, "trial_type": "math-distractor", "trial_index": 229, "time_elapsed": 1340208, "internal_node_id": "0.0-166.0"}}, {"uniqueid": "MTK1066:3JJVG1YBEC44VYAN4K25X7CFA6FB5V", "current_trial": 230, "dateTime": 1513028210508, "trialdata": {"rt": -1, "stimulus": "<p id=\"stim\">10</p>", "key_press": -1, "trial_type": "single-stim", "trial_index": 230, "time_elapsed": 1343213, "internal_node_id": "0.0-167.0-0.0"}}, {"uniqueid": "MTK1066:3JJVG1YBEC44VYAN4K25X7CFA6FB5V", "current_trial": 231, "dateTime": 1513028211512, "trialdata": {"rt": -1, "stimulus": "<p id=\"stim\">9</p>", "key_press": -1, "trial_type": "single-stim", "trial_index": 231, "time_elapsed": 1344217, "internal_node_id": "0.0-167.0-1.0"}}, {"uniqueid": "MTK1066:3JJVG1YBEC44VYAN4K25X7CFA6FB5V", "current_trial": 232, "dateTime": 1513028212515, "trialdata": {"rt": -1, "stimulus": "<p id=\"stim\">8</p>", "key_press": -1, "trial_type": "single-stim", "trial_index": 232, "time_elapsed": 1345221, "internal_node_id": "0.0-167.0-2.0"}}, {"uniqueid": "MTK1066:3JJVG1YBEC44VYAN4K25X7CFA6FB5V", "current_trial": 233, "dateTime": 1513028213520, "trialdata": {"rt": -1, "stimulus": "<p id=\"stim\">7</p>", "key_press": -1, "trial_type": "single-stim", "trial_index": 233, "time_elapsed": 1346226, "internal_node_id": "0.0-167.0-3.0"}}, {"uniqueid": "MTK1066:3JJVG1YBEC44VYAN4K25X7CFA6FB5V", "current_trial": 234, "dateTime": 1513028214524, "trialdata": {"rt": -1, "stimulus": "<p id=\"stim\">6</p>", "key_press": -1, "trial_type": "single-stim", "trial_index": 234, "time_elapsed": 1347230, "internal_node_id": "0.0-167.0-4.0"}}, {"uniqueid": "MTK1066:3JJVG1YBEC44VYAN4K25X7CFA6FB5V", "current_trial": 235, "dateTime": 1513028215528, "trialdata": {"rt": -1, "stimulus": "<p id=\"stim\">5</p>", "key_press": -1, "trial_type": "single-stim", "trial_index": 235, "time_elapsed": 1348234, "internal_node_id": "0.0-167.0-5.0"}}, {"uniqueid": "MTK1066:3JJVG1YBEC44VYAN4K25X7CFA6FB5V", "current_trial": 236, "dateTime": 1513028216533, "trialdata": {"rt": -1, "stimulus": "<p id=\"stim\">4</p>", "key_press": -1, "trial_type": "single-stim", "trial_index": 236, "time_elapsed": 1349239, "internal_node_id": "0.0-167.0-6.0"}}, {"uniqueid": "MTK1066:3JJVG1YBEC44VYAN4K25X7CFA6FB5V", "current_trial": 237, "dateTime": 1513028217537, "trialdata": {"rt": -1, "stimulus": "<p id=\"stim\">3</p>", "key_press": -1, "trial_type": "single-stim", "trial_index": 237, "time_elapsed": 1350242, "internal_node_id": "0.0-167.0-7.0"}}, {"uniqueid": "MTK1066:3JJVG1YBEC44VYAN4K25X7CFA6FB5V", "current_trial": 238, "dateTime": 1513028218540, "trialdata": {"rt": -1, "stimulus": "<p id=\"stim\">2</p>", "key_press": -1, "trial_type": "single-stim", "trial_index": 238, "time_elapsed": 1351246, "internal_node_id": "0.0-167.0-8.0"}}, {"uniqueid": "MTK1066:3JJVG1YBEC44VYAN4K25X7CFA6FB5V", "current_trial": 239, "dateTime": 1513028219544, "trialdata": {"rt": -1, "stimulus": "<p id=\"stim\">1</p>", "key_press": -1, "trial_type": "single-stim", "trial_index": 239, "time_elapsed": 1352250, "internal_node_id": "0.0-167.0-9.0"}}, {"uniqueid": "MTK1066:3JJVG1YBEC44VYAN4K25X7CFA6FB5V", "current_trial": 240, "dateTime": 1513028221048, "trialdata": {"rt": -1, "stimulus": "<p id=\"stim\">+</p>", "key_press": -1, "type": "FIXATION", "trial_type": "single-stim", "trial_index": 240, "time_elapsed": 1353754, "internal_node_id": "0.0-168.0-0.0"}}, {"uniqueid": "MTK1066:3JJVG1YBEC44VYAN4K25X7CFA6FB5V", "current_trial": 241, "dateTime": 1513028222650, "trialdata": {"rt": -1, "stimulus": "<p id=\"stim\">LIZARD</p>", "key_press": -1, "type": "PRES_VIS", "word": "lizard", "wordID": 833, "conditions": [24, 1600, "v", 12000], "trial": 7, "serialpos": 0, "trial_type": "single-stim", "trial_index": 241, "time_elapsed": 1355356, "internal_node_id": "0.0-169.0"}}, {"uniqueid": "MTK1066:3JJVG1YBEC44VYAN4K25X7CFA6FB5V", "current_trial": 242, "dateTime": 1513028225221, "trialdata": {"rt": -1, "stimulus": "<p id=\"stim\">LEG</p>", "key_press": -1, "type": "PRES_VIS", "word": "leg", "wordID": 808, "conditions": [24, 1600, "v", 12000], "trial": 7, "serialpos": 1, "trial_type": "single-stim", "trial_index": 242, "time_elapsed": 1357927, "internal_node_id": "0.0-170.0"}}, {"uniqueid": "MTK1066:3JJVG1YBEC44VYAN4K25X7CFA6FB5V", "current_trial": 243, "dateTime": 1513028227954, "trialdata": {"rt": -1, "stimulus": "<p id=\"stim\">MARKER</p>", "key_press": -1, "type": "PRES_VIS", "word": "marker", "wordID": 869, "conditions": [24, 1600, "v", 12000], "trial": 7, "serialpos": 2, "trial_type": "single-stim", "trial_index": 243, "time_elapsed": 1360660, "internal_node_id": "0.0-171.0"}}, {"uniqueid": "MTK1066:3JJVG1YBEC44VYAN4K25X7CFA6FB5V", "current_trial": 244, "dateTime": 1513028230624, "trialdata": {"rt": -1, "stimulus": "<p id=\"stim\">BALLOON</p>", "key_press": -1, "type": "PRES_VIS", "word": "balloon", "wordID": 74, "conditions": [24, 1600, "v", 12000], "trial": 7, "serialpos": 3, "trial_type": "single-stim", "trial_index": 244, "time_elapsed": 1363330, "internal_node_id": "0.0-172.0"}}, {"uniqueid": "MTK1066:3JJVG1YBEC44VYAN4K25X7CFA6FB5V", "current_trial": 245, "dateTime": 1513028233063, "trialdata": {"rt": -1, "stimulus": "<p id=\"stim\">LIGHTNING</p>", "key_press": -1, "type": "PRES_VIS", "word": "lightning", "wordID": 819, "conditions": [24, 1600, "v", 12000], "trial": 7, "serialpos": 4, "trial_type": "single-stim", "trial_index": 245, "time_elapsed": 1365769, "internal_node_id": "0.0-173.0"}}, {"uniqueid": "MTK1066:3JJVG1YBEC44VYAN4K25X7CFA6FB5V", "current_trial": 246, "dateTime": 1513028235504, "trialdata": {"rt": -1, "stimulus": "<p id=\"stim\">SPOOL</p>", "key_press": -1, "type": "PRES_VIS", "word": "spool", "wordID": 1355, "conditions": [24, 1600, "v", 12000], "trial": 7, "serialpos": 5, "trial_type": "single-stim", "trial_index": 246, "time_elapsed": 1368210, "internal_node_id": "0.0-174.0"}}, {"uniqueid": "MTK1066:3JJVG1YBEC44VYAN4K25X7CFA6FB5V", "current_trial": 247, "dateTime": 1513028238163, "trialdata": {"rt": -1, "stimulus": "<p id=\"stim\">STOMACH</p>", "key_press": -1, "type": "PRES_VIS", "word": "stomach", "wordID": 1383, "conditions": [24, 1600, "v", 12000], "trial": 7, "serialpos": 6, "trial_type": "single-stim", "trial_index": 247, "time_elapsed": 1370869, "internal_node_id": "0.0-175.0"}}, {"uniqueid": "MTK1066:3JJVG1YBEC44VYAN4K25X7CFA6FB5V", "current_trial": 248, "dateTime": 1513028240949, "trialdata": {"rt": -1, "stimulus": "<p id=\"stim\">CHEST</p>", "key_press": -1, "type": "PRES_VIS", "word": "chest", "wordID": 294, "conditions": [24, 1600, "v", 12000], "trial": 7, "serialpos": 7, "trial_type": "single-stim", "trial_index": 248, "time_elapsed": 1373655, "internal_node_id": "0.0-176.0"}}, {"uniqueid": "MTK1066:3JJVG1YBEC44VYAN4K25X7CFA6FB5V", "current_trial": 249, "dateTime": 1513028243567, "trialdata": {"rt": -1, "stimulus": "<p id=\"stim\">TERMITE</p>", "key_press": -1, "type": "PRES_VIS", "word": "termite", "wordID": 1450, "conditions": [24, 1600, "v", 12000], "trial": 7, "serialpos": 8, "trial_type": "single-stim", "trial_index": 249, "time_elapsed": 1376273, "internal_node_id": "0.0-177.0"}}, {"uniqueid": "MTK1066:3JJVG1YBEC44VYAN4K25X7CFA6FB5V", "current_trial": 250, "dateTime": 1513028246364, "trialdata": {"rt": -1, "stimulus": "<p id=\"stim\">HONEY</p>", "key_press": -1, "type": "PRES_VIS", "word": "honey", "wordID": 712, "conditions": [24, 1600, "v", 12000], "trial": 7, "serialpos": 9, "trial_type": "single-stim", "trial_index": 250, "time_elapsed": 1379070, "internal_node_id": "0.0-178.0"}}, {"uniqueid": "MTK1066:3JJVG1YBEC44VYAN4K25X7CFA6FB5V", "current_trial": 251, "dateTime": 1513028249115, "trialdata": {"rt": -1, "stimulus": "<p id=\"stim\">JOURNAL</p>", "key_press": -1, "type": "PRES_VIS", "word": "journal", "wordID": 759, "conditions": [24, 1600, "v", 12000], "trial": 7, "serialpos": 10, "trial_type": "single-stim", "trial_index": 251, "time_elapsed": 1381821, "internal_node_id": "0.0-179.0"}}, {"uniqueid": "MTK1066:3JJVG1YBEC44VYAN4K25X7CFA6FB5V", "current_trial": 252, "dateTime": 1513028251599, "trialdata": {"rt": -1, "stimulus": "<p id=\"stim\">ELBOW</p>", "key_press": -1, "type": "PRES_VIS", "word": "elbow", "wordID": 519, "conditions": [24, 1600, "v", 12000], "trial": 7, "serialpos": 11, "trial_type": "single-stim", "trial_index": 252, "time_elapsed": 1384305, "internal_node_id": "0.0-180.0"}}, {"uniqueid": "MTK1066:3JJVG1YBEC44VYAN4K25X7CFA6FB5V", "current_trial": 253, "dateTime": 1513028254008, "trialdata": {"rt": -1, "stimulus": "<p id=\"stim\">VENUS</p>", "key_press": -1, "type": "PRES_VIS", "word": "venus", "wordID": 1556, "conditions": [24, 1600, "v", 12000], "trial": 7, "serialpos": 12, "trial_type": "single-stim", "trial_index": 253, "time_elapsed": 1386714, "internal_node_id": "0.0-181.0"}}, {"uniqueid": "MTK1066:3JJVG1YBEC44VYAN4K25X7CFA6FB5V", "current_trial": 254, "dateTime": 1513028256562, "trialdata": {"rt": -1, "stimulus": "<p id=\"stim\">PICNIC</p>", "key_press": -1, "type": "PRES_VIS", "word": "picnic", "wordID": 1059, "conditions": [24, 1600, "v", 12000], "trial": 7, "serialpos": 13, "trial_type": "single-stim", "trial_index": 254, "time_elapsed": 1389267, "internal_node_id": "0.0-182.0"}}, {"uniqueid": "MTK1066:3JJVG1YBEC44VYAN4K25X7CFA6FB5V", "current_trial": 255, "dateTime": 1513028259110, "trialdata": {"rt": -1, "stimulus": "<p id=\"stim\">GARDEN</p>", "key_press": -1, "type": "PRES_VIS", "word": "garden", "wordID": 622, "conditions": [24, 1600, "v", 12000], "trial": 7, "serialpos": 14, "trial_type": "single-stim", "trial_index": 255, "time_elapsed": 1391815, "internal_node_id": "0.0-183.0"}}, {"uniqueid": "MTK1066:3JJVG1YBEC44VYAN4K25X7CFA6FB5V", "current_trial": 256, "dateTime": 1513028261652, "trialdata": {"rt": -1, "stimulus": "<p id=\"stim\">SHRUB</p>", "key_press": -1, "type": "PRES_VIS", "word": "shrub", "wordID": 1298, "conditions": [24, 1600, "v", 12000], "trial": 7, "serialpos": 15, "trial_type": "single-stim", "trial_index": 256, "time_elapsed": 1394358, "internal_node_id": "0.0-184.0"}}, {"uniqueid": "MTK1066:3JJVG1YBEC44VYAN4K25X7CFA6FB5V", "current_trial": 257, "dateTime": 1513028264264, "trialdata": {"rt": -1, "stimulus": "<p id=\"stim\">ROOSTER</p>", "key_press": -1, "type": "PRES_VIS", "word": "rooster", "wordID": 1208, "conditions": [24, 1600, "v", 12000], "trial": 7, "serialpos": 16, "trial_type": "single-stim", "trial_index": 257, "time_elapsed": 1396969, "internal_node_id": "0.0-185.0"}}, {"uniqueid": "MTK1066:3JJVG1YBEC44VYAN4K25X7CFA6FB5V", "current_trial": 258, "dateTime": 1513028266747, "trialdata": {"rt": -1, "stimulus": "<p id=\"stim\">STAMP</p>", "key_press": -1, "type": "PRES_VIS", "word": "stamp", "wordID": 1369, "conditions": [24, 1600, "v", 12000], "trial": 7, "serialpos": 17, "trial_type": "single-stim", "trial_index": 258, "time_elapsed": 1399453, "internal_node_id": "0.0-186.0"}}, {"uniqueid": "MTK1066:3JJVG1YBEC44VYAN4K25X7CFA6FB5V", "current_trial": 259, "dateTime": 1513028269481, "trialdata": {"rt": -1, "stimulus": "<p id=\"stim\">HAWK</p>", "key_press": -1, "type": "PRES_VIS", "word": "hawk", "wordID": 691, "conditions": [24, 1600, "v", 12000], "trial": 7, "serialpos": 18, "trial_type": "single-stim", "trial_index": 259, "time_elapsed": 1402187, "internal_node_id": "0.0-187.0"}}, {"uniqueid": "MTK1066:3JJVG1YBEC44VYAN4K25X7CFA6FB5V", "current_trial": 260, "dateTime": 1513028272139, "trialdata": {"rt": -1, "stimulus": "<p id=\"stim\">COMPASS</p>", "key_press": -1, "type": "PRES_VIS", "word": "compass", "wordID": 357, "conditions": [24, 1600, "v", 12000], "trial": 7, "serialpos": 19, "trial_type": "single-stim", "trial_index": 260, "time_elapsed": 1404845, "internal_node_id": "0.0-188.0"}}, {"uniqueid": "MTK1066:3JJVG1YBEC44VYAN4K25X7CFA6FB5V", "current_trial": 261, "dateTime": 1513028274836, "trialdata": {"rt": -1, "stimulus": "<p id=\"stim\">FREEZER</p>", "key_press": -1, "type": "PRES_VIS", "word": "freezer", "wordID": 603, "conditions": [24, 1600, "v", 12000], "trial": 7, "serialpos": 20, "trial_type": "single-stim", "trial_index": 261, "time_elapsed": 1407542, "internal_node_id": "0.0-189.0"}}, {"uniqueid": "MTK1066:3JJVG1YBEC44VYAN4K25X7CFA6FB5V", "current_trial": 262, "dateTime": 1513028277281, "trialdata": {"rt": -1, "stimulus": "<p id=\"stim\">SUPPER</p>", "key_press": -1, "type": "PRES_VIS", "word": "supper", "wordID": 1410, "conditions": [24, 1600, "v", 12000], "trial": 7, "serialpos": 21, "trial_type": "single-stim", "trial_index": 262, "time_elapsed": 1409987, "internal_node_id": "0.0-190.0"}}, {"uniqueid": "MTK1066:3JJVG1YBEC44VYAN4K25X7CFA6FB5V", "current_trial": 263, "dateTime": 1513028279969, "trialdata": {"rt": -1, "stimulus": "<p id=\"stim\">BOX</p>", "key_press": -1, "type": "PRES_VIS", "word": "box", "wordID": 158, "conditions": [24, 1600, "v", 12000], "trial": 7, "serialpos": 22, "trial_type": "single-stim", "trial_index": 263, "time_elapsed": 1412675, "internal_node_id": "0.0-191.0"}}, {"uniqueid": "MTK1066:3JJVG1YBEC44VYAN4K25X7CFA6FB5V", "current_trial": 264, "dateTime": 1513028282417, "trialdata": {"rt": -1, "stimulus": "<p id=\"stim\">BRICK</p>", "key_press": -1, "type": "PRES_VIS", "word": "brick", "wordID": 171, "conditions": [24, 1600, "v", 12000], "trial": 7, "serialpos": 23, "trial_type": "single-stim", "trial_index": 264, "time_elapsed": 1415123, "internal_node_id": "0.0-192.0"}}, {"uniqueid": "MTK1066:3JJVG1YBEC44VYAN4K25X7CFA6FB5V", "current_trial": 265, "dateTime": 1513028284821, "trialdata": {"rt": -1, "stimulus": "", "key_press": -1, "type": "PRE_RECALL_DELAY", "trial_type": "single-stim", "trial_index": 265, "time_elapsed": 1417527, "internal_node_id": "0.0-193.0-0.0"}}, {"uniqueid": "MTK1066:3JJVG1YBEC44VYAN4K25X7CFA6FB5V", "current_trial": 266, "dateTime": 1513028285323, "trialdata": {"rt": -1000, "stimulus": "/static/audio/400Hz.wav", "key_press": -1, "type": "PRE_RECALL_ALERT", "trial_type": "single-audio", "trial_index": 266, "time_elapsed": 1418029, "internal_node_id": "0.0-194.0"}}, {"uniqueid": "MTK1066:3JJVG1YBEC44VYAN4K25X7CFA6FB5V", "current_trial": 267, "dateTime": 1513028345329, "trialdata": {"rt": [1231, 1933, 3301, 4629, 5725, 12417, 19633, 20688], "recwords": ["supper", "box", "box", "brick", "picnic", "hedge", "lamp", "screw"], "type": "FREE_RECALL", "conditions": [24, 1600, "v", 12000], "trial": 7, "trial_type": "free-recall", "trial_index": 267, "time_elapsed": 1478032, "internal_node_id": "0.0-195.0-0.0"}}, {"uniqueid": "MTK1066:3JJVG1YBEC44VYAN4K25X7CFA6FB5V", "current_trial": 268, "dateTime": 1513028349010, "trialdata": {"rt": 1676, "key_press": 32, "type": "INSTRUCTIONS", "trial_type": "text", "trial_index": 268, "time_elapsed": 1481716, "internal_node_id": "0.0-196.0"}}, {"uniqueid": "MTK1066:3JJVG1YBEC44VYAN4K25X7CFA6FB5V", "current_trial": 269, "dateTime": 1513028375018, "trialdata": {"rt": [3720, 5687, 7151, 9247, 11303, 13928, 15736, 17536, 19688, 22663], "responses": ["23", "16", "18", "15", "16", "14", "11", "10", "17", "16"], "num1": [9, 8, 7, 6, 6, 8, 3, 4, 1, 9, 3], "num2": [6, 7, 3, 6, 7, 3, 7, 3, 7, 4, 6], "num3": [8, 1, 8, 3, 3, 3, 1, 3, 9, 3, 2], "type": "DISTRACTOR", "conditions": [12, 1600, "a", 24000], "trial": 8, "trial_type": "math-distractor", "trial_index": 269, "time_elapsed": 1507724, "internal_node_id": "0.0-197.0"}}, {"uniqueid": "MTK1066:3JJVG1YBEC44VYAN4K25X7CFA6FB5V", "current_trial": 270, "dateTime": 1513028378021, "trialdata": {"rt": -1, "stimulus": "<p id=\"stim\">10</p>", "key_press": -1, "trial_type": "single-stim", "trial_index": 270, "time_elapsed": 1510727, "internal_node_id": "0.0-198.0-0.0"}}, {"uniqueid": "MTK1066:3JJVG1YBEC44VYAN4K25X7CFA6FB5V", "current_trial": 271, "dateTime": 1513028379023, "trialdata": {"rt": -1, "stimulus": "<p id=\"stim\">9</p>", "key_press": -1, "trial_type": "single-stim", "trial_index": 271, "time_elapsed": 1511729, "internal_node_id": "0.0-198.0-1.0"}}, {"uniqueid": "MTK1066:3JJVG1YBEC44VYAN4K25X7CFA6FB5V", "current_trial": 272, "dateTime": 1513028380027, "trialdata": {"rt": -1, "stimulus": "<p id=\"stim\">8</p>", "key_press": -1, "trial_type": "single-stim", "trial_index": 272, "time_elapsed": 1512733, "internal_node_id": "0.0-198.0-2.0"}}, {"uniqueid": "MTK1066:3JJVG1YBEC44VYAN4K25X7CFA6FB5V", "current_trial": 273, "dateTime": 1513028381031, "trialdata": {"rt": -1, "stimulus": "<p id=\"stim\">7</p>", "key_press": -1, "trial_type": "single-stim", "trial_index": 273, "time_elapsed": 1513736, "internal_node_id": "0.0-198.0-3.0"}}, {"uniqueid": "MTK1066:3JJVG1YBEC44VYAN4K25X7CFA6FB5V", "current_trial": 274, "dateTime": 1513028382035, "trialdata": {"rt": -1, "stimulus": "<p id=\"stim\">6</p>", "key_press": -1, "trial_type": "sing