{"assignmentId": "336KAV9KYRZ899KBWTER7B74F252YX", "workerId": "MTK1824", "questiondata": {"origin": "United States", "strat-rehearsal": "0", "marital": "Married/Domestic Partnership", "education": "Master's degree", "ethnicity": "Not Hispanic", "color_depth": 24, "distracted": "No", "wrote-notes": "No", "strat-other": "", "screen_width": 1360, "avail_screen_width": 1360, "avail_screen_height": 728, "strat-image": "35", "language": "English", "gender": "Female", "age": "56", "gender_other": "", "race": ["White"], "strat-categorize": "91", "pixel_depth": 24, "strat-spatial": "66", "strat-story": "80", "race_other": "", "screen_height": 768}, "bonus": 0, "hitId": "3I7SHAD35M3DE9U9T029KN5LZ3BM72", "counterbalance": 2186, "useragent": "Mozilla/5.0 (Windows NT 6.1) AppleWebKit/537.36 (KHTML, like Gecko) Chrome/63.0.3239.132 Safari/537.36", "eventdata": [{"eventtype": "initialized", "interval": 0, "value": null, "timestamp": 1516477117542}, {"eventtype": "window_resize", "interval": 0, "value": [1360, 722], "timestamp": 1516477117542}, {"eventtype": "window_resize", "interval": 58282, "value": [1360, 768], "timestamp": 1516477175824}], "data": [{"current_trial": 0, "trialdata": {"rt": 2467, "trial_type": "text", "internal_node_id": "0.0-0.0", "time_elapsed": 2477, "key_press": 32, "type": "INSTRUCTIONS", "trial_index": 0}, "uniqueid": "MTK1824:336KAV9KYRZ899KBWTER7B74F252YX", "dateTime": 1516477144100}, {"current_trial": 1, "trialdata": {"rt": 20089, "trial_type": "text", "internal_node_id": "0.0-1.0", "time_elapsed": 22567, "key_press": 32, "type": "INSTRUCTIONS", "trial_index": 1}, "uniqueid": "MTK1824:336KAV9KYRZ899KBWTER7B74F252YX", "dateTime": 1516477164190}, {"current_trial": 2, "trialdata": {"rt": [20224], "trial_type": "audio-test", "responses": ["ocean"], "internal_node_id": "0.0-2.0", "time_elapsed": 42888, "type": "AUDIO_TEST", "trial_index": 2}, "uniqueid": "MTK1824:336KAV9KYRZ899KBWTER7B74F252YX", "dateTime": 1516477184512}, {"current_trial": 3, "trialdata": {"rt": [9830], "trial_type": "audio-test", "responses": ["crystal"], "internal_node_id": "0.0-3.0", "time_elapsed": 52725, "type": "AUDIO_TEST", "trial_index": 3}, "uniqueid": "MTK1824:336KAV9KYRZ899KBWTER7B74F252YX", "dateTime": 1516477194348}, {"current_trial": 4, "trialdata": {"rt": [8795], "trial_type": "audio-test", "responses": ["spice"], "internal_node_id": "0.0-4.0", "time_elapsed": 61525, "type": "AUDIO_TEST", "trial_index": 4}, "uniqueid": "MTK1824:336KAV9KYRZ899KBWTER7B74F252YX", "dateTime": 1516477203148}, {"current_trial": 5, "trialdata": {"rt": 199041, "trial_type": "survey-text", "responses": "{\"Q0\":\"2 am\",\"Q1\":\"9 am\",\"Q2\":\"4\"}", "internal_node_id": "0.0-5.0", "time_elapsed": 261318, "type": "SLEEP_SURVEY", "trial_index": 5}, "uniqueid": "MTK1824:336KAV9KYRZ899KBWTER7B74F252YX", "dateTime": 1516477402941}, {"current_trial": 6, "trialdata": {"rt": 34918, "trial_type": "text", "internal_node_id": "0.0-6.0", "time_elapsed": 297237, "key_press": 32, "type": "INSTRUCTIONS", "trial_index": 6}, "uniqueid": "MTK1824:336KAV9KYRZ899KBWTER7B74F252YX", "dateTime": 1516477438860}, {"current_trial": 7, "trialdata": {"rt": 19915, "trial_type": "text", "internal_node_id": "0.0-7.0", "time_elapsed": 317652, "key_press": 32, "type": "INSTRUCTIONS", "trial_index": 7}, "uniqueid": "MTK1824:336KAV9KYRZ899KBWTER7B74F252YX", "dateTime": 1516477459276}, {"current_trial": 8, "trialdata": {"rt": 103403, "trial_type": "text", "internal_node_id": "0.0-8.0", "time_elapsed": 421556, "key_press": 32, "type": "INSTRUCTIONS", "trial_index": 8}, "uniqueid": "MTK1824:336KAV9KYRZ899KBWTER7B74F252YX", "dateTime": 1516477563180}, {"current_trial": 9, "trialdata": {"rt": [3419, 8060, 11292, 16523], "trial_type": "math-distractor", "key_times": [2539, 2779, 3419, 6252, 6588, 8060, 10284, 10523, 11292, 12732, 12987, 14347, 15915, 16523], "responses": ["17", "13", "19", "17"], "num2": [8, 4, 4, 2, 1], "num3": [1, 5, 6, 8, 2], "conditions": [18, 1200, "a", 18000], "internal_node_id": "0.0-9.0", "key_presses": [97, 103, 13, 97, 99, 13, 97, 105, 13, 97, 104, 8, 103, 13], "trial": 0, "time_elapsed": 440569, "type": "DISTRACTOR", "trial_index": 9, "num1": [8, 4, 9, 7, 3]}, "uniqueid": "MTK1824:336KAV9KYRZ899KBWTER7B74F252YX", "dateTime": 1516477582192}, {"current_trial": 10, "trialdata": {"rt": -1, "trial_type": "single-stim", "stimulus": "<p id=\"stim\">10</p>", "internal_node_id": "0.0-10.0-0.0", "time_elapsed": 443569, "key_press": -1, "trial_index": 10}, "uniqueid": "MTK1824:336KAV9KYRZ899KBWTER7B74F252YX", "dateTime": 1516477585192}, {"current_trial": 11, "trialdata": {"rt": -1, "trial_type": "single-stim", "stimulus": "<p id=\"stim\">9</p>", "internal_node_id": "0.0-10.0-1.0", "time_elapsed": 444570, "key_press": -1, "trial_index": 11}, "uniqueid": "MTK1824:336KAV9KYRZ899KBWTER7B74F252YX", "dateTime": 1516477586193}, {"current_trial": 12, "trialdata": {"rt": -1, "trial_type": "single-stim", "stimulus": "<p id=\"stim\">8</p>", "internal_node_id": "0.0-10.0-2.0", "time_elapsed": 445570, "key_press": -1, "trial_index": 12}, "uniqueid": "MTK1824:336KAV9KYRZ899KBWTER7B74F252YX", "dateTime": 1516477587193}, {"current_trial": 13, "trialdata": {"rt": -1, "trial_type": "single-stim", "stimulus": "<p id=\"stim\">7</p>", "internal_node_id": "0.0-10.0-3.0", "time_elapsed": 446570, "key_press": -1, "trial_index": 13}, "uniqueid": "MTK1824:336KAV9KYRZ899KBWTER7B74F252YX", "dateTime": 1516477588193}, {"current_trial": 14, "trialdata": {"rt": -1, "trial_type": "single-stim", "stimulus": "<p id=\"stim\">6</p>", "internal_node_id": "0.0-10.0-4.0", "time_elapsed": 447570, "key_press": -1, "trial_index": 14}, "uniqueid": "MTK1824:336KAV9KYRZ899KBWTER7B74F252YX", "dateTime": 1516477589193}, {"current_trial": 15, "trialdata": {"rt": -1, "trial_type": "single-stim", "stimulus": "<p id=\"stim\">5</p>", "internal_node_id": "0.0-10.0-5.0", "time_elapsed": 448570, "key_press": -1, "trial_index": 15}, "uniqueid": "MTK1824:336KAV9KYRZ899KBWTER7B74F252YX", "dateTime": 1516477590193}, {"current_trial": 16, "trialdata": {"rt": -1, "trial_type": "single-stim", "stimulus": "<p id=\"stim\">4</p>", "internal_node_id": "0.0-10.0-6.0", "time_elapsed": 449570, "key_press": -1, "trial_index": 16}, "uniqueid": "MTK1824:336KAV9KYRZ899KBWTER7B74F252YX", "dateTime": 1516477591193}, {"current_trial": 17, "trialdata": {"rt": -1, "trial_type": "single-stim", "stimulus": "<p id=\"stim\">3</p>", "internal_node_id": "0.0-10.0-7.0", "time_elapsed": 450570, "key_press": -1, "trial_index": 17}, "uniqueid": "MTK1824:336KAV9KYRZ899KBWTER7B74F252YX", "dateTime": 1516477592194}, {"current_trial": 18, "trialdata": {"rt": -1, "trial_type": "single-stim", "stimulus": "<p id=\"stim\">2</p>", "internal_node_id": "0.0-10.0-8.0", "time_elapsed": 451571, "key_press": -1, "trial_index": 18}, "uniqueid": "MTK1824:336KAV9KYRZ899KBWTER7B74F252YX", "dateTime": 1516477593194}, {"current_trial": 19, "trialdata": {"rt": -1, "trial_type": "single-stim", "stimulus": "<p id=\"stim\">1</p>", "internal_node_id": "0.0-10.0-9.0", "time_elapsed": 452571, "key_press": -1, "trial_index": 19}, "uniqueid": "MTK1824:336KAV9KYRZ899KBWTER7B74F252YX", "dateTime": 1516477594194}, {"current_trial": 20, "trialdata": {"rt": -1, "trial_type": "single-stim", "stimulus": "<p id=\"stim\">+</p>", "internal_node_id": "0.0-11.0-0.0", "time_elapsed": 454071, "key_press": -1, "type": "FIXATION", "trial_index": 20}, "uniqueid": "MTK1824:336KAV9KYRZ899KBWTER7B74F252YX", "dateTime": 1516477595694}, {"current_trial": 21, "trialdata": {"rt": -1000, "trial_type": "single-audio", "word": "outlaw", "stimulus": "/static/audio/wordpool/OUTLAW.wav", "conditions": [18, 1200, "a", 18000], "internal_node_id": "0.0-12.0", "trial": 0, "time_elapsed": 456389, "serialpos": 0, "key_press": -1, "wordID": 988, "type": "PRES_AUD", "trial_index": 21}, "uniqueid": "MTK1824:336KAV9KYRZ899KBWTER7B74F252YX", "dateTime": 1516477598012}, {"current_trial": 22, "trialdata": {"rt": -1000, "trial_type": "single-audio", "word": "twig", "stimulus": "/static/audio/wordpool/TWIG.wav", "conditions": [18, 1200, "a", 18000], "internal_node_id": "0.0-13.0", "trial": 0, "time_elapsed": 458435, "serialpos": 1, "key_press": -1, "wordID": 1526, "type": "PRES_AUD", "trial_index": 22}, "uniqueid": "MTK1824:336KAV9KYRZ899KBWTER7B74F252YX", "dateTime": 1516477600058}, {"current_trial": 23, "trialdata": {"rt": -1000, "trial_type": "single-audio", "word": "drug", "stimulus": "/static/audio/wordpool/DRUG.wav", "conditions": [18, 1200, "a", 18000], "internal_node_id": "0.0-14.0", "trial": 0, "time_elapsed": 460641, "serialpos": 2, "key_press": -1, "wordID": 500, "type": "PRES_AUD", "trial_index": 23}, "uniqueid": "MTK1824:336KAV9KYRZ899KBWTER7B74F252YX", "dateTime": 1516477602264}, {"current_trial": 24, "trialdata": {"rt": -1000, "trial_type": "single-audio", "word": "pigeon", "stimulus": "/static/audio/wordpool/PIGEON.wav", "conditions": [18, 1200, "a", 18000], "internal_node_id": "0.0-15.0", "trial": 0, "time_elapsed": 462854, "serialpos": 3, "key_press": -1, "wordID": 1064, "type": "PRES_AUD", "trial_index": 24}, "uniqueid": "MTK1824:336KAV9KYRZ899KBWTER7B74F252YX", "dateTime": 1516477604477}, {"current_trial": 25, "trialdata": {"rt": -1000, "trial_type": "single-audio", "word": "mammal", "stimulus": "/static/audio/wordpool/MAMMAL.wav", "conditions": [18, 1200, "a", 18000], "internal_node_id": "0.0-16.0", "trial": 0, "time_elapsed": 465086, "serialpos": 4, "key_press": -1, "wordID": 860, "type": "PRES_AUD", "trial_index": 25}, "uniqueid": "MTK1824:336KAV9KYRZ899KBWTER7B74F252YX", "dateTime": 1516477606709}, {"current_trial": 26, "trialdata": {"rt": -1000, "trial_type": "single-audio", "word": "valley", "stimulus": "/static/audio/wordpool/VALLEY.wav", "conditions": [18, 1200, "a", 18000], "internal_node_id": "0.0-17.0", "trial": 0, "time_elapsed": 467105, "serialpos": 5, "key_press": -1, "wordID": 1544, "type": "PRES_AUD", "trial_index": 26}, "uniqueid": "MTK1824:336KAV9KYRZ899KBWTER7B74F252YX", "dateTime": 1516477608728}, {"current_trial": 27, "trialdata": {"rt": -1000, "trial_type": "single-audio", "word": "yacht", "stimulus": "/static/audio/wordpool/YACHT.wav", "conditions": [18, 1200, "a", 18000], "internal_node_id": "0.0-18.0", "trial": 0, "time_elapsed": 469486, "serialpos": 6, "key_press": -1, "wordID": 1628, "type": "PRES_AUD", "trial_index": 27}, "uniqueid": "MTK1824:336KAV9KYRZ899KBWTER7B74F252YX", "dateTime": 1516477611109}, {"current_trial": 28, "trialdata": {"rt": -1000, "trial_type": "single-audio", "word": "spoon", "stimulus": "/static/audio/wordpool/SPOON.wav", "conditions": [18, 1200, "a", 18000], "internal_node_id": "0.0-19.0", "trial": 0, "time_elapsed": 471778, "serialpos": 7, "key_press": -1, "wordID": 1356, "type": "PRES_AUD", "trial_index": 28}, "uniqueid": "MTK1824:336KAV9KYRZ899KBWTER7B74F252YX", "dateTime": 1516477613401}, {"current_trial": 29, "trialdata": {"rt": -1000, "trial_type": "single-audio", "word": "briefcase", "stimulus": "/static/audio/wordpool/BRIEFCASE.wav", "conditions": [18, 1200, "a", 18000], "internal_node_id": "0.0-20.0", "trial": 0, "time_elapsed": 473983, "serialpos": 8, "key_press": -1, "wordID": 174, "type": "PRES_AUD", "trial_index": 29}, "uniqueid": "MTK1824:336KAV9KYRZ899KBWTER7B74F252YX", "dateTime": 1516477615606}, {"current_trial": 30, "trialdata": {"rt": -1000, "trial_type": "single-audio", "word": "drink", "stimulus": "/static/audio/wordpool/DRINK.wav", "conditions": [18, 1200, "a", 18000], "internal_node_id": "0.0-21.0", "trial": 0, "time_elapsed": 476313, "serialpos": 9, "key_press": -1, "wordID": 497, "type": "PRES_AUD", "trial_index": 30}, "uniqueid": "MTK1824:336KAV9KYRZ899KBWTER7B74F252YX", "dateTime": 1516477617936}, {"current_trial": 31, "trialdata": {"rt": -1000, "trial_type": "single-audio", "word": "flute", "stimulus": "/static/audio/wordpool/FLUTE.wav", "conditions": [18, 1200, "a", 18000], "internal_node_id": "0.0-22.0", "trial": 0, "time_elapsed": 478392, "serialpos": 10, "key_press": -1, "wordID": 584, "type": "PRES_AUD", "trial_index": 31}, "uniqueid": "MTK1824:336KAV9KYRZ899KBWTER7B74F252YX", "dateTime": 1516477620015}, {"current_trial": 32, "trialdata": {"rt": -1000, "trial_type": "single-audio", "word": "daisy", "stimulus": "/static/audio/wordpool/DAISY.wav", "conditions": [18, 1200, "a", 18000], "internal_node_id": "0.0-23.0", "trial": 0, "time_elapsed": 480664, "serialpos": 11, "key_press": -1, "wordID": 434, "type": "PRES_AUD", "trial_index": 32}, "uniqueid": "MTK1824:336KAV9KYRZ899KBWTER7B74F252YX", "dateTime": 1516477622287}, {"current_trial": 33, "trialdata": {"rt": -1000, "trial_type": "single-audio", "word": "friend", "stimulus": "/static/audio/wordpool/FRIEND.wav", "conditions": [18, 1200, "a", 18000], "internal_node_id": "0.0-24.0", "trial": 0, "time_elapsed": 482857, "serialpos": 12, "key_press": -1, "wordID": 605, "type": "PRES_AUD", "trial_index": 33}, "uniqueid": "MTK1824:336KAV9KYRZ899KBWTER7B74F252YX", "dateTime": 1516477624480}, {"current_trial": 34, "trialdata": {"rt": -1000, "trial_type": "single-audio", "word": "plate", "stimulus": "/static/audio/wordpool/PLATE.wav", "conditions": [18, 1200, "a", 18000], "internal_node_id": "0.0-25.0", "trial": 0, "time_elapsed": 484956, "serialpos": 13, "key_press": -1, "wordID": 1085, "type": "PRES_AUD", "trial_index": 34}, "uniqueid": "MTK1824:336KAV9KYRZ899KBWTER7B74F252YX", "dateTime": 1516477626579}, {"current_trial": 35, "trialdata": {"rt": -1000, "trial_type": "single-audio", "word": "concert", "stimulus": "/static/audio/wordpool/CONCERT.wav", "conditions": [18, 1200, "a", 18000], "internal_node_id": "0.0-26.0", "trial": 0, "time_elapsed": 487137, "serialpos": 14, "key_press": -1, "wordID": 359, "type": "PRES_AUD", "trial_index": 35}, "uniqueid": "MTK1824:336KAV9KYRZ899KBWTER7B74F252YX", "dateTime": 1516477628760}, {"current_trial": 36, "trialdata": {"rt": -1000, "trial_type": "single-audio", "word": "wardrobe", "stimulus": "/static/audio/wordpool/WARDROBE.wav", "conditions": [18, 1200, "a", 18000], "internal_node_id": "0.0-27.0", "trial": 0, "time_elapsed": 489350, "serialpos": 15, "key_press": -1, "wordID": 1586, "type": "PRES_AUD", "trial_index": 36}, "uniqueid": "MTK1824:336KAV9KYRZ899KBWTER7B74F252YX", "dateTime": 1516477630973}, {"current_trial": 37, "trialdata": {"rt": -1000, "trial_type": "single-audio", "word": "body", "stimulus": "/static/audio/wordpool/BODY.wav", "conditions": [18, 1200, "a", 18000], "internal_node_id": "0.0-28.0", "trial": 0, "time_elapsed": 491734, "serialpos": 16, "key_press": -1, "wordID": 144, "type": "PRES_AUD", "trial_index": 37}, "uniqueid": "MTK1824:336KAV9KYRZ899KBWTER7B74F252YX", "dateTime": 1516477633357}, {"current_trial": 38, "trialdata": {"rt": -1000, "trial_type": "single-audio", "word": "lagoon", "stimulus": "/static/audio/wordpool/LAGOON.wav", "conditions": [18, 1200, "a", 18000], "internal_node_id": "0.0-29.0", "trial": 0, "time_elapsed": 493954, "serialpos": 17, "key_press": -1, "wordID": 794, "type": "PRES_AUD", "trial_index": 38}, "uniqueid": "MTK1824:336KAV9KYRZ899KBWTER7B74F252YX", "dateTime": 1516477635577}, {"current_trial": 39, "trialdata": {"rt": -1, "trial_type": "single-stim", "stimulus": "", "internal_node_id": "0.0-30.0-0.0", "time_elapsed": 495218, "key_press": -1, "type": "PRE_RECALL_DELAY", "trial_index": 39}, "uniqueid": "MTK1824:336KAV9KYRZ899KBWTER7B74F252YX", "dateTime": 1516477636841}, {"current_trial": 40, "trialdata": {"rt": -1000, "trial_type": "single-audio", "stimulus": "/static/audio/400Hz.wav", "internal_node_id": "0.0-31.0", "time_elapsed": 495718, "key_press": -1, "type": "PRE_RECALL_ALERT", "trial_index": 40}, "uniqueid": "MTK1824:336KAV9KYRZ899KBWTER7B74F252YX", "dateTime": 1516477637341}, {"current_trial": 41, "trialdata": {"rt": [3148, 5228, 9356, 13483, 15483, 18316, 23308, 27933, 31627, 39628, 54380], "recwords": ["yacht", "lagoon", "briefcase", "plate", "flute", "spoon", "daisy", "concert", "twig", "mammal", "body"], "key_times": [1901, 2060, 2332, 2396, 2620, 3148, 3916, 4028, 4220, 4444, 4604, 4812, 5228, 5628, 5900, 6124, 6444, 6700, 6940, 7404, 7643, 7771, 8476, 8635, 9356, 12060, 12283, 12459, 12619, 13147, 13483, 14475, 14620, 14827, 15115, 15243, 15483, 17195, 17419, 17691, 17852, 18012, 18316, 22012, 22141, 22364, 22908, 23004, 23308, 26332, 26460, 26587, 27004, 27275, 27403, 27627, 27933, 30619, 30779, 30987, 31131, 31627, 37389, 37964, 38156, 38300, 38444, 38908, 39628, 53197, 53788, 53948, 54060, 54380], "trial_type": "free-recall", "conditions": [18, 1200, "a", 18000], "internal_node_id": "0.0-32.0-0.0", "key_presses": [89, 65, 67, 72, 84, 13, 76, 65, 71, 79, 79, 78, 13, 66, 82, 73, 69, 70, 65, 8, 67, 65, 83, 69, 13, 80, 76, 65, 84, 69, 13, 70, 76, 85, 84, 69, 13, 83, 80, 79, 79, 78, 13, 68, 65, 73, 83, 89, 13, 67, 79, 78, 67, 69, 82, 84, 13, 84, 87, 73, 71, 13, 77, 65, 77, 77, 65, 76, 13, 66, 79, 68, 89, 13], "trial": 0, "time_elapsed": 555721, "type": "FREE_RECALL", "trial_index": 41}, "uniqueid": "MTK1824:336KAV9KYRZ899KBWTER7B74F252YX", "dateTime": 1516477697346}, {"current_trial": 42, "trialdata": {"rt": 2009, "trial_type": "text", "internal_node_id": "0.0-33.0", "time_elapsed": 559732, "key_press": 32, "type": "INSTRUCTIONS", "trial_index": 42}, "uniqueid": "MTK1824:336KAV9KYRZ899KBWTER7B74F252YX", "dateTime": 1516477701355}, {"current_trial": 43, "trialdata": {"rt": [3806, 5775, 9807, 12654, 14526, 17614], "trial_type": "math-distractor", "key_times": [2014, 2222, 3806, 5215, 5343, 5775, 8864, 8991, 9807, 11983, 12239, 12654, 14078, 14286, 14526, 16702, 17614], "responses": ["19", "12", "21", "17", "14", "7"], "num2": [9, 4, 9, 3, 4, 1, 7], "num3": [1, 7, 5, 6, 5, 4, 4], "conditions": [18, 1200, "a", 18000], "internal_node_id": "0.0-34.0", "key_presses": [97, 105, 13, 97, 98, 13, 98, 97, 13, 97, 103, 13, 97, 100, 13, 103, 13], "trial": 1, "time_elapsed": 579733, "type": "DISTRACTOR", "trial_index": 43, "num1": [9, 1, 7, 8, 5, 2, 2]}, "uniqueid": "MTK1824:336KAV9KYRZ899KBWTER7B74F252YX", "dateTime": 1516477721356}, {"current_trial": 44, "trialdata": {"rt": -1, "trial_type": "single-stim", "stimulus": "<p id=\"stim\">10</p>", "internal_node_id": "0.0-35.0-0.0", "time_elapsed": 582733, "key_press": -1, "trial_index": 44}, "uniqueid": "MTK1824:336KAV9KYRZ899KBWTER7B74F252YX", "dateTime": 1516477724356}, {"current_trial": 45, "trialdata": {"rt": -1, "trial_type": "single-stim", "stimulus": "<p id=\"stim\">9</p>", "internal_node_id": "0.0-35.0-1.0", "time_elapsed": 583733, "key_press": -1, "trial_index": 45}, "uniqueid": "MTK1824:336KAV9KYRZ899KBWTER7B74F252YX", "dateTime": 1516477725356}, {"current_trial": 46, "trialdata": {"rt": -1, "trial_type": "single-stim", "stimulus": "<p id=\"stim\">8</p>", "internal_node_id": "0.0-35.0-2.0", "time_elapsed": 584733, "key_press": -1, "trial_index": 46}, "uniqueid": "MTK1824:336KAV9KYRZ899KBWTER7B74F252YX", "dateTime": 1516477726356}, {"current_trial": 47, "trialdata": {"rt": -1, "trial_type": "single-stim", "stimulus": "<p id=\"stim\">7</p>", "internal_node_id": "0.0-35.0-3.0", "time_elapsed": 585733, "key_press": -1, "trial_index": 47}, "uniqueid": "MTK1824:336KAV9KYRZ899KBWTER7B74F252YX", "dateTime": 1516477727356}, {"current_trial": 48, "trialdata": {"rt": -1, "trial_type": "single-stim", "stimulus": "<p id=\"stim\">6</p>", "internal_node_id": "0.0-35.0-4.0", "time_elapsed": 586733, "key_press": -1, "trial_index": 48}, "uniqueid": "MTK1824:336KAV9KYRZ899KBWTER7B74F252YX", "dateTime": 1516477728356}, {"current_trial": 49, "trialdata": {"rt": -1, "trial_type": "single-stim", "stimulus": "<p id=\"stim\">5</p>", "internal_node_id": "0.0-35.0-5.0", "time_elapsed": 587733, "key_press": -1, "trial_index": 49}, "uniqueid": "MTK1824:336KAV9KYRZ899KBWTER7B74F252YX", "dateTime": 1516477729356}, {"current_trial": 50, "trialdata": {"rt": -1, "trial_type": "single-stim", "stimulus": "<p id=\"stim\">4</p>", "internal_node_id": "0.0-35.0-6.0", "time_elapsed": 588733, "key_press": -1, "trial_index": 50}, "uniqueid": "MTK1824:336KAV9KYRZ899KBWTER7B74F252YX", "dateTime": 1516477730356}, {"current_trial": 51, "trialdata": {"rt": -1, "trial_type": "single-stim", "stimulus": "<p id=\"stim\">3</p>", "internal_node_id": "0.0-35.0-7.0", "time_elapsed": 589733, "key_press": -1, "trial_index": 51}, "uniqueid": "MTK1824:336KAV9KYRZ899KBWTER7B74F252YX", "dateTime": 1516477731356}, {"current_trial": 52, "trialdata": {"rt": -1, "trial_type": "single-stim", "stimulus": "<p id=\"stim\">2</p>", "internal_node_id": "0.0-35.0-8.0", "time_elapsed": 590733, "key_press": -1, "trial_index": 52}, "uniqueid": "MTK1824:336KAV9KYRZ899KBWTER7B74F252YX", "dateTime": 1516477732356}, {"current_trial": 53, "trialdata": {"rt": -1, "trial_type": "single-stim", "stimulus": "<p id=\"stim\">1</p>", "internal_node_id": "0.0-35.0-9.0", "time_elapsed": 591733, "key_press": -1, "trial_index": 53}, "uniqueid": "MTK1824:336KAV9KYRZ899KBWTER7B74F252YX", "dateTime": 1516477733356}, {"current_trial": 54, "trialdata": {"rt": -1, "trial_type": "single-stim", "stimulus": "<p id=\"stim\">+</p>", "internal_node_id": "0.0-36.0-0.0", "time_elapsed": 593233, "key_press": -1, "type": "FIXATION", "trial_index": 54}, "uniqueid": "MTK1824:336KAV9KYRZ899KBWTER7B74F252YX", "dateTime": 1516477734856}, {"current_trial": 55, "trialdata": {"rt": -1000, "trial_type": "single-audio", "word": "sculpture", "stimulus": "/static/audio/wordpool/SCULPTURE.wav", "conditions": [18, 1200, "a", 18000], "internal_node_id": "0.0-37.0", "trial": 1, "time_elapsed": 595600, "serialpos": 0, "key_press": -1, "wordID": 1257, "type": "PRES_AUD", "trial_index": 55}, "uniqueid": "MTK1824:336KAV9KYRZ899KBWTER7B74F252YX", "dateTime": 1516477737223}, {"current_trial": 56, "trialdata": {"rt": -1000, "trial_type": "single-audio", "word": "thread", "stimulus": "/static/audio/wordpool/THREAD.wav", "conditions": [18, 1200, "a", 18000], "internal_node_id": "0.0-38.0", "trial": 1, "time_elapsed": 597984, "serialpos": 1, "key_press": -1, "wordID": 1459, "type": "PRES_AUD", "trial_index": 56}, "uniqueid": "MTK1824:336KAV9KYRZ899KBWTER7B74F252YX", "dateTime": 1516477739607}, {"current_trial": 57, "trialdata": {"rt": -1000, "trial_type": "single-audio", "word": "scribble", "stimulus": "/static/audio/wordpool/SCRIBBLE.wav", "conditions": [18, 1200, "a", 18000], "internal_node_id": "0.0-39.0", "trial": 1, "time_elapsed": 600283, "serialpos": 2, "key_press": -1, "wordID": 1255, "type": "PRES_AUD", "trial_index": 57}, "uniqueid": "MTK1824:336KAV9KYRZ899KBWTER7B74F252YX", "dateTime": 1516477741906}, {"current_trial": 58, "trialdata": {"rt": -1000, "trial_type": "single-audio", "word": "jelly", "stimulus": "/static/audio/wordpool/JELLY.wav", "conditions": [18, 1200, "a", 18000], "internal_node_id": "0.0-40.0", "trial": 1, "time_elapsed": 602539, "serialpos": 3, "key_press": -1, "wordID": 754, "type": "PRES_AUD", "trial_index": 58}, "uniqueid": "MTK1824:336KAV9KYRZ899KBWTER7B74F252YX", "dateTime": 1516477744162}, {"current_trial": 59, "trialdata": {"rt": -1000, "trial_type": "single-audio", "word": "banker", "stimulus": "/static/audio/wordpool/BANKER.wav", "conditions": [18, 1200, "a", 18000], "internal_node_id": "0.0-41.0", "trial": 1, "time_elapsed": 604666, "serialpos": 4, "key_press": -1, "wordID": 83, "type": "PRES_AUD", "trial_index": 59}, "uniqueid": "MTK1824:336KAV9KYRZ899KBWTER7B74F252YX", "dateTime": 1516477746289}, {"current_trial": 60, "trialdata": {"rt": -1000, "trial_type": "single-audio", "word": "saddle", "stimulus": "/static/audio/wordpool/SADDLE.wav", "conditions": [18, 1200, "a", 18000], "internal_node_id": "0.0-42.0", "trial": 1, "time_elapsed": 606878, "serialpos": 5, "key_press": -1, "wordID": 1220, "type": "PRES_AUD", "trial_index": 60}, "uniqueid": "MTK1824:336KAV9KYRZ899KBWTER7B74F252YX", "dateTime": 1516477748501}, {"current_trial": 61, "trialdata": {"rt": -1000, "trial_type": "single-audio", "word": "lodge", "stimulus": "/static/audio/wordpool/LODGE.wav", "conditions": [18, 1200, "a", 18000], "internal_node_id": "0.0-43.0", "trial": 1, "time_elapsed": 609058, "serialpos": 6, "key_press": -1, "wordID": 838, "type": "PRES_AUD", "trial_index": 61}, "uniqueid": "MTK1824:336KAV9KYRZ899KBWTER7B74F252YX", "dateTime": 1516477750681}, {"current_trial": 62, "trialdata": {"rt": -1000, "trial_type": "single-audio", "word": "highway", "stimulus": "/static/audio/wordpool/HIGHWAY.wav", "conditions": [18, 1200, "a", 18000], "internal_node_id": "0.0-44.0", "trial": 1, "time_elapsed": 611309, "serialpos": 7, "key_press": -1, "wordID": 706, "type": "PRES_AUD", "trial_index": 62}, "uniqueid": "MTK1824:336KAV9KYRZ899KBWTER7B74F252YX", "dateTime": 1516477752932}, {"current_trial": 63, "trialdata": {"rt": -1000, "trial_type": "single-audio", "word": "neutron", "stimulus": "/static/audio/wordpool/NEUTRON.wav", "conditions": [18, 1200, "a", 18000], "internal_node_id": "0.0-45.0", "trial": 1, "time_elapsed": 613616, "serialpos": 8, "key_press": -1, "wordID": 946, "type": "PRES_AUD", "trial_index": 63}, "uniqueid": "MTK1824:336KAV9KYRZ899KBWTER7B74F252YX", "dateTime": 1516477755239}, {"current_trial": 64, "trialdata": {"rt": -1000, "trial_type": "single-audio", "word": "item", "stimulus": "/static/audio/wordpool/ITEM.wav", "conditions": [18, 1200, "a", 18000], "internal_node_id": "0.0-46.0", "trial": 1, "time_elapsed": 615821, "serialpos": 9, "key_press": -1, "wordID": 745, "type": "PRES_AUD", "trial_index": 64}, "uniqueid": "MTK1824:336KAV9KYRZ899KBWTER7B74F252YX", "dateTime": 1516477757444}, {"current_trial": 65, "trialdata": {"rt": -1000, "trial_type": "single-audio", "word": "frame", "stimulus": "/static/audio/wordpool/FRAME.wav", "conditions": [18, 1200, "a", 18000], "internal_node_id": "0.0-47.0", "trial": 1, "time_elapsed": 617999, "serialpos": 10, "key_press": -1, "wordID": 599, "type": "PRES_AUD", "trial_index": 65}, "uniqueid": "MTK1824:336KAV9KYRZ899KBWTER7B74F252YX", "dateTime": 1516477759622}, {"current_trial": 66, "trialdata": {"rt": -1000, "trial_type": "single-audio", "word": "powder", "stimulus": "/static/audio/wordpool/POWDER.wav", "conditions": [18, 1200, "a", 18000], "internal_node_id": "0.0-48.0", "trial": 1, "time_elapsed": 620346, "serialpos": 11, "key_press": -1, "wordID": 1116, "type": "PRES_AUD", "trial_index": 66}, "uniqueid": "MTK1824:336KAV9KYRZ899KBWTER7B74F252YX", "dateTime": 1516477761969}, {"current_trial": 67, "trialdata": {"rt": -1000, "trial_type": "single-audio", "word": "sheriff", "stimulus": "/static/audio/wordpool/SHERIFF.wav", "conditions": [18, 1200, "a", 18000], "internal_node_id": "0.0-49.0", "trial": 1, "time_elapsed": 622386, "serialpos": 12, "key_press": -1, "wordID": 1283, "type": "PRES_AUD", "trial_index": 67}, "uniqueid": "MTK1824:336KAV9KYRZ899KBWTER7B74F252YX", "dateTime": 1516477764009}, {"current_trial": 68, "trialdata": {"rt": -1000, "trial_type": "single-audio", "word": "eagle", "stimulus": "/static/audio/wordpool/EAGLE.wav", "conditions": [18, 1200, "a", 18000], "internal_node_id": "0.0-50.0", "trial": 1, "time_elapsed": 624730, "serialpos": 13, "key_press": -1, "wordID": 511, "type": "PRES_AUD", "trial_index": 68}, "uniqueid": "MTK1824:336KAV9KYRZ899KBWTER7B74F252YX", "dateTime": 1516477766355}, {"current_trial": 69, "trialdata": {"rt": -1000, "trial_type": "single-audio", "word": "island", "stimulus": "/static/audio/wordpool/ISLAND.wav", "conditions": [18, 1200, "a", 18000], "internal_node_id": "0.0-51.0", "trial": 1, "time_elapsed": 626766, "serialpos": 14, "key_press": -1, "wordID": 744, "type": "PRES_AUD", "trial_index": 69}, "uniqueid": "MTK1824:336KAV9KYRZ899KBWTER7B74F252YX", "dateTime": 1516477768389}, {"current_trial": 70, "trialdata": {"rt": -1000, "trial_type": "single-audio", "word": "globe", "stimulus": "/static/audio/wordpool/GLOBE.wav", "conditions": [18, 1200, "a", 18000], "internal_node_id": "0.0-52.0", "trial": 1, "time_elapsed": 629099, "serialpos": 15, "key_press": -1, "wordID": 640, "type": "PRES_AUD", "trial_index": 70}, "uniqueid": "MTK1824:336KAV9KYRZ899KBWTER7B74F252YX", "dateTime": 1516477770722}, {"current_trial": 71, "trialdata": {"rt": -1000, "trial_type": "single-audio", "word": "breast", "stimulus": "/static/audio/wordpool/BREAST.wav", "conditions": [18, 1200, "a", 18000], "internal_node_id": "0.0-53.0", "trial": 1, "time_elapsed": 631131, "serialpos": 16, "key_press": -1, "wordID": 170, "type": "PRES_AUD", "trial_index": 71}, "uniqueid": "MTK1824:336KAV9KYRZ899KBWTER7B74F252YX", "dateTime": 1516477772754}, {"current_trial": 72, "trialdata": {"rt": -1000, "trial_type": "single-audio", "word": "actor", "stimulus": "/static/audio/wordpool/ACTOR.wav", "conditions": [18, 1200, "a", 18000], "internal_node_id": "0.0-54.0", "trial": 1, "time_elapsed": 633158, "serialpos": 17, "key_press": -1, "wordID": 4, "type": "PRES_AUD", "trial_index": 72}, "uniqueid": "MTK1824:336KAV9KYRZ899KBWTER7B74F252YX", "dateTime": 1516477774781}, {"current_trial": 73, "trialdata": {"rt": -1, "trial_type": "single-stim", "stimulus": "", "internal_node_id": "0.0-55.0-0.0", "time_elapsed": 634551, "key_press": -1, "type": "PRE_RECALL_DELAY", "trial_index": 73}, "uniqueid": "MTK1824:336KAV9KYRZ899KBWTER7B74F252YX", "dateTime": 1516477776174}, {"current_trial": 74, "trialdata": {"rt": -1000, "trial_type": "single-audio", "stimulus": "/static/audio/400Hz.wav", "internal_node_id": "0.0-56.0", "time_elapsed": 635051, "key_press": -1, "type": "PRE_RECALL_ALERT", "trial_index": 74}, "uniqueid": "MTK1824:336KAV9KYRZ899KBWTER7B74F252YX", "dateTime": 1516477776674}, {"current_trial": 75, "trialdata": {"rt": [3736, 5544, 9000, 11079, 16247, 21480, 24072, 29991, 36105, 40345, 59753], "recwords": ["actor", "breast", "sheriff", "lodge", "powder", "sculptue", "thread", "neutron", "eagle", "globe", "highway"], "key_times": [2170, 2392, 2680, 2904, 3096, 3736, 4056, 4312, 4408, 4520, 5032, 5176, 5544, 5784, 5960, 6232, 6536, 7384, 7560, 8120, 8280, 8520, 8696, 8871, 9000, 9912, 10104, 10247, 10536, 10744, 11079, 14616, 14823, 14903, 15703, 15927, 16055, 16247, 18055, 18296, 18408, 18680, 19224, 19512, 19928, 20264, 20856, 20968, 21144, 21352, 21480, 22760, 22856, 23080, 23144, 23320, 23592, 24072, 28072, 28199, 28439, 29000, 29399, 29495, 29607, 29991, 33800, 33912, 35320, 35544, 35672, 36105, 39418, 39513, 39753, 39977, 40201, 40345, 56202, 56441, 56873, 57129, 57257, 57609, 58057, 58297, 58761, 58889, 59033, 59753], "trial_type": "free-recall", "conditions": [18, 1200, "a", 18000], "internal_node_id": "0.0-57.0-0.0", "key_presses": [65, 67, 84, 79, 82, 13, 66, 82, 69, 65, 83, 84, 13, 83, 72, 69, 82, 82, 73, 8, 8, 73, 70, 70, 13, 76, 79, 68, 71, 69, 13, 80, 79, 87, 68, 69, 82, 13, 83, 67, 85, 80, 8, 76, 80, 85, 8, 84, 85, 69, 32, 84, 72, 82, 69, 65, 68, 13, 78, 69, 85, 84, 82, 79, 78, 13, 69, 65, 71, 76, 69, 13, 71, 76, 79, 66, 69, 13, 72, 71, 8, 73, 71, 72, 87, 89, 8, 65, 89, 13], "trial": 1, "time_elapsed": 695053, "type": "FREE_RECALL", "trial_index": 75}, "uniqueid": "MTK1824:336KAV9KYRZ899KBWTER7B74F252YX", "dateTime": 1516477836679}, {"current_trial": 76, "trialdata": {"rt": 2212, "trial_type": "text", "internal_node_id": "0.0-58.0", "time_elapsed": 699269, "key_press": 32, "type": "INSTRUCTIONS", "trial_index": 76}, "uniqueid": "MTK1824:336KAV9KYRZ899KBWTER7B74F252YX", "dateTime": 1516477840892}, {"current_trial": 77, "trialdata": {"rt": [2838, 4310, 6071, 8727, 10887], "trial_type": "math-distractor", "key_times": [1932, 2086, 2838, 3830, 4054, 4310, 5655, 5831, 6071, 8183, 8391, 8727, 10103, 10247, 10887], "responses": ["11", "17", "16", "20", "12"], "num2": [2, 4, 3, 3, 1, 9], "num3": [4, 7, 9, 9, 7, 2], "conditions": [24, 800, "a", 12000], "internal_node_id": "0.0-59.0", "key_presses": [97, 97, 13, 97, 103, 13, 97, 102, 13, 98, 96, 13, 97, 98, 13], "trial": 2, "time_elapsed": 712270, "type": "DISTRACTOR", "trial_index": 77, "num1": [5, 6, 4, 8, 4, 3]}, "uniqueid": "MTK1824:336KAV9KYRZ899KBWTER7B74F252YX", "dateTime": 1516477853893}, {"current_trial": 78, "trialdata": {"rt": -1, "trial_type": "single-stim", "stimulus": "<p id=\"stim\">10</p>", "internal_node_id": "0.0-60.0-0.0", "time_elapsed": 715270, "key_press": -1, "trial_index": 78}, "uniqueid": "MTK1824:336KAV9KYRZ899KBWTER7B74F252YX", "dateTime": 1516477856893}, {"current_trial": 79, "trialdata": {"rt": -1, "trial_type": "single-stim", "stimulus": "<p id=\"stim\">9</p>", "internal_node_id": "0.0-60.0-1.0", "time_elapsed": 716270, "key_press": -1, "trial_index": 79}, "uniqueid": "MTK1824:336KAV9KYRZ899KBWTER7B74F252YX", "dateTime": 1516477857893}, {"current_trial": 80, "trialdata": {"rt": -1, "trial_type": "single-stim", "stimulus": "<p id=\"stim\">8</p>", "internal_node_id": "0.0-60.0-2.0", "time_elapsed": 717270, "key_press": -1, "trial_index": 80}, "uniqueid": "MTK1824:336KAV9KYRZ899KBWTER7B74F252YX", "dateTime": 1516477858893}, {"current_trial": 81, "trialdata": {"rt": -1, "trial_type": "single-stim", "stimulus": "<p id=\"stim\">7</p>", "internal_node_id": "0.0-60.0-3.0", "time_elapsed": 718270, "key_press": -1, "trial_index": 81}, "uniqueid": "MTK1824:336KAV9KYRZ899KBWTER7B74F252YX", "dateTime": 1516477859893}, {"current_trial": 82, "trialdata": {"rt": -1, "trial_type": "single-stim", "stimulus": "<p id=\"stim\">6</p>", "internal_node_id": "0.0-60.0-4.0", "time_elapsed": 719270, "key_press": -1, "trial_index": 82}, "uniqueid": "MTK1824:336KAV9KYRZ899KBWTER7B74F252YX", "dateTime": 1516477860893}, {"current_trial": 83, "trialdata": {"rt": -1, "trial_type": "single-stim", "stimulus": "<p id=\"stim\">5</p>", "internal_node_id": "0.0-60.0-5.0", "time_elapsed": 720270, "key_press": -1, "trial_index": 83}, "uniqueid": "MTK1824:336KAV9KYRZ899KBWTER7B74F252YX", "dateTime": 1516477861893}, {"current_trial": 84, "trialdata": {"rt": -1, "trial_type": "single-stim", "stimulus": "<p id=\"stim\">4</p>", "internal_node_id": "0.0-60.0-6.0", "time_elapsed": 721270, "key_press": -1, "trial_index": 84}, "uniqueid": "MTK1824:336KAV9KYRZ899KBWTER7B74F252YX", "dateTime": 1516477862893}, {"current_trial": 85, "trialdata": {"rt": -1, "trial_type": "single-stim", "stimulus": "<p id=\"stim\">3</p>", "internal_node_id": "0.0-60.0-7.0", "time_elapsed": 722270, "key_press": -1, "trial_index": 85}, "uniqueid": "MTK1824:336KAV9KYRZ899KBWTER7B74F252YX", "dateTime": 1516477863893}, {"current_trial": 86, "trialdata": {"rt": -1, "trial_type": "single-stim", "stimulus": "<p id=\"stim\">2</p>", "internal_node_id": "0.0-60.0-8.0", "time_elapsed": 723271, "key_press": -1, "trial_index": 86}, "uniqueid": "MTK1824:336KAV9KYRZ899KBWTER7B74F252YX", "dateTime": 1516477864894}, {"current_trial": 87, "trialdata": {"rt": -1, "trial_type": "single-stim", "stimulus": "<p id=\"stim\">1</p>", "internal_node_id": "0.0-60.0-9.0", "time_elapsed": 724271, "key_press": -1, "trial_index": 87}, "uniqueid": "MTK1824:336KAV9KYRZ899KBWTER7B74F252YX", "dateTime": 1516477865894}, {"current_trial": 88, "trialdata": {"rt": -1, "trial_type": "single-stim", "stimulus": "<p id=\"stim\">+</p>", "internal_node_id": "0.0-61.0-0.0", "time_elapsed": 725771, "key_press": -1, "type": "FIXATION", "trial_index": 88}, "uniqueid": "MTK1824:336KAV9KYRZ899KBWTER7B74F252YX", "dateTime": 1516477867394}, {"current_trial": 89, "trialdata": {"rt": -1000, "trial_type": "single-audio", "word": "patrol", "stimulus": "/static/audio/wordpool/PATROL.wav", "conditions": [24, 800, "a", 12000], "internal_node_id": "0.0-62.0", "trial": 2, "time_elapsed": 727725, "serialpos": 0, "key_press": -1, "wordID": 1026, "type": "PRES_AUD", "trial_index": 89}, "uniqueid": "MTK1824:336KAV9KYRZ899KBWTER7B74F252YX", "dateTime": 1516477869348}, {"current_trial": 90, "trialdata": {"rt": -1000, "trial_type": "single-audio", "word": "dime", "stimulus": "/static/audio/wordpool/DIME.wav", "conditions": [24, 800, "a", 12000], "internal_node_id": "0.0-63.0", "trial": 2, "time_elapsed": 729696, "serialpos": 1, "key_press": -1, "wordID": 465, "type": "PRES_AUD", "trial_index": 90}, "uniqueid": "MTK1824:336KAV9KYRZ899KBWTER7B74F252YX", "dateTime": 1516477871319}, {"current_trial": 91, "trialdata": {"rt": -1000, "trial_type": "single-audio", "word": "cabbage", "stimulus": "/static/audio/wordpool/CABBAGE.wav", "conditions": [24, 800, "a", 12000], "internal_node_id": "0.0-64.0", "trial": 2, "time_elapsed": 731464, "serialpos": 2, "key_press": -1, "wordID": 209, "type": "PRES_AUD", "trial_index": 91}, "uniqueid": "MTK1824:336KAV9KYRZ899KBWTER7B74F252YX", "dateTime": 1516477873087}, {"current_trial": 92, "trialdata": {"rt": -1000, "trial_type": "single-audio", "word": "banjo", "stimulus": "/static/audio/wordpool/BANJO.wav", "conditions": [24, 800, "a", 12000], "internal_node_id": "0.0-65.0", "trial": 2, "time_elapsed": 733263, "serialpos": 3, "key_press": -1, "wordID": 81, "type": "PRES_AUD", "trial_index": 92}, "uniqueid": "MTK1824:336KAV9KYRZ899KBWTER7B74F252YX", "dateTime": 1516477874886}, {"current_trial": 93, "trialdata": {"rt": -1000, "trial_type": "single-audio", "word": "fiddle", "stimulus": "/static/audio/wordpool/FIDDLE.wav", "conditions": [24, 800, "a", 12000], "internal_node_id": "0.0-66.0", "trial": 2, "time_elapsed": 734955, "serialpos": 4, "key_press": -1, "wordID": 560, "type": "PRES_AUD", "trial_index": 93}, "uniqueid": "MTK1824:336KAV9KYRZ899KBWTER7B74F252YX", "dateTime": 1516477876578}, {"current_trial": 94, "trialdata": {"rt": -1000, "trial_type": "single-audio", "word": "zipper", "stimulus": "/static/audio/wordpool/ZIPPER.wav", "conditions": [24, 800, "a", 12000], "internal_node_id": "0.0-67.0", "trial": 2, "time_elapsed": 736803, "serialpos": 5, "key_press": -1, "wordID": 1635, "type": "PRES_AUD", "trial_index": 94}, "uniqueid": "MTK1824:336KAV9KYRZ899KBWTER7B74F252YX", "dateTime": 1516477878426}, {"current_trial": 95, "trialdata": {"rt": -1000, "trial_type": "single-audio", "word": "onion", "stimulus": "/static/audio/wordpool/ONION.wav", "conditions": [24, 800, "a", 12000], "internal_node_id": "0.0-68.0", "trial": 2, "time_elapsed": 738628, "serialpos": 6, "key_press": -1, "wordID": 976, "type": "PRES_AUD", "trial_index": 95}, "uniqueid": "MTK1824:336KAV9KYRZ899KBWTER7B74F252YX", "dateTime": 1516477880251}, {"current_trial": 96, "trialdata": {"rt": -1000, "trial_type": "single-audio", "word": "crab", "stimulus": "/static/audio/wordpool/CRAB.wav", "conditions": [24, 800, "a", 12000], "internal_node_id": "0.0-69.0", "trial": 2, "time_elapsed": 740287, "serialpos": 7, "key_press": -1, "wordID": 396, "type": "PRES_AUD", "trial_index": 96}, "uniqueid": "MTK1824:336KAV9KYRZ899KBWTER7B74F252YX", "dateTime": 1516477881910}, {"current_trial": 97, "trialdata": {"rt": -1000, "trial_type": "single-audio", "word": "possum", "stimulus": "/static/audio/wordpool/POSSUM.wav", "conditions": [24, 800, "a", 12000], "internal_node_id": "0.0-70.0", "trial": 2, "time_elapsed": 741965, "serialpos": 8, "key_press": -1, "wordID": 1111, "type": "PRES_AUD", "trial_index": 97}, "uniqueid": "MTK1824:336KAV9KYRZ899KBWTER7B74F252YX", "dateTime": 1516477883588}, {"current_trial": 98, "trialdata": {"rt": -1000, "trial_type": "single-audio", "word": "antler", "stimulus": "/static/audio/wordpool/ANTLER.wav", "conditions": [24, 800, "a", 12000], "internal_node_id": "0.0-71.0", "trial": 2, "time_elapsed": 743964, "serialpos": 9, "key_press": -1, "wordID": 28, "type": "PRES_AUD", "trial_index": 98}, "uniqueid": "MTK1824:336KAV9KYRZ899KBWTER7B74F252YX", "dateTime": 1516477885587}, {"current_trial": 99, "trialdata": {"rt": -1000, "trial_type": "single-audio", "word": "sparrow", "stimulus": "/static/audio/wordpool/SPARROW.wav", "conditions": [24, 800, "a", 12000], "internal_node_id": "0.0-72.0", "trial": 2, "time_elapsed": 745739, "serialpos": 10, "key_press": -1, "wordID": 1346, "type": "PRES_AUD", "trial_index": 99}, "uniqueid": "MTK1824:336KAV9KYRZ899KBWTER7B74F252YX", "dateTime": 1516477887362}, {"current_trial": 100, "trialdata": {"rt": -1000, "trial_type": "single-audio", "word": "mop", "stimulus": "/static/audio/wordpool/MOP.wav", "conditions": [24, 800, "a", 12000], "internal_node_id": "0.0-73.0", "trial": 2, "time_elapsed": 747469, "serialpos": 11, "key_press": -1, "wordID": 915, "type": "PRES_AUD", "trial_index": 100}, "uniqueid": "MTK1824:336KAV9KYRZ899KBWTER7B74F252YX", "dateTime": 1516477889092}, {"current_trial": 101, "trialdata": {"rt": -1000, "trial_type": "single-audio", "word": "fireman", "stimulus": "/static/audio/wordpool/FIREMAN.wav", "conditions": [24, 800, "a", 12000], "internal_node_id": "0.0-74.0", "trial": 2, "time_elapsed": 749151, "serialpos": 12, "key_press": -1, "wordID": 568, "type": "PRES_AUD", "trial_index": 101}, "uniqueid": "MTK1824:336KAV9KYRZ899KBWTER7B74F252YX", "dateTime": 1516477890774}, {"current_trial": 102, "trialdata": {"rt": -1000, "trial_type": "single-audio", "word": "tutu", "stimulus": "/static/audio/wordpool/TUTU.wav", "conditions": [24, 800, "a", 12000], "internal_node_id": "0.0-75.0", "trial": 2, "time_elapsed": 750811, "serialpos": 13, "key_press": -1, "wordID": 1523, "type": "PRES_AUD", "trial_index": 102}, "uniqueid": "MTK1824:336KAV9KYRZ899KBWTER7B74F252YX", "dateTime": 1516477892434}, {"current_trial": 103, "trialdata": {"rt": -1000, "trial_type": "single-audio", "word": "tile", "stimulus": "/static/audio/wordpool/TILE.wav", "conditions": [24, 800, "a", 12000], "internal_node_id": "0.0-76.0", "trial": 2, "time_elapsed": 752798, "serialpos": 14, "key_press": -1, "wordID": 1467, "type": "PRES_AUD", "trial_index": 103}, "uniqueid": "MTK1824:336KAV9KYRZ899KBWTER7B74F252YX", "dateTime": 1516477894421}, {"current_trial": 104, "trialdata": {"rt": -1000, "trial_type": "single-audio", "word": "brick", "stimulus": "/static/audio/wordpool/BRICK.wav", "conditions": [24, 800, "a", 12000], "internal_node_id": "0.0-77.0", "trial": 2, "time_elapsed": 754684, "serialpos": 15, "key_press": -1, "wordID": 171, "type": "PRES_AUD", "trial_index": 104}, "uniqueid": "MTK1824:336KAV9KYRZ899KBWTER7B74F252YX", "dateTime": 1516477896307}, {"current_trial": 105, "trialdata": {"rt": -1000, "trial_type": "single-audio", "word": "soda", "stimulus": "/static/audio/wordpool/SODA.wav", "conditions": [24, 800, "a", 12000], "internal_node_id": "0.0-78.0", "trial": 2, "time_elapsed": 756311, "serialpos": 16, "key_press": -1, "wordID": 1340, "type": "PRES_AUD", "trial_index": 105}, "uniqueid": "MTK1824:336KAV9KYRZ899KBWTER7B74F252YX", "dateTime": 1516477897934}, {"current_trial": 106, "trialdata": {"rt": -1000, "trial_type": "single-audio", "word": "binder", "stimulus": "/static/audio/wordpool/BINDER.wav", "conditions": [24, 800, "a", 12000], "internal_node_id": "0.0-79.0", "trial": 2, "time_elapsed": 758185, "serialpos": 17, "key_press": -1, "wordID": 126, "type": "PRES_AUD", "trial_index": 106}, "uniqueid": "MTK1824:336KAV9KYRZ899KBWTER7B74F252YX", "dateTime": 1516477899808}, {"current_trial": 107, "trialdata": {"rt": -1000, "trial_type": "single-audio", "word": "headband", "stimulus": "/static/audio/wordpool/HEADBAND.wav", "conditions": [24, 800, "a", 12000], "internal_node_id": "0.0-80.0", "trial": 2, "time_elapsed": 759856, "serialpos": 18, "key_press": -1, "wordID": 695, "type": "PRES_AUD", "trial_index": 107}, "uniqueid": "MTK1824:336KAV9KYRZ899KBWTER7B74F252YX", "dateTime": 1516477901479}, {"current_trial": 108, "trialdata": {"rt": -1000, "trial_type": "single-audio", "word": "typist", "stimulus": "/static/audio/wordpool/TYPIST.wav", "conditions": [24, 800, "a", 12000], "internal_node_id": "0.0-81.0", "trial": 2, "time_elapsed": 761550, "serialpos": 19, "key_press": -1, "wordID": 1531, "type": "PRES_AUD", "trial_index": 108}, "uniqueid": "MTK1824:336KAV9KYRZ899KBWTER7B74F252YX", "dateTime": 1516477903173}, {"current_trial": 109, "trialdata": {"rt": -1000, "trial_type": "single-audio", "word": "coffee", "stimulus": "/static/audio/wordpool/COFFEE.wav", "conditions": [24, 800, "a", 12000], "internal_node_id": "0.0-82.0", "trial": 2, "time_elapsed": 763531, "serialpos": 20, "key_press": -1, "wordID": 340, "type": "PRES_AUD", "trial_index": 109}, "uniqueid": "MTK1824:336KAV9KYRZ899KBWTER7B74F252YX", "dateTime": 1516477905154}, {"current_trial": 110, "trialdata": {"rt": -1000, "trial_type": "single-audio", "word": "spouse", "stimulus": "/static/audio/wordpool/SPOUSE.wav", "conditions": [24, 800, "a", 12000], "internal_node_id": "0.0-83.0", "trial": 2, "time_elapsed": 765514, "serialpos": 21, "key_press": -1, "wordID": 1357, "type": "PRES_AUD", "trial_index": 110}, "uniqueid": "MTK1824:336KAV9KYRZ899KBWTER7B74F252YX", "dateTime": 1516477907137}, {"current_trial": 111, "trialdata": {"rt": -1000, "trial_type": "single-audio", "word": "glove", "stimulus": "/static/audio/wordpool/GLOVE.wav", "conditions": [24, 800, "a", 12000], "internal_node_id": "0.0-84.0", "trial": 2, "time_elapsed": 767128, "serialpos": 22, "key_press": -1, "wordID": 641, "type": "PRES_AUD", "trial_index": 111}, "uniqueid": "MTK1824:336KAV9KYRZ899KBWTER7B74F252YX", "dateTime": 1516477908751}, {"current_trial": 112, "trialdata": {"rt": -1000, "trial_type": "single-audio", "word": "brook", "stimulus": "/static/audio/wordpool/BROOK.wav", "conditions": [24, 800, "a", 12000], "internal_node_id": "0.0-85.0", "trial": 2, "time_elapsed": 769104, "serialpos": 23, "key_press": -1, "wordID": 176, "type": "PRES_AUD", "trial_index": 112}, "uniqueid": "MTK1824:336KAV9KYRZ899KBWTER7B74F252YX", "dateTime": 1516477910727}, {"current_trial": 113, "trialdata": {"rt": -1, "trial_type": "single-stim", "stimulus": "", "internal_node_id": "0.0-86.0-0.0", "time_elapsed": 770390, "key_press": -1, "type": "PRE_RECALL_DELAY", "trial_index": 113}, "uniqueid": "MTK1824:336KAV9KYRZ899KBWTER7B74F252YX", "dateTime": 1516477912013}, {"current_trial": 114, "trialdata": {"rt": -1000, "trial_type": "single-audio", "stimulus": "/static/audio/400Hz.wav", "internal_node_id": "0.0-87.0", "time_elapsed": 770890, "key_press": -1, "type": "PRE_RECALL_ALERT", "trial_index": 114}, "uniqueid": "MTK1824:336KAV9KYRZ899KBWTER7B74F252YX", "dateTime": 1516477912513}, {"current_trial": 115, "trialdata": {"rt": [3400, 5113, 8009, 9545, 11833, 19080, 21800, 22729, 26681, 28201, 36648, 40185, 53336], "recwords": ["coffee", "spouse", "sparrow", "binder", "glove", "headband", "brick", "tile", "possum", "crab", "banjo", "fiddle", "zipper"], "key_times": [2233, 2408, 2584, 2808, 3000, 3208, 3400, 3800, 3976, 4216, 4392, 4616, 4728, 5113, 6425, 6553, 6697, 6937, 7129, 7273, 7449, 8009, 8425, 8585, 8729, 8857, 9081, 9225, 9545, 10873, 11049, 11241, 11354, 11577, 11833, 16985, 17256, 17368, 17672, 18056, 18168, 18568, 18840, 19080, 20072, 20344, 21000, 21256, 21464, 21800, 22072, 22200, 22393, 22521, 22729, 25433, 25641, 25737, 25945, 26041, 26313, 26681, 27145, 27433, 27481, 27961, 28201, 33464, 33608, 34136, 34456, 36184, 36648, 37417, 37544, 38104, 38264, 38392, 38552, 38792, 38968, 39096, 39208, 40185, 52137, 52312, 52600, 52776, 52888, 52984, 53336], "trial_type": "free-recall", "conditions": [24, 800, "a", 12000], "internal_node_id": "0.0-88.0-0.0", "key_presses": [67, 79, 70, 70, 69, 69, 13, 83, 80, 79, 85, 83, 69, 13, 83, 80, 65, 82, 82, 79, 87, 13, 66, 73, 78, 68, 69, 82, 13, 71, 76, 79, 86, 69, 13, 72, 69, 65, 68, 66, 65, 78, 68, 13, 66, 82, 73, 67, 75, 13, 84, 73, 76, 69, 13, 80, 79, 83, 83, 85, 77, 13, 67, 82, 65, 66, 13, 66, 65, 78, 74, 79, 13, 68, 73, 8, 8, 70, 73, 68, 68, 76, 69, 13, 90, 73, 80, 80, 69, 82, 13], "trial": 2, "time_elapsed": 830891, "type": "FREE_RECALL", "trial_index": 115}, "uniqueid": "MTK1824:336KAV9KYRZ899KBWTER7B74F252YX", "dateTime": 1516477972517}, {"current_trial": 116, "trialdata": {"rt": 1846, "trial_type": "text", "internal_node_id": "0.0-89.0", "time_elapsed": 834740, "key_press": 32, "type": "INSTRUCTIONS", "trial_index": 116}, "uniqueid": "MTK1824:336KAV9KYRZ899KBWTER7B74F252YX", "dateTime": 1516477976364}, {"current_trial": 117, "trialdata": {"rt": [2557, 4525, 6493, 9966, 12254, 14861, 18733, 21453], "trial_type": "math-distractor", "key_times": [2141, 2333, 2557, 4173, 4349, 4525, 6077, 6285, 6493, 9199, 9678, 9966, 11886, 11966, 12254, 14462, 14542, 14861, 18222, 18397, 18733, 20942, 21133, 21453], "responses": ["20", "14", "17", "15", "21", "21", "19", "17"], "num2": [7, 9, 9, 5, 7, 5, 1, 4, 1], "num3": [9, 3, 5, 6, 9, 7, 9, 5, 9], "conditions": [24, 1600, "a", 24000], "internal_node_id": "0.0-90.0", "key_presses": [98, 96, 13, 97, 100, 13, 97, 103, 13, 97, 101, 13, 98, 97, 13, 98, 97, 13, 97, 105, 13, 97, 103, 13], "trial": 3, "time_elapsed": 860742, "type": "DISTRACTOR", "trial_index": 117, "num1": [4, 2, 3, 4, 5, 9, 9, 8, 3]}, "uniqueid": "MTK1824:336KAV9KYRZ899KBWTER7B74F252YX", "dateTime": 1516478002365}, {"current_trial": 118, "trialdata": {"rt": -1, "trial_type": "single-stim", "stimulus": "<p id=\"stim\">10</p>", "internal_node_id": "0.0-91.0-0.0", "time_elapsed": 863742, "key_press": -1, "trial_index": 118}, "uniqueid": "MTK1824:336KAV9KYRZ899KBWTER7B74F252YX", "dateTime": 1516478005365}, {"current_trial": 119, "trialdata": {"rt": -1, "trial_type": "single-stim", "stimulus": "<p id=\"stim\">9</p>", "internal_node_id": "0.0-91.0-1.0", "time_elapsed": 864742, "key_press": -1, "trial_index": 119}, "uniqueid": "MTK1824:336KAV9KYRZ899KBWTER7B74F252YX", "dateTime": 1516478006365}, {"current_trial": 120, "trialdata": {"rt": -1, "trial_type": "single-stim", "stimulus": "<p id=\"stim\">8</p>", "internal_node_id": "0.0-91.0-2.0", "time_elapsed": 865742, "key_press": -1, "trial_index": 120}, "uniqueid": "MTK1824:336KAV9KYRZ899KBWTER7B74F252YX", "dateTime": 1516478007365}, {"current_trial": 121, "trialdata": {"rt": -1, "trial_type": "single-stim", "stimulus": "<p id=\"stim\">7</p>", "internal_node_id": "0.0-91.0-3.0", "time_elapsed": 866742, "key_press": -1, "trial_index": 121}, "uniqueid": "MTK1824:336KAV9KYRZ899KBWTER7B74F252YX", "dateTime": 1516478008365}, {"current_trial": 122, "trialdata": {"rt": -1, "trial_type": "single-stim", "stimulus": "<p id=\"stim\">6</p>", "internal_node_id": "0.0-91.0-4.0", "time_elapsed": 867742, "key_press": -1, "trial_index": 122}, "uniqueid": "MTK1824:336KAV9KYRZ899KBWTER7B74F252YX", "dateTime": 1516478009365}, {"current_trial": 123, "trialdata": {"rt": -1, "trial_type": "single-stim", "stimulus": "<p id=\"stim\">5</p>", "internal_node_id": "0.0-91.0-5.0", "time_elapsed": 868742, "key_press": -1, "trial_index": 123}, "uniqueid": "MTK1824:336KAV9KYRZ899KBWTER7B74F252YX", "dateTime": 1516478010365}, {"current_trial": 124, "trialdata": {"rt": -1, "trial_type": "single-stim", "stimulus": "<p id=\"stim\">4</p>", "internal_node_id": "0.0-91.0-6.0", "time_elapsed": 869742, "key_press": -1, "trial_index": 124}, "uniqueid": "MTK1824:336KAV9KYRZ899KBWTER7B74F252YX", "dateTime": 1516478011365}, {"current_trial": 125, "trialdata": {"rt": -1, "trial_type": "single-stim", "stimulus": "<p id=\"stim\">3</p>", "internal_node_id": "0.0-91.0-7.0", "time_elapsed": 870742, "key_press": -1, "trial_index": 125}, "uniqueid": "MTK1824:336KAV9KYRZ899KBWTER7B74F252YX", "dateTime": 1516478012366}, {"current_trial": 126, "trialdata": {"rt": -1, "trial_type": "single-stim", "stimulus": "<p id=\"stim\">2</p>", "internal_node_id": "0.0-91.0-8.0", "time_elapsed": 871743, "key_press": -1, "trial_index": 126}, "uniqueid": "MTK1824:336KAV9KYRZ899KBWTER7B74F252YX", "dateTime": 1516478013366}, {"current_trial": 127, "trialdata": {"rt": -1, "trial_type": "single-stim", "stimulus": "<p id=\"stim\">1</p>", "internal_node_id": "0.0-91.0-9.0", "time_elapsed": 872743, "key_press": -1, "trial_index": 127}, "uniqueid": "MTK1824:336KAV9KYRZ899KBWTER7B74F252YX", "dateTime": 1516478014366}, {"current_trial": 128, "trialdata": {"rt": -1, "trial_type": "single-stim", "stimulus": "<p id=\"stim\">+</p>", "internal_node_id": "0.0-92.0-0.0", "time_elapsed": 874243, "key_press": -1, "type": "FIXATION", "trial_index": 128}, "uniqueid": "MTK1824:336KAV9KYRZ899KBWTER7B74F252YX", "dateTime": 1516478015866}, {"current_trial": 129, "trialdata": {"rt": -1000, "trial_type": "single-audio", "word": "bubble", "stimulus": "/static/audio/wordpool/BUBBLE.wav", "conditions": [24, 1600, "a", 24000], "internal_node_id": "0.0-93.0", "trial": 3, "time_elapsed": 876856, "serialpos": 0, "key_press": -1, "wordID": 182, "type": "PRES_AUD", "trial_index": 129}, "uniqueid": "MTK1824:336KAV9KYRZ899KBWTER7B74F252YX", "dateTime": 1516478018479}, {"current_trial": 130, "trialdata": {"rt": -1000, "trial_type": "single-audio", "word": "dorm", "stimulus": "/static/audio/wordpool/DORM.wav", "conditions": [24, 1600, "a", 24000], "internal_node_id": "0.0-94.0", "trial": 3, "time_elapsed": 879513, "serialpos": 1, "key_press": -1, "wordID": 487, "type": "PRES_AUD", "trial_index": 130}, "uniqueid": "MTK1824:336KAV9KYRZ899KBWTER7B74F252YX", "dateTime": 1516478021136}, {"current_trial": 131, "trialdata": {"rt": -1000, "trial_type": "single-audio", "word": "necklace", "stimulus": "/static/audio/wordpool/NECKLACE.wav", "conditions": [24, 1600, "a", 24000], "internal_node_id": "0.0-95.0", "trial": 3, "time_elapsed": 882180, "serialpos": 2, "key_press": -1, "wordID": 939, "type": "PRES_AUD", "trial_index": 131}, "uniqueid": "MTK1824:336KAV9KYRZ899KBWTER7B74F252YX", "dateTime": 1516478023803}, {"current_trial": 132, "trialdata": {"rt": -1000, "trial_type": "single-audio", "word": "handbag", "stimulus": "/static/audio/wordpool/HANDBAG.wav", "conditions": [24, 1600, "a", 24000], "internal_node_id": "0.0-96.0", "trial": 3, "time_elapsed": 884683, "serialpos": 3, "key_press": -1, "wordID": 683, "type": "PRES_AUD", "trial_index": 132}, "uniqueid": "MTK1824:336KAV9KYRZ899KBWTER7B74F252YX", "dateTime": 1516478026306}, {"current_trial": 133, "trialdata": {"rt": -1000, "trial_type": "single-audio", "word": "finger", "stimulus": "/static/audio/wordpool/FINGER.wav", "conditions": [24, 1600, "a", 24000], "internal_node_id": "0.0-97.0", "trial": 3, "time_elapsed": 887257, "serialpos": 4, "key_press": -1, "wordID": 566, "type": "PRES_AUD", "trial_index": 133}, "uniqueid": "MTK1824:336KAV9KYRZ899KBWTER7B74F252YX", "dateTime": 1516478028880}, {"current_trial": 134, "trialdata": {"rt": -1000, "trial_type": "single-audio", "word": "cocoon", "stimulus": "/static/audio/wordpool/COCOON.wav", "conditions": [24, 1600, "a", 24000], "internal_node_id": "0.0-98.0", "trial": 3, "time_elapsed": 890006, "serialpos": 5, "key_press": -1, "wordID": 338, "type": "PRES_AUD", "trial_index": 134}, "uniqueid": "MTK1824:336KAV9KYRZ899KBWTER7B74F252YX", "dateTime": 1516478031629}, {"current_trial": 135, "trialdata": {"rt": -1000, "trial_type": "single-audio", "word": "penguin", "stimulus": "/static/audio/wordpool/PENGUIN.wav", "conditions": [24, 1600, "a", 24000], "internal_node_id": "0.0-99.0", "trial": 3, "time_elapsed": 892805, "serialpos": 6, "key_press": -1, "wordID": 1043, "type": "PRES_AUD", "trial_index": 135}, "uniqueid": "MTK1824:336KAV9KYRZ899KBWTER7B74F252YX", "dateTime": 1516478034428}, {"current_trial": 136, "trialdata": {"rt": -1000, "trial_type": "single-audio", "word": "braces", "stimulus": "/static/audio/wordpool/BRACES.wav", "conditions": [24, 1600, "a", 24000], "internal_node_id": "0.0-100.0", "trial": 3, "time_elapsed": 895241, "serialpos": 7, "key_press": -1, "wordID": 163, "type": "PRES_AUD", "trial_index": 136}, "uniqueid": "MTK1824:336KAV9KYRZ899KBWTER7B74F252YX", "dateTime": 1516478036864}, {"current_trial": 137, "trialdata": {"rt": -1000, "trial_type": "single-audio", "word": "kitchen", "stimulus": "/static/audio/wordpool/KITCHEN.wav", "conditions": [24, 1600, "a", 24000], "internal_node_id": "0.0-101.0", "trial": 3, "time_elapsed": 897756, "serialpos": 8, "key_press": -1, "wordID": 777, "type": "PRES_AUD", "trial_index": 137}, "uniqueid": "MTK1824:336KAV9KYRZ899KBWTER7B74F252YX", "dateTime": 1516478039379}, {"current_trial": 138, "trialdata": {"rt": -1000, "trial_type": "single-audio", "word": "padding", "stimulus": "/static/audio/wordpool/PADDING.wav", "conditions": [24, 1600, "a", 24000], "internal_node_id": "0.0-102.0", "trial": 3, "time_elapsed": 900465, "serialpos": 9, "key_press": -1, "wordID": 998, "type": "PRES_AUD", "trial_index": 138}, "uniqueid": "MTK1824:336KAV9KYRZ899KBWTER7B74F252YX", "dateTime": 1516478042088}, {"current_trial": 139, "trialdata": {"rt": -1000, "trial_type": "single-audio", "word": "curtain", "stimulus": "/static/audio/wordpool/CURTAIN.wav", "conditions": [24, 1600, "a", 24000], "internal_node_id": "0.0-103.0", "trial": 3, "time_elapsed": 903017, "serialpos": 10, "key_press": -1, "wordID": 426, "type": "PRES_AUD", "trial_index": 139}, "uniqueid": "MTK1824:336KAV9KYRZ899KBWTER7B74F252YX", "dateTime": 1516478044640}, {"current_trial": 140, "trialdata": {"rt": -1000, "trial_type": "single-audio", "word": "cook", "stimulus": "/static/audio/wordpool/COOK.wav", "conditions": [24, 1600, "a", 24000], "internal_node_id": "0.0-104.0", "trial": 3, "time_elapsed": 905778, "serialpos": 11, "key_press": -1, "wordID": 371, "type": "PRES_AUD", "trial_index": 140}, "uniqueid": "MTK1824:336KAV9KYRZ899KBWTER7B74F252YX", "dateTime": 1516478047401}, {"current_trial": 141, "trialdata": {"rt": -1000, "trial_type": "single-audio", "word": "tractor", "stimulus": "/static/audio/wordpool/TRACTOR.wav", "conditions": [24, 1600, "a", 24000], "internal_node_id": "0.0-105.0", "trial": 3, "time_elapsed": 908264, "serialpos": 12, "key_press": -1, "wordID": 1492, "type": "PRES_AUD", "trial_index": 141}, "uniqueid": "MTK1824:336KAV9KYRZ899KBWTER7B74F252YX", "dateTime": 1516478049887}, {"current_trial": 142, "trialdata": {"rt": -1000, "trial_type": "single-audio", "word": "coin", "stimulus": "/static/audio/wordpool/COIN.wav", "conditions": [24, 1600, "a", 24000], "internal_node_id": "0.0-106.0", "trial": 3, "time_elapsed": 910942, "serialpos": 13, "key_press": -1, "wordID": 342, "type": "PRES_AUD", "trial_index": 142}, "uniqueid": "MTK1824:336KAV9KYRZ899KBWTER7B74F252YX", "dateTime": 1516478052565}, {"current_trial": 143, "trialdata": {"rt": -1000, "trial_type": "single-audio", "word": "girl", "stimulus": "/static/audio/wordpool/GIRL.wav", "conditions": [24, 1600, "a", 24000], "internal_node_id": "0.0-107.0", "trial": 3, "time_elapsed": 913515, "serialpos": 14, "key_press": -1, "wordID": 636, "type": "PRES_AUD", "trial_index": 143}, "uniqueid": "MTK1824:336KAV9KYRZ899KBWTER7B74F252YX", "dateTime": 1516478055138}, {"current_trial": 144, "trialdata": {"rt": -1000, "trial_type": "single-audio", "word": "robot", "stimulus": "/static/audio/wordpool/ROBOT.wav", "conditions": [24, 1600, "a", 24000], "internal_node_id": "0.0-108.0", "trial": 3, "time_elapsed": 916046, "serialpos": 15, "key_press": -1, "wordID": 1199, "type": "PRES_AUD", "trial_index": 144}, "uniqueid": "MTK1824:336KAV9KYRZ899KBWTER7B74F252YX", "dateTime": 1516478057669}, {"current_trial": 145, "trialdata": {"rt": -1000, "trial_type": "single-audio", "word": "freezer", "stimulus": "/static/audio/wordpool/FREEZER.wav", "conditions": [24, 1600, "a", 24000], "internal_node_id": "0.0-109.0", "trial": 3, "time_elapsed": 918751, "serialpos": 16, "key_press": -1, "wordID": 603, "type": "PRES_AUD", "trial_index": 145}, "uniqueid": "MTK1824:336KAV9KYRZ899KBWTER7B74F252YX", "dateTime": 1516478060374}, {"current_trial": 146, "trialdata": {"rt": -1000, "trial_type": "single-audio", "word": "igloo", "stimulus": "/static/audio/wordpool/IGLOO.wav", "conditions": [24, 1600, "a", 24000], "internal_node_id": "0.0-110.0", "trial": 3, "time_elapsed": 921259, "serialpos": 17, "key_press": -1, "wordID": 733, "type": "PRES_AUD", "trial_index": 146}, "uniqueid": "MTK1824:336KAV9KYRZ899KBWTER7B74F252YX", "dateTime": 1516478062882}, {"current_trial": 147, "trialdata": {"rt": -1000, "trial_type": "single-audio", "word": "shrub", "stimulus": "/static/audio/wordpool/SHRUB.wav", "conditions": [24, 1600, "a", 24000], "internal_node_id": "0.0-111.0", "trial": 3, "time_elapsed": 924043, "serialpos": 18, "key_press": -1, "wordID": 1298, "type": "PRES_AUD", "trial_index": 147}, "uniqueid": "MTK1824:336KAV9KYRZ899KBWTER7B74F252YX", "dateTime": 1516478065666}, {"current_trial": 148, "trialdata": {"rt": -1000, "trial_type": "single-audio", "word": "princess", "stimulus": "/static/audio/wordpool/PRINCESS.wav", "conditions": [24, 1600, "a", 24000], "internal_node_id": "0.0-112.0", "trial": 3, "time_elapsed": 926533, "serialpos": 19, "key_press": -1, "wordID": 1124, "type": "PRES_AUD", "trial_index": 148}, "uniqueid": "MTK1824:336KAV9KYRZ899KBWTER7B74F252YX", "dateTime": 1516478068156}, {"current_trial": 149, "trialdata": {"rt": -1000, "trial_type": "single-audio", "word": "beast", "stimulus": "/static/audio/wordpool/BEAST.wav", "conditions": [24, 1600, "a", 24000], "internal_node_id": "0.0-113.0", "trial": 3, "time_elapsed": 929115, "serialpos": 20, "key_press": -1, "wordID": 107, "type": "PRES_AUD", "trial_index": 149}, "uniqueid": "MTK1824:336KAV9KYRZ899KBWTER7B74F252YX", "dateTime": 1516478070738}, {"current_trial": 150, "trialdata": {"rt": -1000, "trial_type": "single-audio", "word": "monster", "stimulus": "/static/audio/wordpool/MONSTER.wav", "conditions": [24, 1600, "a", 24000], "internal_node_id": "0.0-114.0", "trial": 3, "time_elapsed": 931781, "serialpos": 21, "key_press": -1, "wordID": 911, "type": "PRES_AUD", "trial_index": 150}, "uniqueid": "MTK1824:336KAV9KYRZ899KBWTER7B74F252YX", "dateTime": 1516478073404}, {"current_trial": 151, "trialdata": {"rt": -1000, "trial_type": "single-audio", "word": "wasp", "stimulus": "/static/audio/wordpool/WASP.wav", "conditions": [24, 1600, "a", 24000], "internal_node_id": "0.0-115.0", "trial": 3, "time_elapsed": 934487, "serialpos": 22, "key_press": -1, "wordID": 1592, "type": "PRES_AUD", "trial_index": 151}, "uniqueid": "MTK1824:336KAV9KYRZ899KBWTER7B74F252YX", "dateTime": 1516478076110}, {"current_trial": 152, "trialdata": {"rt": -1000, "trial_type": "single-audio", "word": "perch", "stimulus": "/static/audio/wordpool/PERCH.wav", "conditions": [24, 1600, "a", 24000], "internal_node_id": "0.0-116.0", "trial": 3, "time_elapsed": 937076, "serialpos": 23, "key_press": -1, "wordID": 1047, "type": "PRES_AUD", "trial_index": 152}, "uniqueid": "MTK1824:336KAV9KYRZ899KBWTER7B74F252YX", "dateTime": 1516478078699}, {"current_trial": 153, "trialdata": {"rt": -1, "trial_type": "single-stim", "stimulus": "", "internal_node_id": "0.0-117.0-0.0", "time_elapsed": 938465, "key_press": -1, "type": "PRE_RECALL_DELAY", "trial_index": 153}, "uniqueid": "MTK1824:336KAV9KYRZ899KBWTER7B74F252YX", "dateTime": 1516478080088}, {"current_trial": 154, "trialdata": {"rt": -1000, "trial_type": "single-audio", "stimulus": "/static/audio/400Hz.wav", "internal_node_id": "0.0-118.0", "time_elapsed": 938965, "key_press": -1, "type": "PRE_RECALL_ALERT", "trial_index": 154}, "uniqueid": "MTK1824:336KAV9KYRZ899KBWTER7B74F252YX", "dateTime": 1516478080588}, {"current_trial": 155, "trialdata": {"rt": [3230, 4462, 6413, 8686, 10157, 12687, 14830, 18510, 25117, 29806, 32078, 36317, 42029], "recwords": ["perch", "wasp", "princess", "monster", "beast", "kitchen", "freezer", "robot", "princess", "curtain", "cook", "girl", "necklace"], "key_times": [1982, 2126, 2158, 2590, 2670, 3230, 3453, 3566, 3805, 4029, 4462, 4957, 5069, 5213, 5357, 5517, 5837, 6093, 6269, 6413, 7005, 7213, 7661, 7853, 8013, 8237, 8365, 8686, 8909, 9133, 9277, 9837, 9950, 10157, 10573, 10765, 10894, 11213, 11357, 11694, 12143, 12270, 12430, 12687, 12974, 13198, 13502, 13662, 13998, 14302, 14430, 14830, 16926, 17086, 17294, 17422, 18238, 18510, 22702, 22909, 23517, 23901, 24221, 24477, 24733, 24941, 25117, 28269, 28413, 28557, 28813, 28941, 29070, 29214, 29806, 31358, 31518, 31646, 31822, 32078, 35550, 35694, 35837, 36061, 36317, 40045, 40205, 40541, 40653, 40893, 41021, 41437, 41741, 42029], "trial_type": "free-recall", "conditions": [24, 1600, "a", 24000], "internal_node_id": "0.0-119.0-0.0", "key_presses": [80, 69, 82, 67, 72, 13, 87, 65, 83, 80, 13, 80, 82, 73, 78, 67, 69, 83, 83, 13, 77, 79, 78, 83, 84, 69, 82, 13, 66, 69, 65, 83, 84, 13, 75, 73, 84, 67, 72, 78, 8, 69, 78, 13, 70, 82, 69, 69, 90, 69, 82, 13, 82, 79, 66, 79, 84, 13, 80, 82, 73, 78, 67, 69, 83, 83, 13, 67, 85, 82, 84, 65, 73, 78, 13, 67, 79, 79, 75, 13, 71, 73, 82, 76, 13, 78, 69, 67, 75, 76, 65, 67, 69, 13], "trial": 3, "time_elapsed": 998966, "type": "FREE_RECALL", "trial_index": 155}, "uniqueid": "MTK1824:336KAV9KYRZ899KBWTER7B74F252YX", "dateTime": 1516478140594}, {"current_trial": 156, "trialdata": {"rt": 1737, "trial_type": "text", "internal_node_id": "0.0-120.0", "time_elapsed": 1002708, "key_press": 32, "type": "INSTRUCTIONS", "trial_index": 156}, "uniqueid": "MTK1824:336KAV9KYRZ899KBWTER7B74F252YX", "dateTime": 1516478144331}, {"current_trial": 157, "trialdata": {"rt": [1887, 5615, 7166, 9198, 10974], "trial_type": "math-distractor", "key_times": [1535, 1695, 1887, 5055, 5246, 5615, 6783, 6975, 7166, 8863, 8990, 9198, 10670, 10830, 10974], "responses": ["14", "24", "14", "12", "11"], "num2": [1, 5, 2, 2, 5, 2], "num3": [7, 9, 7, 6, 3, 5], "conditions": [24, 1600, "a", 12000], "internal_node_id": "0.0-121.0", "key_presses": [97, 100, 13, 98, 100, 13, 97, 100, 13, 97, 98, 13, 97, 97, 13], "trial": 4, "time_elapsed": 1016709, "type": "DISTRACTOR", "trial_index": 157, "num1": [6, 9, 5, 4, 3, 2]}, "uniqueid": "MTK1824:336KAV9KYRZ899KBWTER7B74F252YX", "dateTime": 1516478158332}, {"current_trial": 158, "trialdata": {"rt": -1, "trial_type": "single-stim", "stimulus": "<p id=\"stim\">10</p>", "internal_node_id": "0.0-122.0-0.0", "time_elapsed": 1019709, "key_press": -1, "trial_index": 158}, "uniqueid": "MTK1824:336KAV9KYRZ899KBWTER7B74F252YX", "dateTime": 1516478161332}, {"current_trial": 159, "trialdata": {"rt": -1, "trial_type": "single-stim", "stimulus": "<p id=\"stim\">9</p>", "internal_node_id": "0.0-122.0-1.0", "time_elapsed": 1020709, "key_press": -1, "trial_index": 159}, "uniqueid": "MTK1824:336KAV9KYRZ899KBWTER7B74F252YX", "dateTime": 1516478162332}, {"current_trial": 160, "trialdata": {"rt": -1, "trial_type": "single-stim", "stimulus": "<p id=\"stim\">8</p>", "internal_node_id": "0.0-122.0-2.0", "time_elapsed": 1021709, "key_press": -1, "trial_index": 160}, "uniqueid": "MTK1824:336KAV9KYRZ899KBWTER7B74F252YX", "dateTime": 1516478163332}, {"current_trial": 161, "trialdata": {"rt": -1, "trial_type": "single-stim", "stimulus": "<p id=\"stim\">7</p>", "internal_node_id": "0.0-122.0-3.0", "time_elapsed": 1022709, "key_press": -1, "trial_index": 161}, "uniqueid": "MTK1824:336KAV9KYRZ899KBWTER7B74F252YX", "dateTime": 1516478164332}, {"current_trial": 162, "trialdata": {"rt": -1, "trial_type": "single-stim", "stimulus": "<p id=\"stim\">6</p>", "internal_node_id": "0.0-122.0-4.0", "time_elapsed": 1023709, "key_press": -1, "trial_index": 162}, "uniqueid": "MTK1824:336KAV9KYRZ899KBWTER7B74F252YX", "dateTime": 1516478165332}, {"current_trial": 163, "trialdata": {"rt": -1, "trial_type": "single-stim", "stimulus": "<p id=\"stim\">5</p>", "internal_node_id": "0.0-122.0-5.0", "time_elapsed": 1024709, "key_press": -1, "trial_index": 163}, "uniqueid": "MTK1824:336KAV9KYRZ899KBWTER7B74F252YX", "dateTime": 1516478166332}, {"current_trial": 164, "trialdata": {"rt": -1, "trial_type": "single-stim", "stimulus": "<p id=\"stim\">4</p>", "internal_node_id": "0.0-122.0-6.0", "time_elapsed": 1025709, "key_press": -1, "trial_index": 164}, "uniqueid": "MTK1824:336KAV9KYRZ899KBWTER7B74F252YX", "dateTime": 1516478167332}, {"current_trial": 165, "trialdata": {"rt": -1, "trial_type": "single-stim", "stimulus": "<p id=\"stim\">3</p>", "internal_node_id": "0.0-122.0-7.0", "time_elapsed": 1026709, "key_press": -1, "trial_index": 165}, "uniqueid": "MTK1824:336KAV9KYRZ899KBWTER7B74F252YX", "dateTime": 1516478168332}, {"current_trial": 166, "trialdata": {"rt": -1, "trial_type": "single-stim", "stimulus": "<p id=\"stim\">2</p>", "internal_node_id": "0.0-122.0-8.0", "time_elapsed": 1027709, "key_press": -1, "trial_index": 166}, "uniqueid": "MTK1824:336KAV9KYRZ899KBWTER7B74F252YX", "dateTime": 1516478169332}, {"current_trial": 167, "trialdata": {"rt": -1, "trial_type": "single-stim", "stimulus": "<p id=\"stim\">1</p>", "internal_node_id": "0.0-122.0-9.0", "time_elapsed": 1028709, "key_press": -1, "trial_index": 167}, "uniqueid": "MTK1824:336KAV9KYRZ899KBWTER7B74F252YX", "dateTime": 1516478170332}, {"current_trial": 168, "trialdata": {"rt": -1, "trial_type": "single-stim", "stimulus": "<p id=\"stim\">+</p>", "internal_node_id": "0.0-123.0-0.0", "time_elapsed": 1030209, "key_press": -1, "type": "FIXATION", "trial_index": 168}, "uniqueid": "MTK1824:336KAV9KYRZ899KBWTER7B74F252YX", "dateTime": 1516478171832}, {"current_trial": 169, "trialdata": {"rt": -1000, "trial_type": "single-audio", "word": "tombstone", "stimulus": "/static/audio/wordpool/TOMBSTONE.wav", "conditions": [24, 1600, "a", 12000], "internal_node_id": "0.0-124.0", "trial": 4, "time_elapsed": 1032627, "serialpos": 0, "key_press": -1, "wordID": 1477, "type": "PRES_AUD", "trial_index": 169}, "uniqueid": "MTK1824:336KAV9KYRZ899KBWTER7B74F252YX", "dateTime": 1516478174250}, {"current_trial": 170, "trialdata": {"rt": -1000, "trial_type": "single-audio", "word": "creature", "stimulus": "/static/audio/wordpool/CREATURE.wav", "conditions": [24, 1600, "a", 12000], "internal_node_id": "0.0-125.0", "trial": 4, "time_elapsed": 1035228, "serialpos": 1, "key_press": -1, "wordID": 402, "type": "PRES_AUD", "trial_index": 170}, "uniqueid": "MTK1824:336KAV9KYRZ899KBWTER7B74F252YX", "dateTime": 1516478176851}, {"current_trial": 171, "trialdata": {"rt": -1000, "trial_type": "single-audio", "word": "dragon", "stimulus": "/static/audio/wordpool/DRAGON.wav", "conditions": [24, 1600, "a", 12000], "internal_node_id": "0.0-126.0", "trial": 4, "time_elapsed": 1037996, "serialpos": 2, "key_press": -1, "wordID": 491, "type": "PRES_AUD", "trial_index": 171}, "uniqueid": "MTK1824:336KAV9KYRZ899KBWTER7B74F252YX", "dateTime": 1516478179619}, {"current_trial": 172, "trialdata": {"rt": -1000, "trial_type": "single-audio", "word": "scalpel", "stimulus": "/static/audio/wordpool/SCALPEL.wav", "conditions": [24, 1600, "a", 12000], "internal_node_id": "0.0-127.0", "trial": 4, "time_elapsed": 1040636, "serialpos": 3, "key_press": -1, "wordID": 1242, "type": "PRES_AUD", "trial_index": 172}, "uniqueid": "MTK1824:336KAV9KYRZ899KBWTER7B74F252YX", "dateTime": 1516478182259}, {"current_trial": 173, "trialdata": {"rt": -1000, "trial_type": "single-audio", "word": "sibling", "stimulus": "/static/audio/wordpool/SIBLING.wav", "conditions": [24, 1600, "a", 12000], "internal_node_id": "0.0-128.0", "trial": 4, "time_elapsed": 1043379, "serialpos": 4, "key_press": -1, "wordID": 1300, "type": "PRES_AUD", "trial_index": 173}, "uniqueid": "MTK1824:336KAV9KYRZ899KBWTER7B74F252YX", "dateTime": 1516478185002}, {"current_trial": 174, "trialdata": {"rt": -1000, "trial_type": "single-audio", "word": "quail", "stimulus": "/static/audio/wordpool/QUAIL.wav", "conditions": [24, 1600, "a", 12000], "internal_node_id": "0.0-129.0", "trial": 4, "time_elapsed": 1046175, "serialpos": 5, "key_press": -1, "wordID": 1146, "type": "PRES_AUD", "trial_index": 174}, "uniqueid": "MTK1824:336KAV9KYRZ899KBWTER7B74F252YX", "dateTime": 1516478187798}, {"current_trial": 175, "trialdata": {"rt": -1000, "trial_type": "single-audio", "word": "racket", "stimulus": "/static/audio/wordpool/RACKET.wav", "conditions": [24, 1600, "a", 12000], "internal_node_id": "0.0-130.0", "trial": 4, "time_elapsed": 1048791, "serialpos": 6, "key_press": -1, "wordID": 1154, "type": "PRES_AUD", "trial_index": 175}, "uniqueid": "MTK1824:336KAV9KYRZ899KBWTER7B74F252YX", "dateTime": 1516478190414}, {"current_trial": 176, "trialdata": {"rt": -1000, "trial_type": "single-audio", "word": "rug", "stimulus": "/static/audio/wordpool/RUG.wav", "conditions": [24, 1600, "a", 12000], "internal_node_id": "0.0-131.0", "trial": 4, "time_elapsed": 1051367, "serialpos": 7, "key_press": -1, "wordID": 1214, "type": "PRES_AUD", "trial_index": 176}, "uniqueid": "MTK1824:336KAV9KYRZ899KBWTER7B74F252YX", "dateTime": 1516478192990}, {"current_trial": 177, "trialdata": {"rt": -1000, "trial_type": "single-audio", "word": "puddle", "stimulus": "/static/audio/wordpool/PUDDLE.wav", "conditions": [24, 1600, "a", 12000], "internal_node_id": "0.0-132.0", "trial": 4, "time_elapsed": 1053995, "serialpos": 8, "key_press": -1, "wordID": 1139, "type": "PRES_AUD", "trial_index": 177}, "uniqueid": "MTK1824:336KAV9KYRZ899KBWTER7B74F252YX", "dateTime": 1516478195618}, {"current_trial": 178, "trialdata": {"rt": -1000, "trial_type": "single-audio", "word": "scissors", "stimulus": "/static/audio/wordpool/SCISSORS.wav", "conditions": [24, 1600, "a", 12000], "internal_node_id": "0.0-133.0", "trial": 4, "time_elapsed": 1056732, "serialpos": 9, "key_press": -1, "wordID": 1249, "type": "PRES_AUD", "trial_index": 178}, "uniqueid": "MTK1824:336KAV9KYRZ899KBWTER7B74F252YX", "dateTime": 1516478198355}, {"current_trial": 179, "trialdata": {"rt": -1000, "trial_type": "single-audio", "word": "slug", "stimulus": "/static/audio/wordpool/SLUG.wav", "conditions": [24, 1600, "a", 12000], "internal_node_id": "0.0-134.0", "trial": 4, "time_elapsed": 1059178, "serialpos": 10, "key_press": -1, "wordID": 1328, "type": "PRES_AUD", "trial_index": 179}, "uniqueid": "MTK1824:336KAV9KYRZ899KBWTER7B74F252YX", "dateTime": 1516478200801}, {"current_trial": 180, "trialdata": {"rt": -1000, "trial_type": "single-audio", "word": "gazelle", "stimulus": "/static/audio/wordpool/GAZELLE.wav", "conditions": [24, 1600, "a", 12000], "internal_node_id": "0.0-135.0", "trial": 4, "time_elapsed": 1061970, "serialpos": 11, "key_press": -1, "wordID": 627, "type": "PRES_AUD", "trial_index": 180}, "uniqueid": "MTK1824:336KAV9KYRZ899KBWTER7B74F252YX", "dateTime": 1516478203593}, {"current_trial": 181, "trialdata": {"rt": -1000, "trial_type": "single-audio", "word": "banquet", "stimulus": "/static/audio/wordpool/BANQUET.wav", "conditions": [24, 1600, "a", 12000], "internal_node_id": "0.0-136.0", "trial": 4, "time_elapsed": 1064679, "serialpos": 12, "key_press": -1, "wordID": 85, "type": "PRES_AUD", "trial_index": 181}, "uniqueid": "MTK1824:336KAV9KYRZ899KBWTER7B74F252YX", "dateTime": 1516478206302}, {"current_trial": 182, "trialdata": {"rt": -1000, "trial_type": "single-audio", "word": "shoulder", "stimulus": "/static/audio/wordpool/SHOULDER.wav", "conditions": [24, 1600, "a", 12000], "internal_node_id": "0.0-137.0", "trial": 4, "time_elapsed": 1067195, "serialpos": 13, "key_press": -1, "wordID": 1293, "type": "PRES_AUD", "trial_index": 182}, "uniqueid": "MTK1824:336KAV9KYRZ899KBWTER7B74F252YX", "dateTime": 1516478208818}, {"current_trial": 183, "trialdata": {"rt": -1000, "trial_type": "single-audio", "word": "xerox", "stimulus": "/static/audio/wordpool/XEROX.wav", "conditions": [24, 1600, "a", 12000], "internal_node_id": "0.0-138.0", "trial": 4, "time_elapsed": 1069749, "serialpos": 14, "key_press": -1, "wordID": 1627, "type": "PRES_AUD", "trial_index": 183}, "uniqueid": "MTK1824:336KAV9KYRZ899KBWTER7B74F252YX", "dateTime": 1516478211372}, {"current_trial": 184, "trialdata": {"rt": -1000, "trial_type": "single-audio", "word": "witness", "stimulus": "/static/audio/wordpool/WITNESS.wav", "conditions": [24, 1600, "a", 12000], "internal_node_id": "0.0-139.0", "trial": 4, "time_elapsed": 1072310, "serialpos": 15, "key_press": -1, "wordID": 1617, "type": "PRES_AUD", "trial_index": 184}, "uniqueid": "MTK1824:336KAV9KYRZ899KBWTER7B74F252YX", "dateTime": 1516478213933}, {"current_trial": 185, "trialdata": {"rt": -1000, "trial_type": "single-audio", "word": "cigar", "stimulus": "/static/audio/wordpool/CIGAR.wav", "conditions": [24, 1600, "a", 12000], "internal_node_id": "0.0-140.0", "trial": 4, "time_elapsed": 1075091, "serialpos": 16, "key_press": -1, "wordID": 307, "type": "PRES_AUD", "trial_index": 185}, "uniqueid": "MTK1824:336KAV9KYRZ899KBWTER7B74F252YX", "dateTime": 1516478216714}, {"current_trial": 186, "trialdata": {"rt": -1000, "trial_type": "single-audio", "word": "money", "stimulus": "/static/audio/wordpool/MONEY.wav", "conditions": [24, 1600, "a", 12000], "internal_node_id": "0.0-141.0", "trial": 4, "time_elapsed": 1077588, "serialpos": 17, "key_press": -1, "wordID": 907, "type": "PRES_AUD", "trial_index": 186}, "uniqueid": "MTK1824:336KAV9KYRZ899KBWTER7B74F252YX", "dateTime": 1516478219211}, {"current_trial": 187, "trialdata": {"rt": -1000, "trial_type": "single-audio", "word": "pizza", "stimulus": "/static/audio/wordpool/PIZZA.wav", "conditions": [24, 1600, "a", 12000], "internal_node_id": "0.0-142.0", "trial": 4, "time_elapsed": 1080059, "serialpos": 18, "key_press": -1, "wordID": 1078, "type": "PRES_AUD", "trial_index": 187}, "uniqueid": "MTK1824:336KAV9KYRZ899KBWTER7B74F252YX", "dateTime": 1516478221682}, {"current_trial": 188, "trialdata": {"rt": -1000, "trial_type": "single-audio", "word": "stamp", "stimulus": "/static/audio/wordpool/STAMP.wav", "conditions": [24, 1600, "a", 12000], "internal_node_id": "0.0-143.0", "trial": 4, "time_elapsed": 1082519, "serialpos": 19, "key_press": -1, "wordID": 1369, "type": "PRES_AUD", "trial_index": 188}, "uniqueid": "MTK1824:336KAV9KYRZ899KBWTER7B74F252YX", "dateTime": 1516478224142}, {"current_trial": 189, "trialdata": {"rt": -1000, "trial_type": "single-audio", "word": "supper", "stimulus": "/static/audio/wordpool/SUPPER.wav", "conditions": [24, 1600, "a", 12000], "internal_node_id": "0.0-144.0", "trial": 4, "time_elapsed": 1084964, "serialpos": 20, "key_press": -1, "wordID": 1410, "type": "PRES_AUD", "trial_index": 189}, "uniqueid": "MTK1824:336KAV9KYRZ899KBWTER7B74F252YX", "dateTime": 1516478226587}, {"current_trial": 190, "trialdata": {"rt": -1000, "trial_type": "single-audio", "word": "portrait", "stimulus": "/static/audio/wordpool/PORTRAIT.wav", "conditions": [24, 1600, "a", 12000], "internal_node_id": "0.0-145.0", "trial": 4, "time_elapsed": 1087535, "serialpos": 21, "key_press": -1, "wordID": 1110, "type": "PRES_AUD", "trial_index": 190}, "uniqueid": "MTK1824:336KAV9KYRZ899KBWTER7B74F252YX", "dateTime": 1516478229158}, {"current_trial": 191, "trialdata": {"rt": -1000, "trial_type": "single-audio", "word": "picture", "stimulus": "/static/audio/wordpool/PICTURE.wav", "conditions": [24, 1600, "a", 12000], "internal_node_id": "0.0-146.0", "trial": 4, "time_elapsed": 1090109, "serialpos": 22, "key_press": -1, "wordID": 1060, "type": "PRES_AUD", "trial_index": 191}, "uniqueid": "MTK1824:336KAV9KYRZ899KBWTER7B74F252YX", "dateTime": 1516478231732}, {"current_trial": 192, "trialdata": {"rt": -1000, "trial_type": "single-audio", "word": "radish", "stimulus": "/static/audio/wordpool/RADISH.wav", "conditions": [24, 1600, "a", 12000], "internal_node_id": "0.0-147.0", "trial": 4, "time_elapsed": 1092660, "serialpos": 23, "key_press": -1, "wordID": 1157, "type": "PRES_AUD", "trial_index": 192}, "uniqueid": "MTK1824:336KAV9KYRZ899KBWTER7B74F252YX", "dateTime": 1516478234283}, {"current_trial": 193, "trialdata": {"rt": -1, "trial_type": "single-stim", "stimulus": "", "internal_node_id": "0.0-148.0-0.0", "time_elapsed": 1094051, "key_press": -1, "type": "PRE_RECALL_DELAY", "trial_index": 193}, "uniqueid": "MTK1824:336KAV9KYRZ899KBWTER7B74F252YX", "dateTime": 1516478235674}, {"current_trial": 194, "trialdata": {"rt": -1000, "trial_type": "single-audio", "stimulus": "/static/audio/400Hz.wav", "internal_node_id": "0.0-149.0", "time_elapsed": 1094551, "key_press": -1, "type": "PRE_RECALL_ALERT", "trial_index": 194}, "uniqueid": "MTK1824:336KAV9KYRZ899KBWTER7B74F252YX", "dateTime": 1516478236174}, {"current_trial": 195, "trialdata": {"rt": [4253, 6028, 8940, 10844, 16397, 18797, 21757, 24764, 28796, 36429, 38684, 55483], "recwords": ["tombstone", "pizza", "creature", "dragon", "xerox", "witness", "money", "pizza", "supper", "banquet", "gazelle", "money"], "key_times": [2173, 2301, 2845, 2989, 3325, 3485, 3612, 3709, 3837, 4253, 4909, 5037, 5260, 5469, 5836, 6028, 7372, 7628, 7724, 7837, 8252, 8444, 8572, 8668, 8940, 9308, 9628, 9740, 9996, 10204, 10332, 10844, 12669, 12956, 13581, 13757, 13869, 14477, 14669, 14973, 15133, 15373, 15517, 15917, 16045, 16397, 17309, 17453, 17645, 17981, 18109, 18397, 18605, 18797, 20525, 20749, 21069, 21292, 21421, 21757, 23117, 23245, 23629, 24189, 24541, 24764, 27452, 27676, 28060, 28268, 28380, 28508, 28796, 34382, 34973, 35102, 35389, 35565, 35965, 36109, 36429, 37421, 37549, 37853, 38012, 38268, 38428, 38540, 38684, 54541, 54748, 54876, 55003, 55147, 55483], "trial_type": "free-recall", "conditions": [24, 1600, "a", 12000], "internal_node_id": "0.0-150.0-0.0", "key_presses": [84, 79, 77, 66, 83, 84, 79, 78, 69, 13, 80, 73, 90, 90, 65, 13, 67, 82, 69, 65, 84, 85, 82, 69, 13, 68, 82, 65, 71, 79, 78, 13, 69, 88, 8, 8, 69, 8, 88, 69, 82, 79, 78, 8, 88, 13, 87, 73, 84, 78, 69, 83, 83, 13, 77, 79, 78, 69, 89, 13, 80, 73, 90, 90, 65, 13, 83, 85, 80, 80, 69, 82, 13, 66, 65, 78, 81, 85, 69, 84, 13, 71, 65, 90, 69, 76, 76, 69, 13, 77, 79, 78, 69, 89, 13], "trial": 4, "time_elapsed": 1154551, "type": "FREE_RECALL", "trial_index": 195}, "uniqueid": "MTK1824:336KAV9KYRZ899KBWTER7B74F252YX", "dateTime": 1516478296178}, {"current_trial": 196, "trialdata": {"rt": 1272, "trial_type": "text", "internal_node_id": "0.0-151.0", "time_elapsed": 1157828, "key_press": 32, "type": "INSTRUCTIONS", "trial_index": 196}, "uniqueid": "MTK1824:336KAV9KYRZ899KBWTER7B74F252YX", "dateTime": 1516478299451}, {"current_trial": 197, "trialdata": {"rt": [2735, 4911, 7263, 8943, 14430, 16814, 20127, 21919], "trial_type": "math-distractor", "key_times": [2400, 2559, 2735, 4511, 4703, 4911, 6991, 7263, 8655, 8943, 10895, 14127, 14430, 16462, 16622, 16814, 19791, 19951, 20127, 21631, 21711, 21919, 23903], "responses": ["16", "18", "8", "7", "26", "20", "16", "21"], "num2": [8, 6, 2, 4, 9, 8, 4, 8, 3], "num3": [7, 5, 4, 1, 9, 8, 4, 6, 7], "conditions": [24, 1600, "a", 24000], "internal_node_id": "0.0-152.0", "key_presses": [97, 102, 13, 97, 104, 13, 104, 13, 103, 13, 98, 102, 13, 98, 96, 13, 97, 102, 13, 98, 97, 13, 97], "trial": 5, "time_elapsed": 1183829, "type": "DISTRACTOR", "trial_index": 197, "num1": [1, 7, 2, 2, 8, 4, 8, 7, 7]}, "uniqueid": "MTK1824:336KAV9KYRZ899KBWTER7B74F252YX", "dateTime": 1516478325452}, {"current_trial": 198, "trialdata": {"rt": -1, "trial_type": "single-stim", "stimulus": "<p id=\"stim\">10</p>", "internal_node_id": "0.0-153.0-0.0", "time_elapsed": 1186829, "key_press": -1, "trial_index": 198}, "uniqueid": "MTK1824:336KAV9KYRZ899KBWTER7B74F252YX", "dateTime": 1516478328452}, {"current_trial": 199, "trialdata": {"rt": -1, "trial_type": "single-stim", "stimulus": "<p id=\"stim\">9</p>", "internal_node_id": "0.0-153.0-1.0", "time_elapsed": 1187829, "key_press": -1, "trial_index": 199}, "uniqueid": "MTK1824:336KAV9KYRZ899KBWTER7B74F252YX", "dateTime": 1516478329452}, {"current_trial": 200, "trialdata": {"rt": -1, "trial_type": "single-stim", "stimulus": "<p id=\"stim\">8</p>", "internal_node_id": "0.0-153.0-2.0", "time_elapsed": 1188829, "key_press": -1, "trial_index": 200}, "uniqueid": "MTK1824:336KAV9KYRZ899KBWTER7B74F252YX", "dateTime": 1516478330452}, {"current_trial": 201, "trialdata": {"rt": -1, "trial_type": "single-stim", "stimulus": "<p id=\"stim\">7</p>", "internal_node_id": "0.0-153.0-3.0", "time_elapsed": 1189829, "key_press": -1, "trial_index": 201}, "uniqueid": "MTK1824:336KAV9KYRZ899KBWTER7B74F252YX", "dateTime": 1516478331452}, {"current_trial": 202, "trialdata": {"rt": -1, "trial_type": "single-stim", "stimulus": "<p id=\"stim\">6</p>", "internal_node_id": "0.0-153.0-4.0", "time_elapsed": 1190829, "key_press": -1, "trial_index": 202}, "uniqueid": "MTK1824:336KAV9KYRZ899KBWTER7B74F252YX", "dateTime": 1516478332452}, {"current_trial": 203, "trialdata": {"rt": -1, "trial_type": "single-stim", "stimulus": "<p id=\"stim\">5</p>", "internal_node_id": "0.0-153.0-5.0", "time_elapsed": 1191829, "key_press": -1, "trial_index": 203}, "uniqueid": "MTK1824:336KAV9KYRZ899KBWTER7B74F252YX", "dateTime": 1516478333452}, {"current_trial": 204, "trialdata": {"rt": -1, "trial_type": "single-stim", "stimulus": "<p id=\"stim\">4</p>", "internal_node_id": "0.0-153.0-6.0", "time_elapsed": 1192829, "key_press": -1, "trial_index": 204}, "uniqueid": "MTK1824:336KAV9KYRZ899KBWTER7B74F252YX", "dateTime": 1516478334452}, {"current_trial": 205, "trialdata": {"rt": -1, "trial_type": "single-stim", "stimulus": "<p id=\"stim\">3</p>", "internal_node_id": "0.0-153.0-7.0", "time_elapsed": 1193829, "key_press": -1, "trial_index": 205}, "uniqueid": "MTK1824:336KAV9KYRZ899KBWTER7B74F252YX", "dateTime": 1516478335452}, {"current_trial": 206, "trialdata": {"rt": -1, "trial_type": "single-stim", "stimulus": "<p id=\"stim\">2</p>", "internal_node_id": "0.0-153.0-8.0", "time_elapsed": 1194829, "key_press": -1, "trial_index": 206}, "uniqueid": "MTK1824:336KAV9KYRZ899KBWTER7B74F252YX", "dateTime": 1516478336452}, {"current_trial": 207, "trialdata": {"rt": -1, "trial_type": "single-stim", "stimulus": "<p id=\"stim\">1</p>", "internal_node_id": "0.0-153.0-9.0", "time_elapsed": 1195829, "key_press": -1, "trial_index": 207}, "uniqueid": "MTK1824:336KAV9KYRZ899KBWTER7B74F252YX", "dateTime": 1516478337452}, {"current_trial": 208, "trialdata": {"rt": -1, "trial_type": "single-stim", "stimulus": "<p id=\"stim\">+</p>", "internal_node_id": "0.0-154.0-0.0", "time_elapsed": 1197329, "key_press": -1, "type": "FIXATION", "trial_index": 208}, "uniqueid": "MTK1824:336KAV9KYRZ899KBWTER7B74F252YX", "dateTime": 1516478338952}, {"current_trial": 209, "trialdata": {"rt": -1000, "trial_type": "single-audio", "word": "cod", "stimulus": "/static/audio/wordpool/COD.wav", "conditions": [24, 1600, "a", 24000], "internal_node_id": "0.0-155.0", "trial": 5, "time_elapsed": 1200124, "serialpos": 0, "key_press": -1, "wordID": 339, "type": "PRES_AUD", "trial_index": 209}, "uniqueid": "MTK1824:336KAV9KYRZ899KBWTER7B74F252YX", "dateTime": 1516478341747}, {"current_trial": 210, "trialdata": {"rt": -1000, "trial_type": "single-audio", "word": "marsh", "stimulus": "/static/audio/wordpool/MARSH.wav", "conditions": [24, 1600, "a", 24000], "internal_node_id": "0.0-156.0", "trial": 5, "time_elapsed": 1202754, "serialpos": 1, "key_press": -1, "wordID": 873, "type": "PRES_AUD", "trial_index": 210}, "uniqueid": "MTK1824:336KAV9KYRZ899KBWTER7B74F252YX", "dateTime": 1516478344377}, {"current_trial": 211, "trialdata": {"rt": -1000, "trial_type": "single-audio", "word": "parsley", "stimulus": "/static/audio/wordpool/PARSLEY.wav", "conditions": [24, 1600, "a", 24000], "internal_node_id": "0.0-157.0", "trial": 5, "time_elapsed": 1205400, "serialpos": 2, "key_press": -1, "wordID": 1015, "type": "PRES_AUD", "trial_index": 211}, "uniqueid": "MTK1824:336KAV9KYRZ899KBWTER7B74F252YX", "dateTime": 1516478347023}, {"current_trial": 212, "trialdata": {"rt": -1000, "trial_type": "single-audio", "word": "cookbook", "stimulus": "/static/audio/wordpool/COOKBOOK.wav", "conditions": [24, 1600, "a", 24000], "internal_node_id": "0.0-158.0", "trial": 5, "time_elapsed": 1207978, "serialpos": 3, "key_press": -1, "wordID": 372, "type": "PRES_AUD", "trial_index": 212}, "uniqueid": "MTK1824:336KAV9KYRZ899KBWTER7B74F252YX", "dateTime": 1516478349601}, {"current_trial": 213, "trialdata": {"rt": -1000, "trial_type": "single-audio", "word": "world", "stimulus": "/static/audio/wordpool/WORLD.wav", "conditions": [24, 1600, "a", 24000], "internal_node_id": "0.0-159.0", "trial": 5, "time_elapsed": 1210447, "serialpos": 4, "key_press": -1, "wordID": 1621, "type": "PRES_AUD", "trial_index": 213}, "uniqueid": "MTK1824:336KAV9KYRZ899KBWTER7B74F252YX", "dateTime": 1516478352070}, {"current_trial": 214, "trialdata": {"rt": -1000, "trial_type": "single-audio", "word": "crutch", "stimulus": "/static/audio/wordpool/CRUTCH.wav", "conditions": [24, 1600, "a", 24000], "internal_node_id": "0.0-160.0", "trial": 5, "time_elapsed": 1212895, "serialpos": 5, "key_press": -1, "wordID": 416, "type": "PRES_AUD", "trial_index": 214}, "uniqueid": "MTK1824:336KAV9KYRZ899KBWTER7B74F252YX", "dateTime": 1516478354518}, {"current_trial": 215, "trialdata": {"rt": -1000, "trial_type": "single-audio", "word": "bike", "stimulus": "/static/audio/wordpool/BIKE.wav", "conditions": [24, 1600, "a", 24000], "internal_node_id": "0.0-161.0", "trial": 5, "time_elapsed": 1215620, "serialpos": 6, "key_press": -1, "wordID": 124, "type": "PRES_AUD", "trial_index": 215}, "uniqueid": "MTK1824:336KAV9KYRZ899KBWTER7B74F252YX", "dateTime": 1516478357243}, {"current_trial": 216, "trialdata": {"rt": -1000, "trial_type": "single-audio", "word": "toaster", "stimulus": "/static/audio/wordpool/TOASTER.wav", "conditions": [24, 1600, "a", 24000], "internal_node_id": "0.0-162.0", "trial": 5, "time_elapsed": 1218410, "serialpos": 7, "key_press": -1, "wordID": 1471, "type": "PRES_AUD", "trial_index": 216}, "uniqueid": "MTK1824:336KAV9KYRZ899KBWTER7B74F252YX", "dateTime": 1516478360033}, {"current_trial": 217, "trialdata": {"rt": -1000, "trial_type": "single-audio", "word": "stove", "stimulus": "/static/audio/wordpool/STOVE.wav", "conditions": [24, 1600, "a", 24000], "internal_node_id": "0.0-163.0", "trial": 5, "time_elapsed": 1220891, "serialpos": 8, "key_press": -1, "wordID": 1387, "type": "PRES_AUD", "trial_index": 217}, "uniqueid": "MTK1824:336KAV9KYRZ899KBWTER7B74F252YX", "dateTime": 1516478362514}, {"current_trial": 218, "trialdata": {"rt": -1000, "trial_type": "single-audio", "word": "cupboard", "stimulus": "/static/audio/wordpool/CUPBOARD.wav", "conditions": [24, 1600, "a", 24000], "internal_node_id": "0.0-164.0", "trial": 5, "time_elapsed": 1223487, "serialpos": 9, "key_press": -1, "wordID": 424, "type": "PRES_AUD", "trial_index": 218}, "uniqueid": "MTK1824:336KAV9KYRZ899KBWTER7B74F252YX", "dateTime": 1516478365110}, {"current_trial": 219, "trialdata": {"rt": -1000, "trial_type": "single-audio", "word": "scallop", "stimulus": "/static/audio/wordpool/SCALLOP.wav", "conditions": [24, 1600, "a", 24000], "internal_node_id": "0.0-165.0", "trial": 5, "time_elapsed": 1225889, "serialpos": 10, "key_press": -1, "wordID": 1241, "type": "PRES_AUD", "trial_index": 219}, "uniqueid": "MTK1824:336KAV9KYRZ899KBWTER7B74F252YX", "dateTime": 1516478367512}, {"current_trial": 220, "trialdata": {"rt": -1000, "trial_type": "single-audio", "word": "mustard", "stimulus": "/static/audio/wordpool/MUSTARD.wav", "conditions": [24, 1600, "a", 24000], "internal_node_id": "0.0-166.0", "trial": 5, "time_elapsed": 1228396, "serialpos": 11, "key_press": -1, "wordID": 934, "type": "PRES_AUD", "trial_index": 220}, "uniqueid": "MTK1824:336KAV9KYRZ899KBWTER7B74F252YX", "dateTime": 1516478370019}, {"current_trial": 221, "trialdata": {"rt": -1000, "trial_type": "single-audio", "word": "cabin", "stimulus": "/static/audio/wordpool/CABIN.wav", "conditions": [24, 1600, "a", 24000], "internal_node_id": "0.0-167.0", "trial": 5, "time_elapsed": 1231090, "serialpos": 12, "key_press": -1, "wordID": 210, "type": "PRES_AUD", "trial_index": 221}, "uniqueid": "MTK1824:336KAV9KYRZ899KBWTER7B74F252YX", "dateTime": 1516478372713}, {"current_trial": 222, "trialdata": {"rt": -1000, "trial_type": "single-audio", "word": "hound", "stimulus": "/static/audio/wordpool/HOUND.wav", "conditions": [24, 1600, "a", 24000], "internal_node_id": "0.0-168.0", "trial": 5, "time_elapsed": 1233729, "serialpos": 13, "key_press": -1, "wordID": 723, "type": "PRES_AUD", "trial_index": 222}, "uniqueid": "MTK1824:336KAV9KYRZ899KBWTER7B74F252YX", "dateTime": 1516478375352}, {"current_trial": 223, "trialdata": {"rt": -1000, "trial_type": "single-audio", "word": "shark", "stimulus": "/static/audio/wordpool/SHARK.wav", "conditions": [24, 1600, "a", 24000], "internal_node_id": "0.0-169.0", "trial": 5, "time_elapsed": 1236497, "serialpos": 14, "key_press": -1, "wordID": 1274, "type": "PRES_AUD", "trial_index": 223}, "uniqueid": "MTK1824:336KAV9KYRZ899KBWTER7B74F252YX", "dateTime": 1516478378120}, {"current_trial": 224, "trialdata": {"rt": -1000, "trial_type": "single-audio", "word": "jungle", "stimulus": "/static/audio/wordpool/JUNGLE.wav", "conditions": [24, 1600, "a", 24000], "internal_node_id": "0.0-170.0", "trial": 5, "time_elapsed": 1239044, "serialpos": 15, "key_press": -1, "wordID": 763, "type": "PRES_AUD", "trial_index": 224}, "uniqueid": "MTK1824:336KAV9KYRZ899KBWTER7B74F252YX", "dateTime": 1516478380667}, {"current_trial": 225, "trialdata": {"rt": -1000, "trial_type": "single-audio", "word": "chest", "stimulus": "/static/audio/wordpool/CHEST.wav", "conditions": [24, 1600, "a", 24000], "internal_node_id": "0.0-171.0", "trial": 5, "time_elapsed": 1241632, "serialpos": 16, "key_press": -1, "wordID": 294, "type": "PRES_AUD", "trial_index": 225}, "uniqueid": "MTK1824:336KAV9KYRZ899KBWTER7B74F252YX", "dateTime": 1516478383255}, {"current_trial": 226, "trialdata": {"rt": -1000, "trial_type": "single-audio", "word": "beef", "stimulus": "/static/audio/wordpool/BEEF.wav", "conditions": [24, 1600, "a", 24000], "internal_node_id": "0.0-172.0", "trial": 5, "time_elapsed": 1244401, "serialpos": 17, "key_press": -1, "wordID": 112, "type": "PRES_AUD", "trial_index": 226}, "uniqueid": "MTK1824:336KAV9KYRZ899KBWTER7B74F252YX", "dateTime": 1516478386024}, {"current_trial": 227, "trialdata": {"rt": -1000, "trial_type": "single-audio", "word": "cattle", "stimulus": "/static/audio/wordpool/CATTLE.wav", "conditions": [24, 1600, "a", 24000], "internal_node_id": "0.0-173.0", "trial": 5, "time_elapsed": 1246846, "serialpos": 18, "key_press": -1, "wordID": 260, "type": "PRES_AUD", "trial_index": 227}, "uniqueid": "MTK1824:336KAV9KYRZ899KBWTER7B74F252YX", "dateTime": 1516478388469}, {"current_trial": 228, "trialdata": {"rt": -1000, "trial_type": "single-audio", "word": "bullet", "stimulus": "/static/audio/wordpool/BULLET.wav", "conditions": [24, 1600, "a", 24000], "internal_node_id": "0.0-174.0", "trial": 5, "time_elapsed": 1249542, "serialpos": 19, "key_press": -1, "wordID": 193, "type": "PRES_AUD", "trial_index": 228}, "uniqueid": "MTK1824:336KAV9KYRZ899KBWTER7B74F252YX", "dateTime": 1516478391165}, {"current_trial": 229, "trialdata": {"rt": -1000, "trial_type": "single-audio", "word": "apron", "stimulus": "/static/audio/wordpool/APRON.wav", "conditions": [24, 1600, "a", 24000], "internal_node_id": "0.0-175.0", "trial": 5, "time_elapsed": 1252201, "serialpos": 20, "key_press": -1, "wordID": 34, "type": "PRES_AUD", "trial_index": 229}, "uniqueid": "MTK1824:336KAV9KYRZ899KBWTER7B74F252YX", "dateTime": 1516478393824}, {"current_trial": 230, "trialdata": {"rt": -1000, "trial_type": "single-audio", "word": "stream", "stimulus": "/static/audio/wordpool/STREAM.wav", "conditions": [24, 1600, "a", 24000], "internal_node_id": "0.0-176.0", "trial": 5, "time_elapsed": 1254867, "serialpos": 21, "key_press": -1, "wordID": 1391, "type": "PRES_AUD", "trial_index": 230}, "uniqueid": "MTK1824:336KAV9KYRZ899KBWTER7B74F252YX", "dateTime": 1516478396490}, {"current_trial": 231, "trialdata": {"rt": -1000, "trial_type": "single-audio", "word": "cellar", "stimulus": "/static/audio/wordpool/CELLAR.wav", "conditions": [24, 1600, "a", 24000], "internal_node_id": "0.0-177.0", "trial": 5, "time_elapsed": 1257513, "serialpos": 22, "key_press": -1, "wordID": 266, "type": "PRES_AUD", "trial_index": 231}, "uniqueid": "MTK1824:336KAV9KYRZ899KBWTER7B74F252YX", "dateTime": 1516478399136}, {"current_trial": 232, "trialdata": {"rt": -1000, "trial_type": "single-audio", "word": "stomach", "stimulus": "/static/audio/wordpool/STOMACH.wav", "conditions": [24, 1600, "a", 24000], "internal_node_id": "0.0-178.0", "trial": 5, "time_elapsed": 1260297, "serialpos": 23, "key_press": -1, "wordID": 1383, "type": "PRES_AUD", "trial_index": 232}, "uniqueid": "MTK1824:336KAV9KYRZ899KBWTER7B74F252YX", "dateTime": 1516478401920}, {"current_trial": 233, "trialdata": {"rt": -1, "trial_type": "single-stim", "stimulus": "", "internal_node_id": "0.0-179.0-0.0", "time_elapsed": 1261588, "key_press": -1, "type": "PRE_RECALL_DELAY", "trial_index": 233}, "uniqueid": "MTK1824:336KAV9KYRZ899KBWTER7B74F252YX", "dateTime": 1516478403211}, {"current_trial": 234, "trialdata": {"rt": -1000, "trial_type": "single-audio", "stimulus": "/static/audio/400Hz.wav", "internal_node_id": "0.0-180.0", "time_elapsed": 1262088, "key_press": -1, "type": "PRE_RECALL_ALERT", "trial_index": 234}, "uniqueid": "MTK1824:336KAV9KYRZ899KBWTER7B74F252YX", "dateTime": 1516478403711}, {"current_trial": 235, "trialdata": {"rt": [3468, 5708, 7532, 10315, 13754, 15482, 16586, 18442, 21115, 28011, 29563, 33162], "recwords": ["stomach", "cellar", "stream", "aprom", "bullet", "cattle", "beef", "cod", "marsh", "toaster", "stove", "cupboard"], "key_times": [1980, 2203, 2395, 2603, 2747, 3083, 3164, 3468, 3724, 3948, 4236, 4396, 4940, 5196, 5372, 5484, 5708, 6284, 6460, 6700, 6796, 7005, 7228, 7532, 9019, 9259, 9403, 9835, 10042, 10315, 12043, 12202, 12794, 12986, 13082, 13547, 13754, 14074, 14218, 14490, 14682, 14890, 15370, 15482, 15754, 15978, 16186, 16330, 16586, 17786, 17962, 18090, 18442, 19578, 19642, 19754, 20058, 20218, 21115, 25532, 25707, 26267, 26619, 26731, 26987, 27163, 28011, 28266, 28411, 28602, 29163, 29386, 29563, 30347, 30507, 30714, 31946, 32138, 32490, 32762, 32986, 33162], "trial_type": "free-recall", "conditions": [24, 1600, "a", 24000], "internal_node_id": "0.0-181.0-0.0", "key_presses": [83, 84, 79, 77, 65, 67, 72, 13, 67, 69, 76, 65, 8, 76, 65, 82, 13, 83, 84, 82, 69, 65, 77, 13, 65, 80, 82, 79, 77, 13, 66, 85, 76, 76, 69, 84, 13, 67, 65, 84, 84, 76, 69, 13, 66, 69, 69, 70, 13, 67, 79, 68, 13, 77, 65, 82, 83, 72, 13, 84, 79, 65, 83, 84, 69, 82, 13, 83, 84, 79, 86, 69, 13, 67, 85, 80, 66, 79, 65, 82, 68, 13], "trial": 5, "time_elapsed": 1322088, "type": "FREE_RECALL", "trial_index": 235}, "uniqueid": "MTK1824:336KAV9KYRZ899KBWTER7B74F252YX", "dateTime": 1516478463716}, {"current_trial": 236, "trialdata": {"rt": 5511, "trial_type": "text", "internal_node_id": "0.0-182.0", "time_elapsed": 1329604, "key_press": 13, "type": "INSTRUCTIONS", "trial_index": 236}, "uniqueid": "MTK1824:336KAV9KYRZ899KBWTER7B74F252YX", "dateTime": 1516478471227}, {"current_trial": 237, "trialdata": {"rt": [5791, 7391], "trial_type": "math-distractor", "key_times": [5455, 5599, 5791, 7071, 7231, 7391], "responses": ["22", "11"], "num2": [7, 1, 8], "num3": [8, 8, 7], "conditions": [12, 800, "a", 12000], "internal_node_id": "0.0-183.0", "key_presses": [98, 98, 13, 97, 97, 13], "trial": 6, "time_elapsed": 1343605, "type": "DISTRACTOR", "trial_index": 237, "num1": [7, 2, 8]}, "uniqueid": "MTK1824:336KAV9KYRZ899KBWTER7B74F252YX", "dateTime": 1516478485228}, {"current_trial": 238, "trialdata": {"rt": -1, "trial_type": "single-stim", "stimulus": "<p id=\"stim\">10</p>", "internal_node_id": "0.0-184.0-0.0", "time_elapsed": 1346605, "key_press": -1, "trial_index": 238}, "uniqueid": "MTK1824:336KAV9KYRZ899KBWTER7B74F252YX", "dateTime": 1516478488228}, {"current_trial": 239, "trialdata": {"rt": -1, "trial_type": "single-stim", "stimulus": "<p id=\"stim\">9</p>", "internal_node_id": "0.0-184.0-1.0", "time_elapsed": 1347605, "key_press": -1, "trial_index": 239}, "uniqueid": "MTK1824:336KAV9KYRZ899KBWTER7B74F252YX", "dateTime": 1516478489228}, {"current_trial": 240, "trialdata": {"rt": -1, "trial_type": "single-stim", "stimulus": "<p id=\"stim\">8</p>", "internal_node_id": "0.0-184.0-2.0", "time_elapsed": 1348605, "key_press": -1, "trial_index": 240}, "uniqueid": "MTK1824:336KAV9KYRZ899KBWTER7B74F252YX", "dateTime": 1516478490228}, {"current_trial": 241, "trialdata": {"rt": -1, "trial_type": "single-stim", "stimulus": "<p id=\"stim\">7</p>", "internal_node_id": "0.0-184.0-3.0", "time_elapsed": 1349605, "key_press": -1, "trial_index": 241}, "uniqueid": "MTK1824:336KAV9KYRZ899KBWTER7B74F252YX", "dateTime": 1516478491228}, {"current_trial": 242, "trialdata": {"rt": -1, "trial_type": "single-stim", "stimulus": "<p id=\"stim\">6</p>", "internal_node_id": "0.0-184.0-4.0", "time_elapsed": 1350605, "key_press": -1, "trial_index": 242}, "uniqueid": "MTK1824:336KAV9KYRZ899KBWTER7B74F252YX", "dateTime": 1516478492228}, {"current_trial": 243, "trialdata": {"rt": -1, "trial_type": "single-stim", "stimulus": "<p id=\"stim\">5</p>", "internal_node_id": "0.0-184.0-5.0", "time_elapsed": 1351605, "key_press": -1, "trial_index": 243}, "uniqueid": "MTK1824:336KAV9KYRZ899KBWTER7B74F252YX", "dateTime": 1516478493228}, {"current_trial": 244, "trialdata": {"rt": -1, "trial_type": "single-stim", "stimulus": "<p 