{"assignmentId": "3L4PIM1GQUNPDT1WBJTS8JFCRULYR8", "workerId": "MTK1826", "questiondata": {"avail_screen_height": 728, "color_depth": 24, "screen_width": 1366, "pixel_depth": 24, "avail_screen_width": 1366, "screen_height": 768}, "bonus": 0, "hitId": "3CVDZS288H7QT29FBJ0L8FI2XRUMF6", "counterbalance": 1405, "useragent": "Mozilla/5.0 (Windows NT 10.0; Win64; x64; rv:57.0) Gecko/20100101 Firefox/57.0", "eventdata": [{"eventtype": "initialized", "interval": 0, "value": null, "timestamp": 1516477541758}, {"eventtype": "window_resize", "interval": 0, "value": [1366, 767], "timestamp": 1516477541758}, {"eventtype": "window_resize", "interval": 9698, "value": [1366, 667], "timestamp": 1516477551456}, {"eventtype": "focus", "interval": 32712, "value": "off", "timestamp": 1516477584168}, {"eventtype": "focus", "interval": 9077, "value": "on", "timestamp": 1516477593245}, {"eventtype": "focus", "interval": 11898, "value": "off", "timestamp": 1516477605143}, {"eventtype": "focus", "interval": 2672, "value": "on", "timestamp": 1516477607815}, {"eventtype": "focus", "interval": 15823, "value": "off", "timestamp": 1516477623638}, {"eventtype": "focus", "interval": 1284, "value": "on", "timestamp": 1516477624922}, {"eventtype": "focus", "interval": 55332, "value": "off", "timestamp": 1516477680254}, {"eventtype": "focus", "interval": 15102, "value": "on", "timestamp": 1516477695356}, {"eventtype": "focus", "interval": 1786832, "value": "off", "timestamp": 1516479482188}, {"eventtype": "focus", "interval": 6709, "value": "on", "timestamp": 1516479488897}], "data": [{"current_trial": 0, "trialdata": {"rt": 2292, "trial_type": "text", "internal_node_id": "0.0-0.0", "time_elapsed": 2297, "key_press": 32, "type": "INSTRUCTIONS", "trial_index": 0}, "uniqueid": "MTK1826:3L4PIM1GQUNPDT1WBJTS8JFCRULYR8", "dateTime": 1516477559886}, {"current_trial": 1, "trialdata": {"rt": 38854, "trial_type": "text", "internal_node_id": "0.0-1.0", "time_elapsed": 41157, "key_press": 76, "type": "INSTRUCTIONS", "trial_index": 1}, "uniqueid": "MTK1826:3L4PIM1GQUNPDT1WBJTS8JFCRULYR8", "dateTime": 1516477598744}, {"current_trial": 2, "trialdata": {"rt": [28426], "trial_type": "audio-test", "responses": ["ocean"], "internal_node_id": "0.0-2.0", "time_elapsed": 69697, "type": "AUDIO_TEST", "trial_index": 2}, "uniqueid": "MTK1826:3L4PIM1GQUNPDT1WBJTS8JFCRULYR8", "dateTime": 1516477627285}, {"current_trial": 3, "trialdata": {"rt": [9657], "trial_type": "audio-test", "responses": ["crystal"], "internal_node_id": "0.0-3.0", "time_elapsed": 79376, "type": "AUDIO_TEST", "trial_index": 3}, "uniqueid": "MTK1826:3L4PIM1GQUNPDT1WBJTS8JFCRULYR8", "dateTime": 1516477636963}, {"current_trial": 4, "trialdata": {"rt": [6965], "trial_type": "audio-test", "responses": ["spice"], "internal_node_id": "0.0-4.0", "time_elapsed": 86367, "type": "AUDIO_TEST", "trial_index": 4}, "uniqueid": "MTK1826:3L4PIM1GQUNPDT1WBJTS8JFCRULYR8", "dateTime": 1516477643954}, {"current_trial": 5, "trialdata": {"rt": 28039, "trial_type": "survey-text", "responses": "{\"Q0\":\"4 am\",\"Q1\":\"11 am\",\"Q2\":\"4\"}", "internal_node_id": "0.0-5.0", "time_elapsed": 115162, "type": "SLEEP_SURVEY", "trial_index": 5}, "uniqueid": "MTK1826:3L4PIM1GQUNPDT1WBJTS8JFCRULYR8", "dateTime": 1516477672750}, {"current_trial": 6, "trialdata": {"rt": 6491, "trial_type": "text", "internal_node_id": "0.0-6.0", "time_elapsed": 122657, "key_press": 9, "type": "INSTRUCTIONS", "trial_index": 6}, "uniqueid": "MTK1826:3L4PIM1GQUNPDT1WBJTS8JFCRULYR8", "dateTime": 1516477680245}, {"current_trial": 7, "trialdata": {"rt": 15789, "trial_type": "text", "internal_node_id": "0.0-7.0", "time_elapsed": 138949, "key_press": 32, "type": "INSTRUCTIONS", "trial_index": 7}, "uniqueid": "MTK1826:3L4PIM1GQUNPDT1WBJTS8JFCRULYR8", "dateTime": 1516477696536}, {"current_trial": 8, "trialdata": {"rt": 11375, "trial_type": "text", "internal_node_id": "0.0-8.0", "time_elapsed": 150825, "key_press": 32, "type": "INSTRUCTIONS", "trial_index": 8}, "uniqueid": "MTK1826:3L4PIM1GQUNPDT1WBJTS8JFCRULYR8", "dateTime": 1516477708413}, {"current_trial": 9, "trialdata": {"rt": [4981, 7665, 10630, 13810, 16463], "trial_type": "math-distractor", "key_times": [3636, 4510, 4981, 7317, 7493, 7665, 9550, 10373, 10630, 12566, 13577, 13810, 15936, 16119, 16463], "responses": ["17", "11", "17", "17", "20"], "num2": [2, 3, 1, 4, 7, 3], "num3": [8, 4, 7, 6, 7, 7], "conditions": [18, 1200, "a", 18000], "internal_node_id": "0.0-9.0", "key_presses": [49, 55, 13, 49, 49, 13, 49, 55, 13, 49, 55, 13, 50, 48, 13], "trial": 0, "time_elapsed": 169836, "type": "DISTRACTOR", "trial_index": 9, "num1": [7, 3, 9, 7, 6, 5]}, "uniqueid": "MTK1826:3L4PIM1GQUNPDT1WBJTS8JFCRULYR8", "dateTime": 1516477727423}, {"current_trial": 10, "trialdata": {"rt": -1, "trial_type": "single-stim", "stimulus": "<p id=\"stim\">10</p>", "internal_node_id": "0.0-10.0-0.0", "time_elapsed": 172840, "key_press": -1, "trial_index": 10}, "uniqueid": "MTK1826:3L4PIM1GQUNPDT1WBJTS8JFCRULYR8", "dateTime": 1516477730428}, {"current_trial": 11, "trialdata": {"rt": -1, "trial_type": "single-stim", "stimulus": "<p id=\"stim\">9</p>", "internal_node_id": "0.0-10.0-1.0", "time_elapsed": 173842, "key_press": -1, "trial_index": 11}, "uniqueid": "MTK1826:3L4PIM1GQUNPDT1WBJTS8JFCRULYR8", "dateTime": 1516477731430}, {"current_trial": 12, "trialdata": {"rt": -1, "trial_type": "single-stim", "stimulus": "<p id=\"stim\">8</p>", "internal_node_id": "0.0-10.0-2.0", "time_elapsed": 174844, "key_press": -1, "trial_index": 12}, "uniqueid": "MTK1826:3L4PIM1GQUNPDT1WBJTS8JFCRULYR8", "dateTime": 1516477732431}, {"current_trial": 13, "trialdata": {"rt": -1, "trial_type": "single-stim", "stimulus": "<p id=\"stim\">7</p>", "internal_node_id": "0.0-10.0-3.0", "time_elapsed": 175846, "key_press": -1, "trial_index": 13}, "uniqueid": "MTK1826:3L4PIM1GQUNPDT1WBJTS8JFCRULYR8", "dateTime": 1516477733434}, {"current_trial": 14, "trialdata": {"rt": -1, "trial_type": "single-stim", "stimulus": "<p id=\"stim\">6</p>", "internal_node_id": "0.0-10.0-4.0", "time_elapsed": 176849, "key_press": -1, "trial_index": 14}, "uniqueid": "MTK1826:3L4PIM1GQUNPDT1WBJTS8JFCRULYR8", "dateTime": 1516477734436}, {"current_trial": 15, "trialdata": {"rt": -1, "trial_type": "single-stim", "stimulus": "<p id=\"stim\">5</p>", "internal_node_id": "0.0-10.0-5.0", "time_elapsed": 177851, "key_press": -1, "trial_index": 15}, "uniqueid": "MTK1826:3L4PIM1GQUNPDT1WBJTS8JFCRULYR8", "dateTime": 1516477735439}, {"current_trial": 16, "trialdata": {"rt": -1, "trial_type": "single-stim", "stimulus": "<p id=\"stim\">4</p>", "internal_node_id": "0.0-10.0-6.0", "time_elapsed": 178855, "key_press": -1, "trial_index": 16}, "uniqueid": "MTK1826:3L4PIM1GQUNPDT1WBJTS8JFCRULYR8", "dateTime": 1516477736442}, {"current_trial": 17, "trialdata": {"rt": -1, "trial_type": "single-stim", "stimulus": "<p id=\"stim\">3</p>", "internal_node_id": "0.0-10.0-7.0", "time_elapsed": 179857, "key_press": -1, "trial_index": 17}, "uniqueid": "MTK1826:3L4PIM1GQUNPDT1WBJTS8JFCRULYR8", "dateTime": 1516477737444}, {"current_trial": 18, "trialdata": {"rt": -1, "trial_type": "single-stim", "stimulus": "<p id=\"stim\">2</p>", "internal_node_id": "0.0-10.0-8.0", "time_elapsed": 180858, "key_press": -1, "trial_index": 18}, "uniqueid": "MTK1826:3L4PIM1GQUNPDT1WBJTS8JFCRULYR8", "dateTime": 1516477738446}, {"current_trial": 19, "trialdata": {"rt": -1, "trial_type": "single-stim", "stimulus": "<p id=\"stim\">1</p>", "internal_node_id": "0.0-10.0-9.0", "time_elapsed": 181860, "key_press": -1, "trial_index": 19}, "uniqueid": "MTK1826:3L4PIM1GQUNPDT1WBJTS8JFCRULYR8", "dateTime": 1516477739447}, {"current_trial": 20, "trialdata": {"rt": -1, "trial_type": "single-stim", "stimulus": "<p id=\"stim\">+</p>", "internal_node_id": "0.0-11.0-0.0", "time_elapsed": 183362, "key_press": -1, "type": "FIXATION", "trial_index": 20}, "uniqueid": "MTK1826:3L4PIM1GQUNPDT1WBJTS8JFCRULYR8", "dateTime": 1516477740950}, {"current_trial": 21, "trialdata": {"rt": -1000, "trial_type": "single-audio", "word": "human", "stimulus": "/static/audio/wordpool/HUMAN.wav", "conditions": [18, 1200, "a", 18000], "internal_node_id": "0.0-12.0", "trial": 0, "time_elapsed": 185367, "serialpos": 0, "key_press": -1, "wordID": 725, "type": "PRES_AUD", "trial_index": 21}, "uniqueid": "MTK1826:3L4PIM1GQUNPDT1WBJTS8JFCRULYR8", "dateTime": 1516477742954}, {"current_trial": 22, "trialdata": {"rt": -1000, "trial_type": "single-audio", "word": "stone", "stimulus": "/static/audio/wordpool/STONE.wav", "conditions": [18, 1200, "a", 18000], "internal_node_id": "0.0-13.0", "trial": 0, "time_elapsed": 187676, "serialpos": 1, "key_press": -1, "wordID": 1384, "type": "PRES_AUD", "trial_index": 22}, "uniqueid": "MTK1826:3L4PIM1GQUNPDT1WBJTS8JFCRULYR8", "dateTime": 1516477745264}, {"current_trial": 23, "trialdata": {"rt": -1000, "trial_type": "single-audio", "word": "scarecrow", "stimulus": "/static/audio/wordpool/SCARECROW.wav", "conditions": [18, 1200, "a", 18000], "internal_node_id": "0.0-14.0", "trial": 0, "time_elapsed": 190020, "serialpos": 2, "key_press": -1, "wordID": 1244, "type": "PRES_AUD", "trial_index": 23}, "uniqueid": "MTK1826:3L4PIM1GQUNPDT1WBJTS8JFCRULYR8", "dateTime": 1516477747608}, {"current_trial": 24, "trialdata": {"rt": -1000, "trial_type": "single-audio", "word": "worker", "stimulus": "/static/audio/wordpool/WORKER.wav", "conditions": [18, 1200, "a", 18000], "internal_node_id": "0.0-15.0", "trial": 0, "time_elapsed": 192360, "serialpos": 3, "key_press": -1, "wordID": 1620, "type": "PRES_AUD", "trial_index": 24}, "uniqueid": "MTK1826:3L4PIM1GQUNPDT1WBJTS8JFCRULYR8", "dateTime": 1516477749947}, {"current_trial": 25, "trialdata": {"rt": -1000, "trial_type": "single-audio", "word": "chauffeur", "stimulus": "/static/audio/wordpool/CHAUFFEUR.wav", "conditions": [18, 1200, "a", 18000], "internal_node_id": "0.0-16.0", "trial": 0, "time_elapsed": 194706, "serialpos": 4, "key_press": -1, "wordID": 282, "type": "PRES_AUD", "trial_index": 25}, "uniqueid": "MTK1826:3L4PIM1GQUNPDT1WBJTS8JFCRULYR8", "dateTime": 1516477752293}, {"current_trial": 26, "trialdata": {"rt": -1000, "trial_type": "single-audio", "word": "dragon", "stimulus": "/static/audio/wordpool/DRAGON.wav", "conditions": [18, 1200, "a", 18000], "internal_node_id": "0.0-17.0", "trial": 0, "time_elapsed": 197018, "serialpos": 5, "key_press": -1, "wordID": 491, "type": "PRES_AUD", "trial_index": 26}, "uniqueid": "MTK1826:3L4PIM1GQUNPDT1WBJTS8JFCRULYR8", "dateTime": 1516477754605}, {"current_trial": 27, "trialdata": {"rt": -1000, "trial_type": "single-audio", "word": "neutron", "stimulus": "/static/audio/wordpool/NEUTRON.wav", "conditions": [18, 1200, "a", 18000], "internal_node_id": "0.0-18.0", "trial": 0, "time_elapsed": 199366, "serialpos": 6, "key_press": -1, "wordID": 946, "type": "PRES_AUD", "trial_index": 27}, "uniqueid": "MTK1826:3L4PIM1GQUNPDT1WBJTS8JFCRULYR8", "dateTime": 1516477756953}, {"current_trial": 28, "trialdata": {"rt": -1000, "trial_type": "single-audio", "word": "rebel", "stimulus": "/static/audio/wordpool/REBEL.wav", "conditions": [18, 1200, "a", 18000], "internal_node_id": "0.0-19.0", "trial": 0, "time_elapsed": 201593, "serialpos": 7, "key_press": -1, "wordID": 1171, "type": "PRES_AUD", "trial_index": 28}, "uniqueid": "MTK1826:3L4PIM1GQUNPDT1WBJTS8JFCRULYR8", "dateTime": 1516477759181}, {"current_trial": 29, "trialdata": {"rt": -1000, "trial_type": "single-audio", "word": "quarter", "stimulus": "/static/audio/wordpool/QUARTER.wav", "conditions": [18, 1200, "a", 18000], "internal_node_id": "0.0-20.0", "trial": 0, "time_elapsed": 203862, "serialpos": 8, "key_press": -1, "wordID": 1147, "type": "PRES_AUD", "trial_index": 29}, "uniqueid": "MTK1826:3L4PIM1GQUNPDT1WBJTS8JFCRULYR8", "dateTime": 1516477761449}, {"current_trial": 30, "trialdata": {"rt": -1000, "trial_type": "single-audio", "word": "honey", "stimulus": "/static/audio/wordpool/HONEY.wav", "conditions": [18, 1200, "a", 18000], "internal_node_id": "0.0-21.0", "trial": 0, "time_elapsed": 205946, "serialpos": 9, "key_press": -1, "wordID": 712, "type": "PRES_AUD", "trial_index": 30}, "uniqueid": "MTK1826:3L4PIM1GQUNPDT1WBJTS8JFCRULYR8", "dateTime": 1516477763533}, {"current_trial": 31, "trialdata": {"rt": -1000, "trial_type": "single-audio", "word": "market", "stimulus": "/static/audio/wordpool/MARKET.wav", "conditions": [18, 1200, "a", 18000], "internal_node_id": "0.0-22.0", "trial": 0, "time_elapsed": 208299, "serialpos": 10, "key_press": -1, "wordID": 870, "type": "PRES_AUD", "trial_index": 31}, "uniqueid": "MTK1826:3L4PIM1GQUNPDT1WBJTS8JFCRULYR8", "dateTime": 1516477765887}, {"current_trial": 32, "trialdata": {"rt": -1000, "trial_type": "single-audio", "word": "nomad", "stimulus": "/static/audio/wordpool/NOMAD.wav", "conditions": [18, 1200, "a", 18000], "internal_node_id": "0.0-23.0", "trial": 0, "time_elapsed": 210619, "serialpos": 11, "key_press": -1, "wordID": 954, "type": "PRES_AUD", "trial_index": 32}, "uniqueid": "MTK1826:3L4PIM1GQUNPDT1WBJTS8JFCRULYR8", "dateTime": 1516477768206}, {"current_trial": 33, "trialdata": {"rt": -1000, "trial_type": "single-audio", "word": "stallion", "stimulus": "/static/audio/wordpool/STALLION.wav", "conditions": [18, 1200, "a", 18000], "internal_node_id": "0.0-24.0", "trial": 0, "time_elapsed": 212705, "serialpos": 12, "key_press": -1, "wordID": 1368, "type": "PRES_AUD", "trial_index": 33}, "uniqueid": "MTK1826:3L4PIM1GQUNPDT1WBJTS8JFCRULYR8", "dateTime": 1516477770292}, {"current_trial": 34, "trialdata": {"rt": -1000, "trial_type": "single-audio", "word": "garden", "stimulus": "/static/audio/wordpool/GARDEN.wav", "conditions": [18, 1200, "a", 18000], "internal_node_id": "0.0-25.0", "trial": 0, "time_elapsed": 215064, "serialpos": 13, "key_press": -1, "wordID": 622, "type": "PRES_AUD", "trial_index": 34}, "uniqueid": "MTK1826:3L4PIM1GQUNPDT1WBJTS8JFCRULYR8", "dateTime": 1516477772651}, {"current_trial": 35, "trialdata": {"rt": -1000, "trial_type": "single-audio", "word": "drill", "stimulus": "/static/audio/wordpool/DRILL.wav", "conditions": [18, 1200, "a", 18000], "internal_node_id": "0.0-26.0", "trial": 0, "time_elapsed": 217414, "serialpos": 14, "key_press": -1, "wordID": 496, "type": "PRES_AUD", "trial_index": 35}, "uniqueid": "MTK1826:3L4PIM1GQUNPDT1WBJTS8JFCRULYR8", "dateTime": 1516477775001}, {"current_trial": 36, "trialdata": {"rt": -1000, "trial_type": "single-audio", "word": "ground", "stimulus": "/static/audio/wordpool/GROUND.wav", "conditions": [18, 1200, "a", 18000], "internal_node_id": "0.0-27.0", "trial": 0, "time_elapsed": 219806, "serialpos": 15, "key_press": -1, "wordID": 665, "type": "PRES_AUD", "trial_index": 36}, "uniqueid": "MTK1826:3L4PIM1GQUNPDT1WBJTS8JFCRULYR8", "dateTime": 1516477777393}, {"current_trial": 37, "trialdata": {"rt": -1000, "trial_type": "single-audio", "word": "penguin", "stimulus": "/static/audio/wordpool/PENGUIN.wav", "conditions": [18, 1200, "a", 18000], "internal_node_id": "0.0-28.0", "trial": 0, "time_elapsed": 222204, "serialpos": 16, "key_press": -1, "wordID": 1043, "type": "PRES_AUD", "trial_index": 37}, "uniqueid": "MTK1826:3L4PIM1GQUNPDT1WBJTS8JFCRULYR8", "dateTime": 1516477779791}, {"current_trial": 38, "trialdata": {"rt": -1000, "trial_type": "single-audio", "word": "tunnel", "stimulus": "/static/audio/wordpool/TUNNEL.wav", "conditions": [18, 1200, "a", 18000], "internal_node_id": "0.0-29.0", "trial": 0, "time_elapsed": 224282, "serialpos": 17, "key_press": -1, "wordID": 1518, "type": "PRES_AUD", "trial_index": 38}, "uniqueid": "MTK1826:3L4PIM1GQUNPDT1WBJTS8JFCRULYR8", "dateTime": 1516477781870}, {"current_trial": 39, "trialdata": {"rt": -1, "trial_type": "single-stim", "stimulus": "", "internal_node_id": "0.0-30.0-0.0", "time_elapsed": 225664, "key_press": -1, "type": "PRE_RECALL_DELAY", "trial_index": 39}, "uniqueid": "MTK1826:3L4PIM1GQUNPDT1WBJTS8JFCRULYR8", "dateTime": 1516477783251}, {"current_trial": 40, "trialdata": {"rt": -1000, "trial_type": "single-audio", "stimulus": "/static/audio/400Hz.wav", "internal_node_id": "0.0-31.0", "time_elapsed": 226165, "key_press": -1, "type": "PRE_RECALL_ALERT", "trial_index": 40}, "uniqueid": "MTK1826:3L4PIM1GQUNPDT1WBJTS8JFCRULYR8", "dateTime": 1516477783752}, {"current_trial": 41, "trialdata": {"rt": [3542, 6406, 10914, 13826, 18980, 21960, 23306, 32950], "recwords": ["human", "dragon", "cauffer", "tunnle", "penguin", "ground", "drill", "tunnel"], "key_times": [2319, 2512, 2740, 2878, 2984, 3542, 4158, 4403, 4613, 4849, 4961, 5491, 5747, 6009, 6406, 6705, 6929, 7184, 7481, 8033, 8244, 8417, 8502, 8681, 8883, 9683, 9887, 9977, 10204, 10388, 10914, 12367, 12486, 12703, 12841, 13134, 13199, 13826, 16973, 17151, 17350, 17530, 17731, 17947, 18206, 18980, 20562, 20774, 20878, 21128, 21348, 21450, 21960, 22266, 22445, 22553, 22789, 22926, 23306, 31486, 31595, 31819, 31957, 32179, 32257, 32950], "trial_type": "free-recall", "conditions": [18, 1200, "a", 18000], "internal_node_id": "0.0-32.0-0.0", "key_presses": [72, 85, 77, 65, 78, 13, 68, 82, 65, 71, 80, 8, 79, 78, 13, 67, 65, 85, 71, 70, 8, 8, 70, 69, 82, 8, 8, 70, 69, 82, 13, 84, 85, 78, 78, 76, 69, 13, 80, 69, 78, 71, 85, 73, 78, 13, 71, 82, 79, 85, 78, 68, 13, 68, 82, 73, 76, 76, 13, 84, 85, 78, 78, 69, 76, 13], "trial": 0, "time_elapsed": 286173, "type": "FREE_RECALL", "trial_index": 41}, "uniqueid": "MTK1826:3L4PIM1GQUNPDT1WBJTS8JFCRULYR8", "dateTime": 1516477843769}, {"current_trial": 42, "trialdata": {"rt": 2028, "trial_type": "text", "internal_node_id": "0.0-33.0", "time_elapsed": 290212, "key_press": 32, "type": "INSTRUCTIONS", "trial_index": 42}, "uniqueid": "MTK1826:3L4PIM1GQUNPDT1WBJTS8JFCRULYR8", "dateTime": 1516477847799}, {"current_trial": 43, "trialdata": {"rt": [3276, 6405, 9240, 12289, 16220], "trial_type": "math-distractor", "key_times": [2900, 3276, 5344, 5622, 6071, 6190, 6405, 8796, 8995, 9240, 11331, 11786, 11987, 12289, 15385, 15701, 16220], "responses": ["8", "16", "12", "9", "15"], "num2": [1, 5, 2, 6, 4, 9], "num3": [6, 9, 3, 1, 3, 5], "conditions": [18, 1200, "a", 18000], "internal_node_id": "0.0-34.0", "key_presses": [56, 13, 49, 53, 8, 54, 13, 49, 50, 13, 56, 8, 57, 13, 49, 53, 13], "trial": 1, "time_elapsed": 310219, "type": "DISTRACTOR", "trial_index": 43, "num1": [1, 2, 7, 2, 8, 2]}, "uniqueid": "MTK1826:3L4PIM1GQUNPDT1WBJTS8JFCRULYR8", "dateTime": 1516477867807}, {"current_trial": 44, "trialdata": {"rt": -1, "trial_type": "single-stim", "stimulus": "<p id=\"stim\">10</p>", "internal_node_id": "0.0-35.0-0.0", "time_elapsed": 313222, "key_press": -1, "trial_index": 44}, "uniqueid": "MTK1826:3L4PIM1GQUNPDT1WBJTS8JFCRULYR8", "dateTime": 1516477870809}, {"current_trial": 45, "trialdata": {"rt": -1, "trial_type": "single-stim", "stimulus": "<p id=\"stim\">9</p>", "internal_node_id": "0.0-35.0-1.0", "time_elapsed": 314223, "key_press": -1, "trial_index": 45}, "uniqueid": "MTK1826:3L4PIM1GQUNPDT1WBJTS8JFCRULYR8", "dateTime": 1516477871810}, {"current_trial": 46, "trialdata": {"rt": -1, "trial_type": "single-stim", "stimulus": "<p id=\"stim\">8</p>", "internal_node_id": "0.0-35.0-2.0", "time_elapsed": 315224, "key_press": -1, "trial_index": 46}, "uniqueid": "MTK1826:3L4PIM1GQUNPDT1WBJTS8JFCRULYR8", "dateTime": 1516477872812}, {"current_trial": 47, "trialdata": {"rt": -1, "trial_type": "single-stim", "stimulus": "<p id=\"stim\">7</p>", "internal_node_id": "0.0-35.0-3.0", "time_elapsed": 316226, "key_press": -1, "trial_index": 47}, "uniqueid": "MTK1826:3L4PIM1GQUNPDT1WBJTS8JFCRULYR8", "dateTime": 1516477873813}, {"current_trial": 48, "trialdata": {"rt": -1, "trial_type": "single-stim", "stimulus": "<p id=\"stim\">6</p>", "internal_node_id": "0.0-35.0-4.0", "time_elapsed": 317227, "key_press": -1, "trial_index": 48}, "uniqueid": "MTK1826:3L4PIM1GQUNPDT1WBJTS8JFCRULYR8", "dateTime": 1516477874815}, {"current_trial": 49, "trialdata": {"rt": -1, "trial_type": "single-stim", "stimulus": "<p id=\"stim\">5</p>", "internal_node_id": "0.0-35.0-5.0", "time_elapsed": 318229, "key_press": -1, "trial_index": 49}, "uniqueid": "MTK1826:3L4PIM1GQUNPDT1WBJTS8JFCRULYR8", "dateTime": 1516477875816}, {"current_trial": 50, "trialdata": {"rt": -1, "trial_type": "single-stim", "stimulus": "<p id=\"stim\">4</p>", "internal_node_id": "0.0-35.0-6.0", "time_elapsed": 319231, "key_press": -1, "trial_index": 50}, "uniqueid": "MTK1826:3L4PIM1GQUNPDT1WBJTS8JFCRULYR8", "dateTime": 1516477876819}, {"current_trial": 51, "trialdata": {"rt": -1, "trial_type": "single-stim", "stimulus": "<p id=\"stim\">3</p>", "internal_node_id": "0.0-35.0-7.0", "time_elapsed": 320233, "key_press": -1, "trial_index": 51}, "uniqueid": "MTK1826:3L4PIM1GQUNPDT1WBJTS8JFCRULYR8", "dateTime": 1516477877821}, {"current_trial": 52, "trialdata": {"rt": -1, "trial_type": "single-stim", "stimulus": "<p id=\"stim\">2</p>", "internal_node_id": "0.0-35.0-8.0", "time_elapsed": 321236, "key_press": -1, "trial_index": 52}, "uniqueid": "MTK1826:3L4PIM1GQUNPDT1WBJTS8JFCRULYR8", "dateTime": 1516477878823}, {"current_trial": 53, "trialdata": {"rt": -1, "trial_type": "single-stim", "stimulus": "<p id=\"stim\">1</p>", "internal_node_id": "0.0-35.0-9.0", "time_elapsed": 322238, "key_press": -1, "trial_index": 53}, "uniqueid": "MTK1826:3L4PIM1GQUNPDT1WBJTS8JFCRULYR8", "dateTime": 1516477879825}, {"current_trial": 54, "trialdata": {"rt": -1, "trial_type": "single-stim", "stimulus": "<p id=\"stim\">+</p>", "internal_node_id": "0.0-36.0-0.0", "time_elapsed": 323739, "key_press": -1, "type": "FIXATION", "trial_index": 54}, "uniqueid": "MTK1826:3L4PIM1GQUNPDT1WBJTS8JFCRULYR8", "dateTime": 1516477881326}, {"current_trial": 55, "trialdata": {"rt": -1000, "trial_type": "single-audio", "word": "shirt", "stimulus": "/static/audio/wordpool/SHIRT.wav", "conditions": [18, 1200, "a", 18000], "internal_node_id": "0.0-37.0", "trial": 1, "time_elapsed": 326065, "serialpos": 0, "key_press": -1, "wordID": 1286, "type": "PRES_AUD", "trial_index": 55}, "uniqueid": "MTK1826:3L4PIM1GQUNPDT1WBJTS8JFCRULYR8", "dateTime": 1516477883653}, {"current_trial": 56, "trialdata": {"rt": -1000, "trial_type": "single-audio", "word": "outfit", "stimulus": "/static/audio/wordpool/OUTFIT.wav", "conditions": [18, 1200, "a", 18000], "internal_node_id": "0.0-38.0", "trial": 1, "time_elapsed": 328363, "serialpos": 1, "key_press": -1, "wordID": 987, "type": "PRES_AUD", "trial_index": 56}, "uniqueid": "MTK1826:3L4PIM1GQUNPDT1WBJTS8JFCRULYR8", "dateTime": 1516477885950}, {"current_trial": 57, "trialdata": {"rt": -1000, "trial_type": "single-audio", "word": "custard", "stimulus": "/static/audio/wordpool/CUSTARD.wav", "conditions": [18, 1200, "a", 18000], "internal_node_id": "0.0-39.0", "trial": 1, "time_elapsed": 330391, "serialpos": 2, "key_press": -1, "wordID": 428, "type": "PRES_AUD", "trial_index": 57}, "uniqueid": "MTK1826:3L4PIM1GQUNPDT1WBJTS8JFCRULYR8", "dateTime": 1516477887978}, {"current_trial": 58, "trialdata": {"rt": -1000, "trial_type": "single-audio", "word": "razor", "stimulus": "/static/audio/wordpool/RAZOR.wav", "conditions": [18, 1200, "a", 18000], "internal_node_id": "0.0-40.0", "trial": 1, "time_elapsed": 332413, "serialpos": 3, "key_press": -1, "wordID": 1170, "type": "PRES_AUD", "trial_index": 58}, "uniqueid": "MTK1826:3L4PIM1GQUNPDT1WBJTS8JFCRULYR8", "dateTime": 1516477890000}, {"current_trial": 59, "trialdata": {"rt": -1000, "trial_type": "single-audio", "word": "lumber", "stimulus": "/static/audio/wordpool/LUMBER.wav", "conditions": [18, 1200, "a", 18000], "internal_node_id": "0.0-41.0", "trial": 1, "time_elapsed": 334615, "serialpos": 4, "key_press": -1, "wordID": 847, "type": "PRES_AUD", "trial_index": 59}, "uniqueid": "MTK1826:3L4PIM1GQUNPDT1WBJTS8JFCRULYR8", "dateTime": 1516477892202}, {"current_trial": 60, "trialdata": {"rt": -1000, "trial_type": "single-audio", "word": "gangster", "stimulus": "/static/audio/wordpool/GANGSTER.wav", "conditions": [18, 1200, "a", 18000], "internal_node_id": "0.0-42.0", "trial": 1, "time_elapsed": 336679, "serialpos": 5, "key_press": -1, "wordID": 619, "type": "PRES_AUD", "trial_index": 60}, "uniqueid": "MTK1826:3L4PIM1GQUNPDT1WBJTS8JFCRULYR8", "dateTime": 1516477894266}, {"current_trial": 61, "trialdata": {"rt": -1000, "trial_type": "single-audio", "word": "cigar", "stimulus": "/static/audio/wordpool/CIGAR.wav", "conditions": [18, 1200, "a", 18000], "internal_node_id": "0.0-43.0", "trial": 1, "time_elapsed": 338904, "serialpos": 6, "key_press": -1, "wordID": 307, "type": "PRES_AUD", "trial_index": 61}, "uniqueid": "MTK1826:3L4PIM1GQUNPDT1WBJTS8JFCRULYR8", "dateTime": 1516477896491}, {"current_trial": 62, "trialdata": {"rt": -1000, "trial_type": "single-audio", "word": "daisy", "stimulus": "/static/audio/wordpool/DAISY.wav", "conditions": [18, 1200, "a", 18000], "internal_node_id": "0.0-44.0", "trial": 1, "time_elapsed": 341249, "serialpos": 7, "key_press": -1, "wordID": 434, "type": "PRES_AUD", "trial_index": 62}, "uniqueid": "MTK1826:3L4PIM1GQUNPDT1WBJTS8JFCRULYR8", "dateTime": 1516477898836}, {"current_trial": 63, "trialdata": {"rt": -1000, "trial_type": "single-audio", "word": "catcher", "stimulus": "/static/audio/wordpool/CATCHER.wav", "conditions": [18, 1200, "a", 18000], "internal_node_id": "0.0-45.0", "trial": 1, "time_elapsed": 343313, "serialpos": 8, "key_press": -1, "wordID": 257, "type": "PRES_AUD", "trial_index": 63}, "uniqueid": "MTK1826:3L4PIM1GQUNPDT1WBJTS8JFCRULYR8", "dateTime": 1516477900900}, {"current_trial": 64, "trialdata": {"rt": -1000, "trial_type": "single-audio", "word": "chipmunk", "stimulus": "/static/audio/wordpool/CHIPMUNK.wav", "conditions": [18, 1200, "a", 18000], "internal_node_id": "0.0-46.0", "trial": 1, "time_elapsed": 345512, "serialpos": 9, "key_press": -1, "wordID": 303, "type": "PRES_AUD", "trial_index": 64}, "uniqueid": "MTK1826:3L4PIM1GQUNPDT1WBJTS8JFCRULYR8", "dateTime": 1516477903100}, {"current_trial": 65, "trialdata": {"rt": -1000, "trial_type": "single-audio", "word": "police", "stimulus": "/static/audio/wordpool/POLICE.wav", "conditions": [18, 1200, "a", 18000], "internal_node_id": "0.0-47.0", "trial": 1, "time_elapsed": 347807, "serialpos": 10, "key_press": -1, "wordID": 1097, "type": "PRES_AUD", "trial_index": 65}, "uniqueid": "MTK1826:3L4PIM1GQUNPDT1WBJTS8JFCRULYR8", "dateTime": 1516477905394}, {"current_trial": 66, "trialdata": {"rt": -1000, "trial_type": "single-audio", "word": "oyster", "stimulus": "/static/audio/wordpool/OYSTER.wav", "conditions": [18, 1200, "a", 18000], "internal_node_id": "0.0-48.0", "trial": 1, "time_elapsed": 350112, "serialpos": 11, "key_press": -1, "wordID": 994, "type": "PRES_AUD", "trial_index": 66}, "uniqueid": "MTK1826:3L4PIM1GQUNPDT1WBJTS8JFCRULYR8", "dateTime": 1516477907699}, {"current_trial": 67, "trialdata": {"rt": -1000, "trial_type": "single-audio", "word": "dresser", "stimulus": "/static/audio/wordpool/DRESSER.wav", "conditions": [18, 1200, "a", 18000], "internal_node_id": "0.0-49.0", "trial": 1, "time_elapsed": 352350, "serialpos": 12, "key_press": -1, "wordID": 495, "type": "PRES_AUD", "trial_index": 67}, "uniqueid": "MTK1826:3L4PIM1GQUNPDT1WBJTS8JFCRULYR8", "dateTime": 1516477909937}, {"current_trial": 68, "trialdata": {"rt": -1000, "trial_type": "single-audio", "word": "table", "stimulus": "/static/audio/wordpool/TABLE.wav", "conditions": [18, 1200, "a", 18000], "internal_node_id": "0.0-50.0", "trial": 1, "time_elapsed": 354361, "serialpos": 13, "key_press": -1, "wordID": 1425, "type": "PRES_AUD", "trial_index": 68}, "uniqueid": "MTK1826:3L4PIM1GQUNPDT1WBJTS8JFCRULYR8", "dateTime": 1516477911948}, {"current_trial": 69, "trialdata": {"rt": -1000, "trial_type": "single-audio", "word": "silk", "stimulus": "/static/audio/wordpool/SILK.wav", "conditions": [18, 1200, "a", 18000], "internal_node_id": "0.0-51.0", "trial": 1, "time_elapsed": 356654, "serialpos": 14, "key_press": -1, "wordID": 1306, "type": "PRES_AUD", "trial_index": 69}, "uniqueid": "MTK1826:3L4PIM1GQUNPDT1WBJTS8JFCRULYR8", "dateTime": 1516477914241}, {"current_trial": 70, "trialdata": {"rt": -1000, "trial_type": "single-audio", "word": "proton", "stimulus": "/static/audio/wordpool/PROTON.wav", "conditions": [18, 1200, "a", 18000], "internal_node_id": "0.0-52.0", "trial": 1, "time_elapsed": 358981, "serialpos": 15, "key_press": -1, "wordID": 1131, "type": "PRES_AUD", "trial_index": 70}, "uniqueid": "MTK1826:3L4PIM1GQUNPDT1WBJTS8JFCRULYR8", "dateTime": 1516477916568}, {"current_trial": 71, "trialdata": {"rt": -1000, "trial_type": "single-audio", "word": "shovel", "stimulus": "/static/audio/wordpool/SHOVEL.wav", "conditions": [18, 1200, "a", 18000], "internal_node_id": "0.0-53.0", "trial": 1, "time_elapsed": 361084, "serialpos": 16, "key_press": -1, "wordID": 1294, "type": "PRES_AUD", "trial_index": 71}, "uniqueid": "MTK1826:3L4PIM1GQUNPDT1WBJTS8JFCRULYR8", "dateTime": 1516477918672}, {"current_trial": 72, "trialdata": {"rt": -1000, "trial_type": "single-audio", "word": "stove", "stimulus": "/static/audio/wordpool/STOVE.wav", "conditions": [18, 1200, "a", 18000], "internal_node_id": "0.0-54.0", "trial": 1, "time_elapsed": 363369, "serialpos": 17, "key_press": -1, "wordID": 1387, "type": "PRES_AUD", "trial_index": 72}, "uniqueid": "MTK1826:3L4PIM1GQUNPDT1WBJTS8JFCRULYR8", "dateTime": 1516477920956}, {"current_trial": 73, "trialdata": {"rt": -1, "trial_type": "single-stim", "stimulus": "", "internal_node_id": "0.0-55.0-0.0", "time_elapsed": 364714, "key_press": -1, "type": "PRE_RECALL_DELAY", "trial_index": 73}, "uniqueid": "MTK1826:3L4PIM1GQUNPDT1WBJTS8JFCRULYR8", "dateTime": 1516477922301}, {"current_trial": 74, "trialdata": {"rt": -1000, "trial_type": "single-audio", "stimulus": "/static/audio/400Hz.wav", "internal_node_id": "0.0-56.0", "time_elapsed": 365215, "key_press": -1, "type": "PRE_RECALL_ALERT", "trial_index": 74}, "uniqueid": "MTK1826:3L4PIM1GQUNPDT1WBJTS8JFCRULYR8", "dateTime": 1516477922803}, {"current_trial": 75, "trialdata": {"rt": [3012, 4978, 6596, 7801, 10906, 12700, 14137, 16112, 19972], "recwords": ["shirt", "outfit", "proton", "stove", "gangster", "police", "shovel", "stove", "proton"], "key_times": [1689, 2006, 2280, 2397, 2620, 3012, 3316, 3609, 3739, 3982, 4097, 4266, 4978, 5406, 5584, 5736, 5963, 6050, 6287, 6596, 6828, 7056, 7222, 7345, 7560, 7801, 8051, 8313, 8464, 8904, 9230, 9560, 9907, 10188, 10389, 10538, 10906, 11188, 11423, 11695, 11913, 12022, 12261, 12700, 12941, 13075, 13317, 13427, 13660, 13748, 14137, 14972, 15221, 15317, 15456, 15679, 16112, 18877, 19020, 19140, 19304, 19426, 19674, 19972, 46580, 47101], "trial_type": "free-recall", "conditions": [18, 1200, "a", 18000], "internal_node_id": "0.0-57.0-0.0", "key_presses": [83, 72, 73, 82, 84, 13, 79, 85, 84, 70, 73, 84, 13, 80, 82, 79, 84, 79, 78, 13, 83, 84, 79, 86, 69, 13, 71, 65, 78, 71, 69, 8, 83, 84, 69, 82, 13, 80, 79, 76, 73, 67, 69, 13, 83, 72, 79, 86, 69, 76, 13, 83, 84, 79, 86, 69, 13, 80, 82, 79, 84, 79, 78, 13, 75, 8], "trial": 1, "time_elapsed": 425222, "type": "FREE_RECALL", "trial_index": 75}, "uniqueid": "MTK1826:3L4PIM1GQUNPDT1WBJTS8JFCRULYR8", "dateTime": 1516477982816}, {"current_trial": 76, "trialdata": {"rt": 3916, "trial_type": "text", "internal_node_id": "0.0-58.0", "time_elapsed": 431146, "key_press": 32, "type": "INSTRUCTIONS", "trial_index": 76}, "uniqueid": "MTK1826:3L4PIM1GQUNPDT1WBJTS8JFCRULYR8", "dateTime": 1516477988733}, {"current_trial": 77, "trialdata": {"rt": [2921, 7190, 10065, 13946, 18197, 20880], "trial_type": "math-distractor", "key_times": [2045, 2613, 2921, 6518, 6733, 7190, 9023, 9181, 9620, 9761, 10065, 13335, 13654, 13946, 17256, 17548, 17695, 17889, 18197, 20171, 20425, 20880, 23542], "responses": ["15", "23", "19", "27", "21", "14"], "num2": [3, 5, 7, 9, 3, 8, 3], "num3": [7, 9, 4, 9, 9, 4, 4], "conditions": [12, 800, "a", 24000], "internal_node_id": "0.0-59.0", "key_presses": [49, 53, 13, 50, 51, 13, 49, 56, 8, 57, 13, 50, 55, 13, 51, 8, 50, 49, 13, 49, 52, 13, 49], "trial": 2, "time_elapsed": 456155, "type": "DISTRACTOR", "trial_index": 77, "num1": [5, 9, 8, 9, 9, 2, 9]}, "uniqueid": "MTK1826:3L4PIM1GQUNPDT1WBJTS8JFCRULYR8", "dateTime": 1516478013742}, {"current_trial": 78, "trialdata": {"rt": -1, "trial_type": "single-stim", "stimulus": "<p id=\"stim\">10</p>", "internal_node_id": "0.0-60.0-0.0", "time_elapsed": 459157, "key_press": -1, "trial_index": 78}, "uniqueid": "MTK1826:3L4PIM1GQUNPDT1WBJTS8JFCRULYR8", "dateTime": 1516478016744}, {"current_trial": 79, "trialdata": {"rt": -1, "trial_type": "single-stim", "stimulus": "<p id=\"stim\">9</p>", "internal_node_id": "0.0-60.0-1.0", "time_elapsed": 460160, "key_press": -1, "trial_index": 79}, "uniqueid": "MTK1826:3L4PIM1GQUNPDT1WBJTS8JFCRULYR8", "dateTime": 1516478017747}, {"current_trial": 80, "trialdata": {"rt": -1, "trial_type": "single-stim", "stimulus": "<p id=\"stim\">8</p>", "internal_node_id": "0.0-60.0-2.0", "time_elapsed": 461160, "key_press": -1, "trial_index": 80}, "uniqueid": "MTK1826:3L4PIM1GQUNPDT1WBJTS8JFCRULYR8", "dateTime": 1516478018748}, {"current_trial": 81, "trialdata": {"rt": -1, "trial_type": "single-stim", "stimulus": "<p id=\"stim\">7</p>", "internal_node_id": "0.0-60.0-3.0", "time_elapsed": 462161, "key_press": -1, "trial_index": 81}, "uniqueid": "MTK1826:3L4PIM1GQUNPDT1WBJTS8JFCRULYR8", "dateTime": 1516478019749}, {"current_trial": 82, "trialdata": {"rt": -1, "trial_type": "single-stim", "stimulus": "<p id=\"stim\">6</p>", "internal_node_id": "0.0-60.0-4.0", "time_elapsed": 463163, "key_press": -1, "trial_index": 82}, "uniqueid": "MTK1826:3L4PIM1GQUNPDT1WBJTS8JFCRULYR8", "dateTime": 1516478020750}, {"current_trial": 83, "trialdata": {"rt": -1, "trial_type": "single-stim", "stimulus": "<p id=\"stim\">5</p>", "internal_node_id": "0.0-60.0-5.0", "time_elapsed": 464165, "key_press": -1, "trial_index": 83}, "uniqueid": "MTK1826:3L4PIM1GQUNPDT1WBJTS8JFCRULYR8", "dateTime": 1516478021752}, {"current_trial": 84, "trialdata": {"rt": -1, "trial_type": "single-stim", "stimulus": "<p id=\"stim\">4</p>", "internal_node_id": "0.0-60.0-6.0", "time_elapsed": 465166, "key_press": -1, "trial_index": 84}, "uniqueid": "MTK1826:3L4PIM1GQUNPDT1WBJTS8JFCRULYR8", "dateTime": 1516478022753}, {"current_trial": 85, "trialdata": {"rt": -1, "trial_type": "single-stim", "stimulus": "<p id=\"stim\">3</p>", "internal_node_id": "0.0-60.0-7.0", "time_elapsed": 466169, "key_press": -1, "trial_index": 85}, "uniqueid": "MTK1826:3L4PIM1GQUNPDT1WBJTS8JFCRULYR8", "dateTime": 1516478023756}, {"current_trial": 86, "trialdata": {"rt": -1, "trial_type": "single-stim", "stimulus": "<p id=\"stim\">2</p>", "internal_node_id": "0.0-60.0-8.0", "time_elapsed": 467170, "key_press": -1, "trial_index": 86}, "uniqueid": "MTK1826:3L4PIM1GQUNPDT1WBJTS8JFCRULYR8", "dateTime": 1516478024757}, {"current_trial": 87, "trialdata": {"rt": -1, "trial_type": "single-stim", "stimulus": "<p id=\"stim\">1</p>", "internal_node_id": "0.0-60.0-9.0", "time_elapsed": 468171, "key_press": -1, "trial_index": 87}, "uniqueid": "MTK1826:3L4PIM1GQUNPDT1WBJTS8JFCRULYR8", "dateTime": 1516478025758}, {"current_trial": 88, "trialdata": {"rt": -1, "trial_type": "single-stim", "stimulus": "<p id=\"stim\">+</p>", "internal_node_id": "0.0-61.0-0.0", "time_elapsed": 469674, "key_press": -1, "type": "FIXATION", "trial_index": 88}, "uniqueid": "MTK1826:3L4PIM1GQUNPDT1WBJTS8JFCRULYR8", "dateTime": 1516478027261}, {"current_trial": 89, "trialdata": {"rt": -1000, "trial_type": "single-audio", "word": "hamper", "stimulus": "/static/audio/wordpool/HAMPER.wav", "conditions": [12, 800, "a", 24000], "internal_node_id": "0.0-62.0", "trial": 2, "time_elapsed": 471434, "serialpos": 0, "key_press": -1, "wordID": 681, "type": "PRES_AUD", "trial_index": 89}, "uniqueid": "MTK1826:3L4PIM1GQUNPDT1WBJTS8JFCRULYR8", "dateTime": 1516478029021}, {"current_trial": 90, "trialdata": {"rt": -1000, "trial_type": "single-audio", "word": "lapel", "stimulus": "/static/audio/wordpool/LAPEL.wav", "conditions": [12, 800, "a", 24000], "internal_node_id": "0.0-63.0", "trial": 2, "time_elapsed": 473248, "serialpos": 1, "key_press": -1, "wordID": 799, "type": "PRES_AUD", "trial_index": 90}, "uniqueid": "MTK1826:3L4PIM1GQUNPDT1WBJTS8JFCRULYR8", "dateTime": 1516478030836}, {"current_trial": 91, "trialdata": {"rt": -1000, "trial_type": "single-audio", "word": "pastry", "stimulus": "/static/audio/wordpool/PASTRY.wav", "conditions": [12, 800, "a", 24000], "internal_node_id": "0.0-64.0", "trial": 2, "time_elapsed": 474854, "serialpos": 2, "key_press": -1, "wordID": 1021, "type": "PRES_AUD", "trial_index": 91}, "uniqueid": "MTK1826:3L4PIM1GQUNPDT1WBJTS8JFCRULYR8", "dateTime": 1516478032441}, {"current_trial": 92, "trialdata": {"rt": -1000, "trial_type": "single-audio", "word": "gymnast", "stimulus": "/static/audio/wordpool/GYMNAST.wav", "conditions": [12, 800, "a", 24000], "internal_node_id": "0.0-65.0", "trial": 2, "time_elapsed": 476512, "serialpos": 3, "key_press": -1, "wordID": 674, "type": "PRES_AUD", "trial_index": 92}, "uniqueid": "MTK1826:3L4PIM1GQUNPDT1WBJTS8JFCRULYR8", "dateTime": 1516478034099}, {"current_trial": 93, "trialdata": {"rt": -1000, "trial_type": "single-audio", "word": "goblin", "stimulus": "/static/audio/wordpool/GOBLIN.wav", "conditions": [12, 800, "a", 24000], "internal_node_id": "0.0-66.0", "trial": 2, "time_elapsed": 478221, "serialpos": 4, "key_press": -1, "wordID": 644, "type": "PRES_AUD", "trial_index": 93}, "uniqueid": "MTK1826:3L4PIM1GQUNPDT1WBJTS8JFCRULYR8", "dateTime": 1516478035808}, {"current_trial": 94, "trialdata": {"rt": -1000, "trial_type": "single-audio", "word": "cricket", "stimulus": "/static/audio/wordpool/CRICKET.wav", "conditions": [12, 800, "a", 24000], "internal_node_id": "0.0-67.0", "trial": 2, "time_elapsed": 480070, "serialpos": 5, "key_press": -1, "wordID": 407, "type": "PRES_AUD", "trial_index": 94}, "uniqueid": "MTK1826:3L4PIM1GQUNPDT1WBJTS8JFCRULYR8", "dateTime": 1516478037658}, {"current_trial": 95, "trialdata": {"rt": -1000, "trial_type": "single-audio", "word": "film", "stimulus": "/static/audio/wordpool/FILM.wav", "conditions": [12, 800, "a", 24000], "internal_node_id": "0.0-68.0", "trial": 2, "time_elapsed": 481784, "serialpos": 6, "key_press": -1, "wordID": 564, "type": "PRES_AUD", "trial_index": 95}, "uniqueid": "MTK1826:3L4PIM1GQUNPDT1WBJTS8JFCRULYR8", "dateTime": 1516478039371}, {"current_trial": 96, "trialdata": {"rt": -1000, "trial_type": "single-audio", "word": "wife", "stimulus": "/static/audio/wordpool/WIFE.wav", "conditions": [12, 800, "a", 24000], "internal_node_id": "0.0-69.0", "trial": 2, "time_elapsed": 483468, "serialpos": 7, "key_press": -1, "wordID": 1608, "type": "PRES_AUD", "trial_index": 96}, "uniqueid": "MTK1826:3L4PIM1GQUNPDT1WBJTS8JFCRULYR8", "dateTime": 1516478041055}, {"current_trial": 97, "trialdata": {"rt": -1000, "trial_type": "single-audio", "word": "actress", "stimulus": "/static/audio/wordpool/ACTRESS.wav", "conditions": [12, 800, "a", 24000], "internal_node_id": "0.0-70.0", "trial": 2, "time_elapsed": 485198, "serialpos": 8, "key_press": -1, "wordID": 5, "type": "PRES_AUD", "trial_index": 97}, "uniqueid": "MTK1826:3L4PIM1GQUNPDT1WBJTS8JFCRULYR8", "dateTime": 1516478042785}, {"current_trial": 98, "trialdata": {"rt": -1000, "trial_type": "single-audio", "word": "sandwich", "stimulus": "/static/audio/wordpool/SANDWICH.wav", "conditions": [12, 800, "a", 24000], "internal_node_id": "0.0-71.0", "trial": 2, "time_elapsed": 487161, "serialpos": 9, "key_press": -1, "wordID": 1231, "type": "PRES_AUD", "trial_index": 98}, "uniqueid": "MTK1826:3L4PIM1GQUNPDT1WBJTS8JFCRULYR8", "dateTime": 1516478044748}, {"current_trial": 99, "trialdata": {"rt": -1000, "trial_type": "single-audio", "word": "survey", "stimulus": "/static/audio/wordpool/SURVEY.wav", "conditions": [12, 800, "a", 24000], "internal_node_id": "0.0-72.0", "trial": 2, "time_elapsed": 488771, "serialpos": 10, "key_press": -1, "wordID": 1413, "type": "PRES_AUD", "trial_index": 99}, "uniqueid": "MTK1826:3L4PIM1GQUNPDT1WBJTS8JFCRULYR8", "dateTime": 1516478046358}, {"current_trial": 100, "trialdata": {"rt": -1000, "trial_type": "single-audio", "word": "report", "stimulus": "/static/audio/wordpool/REPORT.wav", "conditions": [12, 800, "a", 24000], "internal_node_id": "0.0-73.0", "trial": 2, "time_elapsed": 490434, "serialpos": 11, "key_press": -1, "wordID": 1183, "type": "PRES_AUD", "trial_index": 100}, "uniqueid": "MTK1826:3L4PIM1GQUNPDT1WBJTS8JFCRULYR8", "dateTime": 1516478048021}, {"current_trial": 101, "trialdata": {"rt": -1, "trial_type": "single-stim", "stimulus": "", "internal_node_id": "0.0-74.0-0.0", "time_elapsed": 491681, "key_press": -1, "type": "PRE_RECALL_DELAY", "trial_index": 101}, "uniqueid": "MTK1826:3L4PIM1GQUNPDT1WBJTS8JFCRULYR8", "dateTime": 1516478049269}, {"current_trial": 102, "trialdata": {"rt": -1000, "trial_type": "single-audio", "stimulus": "/static/audio/400Hz.wav", "internal_node_id": "0.0-75.0", "time_elapsed": 492183, "key_press": -1, "type": "PRE_RECALL_ALERT", "trial_index": 102}, "uniqueid": "MTK1826:3L4PIM1GQUNPDT1WBJTS8JFCRULYR8", "dateTime": 1516478049770}, {"current_trial": 103, "trialdata": {"rt": [3457, 5321, 6801, 9814, 12513, 17951], "recwords": ["actor", "lapel", "survey", "sandwhich", "report", "actor"], "key_times": [2183, 2585, 2885, 2999, 3137, 3457, 3782, 3966, 4191, 4350, 4568, 5321, 5670, 5821, 5942, 6166, 6365, 6635, 6801, 7175, 7402, 7489, 7660, 8094, 8236, 8427, 8796, 8999, 9814, 10214, 10422, 10578, 10788, 10892, 11102, 12513, 16869, 17188, 17452, 17559, 17690, 17951], "trial_type": "free-recall", "conditions": [12, 800, "a", 24000], "internal_node_id": "0.0-76.0-0.0", "key_presses": [65, 67, 84, 79, 82, 13, 76, 65, 80, 69, 76, 13, 83, 85, 82, 86, 69, 89, 13, 83, 65, 78, 68, 87, 72, 73, 67, 72, 13, 82, 69, 80, 79, 82, 84, 13, 65, 67, 84, 79, 82, 13], "trial": 2, "time_elapsed": 552190, "type": "FREE_RECALL", "trial_index": 103}, "uniqueid": "MTK1826:3L4PIM1GQUNPDT1WBJTS8JFCRULYR8", "dateTime": 1516478109785}, {"current_trial": 104, "trialdata": {"rt": 1417, "trial_type": "text", "internal_node_id": "0.0-77.0", "time_elapsed": 555617, "key_press": 32, "type": "INSTRUCTIONS", "trial_index": 104}, "uniqueid": "MTK1826:3L4PIM1GQUNPDT1WBJTS8JFCRULYR8", "dateTime": 1516478113204}, {"current_trial": 105, "trialdata": {"rt": [2274, 5417, 9448, 11816, 15435, 19680, 23561], "trial_type": "math-distractor", "key_times": [1580, 1983, 2274, 4825, 5018, 5417, 7876, 8257, 8446, 8451, 8901, 9071, 9148, 9448, 10990, 11314, 11816, 14632, 15017, 15435, 17837, 18190, 18866, 19054, 19680, 22693, 23096, 23561], "responses": ["15", "19", "7", "16", "20", "22", "12"], "num2": [5, 3, 2, 7, 5, 5, 1, 6], "num3": [2, 9, 3, 2, 8, 8, 4, 3], "conditions": [24, 800, "a", 24000], "internal_node_id": "0.0-78.0", "key_presses": [49, 53, 13, 49, 57, 13, 54, 8, 54, 55, 8, 8, 55, 13, 49, 54, 13, 50, 48, 13, 50, 49, 8, 50, 13, 49, 50, 13], "trial": 3, "time_elapsed": 581623, "type": "DISTRACTOR", "trial_index": 105, "num1": [8, 7, 2, 7, 7, 9, 7, 7]}, "uniqueid": "MTK1826:3L4PIM1GQUNPDT1WBJTS8JFCRULYR8", "dateTime": 1516478139211}, {"current_trial": 106, "trialdata": {"rt": -1, "trial_type": "single-stim", "stimulus": "<p id=\"stim\">10</p>", "internal_node_id": "0.0-79.0-0.0", "time_elapsed": 584626, "key_press": -1, "trial_index": 106}, "uniqueid": "MTK1826:3L4PIM1GQUNPDT1WBJTS8JFCRULYR8", "dateTime": 1516478142213}, {"current_trial": 107, "trialdata": {"rt": -1, "trial_type": "single-stim", "stimulus": "<p id=\"stim\">9</p>", "internal_node_id": "0.0-79.0-1.0", "time_elapsed": 585627, "key_press": -1, "trial_index": 107}, "uniqueid": "MTK1826:3L4PIM1GQUNPDT1WBJTS8JFCRULYR8", "dateTime": 1516478143215}, {"current_trial": 108, "trialdata": {"rt": -1, "trial_type": "single-stim", "stimulus": "<p id=\"stim\">8</p>", "internal_node_id": "0.0-79.0-2.0", "time_elapsed": 586629, "key_press": -1, "trial_index": 108}, "uniqueid": "MTK1826:3L4PIM1GQUNPDT1WBJTS8JFCRULYR8", "dateTime": 1516478144217}, {"current_trial": 109, "trialdata": {"rt": -1, "trial_type": "single-stim", "stimulus": "<p id=\"stim\">7</p>", "internal_node_id": "0.0-79.0-3.0", "time_elapsed": 587630, "key_press": -1, "trial_index": 109}, "uniqueid": "MTK1826:3L4PIM1GQUNPDT1WBJTS8JFCRULYR8", "dateTime": 1516478145218}, {"current_trial": 110, "trialdata": {"rt": -1, "trial_type": "single-stim", "stimulus": "<p id=\"stim\">6</p>", "internal_node_id": "0.0-79.0-4.0", "time_elapsed": 588632, "key_press": -1, "trial_index": 110}, "uniqueid": "MTK1826:3L4PIM1GQUNPDT1WBJTS8JFCRULYR8", "dateTime": 1516478146219}, {"current_trial": 111, "trialdata": {"rt": -1, "trial_type": "single-stim", "stimulus": "<p id=\"stim\">5</p>", "internal_node_id": "0.0-79.0-5.0", "time_elapsed": 589633, "key_press": -1, "trial_index": 111}, "uniqueid": "MTK1826:3L4PIM1GQUNPDT1WBJTS8JFCRULYR8", "dateTime": 1516478147220}, {"current_trial": 112, "trialdata": {"rt": -1, "trial_type": "single-stim", "stimulus": "<p id=\"stim\">4</p>", "internal_node_id": "0.0-79.0-6.0", "time_elapsed": 590635, "key_press": -1, "trial_index": 112}, "uniqueid": "MTK1826:3L4PIM1GQUNPDT1WBJTS8JFCRULYR8", "dateTime": 1516478148222}, {"current_trial": 113, "trialdata": {"rt": -1, "trial_type": "single-stim", "stimulus": "<p id=\"stim\">3</p>", "internal_node_id": "0.0-79.0-7.0", "time_elapsed": 591636, "key_press": -1, "trial_index": 113}, "uniqueid": "MTK1826:3L4PIM1GQUNPDT1WBJTS8JFCRULYR8", "dateTime": 1516478149223}, {"current_trial": 114, "trialdata": {"rt": -1, "trial_type": "single-stim", "stimulus": "<p id=\"stim\">2</p>", "internal_node_id": "0.0-79.0-8.0", "time_elapsed": 592638, "key_press": -1, "trial_index": 114}, "uniqueid": "MTK1826:3L4PIM1GQUNPDT1WBJTS8JFCRULYR8", "dateTime": 1516478150225}, {"current_trial": 115, "trialdata": {"rt": -1, "trial_type": "single-stim", "stimulus": "<p id=\"stim\">1</p>", "internal_node_id": "0.0-79.0-9.0", "time_elapsed": 593639, "key_press": -1, "trial_index": 115}, "uniqueid": "MTK1826:3L4PIM1GQUNPDT1WBJTS8JFCRULYR8", "dateTime": 1516478151226}, {"current_trial": 116, "trialdata": {"rt": -1, "trial_type": "single-stim", "stimulus": "<p id=\"stim\">+</p>", "internal_node_id": "0.0-80.0-0.0", "time_elapsed": 595141, "key_press": -1, "type": "FIXATION", "trial_index": 116}, "uniqueid": "MTK1826:3L4PIM1GQUNPDT1WBJTS8JFCRULYR8", "dateTime": 1516478152728}, {"current_trial": 117, "trialdata": {"rt": -1000, "trial_type": "single-audio", "word": "freckle", "stimulus": "/static/audio/wordpool/FRECKLE.wav", "conditions": [24, 800, "a", 24000], "internal_node_id": "0.0-81.0", "trial": 3, "time_elapsed": 597136, "serialpos": 0, "key_press": -1, "wordID": 601, "type": "PRES_AUD", "trial_index": 117}, "uniqueid": "MTK1826:3L4PIM1GQUNPDT1WBJTS8JFCRULYR8", "dateTime": 1516478154723}, {"current_trial": 118, "trialdata": {"rt": -1000, "trial_type": "single-audio", "word": "rabbit", "stimulus": "/static/audio/wordpool/RABBIT.wav", "conditions": [24, 800, "a", 24000], "internal_node_id": "0.0-82.0", "trial": 3, "time_elapsed": 599052, "serialpos": 1, "key_press": -1, "wordID": 1151, "type": "PRES_AUD", "trial_index": 118}, "uniqueid": "MTK1826:3L4PIM1GQUNPDT1WBJTS8JFCRULYR8", "dateTime": 1516478156640}, {"current_trial": 119, "trialdata": {"rt": -1000, "trial_type": "single-audio", "word": "journal", "stimulus": "/static/audio/wordpool/JOURNAL.wav", "conditions": [24, 800, "a", 24000], "internal_node_id": "0.0-83.0", "trial": 3, "time_elapsed": 600741, "serialpos": 2, "key_press": -1, "wordID": 759, "type": "PRES_AUD", "trial_index": 119}, "uniqueid": "MTK1826:3L4PIM1GQUNPDT1WBJTS8JFCRULYR8", "dateTime": 1516478158328}, {"current_trial": 120, "trialdata": {"rt": -1000, "trial_type": "single-audio", "word": "sparrow", "stimulus": "/static/audio/wordpool/SPARROW.wav", "conditions": [24, 800, "a", 24000], "internal_node_id": "0.0-84.0", "trial": 3, "time_elapsed": 602480, "serialpos": 3, "key_press": -1, "wordID": 1346, "type": "PRES_AUD", "trial_index": 120}, "uniqueid": "MTK1826:3L4PIM1GQUNPDT1WBJTS8JFCRULYR8", "dateTime": 1516478160067}, {"current_trial": 121, "trialdata": {"rt": -1000, "trial_type": "single-audio", "word": "robin", "stimulus": "/static/audio/wordpool/ROBIN.wav", "conditions": [24, 800, "a", 24000], "internal_node_id": "0.0-85.0", "trial": 3, "time_elapsed": 604301, "serialpos": 4, "key_press": -1, "wordID": 1198, "type": "PRES_AUD", "trial_index": 121}, "uniqueid": "MTK1826:3L4PIM1GQUNPDT1WBJTS8JFCRULYR8", "dateTime": 1516478161888}, {"current_trial": 122, "trialdata": {"rt": -1000, "trial_type": "single-audio", "word": "climber", "stimulus": "/static/audio/wordpool/CLIMBER.wav", "conditions": [24, 800, "a", 24000], "internal_node_id": "0.0-86.0", "trial": 3, "time_elapsed": 605950, "serialpos": 5, "key_press": -1, "wordID": 322, "type": "PRES_AUD", "trial_index": 122}, "uniqueid": "MTK1826:3L4PIM1GQUNPDT1WBJTS8JFCRULYR8", "dateTime": 1516478163537}, {"current_trial": 123, "trialdata": {"rt": -1000, "trial_type": "single-audio", "word": "puppy", "stimulus": "/static/audio/wordpool/PUPPY.wav", "conditions": [24, 800, "a", 24000], "internal_node_id": "0.0-87.0", "trial": 3, "time_elapsed": 607674, "serialpos": 6, "key_press": -1, "wordID": 1143, "type": "PRES_AUD", "trial_index": 123}, "uniqueid": "MTK1826:3L4PIM1GQUNPDT1WBJTS8JFCRULYR8", "dateTime": 1516478165261}, {"current_trial": 124, "trialdata": {"rt": -1000, "trial_type": "single-audio", "word": "monster", "stimulus": "/static/audio/wordpool/MONSTER.wav", "conditions": [24, 800, "a", 24000], "internal_node_id": "0.0-88.0", "trial": 3, "time_elapsed": 609599, "serialpos": 7, "key_press": -1, "wordID": 911, "type": "PRES_AUD", "trial_index": 124}, "uniqueid": "MTK1826:3L4PIM1GQUNPDT1WBJTS8JFCRULYR8", "dateTime": 1516478167186}, {"current_trial": 125, "trialdata": {"rt": -1000, "trial_type": "single-audio", "word": "pizza", "stimulus": "/static/audio/wordpool/PIZZA.wav", "conditions": [24, 800, "a", 24000], "internal_node_id": "0.0-89.0", "trial": 3, "time_elapsed": 611428, "serialpos": 8, "key_press": -1, "wordID": 1078, "type": "PRES_AUD", "trial_index": 125}, "uniqueid": "MTK1826:3L4PIM1GQUNPDT1WBJTS8JFCRULYR8", "dateTime": 1516478169016}, {"current_trial": 126, "trialdata": {"rt": -1000, "trial_type": "single-audio", "word": "hiker", "stimulus": "/static/audio/wordpool/HIKER.wav", "conditions": [24, 800, "a", 24000], "internal_node_id": "0.0-90.0", "trial": 3, "time_elapsed": 613294, "serialpos": 9, "key_press": -1, "wordID": 707, "type": "PRES_AUD", "trial_index": 126}, "uniqueid": "MTK1826:3L4PIM1GQUNPDT1WBJTS8JFCRULYR8", "dateTime": 1516478170882}, {"current_trial": 127, "trialdata": {"rt": -1000, "trial_type": "single-audio", "word": "rust", "stimulus": "/static/audio/wordpool/RUST.wav", "conditions": [24, 800, "a", 24000], "internal_node_id": "0.0-91.0", "trial": 3, "time_elapsed": 615113, "serialpos": 10, "key_press": -1, "wordID": 1218, "type": "PRES_AUD", "trial_index": 127}, "uniqueid": "MTK1826:3L4PIM1GQUNPDT1WBJTS8JFCRULYR8", "dateTime": 1516478172701}, {"current_trial": 128, "trialdata": {"rt": -1000, "trial_type": "single-audio", "word": "powder", "stimulus": "/static/audio/wordpool/POWDER.wav", "conditions": [24, 800, "a", 24000], "internal_node_id": "0.0-92.0", "trial": 3, "time_elapsed": 617020, "serialpos": 11, "key_press": -1, "wordID": 1116, "type": "PRES_AUD", "trial_index": 128}, "uniqueid": "MTK1826:3L4PIM1GQUNPDT1WBJTS8JFCRULYR8", "dateTime": 1516478174607}, {"current_trial": 129, "trialdata": {"rt": -1000, "trial_type": "single-audio", "word": "kidney", "stimulus": "/static/audio/wordpool/KIDNEY.wav", "conditions": [24, 800, "a", 24000], "internal_node_id": "0.0-93.0", "trial": 3, "time_elapsed": 618922, "serialpos": 12, "key_press": -1, "wordID": 775, "type": "PRES_AUD", "trial_index": 129}, "uniqueid": "MTK1826:3L4PIM1GQUNPDT1WBJTS8JFCRULYR8", "dateTime": 1516478176509}, {"current_trial": 130, "trialdata": {"rt": -1000, "trial_type": "single-audio", "word": "relish", "stimulus": "/static/audio/wordpool/RELISH.wav", "conditions": [24, 800, "a", 24000], "internal_node_id": "0.0-94.0", "trial": 3, "time_elapsed": 620589, "serialpos": 13, "key_press": -1, "wordID": 1182, "type": "PRES_AUD", "trial_index": 130}, "uniqueid": "MTK1826:3L4PIM1GQUNPDT1WBJTS8JFCRULYR8", "dateTime": 1516478178176}, {"current_trial": 131, "trialdata": {"rt": -1000, "trial_type": "single-audio", "word": "barley", "stimulus": "/static/audio/wordpool/BARLEY.wav", "conditions": [24, 800, "a", 24000], "internal_node_id": "0.0-95.0", "trial": 3, "time_elapsed": 622426, "serialpos": 14, "key_press": -1, "wordID": 87, "type": "PRES_AUD", "trial_index": 131}, "uniqueid": "MTK1826:3L4PIM1GQUNPDT1WBJTS8JFCRULYR8", "dateTime": 1516478180013}, {"current_trial": 132, "trialdata": {"rt": -1000, "trial_type": "single-audio", "word": "sunset", "stimulus": "/static/audio/wordpool/SUNSET.wav", "conditions": [24, 800, "a", 24000], "internal_node_id": "0.0-96.0", "trial": 3, "time_elapsed": 624069, "serialpos": 15, "key_press": -1, "wordID": 1407, "type": "PRES_AUD", "trial_index": 132}, "uniqueid": "MTK1826:3L4PIM1GQUNPDT1WBJTS8JFCRULYR8", "dateTime": 1516478181656}, {"current_trial": 133, "trialdata": {"rt": -1000, "trial_type": "single-audio", "word": "transplant", "stimulus": "/static/audio/wordpool/TRANSPLANT.wav", "conditions": [24, 800, "a", 24000], "internal_node_id": "0.0-97.0", "trial": 3, "time_elapsed": 625790, "serialpos": 16, "key_press": -1, "wordID": 1495, "type": "PRES_AUD", "trial_index": 133}, "uniqueid": "MTK1826:3L4PIM1GQUNPDT1WBJTS8JFCRULYR8", "dateTime": 1516478183377}, {"current_trial": 134, "trialdata": {"rt": -1000, "trial_type": "single-audio", "word": "infant", "stimulus": "/static/audio/wordpool/INFANT.wav", "conditions": [24, 800, "a", 24000], "internal_node_id": "0.0-98.0", "trial": 3, "time_elapsed": 627474, "serialpos": 17, "key_press": -1, "wordID": 736, "type": "PRES_AUD", "trial_index": 134}, "uniqueid": "MTK1826:3L4PIM1GQUNPDT1WBJTS8JFCRULYR8", "dateTime": 1516478185062}, {"current_trial": 135, "trialdata": {"rt": -1000, "trial_type": "single-audio", "word": "crib", "stimulus": "/static/audio/wordpool/CRIB.wav", "conditions": [24, 800, "a", 24000], "internal_node_id": "0.0-99.0", "trial": 3, "time_elapsed": 629386, "serialpos": 18, "key_press": -1, "wordID": 406, "type": "PRES_AUD", "trial_index": 135}, "uniqueid": "MTK1826:3L4PIM1GQUNPDT1WBJTS8JFCRULYR8", "dateTime": 1516478186973}, {"current_trial": 136, "trialdata": {"rt": -1000, "trial_type": "single-audio", "word": "mask", "stimulus": "/static/audio/wordpool/MASK.wav", "conditions": [24, 800, "a", 24000], "internal_node_id": "0.0-100.0", "trial": 3, "time_elapsed": 631028, "serialpos": 19, "key_press": -1, "wordID": 875, "type": "PRES_AUD", "trial_index": 136}, "uniqueid": "MTK1826:3L4PIM1GQUNPDT1WBJTS8JFCRULYR8", "dateTime": 1516478188615}, {"current_trial": 137, "trialdata": {"rt": -1000, "trial_type": "single-audio", "word": "yarn", "stimulus": "/static/audio/wordpool/YARN.wav", "conditions": [24, 800, "a", 24000], "internal_node_id": "0.0-101.0", "trial": 3, "time_elapsed": 632838, "serialpos": 20, "key_press": -1, "wordID": 1630, "type": "PRES_AUD", "trial_index": 137}, "uniqueid": "MTK1826:3L4PIM1GQUNPDT1WBJTS8JFCRULYR8", "dateTime": 1516478190426}, {"current_trial": 138, "trialdata": {"rt": -1000, "trial_type": "single-audio", "word": "lover", "stimulus": "/static/audio/wordpool/LOVER.wav", "conditions": [24, 800, "a", 24000], "internal_node_id": "0.0-102.0", "trial": 3, "time_elapsed": 634641, "serialpos": 21, "key_press": -1, "wordID": 845, "type": "PRES_AUD", "trial_index": 138}, "uniqueid": "MTK1826:3L4PIM1GQUNPDT1WBJTS8JFCRULYR8", "dateTime": 1516478192228}, {"current_trial": 139, "trialdata": {"rt": -1000, "trial_type": "single-audio", "word": "waitress", "stimulus": "/static/audio/wordpool/WAITRESS.wav", "conditions": [24, 800, "a", 24000], "internal_node_id": "0.0-103.0", "trial": 3, "time_elapsed": 636591, "serialpos": 22, "key_press": -1, "wordID": 1580, "type": "PRES_AUD", "trial_index": 139}, "uniqueid": "MTK1826:3L4PIM1GQUNPDT1WBJTS8JFCRULYR8", "dateTime": 1516478194179}, {"current_trial": 140, "trialdata": {"rt": -1000, "trial_type": "single-audio", "word": "flesh", "stimulus": "/static/audio/wordpool/FLESH.wav", "conditions": [24, 800, "a", 24000], "internal_node_id": "0.0-104.0", "trial": 3, "time_elapsed": 638236, "serialpos": 23, "key_press": -1, "wordID": 578, "type": "PRES_AUD", "trial_index": 140}, "uniqueid": "MTK1826:3L4PIM1GQUNPDT1WBJTS8JFCRULYR8", "dateTime": 1516478195823}, {"current_trial": 141, "trialdata": {"rt": -1, "trial_type": "single-stim", "stimulus": "", "internal_node_id": "0.0-105.0-0.0", "time_elapsed": 639625, "key_press": -1, "type": "PRE_RECALL_DELAY", "trial_index": 141}, "uniqueid": "MTK1826:3L4PIM1GQUNPDT1WBJTS8JFCRULYR8", "dateTime": 1516478197212}, {"current_trial": 142, "trialdata": {"rt": -1000, "trial_type": "single-audio", "stimulus": "/static/audio/400Hz.wav", "internal_node_id": "0.0-106.0", "time_elapsed": 640127, "key_press": -1, "type": "PRE_RECALL_ALERT", "trial_index": 142}, "uniqueid": "MTK1826:3L4PIM1GQUNPDT1WBJTS8JFCRULYR8", "dateTime": 1516478197714}, {"current_trial": 143, "trialdata": {"rt": [3355, 5327, 7239, 8522, 9901, 14780, 17317, 24495], "recwords": ["freckle", "sparrow", "flesh", "lover", "sparrow", "waitress", "yarn", "puppy"], "key_times": [1703, 1899, 2098, 2311, 2431, 2640, 2738, 3355, 3762, 3890, 4068, 4301, 4422, 4558, 4675, 5327, 6352, 6479, 6604, 6819, 6914, 7239, 7489, 7692, 7774, 8002, 8191, 8522, 8699, 8827, 8978, 9191, 9314, 9431, 9550, 9901, 12801, 13028, 13524, 13647, 13858, 14073, 14293, 14455, 14780, 15928, 16360, 16583, 16712, 17317, 23163, 23417, 23641, 23764, 24011, 24495], "trial_type": "free-recall", "conditions": [24, 800, "a", 24000], "internal_node_id": "0.0-107.0-0.0", "key_presses": [70, 82, 69, 67, 75, 76, 69, 13, 83, 80, 65, 82, 82, 79, 87, 13, 70, 76, 69, 83, 72, 13, 76, 79, 86, 69, 82, 13, 83, 80, 65, 82, 82, 79, 87, 13, 87, 65, 73, 84, 82, 69, 83, 83, 13, 89, 65, 82, 78, 13, 80, 85, 80, 80, 89, 13], "trial": 3, "time_elapsed": 700131, "type": "FREE_RECALL", "trial_index": 143}, "uniqueid": "MTK1826:3L4PIM1GQUNPDT1WBJTS8JFCRULYR8", "dateTime": 1516478257723}, {"current_trial": 144, "trialdata": {"rt": 1098, "trial_type": "text", "internal_node_id": "0.0-108.0", "time_elapsed": 703236, "key_press": 32, "type": "INSTRUCTIONS", "trial_index": 144}, "uniqueid": "MTK1826:3L4PIM1GQUNPDT1WBJTS8JFCRULYR8", "dateTime": 1516478260823}, {"current_trial": 145, "trialdata": {"rt": [3749, 5946, 8254, 11873, 14071, 16065, 18672, 21476], "trial_type": "math-distractor", "key_times": [3067, 3430, 3749, 4911, 5205, 5211, 5641, 5946, 7494, 7965, 8254, 11433, 11584, 11873, 13487, 14071, 15316, 15598, 16065, 17858, 18310, 18438, 18672, 20769, 21085, 21476, 23908], "responses": ["14", "13", "14", "11", "8", "13", "4", "15"], "num2": [3, 5, 4, 5, 1, 5, 1, 9, 3], "num3": [3, 5, 4, 4, 4, 3, 2, 4, 2], "conditions": [24, 1600, "a", 24000], "internal_node_id": "0.0-109.0", "key_presses": [49, 52, 13, 49, 51, 52, 8, 13, 49, 52, 13, 49, 49, 13, 56, 13, 49, 51, 13, 51, 8, 52, 13, 49, 53, 13, 49], "trial": 4, "time_elapsed": 729243, "type": "DISTRACTOR", "trial_index": 145, "num1": [8, 3, 5, 2, 3, 5, 1, 2, 8]}, "uniqueid": "MTK1826:3L4PIM1GQUNPDT1WBJTS8JFCRULYR8", "dateTime": 1516478286830}, {"current_trial": 146, "trialdata": {"rt": -1, "trial_type": "single-stim", "stimulus": "<p id=\"stim\">10</p>", "internal_node_id": "0.0-110.0-0.0", "time_elapsed": 732244, "key_press": -1, "trial_index": 146}, "uniqueid": "MTK1826:3L4PIM1GQUNPDT1WBJTS8JFCRULYR8", "dateTime": 1516478289831}, {"current_trial": 147, "trialdata": {"rt": -1, "trial_type": "single-stim", "stimulus": "<p id=\"stim\">9</p>", "internal_node_id": "0.0-110.0-1.0", "time_elapsed": 733246, "key_press": -1, "trial_index": 147}, "uniqueid": "MTK1826:3L4PIM1GQUNPDT1WBJTS8JFCRULYR8", "dateTime": 1516478290833}, {"current_trial": 148, "trialdata": {"rt": -1, "trial_type": "single-stim", "stimulus": "<p id=\"stim\">8</p>", "internal_node_id": "0.0-110.0-2.0", "time_elapsed": 734247, "key_press": -1, "trial_index": 148}, "uniqueid": "MTK1826:3L4PIM1GQUNPDT1WBJTS8JFCRULYR8", "dateTime": 1516478291834}, {"current_trial": 149, "trialdata": {"rt": -1, "trial_type": "single-stim", "stimulus": "<p id=\"stim\">7</p>", "internal_node_id": "0.0-110.0-3.0", "time_elapsed": 735249, "key_press": -1, "trial_index": 149}, "uniqueid": "MTK1826:3L4PIM1GQUNPDT1WBJTS8JFCRULYR8", "dateTime": 1516478292837}, {"current_trial": 150, "trialdata": {"rt": -1, "trial_type": "single-stim", "stimulus": "<p id=\"stim\">6</p>", "internal_node_id": "0.0-110.0-4.0", "time_elapsed": 736251, "key_press": -1, "trial_index": 150}, "uniqueid": "MTK1826:3L4PIM1GQUNPDT1WBJTS8JFCRULYR8", "dateTime": 1516478293838}, {"current_trial": 151, "trialdata": {"rt": -1, "trial_type": "single-stim", "stimulus": "<p id=\"stim\">5</p>", "internal_node_id": "0.0-110.0-5.0", "time_elapsed": 737253, "key_press": -1, "trial_index": 151}, "uniqueid": "MTK1826:3L4PIM1GQUNPDT1WBJTS8JFCRULYR8", "dateTime": 1516478294840}, {"current_trial": 152, "trialdata": {"rt": -1, "trial_type": "single-stim", "stimulus": "<p id=\"stim\">4</p>", "internal_node_id": "0.0-110.0-6.0", "time_elapsed": 738254, "key_press": -1, "trial_index": 152}, "uniqueid": "MTK1826:3L4PIM1GQUNPDT1WBJTS8JFCRULYR8", "dateTime": 1516478295841}, {"current_trial": 153, "trialdata": {"rt": -1, "trial_type": "single-stim", "stimulus": "<p id=\"stim\">3</p>", "internal_node_id": "0.0-110.0-7.0", "time_elapsed": 739256, "key_press": -1, "trial_index": 153}, "uniqueid": "MTK1826:3L4PIM1GQUNPDT1WBJTS8JFCRULYR8", "dateTime": 1516478296843}, {"current_trial": 154, "trialdata": {"rt": -1, "trial_type": "single-stim", "stimulus": "<p id=\"stim\">2</p>", "internal_node_id": "0.0-110.0-8.0", "time_elapsed": 740257, "key_press": -1, "trial_index": 154}, "uniqueid": "MTK1826:3L4PIM1GQUNPDT1WBJTS8JFCRULYR8", "dateTime": 1516478297845}, {"current_trial": 155, "trialdata": {"rt": -1, "trial_type": "single-stim", "stimulus": "<p id=\"stim\">1</p>", "internal_node_id": "0.0-110.0-9.0", "time_elapsed": 741259, "key_press": -1, "trial_index": 155}, "uniqueid": "MTK1826:3L4PIM1GQUNPDT1WBJTS8JFCRULYR8", "dateTime": 1516478298846}, {"current_trial": 156, "trialdata": {"rt": -1, "trial_type": "single-stim", "stimulus": "<p id=\"stim\">+</p>", "internal_node_id": "0.0-111.0-0.0", "time_elapsed": 742761, "key_press": -1, "type": "FIXATION", "trial_index": 156}, "uniqueid": "MTK1826:3L4PIM1GQUNPDT1WBJTS8JFCRULYR8", "dateTime": 1516478300349}, {"current_trial": 157, "trialdata": {"rt": -1000, "trial_type": "single-audio", "word": "dustpan", "stimulus": "/static/audio/wordpool/DUSTPAN.wav", "conditions": [24, 1600, "a", 24000], "internal_node_id": "0.0-112.0", "trial": 4, "time_elapsed": 745559, "serialpos": 0, "key_press": -1, "wordID": 508, "type": "PRES_AUD", "trial_index": 157}, "uniqueid": "MTK1826:3L4PIM1GQUNPDT1WBJTS8JFCRULYR8", "dateTime": 1516478303146}, {"current_trial": 158, "trialdata": {"rt": -1000, "trial_type": "single-audio", "word": "author", "stimulus": "/static/audio/wordpool/AUTHOR.wav", "conditions": [24, 1600, "a", 24000], "internal_node_id": "0.0-113.0", "trial": 4, "time_elapsed": 748318, "serialpos": 1, "key_press": -1, "wordID": 60, "type": "PRES_AUD", "trial_index": 158}, "uniqueid": "MTK1826:3L4PIM1GQUNPDT1WBJTS8JFCRULYR8", "dateTime": 1516478305905}, {"current_trial": 159, "trialdata": {"rt": -1000, "trial_type": "single-audio", "word": "hostess", "stimulus": "/static/audio/wordpool/HOSTESS.wav", "conditions": [24, 1600, "a", 24000], "internal_node_id": "0.0-114.0", "trial": 4, "time_elapsed": 751072, "serialpos": 2, "key_press": -1, "wordID": 722, "type": "PRES_AUD", "trial_index": 159}, "uniqueid": "MTK1826:3L4PIM1GQUNPDT1WBJTS8JFCRULYR8", "dateTime": 1516478308659}, {"current_trial": 160, "trialdata": {"rt": -1000, "trial_type": "single-audio", "word": "cyclone", "stimulus": "/static/audio/wordpool/CYCLONE.wav", "conditions": [24, 1600, "a", 24000], "internal_node_id": "0.0-115.0", "trial": 4, "time_elapsed": 753744, "serialpos": 3, "key_press": -1, "wordID": 430, "type": "PRES_AUD", "trial_index": 160}, "uniqueid": "MTK1826:3L4PIM1GQUNPDT1WBJTS8JFCRULYR8", "dateTime": 1516478311331}, {"current_trial": 161, "trialdata": {"rt": -1000, "trial_type": "single-audio", "word": "bunny", "stimulus": "/static/audio/wordpool/BUNNY.wav", "conditions": [24, 1600, "a", 24000], "internal_node_id": "0.0-116.0", "trial": 4, "time_elapsed": 756445, "serialpos": 4, "key_press": -1, "wordID": 197, "type": "PRES_AUD", "trial_index": 161}, "uniqueid": "MTK1826:3L4PIM1GQUNPDT1WBJTS8JFCRULYR8", "dateTime": 1516478314033}, {"current_trial": 162, "trialdata": {"rt": -1000, "trial_type": "single-audio", "word": "seafood", "stimulus": "/static/audio/wordpool/SEAFOOD.wav", "conditions": [24, 1600, "a", 24000], "internal_node_id": "0.0-117.0", "trial": 4, "time_elapsed": 759229, "serialpos": 5, "key_press": -1, "wordID": 1259, "type": "PRES_AUD", "trial_index": 162}, "uniqueid": "MTK1826:3L4PIM1GQUNPDT1WBJTS8JFCRULYR8", "dateTime": 1516478316816}, {"current_trial": 163, "trialdata": {"rt": -1000, "trial_type": "single-audio", "word": "cod", "stimulus": "/static/audio/wordpool/COD.wav", "conditions": [24, 1600, "a", 24000], "internal_node_id": "0.0-118.0", "trial": 4, "time_elapsed": 761887, "serialpos": 6, "key_press": -1, "wordID": 339, "type": "PRES_AUD", "trial_index": 163}, "uniqueid": "MTK1826:3L4PIM1GQUNPDT1WBJTS8JFCRULYR8", "dateTime": 1516478319474}, {"current_trial": 164, "trialdata": {"rt": -1000, "trial_type": "single-audio", "word": "flag", "stimulus": "/static/audio/wordpool/FLAG.wav", "conditions": [24, 1600, "a", 24000], "internal_node_id": "0.0-119.0", "trial": 4, "time_elapsed": 764536, "serialpos": 7, "key_press": -1, "wordID": 572, "type": "PRES_AUD", "trial_index": 164}, "uniqueid": "MTK1826:3L4PIM1GQUNPDT1WBJTS8JFCRULYR8", "dateTime": 1516478322123}, {"current_trial": 165, "trialdata": {"rt": -1000, "trial_type": "single-audio", "word": "snake", "stimulus": "/static/audio/wordpool/SNAKE.wav", "conditions": [24, 1600, "a", 24000], "internal_node_id": "0.0-120.0", "trial": 4, "time_elapsed": 767196, "serialpos": 8, "key_press": -1, "wordID": 1332, "type": "PRES_AUD", "trial_index": 165}, "uniqueid": "MTK1826:3L4PIM1GQUNPDT1WBJTS8JFCRULYR8", "dateTime": 1516478324783}, {"current_trial": 166, "trialdata": {"rt": -1000, "trial_type": "single-audio", "word": "statue", "stimulus": "/static/audio/wordpool/STATUE.wav", "conditions": [24, 1600, "a", 24000], "internal_node_id": "0.0-121.0", "trial": 4, "time_elapsed": 769856, "serialpos": 9, "key_press": -1, "wordID": 1373, "type": "PRES_AUD", "trial_index": 166}, "uniqueid": "MTK1826:3L4PIM1GQUNPDT1WBJTS8JFCRULYR8", "dateTime": 1516478327443}, {"current_trial": 167, "trialdata": {"rt": -1000, "trial_type": "single-audio", "word": "igloo", "stimulus": "/static/audio/wordpool/IGLOO.wav", "conditions": [24, 1600, "a", 24000], "internal_node_id": "0.0-122.0", "trial": 4, "time_elapsed": 772504, "serialpos": 10, "key_press": -1, "wordID": 733, "type": "PRES_AUD", "trial_index": 167}, "uniqueid": "MTK1826:3L4PIM1GQUNPDT1WBJTS8JFCRULYR8", "dateTime": 1516478330092}, {"current_trial": 168, "trialdata": {"rt": -1000, "trial_type": "single-audio", "word": "creature", "stimulus": "/static/audio/wordpool/CREATURE.wav", "conditions": [24, 1600, "a", 24000], "internal_node_id": "0.0-123.0", "trial": 4, "time_elapsed": 775148, "serialpos": 11, "key_press": -1, "wordID": 402, "type": "PRES_AUD", "trial_index": 168}, "uniqueid": "MTK1826:3L4PIM1GQUNPDT1WBJTS8JFCRULYR8", "dateTime": 1516478332735}, {"current_trial": 169, "trialdata": {"rt": -1000, "trial_type": "single-audio", "word": "stream", "stimulus": "/static/audio/wordpool/STREAM.wav", "conditions": [24, 1600, "a", 24000], "internal_node_id": "0.0-124.0", "trial": 4, "time_elapsed": 777903, "serialpos": 12, "key_press": -1, "wordID": 1391, "type": "PRES_AUD", "trial_index": 169}, "uniqueid": "MTK1826:3L4PIM1GQUNPDT1WBJTS8JFCRULYR8", "dateTime": 1516478335491}, {"current_trial": 170, "trialdata": {"rt": -1000, "trial_type": "single-audio", "word": "wardrobe", "stimulus": "/static/audio/wordpool/WARDROBE.wav", "conditions": [24, 1600, "a", 24000], "internal_node_id": "0.0-125.0", "trial": 4, "time_elapsed": 780664, "serialpos": 13, "key_press": -1, "wordID": 1586, "type": "PRES_AUD", "trial_index": 170}, "uniqueid": "MTK1826:3L4PIM1GQUNPDT1WBJTS8JFCRULYR8", "dateTime": 1516478338251}, {"current_trial": 171, "trialdata": {"rt": -1000, "trial_type": "single-audio", "word": "crater", "stimulus": "/static/audio/wordpool/CRATER.wav", "conditions": [24, 1600, "a", 24000], "internal_node_id": "0.0-126.0", "trial": 4, "time_elapsed": 783392, "serialpos": 14, "key_press": -1, "wordID": 399, "type": "PRES_AUD", "trial_index": 171}, "uniqueid": "MTK1826:3L4PIM1GQUNPDT1WBJTS8JFCRULYR8", "dateTime": 1516478340979}, {"current_trial": 172, "trialdata": {"rt": -1000, "trial_type": "single-audio", "word": "lava", "stimulus": "/static/audio/wordpool/LAVA.wav", "conditions": [24, 1600, "a", 24000], "internal_node_id": "0.0-127.0", "trial": 4, "time_elapsed": 785923, "serialpos": 15, "key_press": -1, "wordID": 803, "type": "PRES_AUD", "trial_index": 172}, "uniqueid": "MTK1826:3L4PIM1GQUNPDT1WBJTS8JFCRULYR8", "dateTime": 1516478343510}, {"current_trial": 173, "trialdata": {"rt": -1000, "trial_type": "single-audio", "word": "toaster", "stimulus": "/static/audio/wordpool/TOASTER.wav", "conditions": [24, 1600, "a", 24000], "internal_node_id": "0.0-128.0", "trial": 4, "time_elapsed": 788680, "serialpos": 16, "key_press": -1, "wordID": 1471, "type": "PRES_AUD", "trial_index": 173}, "uniqueid": "MTK1826:3L4PIM1GQUNPDT1WBJTS8JFCRULYR8", "dateTime": 1516478346268}, {"current_trial": 174, "trialdata": {"rt": -1000, "trial_type": "single-audio", "word": "swamp", "stimulus": "/static/audio/wordpool/SWAMP.wav", "conditions": [24, 1600, "a", 24000], "internal_node_id": "0.0-129.0", "trial": 4, "time_elapsed": 791326, "serialpos": 17, "key_press": -1, "wordID": 1415, "type": "PRES_AUD", "trial_index": 174}, "uniqueid": "MTK1826:3L4PIM1GQUNPDT1WBJTS8JFCRULYR8", "dateTime": 1516478348914}, {"current_trial": 175, "trialdata": {"rt": -1000, "trial_type": "single-audio", "word": "cookbook", "stimulus": "/static/audio/wordpool/COOKBOOK.wav", "conditions": [24, 1600, "a", 24000], "internal_node_id": "0.0-130.0", "trial": 4, "time_elapsed": 794106, "serialpos": 18, "key_press": -1, "wordID": 372, "type": "PRES_AUD", "trial_index": 175}, "uniqueid": "MTK1826:3L4PIM1GQUNPDT1WBJTS8JFCRULYR8", "dateTime": 1516478351693}, {"current_trial": 176, "trialdata": {"rt": -1000, "trial_type": "single-audio", "word": "blueprint", "stimulus": "/static/audio/wordpool/BLUEPRINT.wav", "conditions": [24, 1600, "a", 24000], "internal_node_id": "0.0-131.0", "trial": 4, "time_elapsed": 796522, "serialpos": 19, "key_press": -1, "wordID": 141, "type": "PRES_AUD", "trial_index": 176}, "uniqueid": "MTK1826:3L4PIM1GQUNPDT1WBJTS8JFCRULYR8", "dateTime": 1516478354109}, {"current_trial": 177, "trialdata": {"rt": -1000, "trial_type": "single-audio", "word": "puddle", "stimulus": "/static/audio/wordpool/PUDDLE.wav", "conditions": [24, 1600, "a", 24000], "internal_node_id": "0.0-132.0", "trial": 4, "time_elapsed": 799117, "serialpos": 20, "key_press": -1, "wordID": 1139, "type": "PRES_AUD", "trial_index": 177}, "uniqueid": "MTK1826:3L4PIM1GQUNPDT1WBJTS8JFCRULYR8", "dateTime": 1516478356704}, {"current_trial": 178, "trialdata": {"rt": -1000, "trial_type": "single-audio", "word": "harp", "stimulus": "/static/audio/wordpool/HARP.wav", "conditions": [24, 1600, "a", 24000], "internal_node_id": "0.0-133.0", "trial": 4, "time_elapsed": 801773, "serialpos": 21, "key_press": -1, "wordID": 688, "type": "PRES_AUD", "trial_index": 178}, "uniqueid": "MTK1826:3L4PIM1GQUNPDT1WBJTS8JFCRULYR8", "dateTime": 1516478359360}, {"current_trial": 179, "trialdata": {"rt": -1000, "trial_type": "single-audio", "word": "playground", "stimulus": "/static/audio/wordpool/PLAYGROUND.wav", "conditions": [24, 1600, "a", 24000], "internal_node_id": "0.0-134.0", "trial": 4, "time_elapsed": 804399, "serialpos": 22, "key_press": -1, "wordID": 1086, "type": "PRES_AUD", "trial_index": 179}, "uniqueid": "MTK1826:3L4PIM1GQUNPDT1WBJTS8JFCRULYR8", "dateTime": 1516478361987}, {"current_trial": 180, "trialdata": {"rt": -1000, "trial_type": "single-audio", "word": "clothes", "stimulus": "/static/audio/wordpool/CLOTHES.wav", "conditions": [24, 1600, "a", 24000], "internal_node_id": "0.0-135.0", "trial": 4, "time_elapsed": 806846, "serialpos": 23, "key_press": -1, "wordID": 326, "type": "PRES_AUD", "trial_index": 180}, "uniqueid": "MTK1826:3L4PIM1GQUNPDT1WBJTS8JFCRULYR8", "dateTime": 1516478364433}, {"current_trial": 181, "trialdata": {"rt": -1, "trial_type": "single-stim", "stimulus": "", "internal_node_id": "0.0-136.0-0.0", "time_elapsed": 808091, "key_press": -1, "type": "PRE_RECALL_DELAY", "trial_index": 181}, "uniqueid": "MTK1826:3L4PIM1GQUNPDT1WBJTS8JFCRULYR8", "dateTime": 1516478365679}, {"current_trial": 182, "trialdata": {"rt": -1000, "trial_type": "single-audio", "stimulus": "/static/audio/400Hz.wav", "internal_node_id": "0.0-137.0", "time_elapsed": 808593, "key_press": -1, "type": "PRE_RECALL_ALERT", "trial_index": 182}, "uniqueid": "MTK1826:3L4PIM1GQUNPDT1WBJTS8JFCRULYR8", "dateTime": 1516478366180}, {"current_trial": 183, "trialdata": {"rt": [3771, 6634, 8435, 9377, 13773, 15670, 17680, 19451, 37793, 46390], "recwords": ["dustpan", "seafood", "author", "cod", "playground", "clothes", "lava", "shark", "puddle", "broom"], "key_times": [1764, 1974, 2102, 2463, 2671, 2871, 3088, 3771, 4131, 4335, 4551, 4799, 4949, 5105, 5432, 5594, 5782, 5886, 6022, 6165, 6279, 6634, 6901, 7097, 7239, 7366, 7495, 7831, 7902, 8007, 8435, 8710, 8784, 8944, 9377, 10486, 10745, 11004, 11505, 11772, 12005, 12114, 12860, 13152, 13249, 13773, 14043, 14220, 14427, 14591, 14761, 14891, 15155, 15670, 16319, 16469, 16704, 17222, 17680, 18053, 18223, 18367, 18612, 18722, 19451, 36536, 36810, 37029, 37188, 37295, 37449, 37793, 44494, 45293, 45421, 45856, 46110, 46390], "trial_type": "free-recall", "conditions": [24, 1600, "a", 24000], "internal_node_id": "0.0-138.0-0.0", "key_presses": [68, 85, 83, 84, 80, 65, 78, 13, 83, 69, 65, 71, 79, 79, 8, 8, 8, 70, 79, 79, 68, 13, 65, 85, 84, 72, 69, 8, 79, 82, 13, 67, 79, 68, 13, 80, 76, 65, 89, 71, 82, 79, 85, 78, 68, 13, 67, 76, 79, 84, 72, 69, 83, 13, 76, 65, 86, 65, 13, 83, 72, 65, 82, 75, 13, 80, 85, 68, 68, 76, 69, 13, 66, 82, 79, 79, 77, 13], "trial": 4, "time_elapsed": 868600, "type": "FREE_RECALL", "trial_index": 183}, "uniqueid": "MTK1826:3L4PIM1GQUNPDT1WBJTS8JFCRULYR8", "dateTime": 1516478426194}, {"current_trial": 184, "trialdata": {"rt": 686, "trial_type": "text", "internal_node_id": "0.0-139.0", "time_elapsed": 871295, "key_press": 32, "type": "INSTRUCTIONS", "trial_index": 184}, "uniqueid": "MTK1826:3L4PIM1GQUNPDT1WBJTS8JFCRULYR8", "dateTime": 1516478428883}, {"current_trial": 185, "trialdata": {"rt": [2812, 4600, 6995, 9338], "trial_type": "math-distractor", "key_times": [2067, 2486, 2812, 4181, 4600, 6316, 6601, 6995, 8888, 9338, 11500], "responses": ["15", "5", "23", "9"], "num2": [8, 1, 7, 6, 9], "num3": [4, 3, 7, 1, 7], "conditions": [12, 800, "a", 12000], "internal_node_id": "0.0-140.0", "key_presses": [49, 53, 13, 53, 13, 50, 51, 13, 57, 13, 50], "trial": 5, "time_elapsed": 885303, "type": "DISTRACTOR", "trial_index": 185, "num1": [3, 1, 9, 2, 7]}, "uniqueid": "MTK1826:3L4PIM1GQUNPDT1WBJTS8JFCRULYR8", "dateTime": 1516478442891}, {"current_trial": 186, "trialdata": {"rt": -1, "trial_type": "single-stim", "stimulus": "<p id=\"stim\">10</p>", "internal_node_id": "0.0-141.0-0.0", "time_elapsed": 888306, "key_press": -1, "trial_index": 186}, "uniqueid": "MTK1826:3L4PIM1GQUNPDT1WBJTS8JFCRULYR8", "dateTime": 1516478445893}, {"current_trial": 187, "trialdata": {"rt": -1, "trial_type": "single-stim", "stimulus": "<p id=\"stim\">9</p>", "internal_node_id": "0.0-141.0-1.0", "time_elapsed": 889307, "key_press": -1, "trial_index": 187}, "uniqueid": "MTK1826:3L4PIM1GQUNPDT1WBJTS8JFCRULYR8", "dateTime": 1516478446895}, {"current_trial": 188, "trialdata": {"rt": -1, "trial_type": "single-stim", "stimulus": "<p id=\"stim\">8</p>", "internal_node_id": "0.0-141.0-2.0", "time_elapsed": 890309, "key_press": -1, "trial_index": 188}, "uniqueid": "MTK1826:3L4PIM1GQUNPDT1WBJTS8JFCRULYR8", "dateTime": 1516478447896}, {"current_trial": 189, "trialdata": {"rt": -1, "trial_type": "single-stim", "stimulus": "<p id=\"stim\">7</p>", "internal_node_id": "0.0-141.0-3.0", "time_elapsed": 891310, "key_press": -1, "trial_index": 189}, "uniqueid": "MTK1826:3L4PIM1GQUNPDT1WBJTS8JFCRULYR8", "dateTime": 1516478448898}, {"current_trial": 190, "trialdata": {"rt": -1, "trial_type": "single-stim", "stimulus": "<p id=\"stim\">6</p>", "internal_node_id": "0.0-141.0-4.0", "time_elapsed": 892312, "key_press": -1, "trial_index": 190}, "uniqueid": "MTK1826:3L4PIM1GQUNPDT1WBJTS8JFCRULYR8", "dateTime": 1516478449899}, {"current_trial": 191, "trialdata": {"rt": -1, "trial_type": "single-stim", "stimulus": "<p id=\"stim\">5</p>", "internal_node_id": "0.0-141.0-5.0", "time_elapsed": 893314, "key_press": -1, "trial_index": 191}, "uniqueid": "MTK1826:3L4PIM1GQUNPDT1WBJTS8JFCRULYR8", "dateTime": 1516478450901}, {"current_trial": 192, "trialdata": {"rt": -1, "trial_type": "single-stim", "stimulus": "<p id=\"stim\">4</p>", "internal_node_id": "0.0-141.0-6.0", "time_elapsed": 894316, "key_press": -1, "trial_index": 192}, "uniqueid": "MTK1826:3L4PIM1GQUNPDT1WBJTS8JFCRULYR8", "dateTime": 1516478451904}, {"current_trial": 193, "trialdata": {"rt": -1, "trial_type": "single-stim", "stimulus": "<p id=\"stim\">3</p>", "internal_node_id": "0.0-141.0-7.0", "time_elapsed": 895318, "key_press": -1, "trial_index": 193}, "uniqueid": "MTK1826:3L4PIM1GQUNPDT1WBJTS8JFCRULYR8", "dateTime": 1516478452905}, {"current_trial": 194, "trialdata": {"rt": -1, "trial_type": "single-stim", "stimulus": "<p id=\"stim\">2</p>", "internal_node_id": "0.0-141.0-8.0", "time_elapsed": 896319, "key_press": -1, "trial_index": 194}, "uniqueid": "MTK1826:3L4PIM1GQUNPDT1WBJTS8JFCRULYR8", "dateTime": 1516478453906}, {"current_trial": 195, "trialdata": {"rt": -1, "trial_type": "single-stim", "stimulus": "<p id=\"stim\">1</p>", "internal_node_id": "0.0-141.0-9.0", "time_elapsed": 897321, "key_press": -1, "trial_index": 195}, "uniqueid": "MTK1826:3L4PIM1GQUNPDT1WBJTS8JFCRULYR8", "dateTime": 1516478454909}, {"current_trial": 196, "trialdata": {"rt": -1, "trial_type": "single-stim", "stimulus": "<p id=\"stim\">+</p>", "internal_node_id": "0.0-142.0-0.0", "time_elapsed": 898823, "key_press": -1, "type": "FIXATION", "trial_index": 196}, "uniqueid": "MTK1826:3L4PIM1GQUNPDT1WBJTS8JFCRULYR8", "dateTime": 1516478456411}, {"current_trial": 197, "trialdata": {"rt": -1000, "trial_type": "single-audio", "word": "valve", "stimulus": "/static/audio/wordpool/VALVE.wav", "conditions": [12, 800, "a", 12000], "internal_node_id": "0.0-143.0", "trial": 5, "time_elapsed": 900765, "serialpos": 0, "key_press": -1, "wordID": 1545, "type": "PRES_AUD", "trial_index": 197}, "uniqueid": "MTK1826:3L4PIM1GQUNPDT1WBJTS8JFCRULYR8", "dateTime": 1516478458352}, {"current_trial": 198, "trialdata": {"rt": -1000, "trial_type": "single-audio", "word": "child", "stimulus": "/static/audio/wordpool/CHILD.wav", "conditions": [12, 800, "a", 12000], "internal_node_id": "0.0-144.0", "trial": 5, "time_elapsed": 902608, "serialpos": 1, "key_press": -1, "wordID": 298, "type": "PRES_AUD", "trial_index": 198}, "uniqueid": "MTK1826:3L4PIM1GQUNPDT1WBJTS8JFCRULYR8", "dateTime": 1516478460195}, {"current_trial": 199, "trialdata": {"rt": -1000, "trial_type": "single-audio", "word": "bucket", "stimulus": "/static/audio/wordpool/BUCKET.wav", "conditions": [12, 800, "a", 12000], "internal_node_id": "0.0-145.0", "trial": 5, "time_elapsed": 904376, "serialpos": 2, "key_press": -1, "wordID": 183, "type": "PRES_AUD", "trial_index": 199}, "uniqueid": "MTK1826:3L4PIM1GQUNPDT1WBJTS8JFCRULYR8", "dateTime": 1516478461964}, {"current_trial": 200, "trialdata": {"rt": -1000, "trial_type": "single-audio", "word": "salt", "stimulus": "/static/audio/wordpool/SALT.wav", "conditions": [12, 800, "a", 12000], "internal_node_id": "0.0-146.0", "trial": 5, "time_elapsed": 906163, "serialpos": 3, "key_press": -1, "wordID": 1228, "type": "PRES_AUD", "trial_index": 200}, "uniqueid": "MTK1826:3L4PIM1GQUNPDT1WBJTS8JFCRULYR8", "dateTime": 1516478463751}, {"current_trial": 201, "trialdata": {"rt": -1000, "trial_type": "single-audio", "word": "lamp", "stimulus": "/static/audio/wordpool/LAMP.wav", "conditions": [12, 800, "a", 12000], "internal_node_id": "0.0-147.0", "trial": 5, "time_elapsed": 907908, "serialpos": 4, "key_press": -1, "wordID": 797, "type": "PRES_AUD", "trial_index": 201}, "uniqueid": "MTK1826:3L4PIM1GQUNPDT1WBJTS8JFCRULYR8", "dateTime": 1516478465496}, {"current_trial": 202, "trialdata": {"rt": -1000, "trial_type": "single-audio", "word": "velvet", "stimulus": "/static/audio/wordpool/VELVET.wav", "conditions": [12, 800, "a", 12000], "internal_node_id": "0.0-148.0", "trial": 5, "time_elapsed": 909700, "serialpos": 5, "key_press": -1, "wordID": 1554, "type": "PRES_AUD", "trial_index": 202}, "uniqueid": "MTK1826:3L4PIM1GQUNPDT1WBJTS8JFCRULYR8", "dateTime": 1516478467287}, {"current_trial": 203, "trialdata": {"rt": -1000, "trial_type": "single-audio", "word": "crutch", "stimulus": "/static/audio/wordpool/CRUTCH.wav", "conditions": [12, 800, "a", 12000], "internal_node_id": "0.0-149.0", "trial": 5, "time_elapsed": 911438, "serialpos": 6, "key_press": -1, "wordID": 416, "type": "PRES_AUD", "trial_index": 203}, "uniqueid": "MTK1826:3L4PIM1GQUNPDT1WBJTS8JFCRULYR8", "dateTime": 1516478469026}, {"current_trial": 204, "trialdata": {"rt": -1000, "trial_type": "single-audio", "word": "army", "stimulus": "/static/audio/wordpool/ARMY.wav", "conditions": [12, 800, "a", 12000], "internal_node_id": "0.0-150.0", "trial": 5, "time_elapsed": 913310, "serialpos": 7, "key_press": -1, "wordID": 38, "type": "PRES_AUD", "trial_index": 204}, "uniqueid": "MTK1826:3L4PIM1GQUNPDT1WBJTS8JFCRULYR8", "dateTime": 1516478470897}, {"current_trial": 205, "trialdata": {"rt": -1000, "trial_type": "single-audio", "word": "leopard", "stimulus": "/static/audio/wordpool/LEOPARD.wav", "conditions": [12, 800, "a", 12000], "internal_node_id": "0.0-151.0", "trial": 5, "time_elapsed": 915175, "serialpos": 8, "key_press": -1, "wordID": 811, "type": "PRES_AUD", "trial_index": 205}, "uniqueid": "MTK1826:3L4PIM1GQUNPDT1WBJTS8JFCRULYR8", "dateTime": 1516478472762}, {"current_trial": 206, "trialdata": {"rt": -1000, "trial_type": "single-audio", "word": "panther", "stimulus": "/static/audio/wordpool/PANTHER.wav", "conditions": [12, 800, "a", 12000], "internal_node_id": "0.0-152.0", "trial": 5, "time_elapsed": 916847, "serialpos": 9, "key_press": -1, "wordID": 1008, "type": "PRES_AUD", "trial_index": 206}, "uniqueid": "MTK1826:3L4PIM1GQUNPDT1WBJTS8JFCRULYR8", "dateTime": 1516478474434}, {"current_trial": 207, "trialdata": {"rt": -1000, "trial_type": "single-audio", "word": "primate", "stimulus": "/static/audio/wordpool/PRIMATE.wav", "conditions": [12, 800, "a", 12000], "internal_node_id": "0.0-153.0", "trial": 5, "time_elapsed": 918758, "serialpos": 10, "key_press": -1, "wordID": 1122, "type": "PRES_AUD", "trial_index": 207}, "uniqueid": "MTK1826:3L4PIM1GQUNPDT1WBJTS8JFCRULYR8", "dateTime": 1516478476345}, {"current_trial": 208, "trialdata": {"rt": -1000, "trial_type": "single-audio", "word": "baby", "stimulus": "/static/audio/wordpool/BABY.wav", "conditions": [12, 800, "a", 12000], "internal_node_id": "0.0-154.0", "trial": 5, "time_elapsed": 920575, "serialpos": 11, "key_press": -1, "wordID": 63, "type": "PRES_AUD", "trial_index": 208}, "uniqueid": "MTK1826:3L4PIM1GQUNPDT1WBJTS8JFCRULYR8", "dateTime": 1516478478163}, {"current_trial": 209, "trialdata": {"rt": -1, "trial_type": "single-stim", "stimulus": "", "internal_node_id": "0.0-155.0-0.0", "time_elapsed": 921807, "key_press": -1, "type": "PRE_RECALL_DELAY", "trial_index": 209}, "uniqueid": "MTK1826:3L4PIM1GQUNPDT1WBJTS8JFCRULYR8", "dateTime": 1516478479394}, {"current_trial": 210, "trialdata": {"rt": -1000, "trial_type": "single-audio", "stimulus": "/static/audio/400Hz.wav", "internal_node_id": "0.0-156.0", "time_elapsed": 922308, "key_press": -1, "type": "PRE_RECALL_ALERT", "trial_index": 210}, "uniqueid": "MTK1826:3L4PIM1GQUNPDT1WBJTS8JFCRULYR8", "dateTime": 1516478479895}, {"current_trial": 211, "trialdata": {"rt": [4589, 6655, 9599], "recwords": ["leopard", "primate", "baby"], "key_times": [1896, 2248, 2537, 2949, 3306, 3462, 3757, 3953, 4194, 4398, 4589, 4860, 4999, 5172, 5452, 5553, 5788, 5964, 6655, 7005, 7157, 7281, 7714, 9599, 58585, 58849, 59046, 59260, 59375, 59590, 59755], "trial_type": "free-recall", "conditions": [12, 800, "a", 12000], "internal_node_id": "0.0-157.0-0.0", "key_presses": [76, 69, 80, 144, 8, 79, 80, 65, 82, 68, 13, 80, 82, 73, 77, 65, 84, 69, 13, 66, 65, 66, 89, 13, 70, 82, 69, 67, 75, 76, 69], "trial": 5, "time_elapsed": 982314, "type": "FREE_RECALL", "trial_index": 211}, "uniqueid": "MTK1826:3L4PIM1GQUNPDT1WBJTS8JFCRULYR8", "dateTime": 1516478539909}, {"current_trial": 212, "trialdata": {"rt": 1165, "trial_type": "text", "internal_node_id": "0.0-158.0", "time_elapsed": 985489, "key_press": 13, "type": "INSTRUCTIONS", "trial_index": 212}, "uniqueid": "MTK1826:3L4PIM1GQUNPDT1WBJTS8JFCRULYR8", "dateTime": 1516478543076}, {"current_trial": 213, "trialdata": {"rt": [2755, 6147, 9322, 11647], "trial_type": "math-distractor", "key_times": [2232, 2404, 2755, 5200, 5739, 6147, 7757, 8826, 9322, 11015, 11293, 11647], "responses": ["17", "21", "17", "14"], "num2": [9, 8, 8, 3, 8], "num3": [3, 9, 7, 6, 6], "conditions": [12, 800, "a", 12000], "internal_node_id": "0.0-159.0", "key_presses": [49, 55, 13, 50, 49, 13, 49, 55, 13, 49, 52, 13], "trial": 6, "time_elapsed": 999494, "type": "DISTRACTOR", "trial_index": 213, "num1": [5, 4, 2, 5, 4]}, "uniqueid": "MTK1826:3L4PIM1GQUNPDT1WBJTS8JFCRULYR8", "dateTime": 1516478557081}, {"current_trial": 214, "trialdata": {"rt": -1, "trial_type": "single-stim", "stimulus": "<p id=\"stim\">10</p>", "internal_node_id": "0.0-160.0-0.0", "time_elapsed": 1002496, "key_press": -1, "trial_index": 214}, "uniqueid": "MTK1826:3L4PIM1GQUNPDT1WBJTS8JFCRULYR8", "dateTime": 1516478560083}, {"current_trial": 215, "trialdata": {"rt": -1, "trial_type": "single-stim", "stimulus": "<p id=\"stim\">9</p>", "internal_node_id": "0.0-160.0-1.0", "time_elapsed": 1003497, "key_press": -1, "trial_index": 215}, "uniqueid": "MTK1826:3L4PIM1GQUNPDT1WBJTS8JFCRULYR8", "dateTime": 1516478561085}, {"current_trial": 216, "trialdata": {"rt": -1, "trial_type": "single-stim", "stimulus": "<p id=\"stim\">8</p>", "internal_node_id": "0.0-160.0-2.0", "time_elapsed": 1004499, "key_press": -1, "trial_index": 216}, "uniqueid": "MTK1826:3L4PIM1GQUNPDT1WBJTS8JFCRULYR8", "dateTime": 1516478562087}, {"current_trial": 217, "trialdata": {"rt": -1, "trial_type": "single-stim", "stimulus": "<p id=\"stim\">7</p>", "internal_node_id": "0.0-160.0-3.0", "time_elapsed": 1005501, "key_press": -1, "trial_index": 217}, "uniqueid": "MTK1826:3L4PIM1GQUNPDT1WBJTS8JFCRULYR8", "dateTime": 1516478563089}, {"current_trial": 218, "trialdata": {"rt": -1, "trial_type": "single-stim", "stimulus": "<p id=\"stim\">6</p>", "internal_node_id": "0.0-160.0-4.0", "time_elapsed": 1006503, "key_press": -1, "trial_index": 218}, "uniqueid": "MTK1826:3L4PIM1GQUNPDT1WBJTS8JFCRULYR8", "dateTime": 1516478564090}, {"current_trial": 219, "trialdata": {"rt": -1, "trial_type": "single-stim", "stimulus": "<p id=\"stim\">5</p>", "internal_node_id": "0.0-160.0-5.0", "time_elapsed": 1007505, "key_press": -1, "trial_index": 219}, "uniqueid": "MTK1826:3L4PIM1GQUNPDT1WBJTS8JFCRULYR8", "dateTime": 1516478565093}, {"current_trial": 220, "trialdata": {"rt": -1, "trial_type": "single-stim", "stimulus": "<p id=\"stim\">4</p>", "internal_node_id": "0.0-160.0-6.0", "time_elapsed": 1008507, "key_press": -1, "trial_index": 220}, "uniqueid": "MTK1826:3L4PIM1GQUNPDT1WBJTS8JFCRULYR8", "dateTime": 1516478566094}, {"current_trial": 221, "trialdata": {"rt": -1, "trial_type": "single-stim", "stimulus": "<p id=\"stim\">3</p>", "internal_node_id": "0.0-160.0-7.0", "time_elapsed": 1009509, "key_press": -1, "trial_index": 221}, "uniqueid": "MTK1826:3L4PIM1GQUNPDT1WBJTS8JFCRULYR8", "dateTime": 1516478567096}, {"current_trial": 222, "trialdata": {"rt": -1, "trial_type": "single-stim", "stimulus": "<p id=\"stim\">2</p>", "internal_node_id": "0.0-160.0-8.0", "time_elapsed": 1010510, "key_press": -1, "trial_index": 222}, "uniqueid": "MTK1826:3L4PIM1GQUNPDT1WBJTS8JFCRULYR8", "dateTime": 1516478568097}, {"current_trial": 223, "trialdata": {"rt": -1, "trial_type": "single-stim", "stimulus": "<p id=\"stim\">1</p>", "internal_node_id": "0.0-160.0-9.0", "time_elapsed": 1011511, "key_press": -1, "trial_index": 223}, "uniqueid": "MTK1826:3L4PIM1GQUNPDT1WBJTS8JFCRULYR8", "dateTime": 1516478569099}, {"current_trial": 224, "trialdata": {"rt": -1, "trial_type": "single-stim", "stimulus": "<p id=\"stim\">+</p>", "internal_node_id": "0.0-161.0-0.0", "time_elapsed": 1013013, "key_press": -1, "type": "FIXATION", "trial_index": 224}, "uniqueid": "MTK1826:3L4PIM1GQUNPDT1WBJTS8JFCRULYR8", "dateTime": 1516478570600}, {"current_trial": 225, "trialdata": {"rt": -1000, "trial_type": "single-audio", "word": "ankle", "stimulus": "/static/audio/wordpool/ANKLE.wav", "conditions": [12, 800, "a", 12000], "internal_node_id": "0.0-162.0", "trial": 6, "time_elapsed": 1014721, "serialpos": 0, "key_press": -1, "wordID": 23, "type": "PRES_AUD", "trial_index": 225}, "uniqueid": "MTK1826:3L4PIM1GQUNPDT1WBJTS8JFCRULYR8", "dateTime": 1516478572308}, {"current_trial": 226, "trialdata": {"rt": -1000, "trial_type": "single-audio", "word": "piston", "stimulus": "/static/audio/wordpool/PISTON.wav", "conditions": [12, 800, "a", 12000], "internal_node_id": "0.0-163.0", "trial": 6, "time_elapsed": 1016369, "serialpos": 1, "key_press": -1, "wordID": 1075, "type": "PRES_AUD", "trial_index": 226}, "uniqueid": "MTK1826:3L4PIM1GQUNPDT1WBJTS8JFCRULYR8", "dateTime": 1516478573957}, {"current_trial": 227, "trialdata": {"rt": -1000, "trial_type": "single-audio", "word": "poison", "stimulus": "/static/audio/wordpool/POISON.wav", "conditions": [12, 800, "a", 12000], "internal_node_id": "0.0-164.0", "trial": 6, "time_elapsed": 1018215, "serialpos": 2, "key_press": -1, "wordID": 1095, "type": "PRES_AUD", "trial_index": 227}, "uniqueid": "MTK1826:3L4PIM1GQUNPDT1WBJTS8JFCRULYR8", "dateTime": 1516478575802}, {"current_trial": 228, "trialdata": {"rt": -1000, "trial_type": "single-audio", "word": "friend", "stimulus": "/static/audio/wordpool/FRIEND.wav", "conditions": [12, 800, "a", 12000], "internal_node_id": "0.0-165.0", "trial": 6, "time_elapsed": 1019820, "serialpos": 3, "key_press": -1, "wordID": 605, "type": "PRES_AUD", "trial_index": 228}, "uniqueid": "MTK1826:3L4PIM1GQUNPDT1WBJTS8JFCRULYR8", "dateTime": 1516478577407}, {"current_trial": 229, "trialdata": {"rt": -1000, "trial_type": "single-audio", "word": "uncle", "stimulus": "/static/audio/wordpool/UNCLE.wav", "conditions": [12, 800, "a", 12000], "internal_node_id": "0.0-166.0", "trial": 6, "time_elapsed": 1021768, "serialpos": 4, "key_press": -1, "wordID": 1535, "type": "PRES_AUD", "trial_index": 229}, "uniqueid": "MTK1826:3L4PIM1GQUNPDT1WBJTS8JFCRULYR8", "dateTime": 1516478579355}, {"current_trial": 230, "trialdata": {"rt": -1000, "trial_type": "single-audio", "word": "student", "stimulus": "/static/audio/wordpool/STUDENT.wav", "conditions": [12, 800, "a", 12000], "internal_node_id": "0.0-167.0", "trial": 6, "time_elapsed": 1023373, "serialpos": 5, "key_press": -1, "wordID": 1394, "type": "PRES_AUD", "trial_index": 230}, "uniqueid": "MTK1826:3L4PIM1GQUNPDT1WBJTS8JFCRULYR8", "dateTime": 1516478580960}, {"current_trial": 231, "trialdata": {"rt": -1000, "trial_type": "single-audio", "word": "carrot", "stimulus": "/static/audio/wordpool/CARROT.wav", "conditions": [12, 800, "a", 12000], "internal_node_id": "0.0-168.0", "trial": 6, "time_elapsed": 1025081, "serialpos": 6, "key_press": -1, "wordID": 248, "type": "PRES_AUD", "trial_index": 231}, "uniqueid": "MTK1826:3L4PIM1GQUNPDT1WBJTS8JFCRULYR8", "dateTime": 1516478582668}, {"current_trial": 232, "trialdata": {"rt": -1000, "trial_type": "single-audio", "word": "stomach", "stimulus": "/static/audio/wordpool/STOMACH.wav", "conditions": [12, 800, "a", 12000], "internal_node_id": "0.0-169.0", "trial": 6, "time_elapsed": 1026871, "serialpos": 7, "key_press": -1, "wordID": 1383, "type": "PRES_AUD", "trial_index": 232}, "uniqueid": "MTK1826:3L4PIM1GQUNPDT1WBJTS8JFCRULYR8", "dateTime": 1516478584458}, {"current_trial": 233, "trialdata": {"rt": -1000, "trial_type": "single-audio", "word": "leg", "stimulus": "/static/audio/wordpool/LEG.wav", "conditions": [12, 800, "a", 12000], "internal_node_id": "0.0-170.0", "trial": 6, "time_elapsed": 1028772, "serialpos": 8, "key_press": -1, "wordID": 808, "type": "PRES_AUD", "trial_index": 233}, "uniqueid": "MTK1826:3L4PIM1GQUNPDT1WBJTS8JFCRULYR8", "dateTime": 1516478586359}, {"current_trial": 234, "trialdata": {"rt": -1000, "trial_type": "single-audio", "word": "lily", "stimulus": "/static/audio/wordpool/LILY.wav", "conditions": [12, 800, "a", 12000], "internal_node_id": "0.0-171.0", "trial": 6, "time_elapsed": 1030457, "serialpos": 9, "key_press": -1, "wordID": 820, "type": "PRES_AUD", "trial_index": 234}, "uniqueid": "MTK1826:3L4PIM1GQUNPDT1WBJTS8JFCRULYR8", "dateTime": 1516478588045}, {"current_trial": 235, "trialdata": {"rt": -1000, "trial_type": "single-audio", "word": "contract", "stimulus": "/static/audio/wordpool/CONTRACT.wav", "conditions": [12, 800, "a", 12000], "internal_node_id": "0.0-172.0", "trial": 6, "time_elapsed": 1032118, "serialpos": 10, "key_press": -1, "wordID": 367, "type": "PRES_AUD", "trial_index": 235}, "uniqueid": "MTK1826:3L4PIM1GQUNPDT1WBJTS8JFCRULYR8", "dateTime": 1516478589706}, {"current_trial": 236, "trialdata": {"rt": -1000, "trial_type": "single-audio", "word": "agent", "stimulus": "/static/audio/wordpool/AGENT.wav", "conditions": [12, 800, "a", 12000], "internal_node_id": "0.0-173.0", "trial": 6, "time_elapsed": 1033859, "serialpos": 11, "key_press": -1, "wordID": 9, "type": "PRES_AUD", "trial_index": 236}, "uniqueid": "MTK1826:3L4PIM1GQUNPDT1WBJTS8JFCRULYR8", "dateTime": 1516478591446}, {"current_trial": 237, "trialdata": {"rt": -1, "trial_type": "single-stim", "stimulus": "", "internal_node_id": "0.0-174.0-0.0", "time_elapsed": 1035238, "key_press": -1, "type": "PRE_RECALL_DELAY", "trial_index": 237}, "uniqueid": "MTK1826:3L4PIM1GQUNPDT1WBJTS8JFCRULYR8", "dateTime": 1516478592825}, {"current_trial": 238, "trialdata": {"rt": -1000, "trial_type": "single-audio", "stimulus": "/static/audio/400Hz.wav", "internal_node_id": "0.0-175.0", "time_elapsed": 1035741, "key_press": -1, "type": "PRE_RECALL_ALERT", "trial_index": 238}, "uniqueid": "MTK1826:3L4PIM1GQUNPDT1WBJTS8JFCRULYR8", "dateTime": 1516478593328}, {"current_trial": 239, "trialdata": {"rt": [3409, 5028, 6730, 8763, 11917, 14585], "recwords": ["ankle", "piston", "student", "contact", "agent", "lilly"], "key_times": [1833, 2057, 2623, 2912, 3045, 3409, 3665, 3890, 4079, 4393, 4519, 4742, 5028, 5279, 5548, 5677, 5840, 6079, 6186, 6336, 6730, 6952, 7096, 7330, 7509, 7773, 8067, 8339, 8763, 9063, 9328, 9552, 9666, 9798, 10973, 11168, 11917, 13603, 13835, 14074, 14204, 14305, 14585], "trial_type": "free-recall", "conditions": [12, 800, "a", 12000], "internal_node_id": "0.0-176.0-0.0", "key_presses": [65, 78, 75, 76, 69, 13, 80, 73, 83, 84, 79, 78, 13, 83, 84, 85, 68, 69, 78, 84, 13, 67, 79, 78, 84, 65, 67, 84, 13, 65, 71, 69, 78, 68, 8, 84, 13, 76, 73, 76, 76, 89, 13], "trial": 6, "time_elapsed": 1095747, "type": "FREE_RECALL", "trial_index": 239}, "uniqueid": "MTK1826:3L4PIM1GQUNPDT1WBJTS8JFCRULYR8", "dateTime": 1516478653342}, {"current_trial": 240, "trialdata": {"rt": 669, "trial_type": "text", "internal_node_id": "0.0-177.0", "time_elapsed": 1098426, "key_press": 32, "type": "INSTRUCTIONS", "trial_index": 240}, "uniqueid": "MTK1826:3L4PIM1GQUNPDT1WBJTS8JFCRULYR8", "dateTime": 1516478656013}, {"current_trial": 241, "trialdata": {"rt": [2844, 5379, 7237, 9327, 10991, 16712, 19152, 23906], "trial_type": "math-distractor", "key_times": [2487, 2610, 2844, 4323, 4649, 5014, 5133, 5379, 6565, 6798, 7237, 8399, 8685, 9019, 9106, 9327, 10354, 10657, 10991, 14794, 15224, 15752, 16001, 16712, 18316, 18602, 19152, 21137, 21441, 22087, 22261, 22744, 23049, 23463, 23593, 23906], "responses": ["22", "17", "12", "14", "16", "20", "15", "20"], "num2": [4, 5, 4, 4, 9, 9, 1, 6, 8], "num3": [9, 7, 6, 2, 1, 5, 6, 7, 2], "conditions": [24, 800, "a", 24000], "internal_node_id": "0.0-178.0", "key_presses": [50, 50, 13, 49, 54, 8, 55, 13, 49, 50, 13, 49, 53, 8, 52, 13, 49, 54, 13, 50, 57, 8, 48, 13, 49, 53, 13, 50, 57, 8, 56, 8, 57, 8, 48, 13], "trial": 7, "time_elapsed": 1124434, "type": "DISTRACTOR", "trial_index": 241, "num1": [9, 5, 2, 8, 6, 6, 8, 7, 7]}, "uniqueid": "MTK1826:3L4PIM1GQUNPDT1WBJTS8JFCRULYR8", "dateTime": 1516478682022}, {"current_trial": 242, "trialdata": {"rt": -1, "trial_type": "single-stim", "stimulus": "<p id=\"stim\">10</p>", "internal_node_id": "0.0-179.0-0.0", "time_elapsed": 1127439, "key_press": -1, "trial_index": 242}, "uniqueid": "MTK1826:3L4PIM1GQUNPDT1WBJTS8JFCRULYR8", "dateTime": 1516478685026}, {"current_trial": 243, "trialdata": {"rt": -1, "trial_type": "single-stim", "stimulus": "<p id=\"stim\">9</p>", "internal_node_id": "0.0-179.0-1.0", "time_elapsed": 1128441, "key_press": -1, "trial_index": 243}, "uniqueid": "MTK1826:3L4PIM1GQUNPDT1WBJTS8JFCRULYR8", "dateTime": 1516478686029}, {"current_trial": 244, "trialdata": {"rt": -1, "trial_type": "single-stim", "stimulus": "<p id=\"stim\">8</p>", "internal_node_id": "0.0-179.0-2.0", "time_elapsed": 1129444, "key_press": -1, "trial_index": 244}, "uniqueid": "MTK1826:3L4PIM1GQUNPDT1WBJTS8JFCRULYR8", "dateTime": 1516478687031}, {"current_trial": 245, "trialdata": {"rt": -1, "trial_type": "single-stim", "stimulus": "<p id=\"stim\">7</p>", "internal_node_id": "0.0-179.0-3.0", "time_elapsed": 1130445, "key_press": -1, "trial_index": 245}, "uniqueid": "MTK1826:3L4PIM1GQUNPDT1WBJTS8JFCRULYR8", "dateTime": 1516478688032}, {"current_trial": 246, "trialdata": {"rt": -1, "trial_type": "single-stim", "stimulus": "<p id=\"stim\">6</p>", "internal_node_id": "0.0-179.0-4.0", "time_elapsed": 1131446, "key_press": -1, "trial_index": 246}, "uniqueid": "MTK1826:3L4PIM1GQUNPDT1WBJTS8JFCRULYR8", "dateTime": 1516478689034}, {"current_trial": 247, "trialdata": {"rt": -1, "trial_type": "single-stim", "stimulus": "<p id=\"stim\">5</p>", "internal_node_id": "0.0-179.0-5.0", "time_elapsed": 1132447, "key_press": -1, "trial_index": 247}, "uniqueid": "MTK1826:3L4PIM1GQUNPDT1WBJTS8JFCRULYR8", "dateTime": 1516478690035}, {"current_trial": 248, "trialdata": {"rt": -1, "trial_type": "single-stim", "stimulus": "<p id=\"stim\">4</p>", "internal_node_id": "0.0-179.0-6.0", "time_elapsed": 1133449, "key_press": -1, "trial_index": 248}, "uniqueid": "MTK1826:3L4PIM1GQUNPDT1WBJTS8JFCRULYR8", "dateTime": 1516478691036}, {"current_trial": 249, "trialdata": {"rt": -1, "trial_type": "single-stim", "stimulus": "<p id=\"stim\">3</p>", "internal_node_id": "0.0-179.0-7.0", "time_elapsed": 1134451, "key_press": -1, "trial_index": 249}, "uniqueid": "MTK1826:3L4PIM1GQUNPDT1WBJTS8JFCRULYR8", "dateTime": 1516478692038}, {"current_trial": 250, "trialdata": {"rt": -1, "trial_type": "single-stim", "stimulus": "<p id=\"stim\">2</p>", "internal_node_id": "0.0-179.0-8.0", "time_elapsed": 1135452, "key_press": -1, "trial_index": 250}, "uniqueid": "MTK1826:3L4PIM1GQUNPDT1WBJTS8JFCRULYR8", "dateTime": 1516478693039}, {"current_trial": 251, "trialdata": {"rt": -1, "trial_type": "single-stim", "stimulus": "<p id=\"stim\">1</p>", "internal_node_id": "0.0-179.0-9.0", "time_elapsed": 1136453, "key_press": -1, "trial_index": 251}, "uniqueid": "MTK1826:3L4PIM1GQUNPDT1WBJTS8JFCRULYR8", "dateTime": 1516478694040}, {"current_trial": 252, "trialdata": {"rt": -1, "trial_type":