{"assignmentId": "34T446B1C1LOAWGSLESORWM6E6T0C8", "workerId": "MTK1806", "questiondata": {"avail_screen_height": 1456, "color_depth": 24, "screen_width": 2732, "pixel_depth": 24, "avail_screen_width": 2732, "screen_height": 1536}, "bonus": 0, "hitId": "3RWB1RTQDJUNZQW5VLM7FRVBERE8PQ", "counterbalance": 1864, "useragent": "Mozilla/5.0 (Windows NT 10.0; Win64; x64; rv:57.0) Gecko/20100101 Firefox/57.0", "eventdata": [{"eventtype": "initialized", "interval": 0, "value": null, "timestamp": 1516308327333}, {"eventtype": "window_resize", "interval": 1, "value": [2700, 1302], "timestamp": 1516308327334}, {"eventtype": "window_resize", "interval": 7431, "value": [1350, 651], "timestamp": 1516308334765}, {"eventtype": "window_resize", "interval": 4429, "value": [1508, 727], "timestamp": 1516308339194}, {"eventtype": "window_resize", "interval": 481, "value": [1688, 814], "timestamp": 1516308339675}, {"eventtype": "window_resize", "interval": 434, "value": [2025, 977], "timestamp": 1516308340109}, {"eventtype": "window_resize", "interval": 403, "value": [2700, 1302], "timestamp": 1516308340512}, {"eventtype": "window_resize", "interval": 720, "value": [4500, 2170], "timestamp": 1516308341232}, {"eventtype": "window_resize", "interval": 865, "value": [2700, 1302], "timestamp": 1516308342097}, {"eventtype": "window_resize", "interval": 93788, "value": [1350, 651], "timestamp": 1516308435885}, {"eventtype": "window_resize", "interval": 11442, "value": [1508, 727], "timestamp": 1516308447327}, {"eventtype": "window_resize", "interval": 769, "value": [1688, 814], "timestamp": 1516308448096}, {"eventtype": "focus", "interval": 658306, "value": "off", "timestamp": 1516309106402}, {"eventtype": "focus", "interval": 105763, "value": "on", "timestamp": 1516309212165}, {"eventtype": "focus", "interval": 42809, "value": "off", "timestamp": 1516309254974}, {"eventtype": "focus", "interval": 23878, "value": "on", "timestamp": 1516309278852}, {"eventtype": "focus", "interval": 15042, "value": "off", "timestamp": 1516309293894}, {"eventtype": "focus", "interval": 3993, "value": "on", "timestamp": 1516309297887}, {"eventtype": "focus", "interval": 5323, "value": "off", "timestamp": 1516309303210}, {"eventtype": "focus", "interval": 36085, "value": "on", "timestamp": 1516309339295}, {"eventtype": "focus", "interval": 33553, "value": "off", "timestamp": 1516309372848}, {"eventtype": "focus", "interval": 45917, "value": "on", "timestamp": 1516309418765}, {"eventtype": "focus", "interval": 34368, "value": "off", "timestamp": 1516309453133}, {"eventtype": "focus", "interval": 50545, "value": "on", "timestamp": 1516309503678}, {"eventtype": "focus", "interval": 98970, "value": "off", "timestamp": 1516309602648}, {"eventtype": "focus", "interval": 154570, "value": "on", "timestamp": 1516309757218}, {"eventtype": "focus", "interval": 5430, "value": "off", "timestamp": 1516309762648}, {"eventtype": "focus", "interval": 208170, "value": "on", "timestamp": 1516309970818}, {"eventtype": "focus", "interval": 139103, "value": "off", "timestamp": 1516310109921}, {"eventtype": "focus", "interval": 7061, "value": "on", "timestamp": 1516310116982}], "data": [{"current_trial": 0, "trialdata": {"rt": 2915, "trial_type": "text", "internal_node_id": "0.0-0.0", "time_elapsed": 2916, "key_press": 89, "type": "INSTRUCTIONS", "trial_index": 0}, "uniqueid": "MTK1806:34T446B1C1LOAWGSLESORWM6E6T0C8", "dateTime": 1516308345597}, {"current_trial": 1, "trialdata": {"rt": 19651, "trial_type": "text", "internal_node_id": "0.0-1.0", "time_elapsed": 22570, "key_press": 72, "type": "INSTRUCTIONS", "trial_index": 1}, "uniqueid": "MTK1806:34T446B1C1LOAWGSLESORWM6E6T0C8", "dateTime": 1516308365250}, {"current_trial": 2, "trialdata": {"rt": [33169], "trial_type": "audio-test", "responses": ["ocean"], "internal_node_id": "0.0-2.0", "time_elapsed": 56011, "type": "AUDIO_TEST", "trial_index": 2}, "uniqueid": "MTK1806:34T446B1C1LOAWGSLESORWM6E6T0C8", "dateTime": 1516308398691}, {"current_trial": 3, "trialdata": {"rt": [7079], "trial_type": "audio-test", "responses": ["crystal"], "internal_node_id": "0.0-3.0", "time_elapsed": 63104, "type": "AUDIO_TEST", "trial_index": 3}, "uniqueid": "MTK1806:34T446B1C1LOAWGSLESORWM6E6T0C8", "dateTime": 1516308405784}, {"current_trial": 4, "trialdata": {"rt": [4254], "trial_type": "audio-test", "responses": ["spice"], "internal_node_id": "0.0-4.0", "time_elapsed": 67370, "type": "AUDIO_TEST", "trial_index": 4}, "uniqueid": "MTK1806:34T446B1C1LOAWGSLESORWM6E6T0C8", "dateTime": 1516308410050}, {"current_trial": 5, "trialdata": {"rt": 30130, "trial_type": "survey-text", "responses": "{\"Q0\":\"11:00 pm\",\"Q1\":\"7:00 am\",\"Q2\":\"5\"}", "internal_node_id": "0.0-5.0", "time_elapsed": 98266, "type": "SLEEP_SURVEY", "trial_index": 5}, "uniqueid": "MTK1806:34T446B1C1LOAWGSLESORWM6E6T0C8", "dateTime": 1516308440947}, {"current_trial": 6, "trialdata": {"rt": 116207, "trial_type": "text", "internal_node_id": "0.0-6.0", "time_elapsed": 215487, "key_press": 182, "type": "INSTRUCTIONS", "trial_index": 6}, "uniqueid": "MTK1806:34T446B1C1LOAWGSLESORWM6E6T0C8", "dateTime": 1516308558167}, {"current_trial": 7, "trialdata": {"rt": 129, "trial_type": "text", "internal_node_id": "0.0-7.0", "time_elapsed": 216127, "key_press": 182, "type": "INSTRUCTIONS", "trial_index": 7}, "uniqueid": "MTK1806:34T446B1C1LOAWGSLESORWM6E6T0C8", "dateTime": 1516308558808}, {"current_trial": 8, "trialdata": {"rt": 2414, "trial_type": "text", "internal_node_id": "0.0-8.0", "time_elapsed": 219048, "key_press": 182, "type": "INSTRUCTIONS", "trial_index": 8}, "uniqueid": "MTK1806:34T446B1C1LOAWGSLESORWM6E6T0C8", "dateTime": 1516308561728}, {"current_trial": 9, "trialdata": {"rt": [7205, 10249, 13191, 15287, 16769], "trial_type": "math-distractor", "key_times": [5766, 6103, 7205, 9282, 9500, 10249, 12570, 12764, 13191, 14889, 15287, 16293, 16769], "responses": ["18", "14", "14", "8", "5"], "num2": [5, 8, 4, 3, 3, 9], "num3": [6, 4, 9, 2, 1, 2], "conditions": [18, 1200, "a", 18000], "internal_node_id": "0.0-9.0", "key_presses": [97, 104, 13, 97, 100, 13, 97, 100, 13, 104, 13, 101, 13], "trial": 0, "time_elapsed": 238077, "type": "DISTRACTOR", "trial_index": 9, "num1": [7, 2, 1, 3, 1, 4]}, "uniqueid": "MTK1806:34T446B1C1LOAWGSLESORWM6E6T0C8", "dateTime": 1516308580757}, {"current_trial": 10, "trialdata": {"rt": -1, "trial_type": "single-stim", "stimulus": "<p id=\"stim\">10</p>", "internal_node_id": "0.0-10.0-0.0", "time_elapsed": 241080, "key_press": -1, "trial_index": 10}, "uniqueid": "MTK1806:34T446B1C1LOAWGSLESORWM6E6T0C8", "dateTime": 1516308583760}, {"current_trial": 11, "trialdata": {"rt": -1, "trial_type": "single-stim", "stimulus": "<p id=\"stim\">9</p>", "internal_node_id": "0.0-10.0-1.0", "time_elapsed": 242081, "key_press": -1, "trial_index": 11}, "uniqueid": "MTK1806:34T446B1C1LOAWGSLESORWM6E6T0C8", "dateTime": 1516308584761}, {"current_trial": 12, "trialdata": {"rt": -1, "trial_type": "single-stim", "stimulus": "<p id=\"stim\">8</p>", "internal_node_id": "0.0-10.0-2.0", "time_elapsed": 243083, "key_press": -1, "trial_index": 12}, "uniqueid": "MTK1806:34T446B1C1LOAWGSLESORWM6E6T0C8", "dateTime": 1516308585763}, {"current_trial": 13, "trialdata": {"rt": -1, "trial_type": "single-stim", "stimulus": "<p id=\"stim\">7</p>", "internal_node_id": "0.0-10.0-3.0", "time_elapsed": 244084, "key_press": -1, "trial_index": 13}, "uniqueid": "MTK1806:34T446B1C1LOAWGSLESORWM6E6T0C8", "dateTime": 1516308586765}, {"current_trial": 14, "trialdata": {"rt": -1, "trial_type": "single-stim", "stimulus": "<p id=\"stim\">6</p>", "internal_node_id": "0.0-10.0-4.0", "time_elapsed": 245093, "key_press": -1, "trial_index": 14}, "uniqueid": "MTK1806:34T446B1C1LOAWGSLESORWM6E6T0C8", "dateTime": 1516308587773}, {"current_trial": 15, "trialdata": {"rt": -1, "trial_type": "single-stim", "stimulus": "<p id=\"stim\">5</p>", "internal_node_id": "0.0-10.0-5.0", "time_elapsed": 246107, "key_press": -1, "trial_index": 15}, "uniqueid": "MTK1806:34T446B1C1LOAWGSLESORWM6E6T0C8", "dateTime": 1516308588787}, {"current_trial": 16, "trialdata": {"rt": -1, "trial_type": "single-stim", "stimulus": "<p id=\"stim\">4</p>", "internal_node_id": "0.0-10.0-6.0", "time_elapsed": 247119, "key_press": -1, "trial_index": 16}, "uniqueid": "MTK1806:34T446B1C1LOAWGSLESORWM6E6T0C8", "dateTime": 1516308589799}, {"current_trial": 17, "trialdata": {"rt": -1, "trial_type": "single-stim", "stimulus": "<p id=\"stim\">3</p>", "internal_node_id": "0.0-10.0-7.0", "time_elapsed": 248136, "key_press": -1, "trial_index": 17}, "uniqueid": "MTK1806:34T446B1C1LOAWGSLESORWM6E6T0C8", "dateTime": 1516308590817}, {"current_trial": 18, "trialdata": {"rt": -1, "trial_type": "single-stim", "stimulus": "<p id=\"stim\">2</p>", "internal_node_id": "0.0-10.0-8.0", "time_elapsed": 249149, "key_press": -1, "trial_index": 18}, "uniqueid": "MTK1806:34T446B1C1LOAWGSLESORWM6E6T0C8", "dateTime": 1516308591829}, {"current_trial": 19, "trialdata": {"rt": -1, "trial_type": "single-stim", "stimulus": "<p id=\"stim\">1</p>", "internal_node_id": "0.0-10.0-9.0", "time_elapsed": 250150, "key_press": -1, "trial_index": 19}, "uniqueid": "MTK1806:34T446B1C1LOAWGSLESORWM6E6T0C8", "dateTime": 1516308592830}, {"current_trial": 20, "trialdata": {"rt": -1, "trial_type": "single-stim", "stimulus": "<p id=\"stim\">+</p>", "internal_node_id": "0.0-11.0-0.0", "time_elapsed": 251666, "key_press": -1, "type": "FIXATION", "trial_index": 20}, "uniqueid": "MTK1806:34T446B1C1LOAWGSLESORWM6E6T0C8", "dateTime": 1516308594346}, {"current_trial": 21, "trialdata": {"rt": -1000, "trial_type": "single-audio", "word": "blueprint", "stimulus": "/static/audio/wordpool/BLUEPRINT.wav", "conditions": [18, 1200, "a", 18000], "internal_node_id": "0.0-12.0", "trial": 0, "time_elapsed": 253889, "serialpos": 0, "key_press": -1, "wordID": 141, "type": "PRES_AUD", "trial_index": 21}, "uniqueid": "MTK1806:34T446B1C1LOAWGSLESORWM6E6T0C8", "dateTime": 1516308596570}, {"current_trial": 22, "trialdata": {"rt": -1000, "trial_type": "single-audio", "word": "couch", "stimulus": "/static/audio/wordpool/COUCH.wav", "conditions": [18, 1200, "a", 18000], "internal_node_id": "0.0-13.0", "trial": 0, "time_elapsed": 256064, "serialpos": 1, "key_press": -1, "wordID": 385, "type": "PRES_AUD", "trial_index": 22}, "uniqueid": "MTK1806:34T446B1C1LOAWGSLESORWM6E6T0C8", "dateTime": 1516308598744}, {"current_trial": 23, "trialdata": {"rt": -1000, "trial_type": "single-audio", "word": "spider", "stimulus": "/static/audio/wordpool/SPIDER.wav", "conditions": [18, 1200, "a", 18000], "internal_node_id": "0.0-14.0", "trial": 0, "time_elapsed": 258452, "serialpos": 2, "key_press": -1, "wordID": 1350, "type": "PRES_AUD", "trial_index": 23}, "uniqueid": "MTK1806:34T446B1C1LOAWGSLESORWM6E6T0C8", "dateTime": 1516308601132}, {"current_trial": 24, "trialdata": {"rt": -1000, "trial_type": "single-audio", "word": "parent", "stimulus": "/static/audio/wordpool/PARENT.wav", "conditions": [18, 1200, "a", 18000], "internal_node_id": "0.0-15.0", "trial": 0, "time_elapsed": 260566, "serialpos": 3, "key_press": -1, "wordID": 1012, "type": "PRES_AUD", "trial_index": 24}, "uniqueid": "MTK1806:34T446B1C1LOAWGSLESORWM6E6T0C8", "dateTime": 1516308603247}, {"current_trial": 25, "trialdata": {"rt": -1000, "trial_type": "single-audio", "word": "creature", "stimulus": "/static/audio/wordpool/CREATURE.wav", "conditions": [18, 1200, "a", 18000], "internal_node_id": "0.0-16.0", "trial": 0, "time_elapsed": 262796, "serialpos": 4, "key_press": -1, "wordID": 402, "type": "PRES_AUD", "trial_index": 25}, "uniqueid": "MTK1806:34T446B1C1LOAWGSLESORWM6E6T0C8", "dateTime": 1516308605476}, {"current_trial": 26, "trialdata": {"rt": -1000, "trial_type": "single-audio", "word": "salmon", "stimulus": "/static/audio/wordpool/SALMON.wav", "conditions": [18, 1200, "a", 18000], "internal_node_id": "0.0-17.0", "trial": 0, "time_elapsed": 264941, "serialpos": 5, "key_press": -1, "wordID": 1226, "type": "PRES_AUD", "trial_index": 26}, "uniqueid": "MTK1806:34T446B1C1LOAWGSLESORWM6E6T0C8", "dateTime": 1516308607621}, {"current_trial": 27, "trialdata": {"rt": -1000, "trial_type": "single-audio", "word": "boyfriend", "stimulus": "/static/audio/wordpool/BOYFRIEND.wav", "conditions": [18, 1200, "a", 18000], "internal_node_id": "0.0-18.0", "trial": 0, "time_elapsed": 267322, "serialpos": 6, "key_press": -1, "wordID": 161, "type": "PRES_AUD", "trial_index": 27}, "uniqueid": "MTK1806:34T446B1C1LOAWGSLESORWM6E6T0C8", "dateTime": 1516308610002}, {"current_trial": 28, "trialdata": {"rt": -1000, "trial_type": "single-audio", "word": "bathtub", "stimulus": "/static/audio/wordpool/BATHTUB.wav", "conditions": [18, 1200, "a", 18000], "internal_node_id": "0.0-19.0", "trial": 0, "time_elapsed": 269379, "serialpos": 7, "key_press": -1, "wordID": 99, "type": "PRES_AUD", "trial_index": 28}, "uniqueid": "MTK1806:34T446B1C1LOAWGSLESORWM6E6T0C8", "dateTime": 1516308612059}, {"current_trial": 29, "trialdata": {"rt": -1000, "trial_type": "single-audio", "word": "compass", "stimulus": "/static/audio/wordpool/COMPASS.wav", "conditions": [18, 1200, "a", 18000], "internal_node_id": "0.0-20.0", "trial": 0, "time_elapsed": 271635, "serialpos": 8, "key_press": -1, "wordID": 357, "type": "PRES_AUD", "trial_index": 29}, "uniqueid": "MTK1806:34T446B1C1LOAWGSLESORWM6E6T0C8", "dateTime": 1516308614316}, {"current_trial": 30, "trialdata": {"rt": -1000, "trial_type": "single-audio", "word": "clothes", "stimulus": "/static/audio/wordpool/CLOTHES.wav", "conditions": [18, 1200, "a", 18000], "internal_node_id": "0.0-21.0", "trial": 0, "time_elapsed": 273900, "serialpos": 9, "key_press": -1, "wordID": 326, "type": "PRES_AUD", "trial_index": 30}, "uniqueid": "MTK1806:34T446B1C1LOAWGSLESORWM6E6T0C8", "dateTime": 1516308616580}, {"current_trial": 31, "trialdata": {"rt": -1000, "trial_type": "single-audio", "word": "clamp", "stimulus": "/static/audio/wordpool/CLAMP.wav", "conditions": [18, 1200, "a", 18000], "internal_node_id": "0.0-22.0", "trial": 0, "time_elapsed": 275938, "serialpos": 10, "key_press": -1, "wordID": 315, "type": "PRES_AUD", "trial_index": 31}, "uniqueid": "MTK1806:34T446B1C1LOAWGSLESORWM6E6T0C8", "dateTime": 1516308618618}, {"current_trial": 32, "trialdata": {"rt": -1000, "trial_type": "single-audio", "word": "lodge", "stimulus": "/static/audio/wordpool/LODGE.wav", "conditions": [18, 1200, "a", 18000], "internal_node_id": "0.0-23.0", "trial": 0, "time_elapsed": 278228, "serialpos": 11, "key_press": -1, "wordID": 838, "type": "PRES_AUD", "trial_index": 32}, "uniqueid": "MTK1806:34T446B1C1LOAWGSLESORWM6E6T0C8", "dateTime": 1516308620908}, {"current_trial": 33, "trialdata": {"rt": -1000, "trial_type": "single-audio", "word": "girl", "stimulus": "/static/audio/wordpool/GIRL.wav", "conditions": [18, 1200, "a", 18000], "internal_node_id": "0.0-24.0", "trial": 0, "time_elapsed": 280322, "serialpos": 12, "key_press": -1, "wordID": 636, "type": "PRES_AUD", "trial_index": 33}, "uniqueid": "MTK1806:34T446B1C1LOAWGSLESORWM6E6T0C8", "dateTime": 1516308623002}, {"current_trial": 34, "trialdata": {"rt": -1000, "trial_type": "single-audio", "word": "valley", "stimulus": "/static/audio/wordpool/VALLEY.wav", "conditions": [18, 1200, "a", 18000], "internal_node_id": "0.0-25.0", "trial": 0, "time_elapsed": 282721, "serialpos": 13, "key_press": -1, "wordID": 1544, "type": "PRES_AUD", "trial_index": 34}, "uniqueid": "MTK1806:34T446B1C1LOAWGSLESORWM6E6T0C8", "dateTime": 1516308625401}, {"current_trial": 35, "trialdata": {"rt": -1000, "trial_type": "single-audio", "word": "rooster", "stimulus": "/static/audio/wordpool/ROOSTER.wav", "conditions": [18, 1200, "a", 18000], "internal_node_id": "0.0-26.0", "trial": 0, "time_elapsed": 284954, "serialpos": 14, "key_press": -1, "wordID": 1208, "type": "PRES_AUD", "trial_index": 35}, "uniqueid": "MTK1806:34T446B1C1LOAWGSLESORWM6E6T0C8", "dateTime": 1516308627634}, {"current_trial": 36, "trialdata": {"rt": -1000, "trial_type": "single-audio", "word": "egypt", "stimulus": "/static/audio/wordpool/EGYPT.wav", "conditions": [18, 1200, "a", 18000], "internal_node_id": "0.0-27.0", "trial": 0, "time_elapsed": 287167, "serialpos": 15, "key_press": -1, "wordID": 518, "type": "PRES_AUD", "trial_index": 36}, "uniqueid": "MTK1806:34T446B1C1LOAWGSLESORWM6E6T0C8", "dateTime": 1516308629847}, {"current_trial": 37, "trialdata": {"rt": -1000, "trial_type": "single-audio", "word": "widow", "stimulus": "/static/audio/wordpool/WIDOW.wav", "conditions": [18, 1200, "a", 18000], "internal_node_id": "0.0-28.0", "trial": 0, "time_elapsed": 289190, "serialpos": 16, "key_press": -1, "wordID": 1607, "type": "PRES_AUD", "trial_index": 37}, "uniqueid": "MTK1806:34T446B1C1LOAWGSLESORWM6E6T0C8", "dateTime": 1516308631870}, {"current_trial": 38, "trialdata": {"rt": -1000, "trial_type": "single-audio", "word": "outlaw", "stimulus": "/static/audio/wordpool/OUTLAW.wav", "conditions": [18, 1200, "a", 18000], "internal_node_id": "0.0-29.0", "trial": 0, "time_elapsed": 291415, "serialpos": 17, "key_press": -1, "wordID": 988, "type": "PRES_AUD", "trial_index": 38}, "uniqueid": "MTK1806:34T446B1C1LOAWGSLESORWM6E6T0C8", "dateTime": 1516308634095}, {"current_trial": 39, "trialdata": {"rt": -1, "trial_type": "single-stim", "stimulus": "", "internal_node_id": "0.0-30.0-0.0", "time_elapsed": 292774, "key_press": -1, "type": "PRE_RECALL_DELAY", "trial_index": 39}, "uniqueid": "MTK1806:34T446B1C1LOAWGSLESORWM6E6T0C8", "dateTime": 1516308635454}, {"current_trial": 40, "trialdata": {"rt": -1000, "trial_type": "single-audio", "stimulus": "/static/audio/400Hz.wav", "internal_node_id": "0.0-31.0", "time_elapsed": 293276, "key_press": -1, "type": "PRE_RECALL_ALERT", "trial_index": 40}, "uniqueid": "MTK1806:34T446B1C1LOAWGSLESORWM6E6T0C8", "dateTime": 1516308635956}, {"current_trial": 41, "trialdata": {"rt": [4039, 6161, 8528, 10069, 11643, 15256, 19631, 43602], "recwords": ["outlaw", "widow", "spider", "house", "log", "creature", "salmon", ""], "key_times": [2209, 2632, 2829, 3018, 3377, 3609, 4039, 5125, 5390, 5499, 5659, 5786, 6161, 6979, 7491, 7828, 7932, 8128, 8329, 8528, 9339, 9551, 9635, 9728, 9933, 10069, 10865, 11043, 11433, 11643, 12346, 12646, 12822, 13052, 13210, 13759, 13832, 14029, 15256, 18026, 18231, 18419, 18678, 18891, 19111, 19631, 43602], "trial_type": "free-recall", "conditions": [18, 1200, "a", 18000], "internal_node_id": "0.0-32.0-0.0", "key_presses": [79, 85, 84, 76, 65, 87, 13, 87, 73, 68, 79, 87, 13, 83, 80, 73, 68, 69, 82, 13, 72, 79, 85, 83, 69, 13, 76, 79, 71, 13, 67, 82, 69, 65, 84, 85, 82, 69, 13, 83, 65, 76, 77, 79, 78, 13, 13], "trial": 0, "time_elapsed": 353286, "type": "FREE_RECALL", "trial_index": 41}, "uniqueid": "MTK1806:34T446B1C1LOAWGSLESORWM6E6T0C8", "dateTime": 1516308695970}, {"current_trial": 42, "trialdata": {"rt": 1847, "trial_type": "text", "internal_node_id": "0.0-33.0", "time_elapsed": 357138, "key_press": 77, "type": "INSTRUCTIONS", "trial_index": 42}, "uniqueid": "MTK1806:34T446B1C1LOAWGSLESORWM6E6T0C8", "dateTime": 1516308699818}, {"current_trial": 43, "trialdata": {"rt": [3245, 8136, 10761, 13094, 15788, 17767], "trial_type": "math-distractor", "key_times": [2134, 2393, 3245, 5229, 6056, 7666, 7789, 8136, 9761, 10502, 10761, 12666, 12806, 13094, 14771, 15478, 15788, 17166, 17503, 17767], "responses": ["16", "15", "16", "10", "18", "14"], "num2": [8, 6, 5, 6, 5, 2, 6], "num3": [7, 3, 6, 1, 5, 9, 5], "conditions": [18, 1200, "a", 18000], "internal_node_id": "0.0-34.0", "key_presses": [49, 54, 13, 49, 52, 8, 53, 13, 49, 54, 13, 49, 48, 13, 49, 56, 13, 49, 52, 13], "trial": 1, "time_elapsed": 377152, "type": "DISTRACTOR", "trial_index": 43, "num1": [1, 6, 5, 3, 8, 3, 8]}, "uniqueid": "MTK1806:34T446B1C1LOAWGSLESORWM6E6T0C8", "dateTime": 1516308719832}, {"current_trial": 44, "trialdata": {"rt": -1, "trial_type": "single-stim", "stimulus": "<p id=\"stim\">10</p>", "internal_node_id": "0.0-35.0-0.0", "time_elapsed": 380155, "key_press": -1, "trial_index": 44}, "uniqueid": "MTK1806:34T446B1C1LOAWGSLESORWM6E6T0C8", "dateTime": 1516308722835}, {"current_trial": 45, "trialdata": {"rt": -1, "trial_type": "single-stim", "stimulus": "<p id=\"stim\">9</p>", "internal_node_id": "0.0-35.0-1.0", "time_elapsed": 381166, "key_press": -1, "trial_index": 45}, "uniqueid": "MTK1806:34T446B1C1LOAWGSLESORWM6E6T0C8", "dateTime": 1516308723846}, {"current_trial": 46, "trialdata": {"rt": -1, "trial_type": "single-stim", "stimulus": "<p id=\"stim\">8</p>", "internal_node_id": "0.0-35.0-2.0", "time_elapsed": 382169, "key_press": -1, "trial_index": 46}, "uniqueid": "MTK1806:34T446B1C1LOAWGSLESORWM6E6T0C8", "dateTime": 1516308724849}, {"current_trial": 47, "trialdata": {"rt": -1, "trial_type": "single-stim", "stimulus": "<p id=\"stim\">7</p>", "internal_node_id": "0.0-35.0-3.0", "time_elapsed": 383182, "key_press": -1, "trial_index": 47}, "uniqueid": "MTK1806:34T446B1C1LOAWGSLESORWM6E6T0C8", "dateTime": 1516308725862}, {"current_trial": 48, "trialdata": {"rt": -1, "trial_type": "single-stim", "stimulus": "<p id=\"stim\">6</p>", "internal_node_id": "0.0-35.0-4.0", "time_elapsed": 384199, "key_press": -1, "trial_index": 48}, "uniqueid": "MTK1806:34T446B1C1LOAWGSLESORWM6E6T0C8", "dateTime": 1516308726879}, {"current_trial": 49, "trialdata": {"rt": -1, "trial_type": "single-stim", "stimulus": "<p id=\"stim\">5</p>", "internal_node_id": "0.0-35.0-5.0", "time_elapsed": 385204, "key_press": -1, "trial_index": 49}, "uniqueid": "MTK1806:34T446B1C1LOAWGSLESORWM6E6T0C8", "dateTime": 1516308727884}, {"current_trial": 50, "trialdata": {"rt": -1, "trial_type": "single-stim", "stimulus": "<p id=\"stim\">4</p>", "internal_node_id": "0.0-35.0-6.0", "time_elapsed": 386215, "key_press": -1, "trial_index": 50}, "uniqueid": "MTK1806:34T446B1C1LOAWGSLESORWM6E6T0C8", "dateTime": 1516308728895}, {"current_trial": 51, "trialdata": {"rt": -1, "trial_type": "single-stim", "stimulus": "<p id=\"stim\">3</p>", "internal_node_id": "0.0-35.0-7.0", "time_elapsed": 387222, "key_press": -1, "trial_index": 51}, "uniqueid": "MTK1806:34T446B1C1LOAWGSLESORWM6E6T0C8", "dateTime": 1516308729902}, {"current_trial": 52, "trialdata": {"rt": -1, "trial_type": "single-stim", "stimulus": "<p id=\"stim\">2</p>", "internal_node_id": "0.0-35.0-8.0", "time_elapsed": 388237, "key_press": -1, "trial_index": 52}, "uniqueid": "MTK1806:34T446B1C1LOAWGSLESORWM6E6T0C8", "dateTime": 1516308730917}, {"current_trial": 53, "trialdata": {"rt": -1, "trial_type": "single-stim", "stimulus": "<p id=\"stim\">1</p>", "internal_node_id": "0.0-35.0-9.0", "time_elapsed": 389242, "key_press": -1, "trial_index": 53}, "uniqueid": "MTK1806:34T446B1C1LOAWGSLESORWM6E6T0C8", "dateTime": 1516308731922}, {"current_trial": 54, "trialdata": {"rt": -1, "trial_type": "single-stim", "stimulus": "<p id=\"stim\">+</p>", "internal_node_id": "0.0-36.0-0.0", "time_elapsed": 390752, "key_press": -1, "type": "FIXATION", "trial_index": 54}, "uniqueid": "MTK1806:34T446B1C1LOAWGSLESORWM6E6T0C8", "dateTime": 1516308733432}, {"current_trial": 55, "trialdata": {"rt": -1000, "trial_type": "single-audio", "word": "trench", "stimulus": "/static/audio/wordpool/TRENCH.wav", "conditions": [18, 1200, "a", 18000], "internal_node_id": "0.0-37.0", "trial": 1, "time_elapsed": 392785, "serialpos": 0, "key_press": -1, "wordID": 1502, "type": "PRES_AUD", "trial_index": 55}, "uniqueid": "MTK1806:34T446B1C1LOAWGSLESORWM6E6T0C8", "dateTime": 1516308735465}, {"current_trial": 56, "trialdata": {"rt": -1000, "trial_type": "single-audio", "word": "virus", "stimulus": "/static/audio/wordpool/VIRUS.wav", "conditions": [18, 1200, "a", 18000], "internal_node_id": "0.0-38.0", "trial": 1, "time_elapsed": 395151, "serialpos": 1, "key_press": -1, "wordID": 1571, "type": "PRES_AUD", "trial_index": 56}, "uniqueid": "MTK1806:34T446B1C1LOAWGSLESORWM6E6T0C8", "dateTime": 1516308737831}, {"current_trial": 57, "trialdata": {"rt": -1000, "trial_type": "single-audio", "word": "infant", "stimulus": "/static/audio/wordpool/INFANT.wav", "conditions": [18, 1200, "a", 18000], "internal_node_id": "0.0-39.0", "trial": 1, "time_elapsed": 397182, "serialpos": 2, "key_press": -1, "wordID": 736, "type": "PRES_AUD", "trial_index": 57}, "uniqueid": "MTK1806:34T446B1C1LOAWGSLESORWM6E6T0C8", "dateTime": 1516308739862}, {"current_trial": 58, "trialdata": {"rt": -1000, "trial_type": "single-audio", "word": "shrub", "stimulus": "/static/audio/wordpool/SHRUB.wav", "conditions": [18, 1200, "a", 18000], "internal_node_id": "0.0-40.0", "trial": 1, "time_elapsed": 399505, "serialpos": 3, "key_press": -1, "wordID": 1298, "type": "PRES_AUD", "trial_index": 58}, "uniqueid": "MTK1806:34T446B1C1LOAWGSLESORWM6E6T0C8", "dateTime": 1516308742185}, {"current_trial": 59, "trialdata": {"rt": -1000, "trial_type": "single-audio", "word": "sunrise", "stimulus": "/static/audio/wordpool/SUNRISE.wav", "conditions": [18, 1200, "a", 18000], "internal_node_id": "0.0-41.0", "trial": 1, "time_elapsed": 401519, "serialpos": 4, "key_press": -1, "wordID": 1406, "type": "PRES_AUD", "trial_index": 59}, "uniqueid": "MTK1806:34T446B1C1LOAWGSLESORWM6E6T0C8", "dateTime": 1516308744199}, {"current_trial": 60, "trialdata": {"rt": -1000, "trial_type": "single-audio", "word": "peach", "stimulus": "/static/audio/wordpool/PEACH.wav", "conditions": [18, 1200, "a", 18000], "internal_node_id": "0.0-42.0", "trial": 1, "time_elapsed": 403809, "serialpos": 5, "key_press": -1, "wordID": 1030, "type": "PRES_AUD", "trial_index": 60}, "uniqueid": "MTK1806:34T446B1C1LOAWGSLESORWM6E6T0C8", "dateTime": 1516308746489}, {"current_trial": 61, "trialdata": {"rt": -1000, "trial_type": "single-audio", "word": "jungle", "stimulus": "/static/audio/wordpool/JUNGLE.wav", "conditions": [18, 1200, "a", 18000], "internal_node_id": "0.0-43.0", "trial": 1, "time_elapsed": 405867, "serialpos": 6, "key_press": -1, "wordID": 763, "type": "PRES_AUD", "trial_index": 61}, "uniqueid": "MTK1806:34T446B1C1LOAWGSLESORWM6E6T0C8", "dateTime": 1516308748547}, {"current_trial": 62, "trialdata": {"rt": -1000, "trial_type": "single-audio", "word": "cafe", "stimulus": "/static/audio/wordpool/CAFE.wav", "conditions": [18, 1200, "a", 18000], "internal_node_id": "0.0-44.0", "trial": 1, "time_elapsed": 408206, "serialpos": 7, "key_press": -1, "wordID": 215, "type": "PRES_AUD", "trial_index": 62}, "uniqueid": "MTK1806:34T446B1C1LOAWGSLESORWM6E6T0C8", "dateTime": 1516308750886}, {"current_trial": 63, "trialdata": {"rt": -1000, "trial_type": "single-audio", "word": "captive", "stimulus": "/static/audio/wordpool/CAPTIVE.wav", "conditions": [18, 1200, "a", 18000], "internal_node_id": "0.0-45.0", "trial": 1, "time_elapsed": 410380, "serialpos": 8, "key_press": -1, "wordID": 239, "type": "PRES_AUD", "trial_index": 63}, "uniqueid": "MTK1806:34T446B1C1LOAWGSLESORWM6E6T0C8", "dateTime": 1516308753060}, {"current_trial": 64, "trialdata": {"rt": -1000, "trial_type": "single-audio", "word": "cloud", "stimulus": "/static/audio/wordpool/CLOUD.wav", "conditions": [18, 1200, "a", 18000], "internal_node_id": "0.0-46.0", "trial": 1, "time_elapsed": 412417, "serialpos": 9, "key_press": -1, "wordID": 327, "type": "PRES_AUD", "trial_index": 64}, "uniqueid": "MTK1806:34T446B1C1LOAWGSLESORWM6E6T0C8", "dateTime": 1516308755097}, {"current_trial": 65, "trialdata": {"rt": -1000, "trial_type": "single-audio", "word": "harp", "stimulus": "/static/audio/wordpool/HARP.wav", "conditions": [18, 1200, "a", 18000], "internal_node_id": "0.0-47.0", "trial": 1, "time_elapsed": 414627, "serialpos": 10, "key_press": -1, "wordID": 688, "type": "PRES_AUD", "trial_index": 65}, "uniqueid": "MTK1806:34T446B1C1LOAWGSLESORWM6E6T0C8", "dateTime": 1516308757307}, {"current_trial": 66, "trialdata": {"rt": -1000, "trial_type": "single-audio", "word": "paper", "stimulus": "/static/audio/wordpool/PAPER.wav", "conditions": [18, 1200, "a", 18000], "internal_node_id": "0.0-48.0", "trial": 1, "time_elapsed": 416714, "serialpos": 11, "key_press": -1, "wordID": 1010, "type": "PRES_AUD", "trial_index": 66}, "uniqueid": "MTK1806:34T446B1C1LOAWGSLESORWM6E6T0C8", "dateTime": 1516308759395}, {"current_trial": 67, "trialdata": {"rt": -1000, "trial_type": "single-audio", "word": "seafood", "stimulus": "/static/audio/wordpool/SEAFOOD.wav", "conditions": [18, 1200, "a", 18000], "internal_node_id": "0.0-49.0", "trial": 1, "time_elapsed": 418854, "serialpos": 12, "key_press": -1, "wordID": 1259, "type": "PRES_AUD", "trial_index": 67}, "uniqueid": "MTK1806:34T446B1C1LOAWGSLESORWM6E6T0C8", "dateTime": 1516308761534}, {"current_trial": 68, "trialdata": {"rt": -1000, "trial_type": "single-audio", "word": "woman", "stimulus": "/static/audio/wordpool/WOMAN.wav", "conditions": [18, 1200, "a", 18000], "internal_node_id": "0.0-50.0", "trial": 1, "time_elapsed": 421260, "serialpos": 13, "key_press": -1, "wordID": 1619, "type": "PRES_AUD", "trial_index": 68}, "uniqueid": "MTK1806:34T446B1C1LOAWGSLESORWM6E6T0C8", "dateTime": 1516308763940}, {"current_trial": 69, "trialdata": {"rt": -1000, "trial_type": "single-audio", "word": "motel", "stimulus": "/static/audio/wordpool/MOTEL.wav", "conditions": [18, 1200, "a", 18000], "internal_node_id": "0.0-51.0", "trial": 1, "time_elapsed": 423596, "serialpos": 14, "key_press": -1, "wordID": 918, "type": "PRES_AUD", "trial_index": 69}, "uniqueid": "MTK1806:34T446B1C1LOAWGSLESORWM6E6T0C8", "dateTime": 1516308766276}, {"current_trial": 70, "trialdata": {"rt": -1000, "trial_type": "single-audio", "word": "slide", "stimulus": "/static/audio/wordpool/SLIDE.wav", "conditions": [18, 1200, "a", 18000], "internal_node_id": "0.0-52.0", "trial": 1, "time_elapsed": 425630, "serialpos": 15, "key_press": -1, "wordID": 1325, "type": "PRES_AUD", "trial_index": 70}, "uniqueid": "MTK1806:34T446B1C1LOAWGSLESORWM6E6T0C8", "dateTime": 1516308768310}, {"current_trial": 71, "trialdata": {"rt": -1000, "trial_type": "single-audio", "word": "saddle", "stimulus": "/static/audio/wordpool/SADDLE.wav", "conditions": [18, 1200, "a", 18000], "internal_node_id": "0.0-53.0", "trial": 1, "time_elapsed": 427778, "serialpos": 16, "key_press": -1, "wordID": 1220, "type": "PRES_AUD", "trial_index": 71}, "uniqueid": "MTK1806:34T446B1C1LOAWGSLESORWM6E6T0C8", "dateTime": 1516308770458}, {"current_trial": 72, "trialdata": {"rt": -1000, "trial_type": "single-audio", "word": "perfume", "stimulus": "/static/audio/wordpool/PERFUME.wav", "conditions": [18, 1200, "a", 18000], "internal_node_id": "0.0-54.0", "trial": 1, "time_elapsed": 430046, "serialpos": 17, "key_press": -1, "wordID": 1048, "type": "PRES_AUD", "trial_index": 72}, "uniqueid": "MTK1806:34T446B1C1LOAWGSLESORWM6E6T0C8", "dateTime": 1516308772726}, {"current_trial": 73, "trialdata": {"rt": -1, "trial_type": "single-stim", "stimulus": "", "internal_node_id": "0.0-55.0-0.0", "time_elapsed": 431337, "key_press": -1, "type": "PRE_RECALL_DELAY", "trial_index": 73}, "uniqueid": "MTK1806:34T446B1C1LOAWGSLESORWM6E6T0C8", "dateTime": 1516308774017}, {"current_trial": 74, "trialdata": {"rt": -1000, "trial_type": "single-audio", "stimulus": "/static/audio/400Hz.wav", "internal_node_id": "0.0-56.0", "time_elapsed": 431847, "key_press": -1, "type": "PRE_RECALL_ALERT", "trial_index": 74}, "uniqueid": "MTK1806:34T446B1C1LOAWGSLESORWM6E6T0C8", "dateTime": 1516308774527}, {"current_trial": 75, "trialdata": {"rt": [3347, 6113, 8376, 15226, 19241, 23559, 33917], "recwords": ["perfume", "saddle", "motel", "slide", "captive", "woman", "cloud"], "key_times": [1377, 1600, 2181, 2374, 2514, 2771, 2884, 3347, 3807, 4055, 5116, 5261, 5501, 5608, 6113, 6979, 7242, 7414, 7652, 7817, 8376, 11521, 11883, 13694, 13760, 13989, 15226, 17359, 17606, 17983, 18196, 18476, 18682, 18978, 19241, 22358, 22495, 22710, 22807, 22926, 23559, 32152, 32334, 32535, 32820, 32981, 33391, 33555, 33917], "trial_type": "free-recall", "conditions": [18, 1200, "a", 18000], "internal_node_id": "0.0-57.0-0.0", "key_presses": [80, 69, 82, 70, 85, 77, 69, 13, 83, 65, 68, 68, 76, 69, 13, 77, 79, 84, 69, 76, 13, 83, 76, 73, 68, 69, 13, 67, 65, 80, 84, 73, 86, 69, 13, 87, 79, 77, 65, 78, 13, 67, 76, 79, 85, 83, 8, 68, 13], "trial": 1, "time_elapsed": 491850, "type": "FREE_RECALL", "trial_index": 75}, "uniqueid": "MTK1806:34T446B1C1LOAWGSLESORWM6E6T0C8", "dateTime": 1516308834533}, {"current_trial": 76, "trialdata": {"rt": 121074, "trial_type": "text", "internal_node_id": "0.0-58.0", "time_elapsed": 614928, "key_press": 70, "type": "INSTRUCTIONS", "trial_index": 76}, "uniqueid": "MTK1806:34T446B1C1LOAWGSLESORWM6E6T0C8", "dateTime": 1516308957608}, {"current_trial": 77, "trialdata": {"rt": [2446, 4136, 6774, 13057, 14677, 16347, 17817, 19298, 21148, 23137], "trial_type": "math-distractor", "key_times": [1926, 2083, 2446, 3697, 3947, 4136, 5826, 6104, 6774, 9253, 12665, 13057, 14188, 14374, 14677, 15905, 16066, 16347, 17401, 17641, 17817, 18961, 19102, 19298, 20608, 20857, 21148, 22704, 22891, 23137], "responses": ["11", "13", "17", "25", "19", "19", "13", "11", "17", "12"], "num2": [4, 4, 7, 8, 6, 4, 4, 5, 7, 3, 7], "num3": [3, 8, 3, 9, 9, 6, 1, 5, 6, 6, 7], "conditions": [24, 800, "a", 24000], "internal_node_id": "0.0-59.0", "key_presses": [97, 97, 13, 97, 99, 13, 97, 103, 13, 98, 101, 13, 97, 105, 13, 97, 105, 13, 97, 99, 13, 97, 97, 13, 97, 103, 13, 97, 98, 13], "trial": 2, "time_elapsed": 639948, "type": "DISTRACTOR", "trial_index": 77, "num1": [4, 1, 7, 8, 4, 9, 8, 1, 4, 3, 2]}, "uniqueid": "MTK1806:34T446B1C1LOAWGSLESORWM6E6T0C8", "dateTime": 1516308982628}, {"current_trial": 78, "trialdata": {"rt": -1, "trial_type": "single-stim", "stimulus": "<p id=\"stim\">10</p>", "internal_node_id": "0.0-60.0-0.0", "time_elapsed": 642952, "key_press": -1, "trial_index": 78}, "uniqueid": "MTK1806:34T446B1C1LOAWGSLESORWM6E6T0C8", "dateTime": 1516308985632}, {"current_trial": 79, "trialdata": {"rt": -1, "trial_type": "single-stim", "stimulus": "<p id=\"stim\">9</p>", "internal_node_id": "0.0-60.0-1.0", "time_elapsed": 643964, "key_press": -1, "trial_index": 79}, "uniqueid": "MTK1806:34T446B1C1LOAWGSLESORWM6E6T0C8", "dateTime": 1516308986644}, {"current_trial": 80, "trialdata": {"rt": -1, "trial_type": "single-stim", "stimulus": "<p id=\"stim\">8</p>", "internal_node_id": "0.0-60.0-2.0", "time_elapsed": 644968, "key_press": -1, "trial_index": 80}, "uniqueid": "MTK1806:34T446B1C1LOAWGSLESORWM6E6T0C8", "dateTime": 1516308987648}, {"current_trial": 81, "trialdata": {"rt": -1, "trial_type": "single-stim", "stimulus": "<p id=\"stim\">7</p>", "internal_node_id": "0.0-60.0-3.0", "time_elapsed": 645969, "key_press": -1, "trial_index": 81}, "uniqueid": "MTK1806:34T446B1C1LOAWGSLESORWM6E6T0C8", "dateTime": 1516308988649}, {"current_trial": 82, "trialdata": {"rt": -1, "trial_type": "single-stim", "stimulus": "<p id=\"stim\">6</p>", "internal_node_id": "0.0-60.0-4.0", "time_elapsed": 646969, "key_press": -1, "trial_index": 82}, "uniqueid": "MTK1806:34T446B1C1LOAWGSLESORWM6E6T0C8", "dateTime": 1516308989649}, {"current_trial": 83, "trialdata": {"rt": -1, "trial_type": "single-stim", "stimulus": "<p id=\"stim\">5</p>", "internal_node_id": "0.0-60.0-5.0", "time_elapsed": 647985, "key_press": -1, "trial_index": 83}, "uniqueid": "MTK1806:34T446B1C1LOAWGSLESORWM6E6T0C8", "dateTime": 1516308990665}, {"current_trial": 84, "trialdata": {"rt": -1, "trial_type": "single-stim", "stimulus": "<p id=\"stim\">4</p>", "internal_node_id": "0.0-60.0-6.0", "time_elapsed": 648997, "key_press": -1, "trial_index": 84}, "uniqueid": "MTK1806:34T446B1C1LOAWGSLESORWM6E6T0C8", "dateTime": 1516308991677}, {"current_trial": 85, "trialdata": {"rt": -1, "trial_type": "single-stim", "stimulus": "<p id=\"stim\">3</p>", "internal_node_id": "0.0-60.0-7.0", "time_elapsed": 650013, "key_press": -1, "trial_index": 85}, "uniqueid": "MTK1806:34T446B1C1LOAWGSLESORWM6E6T0C8", "dateTime": 1516308992694}, {"current_trial": 86, "trialdata": {"rt": -1, "trial_type": "single-stim", "stimulus": "<p id=\"stim\">2</p>", "internal_node_id": "0.0-60.0-8.0", "time_elapsed": 651028, "key_press": -1, "trial_index": 86}, "uniqueid": "MTK1806:34T446B1C1LOAWGSLESORWM6E6T0C8", "dateTime": 1516308993708}, {"current_trial": 87, "trialdata": {"rt": -1, "trial_type": "single-stim", "stimulus": "<p id=\"stim\">1</p>", "internal_node_id": "0.0-60.0-9.0", "time_elapsed": 652032, "key_press": -1, "trial_index": 87}, "uniqueid": "MTK1806:34T446B1C1LOAWGSLESORWM6E6T0C8", "dateTime": 1516308994712}, {"current_trial": 88, "trialdata": {"rt": -1, "trial_type": "single-stim", "stimulus": "<p id=\"stim\">+</p>", "internal_node_id": "0.0-61.0-0.0", "time_elapsed": 653541, "key_press": -1, "type": "FIXATION", "trial_index": 88}, "uniqueid": "MTK1806:34T446B1C1LOAWGSLESORWM6E6T0C8", "dateTime": 1516308996222}, {"current_trial": 89, "trialdata": {"rt": -1000, "trial_type": "single-audio", "word": "novel", "stimulus": "/static/audio/wordpool/NOVEL.wav", "conditions": [24, 800, "a", 24000], "internal_node_id": "0.0-62.0", "trial": 2, "time_elapsed": 655336, "serialpos": 0, "key_press": -1, "wordID": 959, "type": "PRES_AUD", "trial_index": 89}, "uniqueid": "MTK1806:34T446B1C1LOAWGSLESORWM6E6T0C8", "dateTime": 1516308998016}, {"current_trial": 90, "trialdata": {"rt": -1000, "trial_type": "single-audio", "word": "pasta", "stimulus": "/static/audio/wordpool/PASTA.wav", "conditions": [24, 800, "a", 24000], "internal_node_id": "0.0-63.0", "trial": 2, "time_elapsed": 656967, "serialpos": 1, "key_press": -1, "wordID": 1020, "type": "PRES_AUD", "trial_index": 90}, "uniqueid": "MTK1806:34T446B1C1LOAWGSLESORWM6E6T0C8", "dateTime": 1516308999648}, {"current_trial": 91, "trialdata": {"rt": -1000, "trial_type": "single-audio", "word": "oyster", "stimulus": "/static/audio/wordpool/OYSTER.wav", "conditions": [24, 800, "a", 24000], "internal_node_id": "0.0-64.0", "trial": 2, "time_elapsed": 658659, "serialpos": 2, "key_press": -1, "wordID": 994, "type": "PRES_AUD", "trial_index": 91}, "uniqueid": "MTK1806:34T446B1C1LOAWGSLESORWM6E6T0C8", "dateTime": 1516309001339}, {"current_trial": 92, "trialdata": {"rt": -1000, "trial_type": "single-audio", "word": "princess", "stimulus": "/static/audio/wordpool/PRINCESS.wav", "conditions": [24, 800, "a", 24000], "internal_node_id": "0.0-65.0", "trial": 2, "time_elapsed": 660455, "serialpos": 3, "key_press": -1, "wordID": 1124, "type": "PRES_AUD", "trial_index": 92}, "uniqueid": "MTK1806:34T446B1C1LOAWGSLESORWM6E6T0C8", "dateTime": 1516309003136}, {"current_trial": 93, "trialdata": {"rt": -1000, "trial_type": "single-audio", "word": "queen", "stimulus": "/static/audio/wordpool/QUEEN.wav", "conditions": [24, 800, "a", 24000], "internal_node_id": "0.0-66.0", "trial": 2, "time_elapsed": 662273, "serialpos": 4, "key_press": -1, "wordID": 1148, "type": "PRES_AUD", "trial_index": 93}, "uniqueid": "MTK1806:34T446B1C1LOAWGSLESORWM6E6T0C8", "dateTime": 1516309004953}, {"current_trial": 94, "trialdata": {"rt": -1000, "trial_type": "single-audio", "word": "flask", "stimulus": "/static/audio/wordpool/FLASK.wav", "conditions": [24, 800, "a", 24000], "internal_node_id": "0.0-67.0", "trial": 2, "time_elapsed": 664206, "serialpos": 5, "key_press": -1, "wordID": 575, "type": "PRES_AUD", "trial_index": 94}, "uniqueid": "MTK1806:34T446B1C1LOAWGSLESORWM6E6T0C8", "dateTime": 1516309006886}, {"current_trial": 95, "trialdata": {"rt": -1000, "trial_type": "single-audio", "word": "blade", "stimulus": "/static/audio/wordpool/BLADE.wav", "conditions": [24, 800, "a", 24000], "internal_node_id": "0.0-68.0", "trial": 2, "time_elapsed": 666170, "serialpos": 6, "key_press": -1, "wordID": 133, "type": "PRES_AUD", "trial_index": 95}, "uniqueid": "MTK1806:34T446B1C1LOAWGSLESORWM6E6T0C8", "dateTime": 1516309008851}, {"current_trial": 96, "trialdata": {"rt": -1000, "trial_type": "single-audio", "word": "child", "stimulus": "/static/audio/wordpool/CHILD.wav", "conditions": [24, 800, "a", 24000], "internal_node_id": "0.0-69.0", "trial": 2, "time_elapsed": 668105, "serialpos": 7, "key_press": -1, "wordID": 298, "type": "PRES_AUD", "trial_index": 96}, "uniqueid": "MTK1806:34T446B1C1LOAWGSLESORWM6E6T0C8", "dateTime": 1516309010785}, {"current_trial": 97, "trialdata": {"rt": -1000, "trial_type": "single-audio", "word": "patrol", "stimulus": "/static/audio/wordpool/PATROL.wav", "conditions": [24, 800, "a", 24000], "internal_node_id": "0.0-70.0", "trial": 2, "time_elapsed": 669735, "serialpos": 8, "key_press": -1, "wordID": 1026, "type": "PRES_AUD", "trial_index": 97}, "uniqueid": "MTK1806:34T446B1C1LOAWGSLESORWM6E6T0C8", "dateTime": 1516309012415}, {"current_trial": 98, "trialdata": {"rt": -1000, "trial_type": "single-audio", "word": "drink", "stimulus": "/static/audio/wordpool/DRINK.wav", "conditions": [24, 800, "a", 24000], "internal_node_id": "0.0-71.0", "trial": 2, "time_elapsed": 671567, "serialpos": 9, "key_press": -1, "wordID": 497, "type": "PRES_AUD", "trial_index": 98}, "uniqueid": "MTK1806:34T446B1C1LOAWGSLESORWM6E6T0C8", "dateTime": 1516309014247}, {"current_trial": 99, "trialdata": {"rt": -1000, "trial_type": "single-audio", "word": "baby", "stimulus": "/static/audio/wordpool/BABY.wav", "conditions": [24, 800, "a", 24000], "internal_node_id": "0.0-72.0", "trial": 2, "time_elapsed": 673463, "serialpos": 10, "key_press": -1, "wordID": 63, "type": "PRES_AUD", "trial_index": 99}, "uniqueid": "MTK1806:34T446B1C1LOAWGSLESORWM6E6T0C8", "dateTime": 1516309016143}, {"current_trial": 100, "trialdata": {"rt": -1000, "trial_type": "single-audio", "word": "marine", "stimulus": "/static/audio/wordpool/MARINE.wav", "conditions": [24, 800, "a", 24000], "internal_node_id": "0.0-73.0", "trial": 2, "time_elapsed": 675423, "serialpos": 11, "key_press": -1, "wordID": 868, "type": "PRES_AUD", "trial_index": 100}, "uniqueid": "MTK1806:34T446B1C1LOAWGSLESORWM6E6T0C8", "dateTime": 1516309018103}, {"current_trial": 101, "trialdata": {"rt": -1000, "trial_type": "single-audio", "word": "velvet", "stimulus": "/static/audio/wordpool/VELVET.wav", "conditions": [24, 800, "a", 24000], "internal_node_id": "0.0-74.0", "trial": 2, "time_elapsed": 677406, "serialpos": 12, "key_press": -1, "wordID": 1554, "type": "PRES_AUD", "trial_index": 101}, "uniqueid": "MTK1806:34T446B1C1LOAWGSLESORWM6E6T0C8", "dateTime": 1516309020086}, {"current_trial": 102, "trialdata": {"rt": -1000, "trial_type": "single-audio", "word": "picnic", "stimulus": "/static/audio/wordpool/PICNIC.wav", "conditions": [24, 800, "a", 24000], "internal_node_id": "0.0-75.0", "trial": 2, "time_elapsed": 679266, "serialpos": 13, "key_press": -1, "wordID": 1059, "type": "PRES_AUD", "trial_index": 102}, "uniqueid": "MTK1806:34T446B1C1LOAWGSLESORWM6E6T0C8", "dateTime": 1516309021947}, {"current_trial": 103, "trialdata": {"rt": -1000, "trial_type": "single-audio", "word": "supper", "stimulus": "/static/audio/wordpool/SUPPER.wav", "conditions": [24, 800, "a", 24000], "internal_node_id": "0.0-76.0", "trial": 2, "time_elapsed": 680984, "serialpos": 14, "key_press": -1, "wordID": 1410, "type": "PRES_AUD", "trial_index": 103}, "uniqueid": "MTK1806:34T446B1C1LOAWGSLESORWM6E6T0C8", "dateTime": 1516309023665}, {"current_trial": 104, "trialdata": {"rt": -1000, "trial_type": "single-audio", "word": "flag", "stimulus": "/static/audio/wordpool/FLAG.wav", "conditions": [24, 800, "a", 24000], "internal_node_id": "0.0-77.0", "trial": 2, "time_elapsed": 682699, "serialpos": 15, "key_press": -1, "wordID": 572, "type": "PRES_AUD", "trial_index": 104}, "uniqueid": "MTK1806:34T446B1C1LOAWGSLESORWM6E6T0C8", "dateTime": 1516309025379}, {"current_trial": 105, "trialdata": {"rt": -1000, "trial_type": "single-audio", "word": "lace", "stimulus": "/static/audio/wordpool/LACE.wav", "conditions": [24, 800, "a", 24000], "internal_node_id": "0.0-78.0", "trial": 2, "time_elapsed": 684660, "serialpos": 16, "key_press": -1, "wordID": 791, "type": "PRES_AUD", "trial_index": 105}, "uniqueid": "MTK1806:34T446B1C1LOAWGSLESORWM6E6T0C8", "dateTime": 1516309027340}, {"current_trial": 106, "trialdata": {"rt": -1000, "trial_type": "single-audio", "word": "comet", "stimulus": "/static/audio/wordpool/COMET.wav", "conditions": [24, 800, "a", 24000], "internal_node_id": "0.0-79.0", "trial": 2, "time_elapsed": 686545, "serialpos": 17, "key_press": -1, "wordID": 352, "type": "PRES_AUD", "trial_index": 106}, "uniqueid": "MTK1806:34T446B1C1LOAWGSLESORWM6E6T0C8", "dateTime": 1516309029226}, {"current_trial": 107, "trialdata": {"rt": -1000, "trial_type": "single-audio", "word": "crayon", "stimulus": "/static/audio/wordpool/CRAYON.wav", "conditions": [24, 800, "a", 24000], "internal_node_id": "0.0-80.0", "trial": 2, "time_elapsed": 688389, "serialpos": 18, "key_press": -1, "wordID": 400, "type": "PRES_AUD", "trial_index": 107}, "uniqueid": "MTK1806:34T446B1C1LOAWGSLESORWM6E6T0C8", "dateTime": 1516309031069}, {"current_trial": 108, "trialdata": {"rt": -1000, "trial_type": "single-audio", "word": "playground", "stimulus": "/static/audio/wordpool/PLAYGROUND.wav", "conditions": [24, 800, "a", 24000], "internal_node_id": "0.0-81.0", "trial": 2, "time_elapsed": 690172, "serialpos": 19, "key_press": -1, "wordID": 1086, "type": "PRES_AUD", "trial_index": 108}, "uniqueid": "MTK1806:34T446B1C1LOAWGSLESORWM6E6T0C8", "dateTime": 1516309032852}, {"current_trial": 109, "trialdata": {"rt": -1000, "trial_type": "single-audio", "word": "lumber", "stimulus": "/static/audio/wordpool/LUMBER.wav", "conditions": [24, 800, "a", 24000], "internal_node_id": "0.0-82.0", "trial": 2, "time_elapsed": 691938, "serialpos": 20, "key_press": -1, "wordID": 847, "type": "PRES_AUD", "trial_index": 109}, "uniqueid": "MTK1806:34T446B1C1LOAWGSLESORWM6E6T0C8", "dateTime": 1516309034618}, {"current_trial": 110, "trialdata": {"rt": -1000, "trial_type": "single-audio", "word": "antler", "stimulus": "/static/audio/wordpool/ANTLER.wav", "conditions": [24, 800, "a", 24000], "internal_node_id": "0.0-83.0", "trial": 2, "time_elapsed": 693700, "serialpos": 21, "key_press": -1, "wordID": 28, "type": "PRES_AUD", "trial_index": 110}, "uniqueid": "MTK1806:34T446B1C1LOAWGSLESORWM6E6T0C8", "dateTime": 1516309036380}, {"current_trial": 111, "trialdata": {"rt": -1000, "trial_type": "single-audio", "word": "plaid", "stimulus": "/static/audio/wordpool/PLAID.wav", "conditions": [24, 800, "a", 24000], "internal_node_id": "0.0-84.0", "trial": 2, "time_elapsed": 695624, "serialpos": 22, "key_press": -1, "wordID": 1079, "type": "PRES_AUD", "trial_index": 111}, "uniqueid": "MTK1806:34T446B1C1LOAWGSLESORWM6E6T0C8", "dateTime": 1516309038305}, {"current_trial": 112, "trialdata": {"rt": -1000, "trial_type": "single-audio", "word": "crib", "stimulus": "/static/audio/wordpool/CRIB.wav", "conditions": [24, 800, "a", 24000], "internal_node_id": "0.0-85.0", "trial": 2, "time_elapsed": 697550, "serialpos": 23, "key_press": -1, "wordID": 406, "type": "PRES_AUD", "trial_index": 112}, "uniqueid": "MTK1806:34T446B1C1LOAWGSLESORWM6E6T0C8", "dateTime": 1516309040230}, {"current_trial": 113, "trialdata": {"rt": -1, "trial_type": "single-stim", "stimulus": "", "internal_node_id": "0.0-86.0-0.0", "time_elapsed": 698864, "key_press": -1, "type": "PRE_RECALL_DELAY", "trial_index": 113}, "uniqueid": "MTK1806:34T446B1C1LOAWGSLESORWM6E6T0C8", "dateTime": 1516309041544}, {"current_trial": 114, "trialdata": {"rt": -1000, "trial_type": "single-audio", "stimulus": "/static/audio/400Hz.wav", "internal_node_id": "0.0-87.0", "time_elapsed": 699374, "key_press": -1, "type": "PRE_RECALL_ALERT", "trial_index": 114}, "uniqueid": "MTK1806:34T446B1C1LOAWGSLESORWM6E6T0C8", "dateTime": 1516309042054}, {"current_trial": 115, "trialdata": {"rt": [2599, 4126, 5834, 8446, 10848, 17217, 26605], "recwords": ["plaid", "crib", "baby", "marine", "lumber", "patrol", "baby"], "key_times": [556, 788, 1150, 1458, 1616, 2160, 2305, 2599, 3210, 3436, 3630, 3851, 4126, 4905, 5021, 5099, 5352, 5834, 6761, 6867, 7141, 7263, 7325, 7495, 8446, 9445, 9756, 9964, 10182, 10318, 10517, 10848, 15574, 15788, 16176, 16377, 16518, 16741, 17217, 25663, 25798, 25913, 26161, 26605], "trial_type": "free-recall", "conditions": [24, 800, "a", 24000], "internal_node_id": "0.0-88.0-0.0", "key_presses": [80, 76, 65, 73, 69, 8, 68, 13, 67, 82, 73, 66, 13, 66, 65, 66, 89, 13, 77, 65, 82, 73, 78, 69, 13, 76, 85, 77, 66, 69, 82, 13, 80, 65, 84, 82, 79, 76, 13, 66, 65, 66, 89, 13], "trial": 2, "time_elapsed": 759382, "type": "FREE_RECALL", "trial_index": 115}, "uniqueid": "MTK1806:34T446B1C1LOAWGSLESORWM6E6T0C8", "dateTime": 1516309102065}, {"current_trial": 116, "trialdata": {"rt": 109818, "trial_type": "text", "internal_node_id": "0.0-89.0", "time_elapsed": 871208, "key_press": 76, "type": "INSTRUCTIONS", "trial_index": 116}, "uniqueid": "MTK1806:34T446B1C1LOAWGSLESORWM6E6T0C8", "dateTime": 1516309213889}, {"current_trial": 117, "trialdata": {"rt": [3309, 4880, 6750, 9111, 10517, 12201, 14106, 15937, 18449, 20035, 21623, 23341], "trial_type": "math-distractor", "key_times": [2735, 2890, 3309, 4381, 4588, 4880, 6358, 6528, 6750, 8625, 8782, 9111, 10232, 10364, 10517, 11797, 12201, 13584, 13807, 14106, 15506, 15658, 15937, 18018, 18224, 18449, 19626, 19771, 20035, 21191, 21357, 21623, 22866, 23038, 23341], "responses": ["11", "14", "21", "14", "11", "8", "18", "23", "20", "15", "19", "19"], "num2": [9, 6, 7, 1, 1, 1, 8, 9, 8, 5, 7, 8, 6], "num3": [1, 4, 5, 8, 5, 1, 7, 5, 9, 2, 3, 6, 2], "conditions": [12, 800, "a", 24000], "internal_node_id": "0.0-90.0", "key_presses": [97, 97, 13, 97, 100, 13, 98, 97, 13, 97, 100, 13, 97, 97, 13, 104, 13, 97, 104, 13, 98, 99, 13, 98, 96, 13, 97, 101, 13, 97, 105, 13, 97, 105, 13], "trial": 3, "time_elapsed": 897218, "type": "DISTRACTOR", "trial_index": 117, "num1": [1, 4, 9, 5, 5, 6, 3, 9, 3, 8, 9, 5, 3]}, "uniqueid": "MTK1806:34T446B1C1LOAWGSLESORWM6E6T0C8", "dateTime": 1516309239898}, {"current_trial": 118, "trialdata": {"rt": -1, "trial_type": "single-stim", "stimulus": "<p id=\"stim\">10</p>", "internal_node_id": "0.0-91.0-0.0", "time_elapsed": 900228, "key_press": -1, "trial_index": 118}, "uniqueid": "MTK1806:34T446B1C1LOAWGSLESORWM6E6T0C8", "dateTime": 1516309242909}, {"current_trial": 119, "trialdata": {"rt": -1, "trial_type": "single-stim", "stimulus": "<p id=\"stim\">9</p>", "internal_node_id": "0.0-91.0-1.0", "time_elapsed": 901242, "key_press": -1, "trial_index": 119}, "uniqueid": "MTK1806:34T446B1C1LOAWGSLESORWM6E6T0C8", "dateTime": 1516309243922}, {"current_trial": 120, "trialdata": {"rt": -1, "trial_type": "single-stim", "stimulus": "<p id=\"stim\">8</p>", "internal_node_id": "0.0-91.0-2.0", "time_elapsed": 902260, "key_press": -1, "trial_index": 120}, "uniqueid": "MTK1806:34T446B1C1LOAWGSLESORWM6E6T0C8", "dateTime": 1516309244940}, {"current_trial": 121, "trialdata": {"rt": -1, "trial_type": "single-stim", "stimulus": "<p id=\"stim\">7</p>", "internal_node_id": "0.0-91.0-3.0", "time_elapsed": 903266, "key_press": -1, "trial_index": 121}, "uniqueid": "MTK1806:34T446B1C1LOAWGSLESORWM6E6T0C8", "dateTime": 1516309245946}, {"current_trial": 122, "trialdata": {"rt": -1, "trial_type": "single-stim", "stimulus": "<p id=\"stim\">6</p>", "internal_node_id": "0.0-91.0-4.0", "time_elapsed": 904277, "key_press": -1, "trial_index": 122}, "uniqueid": "MTK1806:34T446B1C1LOAWGSLESORWM6E6T0C8", "dateTime": 1516309246957}, {"current_trial": 123, "trialdata": {"rt": -1, "trial_type": "single-stim", "stimulus": "<p id=\"stim\">5</p>", "internal_node_id": "0.0-91.0-5.0", "time_elapsed": 905287, "key_press": -1, "trial_index": 123}, "uniqueid": "MTK1806:34T446B1C1LOAWGSLESORWM6E6T0C8", "dateTime": 1516309247967}, {"current_trial": 124, "trialdata": {"rt": -1, "trial_type": "single-stim", "stimulus": "<p id=\"stim\">4</p>", "internal_node_id": "0.0-91.0-6.0", "time_elapsed": 906301, "key_press": -1, "trial_index": 124}, "uniqueid": "MTK1806:34T446B1C1LOAWGSLESORWM6E6T0C8", "dateTime": 1516309248981}, {"current_trial": 125, "trialdata": {"rt": -1, "trial_type": "single-stim", "stimulus": "<p id=\"stim\">3</p>", "internal_node_id": "0.0-91.0-7.0", "time_elapsed": 907304, "key_press": -1, "trial_index": 125}, "uniqueid": "MTK1806:34T446B1C1LOAWGSLESORWM6E6T0C8", "dateTime": 1516309249984}, {"current_trial": 126, "trialdata": {"rt": -1, "trial_type": "single-stim", "stimulus": "<p id=\"stim\">2</p>", "internal_node_id": "0.0-91.0-8.0", "time_elapsed": 908306, "key_press": -1, "trial_index": 126}, "uniqueid": "MTK1806:34T446B1C1LOAWGSLESORWM6E6T0C8", "dateTime": 1516309250986}, {"current_trial": 127, "trialdata": {"rt": -1, "trial_type": "single-stim", "stimulus": "<p id=\"stim\">1</p>", "internal_node_id": "0.0-91.0-9.0", "time_elapsed": 909307, "key_press": -1, "trial_index": 127}, "uniqueid": "MTK1806:34T446B1C1LOAWGSLESORWM6E6T0C8", "dateTime": 1516309251987}, {"current_trial": 128, "trialdata": {"rt": -1, "trial_type": "single-stim", "stimulus": "<p id=\"stim\">+</p>", "internal_node_id": "0.0-92.0-0.0", "time_elapsed": 910808, "key_press": -1, "type": "FIXATION", "trial_index": 128}, "uniqueid": "MTK1806:34T446B1C1LOAWGSLESORWM6E6T0C8", "dateTime": 1516309253488}, {"current_trial": 129, "trialdata": {"rt": -1000, "trial_type": "single-audio", "word": "muffin", "stimulus": "/static/audio/wordpool/MUFFIN.wav", "conditions": [12, 800, "a", 24000], "internal_node_id": "0.0-93.0", "trial": 3, "time_elapsed": 912685, "serialpos": 0, "key_press": -1, "wordID": 928, "type": "PRES_AUD", "trial_index": 129}, "uniqueid": "MTK1806:34T446B1C1LOAWGSLESORWM6E6T0C8", "dateTime": 1516309255365}, {"current_trial": 130, "trialdata": {"rt": -1000, "trial_type": "single-audio", "word": "taxi", "stimulus": "/static/audio/wordpool/TAXI.wav", "conditions": [12, 800, "a", 24000], "internal_node_id": "0.0-94.0", "trial": 3, "time_elapsed": 914379, "serialpos": 1, "key_press": -1, "wordID": 1437, "type": "PRES_AUD", "trial_index": 130}, "uniqueid": "MTK1806:34T446B1C1LOAWGSLESORWM6E6T0C8", "dateTime": 1516309257059}, {"current_trial": 131, "trialdata": {"rt": -1000, "trial_type": "single-audio", "word": "binder", "stimulus": "/static/audio/wordpool/BINDER.wav", "conditions": [12, 800, "a", 24000], "internal_node_id": "0.0-95.0", "trial": 3, "time_elapsed": 916144, "serialpos": 2, "key_press": -1, "wordID": 126, "type": "PRES_AUD", "trial_index": 131}, "uniqueid": "MTK1806:34T446B1C1LOAWGSLESORWM6E6T0C8", "dateTime": 1516309258824}, {"current_trial": 132, "trialdata": {"rt": -1000, "trial_type": "single-audio", "word": "sandwich", "stimulus": "/static/audio/wordpool/SANDWICH.wav", "conditions": [12, 800, "a", 24000], "internal_node_id": "0.0-96.0", "trial": 3, "time_elapsed": 917811, "serialpos": 3, "key_press": -1, "wordID": 1231, "type": "PRES_AUD", "trial_index": 132}, "uniqueid": "MTK1806:34T446B1C1LOAWGSLESORWM6E6T0C8", "dateTime": 1516309260491}, {"current_trial": 133, "trialdata": {"rt": -1000, "trial_type": "single-audio", "word": "doughnut", "stimulus": "/static/audio/wordpool/DOUGHNUT.wav", "conditions": [12, 800, "a", 24000], "internal_node_id": "0.0-97.0", "trial": 3, "time_elapsed": 919592, "serialpos": 4, "key_press": -1, "wordID": 489, "type": "PRES_AUD", "trial_index": 133}, "uniqueid": "MTK1806:34T446B1C1LOAWGSLESORWM6E6T0C8", "dateTime": 1516309262272}, {"current_trial": 134, "trialdata": {"rt": -1000, "trial_type": "single-audio", "word": "pocket", "stimulus": "/static/audio/wordpool/POCKET.wav", "conditions": [12, 800, "a", 24000], "internal_node_id": "0.0-98.0", "trial": 3, "time_elapsed": 921507, "serialpos": 5, "key_press": -1, "wordID": 1092, "type": "PRES_AUD", "trial_index": 134}, "uniqueid": "MTK1806:34T446B1C1LOAWGSLESORWM6E6T0C8", "dateTime": 1516309264187}, {"current_trial": 135, "trialdata": {"rt": -1000, "trial_type": "single-audio", "word": "stone", "stimulus": "/static/audio/wordpool/STONE.wav", "conditions": [12, 800, "a", 24000], "internal_node_id": "0.0-99.0", "trial": 3, "time_elapsed": 923215, "serialpos": 6, "key_press": -1, "wordID": 1384, "type": "PRES_AUD", "trial_index": 135}, "uniqueid": "MTK1806:34T446B1C1LOAWGSLESORWM6E6T0C8", "dateTime": 1516309265895}, {"current_trial": 136, "trialdata": {"rt": -1000, "trial_type": "single-audio", "word": "belly", "stimulus": "/static/audio/wordpool/BELLY.wav", "conditions": [12, 800, "a", 24000], "internal_node_id": "0.0-100.0", "trial": 3, "time_elapsed": 925049, "serialpos": 7, "key_press": -1, "wordID": 118, "type": "PRES_AUD", "trial_index": 136}, "uniqueid": "MTK1806:34T446B1C1LOAWGSLESORWM6E6T0C8", "dateTime": 1516309267729}, {"current_trial": 137, "trialdata": {"rt": -1000, "trial_type": "single-audio", "word": "stamp", "stimulus": "/static/audio/wordpool/STAMP.wav", "conditions": [12, 800, "a", 24000], "internal_node_id": "0.0-101.0", "trial": 3, "time_elapsed": 926954, "serialpos": 8, "key_press": -1, "wordID": 1369, "type": "PRES_AUD", "trial_index": 137}, "uniqueid": "MTK1806:34T446B1C1LOAWGSLESORWM6E6T0C8", "dateTime": 1516309269634}, {"current_trial": 138, "trialdata": {"rt": -1000, "trial_type": "single-audio", "word": "hand", "stimulus": "/static/audio/wordpool/HAND.wav", "conditions": [12, 800, "a", 24000], "internal_node_id": "0.0-102.0", "trial": 3, "time_elapsed": 928659, "serialpos": 9, "key_press": -1, "wordID": 682, "type": "PRES_AUD", "trial_index": 138}, "uniqueid": "MTK1806:34T446B1C1LOAWGSLESORWM6E6T0C8", "dateTime": 1516309271339}, {"current_trial": 139, "trialdata": {"rt": -1000, "trial_type": "single-audio", "word": "beast", "stimulus": "/static/audio/wordpool/BEAST.wav", "conditions": [12, 800, "a", 24000], "internal_node_id": "0.0-103.0", "trial": 3, "time_elapsed": 930324, "serialpos": 10, "key_press": -1, "wordID": 107, "type": "PRES_AUD", "trial_index": 139}, "uniqueid": "MTK1806:34T446B1C1LOAWGSLESORWM6E6T0C8", "dateTime": 1516309273004}, {"current_trial": 140, "trialdata": {"rt": -1000, "trial_type": "single-audio", "word": "monster", "stimulus": "/static/audio/wordpool/MONSTER.wav", "conditions": [12, 800, "a", 24000], "internal_node_id": "0.0-104.0", "trial": 3, "time_elapsed": 932109, "serialpos": 11, "key_press": -1, "wordID": 911, "type": "PRES_AUD", "trial_index": 140}, "uniqueid": "MTK1806:34T446B1C1LOAWGSLESORWM6E6T0C8", "dateTime": 1516309274789}, {"current_trial": 141, "trialdata": {"rt": -1, "trial_type": "single-stim", "stimulus": "", "internal_node_id": "0.0-105.0-0.0", "time_elapsed": 933468, "key_press": -1, "type": "PRE_RECALL_DELAY", "trial_index": 141}, "uniqueid": "MTK1806:34T446B1C1LOAWGSLESORWM6E6T0C8", "dateTime": 1516309276149}, {"current_trial": 142, "trialdata": {"rt": -1000, "trial_type": "single-audio", "stimulus": "/static/audio/400Hz.wav", "internal_node_id": "0.0-106.0", "time_elapsed": 933983, "key_press": -1, "type": "PRE_RECALL_ALERT", "trial_index": 142}, "uniqueid": "MTK1806:34T446B1C1LOAWGSLESORWM6E6T0C8", "dateTime": 1516309276663}, {"current_trial": 143, "trialdata": {"rt": [4581, 6594, 8536, 11692, 13598, 24476], "recwords": ["monster", "beast", "hand", "sandwich", "belly", "stamp"], "key_times": [3288, 3445, 3639, 3815, 3949, 4086, 4312, 4581, 5336, 5446, 5671, 5859, 5942, 6594, 7958, 8075, 8169, 8391, 8536, 9153, 9341, 9447, 9641, 9834, 10037, 10280, 10451, 11692, 12234, 12372, 12531, 12676, 12941, 13598, 22733, 22894, 23019, 23845, 24025, 24476], "trial_type": "free-recall", "conditions": [12, 800, "a", 24000], "internal_node_id": "0.0-107.0-0.0", "key_presses": [77, 79, 78, 83, 84, 69, 82, 13, 66, 69, 65, 83, 84, 13, 72, 65, 78, 68, 13, 83, 65, 78, 68, 87, 73, 67, 72, 13, 66, 69, 76, 76, 89, 13, 83, 84, 65, 77, 80, 13], "trial": 3, "time_elapsed": 993999, "type": "FREE_RECALL", "trial_index": 143}, "uniqueid": "MTK1806:34T446B1C1LOAWGSLESORWM6E6T0C8", "dateTime": 1516309336681}, {"current_trial": 144, "trialdata": {"rt": 2261, "trial_type": "text", "internal_node_id": "0.0-108.0", "time_elapsed": 998263, "key_press": 76, "type": "INSTRUCTIONS", "trial_index": 144}, "uniqueid": "MTK1806:34T446B1C1LOAWGSLESORWM6E6T0C8", "dateTime": 1516309340943}, {"current_trial": 145, "trialdata": {"rt": [2953, 5261, 6580, 9127, 10610, 12563, 14000, 15348, 16800, 20506, 22568], "trial_type": "math-distractor", "key_times": [2508, 2684, 2953, 4764, 5025, 5261, 6174, 6363, 6580, 8604, 8843, 9127, 10282, 10452, 10610, 12150, 12335, 12563, 13615, 13770, 14000, 15077, 15348, 16440, 16593, 16800, 20183, 20337, 20506, 22129, 22305, 22568, 23815, 23943], "responses": ["14", "12", "12", "19", "11", "24", "15", "7", "16", "25", "14"], "num2": [1, 1, 5, 7, 5, 8, 7, 5, 5, 8, 4, 9], "num3": [7, 5, 2, 5, 2, 7, 1, 1, 3, 8, 7, 5], "conditions": [24, 800, "a", 24000], "internal_node_id": "0.0-109.0", "key_presses": [97, 100, 13, 97, 98, 13, 97, 98, 13, 97, 105, 13, 97, 97, 13, 98, 100, 13, 97, 101, 13, 103, 13, 97, 102, 13, 98, 101, 13, 97, 100, 13, 97, 102], "trial": 4, "time_elapsed": 1024273, "type": "DISTRACTOR", "trial_index": 145, "num1": [6, 6, 5, 7, 4, 9, 7, 1, 8, 9, 3, 2]}, "uniqueid": "MTK1806:34T446B1C1LOAWGSLESORWM6E6T0C8", "dateTime": 1516309366953}, {"current_trial": 146, "trialdata": {"rt": -1, "trial_type": "single-stim", "stimulus": "<p id=\"stim\">10</p>", "internal_node_id": "0.0-110.0-0.0", "time_elapsed": 1027278, "key_press": -1, "trial_index": 146}, "uniqueid": "MTK1806:34T446B1C1LOAWGSLESORWM6E6T0C8", "dateTime": 1516309369958}, {"current_trial": 147, "trialdata": {"rt": -1, "trial_type": "single-stim", "stimulus": "<p id=\"stim\">9</p>", "internal_node_id": "0.0-110.0-1.0", "time_elapsed": 1028279, "key_press": -1, "trial_index": 147}, "uniqueid": "MTK1806:34T446B1C1LOAWGSLESORWM6E6T0C8", "dateTime": 1516309370959}, {"current_trial": 148, "trialdata": {"rt": -1, "trial_type": "single-stim", "stimulus": "<p id=\"stim\">8</p>", "internal_node_id": "0.0-110.0-2.0", "time_elapsed": 1029283, "key_press": -1, "trial_index": 148}, "uniqueid": "MTK1806:34T446B1C1LOAWGSLESORWM6E6T0C8", "dateTime": 1516309371963}, {"current_trial": 149, "trialdata": {"rt": -1, "trial_type": "single-stim", "stimulus": "<p id=\"stim\">7</p>", "internal_node_id": "0.0-110.0-3.0", "time_elapsed": 1030286, "key_press": -1, "trial_index": 149}, "uniqueid": "MTK1806:34T446B1C1LOAWGSLESORWM6E6T0C8", "dateTime": 1516309372966}, {"current_trial": 150, "trialdata": {"rt": -1, "trial_type": "single-stim", "stimulus": "<p id=\"stim\">6</p>", "internal_node_id": "0.0-110.0-4.0", "time_elapsed": 1031287, "key_press": -1, "trial_index": 150}, "uniqueid": "MTK1806:34T446B1C1LOAWGSLESORWM6E6T0C8", "dateTime": 1516309373967}, {"current_trial": 151, "trialdata": {"rt": -1, "trial_type": "single-stim", "stimulus": "<p id=\"stim\">5</p>", "internal_node_id": "0.0-110.0-5.0", "time_elapsed": 1032301, "key_press": -1, "trial_index": 151}, "uniqueid": "MTK1806:34T446B1C1LOAWGSLESORWM6E6T0C8", "dateTime": 1516309374981}, {"current_trial": 152, "trialdata": {"rt": -1, "trial_type": "single-stim", "stimulus": "<p id=\"stim\">4</p>", "internal_node_id": "0.0-110.0-6.0", "time_elapsed": 1033306, "key_press": -1, "trial_index": 152}, "uniqueid": "MTK1806:34T446B1C1LOAWGSLESORWM6E6T0C8", "dateTime": 1516309375986}, {"current_trial": 153, "trialdata": {"rt": -1, "trial_type": "single-stim", "stimulus": "<p id=\"stim\">3</p>", "internal_node_id": "0.0-110.0-7.0", "time_elapsed": 1034310, "key_press": -1, "trial_index": 153}, "uniqueid": "MTK1806:34T446B1C1LOAWGSLESORWM6E6T0C8", "dateTime": 1516309376990}, {"current_trial": 154, "trialdata": {"rt": -1, "trial_type": "single-stim", "stimulus": "<p id=\"stim\">2</p>", "internal_node_id": "0.0-110.0-8.0", "time_elapsed": 1035324, "key_press": -1, "trial_index": 154}, "uniqueid": "MTK1806:34T446B1C1LOAWGSLESORWM6E6T0C8", "dateTime": 1516309378004}, {"current_trial": 155, "trialdata": {"rt": -1, "trial_type": "single-stim", "stimulus": "<p id=\"stim\">1</p>", "internal_node_id": "0.0-110.0-9.0", "time_elapsed": 1036331, "key_press": -1, "trial_index": 155}, "uniqueid": "MTK1806:34T446B1C1LOAWGSLESORWM6E6T0C8", "dateTime": 1516309379011}, {"current_trial": 156, "trialdata": {"rt": -1, "trial_type": "single-stim", "stimulus": "<p id=\"stim\">+</p>", "internal_node_id": "0.0-111.0-0.0", "time_elapsed": 1037834, "key_press": -1, "type": "FIXATION", "trial_index": 156}, "uniqueid": "MTK1806:34T446B1C1LOAWGSLESORWM6E6T0C8", "dateTime": 1516309380514}, {"current_trial": 157, "trialdata": {"rt": -1000, "trial_type": "single-audio", "word": "dustpan", "stimulus": "/static/audio/wordpool/DUSTPAN.wav", "conditions": [24, 800, "a", 24000], "internal_node_id": "0.0-112.0", "trial": 4, "time_elapsed": 1039498, "serialpos": 0, "key_press": -1, "wordID": 508, "type": "PRES_AUD", "trial_index": 157}, "uniqueid": "MTK1806:34T446B1C1LOAWGSLESORWM6E6T0C8", "dateTime": 1516309382178}, {"current_trial": 158, "trialdata": {"rt": -1000, "trial_type": "single-audio", "word": "camel", "stimulus": "/static/audio/wordpool/CAMEL.wav", "conditions": [24, 800, "a", 24000], "internal_node_id": "0.0-113.0", "trial": 4, "time_elapsed": 1041361, "serialpos": 1, "key_press": -1, "wordID": 222, "type": "PRES_AUD", "trial_index": 158}, "uniqueid": "MTK1806:34T446B1C1LOAWGSLESORWM6E6T0C8", "dateTime": 1516309384041}, {"current_trial": 159, "trialdata": {"rt": -1000, "trial_type": "single-audio", "word": "shortcake", "stimulus": "/static/audio/wordpool/SHORTCAKE.wav", "conditions": [24, 800, "a", 24000], "internal_node_id": "0.0-114.0", "trial": 4, "time_elapsed": 1043079, "serialpos": 2, "key_press": -1, "wordID": 1291, "type": "PRES_AUD", "trial_index": 159}, "uniqueid": "MTK1806:34T446B1C1LOAWGSLESORWM6E6T0C8", "dateTime": 1516309385759}, {"current_trial": 160, "trialdata": {"rt": -1000, "trial_type": "single-audio", "word": "custard", "stimulus": "/static/audio/wordpool/CUSTARD.wav", "conditions": [24, 800, "a", 24000], "internal_node_id": "0.0-115.0", "trial": 4, "time_elapsed": 1044874, "serialpos": 3, "key_press": -1, "wordID": 428, "type": "PRES_AUD", "trial_index": 160}, "uniqueid": "MTK1806:34T446B1C1LOAWGSLESORWM6E6T0C8", "dateTime": 1516309387554}, {"current_trial": 161, "trialdata": {"rt": -1000, "trial_type": "single-audio", "word": "burglar", "stimulus": "/static/audio/wordpool/BURGLAR.wav", "conditions": [24, 800, "a", 24000], "internal_node_id": "0.0-116.0", "trial": 4, "time_elapsed": 1046535, "serialpos": 4, "key_press": -1, "wordID": 199, "type": "PRES_AUD", "trial_index": 161}, "uniqueid": "MTK1806:34T446B1C1LOAWGSLESORWM6E6T0C8", "dateTime": 1516309389216}, {"current_trial": 162, "trialdata": {"rt": -1000, "trial_type": "single-audio", "word": "chauffeur", "stimulus": "/static/audio/wordpool/CHAUFFEUR.wav", "conditions": [24, 800, "a", 24000], "internal_node_id": "0.0-117.0", "trial": 4, "time_elapsed": 1048493, "serialpos": 5, "key_press": -1, "wordID": 282, "type": "PRES_AUD", "trial_index": 162}, "uniqueid": "MTK1806:34T446B1C1LOAWGSLESORWM6E6T0C8", "dateTime": 1516309391173}, {"current_trial": 163, "trialdata": {"rt": -1000, "trial_type": "single-audio", "word": "highway", "stimulus": "/static/audio/wordpool/HIGHWAY.wav", "conditions": [24, 800, "a", 24000], "internal_node_id": "0.0-118.0", "trial": 4, "time_elapsed": 1050225, "serialpos": 6, "key_press": -1, "wordID": 706, "type": "PRES_AUD", "trial_index": 163}, "uniqueid": "MTK1806:34T446B1C1LOAWGSLESORWM6E6T0C8", "dateTime": 1516309392905}, {"current_trial": 164, "trialdata": {"rt": -1000, "trial_type": "single-audio", "word": "garden", "stimulus": "/static/audio/wordpool/GARDEN.wav", "conditions": [24, 800, "a", 24000], "internal_node_id": "0.0-119.0", "trial": 4, "time_elapsed": 1051830, "serialpos": 7, "key_press": -1, "wordID": 622, "type": "PRES_AUD", "trial_index": 164}, "uniqueid": "MTK1806:34T446B1C1LOAWGSLESORWM6E6T0C8", "dateTime": 1516309394510}, {"current_trial": 165, "trialdata": {"rt": -1000, "trial_type": "single-audio", "word": "robin", "stimulus": "/static/audio/wordpool/ROBIN.wav", "conditions": [24, 800, "a", 24000], "internal_node_id": "0.0-120.0", "trial": 4, "time_elapsed": 1053811, "serialpos": 8, "key_press": -1, "wordID": 1198, "type": "PRES_AUD", "trial_index": 165}, "uniqueid": "MTK1806:34T446B1C1LOAWGSLESORWM6E6T0C8", "dateTime": 1516309396491}, {"current_trial": 166, "trialdata": {"rt": -1000, "trial_type": "single-audio", "word": "kleenex", "stimulus": "/static/audio/wordpool/KLEENEX.wav", "conditions": [24, 800, "a", 24000], "internal_node_id": "0.0-121.0", "trial": 4, "time_elapsed": 1055704, "serialpos": 9, "key_press": -1, "wordID": 781, "type": "PRES_AUD", "trial_index": 166}, "uniqueid": "MTK1806:34T446B1C1LOAWGSLESORWM6E6T0C8", "dateTime": 1516309398384}, {"current_trial": 167, "trialdata": {"rt": -1000, "trial_type": "single-audio", "word": "blackboard", "stimulus": "/static/audio/wordpool/BLACKBOARD.wav", "conditions": [24, 800, "a", 24000], "internal_node_id": "0.0-122.0", "trial": 4, "time_elapsed": 1057645, "serialpos": 10, "key_press": -1, "wordID": 132, "type": "PRES_AUD", "trial_index": 167}, "uniqueid": "MTK1806:34T446B1C1LOAWGSLESORWM6E6T0C8", "dateTime": 1516309400325}, {"current_trial": 168, "trialdata": {"rt": -1000, "trial_type": "single-audio", "word": "wasp", "stimulus": "/static/audio/wordpool/WASP.wav", "conditions": [24, 800, "a", 24000], "internal_node_id": "0.0-123.0", "trial": 4, "time_elapsed": 1059521, "serialpos": 11, "key_press": -1, "wordID": 1592, "type": "PRES_AUD", "trial_index": 168}, "uniqueid": "MTK1806:34T446B1C1LOAWGSLESORWM6E6T0C8", "dateTime": 1516309402202}, {"current_trial": 169, "trialdata": {"rt": -1000, "trial_type": "single-audio", "word": "world", "stimulus": "/static/audio/wordpool/WORLD.wav", "conditions": [24, 800, "a", 24000], "internal_node_id": "0.0-124.0", "trial": 4, "time_elapsed": 1061358, "serialpos": 12, "key_press": -1, "wordID": 1621, "type": "PRES_AUD", "trial_index": 169}, "uniqueid": "MTK1806:34T446B1C1LOAWGSLESORWM6E6T0C8", "dateTime": 1516309404038}, {"current_trial": 170, "trialdata": {"rt": -1000, "trial_type": "single-audio", "word": "japan", "stimulus": "/static/audio/wordpool/JAPAN.wav", "conditions": [24, 800, "a", 24000], "internal_node_id": "0.0-125.0", "trial": 4, "time_elapsed": 1063166, "serialpos": 13, "key_press": -1, "wordID": 748, "type": "PRES_AUD", "trial_index": 170}, "uniqueid": "MTK1806:34T446B1C1LOAWGSLESORWM6E6T0C8", "dateTime": 1516309405846}, {"current_trial": 171, "trialdata": {"rt": -1000, "trial_type": "single-audio", "word": "cashier", "stimulus": "/static/audio/wordpool/CASHIER.wav", "conditions": [24, 800, "a", 24000], "internal_node_id": "0.0-126.0", "trial": 4, "time_elapsed": 1064998, "serialpos": 14, "key_press": -1, "wordID": 253, "type": "PRES_AUD", "trial_index": 171}, "uniqueid": "MTK1806:34T446B1C1LOAWGSLESORWM6E6T0C8", "dateTime": 1516309407678}, {"current_trial": 172, "trialdata": {"rt": -1000, "trial_type": "single-audio", "word": "hornet", "stimulus": "/static/audio/wordpool/HORNET.wav", "conditions": [24, 800, "a", 24000], "internal_node_id": "0.0-127.0", "trial": 4, "time_elapsed": 1066762, "serialpos": 15, "key_press": -1, "wordID": 717, "type": "PRES_AUD", "trial_index": 172}, "uniqueid": "MTK1806:34T446B1C1LOAWGSLESORWM6E6T0C8", "dateTime": 1516309409442}, {"current_trial": 173, "trialdata": {"rt": -1000, "trial_type": "single-audio", "word": "fox", "stimulus": "/static/audio/wordpool/FOX.wav", "conditions": [24, 800, "a", 24000], "internal_node_id": "0.0-128.0", "trial": 4, "time_elapsed": 1068704, "serialpos": 16, "key_press": -1, "wordID": 597, "type": "PRES_AUD", "trial_index": 173}, "uniqueid": "MTK1806:34T446B1C1LOAWGSLESORWM6E6T0C8", "dateTime": 1516309411384}, {"current_trial": 174, "trialdata": {"rt": -1000, "trial_type": "single-audio", "word": "sheriff", "stimulus": "/static/audio/wordpool/SHERIFF.wav", "conditions": [24, 800, "a", 24000], "internal_node_id": "0.0-129.0", "trial": 4, "time_elapsed": 1070396, "serialpos": 17, "key_press": -1, "wordID": 1283, "type": "PRES_AUD", "trial_index": 174}, "uniqueid": "MTK1806:34T446B1C1LOAWGSLESORWM6E6T0C8", "dateTime": 1516309413076}, {"current_trial": 175, "trialdata": {"rt": -1000, "trial_type": "single-audio", "word": "parsley", "stimulus": "/static/audio/wordpool/PARSLEY.wav", "conditions": [24, 800, "a", 24000], "internal_node_id": "0.0-130.0", "trial": 4, "time_elapsed": 1072403, "serialpos": 18, "key_press": -1, "wordID": 1015, "type": "PRES_AUD", "trial_index": 175}, "uniqueid": "MTK1806:34T446B1C1LOAWGSLESORWM6E6T0C8", "dateTime": 1516309415083}, {"current_trial": 176, "trialdata": {"rt": -1000, "trial_type": "single-audio", "word": "robber", "stimulus": "/static/audio/wordpool/ROBBER.wav", "conditions": [24, 800, "a", 24000], "internal_node_id": "0.0-131.0", "trial": 4, "time_elapsed": 1074382, "serialpos": 19, "key_press": -1, "wordID": 1196, "type": "PRES_AUD", "trial_index": 176}, "uniqueid": "MTK1806:34T446B1C1LOAWGSLESORWM6E6T0C8", "dateTime": 1516309417062}, {"current_trial": 177, "trialdata": {"rt": -1000, "trial_type": "single-audio", "word": "swimmer", "stimulus": "/static/audio/wordpool/SWIMMER.wav", "conditions": [24, 800, "a", 24000], "internal_node_id": "0.0-132.0", "trial": 4, "time_elapsed": 1076281, "serialpos": 20, "key_press": -1, "wordID": 1419, "type": "PRES_AUD", "trial_index": 177}, "uniqueid": "MTK1806:34T446B1C1LOAWGSLESORWM6E6T0C8", "dateTime": 1516309418961}, {"current_trial": 178, "trialdata": {"rt": -1000, "trial_type": "single-audio", "word": "diver", "stimulus": "/static/audio/wordpool/DIVER.wav", "conditions": [24, 800, "a", 24000], "internal_node_id": "0.0-133.0", "trial": 4, "time_elapsed": 1077968, "serialpos": 21, "key_press": -1, "wordID": 475, "type": "PRES_AUD", "trial_index": 178}, "uniqueid": "MTK1806:34T446B1C1LOAWGSLESORWM6E6T0C8", "dateTime": 1516309420648}, {"current_trial": 179, "trialdata": {"rt": -1000, "trial_type": "single-audio", "word": "sticker", "stimulus": "/static/audio/wordpool/STICKER.wav", "conditions": [24, 800, "a", 24000], "internal_node_id": "0.0-134.0", "trial": 4, "time_elapsed": 1079725, "serialpos": 22, "key_press": -1, "wordID": 1381, "type": "PRES_AUD", "trial_index": 179}, "uniqueid": "MTK1806:34T446B1C1LOAWGSLESORWM6E6T0C8", "dateTime": 1516309422405}, {"current_trial": 180, "trialdata": {"rt": -1000, "trial_type": "single-audio", "word": "flipper", "stimulus": "/static/audio/wordpool/FLIPPER.wav", "conditions": [24, 800, "a", 24000], "internal_node_id": "0.0-135.0", "trial": 4, "time_elapsed": 1081674, "serialpos": 23, "key_press": -1, "wordID": 579, "type": "PRES_AUD", "trial_index": 180}, "uniqueid": "MTK1806:34T446B1C1LOAWGSLESORWM6E6T0C8", "dateTime": 1516309424354}, {"current_trial": 181, "trialdata": {"rt": -1, "trial_type": "single-stim", "stimulus": "", "internal_node_id": "0.0-136.0-0.0", "time_elapsed": 1083014, "key_press": -1, "type": "PRE_RECALL_DELAY", "trial_index": 181}, "uniqueid": "MTK1806:34T446B1C1LOAWGSLESORWM6E6T0C8", "dateTime": 1516309425694}, {"current_trial": 182, "trialdata": {"rt": -1000, "trial_type": "single-audio", "stimulus": "/static/audio/400Hz.wav", "internal_node_id": "0.0-137.0", "time_elapsed": 1083530, "key_press": -1, "type": "PRE_RECALL_ALERT", "trial_index": 182}, "uniqueid": "MTK1806:34T446B1C1LOAWGSLESORWM6E6T0C8", "dateTime": 1516309426211}, {"current_trial": 183, "trialdata": {"rt": [2481, 6841, 8419, 12505, 15811, 22280], "recwords": ["flipper", "sticker", "robber", "sheriff", "muffin", "dustpan"], "key_times": [1185, 1355, 1546, 1806, 1920, 2142, 2320, 2481, 3881, 4005, 4403, 4515, 4867, 5043, 5341, 5925, 6058, 6226, 6449, 6841, 7521, 7639, 7902, 8027, 8131, 8297, 8419, 9042, 9207, 9384, 9649, 9839, 10060, 10249, 10968, 11138, 11449, 11868, 11982, 12148, 12505, 14123, 14405, 14680, 14845, 14983, 15208, 15811, 20520, 20706, 20948, 21068, 21415, 21613, 21724, 22280], "trial_type": "free-recall", "conditions": [24, 800, "a", 24000], "internal_node_id": "0.0-138.0-0.0", "key_presses": [70, 76, 73, 80, 80, 69, 82, 13, 83, 84, 79, 67, 8, 8, 73, 67, 75, 69, 82, 13, 82, 79, 66, 66, 69, 82, 13, 83, 72, 69, 82, 82, 73, 70, 8, 8, 8, 73, 70, 70, 13, 77, 85, 70, 70, 73, 78, 13, 68, 85, 83, 84, 80, 65, 78, 13], "trial": 4, "time_elapsed": 1143542, "type": "FREE_RECALL", "trial_index": 183}, "uniqueid": "MTK1806:34T446B1C1LOAWGSLESORWM6E6T0C8", "dateTime": 1516309486226}, {"current_trial": 184, "trialdata": {"rt": 32490, "trial_type": "text", "internal_node_id": "0.0-139.0", "time_elapsed": 1178044, "key_press": 76, "type": "INSTRUCTIONS", "trial_index": 184}, "uniqueid": "MTK1806:34T446B1C1LOAWGSLESORWM6E6T0C8", "dateTime": 1516309520724}, {"current_trial": 185, "trialdata": {"rt": [1715, 3645, 5315, 7791, 10752], "trial_type": "math-distractor", "key_times": [1177, 1338, 1715, 2905, 3216, 3645, 4868, 5076, 5315, 7385, 7554, 7791, 10170, 10328, 10752, 11930], "responses": ["11", "17", "20", "12", "22"], "num2": [2, 9, 8, 2, 4, 4], "num3": [1, 6, 6, 8, 9, 6], "conditions": [12, 800, "a", 12000], "internal_node_id": "0.0-140.0", "key_presses": [97, 97, 13, 97, 103, 13, 98, 96, 13, 97, 98, 13, 98, 98, 13, 97], "trial": 5, "time_elapsed": 1192066, "type": "DISTRACTOR", "trial_index": 185, "num1": [8, 2, 6, 2, 9, 1]}, "uniqueid": "MTK1806:34T446B1C1LOAWGSLESORWM6E6T0C8", "dateTime": 1516309534747}, {"current_trial": 186, "trialdata": {"rt": -1, "trial_type": "single-stim", "stimulus": "<p id=\"stim\">10</p>", "internal_node_id": "0.0-141.0-0.0", "time_elapsed": 1195070, "key_press": -1, "trial_index": 186}, "uniqueid": "MTK1806:34T446B1C1LOAWGSLESORWM6E6T0C8", "dateTime": 1516309537750}, {"current_trial": 187, "trialdata": {"rt": -1, "trial_type": "single-stim", "stimulus": "<p id=\"stim\">9</p>", "internal_node_id": "0.0-141.0-1.0", "time_elapsed": 1196071, "key_press": -1, "trial_index": 187}, "uniqueid": "MTK1806:34T446B1C1LOAWGSLESORWM6E6T0C8", "dateTime": 1516309538752}, {"current_trial": 188, "trialdata": {"rt": -1, "trial_type": "single-stim", "stimulus": "<p id=\"stim\">8</p>", "internal_node_id": "0.0-141.0-2.0", "time_elapsed": 1197081, "key_press": -1, "trial_index": 188}, "uniqueid": "MTK1806:34T446B1C1LOAWGSLESORWM6E6T0C8", "dateTime": 1516309539762}, {"current_trial": 189, "trialdata": {"rt": -1, "trial_type": "single-stim", "stimulus": "<p id=\"stim\">7</p>", "internal_node_id": "0.0-141.0-3.0", "time_elapsed": 1198086, "key_press": -1, "trial_index": 189}, "uniqueid": "MTK1806:34T446B1C1LOAWGSLESORWM6E6T0C8", "dateTime": 1516309540766}, {"current_trial": 190, "trialdata": {"rt": -1, "trial_type": "single-stim", "stimulus": "<p id=\"stim\">6</p>", "internal_node_id": "0.0-141.0-4.0", "time_elapsed": 1199087, "key_press": -1, "trial_index": 190}, "uniqueid": "MTK1806:34T446B1C1LOAWGSLESORWM6E6T0C8", "dateTime": 1516309541767}, {"current_trial": 191, "trialdata": {"rt": -1, "trial_type": "single-stim", "stimulus": "<p id=\"stim\">5</p>", "internal_node_id": "0.0-141.0-5.0", "time_elapsed": 1200090, "key_press": -1, "trial_index": 191}, "uniqueid": "MTK1806:34T446B1C1LOAWGSLESORWM6E6T0C8", "dateTime": 1516309542770}, {"current_trial": 192, "trialdata": {"rt": -1, "trial_type": "single-stim", "stimulus": "<p id=\"stim\">4</p>", "internal_node_id": "0.0-141.0-6.0", "time_elapsed": 1201090, "key_press": -1, "trial_index": 192}, "uniqueid": "MTK1806:34T446B1C1LOAWGSLESORWM6E6T0C8", "dateTime": 1516309543770}, {"current_trial": 193, "trialdata": {"rt": -1, "trial_type": "single-stim", "stimulus": "<p id=\"stim\">3</p>", "internal_node_id": "0.0-141.0-7.0", "time_elapsed": 1202103, "key_press": -1, "trial_index": 193}, "uniqueid": "MTK1806:34T446B1C1LOAWGSLESORWM6E6T0C8", "dateTime": 1516309544784}, {"current_trial": 194, "trialdata": {"rt": -1, "trial_type": "single-stim", "stimulus": "<p id=\"stim\">2</p>", "internal_node_id": "0.0-141.0-8.0", "time_elapsed": 1203105, "key_press": -1, "trial_index": 194}, "uniqueid": "MTK1806:34T446B1C1LOAWGSLESORWM6E6T0C8", "dateTime": 1516309545785}, {"current_trial": 195, "trialdata": {"rt": -1, "trial_type": "single-stim", "stimulus": "<p id=\"stim\">1</p>", "internal_node_id": "0.0-141.0-9.0", "time_elapsed": 1204114, "key_press": -1, "trial_index": 195}, "uniqueid": "MTK1806:34T446B1C1LOAWGSLESORWM6E6T0C8", "dateTime": 1516309546794}, {"current_trial": 196, "trialdata": {"rt": -1, "trial_type": "single-stim", "stimulus": "<p id=\"stim\">+</p>", "internal_node_id": "0.0-142.0-0.0", "time_elapsed": 1205620, "key_press": -1, "type": "FIXATION", "trial_index": 196}, "uniqueid": "MTK1806:34T446B1C1LOAWGSLESORWM6E6T0C8", "dateTime": 1516309548300}, {"current_trial": 197, "trialdata": {"rt": -1000, "trial_type": "single-audio", "word": "skillet", "stimulus": "/static/audio/wordpool/SKILLET.wav", "conditions": [12, 800, "a", 12000], "internal_node_id": "0.0-143.0", "trial": 5, "time_elapsed": 1207504, "serialpos": 0, "key_press": -1, "wordID": 1316, "type": "PRES_AUD", "trial_index": 197}, "uniqueid": "MTK1806:34T446B1C1LOAWGSLESORWM6E6T0C8", "dateTime": 1516309550184}, {"current_trial": 198, "trialdata": {"rt": -1000, "trial_type": "single-audio", "word": "briefcase", "stimulus": "/static/audio/wordpool/BRIEFCASE.wav", "conditions": [12, 800, "a", 12000], "internal_node_id": "0.0-144.0", "trial": 5, "time_elapsed": 1209371, "serialpos": 1, "key_press": -1, "wordID": 174, "type": "PRES_AUD", "trial_index": 198}, "uniqueid": "MTK1806:34T446B1C1LOAWGSLESORWM6E6T0C8", "dateTime": 1516309552051}, {"current_trial": 199, "trialdata": {"rt": -1000, "trial_type": "single-audio", "word": "cigar", "stimulus": "/static/audio/wordpool/CIGAR.wav", "conditions": [12, 800, "a", 12000], "internal_node_id": "0.0-145.0", "trial": 5, "time_elapsed": 1211112, "serialpos": 2, "key_press": -1, "wordID": 307, "type": "PRES_AUD", "trial_index": 199}, "uniqueid": "MTK1806:34T446B1C1LOAWGSLESORWM6E6T0C8", "dateTime": 1516309553792}, {"current_trial": 200, "trialdata": {"rt": -1000, "trial_type": "single-audio", "word": "citrus", "stimulus": "/static/audio/wordpool/CITRUS.wav", "conditions": [12, 800, "a", 12000], "internal_node_id": "0.0-146.0", "trial": 5, "time_elapsed": 1212743, "serialpos": 3, "key_press": -1, "wordID": 312, "type": "PRES_AUD", "trial_index": 200}, "uniqueid": "MTK1806:34T446B1C1LOAWGSLESORWM6E6T0C8", "dateTime": 1516309555423}, {"current_trial": 201, "trialdata": {"rt": -1000, "trial_type": "single-audio", "word": "catcher", "stimulus": "/static/audio/wordpool/CATCHER.wav", "conditions": [12, 800, "a", 12000], "internal_node_id": "0.0-147.0", "trial": 5, "time_elapsed": 1214409, "serialpos": 4, "key_press": -1, "wordID": 257, "type": "PRES_AUD", "trial_index": 201}, "uniqueid": "MTK1806:34T446B1C1LOAWGSLESORWM6E6T0C8", "dateTime": 1516309557089}, {"current_trial": 202, "trialdata": {"rt": -1000, "trial_type": "single-audio", "word": "spoon", "stimulus": "/static/audio/wordpool/SPOON.wav", "conditions": [12, 800, "a", 12000], "internal_node_id": "0.0-148.0", "trial": 5, "time_elapsed": 1216110, "serialpos": 5, "key_press": -1, "wordID": 1356, "type": "PRES_AUD", "trial_index": 202}, "uniqueid": "MTK1806:34T446B1C1LOAWGSLESORWM6E6T0C8", "dateTime": 1516309558790}, {"current_trial": 203, "trialdata": {"rt": -1000, "trial_type": "single-audio", "word": "helmet", "stimulus": "/static/audio/wordpool/HELMET.wav", "conditions": [12, 800, "a", 12000], "internal_node_id": "0.0-149.0", "trial": 5, "time_elapsed": 1217985, "serialpos": 6, "key_press": -1, "wordID": 701, "type": "PRES_AUD", "trial_index": 203}, "uniqueid": "MTK1806:34T446B1C1LOAWGSLESORWM6E6T0C8", "dateTime": 1516309560665}, {"current_trial": 204, "trialdata": {"rt": -1000, "trial_type": "single-audio", "word": "lake", "stimulus": "/static/audio/wordpool/LAKE.wav", "conditions": [12, 800, "a", 12000], "internal_node_id": "0.0-150.0", "trial": 5, "time_elapsed": 1219597, "serialpos": 7, "key_press": -1, "wordID": 795, "type": "PRES_AUD", "trial_index": 204}, "uniqueid": "MTK1806:34T446B1C1LOAWGSLESORWM6E6T0C8", "dateTime": 1516309562277}, {"current_trial": 205, "trialdata": {"rt": -1000, "trial_type": "single-audio", "word": "lagoon", "stimulus": "/static/audio/wordpool/LAGOON.wav", "conditions": [12, 800, "a", 12000], "internal_node_id": "0.0-151.0", "trial": 5, "time_elapsed": 1221426, "serialpos": 8, "key_press": -1, "wordID": 794, "type": "PRES_AUD", "trial_index": 205}, "uniqueid": "MTK1806:34T446B1C1LOAWGSLESORWM6E6T0C8", "dateTime": 1516309564106}, {"current_trial": 206, "trialdata": {"rt": -1000, "trial_type": "single-audio", "word": "toaster", "stimulus": "/static/audio/wordpool/TOASTER.wav", "conditions": [12, 800, "a", 12000], "internal_node_id": "0.0-152.0", "trial": 5, "time_elapsed": 1223436, "serialpos": 9, "key_press": -1, "wordID": 1471, "type": "PRES_AUD", "trial_index": 206}, "uniqueid": "MTK1806:34T446B1C1LOAWGSLESORWM6E6T0C8", "dateTime": 1516309566116}, {"current_trial": 207, "trialdata": {"rt": -1000, "trial_type": "single-audio", "word": "coin", "stimulus": "/static/audio/wordpool/COIN.wav", "conditions": [12, 800, "a", 12000], "internal_node_id": "0.0-153.0", "trial": 5, "time_elapsed": 1225437, "serialpos": 10, "key_press": -1, "wordID": 342, "type": "PRES_AUD", "trial_index": 207}, "uniqueid": "MTK1806:34T446B1C1LOAWGSLESORWM6E6T0C8", "dateTime": 1516309568117}, {"current_trial": 208, "trialdata": {"rt": -1000, "trial_type": "single-audio", "word": "stomach", "stimulus": "/static/audio/wordpool/STOMACH.wav", "conditions": [12, 800, "a", 12000], "internal_node_id": "0.0-154.0", "trial": 5, "time_elapsed": 1227378, "serialpos": 11, "key_press": -1, "wordID": 1383, "type": "PRES_AUD", "trial_index": 208}, "uniqueid": "MTK1806:34T446B1C1LOAWGSLESORWM6E6T0C8", "dateTime": 1516309570058}, {"current_trial": 209, "trialdata": {"rt": -1, "trial_type": "single-stim", "stimulus": "", "internal_node_id": "0.0-155.0-0.0", "time_elapsed": 1228720, "key_press": -1, "type": "PRE_RECALL_DELAY", "trial_index": 209}, "uniqueid": "MTK1806:34T446B1C1LOAWGSLESORWM6E6T0C8", "dateTime": 1516309571400}, {"current_trial": 210, "trialdata": {"rt": -1000, "trial_type": "single-audio", "stimulus": "/static/audio/400Hz.wav", "internal_node_id": "0.0-156.0", "time_elapsed": 1229230, "key_press": -1, "type": "PRE_RECALL_ALERT", "trial_index": 210}, "uniqueid": "MTK1806:34T446B1C1LOAWGSLESORWM6E6T0C8", "dateTime": 1516309571910}, {"current_trial": 211, "trialdata": {"rt": [2406, 3824, 6252, 10539, 13801], "recwords": ["stomach", "coin", "lagoon", "toaster", "skillet"], "key_times": [691, 1040, 1206, 1407, 1566, 1847, 1992, 2406, 2952, 3100, 3271, 3458, 3824, 4426, 4545, 4857, 5085, 5205, 5771, 6252, 7862, 8199, 8349, 8757, 9038, 9260, 9404, 9492, 10202, 10539, 12195, 12324, 12480, 12728, 12827, 13191, 13415, 13801], "trial_type": "free-recall", "conditions": [12, 800, "a", 12000], "internal_node_id": "0.0-157.0-0.0", "key_presses": [83, 84, 79, 77, 65, 67, 72, 13, 67, 79, 73, 78, 13, 76, 65, 71, 79, 79, 78, 13, 79, 8, 84, 79, 65, 83, 84, 69, 82, 13, 83, 75, 73, 76, 76, 69, 84, 13], "trial": 5, "time_elapsed": 1289236, "type": "FREE_RECALL", "trial_index": 211}, "uniqueid": "MTK1806:34T446B1C1LOAWGSLESORWM6E6T0C8", "dateTime": 1516309631920}, {"current_trial": 212, "trialdata": {"rt": 338304, "trial_type": "text", "internal_node_id": "0.0-158.0", "time_elapsed": 1629550, "key_press": 75, "type": "INSTRUCTIONS", "trial_index": 212}, "uniqueid": "MTK1806:34T446B1C1LOAWGSLESORWM6E6T0C8", "dateTime": 1516309972230}, {"current_trial": 213, "trialdata": {"rt": [2101, 3772, 5764, 7740, 10016, 11114, 12501, 14181, 15825, 17753, 19915, 21936], "trial_type": "math-distractor", "key_times": [1702, 1899, 2101, 3432, 3576, 3772, 5144, 5579, 5764, 7378, 7541, 7740, 9626, 9770, 10016, 10885, 11114, 12204, 12501, 13785, 13961, 14181, 15324, 15561, 15825, 17287, 17510, 17753, 19476, 19711, 19915, 21334, 21624, 21936, 23384, 23593], "responses": ["13", "14", "12", "13", "15", "5", "7", "16", "17", "10", "13", "17"], "num2": [4, 2, 5, 3, 8, 2, 1, 8, 8, 4, 2, 1, 7], "num3": [3, 6, 1, 7, 3, 1, 5, 5, 5, 4, 9, 8, 9], "conditions": [12, 1600, "a", 24000], "internal_node_id": "0.0-159.0", "key_presses": [97, 99, 13, 97, 100, 13, 97, 98, 13, 97, 99, 13, 97, 101, 13, 101, 13, 103, 13, 97, 102, 13, 97, 103, 13, 97, 96, 13, 97, 99, 13, 97, 103, 13, 98, 100], "trial": 6, "time_elapsed": 1655578, "type": "DISTRACTOR", "trial_index": 213, "num1": [6, 6, 6, 2, 4, 2, 1, 3, 4, 2, 2, 8, 8]}, "uniqueid": "MTK1806:34T446B1C1LOAWGSLESORWM6E6T0C8", "dateTime": 1516309998258}, {"current_trial": 214, "trialdata": {"rt": -1, "trial_type": "single-stim", "stimulus": "<p id=\"stim\">10</p>", "internal_node_id": "0.0-160.0-0.0", "time_elapsed": 1658592, "key_press": -1, "trial_index": 214}, "uniqueid": "MTK1806:34T446B1C1LOAWGSLESORWM6E6T0C8", "dateTime": 1516310001273}, {"current_trial": 215, "trialdata": {"rt": -1, "trial_type": "single-stim", "stimulus": "<p id=\"stim\">9</p>", "internal_node_id": "0.0-160.0-1.0", "time_elapsed": 1659596, "key_press": -1, "trial_index": 215}, "uniqueid": "MTK1806:34T446B1C1LOAWGSLESORWM6E6T0C8", "dateTime": 1516310002276}, {"current_trial": 216, "trialdata": {"rt": -1, "trial_type": "single-stim", "stimulus": "<p id=\"stim\">8</p>", "internal_node_id": "0.0-160.0-2.0", "time_elapsed": 1660596, "key_press": -1, "trial_index": 216}, "uniqueid": "MTK1806:34T446B1C1LOAWGSLESORWM6E6T0C8", "dateTime": 1516310003276}, {"current_trial": 217, "trialdata": {"rt": -1, "trial_type": "single-stim", "stimulus": "<p id=\"stim\">7</p>", "internal_node_id": "0.0-160.0-3.0", "time_elapsed": 1661600, "key_press": -1, "trial_index": 217}, "uniqueid": "MTK1806:34T446B1C1LOAWGSLESORWM6E6T0C8", "dateTime": 1516310004280}, {"current_trial": 218, "trialdata": {"rt": -1, "trial_type": "single-stim", "stimulus": "<p id=\"stim\">6</p>", "internal_node_id": "0.0-160.0-4.0", "time_elapsed": 1662612, "key_press": -1, "trial_index": 218}, "uniqueid": "MTK1806:34T446B1C1LOAWGSLESORWM6E6T0C8", "dateTime": 1516310005292}, {"current_trial": 219, "trialdata": {"rt": -1, "trial_type": "single-stim", "stimulus": "<p id=\"stim\">5</p>", "internal_node_id": "0.0-160.0-5.0", "time_elapsed": 1663624, "key_press": -1, "trial_index": 219}, "uniqueid": "MTK1806:34T446B1C1LOAWGSLESORWM6E6T0C8", "dateTime": 1516310006304}, {"current_trial": 220, "trialdata": {"rt": -1, "trial_type": "single-stim", "stimulus": "<p id=\"stim\">4</p>", "internal_node_id": "0.0-160.0-6.0", "time_elapsed": 1664627, "key_press": -1, "trial_index": 220}, "uniqueid": "MTK1806:34T446B1C1LOAWGSLESORWM6E6T0C8", "dateTime": 1516310007307}, {"current_trial": 221, "trialdata": {"rt": -1, "trial_type": "single-stim", "stimulus": "<p id=\"stim\">3</p>", "internal_node_id": "0.0-160.0-7.0", "time_elapsed": 1665631, "key_press": -1, "trial_index": 221}, "uniqueid": "MTK1806:34T446B1C1LOAWGSLESORWM6E6T0C8", "dateTime": 1516310008311}, {"current_trial": 222, "trialdata": {"rt": -1, "trial_type": "single-stim", "stimulus": "<p id=\"stim\">2</p>", "internal_node_id": "0.0-160.0-8.0", "time_elapsed": 1666638, "key_press": -1, "trial_index": 222}, "uniqueid": "MTK1806:34T446B1C1LOAWGSLESORWM6E6T0C8", "dateTime": 1516310009319}, {"current_trial": 223, "trialdata": {"rt": -1, "trial_type": "single-stim", "stimulus": "<p id=\"stim\">1</p>", "internal_node_id": "0.0-160.0-9.0", "time_elapsed": 1667653, "key_press": -1, "trial_index": 223}, "uniqueid": "MTK1806:34T446B1C1LOAWGSLESORWM6E6T0C8", "dateTime": 1516310010334}, {"current_trial": 224, "trialdata": {"rt": -1, "trial_type": "single-stim", "stimulus": "<p id=\"stim\">+</p>", "internal_node_id": "0.0-161.0-0.0", "time_elapsed": 1669154, "key_press": -1, "type": "FIXATION", "trial_index": 224}, "uniqueid": "MTK1806:34T446B1C1LOAWGSLESORWM6E6T0C8", "dateTime": 1516310011834}, {"current_trial": 225, "trialdata": {"rt": -1000, "trial_type": "single-audio", "word": "sculpture", "stimulus": "/static/audio/wordpool/SCULPTURE.wav", "conditions": [12, 1600, "a", 24000], "internal_node_id": "0.0-162.0", "trial": 6, "time_elapsed": 1671903, "serialpos": 0, "key_press": -1, "wordID": 1257, "type": "PRES_AUD", "trial_index": 225}, "uniqueid": "MTK1806:34T446B1C1LOAWGSLESORWM6E6T0C8", "dateTime": 1516310014583}, {"current_trial": 226, "trialdata": {"rt": -1000, "trial_type": "single-audio", "word": "actor", "stimulus": "/static/audio/wordpool/ACTOR.wav", "conditions": [12, 1600, "a", 24000], "internal_node_id": "0.0-163.0", "trial": 6, "time_elapsed": 1674697, "serialpos": 1, "key_press": -1, "wordID": 4, "type": "PRES_AUD", "trial_index": 226}, "uniqueid": "MTK1806:34T446B1C1LOAWGSLESORWM6E6T0C8", "dateTime": 1516310017377}, {"current_trial": 227, "trialdata": {"rt": -1000, "trial_type": "single-audio", "word": "elbow", "stimulus": "/static/audio/wordpool/ELBOW.wav", "conditions": [12, 1600, "a", 24000], "internal_node_id": "0.0-164.0", "trial": 6, "time_elapsed": 1677328, "serialpos": 2, "key_press": -1, "wordID": 519, "type": "PRES_AUD", "trial_index": 227}, "uniqueid": "MTK1806:34T446B1C1LOAWGSLESORWM6E6T0C8", "dateTime": 1516310020008}, {"current_trial": 228, "trialdata": {"rt": -1000, "trial_type": "single-audio", "word": "ankle", "stimulus": "/static/audio/wordpool/ANKLE.wav", "conditions": [12, 1600, "a", 24000], "internal_node_id": "0.0-165.0", "trial": 6, "time_elapsed": 1680000, "serialpos": 3, "key_press": -1, "wordID": 23, "type": "PRES_AUD", "trial_index": 228}, "uniqueid": "MTK1806:34T446B1C1LOAWGSLESORWM6E6T0C8", "dateTime": 1516310022680}, {"current_trial": 229, "trialdata": {"rt": -1000, "trial_type": "single-audio", "word": "pork", "stimulus": "/static/audio/wordpool/PORK.wav", "conditions": [12, 1600, "a", 24000], "internal_node_id": "0.0-166.0", "trial": 6, "time_elapsed": 1682544, "serialpos": 4, "key_press": -1, "wordID": 1107, "type": "PRES_AUD", "trial_index": 229}, "uniqueid": "MTK1806:34T446B1C1LOAWGSLESORWM6E6T0C8", "dateTime": 1516310025225}, {"current_trial": 230, "trialdata": {"rt": -1000, "trial_type": "single-audio", "word": "globe", "stimulus": "/static/audio/wordpool/GLOBE.wav", "conditions": [12, 1600, "a", 24000], "internal_node_id": "0.0-167.0", "trial": 6, "time_elapsed": 1685089, "serialpos": 5, "key_press": -1, "wordID": 640, "type": "PRES_AUD", "trial_index": 230}, "uniqueid": "MTK1806:34T446B1C1LOAWGSLESORWM6E6T0C8", "dateTime": 1516310027769}, {"current_trial": 231, "trialdata": {"rt": -1000, "trial_type": "single-audio", "word": "badge", "stimulus": "/static/audio/wordpool/BADGE.wav", "conditions": [12, 1600, "a", 24000], "internal_node_id": "0.0-168.0", "trial": 6, "time_elapsed": 1687589, "serialpos": 6, "key_press": -1, "wordID": 67, "type": "PRES_AUD", "trial_index": 231}, "uniqueid": "MTK1806:34T446B1C1LOAWGSLESORWM6E6T0C8", "dateTime": 1516310030269}, {"current_trial": 232, "trialdata": {"rt": -1000, "trial_type": "single-audio", "word": "rebel", "stimulus": "/static/audio/wordpool/REBEL.wav", "conditions": [12, 1600, "a", 24000], "internal_node_id": "0.0-169.0", "trial": 6, "time_elapsed": 1690346, "serialpos": 7, "key_press": -1, "wordID": 1171, "type": "PRES_AUD", "trial_index": 232}, "uniqueid": "MTK1806:34T446B1C1LOAWGSLESORWM6E6T0C8", "dateTime": 1516310033026}, {"current_trial": 233, "trialdata": {"rt": -1000, "trial_type": "single-audio", "word": "butcher", "stimulus": "/static/audio/wordpool/BUTCHER.wav", "conditions": [12, 1600, "a", 24000], "internal_node_id": "0.0-170.0", "trial": 6, "time_elapsed": 1693064, "serialpos": 8, "key_press": -1, "wordID": 202, "type": "PRES_AUD", "trial_index": 233}, "uniqueid": "MTK1806:34T446B1C1LOAWGSLESORWM6E6T0C8", "dateTime": 1516310035744}, {"current_trial": 234, "trialdata": {"rt": -1000, "trial_type": "single-audio", "word": "fireman", "stimulus": "/static/audio/wordpool/FIREMAN.wav", "conditions": [12, 1600, "a", 24000], "internal_node_id": "0.0-171.0", "trial": 6, "time_elapsed": 1695531, "serialpos": 9, "key_press": -1, "wordID": 568, "type": "PRES_AUD", "trial_index": 234}, "uniqueid": "MTK1806:34T446B1C1LOAWGSLESORWM6E6T0C8", "dateTime": 1516310038211}, {"current_trial": 235, "trialdata": {"rt": -1000, "trial_type": "single-audio", "word": "hiker", "stimulus": "/static/audio/wordpool/HIKER.wav", "conditions": [12, 1600, "a", 24000], "internal_node_id": "0.0-172.0", "trial": 6, "time_elapsed": 1698314, "serialpos": 10, "key_press": -1, "wordID": 707, "type": "PRES_AUD", "trial_index": 235}, "uniqueid": "MTK1806:34T446B1C1LOAWGSLESORWM6E6T0C8", "dateTime": 1516310040994}, {"current_trial": 236, "trialdata": {"rt": -1000, "trial_type": "single-audio", "word": "statue", "stimulus": "/static/audio/wordpool/STATUE.wav", "conditions": [12, 1600, "a", 24000], "internal_node_id": "0.0-173.0", "trial": 6, "time_elapsed": 1700924, "serialpos": 11, "key_press": -1, "wordID": 1373, "type": "PRES_AUD", "trial_index": 236}, "uniqueid": "MTK1806:34T446B1C1LOAWGSLESORWM6E6T0C8", "dateTime": 1516310043604}, {"current_trial": 237, "trialdata": {"rt": -1, "trial_type": "single-stim", "stimulus": "", "internal_node_id": "0.0-174.0-0.0", "time_elapsed": 1702329, "key_press": -1, "type": "PRE_RECALL_DELAY", "trial_index": 237}, "uniqueid": "MTK1806:34T446B1C1LOAWGSLESORWM6E6T0C8", "dateTime": 1516310045009}, {"current_trial": 238, "trialdata": {"rt": -1000, "trial_type": "single-audio", "stimulus": "/static/audio/400Hz.wav", "internal_node_id": "0.0-175.0", "time_elapsed": 1702838, "key_press": -1, "type": "PRE_RECALL_ALERT", "trial_index": 238}, "uniqueid": "MTK1806:34T446B1C1LOAWGSLESORWM6E6T0C8", "dateTime": 1516310045518}, {"current_trial": 239, "trialdata": {"rt": [2593, 4883, 7961, 13993, 32806], "recwords": ["hiker", "butcher", "sculpture", "statue", "fireman"], "key_times": [1634, 1764, 1951, 2067, 2276, 2593, 3774, 3933, 4025, 4286, 4396, 4523, 4695, 4883, 5624, 5933, 6214, 6462, 7115, 7442, 7566, 7663, 7830, 7961, 8463, 9318, 9442, 9565, 10554, 10965, 13993, 30897, 31120, 31229, 31655, 31791, 32163, 32330, 32806], "trial_type": "free-recall", "conditions": [12, 1600, "a", 24000], "internal_node_id": "0.0-176.0-0.0", "key_presses": [72, 73, 75, 69, 82, 13, 66, 85, 84, 67, 72, 69, 82, 13, 83, 67, 85, 76, 80, 84, 85, 82, 69, 13, 83, 84, 65, 84, 85, 69, 13, 70, 73, 82, 69, 77, 65, 78, 13], "trial": 6, "time_elapsed": 1762853, "type": "FREE_RECALL", "trial_index": 239}, "uniqueid": "MTK1806:34T446B1C1LOAWGSLESORWM6E6T0C8", "dateTime": 1516310105538}, {"current_trial": 240, "trialdata": {"rt": 10689, "trial_type": "text", "internal_node_id": "0.0-177.0", "time_elapsed": 1775561, "key_press": 80, "type": "INSTRUCTIONS", "trial_index": 240}, "uniqueid": "MTK1806:34T446B1C1LOAWGSLESORWM6E6T0C8", "dateTime": 1516310118241}, {"current_trial": 241, "trialdata": {"rt": [1739, 3572, 5566, 7274, 9008, 10508], "trial_type": "math-distractor", "key_times": [1302, 1437, 1739, 3248, 3398, 3572, 4983, 5242, 5566, 6573, 6867, 7274, 8715, 8845, 9008, 10157, 10320, 10508], "responses": ["15", "22", "19", "17", "11", "12"], "num2": [6, 9, 6, 2, 2, 5, 8], "num3": [8, 7, 7, 7, 8, 6, 8], "conditions": [12, 1600, "a", 12000], "internal_node_id": "0.0-178.0", "key_presses": [97, 101, 13, 98, 98, 13, 97, 105, 13, 97, 103, 13, 97, 97, 13, 97, 98, 13], "trial": 7, "time_elapsed": 1789571, "type": "DISTRACTOR", "trial_index": 241, "num1": [1, 6, 6, 8, 1, 1, 7]}, "uniqueid": "MTK1806:34T446B1C1LOAWGSLESORWM6E6T0C8", "dateTime": 1516310132251}, {"current_trial": 242, "trialdata": {"rt": -1, "trial_type": "single-stim", "stimulus": "<p id=\"stim\">10</p>", "internal_node_id": "0.0-179.0-0.0", "time_elapsed": 1792591, "key_press": -1, "trial_index": 242}, "uniqueid": "MTK1806:34T446B1C1LOAWGSLESORWM6E6T0C8", "dateTime": 1516310135271}, {"current_trial": 243, "trialdata": {"rt": -1, "trial_type": "single-stim", "stimulus": "<p id=\"stim\">9</p>", "internal_node_id": "0.0-179.0-1.0", "time_elapsed": 1793602, "key_press": -1, "trial_index": 243}, "uniqueid": "MTK1806:34T446B1C1LOAWGSLESORWM6E6T0C8", "dateTime": 1516310136283}, {"current_trial": 244, "trialdata": {"rt": -1, "trial_type": "single-stim", "stimulus": "<p id=\"stim\">8</p>", "internal_node_id": "0.0-179.0-2.0", "time_elapsed": 1794610, "key_press": -1, "trial_index": 244}, "uniqueid": "MTK1806:34T446B1C1LOAWGSLESORWM6E6T0C8", "dateTime": 1516310137290}, {"current_trial": 245, "trialdata": {"rt": -1, "trial_type": "single-stim", "stimulus": "<p id=\"stim\">7</p>", "internal_node_id": "0.0-179.0-3.0", "time_elapsed": 1795614, "key_press": -1, "trial_index": 245}, "uniqueid": "MTK1806:34T446B1C1LOAWGSLESORWM6E6T0C8", "dateTime": 1516310138294}, {"current_trial": 246, "trialdata": {"rt": -1, "trial_type": "single-stim", "stimulus": "<p id=\"stim\">6</p>", "internal_node_id": "0.0-179.0-