{"assignmentId": "3R8YZBNQ9IP6M8QVBVESQGLAPL17QS", "workerId": "MTK1348", "questiondata": {"origin": "United States", "strat-rehearsal": "53", "marital": "Single", "education": "Associate degree", "ethnicity": "Not Hispanic", "color_depth": 24, "distracted": "No", "wrote-notes": "Yes", "strat-other": "No strategy.", "screen_width": 1366, "avail_screen_width": 1366, "avail_screen_height": 728, "strat-image": "74", "language": "English", "gender": "Male", "age": "34", "gender_other": "", "race": ["White"], "strat-categorize": "32", "pixel_depth": 24, "strat-spatial": "75", "strat-story": "49", "race_other": "", "screen_height": 768}, "bonus": 0, "hitId": "3BKZLF990Z6NE8O282ZQE99NCRUQYI", "counterbalance": 2884, "useragent": "Mozilla/5.0 (Windows NT 10.0; Win64; x64) AppleWebKit/537.36 (KHTML, like Gecko) Chrome/63.0.3239.132 Safari/537.36", "eventdata": [{"eventtype": "initialized", "interval": 0, "value": null, "timestamp": 1515788767711}, {"eventtype": "window_resize", "interval": 0, "value": [1366, 721], "timestamp": 1515788767711}, {"eventtype": "focus", "interval": 10938, "value": "off", "timestamp": 1515788778649}, {"eventtype": "focus", "interval": 2181, "value": "on", "timestamp": 1515788780830}, {"eventtype": "window_resize", "interval": 10334, "value": [1366, 677], "timestamp": 1515788791164}, {"eventtype": "window_resize", "interval": 105396, "value": [1366, 721], "timestamp": 1515788896560}, {"eventtype": "focus", "interval": 17700, "value": "off", "timestamp": 1515788914260}, {"eventtype": "focus", "interval": 1304, "value": "on", "timestamp": 1515788915564}, {"eventtype": "focus", "interval": 83890, "value": "off", "timestamp": 1515788999454}, {"eventtype": "focus", "interval": 2432, "value": "on", "timestamp": 1515789001886}, {"eventtype": "focus", "interval": 748935, "value": "off", "timestamp": 1515789750821}, {"eventtype": "focus", "interval": 4171, "value": "on", "timestamp": 1515789754992}, {"eventtype": "focus", "interval": 438342, "value": "off", "timestamp": 1515790193334}, {"eventtype": "focus", "interval": 3639, "value": "on", "timestamp": 1515790196973}, {"eventtype": "focus", "interval": 443802, "value": "off", "timestamp": 1515790640775}, {"eventtype": "focus", "interval": 6202, "value": "on", "timestamp": 1515790646977}, {"eventtype": "focus", "interval": 116803, "value": "off", "timestamp": 1515790763780}, {"eventtype": "focus", "interval": 7837, "value": "on", "timestamp": 1515790771617}, {"eventtype": "focus", "interval": 115555, "value": "off", "timestamp": 1515790887172}, {"eventtype": "focus", "interval": 7822, "value": "on", "timestamp": 1515790894994}, {"eventtype": "focus", "interval": 233101, "value": "off", "timestamp": 1515791128095}, {"eventtype": "focus", "interval": 4386, "value": "on", "timestamp": 1515791132481}], "data": [{"current_trial": 0, "trialdata": {"rt": 2683, "trial_type": "text", "internal_node_id": "0.0-0.0", "time_elapsed": 2684, "key_press": 82, "type": "INSTRUCTIONS", "trial_index": 0}, "uniqueid": "MTK1348:3R8YZBNQ9IP6M8QVBVESQGLAPL17QS", "dateTime": 1515788771446}, {"current_trial": 1, "trialdata": {"rt": 1866, "trial_type": "text", "internal_node_id": "0.0-1.0", "time_elapsed": 4553, "key_press": 52, "type": "INSTRUCTIONS", "trial_index": 1}, "uniqueid": "MTK1348:3R8YZBNQ9IP6M8QVBVESQGLAPL17QS", "dateTime": 1515788773314}, {"current_trial": 2, "trialdata": {"rt": [25992], "trial_type": "audio-test", "responses": ["ocean"], "internal_node_id": "0.0-2.0", "time_elapsed": 30558, "type": "AUDIO_TEST", "trial_index": 2}, "uniqueid": "MTK1348:3R8YZBNQ9IP6M8QVBVESQGLAPL17QS", "dateTime": 1515788799319}, {"current_trial": 3, "trialdata": {"rt": [10427], "trial_type": "audio-test", "responses": ["crystal"], "internal_node_id": "0.0-3.0", "time_elapsed": 40989, "type": "AUDIO_TEST", "trial_index": 3}, "uniqueid": "MTK1348:3R8YZBNQ9IP6M8QVBVESQGLAPL17QS", "dateTime": 1515788809750}, {"current_trial": 4, "trialdata": {"rt": [5592], "trial_type": "audio-test", "responses": ["spice"], "internal_node_id": "0.0-4.0", "time_elapsed": 46585, "type": "AUDIO_TEST", "trial_index": 4}, "uniqueid": "MTK1348:3R8YZBNQ9IP6M8QVBVESQGLAPL17QS", "dateTime": 1515788815346}, {"current_trial": 5, "trialdata": {"rt": 17270, "trial_type": "survey-text", "responses": "{\"Q0\":\"11 PM\",\"Q1\":\"8 PM\",\"Q2\":\"5\"}", "internal_node_id": "0.0-5.0", "time_elapsed": 64609, "type": "SLEEP_SURVEY", "trial_index": 5}, "uniqueid": "MTK1348:3R8YZBNQ9IP6M8QVBVESQGLAPL17QS", "dateTime": 1515788833371}, {"current_trial": 6, "trialdata": {"rt": 12994, "trial_type": "text", "internal_node_id": "0.0-6.0", "time_elapsed": 78606, "key_press": 70, "type": "INSTRUCTIONS", "trial_index": 6}, "uniqueid": "MTK1348:3R8YZBNQ9IP6M8QVBVESQGLAPL17QS", "dateTime": 1515788847367}, {"current_trial": 7, "trialdata": {"rt": 11329, "trial_type": "text", "internal_node_id": "0.0-7.0", "time_elapsed": 90437, "key_press": 75, "type": "INSTRUCTIONS", "trial_index": 7}, "uniqueid": "MTK1348:3R8YZBNQ9IP6M8QVBVESQGLAPL17QS", "dateTime": 1515788859198}, {"current_trial": 8, "trialdata": {"rt": 9997, "trial_type": "text", "internal_node_id": "0.0-8.0", "time_elapsed": 100936, "key_press": 75, "type": "INSTRUCTIONS", "trial_index": 8}, "uniqueid": "MTK1348:3R8YZBNQ9IP6M8QVBVESQGLAPL17QS", "dateTime": 1515788869697}, {"current_trial": 9, "trialdata": {"rt": [4352, 8181, 11943, 14330], "trial_type": "math-distractor", "key_times": [3214, 3388, 4352, 7424, 7916, 8181, 11458, 11683, 11943, 13535, 14119, 14330, 17297, 17709], "responses": ["21", "13", "21", "13"], "num2": [9, 3, 7, 8, 7], "num3": [6, 5, 9, 2, 2], "conditions": [18, 1200, "v", 18000], "internal_node_id": "0.0-9.0", "key_presses": [50, 49, 13, 49, 51, 13, 50, 49, 13, 49, 51, 13, 49, 52], "trial": 0, "time_elapsed": 119947, "type": "DISTRACTOR", "trial_index": 9, "num1": [6, 6, 5, 3, 5]}, "uniqueid": "MTK1348:3R8YZBNQ9IP6M8QVBVESQGLAPL17QS", "dateTime": 1515788888708}, {"current_trial": 10, "trialdata": {"rt": -1, "trial_type": "single-stim", "stimulus": "<p id=\"stim\">10</p>", "internal_node_id": "0.0-10.0-0.0", "time_elapsed": 122951, "key_press": -1, "trial_index": 10}, "uniqueid": "MTK1348:3R8YZBNQ9IP6M8QVBVESQGLAPL17QS", "dateTime": 1515788891712}, {"current_trial": 11, "trialdata": {"rt": -1, "trial_type": "single-stim", "stimulus": "<p id=\"stim\">9</p>", "internal_node_id": "0.0-10.0-1.0", "time_elapsed": 123953, "key_press": -1, "trial_index": 11}, "uniqueid": "MTK1348:3R8YZBNQ9IP6M8QVBVESQGLAPL17QS", "dateTime": 1515788892714}, {"current_trial": 12, "trialdata": {"rt": -1, "trial_type": "single-stim", "stimulus": "<p id=\"stim\">8</p>", "internal_node_id": "0.0-10.0-2.0", "time_elapsed": 124955, "key_press": -1, "trial_index": 12}, "uniqueid": "MTK1348:3R8YZBNQ9IP6M8QVBVESQGLAPL17QS", "dateTime": 1515788893717}, {"current_trial": 13, "trialdata": {"rt": -1, "trial_type": "single-stim", "stimulus": "<p id=\"stim\">7</p>", "internal_node_id": "0.0-10.0-3.0", "time_elapsed": 125958, "key_press": -1, "trial_index": 13}, "uniqueid": "MTK1348:3R8YZBNQ9IP6M8QVBVESQGLAPL17QS", "dateTime": 1515788894720}, {"current_trial": 14, "trialdata": {"rt": -1, "trial_type": "single-stim", "stimulus": "<p id=\"stim\">6</p>", "internal_node_id": "0.0-10.0-4.0", "time_elapsed": 126962, "key_press": -1, "trial_index": 14}, "uniqueid": "MTK1348:3R8YZBNQ9IP6M8QVBVESQGLAPL17QS", "dateTime": 1515788895723}, {"current_trial": 15, "trialdata": {"rt": -1, "trial_type": "single-stim", "stimulus": "<p id=\"stim\">5</p>", "internal_node_id": "0.0-10.0-5.0", "time_elapsed": 127965, "key_press": -1, "trial_index": 15}, "uniqueid": "MTK1348:3R8YZBNQ9IP6M8QVBVESQGLAPL17QS", "dateTime": 1515788896726}, {"current_trial": 16, "trialdata": {"rt": -1, "trial_type": "single-stim", "stimulus": "<p id=\"stim\">4</p>", "internal_node_id": "0.0-10.0-6.0", "time_elapsed": 128968, "key_press": -1, "trial_index": 16}, "uniqueid": "MTK1348:3R8YZBNQ9IP6M8QVBVESQGLAPL17QS", "dateTime": 1515788897729}, {"current_trial": 17, "trialdata": {"rt": -1, "trial_type": "single-stim", "stimulus": "<p id=\"stim\">3</p>", "internal_node_id": "0.0-10.0-7.0", "time_elapsed": 129971, "key_press": -1, "trial_index": 17}, "uniqueid": "MTK1348:3R8YZBNQ9IP6M8QVBVESQGLAPL17QS", "dateTime": 1515788898732}, {"current_trial": 18, "trialdata": {"rt": -1, "trial_type": "single-stim", "stimulus": "<p id=\"stim\">2</p>", "internal_node_id": "0.0-10.0-8.0", "time_elapsed": 130972, "key_press": -1, "trial_index": 18}, "uniqueid": "MTK1348:3R8YZBNQ9IP6M8QVBVESQGLAPL17QS", "dateTime": 1515788899733}, {"current_trial": 19, "trialdata": {"rt": -1, "trial_type": "single-stim", "stimulus": "<p id=\"stim\">1</p>", "internal_node_id": "0.0-10.0-9.0", "time_elapsed": 131975, "key_press": -1, "trial_index": 19}, "uniqueid": "MTK1348:3R8YZBNQ9IP6M8QVBVESQGLAPL17QS", "dateTime": 1515788900736}, {"current_trial": 20, "trialdata": {"rt": -1, "trial_type": "single-stim", "stimulus": "<p id=\"stim\">+</p>", "internal_node_id": "0.0-11.0-0.0", "time_elapsed": 133478, "key_press": -1, "type": "FIXATION", "trial_index": 20}, "uniqueid": "MTK1348:3R8YZBNQ9IP6M8QVBVESQGLAPL17QS", "dateTime": 1515788902239}, {"current_trial": 21, "trialdata": {"rt": -1, "trial_type": "single-stim", "word": "stone", "stimulus": "<p id=\"stim\">STONE</p>", "conditions": [18, 1200, "v", 18000], "internal_node_id": "0.0-12.0", "trial": 0, "time_elapsed": 134681, "serialpos": 0, "key_press": -1, "wordID": 1384, "type": "PRES_VIS", "trial_index": 21}, "uniqueid": "MTK1348:3R8YZBNQ9IP6M8QVBVESQGLAPL17QS", "dateTime": 1515788903442}, {"current_trial": 22, "trialdata": {"rt": -1, "trial_type": "single-stim", "word": "picture", "stimulus": "<p id=\"stim\">PICTURE</p>", "conditions": [18, 1200, "v", 18000], "internal_node_id": "0.0-13.0", "trial": 0, "time_elapsed": 136737, "serialpos": 1, "key_press": -1, "wordID": 1060, "type": "PRES_VIS", "trial_index": 22}, "uniqueid": "MTK1348:3R8YZBNQ9IP6M8QVBVESQGLAPL17QS", "dateTime": 1515788905498}, {"current_trial": 23, "trialdata": {"rt": -1, "trial_type": "single-stim", "word": "headband", "stimulus": "<p id=\"stim\">HEADBAND</p>", "conditions": [18, 1200, "v", 18000], "internal_node_id": "0.0-14.0", "trial": 0, "time_elapsed": 138950, "serialpos": 2, "key_press": -1, "wordID": 695, "type": "PRES_VIS", "trial_index": 23}, "uniqueid": "MTK1348:3R8YZBNQ9IP6M8QVBVESQGLAPL17QS", "dateTime": 1515788907711}, {"current_trial": 24, "trialdata": {"rt": -1, "trial_type": "single-stim", "word": "cigar", "stimulus": "<p id=\"stim\">CIGAR</p>", "conditions": [18, 1200, "v", 18000], "internal_node_id": "0.0-15.0", "trial": 0, "time_elapsed": 141226, "serialpos": 3, "key_press": -1, "wordID": 307, "type": "PRES_VIS", "trial_index": 24}, "uniqueid": "MTK1348:3R8YZBNQ9IP6M8QVBVESQGLAPL17QS", "dateTime": 1515788909987}, {"current_trial": 25, "trialdata": {"rt": -1, "trial_type": "single-stim", "word": "perch", "stimulus": "<p id=\"stim\">PERCH</p>", "conditions": [18, 1200, "v", 18000], "internal_node_id": "0.0-16.0", "trial": 0, "time_elapsed": 143234, "serialpos": 4, "key_press": -1, "wordID": 1047, "type": "PRES_VIS", "trial_index": 25}, "uniqueid": "MTK1348:3R8YZBNQ9IP6M8QVBVESQGLAPL17QS", "dateTime": 1515788911995}, {"current_trial": 26, "trialdata": {"rt": -1, "trial_type": "single-stim", "word": "notebook", "stimulus": "<p id=\"stim\">NOTEBOOK</p>", "conditions": [18, 1200, "v", 18000], "internal_node_id": "0.0-17.0", "trial": 0, "time_elapsed": 145569, "serialpos": 5, "key_press": -1, "wordID": 958, "type": "PRES_VIS", "trial_index": 26}, "uniqueid": "MTK1348:3R8YZBNQ9IP6M8QVBVESQGLAPL17QS", "dateTime": 1515788914330}, {"current_trial": 27, "trialdata": {"rt": -1, "trial_type": "single-stim", "word": "patient", "stimulus": "<p id=\"stim\">PATIENT</p>", "conditions": [18, 1200, "v", 18000], "internal_node_id": "0.0-18.0", "trial": 0, "time_elapsed": 147661, "serialpos": 6, "key_press": -1, "wordID": 1023, "type": "PRES_VIS", "trial_index": 27}, "uniqueid": "MTK1348:3R8YZBNQ9IP6M8QVBVESQGLAPL17QS", "dateTime": 1515788916423}, {"current_trial": 28, "trialdata": {"rt": -1, "trial_type": "single-stim", "word": "sculpture", "stimulus": "<p id=\"stim\">SCULPTURE</p>", "conditions": [18, 1200, "v", 18000], "internal_node_id": "0.0-19.0", "trial": 0, "time_elapsed": 149925, "serialpos": 7, "key_press": -1, "wordID": 1257, "type": "PRES_VIS", "trial_index": 28}, "uniqueid": "MTK1348:3R8YZBNQ9IP6M8QVBVESQGLAPL17QS", "dateTime": 1515788918686}, {"current_trial": 29, "trialdata": {"rt": -1, "trial_type": "single-stim", "word": "hamper", "stimulus": "<p id=\"stim\">HAMPER</p>", "conditions": [18, 1200, "v", 18000], "internal_node_id": "0.0-20.0", "trial": 0, "time_elapsed": 152188, "serialpos": 8, "key_press": -1, "wordID": 681, "type": "PRES_VIS", "trial_index": 29}, "uniqueid": "MTK1348:3R8YZBNQ9IP6M8QVBVESQGLAPL17QS", "dateTime": 1515788920949}, {"current_trial": 30, "trialdata": {"rt": -1, "trial_type": "single-stim", "word": "flesh", "stimulus": "<p id=\"stim\">FLESH</p>", "conditions": [18, 1200, "v", 18000], "internal_node_id": "0.0-21.0", "trial": 0, "time_elapsed": 154240, "serialpos": 9, "key_press": -1, "wordID": 578, "type": "PRES_VIS", "trial_index": 30}, "uniqueid": "MTK1348:3R8YZBNQ9IP6M8QVBVESQGLAPL17QS", "dateTime": 1515788923001}, {"current_trial": 31, "trialdata": {"rt": -1, "trial_type": "single-stim", "word": "scarf", "stimulus": "<p id=\"stim\">SCARF</p>", "conditions": [18, 1200, "v", 18000], "internal_node_id": "0.0-22.0", "trial": 0, "time_elapsed": 156639, "serialpos": 10, "key_press": -1, "wordID": 1245, "type": "PRES_VIS", "trial_index": 31}, "uniqueid": "MTK1348:3R8YZBNQ9IP6M8QVBVESQGLAPL17QS", "dateTime": 1515788925400}, {"current_trial": 32, "trialdata": {"rt": -1, "trial_type": "single-stim", "word": "spoon", "stimulus": "<p id=\"stim\">SPOON</p>", "conditions": [18, 1200, "v", 18000], "internal_node_id": "0.0-23.0", "trial": 0, "time_elapsed": 158745, "serialpos": 11, "key_press": -1, "wordID": 1356, "type": "PRES_VIS", "trial_index": 32}, "uniqueid": "MTK1348:3R8YZBNQ9IP6M8QVBVESQGLAPL17QS", "dateTime": 1515788927506}, {"current_trial": 33, "trialdata": {"rt": -1, "trial_type": "single-stim", "word": "crayon", "stimulus": "<p id=\"stim\">CRAYON</p>", "conditions": [18, 1200, "v", 18000], "internal_node_id": "0.0-24.0", "trial": 0, "time_elapsed": 160947, "serialpos": 12, "key_press": -1, "wordID": 400, "type": "PRES_VIS", "trial_index": 33}, "uniqueid": "MTK1348:3R8YZBNQ9IP6M8QVBVESQGLAPL17QS", "dateTime": 1515788929708}, {"current_trial": 34, "trialdata": {"rt": -1, "trial_type": "single-stim", "word": "tablet", "stimulus": "<p id=\"stim\">TABLET</p>", "conditions": [18, 1200, "v", 18000], "internal_node_id": "0.0-25.0", "trial": 0, "time_elapsed": 163211, "serialpos": 13, "key_press": -1, "wordID": 1426, "type": "PRES_VIS", "trial_index": 34}, "uniqueid": "MTK1348:3R8YZBNQ9IP6M8QVBVESQGLAPL17QS", "dateTime": 1515788931972}, {"current_trial": 35, "trialdata": {"rt": -1, "trial_type": "single-stim", "word": "bunny", "stimulus": "<p id=\"stim\">BUNNY</p>", "conditions": [18, 1200, "v", 18000], "internal_node_id": "0.0-26.0", "trial": 0, "time_elapsed": 165330, "serialpos": 14, "key_press": -1, "wordID": 197, "type": "PRES_VIS", "trial_index": 35}, "uniqueid": "MTK1348:3R8YZBNQ9IP6M8QVBVESQGLAPL17QS", "dateTime": 1515788934091}, {"current_trial": 36, "trialdata": {"rt": -1, "trial_type": "single-stim", "word": "marine", "stimulus": "<p id=\"stim\">MARINE</p>", "conditions": [18, 1200, "v", 18000], "internal_node_id": "0.0-27.0", "trial": 0, "time_elapsed": 167507, "serialpos": 15, "key_press": -1, "wordID": 868, "type": "PRES_VIS", "trial_index": 36}, "uniqueid": "MTK1348:3R8YZBNQ9IP6M8QVBVESQGLAPL17QS", "dateTime": 1515788936268}, {"current_trial": 37, "trialdata": {"rt": -1, "trial_type": "single-stim", "word": "garbage", "stimulus": "<p id=\"stim\">GARBAGE</p>", "conditions": [18, 1200, "v", 18000], "internal_node_id": "0.0-28.0", "trial": 0, "time_elapsed": 169843, "serialpos": 16, "key_press": -1, "wordID": 621, "type": "PRES_VIS", "trial_index": 37}, "uniqueid": "MTK1348:3R8YZBNQ9IP6M8QVBVESQGLAPL17QS", "dateTime": 1515788938604}, {"current_trial": 38, "trialdata": {"rt": -1, "trial_type": "single-stim", "word": "motor", "stimulus": "<p id=\"stim\">MOTOR</p>", "conditions": [18, 1200, "v", 18000], "internal_node_id": "0.0-29.0", "trial": 0, "time_elapsed": 172244, "serialpos": 17, "key_press": -1, "wordID": 921, "type": "PRES_VIS", "trial_index": 38}, "uniqueid": "MTK1348:3R8YZBNQ9IP6M8QVBVESQGLAPL17QS", "dateTime": 1515788941005}, {"current_trial": 39, "trialdata": {"rt": -1, "trial_type": "single-stim", "stimulus": "", "internal_node_id": "0.0-30.0-0.0", "time_elapsed": 174558, "key_press": -1, "type": "PRE_RECALL_DELAY", "trial_index": 39}, "uniqueid": "MTK1348:3R8YZBNQ9IP6M8QVBVESQGLAPL17QS", "dateTime": 1515788943319}, {"current_trial": 40, "trialdata": {"rt": -1000, "trial_type": "single-audio", "stimulus": "/static/audio/400Hz.wav", "internal_node_id": "0.0-31.0", "time_elapsed": 175061, "key_press": -1, "type": "PRE_RECALL_ALERT", "trial_index": 40}, "uniqueid": "MTK1348:3R8YZBNQ9IP6M8QVBVESQGLAPL17QS", "dateTime": 1515788943822}, {"current_trial": 41, "trialdata": {"rt": [5798, 7318, 8889, 12116, 24330], "recwords": ["garbage", "motor", "flesh", "notebook", "flesh"], "key_times": [2807, 3247, 3271, 3295, 3318, 3343, 3368, 3392, 3416, 3440, 3464, 3488, 3511, 3536, 3561, 3585, 3607, 3632, 3656, 3680, 3705, 3728, 3754, 3763, 4145, 4197, 4507, 4681, 4995, 5155, 5391, 5562, 5798, 6290, 6378, 6523, 6682, 6858, 6969, 7318, 7602, 7745, 7860, 7953, 8185, 8494, 8889, 9237, 9400, 9530, 9714, 10052, 10609, 10774, 10947, 11121, 12116, 12780, 13222, 13246, 13270, 13296, 13317, 13342, 13366, 13390, 13414, 13438, 13461, 13486, 13510, 13536, 13559, 13582, 13607, 13630, 13655, 13679, 13703, 13727, 13752, 13777, 13800, 13825, 13849, 13873, 13897, 13922, 13944, 13969, 13993, 14017, 14041, 14065, 14089, 14114, 14138, 14162, 14186, 14211, 14235, 14259, 14282, 14306, 14330, 14354, 14378, 14403, 14426, 14450, 14475, 14499, 14523, 14548, 14572, 14596, 14619, 14644, 14668, 14692, 14716, 14740, 14765, 14790, 14813, 14837, 14861, 14885, 14909, 14934, 14957, 14981, 15006, 15030, 15054, 15078, 15102, 15126, 15150, 15175, 15199, 15224, 15248, 15272, 15296, 15320, 15344, 15368, 15392, 15416, 15441, 15465, 15489, 15513, 15537, 15561, 15584, 15608, 15633, 15657, 15680, 15705, 15729, 15753, 15777, 15801, 15825, 15849, 15874, 15898, 15922, 15946, 15970, 15995, 16019, 16044, 16067, 16092, 16116, 16140, 16164, 16187, 16212, 16235, 16259, 16284, 16308, 16331, 16356, 16380, 16404, 16428, 16452, 16476, 16501, 16525, 16549, 16574, 16597, 16621, 16646, 16669, 16694, 16719, 16743, 16767, 16791, 16815, 16839, 16863, 16888, 16911, 16936, 16960, 16984, 17007, 17031, 17055, 17080, 17104, 17128, 17153, 17177, 17201, 17225, 17249, 17273, 17297, 17321, 17346, 17370, 17394, 17418, 17442, 17466, 17490, 17514, 17537, 17562, 17585, 17611, 17635, 17659, 17684, 17707, 17731, 17756, 17780, 17804, 17828, 17852, 17876, 17900, 17926, 17950, 17973, 17997, 18021, 18045, 18069, 18093, 18117, 18141, 18166, 18190, 18213, 18237, 18261, 18286, 18309, 18334, 18359, 18382, 21802, 22245, 22269, 22293, 22317, 22341, 22366, 22388, 22412, 22436, 22460, 22485, 22509, 22533, 22557, 22582, 22605, 22630, 22655, 22679, 22701, 22726, 22750, 22774, 22798, 22823, 22846, 22871, 22896, 22920, 22945, 22970, 22992, 23016, 23040, 23065, 23073, 23430, 23570, 23842, 24070, 24330, 38780, 39223, 39247, 39270, 39295, 39319, 39343, 39367, 39392, 39416, 39440, 39464, 39488, 39512, 39536, 39561, 39585, 39609, 39633, 39657, 39681, 39705, 39729, 39753, 39777, 39802, 39825, 39850, 39874, 39898, 39922, 39946, 39970, 39994, 40018, 40042, 40066, 40091, 40116, 40139, 40164, 40188, 40213, 40235, 40260, 40284, 40309, 40332, 40356, 40381, 40405, 40429, 40453, 40477, 40501, 40525, 40549, 40575, 40598, 40621, 40644, 40669, 40694, 40719, 40742, 40767, 40790, 40815, 40839, 40863, 40887, 40911, 40935, 40959, 40983, 41008, 41032, 41056, 41080, 41104, 41129, 41152, 41176, 41201, 41225, 41249, 41273, 41297, 41321, 41345, 41369, 41393, 41418, 41442, 41466, 41490, 41514, 41538, 41563, 41586, 41611, 41635, 41659, 41683, 41707, 41731, 41755, 41780, 41804, 41828, 41851, 41875, 41899, 41924, 41948, 41972, 41996, 42020, 42045, 42069, 42093, 42117, 42141, 42165, 42189, 42214, 42238, 42262, 42286, 42310, 42334, 42359, 42382, 42407, 42431, 42455, 42479, 42503, 42527, 42551, 42577, 42600, 42624, 42648, 42672, 42696, 42720, 42744, 42769, 42793, 42817, 42841, 42864, 42889, 42913, 42937, 42961, 42986, 43010, 43034, 43058, 43082, 43106, 43130, 43154, 43178, 43203, 43227, 43251, 43275, 43300, 43323, 43347, 43371, 43396, 43419, 43444, 43468, 43492, 43516, 43541], "trial_type": "free-recall", "conditions": [18, 1200, "v", 18000], "internal_node_id": "0.0-32.0-0.0", "key_presses": [16, 16, 16, 16, 16, 16, 16, 16, 16, 16, 16, 16, 16, 16, 16, 16, 16, 16, 16, 16, 16, 16, 16, 67, 8, 71, 65, 82, 66, 65, 71, 69, 13, 16, 77, 79, 84, 79, 82, 13, 16, 70, 76, 69, 83, 72, 13, 16, 78, 79, 84, 69, 66, 79, 79, 75, 13, 16, 16, 16, 16, 16, 16, 16, 16, 16, 16, 16, 16, 16, 16, 16, 16, 16, 16, 16, 16, 16, 16, 16, 16, 16, 16, 16, 16, 16, 16, 16, 16, 16, 16, 16, 16, 16, 16, 16, 16, 16, 16, 16, 16, 16, 16, 16, 16, 16, 16, 16, 16, 16, 16, 16, 16, 16, 16, 16, 16, 16, 16, 16, 16, 16, 16, 16, 16, 16, 16, 16, 16, 16, 16, 16, 16, 16, 16, 16, 16, 16, 16, 16, 16, 16, 16, 16, 16, 16, 16, 16, 16, 16, 16, 16, 16, 16, 16, 16, 16, 16, 16, 16, 16, 16, 16, 16, 16, 16, 16, 16, 16, 16, 16, 16, 16, 16, 16, 16, 16, 16, 16, 16, 16, 16, 16, 16, 16, 16, 16, 16, 16, 16, 16, 16, 16, 16, 16, 16, 16, 16, 16, 16, 16, 16, 16, 16, 16, 16, 16, 16, 16, 16, 16, 16, 16, 16, 16, 16, 16, 16, 16, 16, 16, 16, 16, 16, 16, 16, 16, 16, 16, 16, 16, 16, 16, 16, 16, 16, 16, 16, 16, 16, 16, 16, 16, 16, 16, 16, 16, 16, 16, 16, 16, 16, 16, 16, 16, 16, 16, 16, 16, 16, 16, 16, 16, 16, 16, 16, 16, 16, 16, 16, 16, 16, 16, 16, 16, 16, 16, 16, 16, 16, 16, 16, 16, 16, 16, 16, 16, 16, 16, 16, 16, 16, 16, 16, 16, 16, 16, 16, 16, 16, 16, 16, 16, 16, 16, 16, 16, 16, 16, 70, 76, 69, 83, 72, 13, 16, 16, 16, 16, 16, 16, 16, 16, 16, 16, 16, 16, 16, 16, 16, 16, 16, 16, 16, 16, 16, 16, 16, 16, 16, 16, 16, 16, 16, 16, 16, 16, 16, 16, 16, 16, 16, 16, 16, 16, 16, 16, 16, 16, 16, 16, 16, 16, 16, 16, 16, 16, 16, 16, 16, 16, 16, 16, 16, 16, 16, 16, 16, 16, 16, 16, 16, 16, 16, 16, 16, 16, 16, 16, 16, 16, 16, 16, 16, 16, 16, 16, 16, 16, 16, 16, 16, 16, 16, 16, 16, 16, 16, 16, 16, 16, 16, 16, 16, 16, 16, 16, 16, 16, 16, 16, 16, 16, 16, 16, 16, 16, 16, 16, 16, 16, 16, 16, 16, 16, 16, 16, 16, 16, 16, 16, 16, 16, 16, 16, 16, 16, 16, 16, 16, 16, 16, 16, 16, 16, 16, 16, 16, 16, 16, 16, 16, 16, 16, 16, 16, 16, 16, 16, 16, 16, 16, 16, 16, 16, 16, 16, 16, 16, 16, 16, 16, 16, 16, 16, 16, 16, 16, 16, 16, 16, 16, 16, 16, 16, 16], "trial": 0, "time_elapsed": 235066, "type": "FREE_RECALL", "trial_index": 41}, "uniqueid": "MTK1348:3R8YZBNQ9IP6M8QVBVESQGLAPL17QS", "dateTime": 1515789003831}, {"current_trial": 42, "trialdata": {"rt": 2333, "trial_type": "text", "internal_node_id": "0.0-33.0", "time_elapsed": 239405, "key_press": 75, "type": "INSTRUCTIONS", "trial_index": 42}, "uniqueid": "MTK1348:3R8YZBNQ9IP6M8QVBVESQGLAPL17QS", "dateTime": 1515789008167}, {"current_trial": 43, "trialdata": {"rt": [3295, 6284, 8773, 12448, 15150, 17426], "trial_type": "math-distractor", "key_times": [2073, 2317, 3295, 5296, 5804, 6284, 8617, 8773, 10787, 11224, 12448, 14242, 14739, 15150, 16462, 16965, 17426], "responses": ["10", "20", "8", "18", "18", "16"], "num2": [6, 8, 3, 9, 7, 4, 9], "num3": [2, 3, 1, 3, 7, 4, 6], "conditions": [18, 1200, "v", 18000], "internal_node_id": "0.0-34.0", "key_presses": [49, 48, 13, 50, 48, 13, 56, 13, 49, 56, 13, 49, 56, 13, 49, 54, 13], "trial": 1, "time_elapsed": 259411, "type": "DISTRACTOR", "trial_index": 43, "num1": [2, 9, 4, 6, 4, 8, 9]}, "uniqueid": "MTK1348:3R8YZBNQ9IP6M8QVBVESQGLAPL17QS", "dateTime": 1515789028172}, {"current_trial": 44, "trialdata": {"rt": -1, "trial_type": "single-stim", "stimulus": "<p id=\"stim\">10</p>", "internal_node_id": "0.0-35.0-0.0", "time_elapsed": 262413, "key_press": -1, "trial_index": 44}, "uniqueid": "MTK1348:3R8YZBNQ9IP6M8QVBVESQGLAPL17QS", "dateTime": 1515789031175}, {"current_trial": 45, "trialdata": {"rt": -1, "trial_type": "single-stim", "stimulus": "<p id=\"stim\">9</p>", "internal_node_id": "0.0-35.0-1.0", "time_elapsed": 263415, "key_press": -1, "trial_index": 45}, "uniqueid": "MTK1348:3R8YZBNQ9IP6M8QVBVESQGLAPL17QS", "dateTime": 1515789032176}, {"current_trial": 46, "trialdata": {"rt": -1, "trial_type": "single-stim", "stimulus": "<p id=\"stim\">8</p>", "internal_node_id": "0.0-35.0-2.0", "time_elapsed": 264417, "key_press": -1, "trial_index": 46}, "uniqueid": "MTK1348:3R8YZBNQ9IP6M8QVBVESQGLAPL17QS", "dateTime": 1515789033178}, {"current_trial": 47, "trialdata": {"rt": -1, "trial_type": "single-stim", "stimulus": "<p id=\"stim\">7</p>", "internal_node_id": "0.0-35.0-3.0", "time_elapsed": 265419, "key_press": -1, "trial_index": 47}, "uniqueid": "MTK1348:3R8YZBNQ9IP6M8QVBVESQGLAPL17QS", "dateTime": 1515789034180}, {"current_trial": 48, "trialdata": {"rt": -1, "trial_type": "single-stim", "stimulus": "<p id=\"stim\">6</p>", "internal_node_id": "0.0-35.0-4.0", "time_elapsed": 266421, "key_press": -1, "trial_index": 48}, "uniqueid": "MTK1348:3R8YZBNQ9IP6M8QVBVESQGLAPL17QS", "dateTime": 1515789035182}, {"current_trial": 49, "trialdata": {"rt": -1, "trial_type": "single-stim", "stimulus": "<p id=\"stim\">5</p>", "internal_node_id": "0.0-35.0-5.0", "time_elapsed": 267424, "key_press": -1, "trial_index": 49}, "uniqueid": "MTK1348:3R8YZBNQ9IP6M8QVBVESQGLAPL17QS", "dateTime": 1515789036186}, {"current_trial": 50, "trialdata": {"rt": -1, "trial_type": "single-stim", "stimulus": "<p id=\"stim\">4</p>", "internal_node_id": "0.0-35.0-6.0", "time_elapsed": 268428, "key_press": -1, "trial_index": 50}, "uniqueid": "MTK1348:3R8YZBNQ9IP6M8QVBVESQGLAPL17QS", "dateTime": 1515789037189}, {"current_trial": 51, "trialdata": {"rt": -1, "trial_type": "single-stim", "stimulus": "<p id=\"stim\">3</p>", "internal_node_id": "0.0-35.0-7.0", "time_elapsed": 269430, "key_press": -1, "trial_index": 51}, "uniqueid": "MTK1348:3R8YZBNQ9IP6M8QVBVESQGLAPL17QS", "dateTime": 1515789038191}, {"current_trial": 52, "trialdata": {"rt": -1, "trial_type": "single-stim", "stimulus": "<p id=\"stim\">2</p>", "internal_node_id": "0.0-35.0-8.0", "time_elapsed": 270431, "key_press": -1, "trial_index": 52}, "uniqueid": "MTK1348:3R8YZBNQ9IP6M8QVBVESQGLAPL17QS", "dateTime": 1515789039192}, {"current_trial": 53, "trialdata": {"rt": -1, "trial_type": "single-stim", "stimulus": "<p id=\"stim\">1</p>", "internal_node_id": "0.0-35.0-9.0", "time_elapsed": 271434, "key_press": -1, "trial_index": 53}, "uniqueid": "MTK1348:3R8YZBNQ9IP6M8QVBVESQGLAPL17QS", "dateTime": 1515789040195}, {"current_trial": 54, "trialdata": {"rt": -1, "trial_type": "single-stim", "stimulus": "<p id=\"stim\">+</p>", "internal_node_id": "0.0-36.0-0.0", "time_elapsed": 272935, "key_press": -1, "type": "FIXATION", "trial_index": 54}, "uniqueid": "MTK1348:3R8YZBNQ9IP6M8QVBVESQGLAPL17QS", "dateTime": 1515789041696}, {"current_trial": 55, "trialdata": {"rt": -1, "trial_type": "single-stim", "word": "fireman", "stimulus": "<p id=\"stim\">FIREMAN</p>", "conditions": [18, 1200, "v", 18000], "internal_node_id": "0.0-37.0", "trial": 1, "time_elapsed": 274136, "serialpos": 0, "key_press": -1, "wordID": 568, "type": "PRES_VIS", "trial_index": 55}, "uniqueid": "MTK1348:3R8YZBNQ9IP6M8QVBVESQGLAPL17QS", "dateTime": 1515789042897}, {"current_trial": 56, "trialdata": {"rt": -1, "trial_type": "single-stim", "word": "thread", "stimulus": "<p id=\"stim\">THREAD</p>", "conditions": [18, 1200, "v", 18000], "internal_node_id": "0.0-38.0", "trial": 1, "time_elapsed": 276480, "serialpos": 1, "key_press": -1, "wordID": 1459, "type": "PRES_VIS", "trial_index": 56}, "uniqueid": "MTK1348:3R8YZBNQ9IP6M8QVBVESQGLAPL17QS", "dateTime": 1515789045241}, {"current_trial": 57, "trialdata": {"rt": -1, "trial_type": "single-stim", "word": "turnip", "stimulus": "<p id=\"stim\">TURNIP</p>", "conditions": [18, 1200, "v", 18000], "internal_node_id": "0.0-39.0", "trial": 1, "time_elapsed": 278546, "serialpos": 2, "key_press": -1, "wordID": 1520, "type": "PRES_VIS", "trial_index": 57}, "uniqueid": "MTK1348:3R8YZBNQ9IP6M8QVBVESQGLAPL17QS", "dateTime": 1515789047307}, {"current_trial": 58, "trialdata": {"rt": -1, "trial_type": "single-stim", "word": "brook", "stimulus": "<p id=\"stim\">BROOK</p>", "conditions": [18, 1200, "v", 18000], "internal_node_id": "0.0-40.0", "trial": 1, "time_elapsed": 280884, "serialpos": 3, "key_press": -1, "wordID": 176, "type": "PRES_VIS", "trial_index": 58}, "uniqueid": "MTK1348:3R8YZBNQ9IP6M8QVBVESQGLAPL17QS", "dateTime": 1515789049645}, {"current_trial": 59, "trialdata": {"rt": -1, "trial_type": "single-stim", "word": "wagon", "stimulus": "<p id=\"stim\">WAGON</p>", "conditions": [18, 1200, "v", 18000], "internal_node_id": "0.0-41.0", "trial": 1, "time_elapsed": 282891, "serialpos": 4, "key_press": -1, "wordID": 1577, "type": "PRES_VIS", "trial_index": 59}, "uniqueid": "MTK1348:3R8YZBNQ9IP6M8QVBVESQGLAPL17QS", "dateTime": 1515789051653}, {"current_trial": 60, "trialdata": {"rt": -1, "trial_type": "single-stim", "word": "nurse", "stimulus": "<p id=\"stim\">NURSE</p>", "conditions": [18, 1200, "v", 18000], "internal_node_id": "0.0-42.0", "trial": 1, "time_elapsed": 285179, "serialpos": 5, "key_press": -1, "wordID": 962, "type": "PRES_VIS", "trial_index": 60}, "uniqueid": "MTK1348:3R8YZBNQ9IP6M8QVBVESQGLAPL17QS", "dateTime": 1515789053940}, {"current_trial": 61, "trialdata": {"rt": -1, "trial_type": "single-stim", "word": "candy", "stimulus": "<p id=\"stim\">CANDY</p>", "conditions": [18, 1200, "v", 18000], "internal_node_id": "0.0-43.0", "trial": 1, "time_elapsed": 287399, "serialpos": 6, "key_press": -1, "wordID": 229, "type": "PRES_VIS", "trial_index": 61}, "uniqueid": "MTK1348:3R8YZBNQ9IP6M8QVBVESQGLAPL17QS", "dateTime": 1515789056160}, {"current_trial": 62, "trialdata": {"rt": -1, "trial_type": "single-stim", "word": "mattress", "stimulus": "<p id=\"stim\">MATTRESS</p>", "conditions": [18, 1200, "v", 18000], "internal_node_id": "0.0-44.0", "trial": 1, "time_elapsed": 289486, "serialpos": 7, "key_press": -1, "wordID": 878, "type": "PRES_VIS", "trial_index": 62}, "uniqueid": "MTK1348:3R8YZBNQ9IP6M8QVBVESQGLAPL17QS", "dateTime": 1515789058248}, {"current_trial": 63, "trialdata": {"rt": -1, "trial_type": "single-stim", "word": "widow", "stimulus": "<p id=\"stim\">WIDOW</p>", "conditions": [18, 1200, "v", 18000], "internal_node_id": "0.0-45.0", "trial": 1, "time_elapsed": 291555, "serialpos": 8, "key_press": -1, "wordID": 1607, "type": "PRES_VIS", "trial_index": 63}, "uniqueid": "MTK1348:3R8YZBNQ9IP6M8QVBVESQGLAPL17QS", "dateTime": 1515789060317}, {"current_trial": 64, "trialdata": {"rt": -1, "trial_type": "single-stim", "word": "gymnast", "stimulus": "<p id=\"stim\">GYMNAST</p>", "conditions": [18, 1200, "v", 18000], "internal_node_id": "0.0-46.0", "trial": 1, "time_elapsed": 293702, "serialpos": 9, "key_press": -1, "wordID": 674, "type": "PRES_VIS", "trial_index": 64}, "uniqueid": "MTK1348:3R8YZBNQ9IP6M8QVBVESQGLAPL17QS", "dateTime": 1515789062463}, {"current_trial": 65, "trialdata": {"rt": -1, "trial_type": "single-stim", "word": "dandruff", "stimulus": "<p id=\"stim\">DANDRUFF</p>", "conditions": [18, 1200, "v", 18000], "internal_node_id": "0.0-47.0", "trial": 1, "time_elapsed": 295839, "serialpos": 10, "key_press": -1, "wordID": 438, "type": "PRES_VIS", "trial_index": 65}, "uniqueid": "MTK1348:3R8YZBNQ9IP6M8QVBVESQGLAPL17QS", "dateTime": 1515789064600}, {"current_trial": 66, "trialdata": {"rt": -1, "trial_type": "single-stim", "word": "temple", "stimulus": "<p id=\"stim\">TEMPLE</p>", "conditions": [18, 1200, "v", 18000], "internal_node_id": "0.0-48.0", "trial": 1, "time_elapsed": 298138, "serialpos": 11, "key_press": -1, "wordID": 1447, "type": "PRES_VIS", "trial_index": 66}, "uniqueid": "MTK1348:3R8YZBNQ9IP6M8QVBVESQGLAPL17QS", "dateTime": 1515789066899}, {"current_trial": 67, "trialdata": {"rt": -1, "trial_type": "single-stim", "word": "termite", "stimulus": "<p id=\"stim\">TERMITE</p>", "conditions": [18, 1200, "v", 18000], "internal_node_id": "0.0-49.0", "trial": 1, "time_elapsed": 300230, "serialpos": 12, "key_press": -1, "wordID": 1450, "type": "PRES_VIS", "trial_index": 67}, "uniqueid": "MTK1348:3R8YZBNQ9IP6M8QVBVESQGLAPL17QS", "dateTime": 1515789068992}, {"current_trial": 68, "trialdata": {"rt": -1, "trial_type": "single-stim", "word": "tuba", "stimulus": "<p id=\"stim\">TUBA</p>", "conditions": [18, 1200, "v", 18000], "internal_node_id": "0.0-50.0", "trial": 1, "time_elapsed": 302254, "serialpos": 13, "key_press": -1, "wordID": 1514, "type": "PRES_VIS", "trial_index": 68}, "uniqueid": "MTK1348:3R8YZBNQ9IP6M8QVBVESQGLAPL17QS", "dateTime": 1515789071020}, {"current_trial": 69, "trialdata": {"rt": -1, "trial_type": "single-stim", "word": "hound", "stimulus": "<p id=\"stim\">HOUND</p>", "conditions": [18, 1200, "v", 18000], "internal_node_id": "0.0-51.0", "trial": 1, "time_elapsed": 304487, "serialpos": 14, "key_press": -1, "wordID": 723, "type": "PRES_VIS", "trial_index": 69}, "uniqueid": "MTK1348:3R8YZBNQ9IP6M8QVBVESQGLAPL17QS", "dateTime": 1515789073249}, {"current_trial": 70, "trialdata": {"rt": -1, "trial_type": "single-stim", "word": "box", "stimulus": "<p id=\"stim\">BOX</p>", "conditions": [18, 1200, "v", 18000], "internal_node_id": "0.0-52.0", "trial": 1, "time_elapsed": 306669, "serialpos": 15, "key_press": -1, "wordID": 158, "type": "PRES_VIS", "trial_index": 70}, "uniqueid": "MTK1348:3R8YZBNQ9IP6M8QVBVESQGLAPL17QS", "dateTime": 1515789075430}, {"current_trial": 71, "trialdata": {"rt": -1, "trial_type": "single-stim", "word": "tunnel", "stimulus": "<p id=\"stim\">TUNNEL</p>", "conditions": [18, 1200, "v", 18000], "internal_node_id": "0.0-53.0", "trial": 1, "time_elapsed": 308866, "serialpos": 16, "key_press": -1, "wordID": 1518, "type": "PRES_VIS", "trial_index": 71}, "uniqueid": "MTK1348:3R8YZBNQ9IP6M8QVBVESQGLAPL17QS", "dateTime": 1515789077627}, {"current_trial": 72, "trialdata": {"rt": -1, "trial_type": "single-stim", "word": "shovel", "stimulus": "<p id=\"stim\">SHOVEL</p>", "conditions": [18, 1200, "v", 18000], "internal_node_id": "0.0-54.0", "trial": 1, "time_elapsed": 310874, "serialpos": 17, "key_press": -1, "wordID": 1294, "type": "PRES_VIS", "trial_index": 72}, "uniqueid": "MTK1348:3R8YZBNQ9IP6M8QVBVESQGLAPL17QS", "dateTime": 1515789079635}, {"current_trial": 73, "trialdata": {"rt": -1, "trial_type": "single-stim", "stimulus": "", "internal_node_id": "0.0-55.0-0.0", "time_elapsed": 313194, "key_press": -1, "type": "PRE_RECALL_DELAY", "trial_index": 73}, "uniqueid": "MTK1348:3R8YZBNQ9IP6M8QVBVESQGLAPL17QS", "dateTime": 1515789081955}, {"current_trial": 74, "trialdata": {"rt": -1000, "trial_type": "single-audio", "stimulus": "/static/audio/400Hz.wav", "internal_node_id": "0.0-56.0", "time_elapsed": 313698, "key_press": -1, "type": "PRE_RECALL_ALERT", "trial_index": 74}, "uniqueid": "MTK1348:3R8YZBNQ9IP6M8QVBVESQGLAPL17QS", "dateTime": 1515789082459}, {"current_trial": 75, "trialdata": {"rt": [4059, 6327, 8042, 10334, 13075, 19495, 27044, 31853], "recwords": ["shovel", "firefman", "nurse", "mattress", "widow", "turnlop", "mattress", "brook"], "key_times": [1282, 1356, 1686, 2046, 2533, 2756, 2932, 3368, 3455, 3614, 3723, 4059, 4563, 4716, 4799, 4918, 5154, 5455, 5576, 6043, 6327, 6915, 7117, 7229, 7570, 7729, 8042, 8299, 8463, 8707, 8880, 9077, 9169, 9418, 9995, 10334, 11808, 11965, 12182, 12339, 12467, 13075, 17681, 17864, 18106, 18600, 18807, 19001, 19184, 19495, 25261, 25338, 25628, 25816, 26031, 26143, 26376, 26566, 27044, 30162, 30485, 30679, 30840, 31071, 31853], "trial_type": "free-recall", "conditions": [18, 1200, "v", 18000], "internal_node_id": "0.0-57.0-0.0", "key_presses": [16, 83, 72, 69, 8, 79, 69, 8, 86, 69, 76, 13, 70, 73, 82, 69, 70, 77, 65, 78, 13, 78, 85, 82, 83, 69, 13, 77, 65, 84, 84, 82, 69, 83, 83, 13, 87, 73, 68, 79, 87, 13, 84, 85, 82, 78, 76, 79, 80, 13, 77, 65, 84, 84, 82, 69, 83, 83, 13, 66, 82, 79, 79, 75, 13], "trial": 1, "time_elapsed": 373702, "type": "FREE_RECALL", "trial_index": 75}, "uniqueid": "MTK1348:3R8YZBNQ9IP6M8QVBVESQGLAPL17QS", "dateTime": 1515789142466}, {"current_trial": 76, "trialdata": {"rt": 1973, "trial_type": "text", "internal_node_id": "0.0-58.0", "time_elapsed": 377679, "key_press": 74, "type": "INSTRUCTIONS", "trial_index": 76}, "uniqueid": "MTK1348:3R8YZBNQ9IP6M8QVBVESQGLAPL17QS", "dateTime": 1515789146440}, {"current_trial": 77, "trialdata": {"rt": [2062, 6532, 9483, 11365, 13629, 15854, 17642, 19428, 21308, 23173], "trial_type": "math-distractor", "key_times": [1508, 1709, 2062, 3952, 4406, 5563, 6091, 6532, 8947, 9066, 9483, 10801, 10981, 11365, 12897, 13250, 13629, 15456, 15854, 17064, 17253, 17642, 18676, 19144, 19428, 20726, 20907, 21308, 22262, 22923, 23173], "responses": ["12", "16", "18", "18", "19", "8", "18", "13", "11", "13"], "num2": [2, 3, 5, 3, 8, 3, 1, 2, 6, 3, 5], "num3": [8, 8, 4, 8, 8, 4, 8, 8, 1, 7, 2], "conditions": [12, 800, "v", 24000], "internal_node_id": "0.0-59.0", "key_presses": [49, 50, 13, 49, 54, 8, 54, 13, 49, 56, 13, 49, 56, 13, 49, 57, 13, 56, 13, 49, 56, 13, 49, 51, 13, 49, 49, 13, 49, 51, 13], "trial": 2, "time_elapsed": 402684, "type": "DISTRACTOR", "trial_index": 77, "num1": [2, 4, 9, 7, 3, 1, 9, 3, 4, 3, 1]}, "uniqueid": "MTK1348:3R8YZBNQ9IP6M8QVBVESQGLAPL17QS", "dateTime": 1515789171445}, {"current_trial": 78, "trialdata": {"rt": -1, "trial_type": "single-stim", "stimulus": "<p id=\"stim\">10</p>", "internal_node_id": "0.0-60.0-0.0", "time_elapsed": 405688, "key_press": -1, "trial_index": 78}, "uniqueid": "MTK1348:3R8YZBNQ9IP6M8QVBVESQGLAPL17QS", "dateTime": 1515789174449}, {"current_trial": 79, "trialdata": {"rt": -1, "trial_type": "single-stim", "stimulus": "<p id=\"stim\">9</p>", "internal_node_id": "0.0-60.0-1.0", "time_elapsed": 406689, "key_press": -1, "trial_index": 79}, "uniqueid": "MTK1348:3R8YZBNQ9IP6M8QVBVESQGLAPL17QS", "dateTime": 1515789175451}, {"current_trial": 80, "trialdata": {"rt": -1, "trial_type": "single-stim", "stimulus": "<p id=\"stim\">8</p>", "internal_node_id": "0.0-60.0-2.0", "time_elapsed": 407692, "key_press": -1, "trial_index": 80}, "uniqueid": "MTK1348:3R8YZBNQ9IP6M8QVBVESQGLAPL17QS", "dateTime": 1515789176453}, {"current_trial": 81, "trialdata": {"rt": -1, "trial_type": "single-stim", "stimulus": "<p id=\"stim\">7</p>", "internal_node_id": "0.0-60.0-3.0", "time_elapsed": 408695, "key_press": -1, "trial_index": 81}, "uniqueid": "MTK1348:3R8YZBNQ9IP6M8QVBVESQGLAPL17QS", "dateTime": 1515789177456}, {"current_trial": 82, "trialdata": {"rt": -1, "trial_type": "single-stim", "stimulus": "<p id=\"stim\">6</p>", "internal_node_id": "0.0-60.0-4.0", "time_elapsed": 409696, "key_press": -1, "trial_index": 82}, "uniqueid": "MTK1348:3R8YZBNQ9IP6M8QVBVESQGLAPL17QS", "dateTime": 1515789178457}, {"current_trial": 83, "trialdata": {"rt": -1, "trial_type": "single-stim", "stimulus": "<p id=\"stim\">5</p>", "internal_node_id": "0.0-60.0-5.0", "time_elapsed": 410698, "key_press": -1, "trial_index": 83}, "uniqueid": "MTK1348:3R8YZBNQ9IP6M8QVBVESQGLAPL17QS", "dateTime": 1515789179459}, {"current_trial": 84, "trialdata": {"rt": -1, "trial_type": "single-stim", "stimulus": "<p id=\"stim\">4</p>", "internal_node_id": "0.0-60.0-6.0", "time_elapsed": 411701, "key_press": -1, "trial_index": 84}, "uniqueid": "MTK1348:3R8YZBNQ9IP6M8QVBVESQGLAPL17QS", "dateTime": 1515789180462}, {"current_trial": 85, "trialdata": {"rt": -1, "trial_type": "single-stim", "stimulus": "<p id=\"stim\">3</p>", "internal_node_id": "0.0-60.0-7.0", "time_elapsed": 412702, "key_press": -1, "trial_index": 85}, "uniqueid": "MTK1348:3R8YZBNQ9IP6M8QVBVESQGLAPL17QS", "dateTime": 1515789181463}, {"current_trial": 86, "trialdata": {"rt": -1, "trial_type": "single-stim", "stimulus": "<p id=\"stim\">2</p>", "internal_node_id": "0.0-60.0-8.0", "time_elapsed": 413704, "key_press": -1, "trial_index": 86}, "uniqueid": "MTK1348:3R8YZBNQ9IP6M8QVBVESQGLAPL17QS", "dateTime": 1515789182465}, {"current_trial": 87, "trialdata": {"rt": -1, "trial_type": "single-stim", "stimulus": "<p id=\"stim\">1</p>", "internal_node_id": "0.0-60.0-9.0", "time_elapsed": 414705, "key_press": -1, "trial_index": 87}, "uniqueid": "MTK1348:3R8YZBNQ9IP6M8QVBVESQGLAPL17QS", "dateTime": 1515789183466}, {"current_trial": 88, "trialdata": {"rt": -1, "trial_type": "single-stim", "stimulus": "<p id=\"stim\">+</p>", "internal_node_id": "0.0-61.0-0.0", "time_elapsed": 416207, "key_press": -1, "type": "FIXATION", "trial_index": 88}, "uniqueid": "MTK1348:3R8YZBNQ9IP6M8QVBVESQGLAPL17QS", "dateTime": 1515789184968}, {"current_trial": 89, "trialdata": {"rt": -1, "trial_type": "single-stim", "word": "orchid", "stimulus": "<p id=\"stim\">ORCHID</p>", "conditions": [12, 800, "v", 24000], "internal_node_id": "0.0-62.0", "trial": 2, "time_elapsed": 417009, "serialpos": 0, "key_press": -1, "wordID": 981, "type": "PRES_VIS", "trial_index": 89}, "uniqueid": "MTK1348:3R8YZBNQ9IP6M8QVBVESQGLAPL17QS", "dateTime": 1515789185770}, {"current_trial": 90, "trialdata": {"rt": -1, "trial_type": "single-stim", "word": "kidney", "stimulus": "<p id=\"stim\">KIDNEY</p>", "conditions": [12, 800, "v", 24000], "internal_node_id": "0.0-63.0", "trial": 2, "time_elapsed": 418996, "serialpos": 1, "key_press": -1, "wordID": 775, "type": "PRES_VIS", "trial_index": 90}, "uniqueid": "MTK1348:3R8YZBNQ9IP6M8QVBVESQGLAPL17QS", "dateTime": 1515789187757}, {"current_trial": 91, "trialdata": {"rt": -1, "trial_type": "single-stim", "word": "diner", "stimulus": "<p id=\"stim\">DINER</p>", "conditions": [12, 800, "v", 24000], "internal_node_id": "0.0-64.0", "trial": 2, "time_elapsed": 420962, "serialpos": 2, "key_press": -1, "wordID": 466, "type": "PRES_VIS", "trial_index": 91}, "uniqueid": "MTK1348:3R8YZBNQ9IP6M8QVBVESQGLAPL17QS", "dateTime": 1515789189723}, {"current_trial": 92, "trialdata": {"rt": -1, "trial_type": "single-stim", "word": "robber", "stimulus": "<p id=\"stim\">ROBBER</p>", "conditions": [12, 800, "v", 24000], "internal_node_id": "0.0-65.0", "trial": 2, "time_elapsed": 422932, "serialpos": 3, "key_press": -1, "wordID": 1196, "type": "PRES_VIS", "trial_index": 92}, "uniqueid": "MTK1348:3R8YZBNQ9IP6M8QVBVESQGLAPL17QS", "dateTime": 1515789191693}, {"current_trial": 93, "trialdata": {"rt": -1, "trial_type": "single-stim", "word": "rust", "stimulus": "<p id=\"stim\">RUST</p>", "conditions": [12, 800, "v", 24000], "internal_node_id": "0.0-66.0", "trial": 2, "time_elapsed": 424599, "serialpos": 4, "key_press": -1, "wordID": 1218, "type": "PRES_VIS", "trial_index": 93}, "uniqueid": "MTK1348:3R8YZBNQ9IP6M8QVBVESQGLAPL17QS", "dateTime": 1515789193360}, {"current_trial": 94, "trialdata": {"rt": -1, "trial_type": "single-stim", "word": "sunset", "stimulus": "<p id=\"stim\">SUNSET</p>", "conditions": [12, 800, "v", 24000], "internal_node_id": "0.0-67.0", "trial": 2, "time_elapsed": 426427, "serialpos": 5, "key_press": -1, "wordID": 1407, "type": "PRES_VIS", "trial_index": 94}, "uniqueid": "MTK1348:3R8YZBNQ9IP6M8QVBVESQGLAPL17QS", "dateTime": 1515789195188}, {"current_trial": 95, "trialdata": {"rt": -1, "trial_type": "single-stim", "word": "cafe", "stimulus": "<p id=\"stim\">CAFE</p>", "conditions": [12, 800, "v", 24000], "internal_node_id": "0.0-68.0", "trial": 2, "time_elapsed": 428115, "serialpos": 6, "key_press": -1, "wordID": 215, "type": "PRES_VIS", "trial_index": 95}, "uniqueid": "MTK1348:3R8YZBNQ9IP6M8QVBVESQGLAPL17QS", "dateTime": 1515789196876}, {"current_trial": 96, "trialdata": {"rt": -1, "trial_type": "single-stim", "word": "shoulder", "stimulus": "<p id=\"stim\">SHOULDER</p>", "conditions": [12, 800, "v", 24000], "internal_node_id": "0.0-69.0", "trial": 2, "time_elapsed": 429843, "serialpos": 7, "key_press": -1, "wordID": 1293, "type": "PRES_VIS", "trial_index": 96}, "uniqueid": "MTK1348:3R8YZBNQ9IP6M8QVBVESQGLAPL17QS", "dateTime": 1515789198604}, {"current_trial": 97, "trialdata": {"rt": -1, "trial_type": "single-stim", "word": "grape", "stimulus": "<p id=\"stim\">GRAPE</p>", "conditions": [12, 800, "v", 24000], "internal_node_id": "0.0-70.0", "trial": 2, "time_elapsed": 431662, "serialpos": 8, "key_press": -1, "wordID": 653, "type": "PRES_VIS", "trial_index": 97}, "uniqueid": "MTK1348:3R8YZBNQ9IP6M8QVBVESQGLAPL17QS", "dateTime": 1515789200423}, {"current_trial": 98, "trialdata": {"rt": -1, "trial_type": "single-stim", "word": "scotch", "stimulus": "<p id=\"stim\">SCOTCH</p>", "conditions": [12, 800, "v", 24000], "internal_node_id": "0.0-71.0", "trial": 2, "time_elapsed": 433426, "serialpos": 9, "key_press": -1, "wordID": 1250, "type": "PRES_VIS", "trial_index": 98}, "uniqueid": "MTK1348:3R8YZBNQ9IP6M8QVBVESQGLAPL17QS", "dateTime": 1515789202187}, {"current_trial": 99, "trialdata": {"rt": -1, "trial_type": "single-stim", "word": "police", "stimulus": "<p id=\"stim\">POLICE</p>", "conditions": [12, 800, "v", 24000], "internal_node_id": "0.0-72.0", "trial": 2, "time_elapsed": 435121, "serialpos": 10, "key_press": -1, "wordID": 1097, "type": "PRES_VIS", "trial_index": 99}, "uniqueid": "MTK1348:3R8YZBNQ9IP6M8QVBVESQGLAPL17QS", "dateTime": 1515789203882}, {"current_trial": 100, "trialdata": {"rt": -1, "trial_type": "single-stim", "word": "patrol", "stimulus": "<p id=\"stim\">PATROL</p>", "conditions": [12, 800, "v", 24000], "internal_node_id": "0.0-73.0", "trial": 2, "time_elapsed": 436840, "serialpos": 11, "key_press": -1, "wordID": 1026, "type": "PRES_VIS", "trial_index": 100}, "uniqueid": "MTK1348:3R8YZBNQ9IP6M8QVBVESQGLAPL17QS", "dateTime": 1515789205601}, {"current_trial": 101, "trialdata": {"rt": -1, "trial_type": "single-stim", "stimulus": "", "internal_node_id": "0.0-74.0-0.0", "time_elapsed": 439428, "key_press": -1, "type": "PRE_RECALL_DELAY", "trial_index": 101}, "uniqueid": "MTK1348:3R8YZBNQ9IP6M8QVBVESQGLAPL17QS", "dateTime": 1515789208189}, {"current_trial": 102, "trialdata": {"rt": -1000, "trial_type": "single-audio", "stimulus": "/static/audio/400Hz.wav", "internal_node_id": "0.0-75.0", "time_elapsed": 439931, "key_press": -1, "type": "PRE_RECALL_ALERT", "trial_index": 102}, "uniqueid": "MTK1348:3R8YZBNQ9IP6M8QVBVESQGLAPL17QS", "dateTime": 1515789208692}, {"current_trial": 103, "trialdata": {"rt": [3531, 5258, 6604, 8723, 12756, 20654], "recwords": ["police", "patrol", "robber", "kidney", "grape", "shoulder"], "key_times": [1018, 1195, 1470, 1491, 1577, 1729, 2168, 2314, 2436, 2719, 2996, 3263, 3531, 3881, 4032, 4202, 4444, 4589, 4803, 5258, 5508, 5613, 5878, 6056, 6260, 6377, 6604, 6900, 7104, 7509, 7757, 7935, 8303, 8723, 11423, 11612, 11731, 11962, 12154, 12756, 18063, 18343, 18626, 19162, 19433, 19562, 19768, 19918, 20256, 20378, 20654], "trial_type": "free-recall", "conditions": [12, 800, "v", 24000], "internal_node_id": "0.0-76.0-0.0", "key_presses": [80, 79, 76, 76, 73, 67, 8, 8, 8, 73, 67, 69, 13, 80, 65, 84, 82, 79, 76, 13, 82, 79, 66, 66, 69, 82, 13, 75, 73, 68, 78, 69, 89, 13, 71, 82, 65, 80, 69, 13, 83, 72, 85, 8, 79, 85, 76, 68, 69, 82, 13], "trial": 2, "time_elapsed": 499935, "type": "FREE_RECALL", "trial_index": 103}, "uniqueid": "MTK1348:3R8YZBNQ9IP6M8QVBVESQGLAPL17QS", "dateTime": 1515789268697}, {"current_trial": 104, "trialdata": {"rt": 760, "trial_type": "text", "internal_node_id": "0.0-77.0", "time_elapsed": 502697, "key_press": 75, "type": "INSTRUCTIONS", "trial_index": 104}, "uniqueid": "MTK1348:3R8YZBNQ9IP6M8QVBVESQGLAPL17QS", "dateTime": 1515789271459}, {"current_trial": 105, "trialdata": {"rt": [3385, 6191, 7663, 9636, 13137, 15715, 17748, 20669, 22753], "trial_type": "math-distractor", "key_times": [1936, 3035, 3385, 5154, 5696, 6191, 7055, 7362, 7663, 8890, 9305, 9636, 11974, 12674, 13137, 15243, 15464, 15715, 16930, 17357, 17748, 19771, 20240, 20669, 22490, 22753], "responses": ["14", "14", "12", "14", "18", "23", "10", "19", "7"], "num2": [3, 3, 1, 8, 3, 9, 4, 7, 1, 7], "num3": [9, 8, 2, 5, 9, 8, 2, 8, 1, 6], "conditions": [24, 800, "v", 24000], "internal_node_id": "0.0-78.0", "key_presses": [49, 52, 13, 49, 52, 13, 49, 50, 13, 49, 52, 13, 49, 56, 13, 50, 51, 13, 49, 48, 13, 49, 57, 13, 55, 13], "trial": 3, "time_elapsed": 528702, "type": "DISTRACTOR", "trial_index": 105, "num1": [2, 3, 9, 1, 5, 6, 4, 4, 5, 7]}, "uniqueid": "MTK1348:3R8YZBNQ9IP6M8QVBVESQGLAPL17QS", "dateTime": 1515789297464}, {"current_trial": 106, "trialdata": {"rt": -1, "trial_type": "single-stim", "stimulus": "<p id=\"stim\">10</p>", "internal_node_id": "0.0-79.0-0.0", "time_elapsed": 531705, "key_press": -1, "trial_index": 106}, "uniqueid": "MTK1348:3R8YZBNQ9IP6M8QVBVESQGLAPL17QS", "dateTime": 1515789300466}, {"current_trial": 107, "trialdata": {"rt": -1, "trial_type": "single-stim", "stimulus": "<p id=\"stim\">9</p>", "internal_node_id": "0.0-79.0-1.0", "time_elapsed": 532706, "key_press": -1, "trial_index": 107}, "uniqueid": "MTK1348:3R8YZBNQ9IP6M8QVBVESQGLAPL17QS", "dateTime": 1515789301468}, {"current_trial": 108, "trialdata": {"rt": -1, "trial_type": "single-stim", "stimulus": "<p id=\"stim\">8</p>", "internal_node_id": "0.0-79.0-2.0", "time_elapsed": 533708, "key_press": -1, "trial_index": 108}, "uniqueid": "MTK1348:3R8YZBNQ9IP6M8QVBVESQGLAPL17QS", "dateTime": 1515789302469}, {"current_trial": 109, "trialdata": {"rt": -1, "trial_type": "single-stim", "stimulus": "<p id=\"stim\">7</p>", "internal_node_id": "0.0-79.0-3.0", "time_elapsed": 534712, "key_press": -1, "trial_index": 109}, "uniqueid": "MTK1348:3R8YZBNQ9IP6M8QVBVESQGLAPL17QS", "dateTime": 1515789303473}, {"current_trial": 110, "trialdata": {"rt": -1, "trial_type": "single-stim", "stimulus": "<p id=\"stim\">6</p>", "internal_node_id": "0.0-79.0-4.0", "time_elapsed": 535714, "key_press": -1, "trial_index": 110}, "uniqueid": "MTK1348:3R8YZBNQ9IP6M8QVBVESQGLAPL17QS", "dateTime": 1515789304475}, {"current_trial": 111, "trialdata": {"rt": -1, "trial_type": "single-stim", "stimulus": "<p id=\"stim\">5</p>", "internal_node_id": "0.0-79.0-5.0", "time_elapsed": 536716, "key_press": -1, "trial_index": 111}, "uniqueid": "MTK1348:3R8YZBNQ9IP6M8QVBVESQGLAPL17QS", "dateTime": 1515789305477}, {"current_trial": 112, "trialdata": {"rt": -1, "trial_type": "single-stim", "stimulus": "<p id=\"stim\">4</p>", "internal_node_id": "0.0-79.0-6.0", "time_elapsed": 537717, "key_press": -1, "trial_index": 112}, "uniqueid": "MTK1348:3R8YZBNQ9IP6M8QVBVESQGLAPL17QS", "dateTime": 1515789306479}, {"current_trial": 113, "trialdata": {"rt": -1, "trial_type": "single-stim", "stimulus": "<p id=\"stim\">3</p>", "internal_node_id": "0.0-79.0-7.0", "time_elapsed": 538720, "key_press": -1, "trial_index": 113}, "uniqueid": "MTK1348:3R8YZBNQ9IP6M8QVBVESQGLAPL17QS", "dateTime": 1515789307481}, {"current_trial": 114, "trialdata": {"rt": -1, "trial_type": "single-stim", "stimulus": "<p id=\"stim\">2</p>", "internal_node_id": "0.0-79.0-8.0", "time_elapsed": 539722, "key_press": -1, "trial_index": 114}, "uniqueid": "MTK1348:3R8YZBNQ9IP6M8QVBVESQGLAPL17QS", "dateTime": 1515789308483}, {"current_trial": 115, "trialdata": {"rt": -1, "trial_type": "single-stim", "stimulus": "<p id=\"stim\">1</p>", "internal_node_id": "0.0-79.0-9.0", "time_elapsed": 540724, "key_press": -1, "trial_index": 115}, "uniqueid": "MTK1348:3R8YZBNQ9IP6M8QVBVESQGLAPL17QS", "dateTime": 1515789309485}, {"current_trial": 116, "trialdata": {"rt": -1, "trial_type": "single-stim", "stimulus": "<p id=\"stim\">+</p>", "internal_node_id": "0.0-80.0-0.0", "time_elapsed": 542225, "key_press": -1, "type": "FIXATION", "trial_index": 116}, "uniqueid": "MTK1348:3R8YZBNQ9IP6M8QVBVESQGLAPL17QS", "dateTime": 1515789310987}, {"current_trial": 117, "trialdata": {"rt": -1, "trial_type": "single-stim", "word": "truck", "stimulus": "<p id=\"stim\">TRUCK</p>", "conditions": [24, 800, "v", 24000], "internal_node_id": "0.0-81.0", "trial": 3, "time_elapsed": 543027, "serialpos": 0, "key_press": -1, "wordID": 1511, "type": "PRES_VIS", "trial_index": 117}, "uniqueid": "MTK1348:3R8YZBNQ9IP6M8QVBVESQGLAPL17QS", "dateTime": 1515789311788}, {"current_trial": 118, "trialdata": {"rt": -1, "trial_type": "single-stim", "word": "drug", "stimulus": "<p id=\"stim\">DRUG</p>", "conditions": [24, 800, "v", 24000], "internal_node_id": "0.0-82.0", "trial": 3, "time_elapsed": 544838, "serialpos": 1, "key_press": -1, "wordID": 500, "type": "PRES_VIS", "trial_index": 118}, "uniqueid": "MTK1348:3R8YZBNQ9IP6M8QVBVESQGLAPL17QS", "dateTime": 1515789313599}, {"current_trial": 119, "trialdata": {"rt": -1, "trial_type": "single-stim", "word": "bison", "stimulus": "<p id=\"stim\">BISON</p>", "conditions": [24, 800, "v", 24000], "internal_node_id": "0.0-83.0", "trial": 3, "time_elapsed": 546512, "serialpos": 2, "key_press": -1, "wordID": 130, "type": "PRES_VIS", "trial_index": 119}, "uniqueid": "MTK1348:3R8YZBNQ9IP6M8QVBVESQGLAPL17QS", "dateTime": 1515789315273}, {"current_trial": 120, "trialdata": {"rt": -1, "trial_type": "single-stim", "word": "handbag", "stimulus": "<p id=\"stim\">HANDBAG</p>", "conditions": [24, 800, "v", 24000], "internal_node_id": "0.0-84.0", "trial": 3, "time_elapsed": 548428, "serialpos": 3, "key_press": -1, "wordID": 683, "type": "PRES_VIS", "trial_index": 120}, "uniqueid": "MTK1348:3R8YZBNQ9IP6M8QVBVESQGLAPL17QS", "dateTime": 1515789317189}, {"current_trial": 121, "trialdata": {"rt": -1, "trial_type": "single-stim", "word": "blackboard", "stimulus": "<p id=\"stim\">BLACKBOARD</p>", "conditions": [24, 800, "v", 24000], "internal_node_id": "0.0-85.0", "trial": 3, "time_elapsed": 550417, "serialpos": 4, "key_press": -1, "wordID": 132, "type": "PRES_VIS", "trial_index": 121}, "uniqueid": "MTK1348:3R8YZBNQ9IP6M8QVBVESQGLAPL17QS", "dateTime": 1515789319178}, {"current_trial": 122, "trialdata": {"rt": -1, "trial_type": "single-stim", "word": "snack", "stimulus": "<p id=\"stim\">SNACK</p>", "conditions": [24, 800, "v", 24000], "internal_node_id": "0.0-86.0", "trial": 3, "time_elapsed": 552152, "serialpos": 5, "key_press": -1, "wordID": 1330, "type": "PRES_VIS", "trial_index": 122}, "uniqueid": "MTK1348:3R8YZBNQ9IP6M8QVBVESQGLAPL17QS", "dateTime": 1515789320913}, {"current_trial": 123, "trialdata": {"rt": -1, "trial_type": "single-stim", "word": "necklace", "stimulus": "<p id=\"stim\">NECKLACE</p>", "conditions": [24, 800, "v", 24000], "internal_node_id": "0.0-87.0", "trial": 3, "time_elapsed": 554152, "serialpos": 6, "key_press": -1, "wordID": 939, "type": "PRES_VIS", "trial_index": 123}, "uniqueid": "MTK1348:3R8YZBNQ9IP6M8QVBVESQGLAPL17QS", "dateTime": 1515789322913}, {"current_trial": 124, "trialdata": {"rt": -1, "trial_type": "single-stim", "word": "donkey", "stimulus": "<p id=\"stim\">DONKEY</p>", "conditions": [24, 800, "v", 24000], "internal_node_id": "0.0-88.0", "trial": 3, "time_elapsed": 556028, "serialpos": 7, "key_press": -1, "wordID": 483, "type": "PRES_VIS", "trial_index": 124}, "uniqueid": "MTK1348:3R8YZBNQ9IP6M8QVBVESQGLAPL17QS", "dateTime": 1515789324789}, {"current_trial": 125, "trialdata": {"rt": -1, "trial_type": "single-stim", "word": "frame", "stimulus": "<p id=\"stim\">FRAME</p>", "conditions": [24, 800, "v", 24000], "internal_node_id": "0.0-89.0", "trial": 3, "time_elapsed": 557901, "serialpos": 8, "key_press": -1, "wordID": 599, "type": "PRES_VIS", "trial_index": 125}, "uniqueid": "MTK1348:3R8YZBNQ9IP6M8QVBVESQGLAPL17QS", "dateTime": 1515789326662}, {"current_trial": 126, "trialdata": {"rt": -1, "trial_type": "single-stim", "word": "beast", "stimulus": "<p id=\"stim\">BEAST</p>", "conditions": [24, 800, "v", 24000], "internal_node_id": "0.0-90.0", "trial": 3, "time_elapsed": 559843, "serialpos": 9, "key_press": -1, "wordID": 107, "type": "PRES_VIS", "trial_index": 126}, "uniqueid": "MTK1348:3R8YZBNQ9IP6M8QVBVESQGLAPL17QS", "dateTime": 1515789328604}, {"current_trial": 127, "trialdata": {"rt": -1, "trial_type": "single-stim", "word": "oyster", "stimulus": "<p id=\"stim\">OYSTER</p>", "conditions": [24, 800, "v", 24000], "internal_node_id": "0.0-91.0", "trial": 3, "time_elapsed": 561468, "serialpos": 10, "key_press": -1, "wordID": 994, "type": "PRES_VIS", "trial_index": 127}, "uniqueid": "MTK1348:3R8YZBNQ9IP6M8QVBVESQGLAPL17QS", "dateTime": 1515789330230}, {"current_trial": 128, "trialdata": {"rt": -1, "trial_type": "single-stim", "word": "scallop", "stimulus": "<p id=\"stim\">SCALLOP</p>", "conditions": [24, 800, "v", 24000], "internal_node_id": "0.0-92.0", "trial": 3, "time_elapsed": 563240, "serialpos": 11, "key_press": -1, "wordID": 1241, "type": "PRES_VIS", "trial_index": 128}, "uniqueid": "MTK1348:3R8YZBNQ9IP6M8QVBVESQGLAPL17QS", "dateTime": 1515789332001}, {"current_trial": 129, "trialdata": {"rt": -1, "trial_type": "single-stim", "word": "bubble", "stimulus": "<p id=\"stim\">BUBBLE</p>", "conditions": [24, 800, "v", 24000], "internal_node_id": "0.0-93.0", "trial": 3, "time_elapsed": 565000, "serialpos": 12, "key_press": -1, "wordID": 182, "type": "PRES_VIS", "trial_index": 129}, "uniqueid": "MTK1348:3R8YZBNQ9IP6M8QVBVESQGLAPL17QS", "dateTime": 1515789333761}, {"current_trial": 130, "trialdata": {"rt": -1, "trial_type": "single-stim", "word": "suspect", "stimulus": "<p id=\"stim\">SUSPECT</p>", "conditions": [24, 800, "v", 24000], "internal_node_id": "0.0-94.0", "trial": 3, "time_elapsed": 566994, "serialpos": 13, "key_press": -1, "wordID": 1414, "type": "PRES_VIS", "trial_index": 130}, "uniqueid": "MTK1348:3R8YZBNQ9IP6M8QVBVESQGLAPL17QS", "dateTime": 1515789335755}, {"current_trial": 131, "trialdata": {"rt": -1, "trial_type": "single-stim", "word": "husband", "stimulus": "<p id=\"stim\">HUSBAND</p>", "conditions": [24, 800, "v", 24000], "internal_node_id": "0.0-95.0", "trial": 3, "time_elapsed": 568798, "serialpos": 14, "key_press": -1, "wordID": 727, "type": "PRES_VIS", "trial_index": 131}, "uniqueid": "MTK1348:3R8YZBNQ9IP6M8QVBVESQGLAPL17QS", "dateTime": 1515789337559}, {"current_trial": 132, "trialdata": {"rt": -1, "trial_type": "single-stim", "word": "yarn", "stimulus": "<p id=\"stim\">YARN</p>", "conditions": [24, 800, "v", 24000], "internal_node_id": "0.0-96.0", "trial": 3, "time_elapsed": 570725, "serialpos": 15, "key_press": -1, "wordID": 1630, "type": "PRES_VIS", "trial_index": 132}, "uniqueid": "MTK1348:3R8YZBNQ9IP6M8QVBVESQGLAPL17QS", "dateTime": 1515789339486}, {"current_trial": 133, "trialdata": {"rt": -1, "trial_type": "single-stim", "word": "plaid", "stimulus": "<p id=\"stim\">PLAID</p>", "conditions": [24, 800, "v", 24000], "internal_node_id": "0.0-97.0", "trial": 3, "time_elapsed": 572401, "serialpos": 16, "key_press": -1, "wordID": 1079, "type": "PRES_VIS", "trial_index": 133}, "uniqueid": "MTK1348:3R8YZBNQ9IP6M8QVBVESQGLAPL17QS", "dateTime": 1515789341162}, {"current_trial": 134, "trialdata": {"rt": -1, "trial_type": "single-stim", "word": "denim", "stimulus": "<p id=\"stim\">DENIM</p>", "conditions": [24, 800, "v", 24000], "internal_node_id": "0.0-98.0", "trial": 3, "time_elapsed": 574254, "serialpos": 17, "key_press": -1, "wordID": 445, "type": "PRES_VIS", "trial_index": 134}, "uniqueid": "MTK1348:3R8YZBNQ9IP6M8QVBVESQGLAPL17QS", "dateTime": 1515789343016}, {"current_trial": 135, "trialdata": {"rt": -1, "trial_type": "single-stim", "word": "penguin", "stimulus": "<p id=\"stim\">PENGUIN</p>", "conditions": [24, 800, "v", 24000], "internal_node_id": "0.0-99.0", "trial": 3, "time_elapsed": 575981, "serialpos": 18, "key_press": -1, "wordID": 1043, "type": "PRES_VIS", "trial_index": 135}, "uniqueid": "MTK1348:3R8YZBNQ9IP6M8QVBVESQGLAPL17QS", "dateTime": 1515789344742}, {"current_trial": 136, "trialdata": {"rt": -1, "trial_type": "single-stim", "word": "cupboard", "stimulus": "<p id=\"stim\">CUPBOARD</p>", "conditions": [24, 800, "v", 24000], "internal_node_id": "0.0-100.0", "trial": 3, "time_elapsed": 577846, "serialpos": 19, "key_press": -1, "wordID": 424, "type": "PRES_VIS", "trial_index": 136}, "uniqueid": "MTK1348:3R8YZBNQ9IP6M8QVBVESQGLAPL17QS", "dateTime": 1515789346607}, {"current_trial": 137, "trialdata": {"rt": -1, "trial_type": "single-stim", "word": "slope", "stimulus": "<p id=\"stim\">SLOPE</p>", "conditions": [24, 800, "v", 24000], "internal_node_id": "0.0-101.0", "trial": 3, "time_elapsed": 579598, "serialpos": 20, "key_press": -1, "wordID": 1327, "type": "PRES_VIS", "trial_index": 137}, "uniqueid": "MTK1348:3R8YZBNQ9IP6M8QVBVESQGLAPL17QS", "dateTime": 1515789348359}, {"current_trial": 138, "trialdata": {"rt": -1, "trial_type": "single-stim", "word": "mammal", "stimulus": "<p id=\"stim\">MAMMAL</p>", "conditions": [24, 800, "v", 24000], "internal_node_id": "0.0-102.0", "trial": 3, "time_elapsed": 581230, "serialpos": 21, "key_press": -1, "wordID": 860, "type": "PRES_VIS", "trial_index": 138}, "uniqueid": "MTK1348:3R8YZBNQ9IP6M8QVBVESQGLAPL17QS", "dateTime": 1515789349991}, {"current_trial": 139, "trialdata": {"rt": -1, "trial_type": "single-stim", "word": "cobra", "stimulus": "<p id=\"stim\">COBRA</p>", "conditions": [24, 800, "v", 24000], "internal_node_id": "0.0-103.0", "trial": 3, "time_elapsed": 582979, "serialpos": 22, "key_press": -1, "wordID": 335, "type": "PRES_VIS", "trial_index": 139}, "uniqueid": "MTK1348:3R8YZBNQ9IP6M8QVBVESQGLAPL17QS", "dateTime": 1515789351740}, {"current_trial": 140, "trialdata": {"rt": -1, "trial_type": "single-stim", "word": "balloon", "stimulus": "<p id=\"stim\">BALLOON</p>", "conditions": [24, 800, "v", 24000], "internal_node_id": "0.0-104.0", "trial": 3, "time_elapsed": 584726, "serialpos": 23, "key_press": -1, "wordID": 74, "type": "PRES_VIS", "trial_index": 140}, "uniqueid": "MTK1348:3R8YZBNQ9IP6M8QVBVESQGLAPL17QS", "dateTime": 1515789353487}, {"current_trial": 141, "trialdata": {"rt": -1, "trial_type": "single-stim", "stimulus": "", "internal_node_id": "0.0-105.0-0.0", "time_elapsed": 587102, "key_press": -1, "type": "PRE_RECALL_DELAY", "trial_index": 141}, "uniqueid": "MTK1348:3R8YZBNQ9IP6M8QVBVESQGLAPL17QS", "dateTime": 1515789355864}, {"current_trial": 142, "trialdata": {"rt": -1000, "trial_type": "single-audio", "stimulus": "/static/audio/400Hz.wav", "internal_node_id": "0.0-106.0", "time_elapsed": 587604, "key_press": -1, "type": "PRE_RECALL_ALERT", "trial_index": 142}, "uniqueid": "MTK1348:3R8YZBNQ9IP6M8QVBVESQGLAPL17QS", "dateTime": 1515789356365}, {"current_trial": 143, "trialdata": {"rt": [2976, 4842, 7455, 9061, 11351, 17773, 36122, 59165], "recwords": ["truck", "bison", "blackboard", "bison", "baloon", "oyster", "beast", "box"], "key_times": [1909, 2147, 2327, 2532, 2677, 2976, 3261, 3397, 3582, 3707, 4157, 4842, 5161, 5323, 5417, 5581, 6012, 6369, 6479, 6625, 6825, 6968, 7455, 7762, 7914, 8092, 8428, 8660, 9061, 9688, 9819, 9934, 10165, 10357, 10727, 11351, 16156, 16487, 16663, 16848, 17016, 17161, 17773, 34866, 35079, 35285, 35457, 35723, 36122, 57999, 58146, 58325, 59165], "trial_type": "free-recall", "conditions": [24, 800, "v", 24000], "internal_node_id": "0.0-107.0-0.0", "key_presses": [84, 82, 85, 67, 75, 13, 66, 73, 83, 79, 78, 13, 66, 76, 65, 67, 75, 66, 79, 65, 82, 68, 13, 66, 73, 83, 79, 78, 13, 66, 65, 76, 79, 79, 78, 13, 79, 89, 83, 84, 69, 82, 13, 66, 69, 65, 83, 84, 13, 66, 79, 88, 13], "trial": 3, "time_elapsed": 647611, "type": "FREE_RECALL", "trial_index": 143}, "uniqueid": "MTK1348:3R8YZBNQ9IP6M8QVBVESQGLAPL17QS", "dateTime": 1515789416378}, {"current_trial": 144, "trialdata": {"rt": 764, "trial_type": "text", "internal_node_id": "0.0-108.0", "time_elapsed": 650383, "key_press": 68, "type": "INSTRUCTIONS", "trial_index": 144}, "uniqueid": "MTK1348:3R8YZBNQ9IP6M8QVBVESQGLAPL17QS", "dateTime": 1515789419145}, {"current_trial": 145, "trialdata": {"rt": [4321, 7934, 13471, 15937, 18289, 20629, 23507], "trial_type": "math-distractor", "key_times": [3258, 3931, 4321, 5811, 6728, 7122, 7654, 7934, 11447, 13088, 13471, 15374, 15620, 15937, 17380, 17931, 18289, 19598, 20128, 20629, 22763, 23104, 23507], "responses": ["12", "25", "25", "23", "14", "17", "19"], "num2": [3, 9, 8, 9, 8, 9, 8, 7], "num3": [5, 9, 9, 9, 4, 1, 5, 2], "conditions": [24, 1600, "v", 24000], "internal_node_id": "0.0-109.0", "key_presses": [49, 50, 13, 49, 8, 50, 53, 13, 50, 53, 13, 50, 51, 13, 49, 52, 13, 49, 55, 13, 49, 57, 13], "trial": 4, "time_elapsed": 676391, "type": "DISTRACTOR", "trial_index": 145, "num1": [4, 7, 8, 5, 2, 7, 6, 1]}, "uniqueid": "MTK1348:3R8YZBNQ9IP6M8QVBVESQGLAPL17QS", "dateTime": 1515789445153}, {"current_trial": 146, "trialdata": {"rt": -1, "trial_type": "single-stim", "stimulus": "<p id=\"stim\">10</p>", "internal_node_id": "0.0-110.0-0.0", "time_elapsed": 679394, "key_press": -1, "trial_index": 146}, "uniqueid": "MTK1348:3R8YZBNQ9IP6M8QVBVESQGLAPL17QS", "dateTime": 1515789448155}, {"current_trial": 147, "trialdata": {"rt": -1, "trial_type": "single-stim", "stimulus": "<p id=\"stim\">9</p>", "internal_node_id": "0.0-110.0-1.0", "time_elapsed": 680396, "key_press": -1, "trial_index": 147}, "uniqueid": "MTK1348:3R8YZBNQ9IP6M8QVBVESQGLAPL17QS", "dateTime": 1515789449158}, {"current_trial": 148, "trialdata": {"rt": -1, "trial_type": "single-stim", "stimulus": "<p id=\"stim\">8</p>", "internal_node_id": "0.0-110.0-2.0", "time_elapsed": 681399, "key_press": -1, "trial_index": 148}, "uniqueid": "MTK1348:3R8YZBNQ9IP6M8QVBVESQGLAPL17QS", "dateTime": 1515789450160}, {"current_trial": 149, "trialdata": {"rt": -1, "trial_type": "single-stim", "stimulus": "<p id=\"stim\">7</p>", "internal_node_id": "0.0-110.0-3.0", "time_elapsed": 682402, "key_press": -1, "trial_index": 149}, "uniqueid": "MTK1348:3R8YZBNQ9IP6M8QVBVESQGLAPL17QS", "dateTime": 1515789451164}, {"current_trial": 150, "trialdata": {"rt": -1, "trial_type": "single-stim", "stimulus": "<p id=\"stim\">6</p>", "internal_node_id": "0.0-110.0-4.0", "time_elapsed": 683404, "key_press": -1, "trial_index": 150}, "uniqueid": "MTK1348:3R8YZBNQ9IP6M8QVBVESQGLAPL17QS", "dateTime": 1515789452165}, {"current_trial": 151, "trialdata": {"rt": -1, "trial_type": "single-stim", "stimulus": "<p id=\"stim\">5</p>", "internal_node_id": "0.0-110.0-5.0", "time_elapsed": 684406, "key_press": -1, "trial_index": 151}, "uniqueid": "MTK1348:3R8YZBNQ9IP6M8QVBVESQGLAPL17QS", "dateTime": 1515789453167}, {"current_trial": 152, "trialdata": {"rt": -1, "trial_type": "single-stim", "stimulus": "<p id=\"stim\">4</p>", "internal_node_id": "0.0-110.0-6.0", "time_elapsed": 685408, "key_press": -1, "trial_index": 152}, "uniqueid": "MTK1348:3R8YZBNQ9IP6M8QVBVESQGLAPL17QS", "dateTime": 1515789454169}, {"current_trial": 153, "trialdata": {"rt": -1, "trial_type": "single-stim", "stimulus": "<p id=\"stim\">3</p>", "internal_node_id": "0.0-110.0-7.0", "time_elapsed": 686409, "key_press": -1, "trial_index": 153}, "uniqueid": "MTK1348:3R8YZBNQ9IP6M8QVBVESQGLAPL17QS", "dateTime": 1515789455170}, {"current_trial": 154, "trialdata": {"rt": -1, "trial_type": "single-stim", "stimulus": "<p id=\"stim\">2</p>", "internal_node_id": "0.0-110.0-8.0", "time_elapsed": 687410, "key_press": -1, "trial_index": 154}, "uniqueid": "MTK1348:3R8YZBNQ9IP6M8QVBVESQGLAPL17QS", "dateTime": 1515789456171}, {"current_trial": 155, "trialdata": {"rt": -1, "trial_type": "single-stim", "stimulus": "<p id=\"stim\">1</p>", "internal_node_id": "0.0-110.0-9.0", "time_elapsed": 688411, "key_press": -1, "trial_index": 155}, "uniqueid": "MTK1348:3R8YZBNQ9IP6M8QVBVESQGLAPL17QS", "dateTime": 1515789457172}, {"current_trial": 156, "trialdata": {"rt": -1, "trial_type": "single-stim", "stimulus": "<p id=\"stim\">+</p>", "internal_node_id": "0.0-111.0-0.0", "time_elapsed": 689914, "key_press": -1, "type": "FIXATION", "trial_index": 156}, "uniqueid": "MTK1348:3R8YZBNQ9IP6M8QVBVESQGLAPL17QS", "dateTime": 1515789458675}, {"current_trial": 157, "trialdata": {"rt": -1, "trial_type": "single-stim", "word": "soda", "stimulus": "<p id=\"stim\">SODA</p>", "conditions": [24, 1600, "v", 24000], "internal_node_id": "0.0-112.0", "trial": 4, "time_elapsed": 691516, "serialpos": 0, "key_press": -1, "wordID": 1340, "type": "PRES_VIS", "trial_index": 157}, "uniqueid": "MTK1348:3R8YZBNQ9IP6M8QVBVESQGLAPL17QS", "dateTime": 1515789460277}, {"current_trial": 158, "trialdata": {"rt": -1, "trial_type": "single-stim", "word": "flashlight", "stimulus": "<p id=\"stim\">FLASHLIGHT</p>", "conditions": [24, 1600, "v", 24000], "internal_node_id": "0.0-113.0", "trial": 4, "time_elapsed": 694296, "serialpos": 1, "key_press": -1, "wordID": 574, "type": "PRES_VIS", "trial_index": 158}, "uniqueid": "MTK1348:3R8YZBNQ9IP6M8QVBVESQGLAPL17QS", "dateTime": 1515789463057}, {"current_trial": 159, "trialdata": {"rt": -1, "trial_type": "single-stim", "word": "record", "stimulus": "<p id=\"stim\">RECORD</p>", "conditions": [24, 1600, "v", 24000], "internal_node_id": "0.0-114.0", "trial": 4, "time_elapsed": 696888, "serialpos": 2, "key_press": -1, "wordID": 1175, "type": "PRES_VIS", "trial_index": 159}, "uniqueid": "MTK1348:3R8YZBNQ9IP6M8QVBVESQGLAPL17QS", "dateTime": 1515789465649}, {"current_trial": 160, "trialdata": {"rt": -1, "trial_type": "single-stim", "word": "muffin", "stimulus": "<p id=\"stim\">MUFFIN</p>", "conditions": [24, 1600, "v", 24000], "internal_node_id": "0.0-115.0", "trial": 4, "time_elapsed": 699465, "serialpos": 3, "key_press": -1, "wordID": 928, "type": "PRES_VIS", "trial_index": 160}, "uniqueid": "MTK1348:3R8YZBNQ9IP6M8QVBVESQGLAPL17QS", "dateTime": 1515789468227}, {"current_trial": 161, "trialdata": {"rt": -1, "trial_type": "single-stim", "word": "blouse", "stimulus": "<p id=\"stim\">BLOUSE</p>", "conditions": [24, 1600, "v", 24000], "internal_node_id": "0.0-116.0", "trial": 4, "time_elapsed": 702030, "serialpos": 4, "key_press": -1, "wordID": 138, "type": "PRES_VIS", "trial_index": 161}, "uniqueid": "MTK1348:3R8YZBNQ9IP6M8QVBVESQGLAPL17QS", "dateTime": 1515789470791}, {"current_trial": 162, "trialdata": {"rt": -1, "trial_type": "single-stim", "word": "creature", "stimulus": "<p id=\"stim\">CREATURE</p>", "conditions": [24, 1600, "v", 24000], "internal_node_id": "0.0-117.0", "trial": 4, "time_elapsed": 704472, "serialpos": 5, "key_press": -1, "wordID": 402, "type": "PRES_VIS", "trial_index": 162}, "uniqueid": "MTK1348:3R8YZBNQ9IP6M8QVBVESQGLAPL17QS", "dateTime": 1515789473233}, {"current_trial": 163, "trialdata": {"rt": -1, "trial_type": "single-stim", "word": "label", "stimulus": "<p id=\"stim\">LABEL</p>", "conditions": [24, 1600, "v", 24000], "internal_node_id": "0.0-118.0", "trial": 4, "time_elapsed": 706919, "serialpos": 6, "key_press": -1, "wordID": 789, "type": "PRES_VIS", "trial_index": 163}, "uniqueid": "MTK1348:3R8YZBNQ9IP6M8QVBVESQGLAPL17QS", "dateTime": 1515789475680}, {"current_trial": 164, "trialdata": {"rt": -1, "trial_type": "single-stim", "word": "kitchen", "stimulus": "<p id=\"stim\">KITCHEN</p>", "conditions": [24, 1600, "v", 24000], "internal_node_id": "0.0-119.0", "trial": 4, "time_elapsed": 709404, "serialpos": 7, "key_press": -1, "wordID": 777, "type": "PRES_VIS", "trial_index": 164}, "uniqueid": "MTK1348:3R8YZBNQ9IP6M8QVBVESQGLAPL17QS", "dateTime": 1515789478165}, {"current_trial": 165, "trialdata": {"rt": -1, "trial_type": "single-stim", "word": "cook", "stimulus": "<p id=\"stim\">COOK</p>", "conditions": [24, 1600, "v", 24000], "internal_node_id": "0.0-120.0", "trial": 4, "time_elapsed": 712153, "serialpos": 8, "key_press": -1, "wordID": 371, "type": "PRES_VIS", "trial_index": 165}, "uniqueid": "MTK1348:3R8YZBNQ9IP6M8QVBVESQGLAPL17QS", "dateTime": 1515789480914}, {"current_trial": 166, "trialdata": {"rt": -1, "trial_type": "single-stim", "word": "drink", "stimulus": "<p id=\"stim\">DRINK</p>", "conditions": [24, 1600, "v", 24000], "internal_node_id": "0.0-121.0", "trial": 4, "time_elapsed": 714928, "serialpos": 9, "key_press": -1, "wordID": 497, "type": "PRES_VIS", "trial_index": 166}, "uniqueid": "MTK1348:3R8YZBNQ9IP6M8QVBVESQGLAPL17QS", "dateTime": 1515789483689}, {"current_trial": 167, "trialdata": {"rt": -1, "trial_type": "single-stim", "word": "barley", "stimulus": "<p id=\"stim\">BARLEY</p>", "conditions": [24, 1600, "v", 24000], "internal_node_id": "0.0-122.0", "trial": 4, "time_elapsed": 717727, "serialpos": 10, "key_press": -1, "wordID": 87, "type": "PRES_VIS", "trial_index": 167}, "uniqueid": "MTK1348:3R8YZBNQ9IP6M8QVBVESQGLAPL17QS", "dateTime": 1515789486488}, {"current_trial": 168, "trialdata": {"rt": -1, "trial_type": "single-stim", "word": "bullet", "stimulus": "<p id=\"stim\">BULLET</p>", "conditions": [24, 1600, "v", 24000], "internal_node_id": "0.0-123.0", "trial": 4, "time_elapsed": 720383, "serialpos": 11, "key_press": -1, "wordID": 193, "type": "PRES_VIS", "trial_index": 168}, "uniqueid": "MTK1348:3R8YZBNQ9IP6M8QVBVESQGLAPL17QS", "dateTime": 1515789489144}, {"current_trial": 169, "trialdata": {"rt": -1, "trial_type": "single-stim", "word": "shelter", "stimulus": "<p id=\"stim\">SHELTER</p>", "conditions": [24, 1600, "v", 24000], "internal_node_id": "0.0-124.0", "trial": 4, "time_elapsed": 722968, "serialpos": 12, "key_press": -1, "wordID": 1281, "type": "PRES_VIS", "trial_index": 169}, "uniqueid": "MTK1348:3R8YZBNQ9IP6M8QVBVESQGLAPL17QS", "dateTime": 1515789491730}, {"current_trial": 170, "trialdata": {"rt": -1, "trial_type": "single-stim", "word": "jelly", "stimulus": "<p id=\"stim\">JELLY</p>", "conditions": [24, 1600, "v", 24000], "internal_node_id": "0.0-125.0", "trial": 4, "time_elapsed": 725633, "serialpos": 13, "key_press": -1, "wordID": 754, "type": "PRES_VIS", "trial_index": 170}, "uniqueid": "MTK1348:3R8YZBNQ9IP6M8QVBVESQGLAPL17QS", "dateTime": 1515789494394}, {"current_trial": 171, "trialdata": {"rt": -1, "trial_type": "single-stim", "word": "custard", "stimulus": "<p id=\"stim\">CUSTARD</p>", "conditions": [24, 1600, "v", 24000], "internal_node_id": "0.0-126.0", "trial": 4, "time_elapsed": 728279, "serialpos": 14, "key_press": -1, "wordID": 428, "type": "PRES_VIS", "trial_index": 171}, "uniqueid": "MTK1348:3R8YZBNQ9IP6M8QVBVESQGLAPL17QS", "dateTime": 1515789497040}, {"current_trial": 172, "trialdata": {"rt": -1, "trial_type": "single-stim", "word": "banquet", "stimulus": "<p id=\"stim\">BANQUET</p>", "conditions": [24, 1600, "v", 24000], "internal_node_id": "0.0-127.0", "trial": 4, "time_elapsed": 730789, "serialpos": 15, "key_press": -1, "wordID": 85, "type": "PRES_VIS", "trial_index": 172}, "uniqueid": "MTK1348:3R8YZBNQ9IP6M8QVBVESQGLAPL17QS", "dateTime": 1515789499552}, {"current_trial": 173, "trialdata": {"rt": -1, "trial_type": "single-stim", "word": "victim", "stimulus": "<p id=\"stim\">VICTIM</p>", "conditions": [24, 1600, "v", 24000], "internal_node_id": "0.0-128.0", "trial": 4, "time_elapsed": 733410, "serialpos": 16, "key_press": -1, "wordID": 1561, "type": "PRES_VIS", "trial_index": 173}, "uniqueid": "MTK1348:3R8YZBNQ9IP6M8QVBVESQGLAPL17QS", "dateTime": 1515789502171}, {"current_trial": 174, "trialdata": {"rt": -1, "trial_type": "single-stim", "word": "gazelle", "stimulus": "<p id=\"stim\">GAZELLE</p>", "conditions": [24, 1600, "v", 24000], "internal_node_id": "0.0-129.0", "trial": 4, "time_elapsed": 736175, "serialpos": 17, "key_press": -1, "wordID": 627, "type": "PRES_VIS", "trial_index": 174}, "uniqueid": "MTK1348:3R8YZBNQ9IP6M8QVBVESQGLAPL17QS", "dateTime": 1515789504937}, {"current_trial": 175, "trialdata": {"rt": -1, "trial_type": "single-stim", "word": "space", "stimulus": "<p id=\"stim\">SPACE</p>", "conditions": [24, 1600, "v", 24000], "internal_node_id": "0.0-130.0", "trial": 4, "time_elapsed": 738764, "serialpos": 18, "key_press": -1, "wordID": 1344, "type": "PRES_VIS", "trial_index": 175}, "uniqueid": "MTK1348:3R8YZBNQ9IP6M8QVBVESQGLAPL17QS", "dateTime": 1515789507525}, {"current_trial": 176, "trialdata": {"rt": -1, "trial_type": "single-stim", "word": "comet", "stimulus": "<p id=\"stim\">COMET</p>", "conditions": [24, 1600, "v", 24000], "internal_node_id": "0.0-131.0", "trial": 4, "time_elapsed": 741358, "serialpos": 19, "key_press": -1, "wordID": 352, "type": "PRES_VIS", "trial_index": 176}, "uniqueid": "MTK1348:3R8YZBNQ9IP6M8QVBVESQGLAPL17QS", "dateTime": 1515789510119}, {"current_trial": 177, "trialdata": {"rt": -1, "trial_type": "single-stim", "word": "umpire", "stimulus": "<p id=\"stim\">UMPIRE</p>", "conditions": [24, 1600, "v", 24000], "internal_node_id": "0.0-132.0", "trial": 4, "time_elapsed": 743932, "serialpos": 20, "key_press": -1, "wordID": 1534, "type": "PRES_VIS", "trial_index": 177}, "uniqueid": "MTK1348:3R8YZBNQ9IP6M8QVBVESQGLAPL17QS", "dateTime": 1515789512694}, {"current_trial": 178, "trialdata": {"rt": -1, "trial_type": "single-stim", "word": "supper", "stimulus": "<p id=\"stim\">SUPPER</p>", "conditions": [24, 1600, "v", 24000], "internal_node_id": "0.0-133.0", "trial": 4, "time_elapsed": 746440, "serialpos": 21, "key_press": -1, "wordID": 1410, "type": "PRES_VIS", "trial_index": 178}, "uniqueid": "MTK1348:3R8YZBNQ9IP6M8QVBVESQGLAPL17QS", "dateTime": 1515789515201}, {"current_trial": 179, "trialdata": {"rt": -1, "trial_type": "single-stim", "word": "baby", "stimulus": "<p id=\"stim\">BABY</p>", "conditions": [24, 1600, "v", 24000], "internal_node_id": "0.0-134.0", "trial": 4, "time_elapsed": 748943, "serialpos": 22, "key_press": -1, "wordID": 63, "type": "PRES_VIS", "trial_index": 179}, "uniqueid": "MTK1348:3R8YZBNQ9IP6M8QVBVESQGLAPL17QS", "dateTime": 1515789517704}, {"current_trial": 180, "trialdata": {"rt": -1, "trial_type": "single-stim", "word": "braces", "stimulus": "<p id=\"stim\">BRACES</p>", "conditions": [24, 1600, "v", 24000], "internal_node_id": "0.0-135.0", "trial": 4, "time_elapsed": 751464, "serialpos": 23, "key_press": -1, "wordID": 163, "type": "PRES_VIS", "trial_index": 180}, "uniqueid": "MTK1348:3R8YZBNQ9IP6M8QVBVESQGLAPL17QS", "dateTime": 1515789520225}, {"current_trial": 181, "trialdata": {"rt": -1, "trial_type": "single-stim", "stimulus": "", "internal_node_id": "0.0-136.0-0.0", "time_elapsed": 753663, "key_press": -1, "type": "PRE_RECALL_DELAY", "trial_index": 181}, "uniqueid": "MTK1348:3R8YZBNQ9IP6M8QVBVESQGLAPL17QS", "dateTime": 1515789522424}, {"current_trial": 182, "trialdata": {"rt": -1000, "trial_type": "single-audio", "stimulus": "/static/audio/400Hz.wav", "internal_node_id": "0.0-137.0", "time_elapsed": 754165, "key_press": -1, "type": "PRE_RECALL_ALERT", "trial_index": 182}, "uniqueid": "MTK1348:3R8YZBNQ9IP6M8QVBVESQGLAPL17QS", "dateTime": 1515789522926}, {"current_trial": 183, "trialdata": {"rt": [2890, 4959, 7021, 10138, 11529, 13932, 21163, 23608, 30745, 44596, 49874, 57586], "recwords": ["soda", "record", "muffin", "bullet", "space", "record", "baby", "braces", "victim", "barley", "supper", "bounquet"], "key_times": [472, 640, 2323, 2469, 2655, 2890, 3108, 3218, 3467, 3663, 3829, 4079, 4959, 5724, 5931, 6153, 6308, 6535, 6733, 7021, 7243, 7715, 8639, 9016, 9293, 9462, 9620, 9820, 10138, 10423, 10609, 10725, 10888, 11153, 11529, 11728, 11862, 12061, 12251, 12436, 13457, 13932, 20000, 20196, 20340, 20543, 21163, 21464, 21720, 21842, 22053, 22315, 22539, 23608, 29602, 29713, 29843, 30108, 30287, 30452, 30745, 42740, 43099, 43364, 43845, 44012, 44274, 44596, 48340, 48521, 48758, 48939, 49087, 49258, 49874, 53077, 53889, 54158, 54466, 54984, 55414, 55520, 55726, 55905, 56136, 57586], "trial_type": "free-recall", "conditions": [24, 1600, "v", 24000], "internal_node_id": "0.0-138.0-0.0", "key_presses": [16, 83, 79, 68, 65, 13, 82, 69, 67, 79, 82, 68, 13, 77, 85, 70, 70, 73, 78, 13, 66, 76, 8, 85, 76, 76, 69, 84, 13, 83, 80, 65, 67, 69, 13, 82, 69, 67, 79, 82, 68, 13, 66, 65, 66, 89, 13, 66, 82, 65, 67, 69, 83, 13, 86, 73, 67, 84, 73, 77, 13, 66, 65, 82, 76, 69, 89, 13, 83, 85, 80, 80, 69, 82, 13, 66, 79, 85, 78, 71, 8, 81, 85, 69, 84, 13], "trial": 4, "time_elapsed": 814171, "type": "FREE_RECALL", "trial_index": 183}, "uniqueid": "MTK1348:3R8YZBNQ9IP6M8QVBVESQGLAPL17QS", "dateTime": 1515789582938}, {"current_trial": 184, "trialdata": {"rt": 457, "trial_type": "text", "internal_node_id": "0.0-139.0", "time_elapsed": 816636, "key_press": 68, "type": "INSTRUCTIONS", "trial_index": 184}, "uniqueid": "MTK1348:3R8YZBNQ9IP6M8QVBVESQGLAPL17QS", "dateTime": 1515789585397}, {"current_trial": 185, "trialdata": {"rt": [2829, 5054, 7565, 10744], "trial_type": "math-distractor", "key_times": [2138, 2392, 2829, 4233, 4772, 5054, 7125, 7316, 7565, 9552, 10057, 10744], "responses": ["18", "14", "22", "20"], "num2": [5, 1, 7, 8, 2], "num3": [9, 6, 6, 9, 9], "conditions": [24, 800, "v", 12000], "internal_node_id": "0.0-140.0", "key_presses": [49, 56, 13, 49, 52, 13, 50, 50, 13, 50, 48, 13], "trial": 5, "time_elapsed": 830642, "type": "DISTRACTOR", "trial_index": 185, "num1": [4, 7, 9, 3, 6]}, "uniqueid": "MTK1348:3R8YZBNQ9IP6M8QVBVESQGLAPL17QS", "dateTime": 1515789599403}, {"current_trial": 186, "trialdata": {"rt": -1, "trial_type": "single-stim", "stimulus": "<p id=\"stim\">10</p>", "internal_node_id": "0.0-141.0-0.0", "time_elapsed": 833645, "key_press": -1, "trial_index": 186}, "uniqueid": "MTK1348:3R8YZBNQ9IP6M8QVBVESQGLAPL17QS", "dateTime": 1515789602406}, {"current_trial": 187, "trialdata": {"rt": -1, "trial_type": "single-stim", "stimulus": "<p id=\"stim\">9</p>", "internal_node_id": "0.0-141.0-1.0", "time_elapsed": 834647, "key_press": -1, "trial_index": 187}, "uniqueid": "MTK1348:3R8YZBNQ9IP6M8QVBVESQGLAPL17QS", "dateTime": 1515789603408}, {"current_trial": 188, "trialdata": {"rt": -1, "trial_type": "single-stim", "stimulus": "<p id=\"stim\">8</p>", "internal_node_id": "0.0-141.0-2.0", "time_elapsed": 835649, "key_press": -1, "trial_index": 188}, "uniqueid": "MTK1348:3R8YZBNQ9IP6M8QVBVESQGLAPL17QS", "dateTime": 1515789604410}, {"current_trial": 189, "trialdata": {"rt": -1, "trial_type": "single-stim", "stimulus": "<p id=\"stim\">7</p>", "internal_node_id": "0.0-141.0-3.0", "time_elapsed": 836651, "key_press": -1, "trial_index": 189}, "uniqueid": "MTK1348:3R8YZBNQ9IP6M8QVBVESQGLAPL17QS", "dateTime": 1515789605412}, {"current_trial": 190, "trialdata": {"rt": -1, "trial_type": "single-stim", "stimulus": "<p id=\"stim\">6</p>", "internal_node_id": "0.0-141.0-4.0", "time_elapsed": 837653, "key_press": -1, "trial_index": 190}, "uniqueid": "MTK1348:3R8YZBNQ9IP6M8QVBVESQGLAPL17QS", "dateTime": 1515789606414}, {"current_trial": 191, "trialdata": {"rt": -1, "trial_type": "single-stim", "stimulus": "<p id=\"stim\">5</p>", "internal_node_id": "0.0-141.0-5.0", "time_elapsed": 838655, "key_press": -1, "trial_index": 191}, "uniqueid": "MTK1348:3R8YZBNQ9IP6M8QVBVESQGLAPL17QS", "dateTime": 1515789607417}, {"current_trial": 192, "trialdata": {"rt": -1, "trial_type": "single-stim", "stimulus": "<p id=\"stim\">4</p>", "internal_node_id": "0.0-141.0-6.0", "time_elapsed": 839657, "key_press": -1, "trial_index": 192}, "uniqueid": "MTK1348:3R8YZBNQ9IP6M8QVBVESQGLAPL17QS", "dateTime": 1515789608419}, {"current_trial": 193, "trialdata": {"rt": -1, "trial_type": "single-stim", "stimulus": "<p id=\"stim\">3</p>", "internal_node_id": "0.0-141.0-7.0", "time_elapsed": 840660, "key_press": -1, "trial_index": 193}, "uniqueid": "MTK1348:3R8YZBNQ9IP6M8QVBVESQGLAPL17QS", "dateTime": 1515789609421}, {"current_trial": 194, "trialdata": {"rt": -1, "trial_type": "single-stim", "stimulus": "<p id=\"stim\">2</p>", "internal_node_id": "0.0-141.0-8.0", "time_elapsed": 841661, "key_press": -1, "trial_index": 194}, "uniqueid": "MTK1348:3R8YZBNQ9IP6M8QVBVESQGLAPL17QS", "dateTime": 1515789610423}, {"current_trial": 195, "trialdata": {"rt": -1, "trial_type": "single-stim", "stimulus": "<p id=\"stim\">1</p>", "internal_node_id": "0.0-141.0-9.0", "time_elapsed": 842663, "key_press": -1, "trial_index": 195}, "uniqueid": "MTK1348:3R8YZBNQ9IP6M8QVBVESQGLAPL17QS", "dateTime": 1515789611424}, {"current_trial": 196, "trialdata": {"rt": -1, "trial_type": "single-stim", "stimulus": "<p id=\"stim\">+</p>", "internal_node_id": "0.0-142.0-0.0", "time_elapsed": 844166, "key_press": -1, "type": "FIXATION", "trial_index": 196}, "uniqueid": "MTK1348:3R8YZBNQ9IP6M8QVBVESQGLAPL17QS", "dateTime": 1515789612928}, {"current_trial": 197, "trialdata": {"rt": -1, "trial_type": "single-stim", "word": "drawing", "stimulus": "<p id=\"stim\">DRAWING</p>", "conditions": [24, 800, "v", 12000], "internal_node_id": "0.0-143.0", "trial": 5, "time_elapsed": 844970, "serialpos": 0, "key_press": -1, "wordID": 493, "type": "PRES_VIS", "trial_index": 197}, "uniqueid": "MTK1348:3R8YZBNQ9IP6M8QVBVESQGLAPL17QS", "dateTime": 1515789613731}, {"current_trial": 198, "trialdata": {"rt": -1, "trial_type": "single-stim", "word": "barrel", "stimulus": "<p id=\"stim\">BARREL</p>", "conditions": [24, 800, "v", 12000], "internal_node_id": "0.0-144.0", "trial": 5, "time_elapsed": 846714, "serialpos": 1, "key_press": -1, "wordID": 90, "type": "PRES_VIS", "trial_index": 198}, "uniqueid": "MTK1348:3R8YZBNQ9IP6M8QVBVESQGLAPL17QS", "dateTime": 1515789615475}, {"current_trial": 199, "trialdata": {"rt": -1, "trial_type": "single-stim", "word": "gallon", "stimulus": "<p id=\"stim\">GALLON</p>", "conditions": [24, 800, "v", 12000], "internal_node_id": "0.0-145.0", "trial": 5, "time_elapsed": 848612, "serialpos": 2, "key_press": -1, "wordID": 617, "type": "PRES_VIS", "trial_index": 199}, "uniqueid": "MTK1348:3R8YZBNQ9IP6M8QVBVESQGLAPL17QS", "dateTime": 1515789617373}, {"current_trial": 200, "trialdata": {"rt": -1, "trial_type": "single-stim", "word": "crutch", "stimulus": "<p id=\"stim\">CRUTCH</p>", "conditions": [24, 800, "v", 12000], "internal_node_id": "0.0-146.0", "trial": 5, "time_elapsed": 850311, "serialpos": 3, "key_press": -1, "wordID": 416, "type": "PRES_VIS", "trial_index": 200}, "uniqueid": "MTK1348:3R8YZBNQ9IP6M8QVBVESQGLAPL17QS", "dateTime": 1515789619072}, {"current_trial": 201, "trialdata": {"rt": -1, "trial_type": "single-stim", "word": "marrow", "stimulus": "<p id=\"stim\">MARROW</p>", "conditions": [24, 800, "v", 12000], "internal_node_id": "0.0-147.0", "trial": 5, "time_elapsed": 852218, "serialpos": 4, "key_press": -1, "wordID": 871, "type": "PRES_VIS", "trial_index": 201}, "uniqueid": "MTK1348:3R8YZBNQ9IP6M8QVBVESQGLAPL17QS", "dateTime": 1515789620979}, {"current_trial": 202, "trialdata": {"rt": -1, "trial_type": "single-stim", "word": "mars", "stimulus": "<p id=\"stim\">MARS</p>", "conditions": [24, 800, "v", 12000], "internal_node_id": "0.0-148.0", "trial": 5, "time_elapsed": 853966, "serialpos": 5, "key_press": -1, "wordID": 872, "type": "PRES_VIS", "trial_index": 202}, "uniqueid": "MTK1348:3R8YZBNQ9IP6M8QVBVESQGLAPL17QS", "dateTime": 1515789622727}, {"current_trial": 203, "trialdata": {"rt": -1, "trial_type": "single-stim", "word": "ankle", "stimulus": "<p id=\"stim\">ANKLE</p>", "conditions": [24, 800, "v", 12000], "internal_node_id": "0.0-149.0", "trial": 5, "time_elapsed": 855828, "serialpos": 6, "key_press": -1, "wordID": 23, "type": "PRES_VIS", "trial_index": 203}, "uniqueid": "MTK1348:3R8YZBNQ9IP6M8QVBVESQGLAPL17QS", "dateTime": 1515789624589}, {"current_trial": 204, "trialdata": {"rt": -1, "trial_type": "single-stim", "word": "hand", "stimulus": "<p id=\"stim\">HAND</p>", "conditions": [24, 800, "v", 12000], "internal_node_id": "0.0-150.0", "trial": 5, "time_elapsed": 857513, "serialpos": 7, "key_press": -1, "wordID": 682, "type": "PRES_VIS", "trial_index": 204}, "uniqueid": "MTK1348:3R8YZBNQ9IP6M8QVBVESQGLAPL17QS", "dateTime": 1515789626274}, {"current_trial": 205, "trialdata": {"rt": -1, "trial_type": "single-stim", "word": "blockade", "stimulus": "<p id=\"stim\">BLOCKADE</p>", "conditions": [24, 800, "v", 12000], "internal_node_id": "0.0-151.0", "trial": 5, "time_elapsed": 859409, "serialpos": 8, "key_press": -1, "wordID": 136, "type": "PRES_VIS", "trial_index": 205}, "uniqueid": "MTK1348:3R8YZBNQ9IP6M8QVBVESQGLAPL17QS", "dateTime": 1515789628171}, {"current_trial": 206, "trialdata": {"rt": -1, "trial_type": "single-stim", "word": "xerox", "stimulus": "<p id=\"stim\">XEROX</p>", "conditions": [24, 800, "v", 12000], "internal_node_id": "0.0-152.0", "trial": 5, "time_elapsed": 861195, "serialpos": 9, "key_press": -1, "wordID": 1627, "type": "PRES_VIS", "trial_index": 206}, "uniqueid": "MTK1348:3R8YZBNQ9IP6M8QVBVESQGLAPL17QS", "dateTime": 1515789629956}, {"current_trial": 207, "trialdata": {"rt": -1, "trial_type": "single-stim", "word": "knife", "stimulus": "<p id=\"stim\">KNIFE</p>", "conditions": [24, 800, "v", 12000], "internal_node_id": "0.0-153.0", "trial": 5, "time_elapsed": 863086, "serialpos": 10, "key_press": -1, "wordID": 784, "type": "PRES_VIS", "trial_index": 207}, "uniqueid": "MTK1348:3R8YZBNQ9IP6M8QVBVESQGLAPL17QS", "dateTime": 1515789631847}, {"current_trial": 208, "trialdata": {"rt": -1, "trial_type": "single-stim", "word": "liver", "stimulus": "<p id=\"stim\">LIVER</p>", "conditions": [24, 800, "v", 12000], "internal_node_id": "0.0-154.0", "trial": 5, "time_elapsed": 864957, "serialpos": 11, "key_press": -1, "wordID": 832, "type": "PRES_VIS", "trial_index": 208}, "uniqueid": "MTK1348:3R8YZBNQ9IP6M8QVBVESQGLAPL17QS", "dateTime": 1515789633719}, {"current_trial": 209, "trialdata": {"rt": -1, "trial_type": "single-stim", "word": "salt", "stimulus": "<p id=\"stim\">SALT</p>", "conditions": [24, 800, "v", 12000], "internal_node_id": "0.0-155.0", "trial": 5, "time_elapsed": 866800, "serialpos": 12, "key_press": -1, "wordID": 1228, "type": "PRES_VIS", "trial_index": 209}, "uniqueid": "MTK1348:3R8YZBNQ9IP6M8QVBVESQGLAPL17QS", "dateTime": 1515789635561}, {"current_trial": 210, "trialdata": {"rt": -1, "trial_type": "single-stim", "word": "preacher", "stimulus": "<p id=\"stim\">PREACHER</p>", "conditions": [24, 800, "v", 12000], "internal_node_id": "0.0-156.0", "trial": 5, "time_elapsed": 868438, "serialpos": 13, "key_press": -1, "wordID": 1118, "type": "PRES_VIS", "trial_index": 210}, "uniqueid": "MTK1348:3R8YZBNQ9IP6M8QVBVESQGLAPL17QS", "dateTime": 1515789637199}, {"current_trial": 211, "trialdata": {"rt": -1, "trial_type": "single-stim", "word": "burglar", "stimulus": "<p id=\"stim\">BURGLAR</p>", "conditions": [24, 800, "v", 12000], "internal_node_id": "0.0-157.0", "trial": 5, "time_elapsed": 870396, "serialpos": 14, "key_press": -1, "wordID": 199, "type": "PRES_VIS", "trial_index": 211}, "uniqueid": "MTK1348:3R8YZBNQ9IP6M8QVBVESQGLAPL17QS", "dateTime": 1515789639157}, {"current_trial": 212, "trialdata": {"rt": -1, "trial_type": "single-stim", "word": "author", "stimulus": "<p id=\"stim\">AUTHOR</p>", "conditions": [24, 800, "v", 12000], "internal_node_id": "0.0-158.0", "trial": 5, "time_elapsed": 872304, "serialpos": 15, "key_press": -1, "wordID": 60, "type": "PRES_VIS", "trial_index": 212}, "uniqueid": "MTK1348:3R8YZBNQ9IP6M8QVBVESQGLAPL17QS", "dateTime": 1515789641065}, {"current_trial": 213, "trialdata": {"rt": -1, "trial_type": "single-stim", "word": "queen", "stimulus": "<p id=\"stim\">QUEEN</p>", "conditions": [24, 800, "v", 12000], "internal_node_id": "0.0-159.0", "trial": 5, "time_elapsed": 874262, "serialpos": 16, "key_press": -1, "wordID": 1148, "type": "PRES_VIS", "trial_index": 213}, "uniqueid": "MTK1348:3R8YZBNQ9IP6M8QVBVESQGLAPL17QS", "dateTime": 1515789643023}, {"current_trial": 214, "trialdata": {"rt": -1, "trial_type": "single-stim", "word": "princess", "stimulus": "<p id=\"stim\">PRINCESS</p>", "conditions": [24, 800, "v", 12000], "internal_node_id": "0.0-160.0", "trial": 5, "time_elapsed": 876008, "serialpos": 17, "key_press": -1, "wordID": 1124, "type": "PRES_VIS", "trial_index": 214}, "uniqueid": "MTK1348:3R8YZBNQ9IP6M8QVBVESQGLAPL17QS", "dateTime": 1515789644769}, {"current_trial": 215, "trialdata": {"rt": -1, "trial_type": "single-stim", "word": "milk", "stimulus": "<p id=\"stim\">MILK</p>", "conditions": [24, 800, "v", 12000], "internal_node_id": "0.0-161.0", "trial": 5, "time_elapsed": 877909, "serialpos": 18, "key_press": -1, "wordID": 894, "type": "PRES_VIS", "trial_index": 215}, "uniqueid": "MTK1348:3R8YZBNQ9IP6M8QVBVESQGLAPL17QS", "dateTime": 1515789646670}, {"current_trial": 216, "trialdata": {"rt": -1, "trial_type": "single-stim", "word": "star", "stimulus": "<p id=\"stim\">STAR</p>", "conditions": [24, 800, "v", 12000], "internal_node_id": "0.0-162.0", "trial": 5, "time_elapsed": 879570, "serialpos": 19, "key_press": -1, "wordID": 1372, "type": "PRES_VIS", "trial_index": 216}, "uniqueid": "MTK1348:3R8YZBNQ9IP6M8QVBVESQGLAPL17QS", "dateTime": 1515789648331}, {"current_trial": 217, "trialdata": {"rt": -1, "trial_type": "single-stim", "word": "fungus", "stimulus": "<p id=\"stim\">FUNGUS</p>", "conditions": [24, 800, "v", 12000], "internal_node_id": "0.0-163.0", "trial": 5, "time_elapsed": 881385, "serialpos": 20, "key_press": -1, "wordID": 613, "type": "PRES_VIS", "trial_index": 217}, "uniqueid": "MTK1348:3R8YZBNQ9IP6M8QVBVESQGLAPL17QS", "dateTime": 1515789650146}, {"current_trial": 218, "trialdata": {"rt": -1, "trial_type": "single-stim", "word": "honey", "stimulus": "<p id=\"stim\">HONEY</p>", "conditions": [24, 800, "v", 12000], "internal_node_id": "0.0-164.0", "trial": 5, "time_elapsed": 883362, "serialpos": 21, "key_press": -1, "wordID": 712, "type": "PRES_VIS", "trial_index": 218}, "uniqueid": "MTK1348:3R8YZBNQ9IP6M8QVBVESQGLAPL17QS", "dateTime": 1515789652124}, {"current_trial": 219, "trialdata": {"rt": -1, "trial_type": "single-stim", "word": "razor", "stimulus": "<p id=\"stim\">RAZOR</p>", "conditions": [24, 800, "v", 12000], "internal_node_id": "0.0-165.0", "trial": 5, "time_elapsed": 885167, "serialpos": 22, "key_press": -1, "wordID": 1170, "type": "PRES_VIS", "trial_index": 219}, "uniqueid": "MTK1348:3R8YZBNQ9IP6M8QVBVESQGLAPL17QS", "dateTime": 1515789653929}, {"current_trial": 220, "trialdata": {"rt": -1, "trial_type": "single-stim", "word": "pasta", "stimulus": "<p id=\"stim\">PASTA</p>", "conditions": [24, 800, "v", 12000], "internal_node_id": "0.0-166.0", "trial": 5, "time_elapsed": 886817, "serialpos": 23, "key_press": -1, "wordID": 1020, "type": "PRES_VIS", "trial_index": 220}, "uniqueid": "MTK1348:3R8YZBNQ9IP6M8QVBVESQGLAPL17QS", "dateTime": 1515789655578}, {"current_trial": 221, "trialdata": {"rt": -1, "trial_type": "single-stim", "stimulus": "", "internal_node_id": "0.0-167.0-0.0", "time_elapsed": 888862, "key_press": -1, "type": "PRE_RECALL_DELAY", "trial_index": 221}, "uniqueid": "MTK1348:3R8YZBNQ9IP6M8QVBVESQGLAPL17QS", "dateTime": 1515789657623}, {"current_trial": 222, "trialdata": {"rt": -1000, "trial_type": "single-audio", "stimulus": "/static/audio/400Hz.wav", "internal_node_id": "0.0-168.0", "time_elapsed": 889363, "key_press": -1, "type": "PRE_RECALL_ALERT", "trial_index": 222}, "uniqueid": "MTK1348:3R8YZBNQ9IP6M8QVBVESQGLAPL17QS", "dateTime": 1515789658125}, {"current_trial": 223, "trialdata": {"rt": [2527, 4928, 6455, 8726, 10351, 12273, 16064, 25385, 28829, 31458, 41212, 44191, 48168, 57146], "recwords": ["honey", "razor", "pasta", "marrow", "hand", "elbow", "ankle", "palm", "knife", "victim", "elbow", "liver", "oats", "bone"], "key_times": [989, 1113, 1712, 1853, 2003, 2527, 2918, 3072, 3936, 4097, 4400, 4928, 5263, 5452, 5599, 5854, 6094, 6455, 6850, 7147, 7433, 7893, 8047, 8182, 8726, 9698, 9812, 9970, 10076, 10351, 10570, 10723, 10967, 11164, 11374, 12273, 14563, 14784, 15012, 15375, 15550, 16064, 24482, 24616, 24874, 25117, 25385, 27691, 27933, 28117, 28377, 28532, 28829, 30274, 30401, 30506, 30800, 30982, 31165, 31458, 39747, 39913, 40458, 40603, 40769, 41212, 43063, 43235, 43388, 43589, 43787, 44191, 46828, 47309, 47563, 47739, 48168, 56516, 56641, 56845, 56948, 57146], "trial_type": "free-recall", "conditions": [24, 800, "v", 12000], "internal_node_id": "0.0-169.0-0.0", "key_presses": [72, 79, 78, 69, 89, 13, 82, 65, 90, 79, 82, 13, 80, 65, 83, 84, 65, 13, 77, 65, 82, 82, 79, 87, 13, 72, 65, 78, 68, 13, 69, 76, 66, 79, 87, 13, 65, 78, 75, 76, 69, 13, 80, 65, 76, 77, 13, 75, 78, 73, 70, 69, 13, 86, 73, 67, 84, 73, 77, 13, 69, 76, 66, 79, 87, 13, 76, 73, 86, 69, 82, 13, 79, 65, 84, 83, 13, 66, 79, 78, 69, 13], "trial": 5, "time_elapsed": 949369, "type": "FREE_RECALL", "trial_index": 223}, "uniqueid": "MTK1348:3R8YZBNQ9IP6M8QVBVESQGLAPL17QS", "dateTime": 1515789718137}, {"current_trial": 224, "trialdata": {"rt": 795, "trial_type": "text", "internal_node_id": "0.0-170.0", "time_elapsed": 952174, "key_press": 68, "type": "INSTRUCTIONS", "trial_index": 224}, "uniqueid": "MTK1348:3R8YZBNQ9IP6M8QVBVESQGLAPL17QS", "dateTime": 1515789720935}, {"current_trial": 225, "trialdata": {"rt": [3438, 5951, 8217, 11763, 15203, 16957, 19036, 21213, 23064], "trial_type": "math-distractor", "key_times": [1816, 2175, 2785, 3092, 3438, 4749, 5293, 5951, 7268, 7842, 8217, 9661, 10641, 10731, 11446, 11763, 13932, 14756, 15203, 16217, 16562, 16957, 17943, 18569, 19036, 20134, 20784, 21213, 22513, 22710, 23064], "responses": ["10", "18", "14", "13", "16", "10", "16", "19", "11"], "num2": [3, 3, 6, 1, 8, 6, 9, 9, 3, 3], "num3": [6, 8, 2, 8, 3, 2, 6, 9, 6, 9], "conditions": [12, 1600, "v", 24000], "internal_node_id": "0.0-171.0", "key_presses": [49, 57, 8, 48, 13, 49, 56, 13, 49, 52, 13, 50, 8, 49, 51, 13, 49, 54, 13, 49, 48, 13, 49, 54, 13, 49, 57, 13, 49, 49, 13], "trial": 6, "time_elapsed": 978178, "type": "DISTRACTOR", "trial_index": 225, "num1": [1, 7, 6, 4, 5, 2, 1, 1, 2, 4]}, "uniqueid": "MTK1348:3R8YZBNQ9IP6M8QVBVESQGLAPL17QS", "dateTime": 1515789746939}, {"current_trial": 226, "trialdata": {"rt": -1, "trial_type": "single-stim", "stimulus": "<p id=\"stim\">10</p>", "internal_node_id": "0.0-172.0-0.0", "time_elapsed": 981181, "key_press": -1, "trial_index": 226}, "uniqueid": "MTK1348:3R8YZBNQ9IP6M8QVBVESQGLAPL17QS", "dateTime": 1515789749942}, {"current_trial": 227, "trialdata": {"rt": -1, "trial_type": "single-stim", "stimulus": "<p id=\"stim\">9</p>", "internal_node_id": "0.0-172.0-1.0", "time_elapsed": 982183, "key_press": -1, "trial_index": 227}, "uniqueid": "MTK1348:3R8YZBNQ9IP6M8QVBVESQGLAPL17QS", "dateTime": 1515789750944}, {"current_trial": 228, "trialdata": {"rt": -1, "trial_type": "single-stim", "stimulus": "<p id=\"stim\">8</p>", "internal_node_id": "0.0-172.0-2.0", "time_elapsed": 983185, "key_press": -1, "trial_index": 228}, "uniqueid": "MTK1348:3R8YZBNQ9IP6M8QVBVESQGLAPL17QS", "dateTime": 1515789751946}, {"current_trial": 229, "trialdata": {"rt": -1, "trial_type": "single-stim", "stimulus": "<p id=\"stim\">7</p>", "internal_node_id": "0.0-172.0-3.0", "time_elapsed": 984186, "key_press": -1, "trial_index": 229}, "uniqueid": "MTK1348:3R8YZBNQ9IP6M8QVBVESQGLAPL17QS", "dateTime": 1515789752948}, {"current_trial": 230, "trialdata": {"rt": -1, "trial_type": "single-stim", "stimulus": "<p id=\"stim\">6</p>", "internal_node_id": "0.0-172.0-4.0", "time_elapsed": 985188, "key_press": -1, "trial_index": 230}, "uniqueid": "MTK1348:3R8YZBNQ9IP6M8QVBVESQGLAPL17QS", "dateTime": 1515789753949}, {"current_trial": 231, "trialdata": {"rt": -1, "trial_type": "single-stim", "stimulus": "<p id=\"stim\">5</p>", "internal_node_id": "0.0-172.0-5.0", "time_elapsed": 986190, "key_press": -1, "trial_index": 231}, "uniqueid": "MTK1348:3R8YZBNQ9IP6M8QVBVESQGLAPL17QS", "dateTime": 1515789754952}, {"current_trial": 232, "trialdata": {"rt": -1, "trial_type": "single-stim", "stimulus": "<p id=\"stim\">4</p>", "internal_node_id": "0.0-172.0-6.0", "time_elapsed": 987193, "key_press": -1, "trial_index": 232}, "uniqueid": "MTK1348:3R8YZBNQ9IP6M8QVBVESQGLAPL17QS", "dateTime": 1515789755954}, {"current_trial": 233, "trialdata": {"rt": -1, "trial_type": "single-stim", "stimulus": "<p id=\"stim\">3</p>", "internal_node_id": "0.0-172.0-7.0", "time_elapsed": 988195, "key_press": -1, "trial_index": 233}, "uniqueid": "MTK1348:3R8YZBNQ9IP6M8QVBVESQGLAPL17QS", "dateTime": 1515789756956}, {"current_trial": 234, "trialdata": {"rt": -1, "trial_type": "single-stim", "stimulus": "<p id=\"stim\">2</p>", "internal_node_id": "0.0-172.0-8.0", "time_elapsed": 989197, "key_press": -1, "trial_index": 234}, "uniqueid": "MTK1348:3R8YZBNQ9IP6M8QVBVESQGLAPL17QS", "dateTime": 1515789757958}, {"current_trial": 235, "trialdata": {"rt": -1, "trial_type": "single-stim", "stimulus": "<p id=\"stim\">1</p>", "internal_node_id": "0.0-172.0-9.0", "time_elapsed": 990198, "key_press": -1, "trial_index": 235}, "uniqueid": "MTK1348:3R8YZBNQ9IP6M8QVBVESQGLAPL17QS", "dateTime": 1515789758960}, {"current_trial": 236, "trialdata": {"rt": -1, "trial_type": "single-stim", "stimulus": "<p id=\"stim\">+</p>", "internal_node_id": "0.0-173.0-0.0", "time_elapsed": 991701, "key_press": -1, "type": "FIXATION", "trial_index": 236}, "uniqueid": "MTK1348:3R8YZBNQ9IP6M8QVBVESQGLA