{"assignmentId": "3HWRJOOET69383KIQ7H3RQSST4HSEV", "workerId": "MTK1360", "questiondata": {"origin": "United States", "strat-rehearsal": "42", "marital": "Married/Domestic Partnership", "education": "Some college", "ethnicity": "Not Hispanic", "color_depth": 24, "distracted": "No", "wrote-notes": "No", "strat-other": "", "screen_width": 1366, "avail_screen_width": 1366, "avail_screen_height": 728, "strat-image": "58", "language": "english", "gender": "Female", "age": "27", "gender_other": "", "race": ["White"], "strat-categorize": "88", "pixel_depth": 24, "strat-spatial": "1", "strat-story": "25", "race_other": "", "screen_height": 768}, "bonus": 0, "hitId": "3N7PQ0KLI5WX1219AQB0UYOWKOZ3E3", "counterbalance": 2252, "useragent": "Mozilla/5.0 (Windows NT 10.0; Win64; x64) AppleWebKit/537.36 (KHTML, like Gecko) Chrome/63.0.3239.84 Safari/537.36", "eventdata": [{"eventtype": "initialized", "interval": 0, "value": null, "timestamp": 1515865926447}, {"eventtype": "window_resize", "interval": 0, "value": [1362, 713], "timestamp": 1515865926447}], "data": [{"current_trial": 0, "trialdata": {"rt": 4776, "trial_type": "text", "internal_node_id": "0.0-0.0", "time_elapsed": 4781, "key_press": 32, "type": "INSTRUCTIONS", "trial_index": 0}, "uniqueid": "MTK1360:3HWRJOOET69383KIQ7H3RQSST4HSEV", "dateTime": 1515865953767}, {"current_trial": 1, "trialdata": {"rt": 18024, "trial_type": "text", "internal_node_id": "0.0-1.0", "time_elapsed": 22807, "key_press": 32, "type": "INSTRUCTIONS", "trial_index": 1}, "uniqueid": "MTK1360:3HWRJOOET69383KIQ7H3RQSST4HSEV", "dateTime": 1515865971792}, {"current_trial": 2, "trialdata": {"rt": [49088], "trial_type": "audio-test", "responses": ["ocean"], "internal_node_id": "0.0-2.0", "time_elapsed": 71947, "type": "AUDIO_TEST", "trial_index": 2}, "uniqueid": "MTK1360:3HWRJOOET69383KIQ7H3RQSST4HSEV", "dateTime": 1515866020932}, {"current_trial": 3, "trialdata": {"rt": [10749], "trial_type": "audio-test", "responses": ["crystal"], "internal_node_id": "0.0-3.0", "time_elapsed": 82704, "type": "AUDIO_TEST", "trial_index": 3}, "uniqueid": "MTK1360:3HWRJOOET69383KIQ7H3RQSST4HSEV", "dateTime": 1515866031689}, {"current_trial": 4, "trialdata": {"rt": [6259], "trial_type": "audio-test", "responses": ["spice"], "internal_node_id": "0.0-4.0", "time_elapsed": 88970, "type": "AUDIO_TEST", "trial_index": 4}, "uniqueid": "MTK1360:3HWRJOOET69383KIQ7H3RQSST4HSEV", "dateTime": 1515866037956}, {"current_trial": 5, "trialdata": {"rt": 23419, "trial_type": "survey-text", "responses": "{\"Q0\":\"10pm\",\"Q1\":\"6am\",\"Q2\":\"4\"}", "internal_node_id": "0.0-5.0", "time_elapsed": 113143, "type": "SLEEP_SURVEY", "trial_index": 5}, "uniqueid": "MTK1360:3HWRJOOET69383KIQ7H3RQSST4HSEV", "dateTime": 1515866062128}, {"current_trial": 6, "trialdata": {"rt": 39667, "trial_type": "text", "internal_node_id": "0.0-6.0", "time_elapsed": 153814, "key_press": 32, "type": "INSTRUCTIONS", "trial_index": 6}, "uniqueid": "MTK1360:3HWRJOOET69383KIQ7H3RQSST4HSEV", "dateTime": 1515866102799}, {"current_trial": 7, "trialdata": {"rt": 12374, "trial_type": "text", "internal_node_id": "0.0-7.0", "time_elapsed": 166691, "key_press": 32, "type": "INSTRUCTIONS", "trial_index": 7}, "uniqueid": "MTK1360:3HWRJOOET69383KIQ7H3RQSST4HSEV", "dateTime": 1515866115676}, {"current_trial": 8, "trialdata": {"rt": 19180, "trial_type": "text", "internal_node_id": "0.0-8.0", "time_elapsed": 186372, "key_press": 32, "type": "INSTRUCTIONS", "trial_index": 8}, "uniqueid": "MTK1360:3HWRJOOET69383KIQ7H3RQSST4HSEV", "dateTime": 1515866135357}, {"current_trial": 9, "trialdata": {"rt": [5433, 11759, 17486], "trial_type": "math-distractor", "key_times": [4106, 4554, 5433, 10057, 10979, 11759, 16124, 16635, 17486], "responses": ["14", "16", "13"], "num2": [8, 3, 1, 6], "num3": [1, 7, 7, 4], "conditions": [18, 1200, "a", 18000], "internal_node_id": "0.0-9.0", "key_presses": [49, 52, 13, 49, 54, 13, 49, 51, 13], "trial": 0, "time_elapsed": 205403, "type": "DISTRACTOR", "trial_index": 9, "num1": [5, 6, 5, 7]}, "uniqueid": "MTK1360:3HWRJOOET69383KIQ7H3RQSST4HSEV", "dateTime": 1515866154388}, {"current_trial": 10, "trialdata": {"rt": -1, "trial_type": "single-stim", "stimulus": "<p id=\"stim\">10</p>", "internal_node_id": "0.0-10.0-0.0", "time_elapsed": 208408, "key_press": -1, "trial_index": 10}, "uniqueid": "MTK1360:3HWRJOOET69383KIQ7H3RQSST4HSEV", "dateTime": 1515866157393}, {"current_trial": 11, "trialdata": {"rt": -1, "trial_type": "single-stim", "stimulus": "<p id=\"stim\">9</p>", "internal_node_id": "0.0-10.0-1.0", "time_elapsed": 209409, "key_press": -1, "trial_index": 11}, "uniqueid": "MTK1360:3HWRJOOET69383KIQ7H3RQSST4HSEV", "dateTime": 1515866158394}, {"current_trial": 12, "trialdata": {"rt": -1, "trial_type": "single-stim", "stimulus": "<p id=\"stim\">8</p>", "internal_node_id": "0.0-10.0-2.0", "time_elapsed": 210413, "key_press": -1, "trial_index": 12}, "uniqueid": "MTK1360:3HWRJOOET69383KIQ7H3RQSST4HSEV", "dateTime": 1515866159398}, {"current_trial": 13, "trialdata": {"rt": -1, "trial_type": "single-stim", "stimulus": "<p id=\"stim\">7</p>", "internal_node_id": "0.0-10.0-3.0", "time_elapsed": 211414, "key_press": -1, "trial_index": 13}, "uniqueid": "MTK1360:3HWRJOOET69383KIQ7H3RQSST4HSEV", "dateTime": 1515866160400}, {"current_trial": 14, "trialdata": {"rt": -1, "trial_type": "single-stim", "stimulus": "<p id=\"stim\">6</p>", "internal_node_id": "0.0-10.0-4.0", "time_elapsed": 212416, "key_press": -1, "trial_index": 14}, "uniqueid": "MTK1360:3HWRJOOET69383KIQ7H3RQSST4HSEV", "dateTime": 1515866161402}, {"current_trial": 15, "trialdata": {"rt": -1, "trial_type": "single-stim", "stimulus": "<p id=\"stim\">5</p>", "internal_node_id": "0.0-10.0-5.0", "time_elapsed": 213419, "key_press": -1, "trial_index": 15}, "uniqueid": "MTK1360:3HWRJOOET69383KIQ7H3RQSST4HSEV", "dateTime": 1515866162404}, {"current_trial": 16, "trialdata": {"rt": -1, "trial_type": "single-stim", "stimulus": "<p id=\"stim\">4</p>", "internal_node_id": "0.0-10.0-6.0", "time_elapsed": 214423, "key_press": -1, "trial_index": 16}, "uniqueid": "MTK1360:3HWRJOOET69383KIQ7H3RQSST4HSEV", "dateTime": 1515866163408}, {"current_trial": 17, "trialdata": {"rt": -1, "trial_type": "single-stim", "stimulus": "<p id=\"stim\">3</p>", "internal_node_id": "0.0-10.0-7.0", "time_elapsed": 215425, "key_press": -1, "trial_index": 17}, "uniqueid": "MTK1360:3HWRJOOET69383KIQ7H3RQSST4HSEV", "dateTime": 1515866164410}, {"current_trial": 18, "trialdata": {"rt": -1, "trial_type": "single-stim", "stimulus": "<p id=\"stim\">2</p>", "internal_node_id": "0.0-10.0-8.0", "time_elapsed": 216428, "key_press": -1, "trial_index": 18}, "uniqueid": "MTK1360:3HWRJOOET69383KIQ7H3RQSST4HSEV", "dateTime": 1515866165413}, {"current_trial": 19, "trialdata": {"rt": -1, "trial_type": "single-stim", "stimulus": "<p id=\"stim\">1</p>", "internal_node_id": "0.0-10.0-9.0", "time_elapsed": 217433, "key_press": -1, "trial_index": 19}, "uniqueid": "MTK1360:3HWRJOOET69383KIQ7H3RQSST4HSEV", "dateTime": 1515866166418}, {"current_trial": 20, "trialdata": {"rt": -1, "trial_type": "single-stim", "stimulus": "<p id=\"stim\">+</p>", "internal_node_id": "0.0-11.0-0.0", "time_elapsed": 218934, "key_press": -1, "type": "FIXATION", "trial_index": 20}, "uniqueid": "MTK1360:3HWRJOOET69383KIQ7H3RQSST4HSEV", "dateTime": 1515866167919}, {"current_trial": 21, "trialdata": {"rt": -1000, "trial_type": "single-audio", "word": "stove", "stimulus": "/static/audio/wordpool/STOVE.wav", "conditions": [18, 1200, "a", 18000], "internal_node_id": "0.0-12.0", "trial": 0, "time_elapsed": 221351, "serialpos": 0, "key_press": -1, "wordID": 1387, "type": "PRES_AUD", "trial_index": 21}, "uniqueid": "MTK1360:3HWRJOOET69383KIQ7H3RQSST4HSEV", "dateTime": 1515866170337}, {"current_trial": 22, "trialdata": {"rt": -1000, "trial_type": "single-audio", "word": "cafe", "stimulus": "/static/audio/wordpool/CAFE.wav", "conditions": [18, 1200, "a", 18000], "internal_node_id": "0.0-13.0", "trial": 0, "time_elapsed": 223734, "serialpos": 1, "key_press": -1, "wordID": 215, "type": "PRES_AUD", "trial_index": 22}, "uniqueid": "MTK1360:3HWRJOOET69383KIQ7H3RQSST4HSEV", "dateTime": 1515866172720}, {"current_trial": 23, "trialdata": {"rt": -1000, "trial_type": "single-audio", "word": "asia", "stimulus": "/static/audio/wordpool/ASIA.wav", "conditions": [18, 1200, "a", 18000], "internal_node_id": "0.0-14.0", "trial": 0, "time_elapsed": 225869, "serialpos": 2, "key_press": -1, "wordID": 45, "type": "PRES_AUD", "trial_index": 23}, "uniqueid": "MTK1360:3HWRJOOET69383KIQ7H3RQSST4HSEV", "dateTime": 1515866174854}, {"current_trial": 24, "trialdata": {"rt": -1000, "trial_type": "single-audio", "word": "cricket", "stimulus": "/static/audio/wordpool/CRICKET.wav", "conditions": [18, 1200, "a", 18000], "internal_node_id": "0.0-15.0", "trial": 0, "time_elapsed": 228269, "serialpos": 3, "key_press": -1, "wordID": 407, "type": "PRES_AUD", "trial_index": 24}, "uniqueid": "MTK1360:3HWRJOOET69383KIQ7H3RQSST4HSEV", "dateTime": 1515866177254}, {"current_trial": 25, "trialdata": {"rt": -1000, "trial_type": "single-audio", "word": "princess", "stimulus": "/static/audio/wordpool/PRINCESS.wav", "conditions": [18, 1200, "a", 18000], "internal_node_id": "0.0-16.0", "trial": 0, "time_elapsed": 230485, "serialpos": 4, "key_press": -1, "wordID": 1124, "type": "PRES_AUD", "trial_index": 25}, "uniqueid": "MTK1360:3HWRJOOET69383KIQ7H3RQSST4HSEV", "dateTime": 1515866179470}, {"current_trial": 26, "trialdata": {"rt": -1000, "trial_type": "single-audio", "word": "scalpel", "stimulus": "/static/audio/wordpool/SCALPEL.wav", "conditions": [18, 1200, "a", 18000], "internal_node_id": "0.0-17.0", "trial": 0, "time_elapsed": 232862, "serialpos": 5, "key_press": -1, "wordID": 1242, "type": "PRES_AUD", "trial_index": 26}, "uniqueid": "MTK1360:3HWRJOOET69383KIQ7H3RQSST4HSEV", "dateTime": 1515866181847}, {"current_trial": 27, "trialdata": {"rt": -1000, "trial_type": "single-audio", "word": "parent", "stimulus": "/static/audio/wordpool/PARENT.wav", "conditions": [18, 1200, "a", 18000], "internal_node_id": "0.0-18.0", "trial": 0, "time_elapsed": 235027, "serialpos": 6, "key_press": -1, "wordID": 1012, "type": "PRES_AUD", "trial_index": 27}, "uniqueid": "MTK1360:3HWRJOOET69383KIQ7H3RQSST4HSEV", "dateTime": 1515866184012}, {"current_trial": 28, "trialdata": {"rt": -1000, "trial_type": "single-audio", "word": "spider", "stimulus": "/static/audio/wordpool/SPIDER.wav", "conditions": [18, 1200, "a", 18000], "internal_node_id": "0.0-19.0", "trial": 0, "time_elapsed": 237214, "serialpos": 7, "key_press": -1, "wordID": 1350, "type": "PRES_AUD", "trial_index": 28}, "uniqueid": "MTK1360:3HWRJOOET69383KIQ7H3RQSST4HSEV", "dateTime": 1515866186199}, {"current_trial": 29, "trialdata": {"rt": -1000, "trial_type": "single-audio", "word": "termite", "stimulus": "/static/audio/wordpool/TERMITE.wav", "conditions": [18, 1200, "a", 18000], "internal_node_id": "0.0-20.0", "trial": 0, "time_elapsed": 239356, "serialpos": 8, "key_press": -1, "wordID": 1450, "type": "PRES_AUD", "trial_index": 29}, "uniqueid": "MTK1360:3HWRJOOET69383KIQ7H3RQSST4HSEV", "dateTime": 1515866188342}, {"current_trial": 30, "trialdata": {"rt": -1000, "trial_type": "single-audio", "word": "carrot", "stimulus": "/static/audio/wordpool/CARROT.wav", "conditions": [18, 1200, "a", 18000], "internal_node_id": "0.0-21.0", "trial": 0, "time_elapsed": 241618, "serialpos": 9, "key_press": -1, "wordID": 248, "type": "PRES_AUD", "trial_index": 30}, "uniqueid": "MTK1360:3HWRJOOET69383KIQ7H3RQSST4HSEV", "dateTime": 1515866190603}, {"current_trial": 31, "trialdata": {"rt": -1000, "trial_type": "single-audio", "word": "journal", "stimulus": "/static/audio/wordpool/JOURNAL.wav", "conditions": [18, 1200, "a", 18000], "internal_node_id": "0.0-22.0", "trial": 0, "time_elapsed": 243749, "serialpos": 10, "key_press": -1, "wordID": 759, "type": "PRES_AUD", "trial_index": 31}, "uniqueid": "MTK1360:3HWRJOOET69383KIQ7H3RQSST4HSEV", "dateTime": 1515866192734}, {"current_trial": 32, "trialdata": {"rt": -1000, "trial_type": "single-audio", "word": "dancer", "stimulus": "/static/audio/wordpool/DANCER.wav", "conditions": [18, 1200, "a", 18000], "internal_node_id": "0.0-23.0", "trial": 0, "time_elapsed": 245933, "serialpos": 11, "key_press": -1, "wordID": 436, "type": "PRES_AUD", "trial_index": 32}, "uniqueid": "MTK1360:3HWRJOOET69383KIQ7H3RQSST4HSEV", "dateTime": 1515866194918}, {"current_trial": 33, "trialdata": {"rt": -1000, "trial_type": "single-audio", "word": "iceberg", "stimulus": "/static/audio/wordpool/ICEBERG.wav", "conditions": [18, 1200, "a", 18000], "internal_node_id": "0.0-24.0", "trial": 0, "time_elapsed": 248172, "serialpos": 12, "key_press": -1, "wordID": 730, "type": "PRES_AUD", "trial_index": 33}, "uniqueid": "MTK1360:3HWRJOOET69383KIQ7H3RQSST4HSEV", "dateTime": 1515866197158}, {"current_trial": 34, "trialdata": {"rt": -1000, "trial_type": "single-audio", "word": "switch", "stimulus": "/static/audio/wordpool/SWITCH.wav", "conditions": [18, 1200, "a", 18000], "internal_node_id": "0.0-25.0", "trial": 0, "time_elapsed": 250180, "serialpos": 13, "key_press": -1, "wordID": 1421, "type": "PRES_AUD", "trial_index": 34}, "uniqueid": "MTK1360:3HWRJOOET69383KIQ7H3RQSST4HSEV", "dateTime": 1515866199165}, {"current_trial": 35, "trialdata": {"rt": -1000, "trial_type": "single-audio", "word": "washer", "stimulus": "/static/audio/wordpool/WASHER.wav", "conditions": [18, 1200, "a", 18000], "internal_node_id": "0.0-26.0", "trial": 0, "time_elapsed": 252203, "serialpos": 14, "key_press": -1, "wordID": 1591, "type": "PRES_AUD", "trial_index": 35}, "uniqueid": "MTK1360:3HWRJOOET69383KIQ7H3RQSST4HSEV", "dateTime": 1515866201188}, {"current_trial": 36, "trialdata": {"rt": -1000, "trial_type": "single-audio", "word": "author", "stimulus": "/static/audio/wordpool/AUTHOR.wav", "conditions": [18, 1200, "a", 18000], "internal_node_id": "0.0-27.0", "trial": 0, "time_elapsed": 254285, "serialpos": 15, "key_press": -1, "wordID": 60, "type": "PRES_AUD", "trial_index": 36}, "uniqueid": "MTK1360:3HWRJOOET69383KIQ7H3RQSST4HSEV", "dateTime": 1515866203271}, {"current_trial": 37, "trialdata": {"rt": -1000, "trial_type": "single-audio", "word": "cyclone", "stimulus": "/static/audio/wordpool/CYCLONE.wav", "conditions": [18, 1200, "a", 18000], "internal_node_id": "0.0-28.0", "trial": 0, "time_elapsed": 256312, "serialpos": 16, "key_press": -1, "wordID": 430, "type": "PRES_AUD", "trial_index": 37}, "uniqueid": "MTK1360:3HWRJOOET69383KIQ7H3RQSST4HSEV", "dateTime": 1515866205297}, {"current_trial": 38, "trialdata": {"rt": -1000, "trial_type": "single-audio", "word": "ozone", "stimulus": "/static/audio/wordpool/OZONE.wav", "conditions": [18, 1200, "a", 18000], "internal_node_id": "0.0-29.0", "trial": 0, "time_elapsed": 258418, "serialpos": 17, "key_press": -1, "wordID": 995, "type": "PRES_AUD", "trial_index": 38}, "uniqueid": "MTK1360:3HWRJOOET69383KIQ7H3RQSST4HSEV", "dateTime": 1515866207403}, {"current_trial": 39, "trialdata": {"rt": -1, "trial_type": "single-stim", "stimulus": "", "internal_node_id": "0.0-30.0-0.0", "time_elapsed": 259811, "key_press": -1, "type": "PRE_RECALL_DELAY", "trial_index": 39}, "uniqueid": "MTK1360:3HWRJOOET69383KIQ7H3RQSST4HSEV", "dateTime": 1515866208797}, {"current_trial": 40, "trialdata": {"rt": -1000, "trial_type": "single-audio", "stimulus": "/static/audio/400Hz.wav", "internal_node_id": "0.0-31.0", "time_elapsed": 260313, "key_press": -1, "type": "PRE_RECALL_ALERT", "trial_index": 40}, "uniqueid": "MTK1360:3HWRJOOET69383KIQ7H3RQSST4HSEV", "dateTime": 1515866209298}, {"current_trial": 41, "trialdata": {"rt": [4206, 7552, 9901, 12600, 18764, 23769, 26357, 31901, 39448, 57958], "recwords": ["cyclone", "dancer", "ozone", "princess", "scaple", "crystal", "stove", "oven", "cricket", "woman"], "key_times": [2243, 2366, 2515, 2863, 3275, 3516, 3713, 4206, 4823, 5731, 5919, 6088, 6299, 6480, 6977, 7245, 7552, 8272, 8941, 9095, 9335, 9509, 9901, 10549, 10722, 10887, 11085, 11557, 11876, 12162, 12339, 12600, 13111, 13401, 13650, 13837, 14998, 15265, 15404, 16854, 17001, 17818, 18321, 18456, 18764, 21794, 22167, 22403, 22618, 22765, 22966, 23387, 23769, 24294, 24539, 25147, 25381, 25794, 26357, 30312, 30920, 31384, 31571, 31901, 33668, 34034, 34169, 34381, 34520, 34746, 35518, 39448, 55340, 55450, 55971, 56743, 57203, 57377, 57563, 57958], "trial_type": "free-recall", "conditions": [18, 1200, "a", 18000], "internal_node_id": "0.0-32.0-0.0", "key_presses": [67, 89, 67, 76, 79, 78, 69, 32, 83, 8, 68, 65, 78, 67, 69, 82, 13, 79, 90, 79, 78, 69, 13, 80, 82, 73, 78, 67, 69, 83, 83, 13, 83, 67, 65, 80, 80, 76, 69, 8, 8, 8, 76, 69, 13, 67, 82, 89, 83, 84, 65, 76, 13, 83, 84, 79, 86, 69, 13, 79, 86, 69, 78, 13, 67, 82, 73, 67, 75, 69, 84, 32, 87, 79, 65, 8, 77, 65, 78, 13], "trial": 0, "time_elapsed": 320318, "type": "FREE_RECALL", "trial_index": 41}, "uniqueid": "MTK1360:3HWRJOOET69383KIQ7H3RQSST4HSEV", "dateTime": 1515866269307}, {"current_trial": 42, "trialdata": {"rt": 2616, "trial_type": "text", "internal_node_id": "0.0-33.0", "time_elapsed": 324940, "key_press": 32, "type": "INSTRUCTIONS", "trial_index": 42}, "uniqueid": "MTK1360:3HWRJOOET69383KIQ7H3RQSST4HSEV", "dateTime": 1515866273925}, {"current_trial": 43, "trialdata": {"rt": [4182, 7073, 11146, 17290], "trial_type": "math-distractor", "key_times": [2928, 3094, 4182, 6655, 6876, 7073, 10092, 10397, 11146, 16666, 16924, 17290], "responses": ["10", "21", "20", "23"], "num2": [3, 3, 9, 7, 8], "num3": [6, 9, 6, 7, 1], "conditions": [18, 1200, "a", 18000], "internal_node_id": "0.0-34.0", "key_presses": [49, 48, 13, 50, 49, 13, 50, 48, 13, 50, 51, 13], "trial": 1, "time_elapsed": 344946, "type": "DISTRACTOR", "trial_index": 43, "num1": [1, 9, 5, 9, 5]}, "uniqueid": "MTK1360:3HWRJOOET69383KIQ7H3RQSST4HSEV", "dateTime": 1515866293931}, {"current_trial": 44, "trialdata": {"rt": -1, "trial_type": "single-stim", "stimulus": "<p id=\"stim\">10</p>", "internal_node_id": "0.0-35.0-0.0", "time_elapsed": 347948, "key_press": -1, "trial_index": 44}, "uniqueid": "MTK1360:3HWRJOOET69383KIQ7H3RQSST4HSEV", "dateTime": 1515866296933}, {"current_trial": 45, "trialdata": {"rt": -1, "trial_type": "single-stim", "stimulus": "<p id=\"stim\">9</p>", "internal_node_id": "0.0-35.0-1.0", "time_elapsed": 348949, "key_press": -1, "trial_index": 45}, "uniqueid": "MTK1360:3HWRJOOET69383KIQ7H3RQSST4HSEV", "dateTime": 1515866297934}, {"current_trial": 46, "trialdata": {"rt": -1, "trial_type": "single-stim", "stimulus": "<p id=\"stim\">8</p>", "internal_node_id": "0.0-35.0-2.0", "time_elapsed": 349950, "key_press": -1, "trial_index": 46}, "uniqueid": "MTK1360:3HWRJOOET69383KIQ7H3RQSST4HSEV", "dateTime": 1515866298935}, {"current_trial": 47, "trialdata": {"rt": -1, "trial_type": "single-stim", "stimulus": "<p id=\"stim\">7</p>", "internal_node_id": "0.0-35.0-3.0", "time_elapsed": 350952, "key_press": -1, "trial_index": 47}, "uniqueid": "MTK1360:3HWRJOOET69383KIQ7H3RQSST4HSEV", "dateTime": 1515866299937}, {"current_trial": 48, "trialdata": {"rt": -1, "trial_type": "single-stim", "stimulus": "<p id=\"stim\">6</p>", "internal_node_id": "0.0-35.0-4.0", "time_elapsed": 351952, "key_press": -1, "trial_index": 48}, "uniqueid": "MTK1360:3HWRJOOET69383KIQ7H3RQSST4HSEV", "dateTime": 1515866300938}, {"current_trial": 49, "trialdata": {"rt": 502, "trial_type": "single-stim", "stimulus": "<p id=\"stim\">5</p>", "internal_node_id": "0.0-35.0-5.0", "time_elapsed": 352953, "key_press": 173, "trial_index": 49}, "uniqueid": "MTK1360:3HWRJOOET69383KIQ7H3RQSST4HSEV", "dateTime": 1515866301939}, {"current_trial": 50, "trialdata": {"rt": 90, "trial_type": "single-stim", "stimulus": "<p id=\"stim\">4</p>", "internal_node_id": "0.0-35.0-6.0", "time_elapsed": 353955, "key_press": 173, "trial_index": 50}, "uniqueid": "MTK1360:3HWRJOOET69383KIQ7H3RQSST4HSEV", "dateTime": 1515866302940}, {"current_trial": 51, "trialdata": {"rt": 858, "trial_type": "single-stim", "stimulus": "<p id=\"stim\">3</p>", "internal_node_id": "0.0-35.0-7.0", "time_elapsed": 354957, "key_press": 175, "trial_index": 51}, "uniqueid": "MTK1360:3HWRJOOET69383KIQ7H3RQSST4HSEV", "dateTime": 1515866303942}, {"current_trial": 52, "trialdata": {"rt": 29, "trial_type": "single-stim", "stimulus": "<p id=\"stim\">2</p>", "internal_node_id": "0.0-35.0-8.0", "time_elapsed": 355958, "key_press": 175, "trial_index": 52}, "uniqueid": "MTK1360:3HWRJOOET69383KIQ7H3RQSST4HSEV", "dateTime": 1515866304943}, {"current_trial": 53, "trialdata": {"rt": 64, "trial_type": "single-stim", "stimulus": "<p id=\"stim\">1</p>", "internal_node_id": "0.0-35.0-9.0", "time_elapsed": 356961, "key_press": 175, "trial_index": 53}, "uniqueid": "MTK1360:3HWRJOOET69383KIQ7H3RQSST4HSEV", "dateTime": 1515866305946}, {"current_trial": 54, "trialdata": {"rt": -1, "trial_type": "single-stim", "stimulus": "<p id=\"stim\">+</p>", "internal_node_id": "0.0-36.0-0.0", "time_elapsed": 358462, "key_press": -1, "type": "FIXATION", "trial_index": 54}, "uniqueid": "MTK1360:3HWRJOOET69383KIQ7H3RQSST4HSEV", "dateTime": 1515866307448}, {"current_trial": 55, "trialdata": {"rt": -1000, "trial_type": "single-audio", "word": "igloo", "stimulus": "/static/audio/wordpool/IGLOO.wav", "conditions": [18, 1200, "a", 18000], "internal_node_id": "0.0-37.0", "trial": 1, "time_elapsed": 360823, "serialpos": 0, "key_press": -1, "wordID": 733, "type": "PRES_AUD", "trial_index": 55}, "uniqueid": "MTK1360:3HWRJOOET69383KIQ7H3RQSST4HSEV", "dateTime": 1515866309808}, {"current_trial": 56, "trialdata": {"rt": -1000, "trial_type": "single-audio", "word": "airport", "stimulus": "/static/audio/wordpool/AIRPORT.wav", "conditions": [18, 1200, "a", 18000], "internal_node_id": "0.0-38.0", "trial": 1, "time_elapsed": 362934, "serialpos": 1, "key_press": -1, "wordID": 12, "type": "PRES_AUD", "trial_index": 56}, "uniqueid": "MTK1360:3HWRJOOET69383KIQ7H3RQSST4HSEV", "dateTime": 1515866311919}, {"current_trial": 57, "trialdata": {"rt": -1000, "trial_type": "single-audio", "word": "postage", "stimulus": "/static/audio/wordpool/POSTAGE.wav", "conditions": [18, 1200, "a", 18000], "internal_node_id": "0.0-39.0", "trial": 1, "time_elapsed": 364942, "serialpos": 2, "key_press": -1, "wordID": 1112, "type": "PRES_AUD", "trial_index": 57}, "uniqueid": "MTK1360:3HWRJOOET69383KIQ7H3RQSST4HSEV", "dateTime": 1515866313927}, {"current_trial": 58, "trialdata": {"rt": -1000, "trial_type": "single-audio", "word": "army", "stimulus": "/static/audio/wordpool/ARMY.wav", "conditions": [18, 1200, "a", 18000], "internal_node_id": "0.0-40.0", "trial": 1, "time_elapsed": 367167, "serialpos": 3, "key_press": -1, "wordID": 38, "type": "PRES_AUD", "trial_index": 58}, "uniqueid": "MTK1360:3HWRJOOET69383KIQ7H3RQSST4HSEV", "dateTime": 1515866316152}, {"current_trial": 59, "trialdata": {"rt": -1000, "trial_type": "single-audio", "word": "jury", "stimulus": "/static/audio/wordpool/JURY.wav", "conditions": [18, 1200, "a", 18000], "internal_node_id": "0.0-41.0", "trial": 1, "time_elapsed": 369525, "serialpos": 4, "key_press": -1, "wordID": 765, "type": "PRES_AUD", "trial_index": 59}, "uniqueid": "MTK1360:3HWRJOOET69383KIQ7H3RQSST4HSEV", "dateTime": 1515866318510}, {"current_trial": 60, "trialdata": {"rt": -1000, "trial_type": "single-audio", "word": "expert", "stimulus": "/static/audio/wordpool/EXPERT.wav", "conditions": [18, 1200, "a", 18000], "internal_node_id": "0.0-42.0", "trial": 1, "time_elapsed": 371848, "serialpos": 5, "key_press": -1, "wordID": 542, "type": "PRES_AUD", "trial_index": 60}, "uniqueid": "MTK1360:3HWRJOOET69383KIQ7H3RQSST4HSEV", "dateTime": 1515866320833}, {"current_trial": 61, "trialdata": {"rt": -1000, "trial_type": "single-audio", "word": "bubble", "stimulus": "/static/audio/wordpool/BUBBLE.wav", "conditions": [18, 1200, "a", 18000], "internal_node_id": "0.0-43.0", "trial": 1, "time_elapsed": 374236, "serialpos": 6, "key_press": -1, "wordID": 182, "type": "PRES_AUD", "trial_index": 61}, "uniqueid": "MTK1360:3HWRJOOET69383KIQ7H3RQSST4HSEV", "dateTime": 1515866323221}, {"current_trial": 62, "trialdata": {"rt": -1000, "trial_type": "single-audio", "word": "ulcer", "stimulus": "/static/audio/wordpool/ULCER.wav", "conditions": [18, 1200, "a", 18000], "internal_node_id": "0.0-44.0", "trial": 1, "time_elapsed": 376316, "serialpos": 7, "key_press": -1, "wordID": 1532, "type": "PRES_AUD", "trial_index": 62}, "uniqueid": "MTK1360:3HWRJOOET69383KIQ7H3RQSST4HSEV", "dateTime": 1515866325301}, {"current_trial": 63, "trialdata": {"rt": -1000, "trial_type": "single-audio", "word": "guitar", "stimulus": "/static/audio/wordpool/GUITAR.wav", "conditions": [18, 1200, "a", 18000], "internal_node_id": "0.0-45.0", "trial": 1, "time_elapsed": 378688, "serialpos": 8, "key_press": -1, "wordID": 669, "type": "PRES_AUD", "trial_index": 63}, "uniqueid": "MTK1360:3HWRJOOET69383KIQ7H3RQSST4HSEV", "dateTime": 1515866327674}, {"current_trial": 64, "trialdata": {"rt": -1000, "trial_type": "single-audio", "word": "mister", "stimulus": "/static/audio/wordpool/MISTER.wav", "conditions": [18, 1200, "a", 18000], "internal_node_id": "0.0-46.0", "trial": 1, "time_elapsed": 380838, "serialpos": 9, "key_press": -1, "wordID": 900, "type": "PRES_AUD", "trial_index": 64}, "uniqueid": "MTK1360:3HWRJOOET69383KIQ7H3RQSST4HSEV", "dateTime": 1515866329823}, {"current_trial": 65, "trialdata": {"rt": -1000, "trial_type": "single-audio", "word": "hornet", "stimulus": "/static/audio/wordpool/HORNET.wav", "conditions": [18, 1200, "a", 18000], "internal_node_id": "0.0-47.0", "trial": 1, "time_elapsed": 382870, "serialpos": 10, "key_press": -1, "wordID": 717, "type": "PRES_AUD", "trial_index": 65}, "uniqueid": "MTK1360:3HWRJOOET69383KIQ7H3RQSST4HSEV", "dateTime": 1515866331855}, {"current_trial": 66, "trialdata": {"rt": -1000, "trial_type": "single-audio", "word": "office", "stimulus": "/static/audio/wordpool/OFFICE.wav", "conditions": [18, 1200, "a", 18000], "internal_node_id": "0.0-48.0", "trial": 1, "time_elapsed": 384890, "serialpos": 11, "key_press": -1, "wordID": 971, "type": "PRES_AUD", "trial_index": 66}, "uniqueid": "MTK1360:3HWRJOOET69383KIQ7H3RQSST4HSEV", "dateTime": 1515866333876}, {"current_trial": 67, "trialdata": {"rt": -1000, "trial_type": "single-audio", "word": "female", "stimulus": "/static/audio/wordpool/FEMALE.wav", "conditions": [18, 1200, "a", 18000], "internal_node_id": "0.0-49.0", "trial": 1, "time_elapsed": 386991, "serialpos": 12, "key_press": -1, "wordID": 558, "type": "PRES_AUD", "trial_index": 67}, "uniqueid": "MTK1360:3HWRJOOET69383KIQ7H3RQSST4HSEV", "dateTime": 1515866335976}, {"current_trial": 68, "trialdata": {"rt": -1000, "trial_type": "single-audio", "word": "empire", "stimulus": "/static/audio/wordpool/EMPIRE.wav", "conditions": [18, 1200, "a", 18000], "internal_node_id": "0.0-50.0", "trial": 1, "time_elapsed": 389370, "serialpos": 13, "key_press": -1, "wordID": 529, "type": "PRES_AUD", "trial_index": 68}, "uniqueid": "MTK1360:3HWRJOOET69383KIQ7H3RQSST4HSEV", "dateTime": 1515866338357}, {"current_trial": 69, "trialdata": {"rt": -1000, "trial_type": "single-audio", "word": "rooster", "stimulus": "/static/audio/wordpool/ROOSTER.wav", "conditions": [18, 1200, "a", 18000], "internal_node_id": "0.0-51.0", "trial": 1, "time_elapsed": 391705, "serialpos": 14, "key_press": -1, "wordID": 1208, "type": "PRES_AUD", "trial_index": 69}, "uniqueid": "MTK1360:3HWRJOOET69383KIQ7H3RQSST4HSEV", "dateTime": 1515866340690}, {"current_trial": 70, "trialdata": {"rt": -1000, "trial_type": "single-audio", "word": "suspect", "stimulus": "/static/audio/wordpool/SUSPECT.wav", "conditions": [18, 1200, "a", 18000], "internal_node_id": "0.0-52.0", "trial": 1, "time_elapsed": 393758, "serialpos": 15, "key_press": -1, "wordID": 1414, "type": "PRES_AUD", "trial_index": 70}, "uniqueid": "MTK1360:3HWRJOOET69383KIQ7H3RQSST4HSEV", "dateTime": 1515866342743}, {"current_trial": 71, "trialdata": {"rt": -1000, "trial_type": "single-audio", "word": "turtle", "stimulus": "/static/audio/wordpool/TURTLE.wav", "conditions": [18, 1200, "a", 18000], "internal_node_id": "0.0-53.0", "trial": 1, "time_elapsed": 395852, "serialpos": 16, "key_press": -1, "wordID": 1521, "type": "PRES_AUD", "trial_index": 71}, "uniqueid": "MTK1360:3HWRJOOET69383KIQ7H3RQSST4HSEV", "dateTime": 1515866344838}, {"current_trial": 72, "trialdata": {"rt": -1000, "trial_type": "single-audio", "word": "oyster", "stimulus": "/static/audio/wordpool/OYSTER.wav", "conditions": [18, 1200, "a", 18000], "internal_node_id": "0.0-54.0", "trial": 1, "time_elapsed": 397900, "serialpos": 17, "key_press": -1, "wordID": 994, "type": "PRES_AUD", "trial_index": 72}, "uniqueid": "MTK1360:3HWRJOOET69383KIQ7H3RQSST4HSEV", "dateTime": 1515866346885}, {"current_trial": 73, "trialdata": {"rt": -1, "trial_type": "single-stim", "stimulus": "", "internal_node_id": "0.0-55.0-0.0", "time_elapsed": 399217, "key_press": -1, "type": "PRE_RECALL_DELAY", "trial_index": 73}, "uniqueid": "MTK1360:3HWRJOOET69383KIQ7H3RQSST4HSEV", "dateTime": 1515866348203}, {"current_trial": 74, "trialdata": {"rt": -1000, "trial_type": "single-audio", "stimulus": "/static/audio/400Hz.wav", "internal_node_id": "0.0-56.0", "time_elapsed": 399718, "key_press": -1, "type": "PRE_RECALL_ALERT", "trial_index": 74}, "uniqueid": "MTK1360:3HWRJOOET69383KIQ7H3RQSST4HSEV", "dateTime": 1515866348704}, {"current_trial": 75, "trialdata": {"rt": [17942, 25255, 28676, 32330, 35678, 39987, 43909, 58778], "recwords": ["oaster", "mister", "hornet", "email", "office", "suspect", "rooster", "email"], "key_times": [12392, 12896, 13481, 14695, 15198, 15550, 15846, 16019, 17942, 22833, 23105, 23514, 23925, 24252, 24411, 25255, 25817, 26159, 26604, 27014, 27468, 27741, 28676, 29745, 30272, 30824, 31442, 31738, 32330, 32967, 33440, 33585, 34048, 34467, 34816, 35678, 36293, 36936, 37361, 37986, 38495, 38852, 39194, 39987, 40697, 41264, 41417, 41920, 42393, 42777, 42990, 43909, 52976, 53562, 53718, 55164, 55336, 55501, 56204, 56713, 57279, 58006, 58253, 58778], "trial_type": "free-recall", "conditions": [18, 1200, "a", 18000], "internal_node_id": "0.0-57.0-0.0", "key_presses": [79, 65, 84, 8, 83, 84, 69, 82, 32, 77, 73, 83, 84, 69, 82, 13, 72, 79, 82, 78, 69, 84, 13, 69, 77, 65, 73, 76, 13, 79, 70, 70, 73, 67, 69, 13, 83, 85, 83, 80, 69, 67, 84, 13, 82, 79, 79, 83, 84, 69, 82, 13, 79, 70, 70, 8, 8, 8, 69, 77, 65, 73, 76, 32], "trial": 1, "time_elapsed": 459722, "type": "FREE_RECALL", "trial_index": 75}, "uniqueid": "MTK1360:3HWRJOOET69383KIQ7H3RQSST4HSEV", "dateTime": 1515866408710}, {"current_trial": 76, "trialdata": {"rt": 6382, "trial_type": "text", "internal_node_id": "0.0-58.0", "time_elapsed": 468109, "key_press": 32, "type": "INSTRUCTIONS", "trial_index": 76}, "uniqueid": "MTK1360:3HWRJOOET69383KIQ7H3RQSST4HSEV", "dateTime": 1515866417094}, {"current_trial": 77, "trialdata": {"rt": [6693, 11738, 15949, 19214, 22553], "trial_type": "math-distractor", "key_times": [5457, 5739, 6693, 10393, 11200, 11738, 14835, 15193, 15949, 18122, 18431, 19214, 21669, 21950, 22553], "responses": ["15", "13", "17", "10", "20"], "num2": [3, 4, 6, 4, 6, 8], "num3": [5, 2, 8, 2, 9, 2], "conditions": [24, 1600, "a", 24000], "internal_node_id": "0.0-59.0", "key_presses": [97, 101, 13, 97, 99, 13, 97, 103, 13, 97, 96, 13, 98, 96, 13], "trial": 2, "time_elapsed": 493113, "type": "DISTRACTOR", "trial_index": 77, "num1": [7, 7, 3, 4, 5, 2]}, "uniqueid": "MTK1360:3HWRJOOET69383KIQ7H3RQSST4HSEV", "dateTime": 1515866442098}, {"current_trial": 78, "trialdata": {"rt": -1, "trial_type": "single-stim", "stimulus": "<p id=\"stim\">10</p>", "internal_node_id": "0.0-60.0-0.0", "time_elapsed": 496115, "key_press": -1, "trial_index": 78}, "uniqueid": "MTK1360:3HWRJOOET69383KIQ7H3RQSST4HSEV", "dateTime": 1515866445100}, {"current_trial": 79, "trialdata": {"rt": -1, "trial_type": "single-stim", "stimulus": "<p id=\"stim\">9</p>", "internal_node_id": "0.0-60.0-1.0", "time_elapsed": 497116, "key_press": -1, "trial_index": 79}, "uniqueid": "MTK1360:3HWRJOOET69383KIQ7H3RQSST4HSEV", "dateTime": 1515866446101}, {"current_trial": 80, "trialdata": {"rt": -1, "trial_type": "single-stim", "stimulus": "<p id=\"stim\">8</p>", "internal_node_id": "0.0-60.0-2.0", "time_elapsed": 498119, "key_press": -1, "trial_index": 80}, "uniqueid": "MTK1360:3HWRJOOET69383KIQ7H3RQSST4HSEV", "dateTime": 1515866447104}, {"current_trial": 81, "trialdata": {"rt": -1, "trial_type": "single-stim", "stimulus": "<p id=\"stim\">7</p>", "internal_node_id": "0.0-60.0-3.0", "time_elapsed": 499121, "key_press": -1, "trial_index": 81}, "uniqueid": "MTK1360:3HWRJOOET69383KIQ7H3RQSST4HSEV", "dateTime": 1515866448106}, {"current_trial": 82, "trialdata": {"rt": -1, "trial_type": "single-stim", "stimulus": "<p id=\"stim\">6</p>", "internal_node_id": "0.0-60.0-4.0", "time_elapsed": 500123, "key_press": -1, "trial_index": 82}, "uniqueid": "MTK1360:3HWRJOOET69383KIQ7H3RQSST4HSEV", "dateTime": 1515866449108}, {"current_trial": 83, "trialdata": {"rt": -1, "trial_type": "single-stim", "stimulus": "<p id=\"stim\">5</p>", "internal_node_id": "0.0-60.0-5.0", "time_elapsed": 501125, "key_press": -1, "trial_index": 83}, "uniqueid": "MTK1360:3HWRJOOET69383KIQ7H3RQSST4HSEV", "dateTime": 1515866450110}, {"current_trial": 84, "trialdata": {"rt": -1, "trial_type": "single-stim", "stimulus": "<p id=\"stim\">4</p>", "internal_node_id": "0.0-60.0-6.0", "time_elapsed": 502127, "key_press": -1, "trial_index": 84}, "uniqueid": "MTK1360:3HWRJOOET69383KIQ7H3RQSST4HSEV", "dateTime": 1515866451112}, {"current_trial": 85, "trialdata": {"rt": -1, "trial_type": "single-stim", "stimulus": "<p id=\"stim\">3</p>", "internal_node_id": "0.0-60.0-7.0", "time_elapsed": 503130, "key_press": -1, "trial_index": 85}, "uniqueid": "MTK1360:3HWRJOOET69383KIQ7H3RQSST4HSEV", "dateTime": 1515866452115}, {"current_trial": 86, "trialdata": {"rt": -1, "trial_type": "single-stim", "stimulus": "<p id=\"stim\">2</p>", "internal_node_id": "0.0-60.0-8.0", "time_elapsed": 504131, "key_press": -1, "trial_index": 86}, "uniqueid": "MTK1360:3HWRJOOET69383KIQ7H3RQSST4HSEV", "dateTime": 1515866453117}, {"current_trial": 87, "trialdata": {"rt": -1, "trial_type": "single-stim", "stimulus": "<p id=\"stim\">1</p>", "internal_node_id": "0.0-60.0-9.0", "time_elapsed": 505132, "key_press": -1, "trial_index": 87}, "uniqueid": "MTK1360:3HWRJOOET69383KIQ7H3RQSST4HSEV", "dateTime": 1515866454118}, {"current_trial": 88, "trialdata": {"rt": -1, "trial_type": "single-stim", "stimulus": "<p id=\"stim\">+</p>", "internal_node_id": "0.0-61.0-0.0", "time_elapsed": 506635, "key_press": -1, "type": "FIXATION", "trial_index": 88}, "uniqueid": "MTK1360:3HWRJOOET69383KIQ7H3RQSST4HSEV", "dateTime": 1515866455620}, {"current_trial": 89, "trialdata": {"rt": -1000, "trial_type": "single-audio", "word": "subway", "stimulus": "/static/audio/wordpool/SUBWAY.wav", "conditions": [24, 1600, "a", 24000], "internal_node_id": "0.0-62.0", "trial": 2, "time_elapsed": 509294, "serialpos": 0, "key_press": -1, "wordID": 1399, "type": "PRES_AUD", "trial_index": 89}, "uniqueid": "MTK1360:3HWRJOOET69383KIQ7H3RQSST4HSEV", "dateTime": 1515866458279}, {"current_trial": 90, "trialdata": {"rt": -1000, "trial_type": "single-audio", "word": "patrol", "stimulus": "/static/audio/wordpool/PATROL.wav", "conditions": [24, 1600, "a", 24000], "internal_node_id": "0.0-63.0", "trial": 2, "time_elapsed": 511910, "serialpos": 1, "key_press": -1, "wordID": 1026, "type": "PRES_AUD", "trial_index": 90}, "uniqueid": "MTK1360:3HWRJOOET69383KIQ7H3RQSST4HSEV", "dateTime": 1515866460895}, {"current_trial": 91, "trialdata": {"rt": -1000, "trial_type": "single-audio", "word": "police", "stimulus": "/static/audio/wordpool/POLICE.wav", "conditions": [24, 1600, "a", 24000], "internal_node_id": "0.0-64.0", "trial": 2, "time_elapsed": 514351, "serialpos": 2, "key_press": -1, "wordID": 1097, "type": "PRES_AUD", "trial_index": 91}, "uniqueid": "MTK1360:3HWRJOOET69383KIQ7H3RQSST4HSEV", "dateTime": 1515866463336}, {"current_trial": 92, "trialdata": {"rt": -1000, "trial_type": "single-audio", "word": "tart", "stimulus": "/static/audio/wordpool/TART.wav", "conditions": [24, 1600, "a", 24000], "internal_node_id": "0.0-65.0", "trial": 2, "time_elapsed": 516783, "serialpos": 3, "key_press": -1, "wordID": 1435, "type": "PRES_AUD", "trial_index": 92}, "uniqueid": "MTK1360:3HWRJOOET69383KIQ7H3RQSST4HSEV", "dateTime": 1515866465768}, {"current_trial": 93, "trialdata": {"rt": -1000, "trial_type": "single-audio", "word": "money", "stimulus": "/static/audio/wordpool/MONEY.wav", "conditions": [24, 1600, "a", 24000], "internal_node_id": "0.0-66.0", "trial": 2, "time_elapsed": 519540, "serialpos": 4, "key_press": -1, "wordID": 907, "type": "PRES_AUD", "trial_index": 93}, "uniqueid": "MTK1360:3HWRJOOET69383KIQ7H3RQSST4HSEV", "dateTime": 1515866468525}, {"current_trial": 94, "trialdata": {"rt": -1000, "trial_type": "single-audio", "word": "guard", "stimulus": "/static/audio/wordpool/GUARD.wav", "conditions": [24, 1600, "a", 24000], "internal_node_id": "0.0-67.0", "trial": 2, "time_elapsed": 521947, "serialpos": 5, "key_press": -1, "wordID": 666, "type": "PRES_AUD", "trial_index": 94}, "uniqueid": "MTK1360:3HWRJOOET69383KIQ7H3RQSST4HSEV", "dateTime": 1515866470932}, {"current_trial": 95, "trialdata": {"rt": -1000, "trial_type": "single-audio", "word": "creature", "stimulus": "/static/audio/wordpool/CREATURE.wav", "conditions": [24, 1600, "a", 24000], "internal_node_id": "0.0-68.0", "trial": 2, "time_elapsed": 524518, "serialpos": 6, "key_press": -1, "wordID": 402, "type": "PRES_AUD", "trial_index": 95}, "uniqueid": "MTK1360:3HWRJOOET69383KIQ7H3RQSST4HSEV", "dateTime": 1515866473504}, {"current_trial": 96, "trialdata": {"rt": -1000, "trial_type": "single-audio", "word": "breast", "stimulus": "/static/audio/wordpool/BREAST.wav", "conditions": [24, 1600, "a", 24000], "internal_node_id": "0.0-69.0", "trial": 2, "time_elapsed": 527206, "serialpos": 7, "key_press": -1, "wordID": 170, "type": "PRES_AUD", "trial_index": 96}, "uniqueid": "MTK1360:3HWRJOOET69383KIQ7H3RQSST4HSEV", "dateTime": 1515866476191}, {"current_trial": 97, "trialdata": {"rt": -1000, "trial_type": "single-audio", "word": "smog", "stimulus": "/static/audio/wordpool/SMOG.wav", "conditions": [24, 1600, "a", 24000], "internal_node_id": "0.0-70.0", "trial": 2, "time_elapsed": 529971, "serialpos": 8, "key_press": -1, "wordID": 1329, "type": "PRES_AUD", "trial_index": 97}, "uniqueid": "MTK1360:3HWRJOOET69383KIQ7H3RQSST4HSEV", "dateTime": 1515866478956}, {"current_trial": 98, "trialdata": {"rt": -1000, "trial_type": "single-audio", "word": "dandruff", "stimulus": "/static/audio/wordpool/DANDRUFF.wav", "conditions": [24, 1600, "a", 24000], "internal_node_id": "0.0-71.0", "trial": 2, "time_elapsed": 532524, "serialpos": 9, "key_press": -1, "wordID": 438, "type": "PRES_AUD", "trial_index": 98}, "uniqueid": "MTK1360:3HWRJOOET69383KIQ7H3RQSST4HSEV", "dateTime": 1515866481509}, {"current_trial": 99, "trialdata": {"rt": -1000, "trial_type": "single-audio", "word": "lizard", "stimulus": "/static/audio/wordpool/LIZARD.wav", "conditions": [24, 1600, "a", 24000], "internal_node_id": "0.0-72.0", "trial": 2, "time_elapsed": 535024, "serialpos": 10, "key_press": -1, "wordID": 833, "type": "PRES_AUD", "trial_index": 99}, "uniqueid": "MTK1360:3HWRJOOET69383KIQ7H3RQSST4HSEV", "dateTime": 1515866484009}, {"current_trial": 100, "trialdata": {"rt": -1000, "trial_type": "single-audio", "word": "eyelash", "stimulus": "/static/audio/wordpool/EYELASH.wav", "conditions": [24, 1600, "a", 24000], "internal_node_id": "0.0-73.0", "trial": 2, "time_elapsed": 537598, "serialpos": 11, "key_press": -1, "wordID": 545, "type": "PRES_AUD", "trial_index": 100}, "uniqueid": "MTK1360:3HWRJOOET69383KIQ7H3RQSST4HSEV", "dateTime": 1515866486584}, {"current_trial": 101, "trialdata": {"rt": -1000, "trial_type": "single-audio", "word": "dragon", "stimulus": "/static/audio/wordpool/DRAGON.wav", "conditions": [24, 1600, "a", 24000], "internal_node_id": "0.0-74.0", "trial": 2, "time_elapsed": 540206, "serialpos": 12, "key_press": -1, "wordID": 491, "type": "PRES_AUD", "trial_index": 101}, "uniqueid": "MTK1360:3HWRJOOET69383KIQ7H3RQSST4HSEV", "dateTime": 1515866489191}, {"current_trial": 102, "trialdata": {"rt": -1000, "trial_type": "single-audio", "word": "scarecrow", "stimulus": "/static/audio/wordpool/SCARECROW.wav", "conditions": [24, 1600, "a", 24000], "internal_node_id": "0.0-75.0", "trial": 2, "time_elapsed": 542891, "serialpos": 13, "key_press": -1, "wordID": 1244, "type": "PRES_AUD", "trial_index": 102}, "uniqueid": "MTK1360:3HWRJOOET69383KIQ7H3RQSST4HSEV", "dateTime": 1515866491876}, {"current_trial": 103, "trialdata": {"rt": -1000, "trial_type": "single-audio", "word": "cabbage", "stimulus": "/static/audio/wordpool/CABBAGE.wav", "conditions": [24, 1600, "a", 24000], "internal_node_id": "0.0-76.0", "trial": 2, "time_elapsed": 545344, "serialpos": 14, "key_press": -1, "wordID": 209, "type": "PRES_AUD", "trial_index": 103}, "uniqueid": "MTK1360:3HWRJOOET69383KIQ7H3RQSST4HSEV", "dateTime": 1515866494329}, {"current_trial": 104, "trialdata": {"rt": -1000, "trial_type": "single-audio", "word": "badge", "stimulus": "/static/audio/wordpool/BADGE.wav", "conditions": [24, 1600, "a", 24000], "internal_node_id": "0.0-77.0", "trial": 2, "time_elapsed": 547861, "serialpos": 15, "key_press": -1, "wordID": 67, "type": "PRES_AUD", "trial_index": 104}, "uniqueid": "MTK1360:3HWRJOOET69383KIQ7H3RQSST4HSEV", "dateTime": 1515866496847}, {"current_trial": 105, "trialdata": {"rt": -1000, "trial_type": "single-audio", "word": "penguin", "stimulus": "/static/audio/wordpool/PENGUIN.wav", "conditions": [24, 1600, "a", 24000], "internal_node_id": "0.0-78.0", "trial": 2, "time_elapsed": 550300, "serialpos": 16, "key_press": -1, "wordID": 1043, "type": "PRES_AUD", "trial_index": 105}, "uniqueid": "MTK1360:3HWRJOOET69383KIQ7H3RQSST4HSEV", "dateTime": 1515866499285}, {"current_trial": 106, "trialdata": {"rt": -1000, "trial_type": "single-audio", "word": "arm", "stimulus": "/static/audio/wordpool/ARM.wav", "conditions": [24, 1600, "a", 24000], "internal_node_id": "0.0-79.0", "trial": 2, "time_elapsed": 553016, "serialpos": 17, "key_press": -1, "wordID": 37, "type": "PRES_AUD", "trial_index": 106}, "uniqueid": "MTK1360:3HWRJOOET69383KIQ7H3RQSST4HSEV", "dateTime": 1515866502001}, {"current_trial": 107, "trialdata": {"rt": -1000, "trial_type": "single-audio", "word": "shoulder", "stimulus": "/static/audio/wordpool/SHOULDER.wav", "conditions": [24, 1600, "a", 24000], "internal_node_id": "0.0-80.0", "trial": 2, "time_elapsed": 555627, "serialpos": 18, "key_press": -1, "wordID": 1293, "type": "PRES_AUD", "trial_index": 107}, "uniqueid": "MTK1360:3HWRJOOET69383KIQ7H3RQSST4HSEV", "dateTime": 1515866504612}, {"current_trial": 108, "trialdata": {"rt": -1000, "trial_type": "single-audio", "word": "costume", "stimulus": "/static/audio/wordpool/COSTUME.wav", "conditions": [24, 1600, "a", 24000], "internal_node_id": "0.0-81.0", "trial": 2, "time_elapsed": 558085, "serialpos": 19, "key_press": -1, "wordID": 382, "type": "PRES_AUD", "trial_index": 108}, "uniqueid": "MTK1360:3HWRJOOET69383KIQ7H3RQSST4HSEV", "dateTime": 1515866507070}, {"current_trial": 109, "trialdata": {"rt": -1000, "trial_type": "single-audio", "word": "coin", "stimulus": "/static/audio/wordpool/COIN.wav", "conditions": [24, 1600, "a", 24000], "internal_node_id": "0.0-82.0", "trial": 2, "time_elapsed": 560618, "serialpos": 20, "key_press": -1, "wordID": 342, "type": "PRES_AUD", "trial_index": 109}, "uniqueid": "MTK1360:3HWRJOOET69383KIQ7H3RQSST4HSEV", "dateTime": 1515866509603}, {"current_trial": 110, "trialdata": {"rt": -1000, "trial_type": "single-audio", "word": "slide", "stimulus": "/static/audio/wordpool/SLIDE.wav", "conditions": [24, 1600, "a", 24000], "internal_node_id": "0.0-83.0", "trial": 2, "time_elapsed": 563109, "serialpos": 21, "key_press": -1, "wordID": 1325, "type": "PRES_AUD", "trial_index": 110}, "uniqueid": "MTK1360:3HWRJOOET69383KIQ7H3RQSST4HSEV", "dateTime": 1515866512095}, {"current_trial": 111, "trialdata": {"rt": -1000, "trial_type": "single-audio", "word": "cobra", "stimulus": "/static/audio/wordpool/COBRA.wav", "conditions": [24, 1600, "a", 24000], "internal_node_id": "0.0-84.0", "trial": 2, "time_elapsed": 565699, "serialpos": 22, "key_press": -1, "wordID": 335, "type": "PRES_AUD", "trial_index": 111}, "uniqueid": "MTK1360:3HWRJOOET69383KIQ7H3RQSST4HSEV", "dateTime": 1515866514684}, {"current_trial": 112, "trialdata": {"rt": -1000, "trial_type": "single-audio", "word": "leg", "stimulus": "/static/audio/wordpool/LEG.wav", "conditions": [24, 1600, "a", 24000], "internal_node_id": "0.0-85.0", "trial": 2, "time_elapsed": 568257, "serialpos": 23, "key_press": -1, "wordID": 808, "type": "PRES_AUD", "trial_index": 112}, "uniqueid": "MTK1360:3HWRJOOET69383KIQ7H3RQSST4HSEV", "dateTime": 1515866517242}, {"current_trial": 113, "trialdata": {"rt": -1, "trial_type": "single-stim", "stimulus": "", "internal_node_id": "0.0-86.0-0.0", "time_elapsed": 569484, "key_press": -1, "type": "PRE_RECALL_DELAY", "trial_index": 113}, "uniqueid": "MTK1360:3HWRJOOET69383KIQ7H3RQSST4HSEV", "dateTime": 1515866518469}, {"current_trial": 114, "trialdata": {"rt": -1000, "trial_type": "single-audio", "stimulus": "/static/audio/400Hz.wav", "internal_node_id": "0.0-87.0", "time_elapsed": 569986, "key_press": -1, "type": "PRE_RECALL_ALERT", "trial_index": 114}, "uniqueid": "MTK1360:3HWRJOOET69383KIQ7H3RQSST4HSEV", "dateTime": 1515866518971}, {"current_trial": 115, "trialdata": {"rt": [9188, 28164, 31827, 35549, 40276, 43096, 46080, 49056, 54154, 57297], "recwords": ["costume", "mister", "subway", "police", "chart", "money", "guard", "rust", "dandruf", "lizzard"], "key_times": [5126, 5601, 6102, 6945, 7237, 7583, 8126, 9188, 25874, 26192, 26631, 27013, 27304, 27468, 28164, 28683, 29291, 29578, 30018, 30216, 30782, 31827, 33359, 33594, 33776, 34053, 34424, 34780, 35549, 36117, 36489, 37603, 38350, 38832, 39338, 39564, 40276, 40753, 41081, 41516, 42011, 42385, 43096, 43747, 44090, 44636, 45113, 45343, 46080, 46727, 47331, 47779, 48268, 49056, 51371, 51696, 52210, 52621, 52840, 53389, 53717, 54154, 54823, 55092, 55574, 55728, 55977, 56407, 56638, 57297, 58004, 58434, 58777, 59309, 59752], "trial_type": "free-recall", "conditions": [24, 1600, "a", 24000], "internal_node_id": "0.0-88.0-0.0", "key_presses": [67, 79, 83, 84, 85, 77, 69, 13, 77, 73, 83, 84, 69, 82, 13, 83, 85, 66, 87, 65, 89, 13, 80, 79, 76, 73, 67, 69, 13, 67, 71, 8, 72, 65, 82, 84, 13, 77, 79, 78, 69, 89, 13, 71, 85, 65, 82, 68, 13, 82, 85, 83, 84, 13, 68, 65, 78, 68, 82, 85, 70, 13, 76, 73, 90, 90, 65, 82, 68, 13, 69, 89, 69, 76, 65], "trial": 2, "time_elapsed": 629990, "type": "FREE_RECALL", "trial_index": 115}, "uniqueid": "MTK1360:3HWRJOOET69383KIQ7H3RQSST4HSEV", "dateTime": 1515866578980}, {"current_trial": 116, "trialdata": {"rt": 3328, "trial_type": "text", "internal_node_id": "0.0-89.0", "time_elapsed": 635324, "key_press": 32, "type": "INSTRUCTIONS", "trial_index": 116}, "uniqueid": "MTK1360:3HWRJOOET69383KIQ7H3RQSST4HSEV", "dateTime": 1515866584310}, {"current_trial": 117, "trialdata": {"rt": [6013, 8801], "trial_type": "math-distractor", "key_times": [5185, 5385, 6013, 8428, 8801], "responses": ["21", "9"], "num2": [8, 5, 6], "num3": [5, 2, 9], "conditions": [12, 1600, "a", 12000], "internal_node_id": "0.0-90.0", "key_presses": [98, 97, 13, 105, 13], "trial": 3, "time_elapsed": 649328, "type": "DISTRACTOR", "trial_index": 117, "num1": [8, 2, 9]}, "uniqueid": "MTK1360:3HWRJOOET69383KIQ7H3RQSST4HSEV", "dateTime": 1515866598314}, {"current_trial": 118, "trialdata": {"rt": -1, "trial_type": "single-stim", "stimulus": "<p id=\"stim\">10</p>", "internal_node_id": "0.0-91.0-0.0", "time_elapsed": 652331, "key_press": -1, "trial_index": 118}, "uniqueid": "MTK1360:3HWRJOOET69383KIQ7H3RQSST4HSEV", "dateTime": 1515866601316}, {"current_trial": 119, "trialdata": {"rt": -1, "trial_type": "single-stim", "stimulus": "<p id=\"stim\">9</p>", "internal_node_id": "0.0-91.0-1.0", "time_elapsed": 653332, "key_press": -1, "trial_index": 119}, "uniqueid": "MTK1360:3HWRJOOET69383KIQ7H3RQSST4HSEV", "dateTime": 1515866602317}, {"current_trial": 120, "trialdata": {"rt": -1, "trial_type": "single-stim", "stimulus": "<p id=\"stim\">8</p>", "internal_node_id": "0.0-91.0-2.0", "time_elapsed": 654335, "key_press": -1, "trial_index": 120}, "uniqueid": "MTK1360:3HWRJOOET69383KIQ7H3RQSST4HSEV", "dateTime": 1515866603320}, {"current_trial": 121, "trialdata": {"rt": -1, "trial_type": "single-stim", "stimulus": "<p id=\"stim\">7</p>", "internal_node_id": "0.0-91.0-3.0", "time_elapsed": 655337, "key_press": -1, "trial_index": 121}, "uniqueid": "MTK1360:3HWRJOOET69383KIQ7H3RQSST4HSEV", "dateTime": 1515866604322}, {"current_trial": 122, "trialdata": {"rt": -1, "trial_type": "single-stim", "stimulus": "<p id=\"stim\">6</p>", "internal_node_id": "0.0-91.0-4.0", "time_elapsed": 656340, "key_press": -1, "trial_index": 122}, "uniqueid": "MTK1360:3HWRJOOET69383KIQ7H3RQSST4HSEV", "dateTime": 1515866605325}, {"current_trial": 123, "trialdata": {"rt": -1, "trial_type": "single-stim", "stimulus": "<p id=\"stim\">5</p>", "internal_node_id": "0.0-91.0-5.0", "time_elapsed": 657343, "key_press": -1, "trial_index": 123}, "uniqueid": "MTK1360:3HWRJOOET69383KIQ7H3RQSST4HSEV", "dateTime": 1515866606328}, {"current_trial": 124, "trialdata": {"rt": -1, "trial_type": "single-stim", "stimulus": "<p id=\"stim\">4</p>", "internal_node_id": "0.0-91.0-6.0", "time_elapsed": 658345, "key_press": -1, "trial_index": 124}, "uniqueid": "MTK1360:3HWRJOOET69383KIQ7H3RQSST4HSEV", "dateTime": 1515866607330}, {"current_trial": 125, "trialdata": {"rt": -1, "trial_type": "single-stim", "stimulus": "<p id=\"stim\">3</p>", "internal_node_id": "0.0-91.0-7.0", "time_elapsed": 659346, "key_press": -1, "trial_index": 125}, "uniqueid": "MTK1360:3HWRJOOET69383KIQ7H3RQSST4HSEV", "dateTime": 1515866608331}, {"current_trial": 126, "trialdata": {"rt": -1, "trial_type": "single-stim", "stimulus": "<p id=\"stim\">2</p>", "internal_node_id": "0.0-91.0-8.0", "time_elapsed": 660347, "key_press": -1, "trial_index": 126}, "uniqueid": "MTK1360:3HWRJOOET69383KIQ7H3RQSST4HSEV", "dateTime": 1515866609332}, {"current_trial": 127, "trialdata": {"rt": -1, "trial_type": "single-stim", "stimulus": "<p id=\"stim\">1</p>", "internal_node_id": "0.0-91.0-9.0", "time_elapsed": 661349, "key_press": -1, "trial_index": 127}, "uniqueid": "MTK1360:3HWRJOOET69383KIQ7H3RQSST4HSEV", "dateTime": 1515866610334}, {"current_trial": 128, "trialdata": {"rt": -1, "trial_type": "single-stim", "stimulus": "<p id=\"stim\">+</p>", "internal_node_id": "0.0-92.0-0.0", "time_elapsed": 662853, "key_press": -1, "type": "FIXATION", "trial_index": 128}, "uniqueid": "MTK1360:3HWRJOOET69383KIQ7H3RQSST4HSEV", "dateTime": 1515866611838}, {"current_trial": 129, "trialdata": {"rt": -1000, "trial_type": "single-audio", "word": "curtain", "stimulus": "/static/audio/wordpool/CURTAIN.wav", "conditions": [12, 1600, "a", 12000], "internal_node_id": "0.0-93.0", "trial": 3, "time_elapsed": 665320, "serialpos": 0, "key_press": -1, "wordID": 426, "type": "PRES_AUD", "trial_index": 129}, "uniqueid": "MTK1360:3HWRJOOET69383KIQ7H3RQSST4HSEV", "dateTime": 1515866614305}, {"current_trial": 130, "trialdata": {"rt": -1000, "trial_type": "single-audio", "word": "zipper", "stimulus": "/static/audio/wordpool/ZIPPER.wav", "conditions": [12, 1600, "a", 12000], "internal_node_id": "0.0-94.0", "trial": 3, "time_elapsed": 668071, "serialpos": 1, "key_press": -1, "wordID": 1635, "type": "PRES_AUD", "trial_index": 130}, "uniqueid": "MTK1360:3HWRJOOET69383KIQ7H3RQSST4HSEV", "dateTime": 1515866617056}, {"current_trial": 131, "trialdata": {"rt": -1000, "trial_type": "single-audio", "word": "beaker", "stimulus": "/static/audio/wordpool/BEAKER.wav", "conditions": [12, 1600, "a", 12000], "internal_node_id": "0.0-95.0", "trial": 3, "time_elapsed": 670804, "serialpos": 2, "key_press": -1, "wordID": 103, "type": "PRES_AUD", "trial_index": 131}, "uniqueid": "MTK1360:3HWRJOOET69383KIQ7H3RQSST4HSEV", "dateTime": 1515866619789}, {"current_trial": 132, "trialdata": {"rt": -1000, "trial_type": "single-audio", "word": "spoon", "stimulus": "/static/audio/wordpool/SPOON.wav", "conditions": [12, 1600, "a", 12000], "internal_node_id": "0.0-96.0", "trial": 3, "time_elapsed": 673252, "serialpos": 3, "key_press": -1, "wordID": 1356, "type": "PRES_AUD", "trial_index": 132}, "uniqueid": "MTK1360:3HWRJOOET69383KIQ7H3RQSST4HSEV", "dateTime": 1515866622237}, {"current_trial": 133, "trialdata": {"rt": -1000, "trial_type": "single-audio", "word": "banjo", "stimulus": "/static/audio/wordpool/BANJO.wav", "conditions": [12, 1600, "a", 12000], "internal_node_id": "0.0-97.0", "trial": 3, "time_elapsed": 675895, "serialpos": 4, "key_press": -1, "wordID": 81, "type": "PRES_AUD", "trial_index": 133}, "uniqueid": "MTK1360:3HWRJOOET69383KIQ7H3RQSST4HSEV", "dateTime": 1515866624880}, {"current_trial": 134, "trialdata": {"rt": -1000, "trial_type": "single-audio", "word": "sculpture", "stimulus": "/static/audio/wordpool/SCULPTURE.wav", "conditions": [12, 1600, "a", 12000], "internal_node_id": "0.0-98.0", "trial": 3, "time_elapsed": 678481, "serialpos": 5, "key_press": -1, "wordID": 1257, "type": "PRES_AUD", "trial_index": 134}, "uniqueid": "MTK1360:3HWRJOOET69383KIQ7H3RQSST4HSEV", "dateTime": 1515866627466}, {"current_trial": 135, "trialdata": {"rt": -1000, "trial_type": "single-audio", "word": "statue", "stimulus": "/static/audio/wordpool/STATUE.wav", "conditions": [12, 1600, "a", 12000], "internal_node_id": "0.0-99.0", "trial": 3, "time_elapsed": 681098, "serialpos": 6, "key_press": -1, "wordID": 1373, "type": "PRES_AUD", "trial_index": 135}, "uniqueid": "MTK1360:3HWRJOOET69383KIQ7H3RQSST4HSEV", "dateTime": 1515866630084}, {"current_trial": 136, "trialdata": {"rt": -1000, "trial_type": "single-audio", "word": "globe", "stimulus": "/static/audio/wordpool/GLOBE.wav", "conditions": [12, 1600, "a", 12000], "internal_node_id": "0.0-100.0", "trial": 3, "time_elapsed": 683863, "serialpos": 7, "key_press": -1, "wordID": 640, "type": "PRES_AUD", "trial_index": 136}, "uniqueid": "MTK1360:3HWRJOOET69383KIQ7H3RQSST4HSEV", "dateTime": 1515866632848}, {"current_trial": 137, "trialdata": {"rt": -1000, "trial_type": "single-audio", "word": "pimple", "stimulus": "/static/audio/wordpool/PIMPLE.wav", "conditions": [12, 1600, "a", 12000], "internal_node_id": "0.0-101.0", "trial": 3, "time_elapsed": 686290, "serialpos": 8, "key_press": -1, "wordID": 1070, "type": "PRES_AUD", "trial_index": 137}, "uniqueid": "MTK1360:3HWRJOOET69383KIQ7H3RQSST4HSEV", "dateTime": 1515866635275}, {"current_trial": 138, "trialdata": {"rt": -1000, "trial_type": "single-audio", "word": "piano", "stimulus": "/static/audio/wordpool/PIANO.wav", "conditions": [12, 1600, "a", 12000], "internal_node_id": "0.0-102.0", "trial": 3, "time_elapsed": 688757, "serialpos": 9, "key_press": -1, "wordID": 1056, "type": "PRES_AUD", "trial_index": 138}, "uniqueid": "MTK1360:3HWRJOOET69383KIQ7H3RQSST4HSEV", "dateTime": 1515866637742}, {"current_trial": 139, "trialdata": {"rt": -1000, "trial_type": "single-audio", "word": "tractor", "stimulus": "/static/audio/wordpool/TRACTOR.wav", "conditions": [12, 1600, "a", 12000], "internal_node_id": "0.0-103.0", "trial": 3, "time_elapsed": 691197, "serialpos": 10, "key_press": -1, "wordID": 1492, "type": "PRES_AUD", "trial_index": 139}, "uniqueid": "MTK1360:3HWRJOOET69383KIQ7H3RQSST4HSEV", "dateTime": 1515866640182}, {"current_trial": 140, "trialdata": {"rt": -1000, "trial_type": "single-audio", "word": "waitress", "stimulus": "/static/audio/wordpool/WAITRESS.wav", "conditions": [12, 1600, "a", 12000], "internal_node_id": "0.0-104.0", "trial": 3, "time_elapsed": 693956, "serialpos": 11, "key_press": -1, "wordID": 1580, "type": "PRES_AUD", "trial_index": 140}, "uniqueid": "MTK1360:3HWRJOOET69383KIQ7H3RQSST4HSEV", "dateTime": 1515866642941}, {"current_trial": 141, "trialdata": {"rt": -1, "trial_type": "single-stim", "stimulus": "", "internal_node_id": "0.0-105.0-0.0", "time_elapsed": 695238, "key_press": -1, "type": "PRE_RECALL_DELAY", "trial_index": 141}, "uniqueid": "MTK1360:3HWRJOOET69383KIQ7H3RQSST4HSEV", "dateTime": 1515866644223}, {"current_trial": 142, "trialdata": {"rt": -1000, "trial_type": "single-audio", "stimulus": "/static/audio/400Hz.wav", "internal_node_id": "0.0-106.0", "time_elapsed": 695740, "key_press": -1, "type": "PRE_RECALL_ALERT", "trial_index": 142}, "uniqueid": "MTK1360:3HWRJOOET69383KIQ7H3RQSST4HSEV", "dateTime": 1515866644725}, {"current_trial": 143, "trialdata": {"rt": [3522, 9986, 25831, 29300, 41141, 44232, 47794, 54186, 58834], "recwords": ["piano", "tractor", "curtain", "zipper", "sculpture", "globe", "piano", "waitress", "globe"], "key_times": [1267, 1609, 2117, 2755, 3113, 3522, 6933, 7152, 7450, 7847, 8354, 8865, 9247, 9986, 15341, 15843, 16683, 16909, 20016, 22303, 22780, 23261, 23716, 24443, 24771, 25307, 25580, 25831, 26804, 27354, 27643, 27773, 28432, 28742, 29300, 35563, 35880, 36381, 36751, 37236, 38502, 39386, 39836, 40056, 40377, 40571, 41141, 41937, 42496, 42736, 43074, 43489, 44232, 45713, 45974, 46430, 46976, 47358, 47794, 50886, 51064, 51946, 52312, 52531, 52778, 52992, 53564, 54186, 56513, 57031, 57263, 57637, 58059, 58834], "trial_type": "free-recall", "conditions": [12, 1600, "a", 12000], "internal_node_id": "0.0-107.0-0.0", "key_presses": [80, 73, 65, 78, 79, 13, 84, 82, 65, 67, 84, 79, 82, 13, 80, 69, 8, 8, 80, 8, 67, 85, 82, 84, 65, 73, 78, 13, 90, 73, 80, 80, 69, 82, 13, 83, 67, 85, 76, 84, 8, 80, 84, 85, 82, 69, 13, 71, 76, 79, 66, 69, 13, 80, 73, 65, 78, 79, 13, 87, 65, 73, 84, 82, 69, 83, 83, 13, 71, 76, 79, 66, 69, 13], "trial": 3, "time_elapsed": 755745, "type": "FREE_RECALL", "trial_index": 143}, "uniqueid": "MTK1360:3HWRJOOET69383KIQ7H3RQSST4HSEV", "dateTime": 1515866704733}, {"current_trial": 144, "trialdata": {"rt": 2409, "trial_type": "text", "internal_node_id": "0.0-108.0", "time_elapsed": 760159, "key_press": 13, "type": "INSTRUCTIONS", "trial_index": 144}, "uniqueid": "MTK1360:3HWRJOOET69383KIQ7H3RQSST4HSEV", "dateTime": 1515866709144}, {"current_trial": 145, "trialdata": {"rt": [3105, 8298, 10432, 13590, 18142, 21829], "trial_type": "math-distractor", "key_times": [2540, 2752, 3105, 7625, 7917, 8298, 9830, 10109, 10432, 12833, 13590, 17725, 17907, 18142, 21316, 21501, 21829], "responses": ["10", "15", "13", "8", "23", "21"], "num2": [2, 3, 5, 2, 9, 6, 4], "num3": [2, 5, 3, 4, 5, 9, 2], "conditions": [24, 800, "a", 24000], "internal_node_id": "0.0-109.0", "key_presses": [97, 96, 13, 97, 101, 13, 97, 99, 13, 104, 13, 98, 99, 13, 98, 97, 13], "trial": 4, "time_elapsed": 786162, "type": "DISTRACTOR", "trial_index": 145, "num1": [6, 7, 5, 2, 9, 6, 1]}, "uniqueid": "MTK1360:3HWRJOOET69383KIQ7H3RQSST4HSEV", "dateTime": 1515866735147}, {"current_trial": 146, "trialdata": {"rt": -1, "trial_type": "single-stim", "stimulus": "<p id=\"stim\">10</p>", "internal_node_id": "0.0-110.0-0.0", "time_elapsed": 789165, "key_press": -1, "trial_index": 146}, "uniqueid": "MTK1360:3HWRJOOET69383KIQ7H3RQSST4HSEV", "dateTime": 1515866738150}, {"current_trial": 147, "trialdata": {"rt": -1, "trial_type": "single-stim", "stimulus": "<p id=\"stim\">9</p>", "internal_node_id": "0.0-110.0-1.0", "time_elapsed": 790167, "key_press": -1, "trial_index": 147}, "uniqueid": "MTK1360:3HWRJOOET69383KIQ7H3RQSST4HSEV", "dateTime": 1515866739152}, {"current_trial": 148, "trialdata": {"rt": -1, "trial_type": "single-stim", "stimulus": "<p id=\"stim\">8</p>", "internal_node_id": "0.0-110.0-2.0", "time_elapsed": 791170, "key_press": -1, "trial_index": 148}, "uniqueid": "MTK1360:3HWRJOOET69383KIQ7H3RQSST4HSEV", "dateTime": 1515866740155}, {"current_trial": 149, "trialdata": {"rt": -1, "trial_type": "single-stim", "stimulus": "<p id=\"stim\">7</p>", "internal_node_id": "0.0-110.0-3.0", "time_elapsed": 792171, "key_press": -1, "trial_index": 149}, "uniqueid": "MTK1360:3HWRJOOET69383KIQ7H3RQSST4HSEV", "dateTime": 1515866741156}, {"current_trial": 150, "trialdata": {"rt": -1, "trial_type": "single-stim", "stimulus": "<p id=\"stim\">6</p>", "internal_node_id": "0.0-110.0-4.0", "time_elapsed": 793173, "key_press": -1, "trial_index": 150}, "uniqueid": "MTK1360:3HWRJOOET69383KIQ7H3RQSST4HSEV", "dateTime": 1515866742158}, {"current_trial": 151, "trialdata": {"rt": -1, "trial_type": "single-stim", "stimulus": "<p id=\"stim\">5</p>", "internal_node_id": "0.0-110.0-5.0", "time_elapsed": 794173, "key_press": -1, "trial_index": 151}, "uniqueid": "MTK1360:3HWRJOOET69383KIQ7H3RQSST4HSEV", "dateTime": 1515866743158}, {"current_trial": 152, "trialdata": {"rt": -1, "trial_type": "single-stim", "stimulus": "<p id=\"stim\">4</p>", "internal_node_id": "0.0-110.0-6.0", "time_elapsed": 795174, "key_press": -1, "trial_index": 152}, "uniqueid": "MTK1360:3HWRJOOET69383KIQ7H3RQSST4HSEV", "dateTime": 1515866744160}, {"current_trial": 153, "trialdata": {"rt": -1, "trial_type": "single-stim", "stimulus": "<p id=\"stim\">3</p>", "internal_node_id": "0.0-110.0-7.0", "time_elapsed": 796176, "key_press": -1, "trial_index": 153}, "uniqueid": "MTK1360:3HWRJOOET69383KIQ7H3RQSST4HSEV", "dateTime": 1515866745161}, {"current_trial": 154, "trialdata": {"rt": -1, "trial_type": "single-stim", "stimulus": "<p id=\"stim\">2</p>", "internal_node_id": "0.0-110.0-8.0", "time_elapsed": 797177, "key_press": -1, "trial_index": 154}, "uniqueid": "MTK1360:3HWRJOOET69383KIQ7H3RQSST4HSEV", "dateTime": 1515866746162}, {"current_trial": 155, "trialdata": {"rt": -1, "trial_type": "single-stim", "stimulus": "<p id=\"stim\">1</p>", "internal_node_id": "0.0-110.0-9.0", "time_elapsed": 798177, "key_press": -1, "trial_index": 155}, "uniqueid": "MTK1360:3HWRJOOET69383KIQ7H3RQSST4HSEV", "dateTime": 1515866747163}, {"current_trial": 156, "trialdata": {"rt": -1, "trial_type": "single-stim", "stimulus": "<p id=\"stim\">+</p>", "internal_node_id": "0.0-111.0-0.0", "time_elapsed": 799680, "key_press": -1, "type": "FIXATION", "trial_index": 156}, "uniqueid": "MTK1360:3HWRJOOET69383KIQ7H3RQSST4HSEV", "dateTime": 1515866748665}, {"current_trial": 157, "trialdata": {"rt": -1000, "trial_type": "single-audio", "word": "milk", "stimulus": "/static/audio/wordpool/MILK.wav", "conditions": [24, 800, "a", 24000], "internal_node_id": "0.0-112.0", "trial": 4, "time_elapsed": 801570, "serialpos": 0, "key_press": -1, "wordID": 894, "type": "PRES_AUD", "trial_index": 157}, "uniqueid": "MTK1360:3HWRJOOET69383KIQ7H3RQSST4HSEV", "dateTime": 1515866750555}, {"current_trial": 158, "trialdata": {"rt": -1000, "trial_type": "single-audio", "word": "report", "stimulus": "/static/audio/wordpool/REPORT.wav", "conditions": [24, 800, "a", 24000], "internal_node_id": "0.0-113.0", "trial": 4, "time_elapsed": 803527, "serialpos": 1, "key_press": -1, "wordID": 1183, "type": "PRES_AUD", "trial_index": 158}, "uniqueid": "MTK1360:3HWRJOOET69383KIQ7H3RQSST4HSEV", "dateTime": 1515866752513}, {"current_trial": 159, "trialdata": {"rt": -1000, "trial_type": "single-audio", "word": "radish", "stimulus": "/static/audio/wordpool/RADISH.wav", "conditions": [24, 800, "a", 24000], "internal_node_id": "0.0-114.0", "trial": 4, "time_elapsed": 805270, "serialpos": 2, "key_press": -1, "wordID": 1157, "type": "PRES_AUD", "trial_index": 159}, "uniqueid": "MTK1360:3HWRJOOET69383KIQ7H3RQSST4HSEV", "dateTime": 1515866754256}, {"current_trial": 160, "trialdata": {"rt": -1000, "trial_type": "single-audio", "word": "maple", "stimulus": "/static/audio/wordpool/MAPLE.wav", "conditions": [24, 800, "a", 24000], "internal_node_id": "0.0-115.0", "trial": 4, "time_elapsed": 806940, "serialpos": 3, "key_press": -1, "wordID": 865, "type": "PRES_AUD", "trial_index": 160}, "uniqueid": "MTK1360:3HWRJOOET69383KIQ7H3RQSST4HSEV", "dateTime": 1515866755925}, {"current_trial": 161, "trialdata": {"rt": -1000, "trial_type": "single-audio", "word": "wasp", "stimulus": "/static/audio/wordpool/WASP.wav", "conditions": [24, 800, "a", 24000], "internal_node_id": "0.0-116.0", "trial": 4, "time_elapsed": 808639, "serialpos": 4, "key_press": -1, "wordID": 1592, "type": "PRES_AUD", "trial_index": 161}, "uniqueid": "MTK1360:3HWRJOOET69383KIQ7H3RQSST4HSEV", "dateTime": 1515866757624}, {"current_trial": 162, "trialdata": {"rt": -1000, "trial_type": "single-audio", "word": "scissors", "stimulus": "/static/audio/wordpool/SCISSORS.wav", "conditions": [24, 800, "a", 24000], "internal_node_id": "0.0-117.0", "trial": 4, "time_elapsed": 810511, "serialpos": 5, "key_press": -1, "wordID": 1249, "type": "PRES_AUD", "trial_index": 162}, "uniqueid": "MTK1360:3HWRJOOET69383KIQ7H3RQSST4HSEV", "dateTime": 1515866759496}, {"current_trial": 163, "trialdata": {"rt": -1000, "trial_type": "single-audio", "word": "icing", "stimulus": "/static/audio/wordpool/ICING.wav", "conditions": [24, 800, "a", 24000], "internal_node_id": "0.0-118.0", "trial": 4, "time_elapsed": 812476, "serialpos": 6, "key_press": -1, "wordID": 731, "type": "PRES_AUD", "trial_index": 163}, "uniqueid": "MTK1360:3HWRJOOET69383KIQ7H3RQSST4HSEV", "dateTime": 1515866761461}, {"current_trial": 164, "trialdata": {"rt": -1000, "trial_type": "single-audio", "word": "girl", "stimulus": "/static/audio/wordpool/GIRL.wav", "conditions": [24, 800, "a", 24000], "internal_node_id": "0.0-119.0", "trial": 4, "time_elapsed": 814332, "serialpos": 7, "key_press": -1, "wordID": 636, "type": "PRES_AUD", "trial_index": 164}, "uniqueid": "MTK1360:3HWRJOOET69383KIQ7H3RQSST4HSEV", "dateTime": 1515866763317}, {"current_trial": 165, "trialdata": {"rt": -1000, "trial_type": "single-audio", "word": "dorm", "stimulus": "/static/audio/wordpool/DORM.wav", "conditions": [24, 800, "a", 24000], "internal_node_id": "0.0-120.0", "trial": 4, "time_elapsed": 816235, "serialpos": 8, "key_press": -1, "wordID": 487, "type": "PRES_AUD", "trial_index": 165}, "uniqueid": "MTK1360:3HWRJOOET69383KIQ7H3RQSST4HSEV", "dateTime": 1515866765220}, {"current_trial": 166, "trialdata": {"rt": -1000, "trial_type": "single-audio", "word": "student", "stimulus": "/static/audio/wordpool/STUDENT.wav", "conditions": [24, 800, "a", 24000], "internal_node_id": "0.0-121.0", "trial": 4, "time_elapsed": 818215, "serialpos": 9, "key_press": -1, "wordID": 1394, "type": "PRES_AUD", "trial_index": 166}, "uniqueid": "MTK1360:3HWRJOOET69383KIQ7H3RQSST4HSEV", "dateTime": 1515866767200}, {"current_trial": 167, "trialdata": {"rt": -1000, "trial_type": "single-audio", "word": "honey", "stimulus": "/static/audio/wordpool/HONEY.wav", "conditions": [24, 800, "a", 24000], "internal_node_id": "0.0-122.0", "trial": 4, "time_elapsed": 819860, "serialpos": 10, "key_press": -1, "wordID": 712, "type": "PRES_AUD", "trial_index": 167}, "uniqueid": "MTK1360:3HWRJOOET69383KIQ7H3RQSST4HSEV", "dateTime": 1515866768845}, {"current_trial": 168, "trialdata": {"rt": -1000, "trial_type": "single-audio", "word": "witness", "stimulus": "/static/audio/wordpool/WITNESS.wav", "conditions": [24, 800, "a", 24000], "internal_node_id": "0.0-123.0", "trial": 4, "time_elapsed": 821757, "serialpos": 11, "key_press": -1, "wordID": 1617, "type": "PRES_AUD", "trial_index": 168}, "uniqueid": "MTK1360:3HWRJOOET69383KIQ7H3RQSST4HSEV", "dateTime": 1515866770743}, {"current_trial": 169, "trialdata": {"rt": -1000, "trial_type": "single-audio", "word": "actor", "stimulus": "/static/audio/wordpool/ACTOR.wav", "conditions": [24, 800, "a", 24000], "internal_node_id": "0.0-124.0", "trial": 4, "time_elapsed": 823692, "serialpos": 12, "key_press": -1, "wordID": 4, "type": "PRES_AUD", "trial_index": 169}, "uniqueid": "MTK1360:3HWRJOOET69383KIQ7H3RQSST4HSEV", "dateTime": 1515866772677}, {"current_trial": 170, "trialdata": {"rt": -1000, "trial_type": "single-audio", "word": "snail", "stimulus": "/static/audio/wordpool/SNAIL.wav", "conditions": [24, 800, "a", 24000], "internal_node_id": "0.0-125.0", "trial": 4, "time_elapsed": 825445, "serialpos": 13, "key_press": -1, "wordID": 1331, "type": "PRES_AUD", "trial_index": 170}, "uniqueid": "MTK1360:3HWRJOOET69383KIQ7H3RQSST4HSEV", "dateTime": 1515866774430}, {"current_trial": 171, "trialdata": {"rt": -1000, "trial_type": "single-audio", "word": "sparrow", "stimulus": "/static/audio/wordpool/SPARROW.wav", "conditions": [24, 800, "a", 24000], "internal_node_id": "0.0-126.0", "trial": 4, "time_elapsed": 827098, "serialpos": 14, "key_press": -1, "wordID": 1346, "type": "PRES_AUD", "trial_index": 171}, "uniqueid": "MTK1360:3HWRJOOET69383KIQ7H3RQSST4HSEV", "dateTime": 1515866776083}, {"current_trial": 172, "trialdata": {"rt": -1000, "trial_type": "single-audio", "word": "fiddle", "stimulus": "/static/audio/wordpool/FIDDLE.wav", "conditions": [24, 800, "a", 24000], "internal_node_id": "0.0-127.0", "trial": 4, "time_elapsed": 828757, "serialpos": 15, "key_press": -1, "wordID": 560, "type": "PRES_AUD", "trial_index": 172}, "uniqueid": "MTK1360:3HWRJOOET69383KIQ7H3RQSST4HSEV", "dateTime": 1515866777742}, {"current_trial": 173, "trialdata": {"rt": -1000, "trial_type": "single-audio", "word": "lagoon", "stimulus": "/static/audio/wordpool/LAGOON.wav", "conditions": [24, 800, "a", 24000], "internal_node_id": "0.0-128.0", "trial": 4, "time_elapsed": 830714, "serialpos": 16, "key_press": -1, "wordID": 794, "type": "PRES_AUD", "trial_index": 173}, "uniqueid": "MTK1360:3HWRJOOET69383KIQ7H3RQSST4HSEV", "dateTime": 1515866779699}, {"current_trial": 174, "trialdata": {"rt": -1000, "trial_type": "single-audio", "word": "thief", "stimulus": "/static/audio/wordpool/THIEF.wav", "conditions": [24, 800, "a", 24000], "internal_node_id": "0.0-129.0", "trial": 4, "time_elapsed": 832663, "serialpos": 17, "key_press": -1, "wordID": 1455, "type": "PRES_AUD", "trial_index": 174}, "uniqueid": "MTK1360:3HWRJOOET69383KIQ7H3RQSST4HSEV", "dateTime": 1515866781648}, {"current_trial": 175, "trialdata": {"rt": -1000, "trial_type": "single-audio", "word": "robber", "stimulus": "/static/audio/wordpool/ROBBER.wav", "conditions": [24, 800, "a", 24000], "internal_node_id": "0.0-130.0", "trial": 4, "time_elapsed": 834614, "serialpos": 18, "key_press": -1, "wordID": 1196, "type": "PRES_AUD", "trial_index": 175}, "uniqueid": "MTK1360:3HWRJOOET69383KIQ7H3RQSST4HSEV", "dateTime": 1515866783599}, {"current_trial": 176, "trialdata": {"rt": -1000, "trial_type": "single-audio", "word": "skillet", "stimulus": "/static/audio/wordpool/SKILLET.wav", "conditions": [24, 800, "a", 24000], "internal_node_id": "0.0-131.0", "trial": 4, "time_elapsed": 836485, "serialpos": 19, "key_press": -1, "wordID": 1316, "type": "PRES_AUD", "trial_index": 176}, "uniqueid": "MTK1360:3HWRJOOET69383KIQ7H3RQSST4HSEV", "dateTime": 1515866785470}, {"current_trial": 177, "trialdata": {"rt": -1000, "trial_type": "single-audio", "word": "chapel", "stimulus": "/static/audio/wordpool/CHAPEL.wav", "conditions": [24, 800, "a", 24000], "internal_node_id": "0.0-132.0", "trial": 4, "time_elapsed": 838376, "serialpos": 20, "key_press": -1, "wordID": 279, "type": "PRES_AUD", "trial_index": 177}, "uniqueid": "MTK1360:3HWRJOOET69383KIQ7H3RQSST4HSEV", "dateTime": 1515866787362}, {"current_trial": 178, "trialdata": {"rt": -1000, "trial_type": "single-audio", "word": "message", "stimulus": "/static/audio/wordpool/MESSAGE.wav", "conditions": [24, 800, "a", 24000], "internal_node_id": "0.0-133.0", "trial": 4, "time_elapsed": 840223, "serialpos": 21, "key_press": -1, "wordID": 887, "type": "PRES_AUD", "trial_index": 178}, "uniqueid": "MTK1360:3HWRJOOET69383KIQ7H3RQSST4HSEV", "dateTime": 1515866789208}, {"current_trial": 179, "trialdata": {"rt": -1000, "trial_type": "single-audio", "word": "necklace", "stimulus": "/static/audio/wordpool/NECKLACE.wav", "conditions": [24, 800, "a", 24000], "internal_node_id": "0.0-134.0", "trial": 4, "time_elapsed": 842035, "serialpos": 22, "key_press": -1, "wordID": 939, "type": "PRES_AUD", "trial_index": 179}, "uniqueid": "MTK1360:3HWRJOOET69383KIQ7H3RQSST4HSEV", "dateTime": 1515866791020}, {"current_trial": 180, "trialdata": {"rt": -1000, "trial_type": "single-audio", "word": "blender", "stimulus": "/static/audio/wordpool/BLENDER.wav", "conditions": [24, 800, "a", 24000], "internal_node_id": "0.0-135.0", "trial": 4, "time_elapsed": 843941, "serialpos": 23, "key_press": -1, "wordID": 135, "type": "PRES_AUD", "trial_index": 180}, "uniqueid": "MTK1360:3HWRJOOET69383KIQ7H3RQSST4HSEV", "dateTime": 1515866792926}, {"current_trial": 181, "trialdata": {"rt": -1, "trial_type": "single-stim", "stimulus": "", "internal_node_id": "0.0-136.0-0.0", "time_elapsed": 845266, "key_press": -1, "type": "PRE_RECALL_DELAY", "trial_index": 181}, "uniqueid": "MTK1360:3HWRJOOET69383KIQ7H3RQSST4HSEV", "dateTime": 1515866794251}, {"current_trial": 182, "trialdata": {"rt": -1000, "trial_type": "single-audio", "stimulus": "/static/audio/400Hz.wav", "internal_node_id": "0.0-137.0", "time_elapsed": 845768, "key_press": -1, "type": "PRE_RECALL_ALERT", "trial_index": 182}, "uniqueid": "MTK1360:3HWRJOOET69383KIQ7H3RQSST4HSEV", "dateTime": 1515866794754}, {"current_trial": 183, "trialdata": {"rt": [9044, 15242, 17398, 20471, 26533, 29152, 32197, 39126, 42671, 48658, 52948, 56897], "recwords": ["milk", "maple", "wasp", "icing", "student", "honey", "actor", "fiddle", "robber", "message", "necklace", "blender"], "key_times": [7560, 7886, 8147, 8286, 9044, 12895, 13393, 14042, 14226, 14686, 15242, 15942, 16149, 16318, 16952, 17398, 18289, 18712, 19138, 19447, 19759, 20471, 23646, 24121, 24392, 24775, 25009, 25512, 25892, 26533, 27076, 27441, 27789, 28241, 28579, 29152, 29743, 30111, 30593, 31094, 31535, 32197, 36451, 36889, 37295, 37436, 37936, 38469, 39126, 40297, 40762, 41208, 41327, 41751, 41934, 42671, 45794, 46280, 46535, 46669, 46890, 47517, 47853, 48658, 49388, 49880, 50231, 50733, 50973, 51530, 51912, 52251, 52948, 53752, 54156, 54702, 55199, 55648, 55913, 56127, 56897, 58247, 58868, 59318, 59460, 59949], "trial_type": "free-recall", "conditions": [24, 800, "a", 24000], "internal_node_id": "0.0-138.0-0.0", "key_presses": [77, 73, 76, 75, 13, 77, 65, 80, 76, 69, 13, 87, 65, 83, 80, 13, 73, 67, 73, 78, 71, 13, 83, 84, 85, 68, 69, 78, 84, 13, 72, 79, 78, 69, 89, 13, 65, 67, 84, 79, 82, 13, 70, 73, 68, 68, 76, 69, 13, 82, 79, 66, 66, 69, 82, 13, 77, 69, 83, 83, 65, 71, 69, 13, 78, 69, 67, 75, 76, 65, 67, 69, 13, 66, 76, 69, 78, 68, 69, 82, 13, 82, 79, 66, 66, 69], "trial": 4, "time_elapsed": 905772, "type": "FREE_RECALL", "trial_index": 183}, "uniqueid": "MTK1360:3HWRJOOET69383KIQ7H3RQSST4HSEV", "dateTime": 1515866854761}, {"current_trial": 184, "trialdata": {"rt": 2298, "trial_type": "text", "internal_node_id": "0.0-139.0", "time_elapsed": 910076, "key_press": 13, "type": "INSTRUCTIONS", "trial_index": 184}, "uniqueid": "MTK1360:3HWRJOOET69383KIQ7H3RQSST4HSEV", "dateTime": 1515866859061}, {"current_trial": 185, "trialdata": {"rt": [4487, 11806], "trial_type": "math-distractor", "key_times": [3572, 4011, 4487, 11273, 11555, 11806], "responses": ["18", "23"], "num2": [9, 5, 1], "num3": [3, 8, 5], "conditions": [12, 800, "a", 12000], "internal_node_id": "0.0-140.0", "key_presses": [97, 104, 13, 98, 99, 13], "trial": 5, "time_elapsed": 924080, "type": "DISTRACTOR", "trial_index": 185, "num1": [6, 9, 5]}, "uniqueid": "MTK1360:3HWRJOOET69383KIQ7H3RQSST4HSEV", "dateTime": 1515866873066}, {"current_trial": 186, "trialdata": {"rt": -1, "trial_type": "single-stim", "stimulus": "<p id=\"stim\">10</p>", "internal_node_id": "0.0-141.0-0.0", "time_elapsed": 927083, "key_press": -1, "trial_index": 186}, "uniqueid": "MTK1360:3HWRJOOET69383KIQ7H3RQSST4HSEV", "dateTime": 1515866876068}, {"current_trial": 187, "trialdata": {"rt": -1, "trial_type": "single-stim", "stimulus": "<p id=\"stim\">9</p>", "internal_node_id": "0.0-141.0-1.0", "time_elapsed": 928086, "key_press": -1, "trial_index": 187}, "uniqueid": "MTK1360:3HWRJOOET69383KIQ7H3RQSST4HSEV", "dateTime": 1515866877071}, {"current_trial": 188, "trialdata": {"rt": -1, "trial_type": "single-stim", "stimulus": "<p id=\"stim\">8</p>", "internal_node_id": "0.0-141.0-2.0", "time_elapsed": 929089, "key_press": -1, "trial_index": 188}, "uniqueid": "MTK1360:3HWRJOOET69383KIQ7H3RQSST4HSEV", "dateTime": 1515866878074}, {"current_trial": 189, "trialdata": {"rt": -1, "trial_type": "single-stim", "stimulus": "<p id=\"stim\">7</p>", "internal_node_id": "0.0-141.0-3.0", "time_elapsed": 930092, "key_press": -1, "trial_index": 189}, "uniqueid": "MTK1360:3HWRJOOET69383KIQ7H3RQSST4HSEV", "dateTime": 1515866879078}, {"current_trial": 190, "trialdata": {"rt": -1, "trial_type": "single-stim", "stimulus": "<p id=\"stim\">6</p>", "internal_node_id": "0.0-141.0-4.0", "time_elapsed": 931095, "key_press": -1, "trial_index": 190}, "uniqueid": "MTK1360:3HWRJOOET69383KIQ7H3RQSST4HSEV", "dateTime": 1515866880080}, {"current_trial": 191, "trialdata": {"rt": -1, "trial_type": "single-stim", "stimulus": "<p id=\"stim\">5</p>", "internal_node_id": "0.0-141.0-5.0", "time_elapsed": 932095, "key_press": -1, "trial_index": 191}, "uniqueid": "MTK1360:3HWRJOOET69383KIQ7H3RQSST4HSEV", "dateTime": 1515866881081}, {"current_trial": 192, "trialdata": {"rt": -1, "trial_type": "single-stim", "stimulus": "<p id=\"stim\">4</p>", "internal_node_id": "0.0-141.0-6.0", "time_elapsed": 933097, "key_press": -1, "trial_index": 192}, "uniqueid": "MTK1360:3HWRJOOET69383KIQ7H3RQSST4HSEV", "dateTime": 1515866882082}, {"current_trial": 193, "trialdata": {"rt": -1, "trial_type": "single-stim", "stimulus": "<p id=\"stim\">3</p>", "internal_node_id": "0.0-141.0-7.0", "time_elapsed": 934099, "key_press": -1, "trial_index": 193}, "uniqueid": "MTK1360:3HWRJOOET69383KIQ7H3RQSST4HSEV", "dateTime": 1515866883084}, {"current_trial": 194, "trialdata": {"rt": -1, "trial_type": "single-stim", "stimulus": "<p id=\"stim\">2</p>", "internal_node_id": "0.0-141.0-8.0", "time_elapsed": 935100, "key_press": -1, "trial_index": 194}, "uniqueid": "MTK1360:3HWRJOOET69383KIQ7H3RQSST4HSEV", "dateTime": 1515866884085}, {"current_trial": 195, "trialdata": {"rt": -1, "trial_type": "single-stim", "stimulus": "<p id=\"stim\">1</p>", "internal_node_id": "0.0-141.0-9.0", "time_elapsed": 936101, "key_press": -1, "trial_index": 195}, "uniqueid": "MTK1360:3HWRJOOET69383KIQ7H3RQSST4HSEV", "dateTime": 1515866885086}, {"current_trial": 196, "trialdata": {"rt": -1, "trial_type": "single-stim", "stimulus": "<p id=\"stim\">+</p>", "internal_node_id": "0.0-142.0-0.0", "time_elapsed": 937602, "key_press": -1, "type": "FIXATION", "trial_index": 196}, "uniqueid": "MTK1360:3HWRJOOET69383KIQ7H3RQSST4HSEV", "dateTime": 1515866886587}, {"current_trial": 197, "trialdata": {"rt": -1000, "trial_type": "single-audio", "word": "bacon", "stimulus": "/static/audio/wordpool/BACON.wav", "conditions": [12, 800, "a", 12000], "internal_node_id": "0.0-143.0", "trial": 5, "time_elapsed": 939475, "serialpos": 0, "key_press": -1, "wordID": 66, "type": "PRES_AUD", "trial_index": 197}, "uniqueid": "MTK1360:3HWRJOOET69383KIQ7H3RQSST4HSEV", "dateTime": 1515866888460}, {"current_trial": 198, "trialdata": {"rt": -1000, "trial_type": "single-audio", "word": "puppy", "stimulus": "/static/audio/wordpool/PUPPY.wav", "conditions": [12, 800, "a", 12000], "internal_node_id": "0.0-144.0", "trial": 5, "time_elapsed": 941420, "serialpos": 1, "key_press": -1, "wordID": 1143, "type": "PRES_AUD", "trial_index": 198}, "uniqueid": "MTK1360:3HWRJOOET69383KIQ7H3RQSST4HSEV", "dateTime": 1515866890405}, {"current_trial": 199, "trialdata": {"rt": -1000, "trial_type": "single-audio", "word": "wrench", "stimulus": "/static/audio/wordpool/WRENCH.wav", "conditions": [12, 800, "a", 12000], "internal_node_id": "0.0-145.0", "trial": 5, "time_elapsed": 943327, "serialpos": 2, "key_press": -1, "wordID": 1624, "type": "PRES_AUD", "trial_index": 199}, "uniqueid": "MTK1360:3HWRJOOET69383KIQ7H3RQSST4HSEV", "dateTime": 1515866892312}, {"current_trial": 200, "trialdata": {"rt": -1000, "trial_type": "single-audio", "word": "fruit", "stimulus": "/static/audio/wordpool/FRUIT.wav", "conditions": [12, 800, "a", 12000], "internal_node_id": "0.0-146.0", "trial": 5, "time_elapsed": 945243, "serialpos": 3, "key_press": -1, "wordID": 609, "type": "PRES_AUD", "trial_index": 200}, "uniqueid": "MTK1360:3HWRJOOET69383KIQ7H3RQSST4HSEV", "dateTime": 1515866894228}, {"current_trial": 201, "trialdata": {"rt": -1000, "trial_type": "single-audio", "word": "nightgown", "stimulus": "/static/audio/wordpool/NIGHTGOWN.wav", "conditions": [12, 800, "a", 12000], "internal_node_id": "0.0-147.0", "trial": 5, "time_elapsed": 946997, "serialpos": 4, "key_press": -1, "wordID": 952, "type": "PRES_AUD", "trial_index": 201}, "uniqueid": "MTK1360:3HWRJOOET69383KIQ7H3RQSST4HSEV", "dateTime": 1515866895982}, {"current_trial": 202, "trialdata": {"rt": -1000, "trial_type": "single-audio", "word": "tuba", "stimulus": "/static/audio/wordpool/TUBA.wav", "conditions": [12, 800, "a", 12000], "internal_node_id": "0.0-148.0", "trial": 5, "time_elapsed": 948802, "serialpos": 5, "key_press": -1, "wordID": 1514, "type": "PRES_AUD", "trial_index": 202}, "uniqueid": "MTK1360:3HWRJOOET69383KIQ7H3RQSST4HSEV", "dateTime": 1515866897787}, {"current_trial": 203, "trialdata": {"rt": -1000, "trial_type": "single-audio", "word": "trombone", "stimulus": "/static/audio/wordpool/TROMBONE.wav", "conditions": [12, 800, "a", 12000], "internal_node_id": "0.0-149.0", "trial": 5, "time_elapsed": 950755, "serialpos": 6, "key_press": -1, "wordID": 1507, "type": "PRES_AUD", "trial_index": 203}, "uniqueid": "MTK1360:3HWRJOOET69383KIQ7H3RQSST4HSEV", "dateTime": 1515866899740}, {"current_trial": 204, "trialdata": {"rt": -1000, "trial_type": "single-audio", "word": "paddle", "stimulus": "/static/audio/wordpool/PADDLE.wav", "conditions": [12, 800, "a", 12000], "internal_node_id": "0.0-150.0", "trial": 5, "time_elapsed": 952586, "serialpos": 7, "key_press": -1, "wordID": 999, "type": "PRES_AUD", "trial_index": 204}, "uniqueid": "MTK1360:3HWRJOOET69383KIQ7H3RQSST4HSEV", "dateTime": 1515866901571}, {"current_trial": 205, "trialdata": {"rt": -1000, "trial_type": "single-audio", "word": "brook", "stimulus": "/static/audio/wordpool/BROOK.wav", "conditions": [12, 800, "a", 12000], "internal_node_id": "0.0-151.0", "trial": 5, "time_elapsed": 954567, "serialpos": 8, "key_press": -1, "wordID": 176, "type": "PRES_AUD", "trial_index": 205}, "uniqueid": "MTK1360:3HWRJOOET69383KIQ7H3RQSST4HSEV", "dateTime": 1515866903552}, {"current_trial": 206, "trialdata": {"rt": -1000, "trial_type": "single-audio", "word": "tunnel", "stimulus": "/static/audio/wordpool/TUNNEL.wav", "conditions": [12, 800, "a", 12000], "internal_node_id": "0.0-152.0", "trial": 5, "time_elapsed": 956182, "serialpos": 9, "key_press": -1, "wordID": 1518, "type": "PRES_AUD", "trial_index": 206}, "uniqueid": "MTK1360:3HWRJOOET69383KIQ7H3RQSST4HSEV", "dateTime": 1515866905167}, {"current_trial": 207, "trialdata": {"rt": -1000, "trial_type": "single-audio", "word": "baby", "stimulus": "/static/audio/wordpool/BABY.wav", "conditions": [12, 800, "a", 12000], "internal_node_id": "0.0-153.0", "trial": 5, "time_elapsed": 957932, "serialpos": 10, "key_press": -1, "wordID": 63, "type": "PRES_AUD", "trial_index": 207}, "uniqueid": "MTK1360:3HWRJOOET69383KIQ7H3RQSST4HSEV", "dateTime": 1515866906917}, {"current_trial": 208, "trialdata": {"rt": -1000, "trial_type": "single-audio", "word": "truck", "stimulus": "/static/audio/wordpool/TRUCK.wav", "conditions": [12, 800, "a", 12000], "internal_node_id": "0.0-154.0", "trial": 5, "time_elapsed": 959915, "serialpos": 11, "key_press": -1, "wordID": 1511, "type": "PRES_AUD", "trial_index": 208}, "uniqueid": "MTK1360:3HWRJOOET69383KIQ7H3RQSST4HSEV", "dateTime": 1515866908900}, {"current_trial": 209, "trialdata": {"rt": -1, "trial_type": "single-stim", "stimulus": "", "internal_node_id": "0.0-155.0-0.0", "time_elapsed": 961167, "key_press": -1, "type": "PRE_RECALL_DELAY", "trial_index": 209}, "uniqueid": "MTK1360:3HWRJOOET69383KIQ7H3RQSST4HSEV", "dateTime": 1515866910153}, {"current_trial": 210, "trialdata": {"rt": -1000, "trial_type": "single-audio", "stimulus": "/static/audio/400Hz.wav", "internal_node_id": "0.0-156.0", "time_elapsed": 961669, "key_press": -1, "type": "PRE_RECALL_ALERT", "trial_index": 210}, "uniqueid": "MTK1360:3HWRJOOET69383KIQ7H3RQSST4HSEV", "dateTime": 1515866910654}, {"current_trial": 211, "trialdata": {"rt": [9094, 13853, 17742, 21709, 25362, 27974, 31348, 37417, 39733, 48508, 53395, 56536], "recwords": ["beakon", "fruit", "nightgown", "trombone", "paddle", "baby", "tunnel", "beakon", "puppy", "tuba", "paddle", "baby"], "key_times": [6683, 7124, 7362, 7953, 8194, 8475, 9094, 12092, 12313, 12707, 12907, 13214, 13853, 14317, 14641, 14994, 15179, 15457, 15671, 16038, 16551, 17161, 17742, 18375, 18578, 19063, 19381, 19926, 20285, 20600, 21016, 21709, 22639, 23225, 23543, 23683, 24210, 24716, 25362, 25966, 26437, 26957, 27314, 27974, 28615, 28948, 29307, 29470, 29907, 30634, 31348, 35329, 35762, 36001, 36622, 36863, 37129, 37417, 38185, 38585, 38894, 39030, 39380, 39733, 46802, 47117, 47434, 47833, 48508, 50283, 50867, 51229, 51399, 52050, 52618, 53395, 54628, 55108, 55622, 55966, 56536], "trial_type": "free-recall", "conditions": [12, 800, "a", 12000], "internal_node_id": "0.0-157.0-0.0", "key_presses": [66, 69, 65, 75, 79, 78, 13, 70, 82, 85, 73, 84, 13, 78, 73, 71, 72, 84, 71, 79, 87, 78, 13, 84, 82, 79, 77, 66, 79, 78, 69, 13, 80, 65, 68, 68, 76, 69, 13, 66, 65, 66, 89, 13, 84, 85, 78, 78, 69, 76, 13, 66, 69, 65, 75, 79, 78, 13, 80, 85, 80, 80, 89, 13, 84, 85, 66, 65, 13, 80, 65, 68, 68, 76, 69, 13, 66, 65, 66, 89, 13], "trial": 5, "time_elapsed": 1021671, "type": "FREE_RECALL", "trial_index": 211}, "uniqueid": "MTK1360:3HWRJOOET69383KIQ7H3RQSST4HSEV", "dateTime": 1515866970662}, {"current_trial": 212, "trialdata": {"rt": 5824, "trial_type": "text", "internal_node_id": "0.0-158.0", "time_elapsed": 1029502, "key_press": 32, "type": "INSTRUCTIONS", "trial_index": 212}, "uniqueid": "MTK1360:3HWRJOOET69383KIQ7H3RQSST4HSEV", "dateTime": 1515866978488}, {"current_trial": 213, "trialdata": {"rt": [6997, 10216, 12598, 16664, 22441], "trial_type": "math-distractor", "key_times": [6326, 6499, 6997, 9643, 9885, 10216, 11843, 12204, 12598, 16099, 16343, 16664, 22008, 22165, 22441], "responses": ["22", "20", "18", "14", "22"], "num2": [7, 9, 9, 2, 7, 7], "num3": [7, 2, 8, 7, 6, 1], "conditions": [12, 800, "a", 24000], "internal_node_id": "0.0-159.0", "key_presses": [98, 98, 13, 98, 96, 13, 97, 104, 13, 97, 100, 13, 98, 98, 13], "trial": 6, "time_elapsed": 1055507, "type": "DISTRACTOR", "trial_index": 213, "num1": [8, 9, 1, 5, 9, 1]}, "uniqueid": "MTK1360:3HWRJOOET69383KIQ7H3RQSST4HSEV", "dateTime": 1515867004492}, {"current_trial": 214, "trialdata": {"rt": -1, "trial_type": "single-stim", "stimulus": "<p id=\"stim\">10</p>", "internal_node_id": "0.0-160.0-0.0", "time_elapsed": 1058512, "key_press": -1, "trial_index": 214}, "uniqueid": "MTK1360:3HWRJOOET69383KIQ7H3RQSST4HSEV", "dateTime": 1515867007497}, {"current_trial": 215, "trialdata": {"rt": -1, "trial_type": "single-stim", "stimulus": "<p id=\"stim\">9</p>", "internal_node_id": "0.0-160.0-1.0", "time_elapsed": 1059514, "key_press": -1, "trial_index": 215}, "uniqueid": "MTK1360:3HWRJOOET69383KIQ7H3RQSST4HSEV", "dateTime": 1515867008499}, {"current_trial": 216, "trialdata": {"rt": -1, "trial_type": "single-stim", "stimulus": "<p id=\"stim\">8</p>", "internal_node_id": "0.0-160.0-2.0", "time_elapsed": 1060516, "key_press": -1, "trial_index": 216}, "uniqueid": "MTK1360:3HWRJOOET69383KIQ7H3RQSST4HSEV", "dateTime": 1515867009501}, {"current_trial": 217, "trialdata": {"rt": -1, "trial_type": "single-stim", "stimulus": "<p id=\"stim\">7</p>", "internal_node_id": "0.0-160.0-3.0", "time_elapsed": 1061518, "key_press": -1, "trial_index": 217}, "uniqueid": "MTK1360:3HWRJOOET69383KIQ7H3RQSST4HSEV", "dateTime": 1515867010503}, {"current_trial": 218, "trialdata": {"rt": -1, "trial_type": "single-stim", "stimulus": "<p id=\"stim\">6</p>", "internal_node_id": "0.0-160.0-4.0", "time_elapsed": 1062520, "key_press": -1, "trial_index": 218}, "uniqueid": "MTK1360:3HWRJOOET69383KIQ7H3RQSST4HSEV", "dateTime": 1515867011505}, {"current_trial": 219, "trialdata": {"rt": -1, "trial_type": "single-stim", "stimulus": "<p id=\"stim\">5</p>", "internal_node_id": "0.0-160.0-5.0", "time_elapsed": 1063523, "key_press": -1, "trial_index": 219}, "uniqueid": "MTK1360:3HWRJOOET69383KIQ7H3RQSST4HSEV", "dateTime": 1515867012508}, {"current_trial": 220, "trialdata": {"rt": -1, "trial_type": "single-stim", "stimulus": "<p id=\"stim\">4</p>", "internal_node_id": "0.0-160.0-6.0", "time_elapsed": 1064525, "key_press": -1, "trial_index": 220}, "uniqueid": "MTK1360:3HWRJOOET69383KIQ7H3RQSST4HSEV", "dateTime": 1515867013510}, {"current_trial": 221, "trialdata": {"rt": -1, "trial_type": "single-stim", "stimulus": "<p id=\"stim\">3</p>", "internal_node_id": "0.0-160.0-7.0", "time_elapsed": 1065526, "key_press": -1, "trial_index": 221}, "uniqueid": "MTK1360:3HWRJOOET69383KIQ7H3RQSST4HSEV", "dateTime": 1515867014511}, {"current_trial": 222, "trialdata": {"rt": -1, "trial_type": "single-stim", "stimulus": "<p id=\"stim\">2</p>", "internal_node_id": "0.0-160.0-8.0", "time_elapsed": 1066528, "key_press": -1, "trial_index": 222}, "uniqueid": "MTK1360:3HWRJOOET69383KIQ7H3RQSST4HSEV", "dateTime": 1515867015513}, {"current_trial": 223, "trialdata": {"rt": -1, "trial_type": "single-stim", "stimulus": "<p id=\"stim\">1</p>", "internal_node_id": "0.0-160.0-9.0", "time_elapsed": 1067529, "key_press": -1, "trial_index": 223}, "uniqueid": "MTK1360:3HWRJOOET69383KIQ7H3RQSST4HSEV", "dateTime": 1515867016514}, {"current_trial": 224, "trialdata": {"rt": -1, "trial_type": "single-stim", "stimulus": "<p id=\"stim\">+</p>", "internal_node_id": "0.0-161.0-0.0", "time_elapsed": 1069031, "key_press": -1, "type": "FIXATION", "trial_index": 224}, "uniqueid": "MTK1360:3HWRJOOET69383KIQ7H3RQSST4HSEV", "dateTime": 1515867018016}, {"current_trial": 225, "trialdata": {"rt": -1000, "trial_type": "single-audio", "word": "nurse", "stimulus": "/static/audio/wordpool/NURSE.wav", "conditions": [12, 800, "a", 24000], "internal_node_id": "0.0-162.0", "trial": 6, "time_elapsed": 1070976, "serialpos": 0, "key_press": -1, "wordID": 962, "type": "PRES_AUD", "trial_index": 225}, "uniqueid": "MTK1360:3HWRJOOET69383KIQ7H3RQSST4HSEV", "dateTime": 1515867019961}, {"current_trial": 226, "trialdata": {"rt": -1000, "trial_type": "single-audio", "word": "climber", "stimulus": "/static/audio/wordpool/CLIMBER.wav", "conditions": [12, 800, "a", 24000], "internal_node_id": "0.0-163.0", "trial": 6, "time_elapsed": 1072711, "serialpos": 1, "key_press": -1, "wordID": 322, "type": "PRES_AUD", "trial_index": 226}, "uniqueid": "MTK1360:3HWRJOOET69383KIQ7H3RQSST4HSEV", "dateTime": 1515867021697}, {"current_trial": 227, "trialdata": {"rt": -1000, "trial_type": "single-audio", "word": "fox", "stimulus": "/static/audio/wordpool/FOX.wav", "conditions": [12, 800, "a", 24000], "internal_node_id": "0.0-164.0", "trial": 6, "time_elapsed": 1074486, "serialpos": 2, "key_press": -1, "wordID": 597, "type": "PRES_AUD", "trial_index": 227}, "uniqueid": "MTK1360:3HWRJOOET69383KIQ7H3RQSST4HSEV", "dateTime": 1515867023471}, {"current_trial": 228, "trialdata": {"rt": -1000, "trial_type": "single-audio", "word": "carriage", "stimulus": "/static/audio/wordpool/CARRIAGE.wav", "conditions": [12, 800, "a", 24000], "internal_node_id": "0.0-165.0", "trial": 6, "time_elapsed": 1076343, "serialpos": 3, "key_press": -1, "wordID": 247, "type": "PRES_AUD", "trial_index": 228}, "uniqueid": "MTK1360:3HWRJOOET69383KIQ7H3RQSST4HSEV", "dateTime": 1515867025328}, {"current_trial": 229, "trialdata": {"rt": -1000, "trial_type": "single-audio", "word": "camel", "stimulus": "/static/audio/wordpool/CAMEL.wav", "conditions": [12, 800, "a", 24000], "internal_node_id": "0.0-166.0", "trial": 6, "time_elapsed": 1077998, "serialpos": 4, "key_press": -1, "wordID": 222, "type": "PRES_AUD", "trial_index": 229}, "uniqueid": "MTK1360:3HWRJOOET69383KIQ7H3RQSST4HSEV", "dateTime": 1515867026983}, {"current_trial": 230, "trialdata": {"rt": -1000, "trial_type": "single-audio", "word": "crater", "stimulus": "/static/audio/wordpool/CRATER.wav", "conditions": [12, 800, "a", 24000], "internal_node_id": "0.0-167.0", "trial": 6, "time_elapsed": 1079630, "serialpos": 5, "key_press": -1, "wordID": 399, "type": "PRES_AUD", "trial_index": 230}, "uniqueid": "MTK1360:3HWRJOOET69383KIQ7H3RQSST4HSEV", "dateTime": 1515867028615}, {"current_trial": 231, "trialdata": {"rt": -1000, "trial_type": "single-audio", "word": "perfume", "stimulus": "/static/audio/wordpool/PERFUME.wav", "conditions": [12, 800, "a", 24000], "internal_node_id": "0.0-168.0", "trial": 6, "time_elapsed": 1081610, "serialpos": 6, "key_press": -1, "wordID": 1048, "type": "PRES_AUD", "trial_index": 231}, "uniqueid": "MTK1360:3HWRJOOET69383KIQ7H3RQSST4HSEV", "dateTime": 1515867030595}, {"current_trial": 232, "trialdata": {"rt": -1000, "trial_type": "single-audio", "word": "marrow", "stimulus": "/static/audio/wordpool/MARROW.wav", "conditions": [12, 800, "a", 24000], "internal_node_id": "0.0-169.0", "trial": 6, "time_elapsed": 1083519, "serialpos": 7, "key_press": -1, "wordID": 871, "type": "PRES_AUD", "trial_index": 232}, "uniqueid": "MTK1360:3HWRJOOET69383KIQ7H3RQSST4HSEV", "dateTime": 1515867032504}, {"current_trial": 233, "trialdata": {"rt": -1000, "trial_type": "single-audio", "word": "pecan", "stimulus": "/static/audio/wordpool/PECAN.wav", "conditions": [12, 800, "a", 24000], "internal_node_id": "0.0-170.0", "trial": 6, "time_elapsed": 1085236, "serialpos": 8, "key_press": -1, "wordID": 1035, "type": "PRES_AUD", "trial_index": 233}, "uniqueid": "MTK1360:3HWRJOOET69383KIQ7H3RQSST4HSEV", "dateTime": 1515867034221}, {"current_trial": 234, "trialdata": {"rt": -1000, "trial_type": "single-audio", "word": "citrus", "stimulus": "/static/audio/wordpool/CITRUS.wav", "conditions": [12, 800, "a", 24000], "internal_node_id": "0.0-171.0", "trial": 6, "time_elapsed": 1087206, "serialpos": 9, "key_press": -1, "wordID": 312, "type": "PRES_AUD", "trial_index": 234}, "uniqueid": "MTK1360:3HWRJOOET69383KIQ7H3RQSST4HSEV", "dateTime": 1515867036192}, {"current_trial": 235, "trialdata": {"rt": -1000, "trial_type": "single-audio", "word": "robin", "stimulus": "/static/audio/wordpool/ROBIN.wav", "conditions": [12, 800, "a", 24000], "internal_node_id": "0.0-172.0", "trial": 6, "time_elapsed": 1089107, "serialpos": 10, "key_press": -1, "wordID": 1198, "type": "PRES_AUD", "trial_index": 235}, "uniqueid": "MTK1360:3HWRJOOET69383KIQ7H3RQSST4HSEV", "dateTime": 1515867038092}, {"current_trial": 236, "trialdata": {"rt": -1000, "trial_type": "single-audio", "word": "pliers", "stimulus": "/static/audio/wordpool/PLIERS.wav", "conditions": [12, 800, "a", 24000], "internal_node_id": "0.0-173.0", "trial": 6, "time_elapsed": 1091067, "serialpos": 11, "key_press": -1, "wordID": 1088, "type": "PRES_AUD", "trial_index": 236}, "uniqueid": "MTK1360:3HWRJOOET69383KIQ7H3RQSST4HSEV", "dateTime": 1515867040052}, {"current_trial": 237, "trialdata": {"rt": -1, "trial_type": "single-stim", "stimulus": "", "internal_node_id": "0.0-174.0-0.0", "time_elapsed": 1092430, "key_press": -1, "type": "PRE_RECALL_DELAY", "trial_index": 237}, "uniqueid": "MTK1360:3HWRJOOET69383KIQ7H3RQSST4HSEV", "dateTime": 1515867041415}, {"current_trial": 238, "trialdata": {"rt": -1000, "trial_type": "single-audio", "stimulus": "/static/audio/400Hz.wav", "internal_node_id": "0.0-175.0", "time_elapsed": 1092930, "key_press": -1, "type": "PRE_RECALL_ALERT", "trial_index": 238}, "uniqueid": "MTK1360:3HWRJOOET69383KIQ7H3RQSST4HSEV", "dateTime": 1515867041916}, {"current_trial": 239, "trialdata": {"rt": [10744, 14220, 17757, 21967, 25162, 29057, 32913, 44601, 51801, 56104], "recwords": ["climber", "carrot", "cammel", "purfume", "pecon", "robber", "citrus", "carrot", "marrow", "pecan"], "key_times": [6659, 7141, 7442, 7714, 8036, 8482, 8663, 9539, 10107, 10744, 11543, 11937, 12416, 12562, 13139, 13524, 14220, 15091, 15472, 16072, 16218, 16669, 17289, 17757, 18441, 19021, 19379, 19941, 20417, 20763, 21272, 21967, 22499, 23059, 23407, 24068, 24489, 25162, 26577, 27053, 27502, 27656, 28075, 28315, 29057, 30063, 30583, 31006, 31274, 31668, 32067, 32913, 41869, 42260, 42652, 42812, 43393, 43805, 44601, 48466, 49175, 49851, 49993, 50521, 51075, 51801, 53433, 53973, 54260, 54626, 55176, 56104], "trial_type": "free-recall", "conditions": [12, 800, "a", 24000], "internal_node_id": "0.0-176.0-0.0", "key_presses": [67, 76, 73, 77, 66, 69, 69, 8, 82, 13, 67, 65, 82, 82, 79, 84, 13, 67, 65, 77, 77, 69, 76, 13, 80, 85, 82, 70, 85, 77, 69, 13, 80, 69, 67, 79, 78, 13, 82, 79, 66, 66, 69, 82, 13, 67, 73, 84, 82, 85, 83, 13, 67, 65, 82, 82, 79, 84, 13, 77, 65, 82, 82, 79, 87, 13, 80, 69, 67, 65, 78, 13], "trial": 6, "time_elapsed": 1152933, "type": "FREE_RECALL", "trial_index": 239}, "uniqueid": "MTK1360:3HWRJOOET69383KIQ7H3RQSST4HSEV", "dateTime": 1515867101924}, {"current_trial": 240, "trialdata": {"rt": 3766, "trial_type": "text", "internal_node_id": "0.0-177.0", "time_elapsed": 1158706, "key_press": 32, "type": "INSTRUCTIONS", "trial_index": 240}, "uniqueid": "MTK1360:3HWRJOOET69383KIQ7H3RQSST4HSEV", "dateTime": 1515867107692}, {"current_trial": 241, "trialdata": {"rt": [7714], "trial_type": "math-distractor", "key_times": [4195, 4438, 6389, 7038, 7714], "responses": ["11"], "num2": [4, 8], "num3": [3, 1], "conditions": [24, 1600, "a", 12000], "internal_node_id": "0.0-178.0", "key_presses": [97, 98, 8, 97, 13], "trial": 7, "time_elapsed": 1172711, "type": "DISTRACTOR", "trial_index": 241, "num1": [4, 7]}, "uniqueid": "MTK1360:3HWRJOOET69383KIQ7H3RQSST4HSEV", "dateTime": 1515867121696}, {"current_trial": 242, "trialdata": {"rt": -1, "trial_type": "single-stim", "stimulus": "<p id=\"stim\">10</p>", "internal_node_id": "0.0-179.0-0.0", "time_elapsed": 1175712, "key_press": -1, "trial_index": 242}, "uniqueid": "MTK1360:3HWRJOOET69383KIQ7H3RQSST4HSEV", "dateTime": 1515867124698}, {"current_trial": 243, "trialdata": {"rt": -1, "trial_type": "single-stim", "stimulus": "<p id=\"stim\">9</p>", "internal_node_id": "0.0-179.0-1.0", "time_elapsed": 1176713, "key_press": -1, "trial_index": 243}, "uniqueid": "MTK1360:3HWRJOOET69383KIQ7H3RQSST4HSEV", "dateTime": 1515867125698}, {"current_trial": 244, "trialdata": {"rt": -1, "trial_type": "single-stim", "stimulus": "<p id=\"stim\">8</p>", "internal_node_id": "0.0-179.0-2.0", "time_elapsed": 1177716, "key_press": -1, "trial_index": 244}, "uniqueid": "MTK1360:3HWRJOOET69383KIQ7H3RQSST4HSEV", "dateTime": 1515867126701}, {"current_trial": 245, "trialdata": {"rt": -1, "trial_type": "single-stim", "stimulus": "<p id=\"stim\">7</p>", "internal_node_id": "0.0-179.0-3.0", "time_elapsed": 1178717, "key_press": -1, "trial_index": 245}, "uniqueid": "MTK1360:3HWRJOOET69383KIQ7H3RQSST4HSEV", "dateTime": 1515867127703}, {"current_trial": 246, "trialdata": {"rt": -1, "trial_type": "single-stim", "stimulus": "<p id=\"stim\">6</p>", "internal_node_id": "0.0-179.0-4.0", "time_elapsed": 1179718, "key_press": -1, "trial_index": 246}, "uniqueid": "MTK1360:3HWRJOOET69383KIQ7H3RQSST4HSEV", "dateTime": 1515867128704}, {"current_trial": 247, "trialdata": {"rt": -1, "trial_type": "single-stim", "stimulus": "<p id=\"stim\">5</p>", "internal_node_id": "0.0-179.0-5.0", "time_elapsed": 1180720, "key_press": -1, "trial_index": 247}, "uniqueid": "MTK1360:3HWRJOOET69383KIQ7H3RQSST4HSEV", "dateTime": 1515867129706}, {"current_trial": 248, "trialdata": {"rt": -1, "trial_type": "single-stim", "stimulus": "<p id=\"stim\">4</p>", "internal_node_id": "0.0-179.0-6.0", "time_elapsed": 1181721, "key_press": -1, "trial_index": 248}, "uniqueid": "MTK1360:3HWRJOOET69383KIQ7H3RQSST4HSEV", "dateTime": 1515867130706}, {"current_trial": 249, "trialdata": {"rt": -1, "trial_type": "single-stim", "stimulus": "<p id=\"stim\">3</p>", "internal_node_id": "0.0-179.0-7.0", "time_elapsed": 1182723, "key_press": -1, "trial_index": 249}, "uniqueid": "MTK1360:3HWRJOOET69383KIQ7H3RQSST4HSEV", "dateTime": 1515867131708}, {"current_trial": 250, "trialdata": {"rt": -1, "trial_type": "single-stim", "stimulus": "<p id=\"stim\">2</p>", "internal_node_id": "0.0-179.0-8.0", "time_elapsed": 1183724, "key_press": -1, "trial_index": 250}, "uniqueid": "MTK1360:3HWRJO