{"condition": 0, "counterbalance": 974, "assignmentId": "3DY4FPOOA2V89Z6R68681KBI5TMVRR", "workerId": "MTK1281", "hitId": "3DWGDA5POFBITA9GICMR69XLMCDV1O", "currenttrial": 626, "bonus": 0, "data": [{"uniqueid": "MTK1281:3DY4FPOOA2V89Z6R68681KBI5TMVRR", "current_trial": 0, "dateTime": 1513536062883, "trialdata": {"rt": 2193, "key_press": 32, "type": "INSTRUCTIONS", "trial_type": "text", "trial_index": 0, "time_elapsed": 2196, "internal_node_id": "0.0-0.0"}}, {"uniqueid": "MTK1281:3DY4FPOOA2V89Z6R68681KBI5TMVRR", "current_trial": 1, "dateTime": 1513536079549, "trialdata": {"rt": 16663, "key_press": 32, "type": "INSTRUCTIONS", "trial_type": "text", "trial_index": 1, "time_elapsed": 18864, "internal_node_id": "0.0-1.0"}}, {"uniqueid": "MTK1281:3DY4FPOOA2V89Z6R68681KBI5TMVRR", "current_trial": 2, "dateTime": 1513536085461, "trialdata": {"rt": [5893], "responses": ["ocean"], "type": "AUDIO_TEST", "trial_type": "audio-test", "trial_index": 2, "time_elapsed": 24776, "internal_node_id": "0.0-2.0"}}, {"uniqueid": "MTK1281:3DY4FPOOA2V89Z6R68681KBI5TMVRR", "current_trial": 3, "dateTime": 1513536090838, "trialdata": {"rt": [5372], "responses": ["crystal"], "type": "AUDIO_TEST", "trial_type": "audio-test", "trial_index": 3, "time_elapsed": 30153, "internal_node_id": "0.0-3.0"}}, {"uniqueid": "MTK1281:3DY4FPOOA2V89Z6R68681KBI5TMVRR", "current_trial": 4, "dateTime": 1513536094812, "trialdata": {"rt": [3972], "responses": ["spice"], "type": "AUDIO_TEST", "trial_type": "audio-test", "trial_index": 4, "time_elapsed": 34127, "internal_node_id": "0.0-4.0"}}, {"uniqueid": "MTK1281:3DY4FPOOA2V89Z6R68681KBI5TMVRR", "current_trial": 5, "dateTime": 1513536112132, "trialdata": {"rt": 16569, "responses": "{\"Q0\":\"1am\",\"Q1\":\"8am\",\"Q2\":\"4\"}", "type": "SLEEP_SURVEY", "trial_type": "survey-text", "trial_index": 5, "time_elapsed": 51447, "internal_node_id": "0.0-5.0"}}, {"uniqueid": "MTK1281:3DY4FPOOA2V89Z6R68681KBI5TMVRR", "current_trial": 6, "dateTime": 1513536143421, "trialdata": {"rt": 30286, "key_press": 32, "type": "INSTRUCTIONS", "trial_type": "text", "trial_index": 6, "time_elapsed": 82736, "internal_node_id": "0.0-6.0"}}, {"uniqueid": "MTK1281:3DY4FPOOA2V89Z6R68681KBI5TMVRR", "current_trial": 7, "dateTime": 1513536156220, "trialdata": {"rt": 12296, "key_press": 32, "type": "INSTRUCTIONS", "trial_type": "text", "trial_index": 7, "time_elapsed": 95535, "internal_node_id": "0.0-7.0"}}, {"uniqueid": "MTK1281:3DY4FPOOA2V89Z6R68681KBI5TMVRR", "current_trial": 8, "dateTime": 1513536160091, "trialdata": {"rt": 3369, "key_press": 32, "type": "INSTRUCTIONS", "trial_type": "text", "trial_index": 8, "time_elapsed": 99406, "internal_node_id": "0.0-8.0"}}, {"uniqueid": "MTK1281:3DY4FPOOA2V89Z6R68681KBI5TMVRR", "current_trial": 9, "dateTime": 1513536179103, "trialdata": {"rt": [2910, 5479, 9230, 11326, 14503, 17815], "responses": ["12", "12", "24", "14", "21", "9"], "num1": [2, 2, 7, 7, 6, 3, 8], "num2": [9, 7, 9, 3, 7, 1, 3], "num3": [1, 3, 8, 4, 8, 5, 4], "type": "DISTRACTOR", "conditions": [18, 1200, "a", 18000], "trial": 0, "trial_type": "math-distractor", "trial_index": 9, "time_elapsed": 118418, "internal_node_id": "0.0-9.0"}}, {"uniqueid": "MTK1281:3DY4FPOOA2V89Z6R68681KBI5TMVRR", "current_trial": 10, "dateTime": 1513536182106, "trialdata": {"rt": -1, "stimulus": "<p id=\"stim\">10</p>", "key_press": -1, "trial_type": "single-stim", "trial_index": 10, "time_elapsed": 121421, "internal_node_id": "0.0-10.0-0.0"}}, {"uniqueid": "MTK1281:3DY4FPOOA2V89Z6R68681KBI5TMVRR", "current_trial": 11, "dateTime": 1513536183108, "trialdata": {"rt": -1, "stimulus": "<p id=\"stim\">9</p>", "key_press": -1, "trial_type": "single-stim", "trial_index": 11, "time_elapsed": 122423, "internal_node_id": "0.0-10.0-1.0"}}, {"uniqueid": "MTK1281:3DY4FPOOA2V89Z6R68681KBI5TMVRR", "current_trial": 12, "dateTime": 1513536184109, "trialdata": {"rt": -1, "stimulus": "<p id=\"stim\">8</p>", "key_press": -1, "trial_type": "single-stim", "trial_index": 12, "time_elapsed": 123424, "internal_node_id": "0.0-10.0-2.0"}}, {"uniqueid": "MTK1281:3DY4FPOOA2V89Z6R68681KBI5TMVRR", "current_trial": 13, "dateTime": 1513536185111, "trialdata": {"rt": -1, "stimulus": "<p id=\"stim\">7</p>", "key_press": -1, "trial_type": "single-stim", "trial_index": 13, "time_elapsed": 124426, "internal_node_id": "0.0-10.0-3.0"}}, {"uniqueid": "MTK1281:3DY4FPOOA2V89Z6R68681KBI5TMVRR", "current_trial": 14, "dateTime": 1513536186112, "trialdata": {"rt": -1, "stimulus": "<p id=\"stim\">6</p>", "key_press": -1, "trial_type": "single-stim", "trial_index": 14, "time_elapsed": 125427, "internal_node_id": "0.0-10.0-4.0"}}, {"uniqueid": "MTK1281:3DY4FPOOA2V89Z6R68681KBI5TMVRR", "current_trial": 15, "dateTime": 1513536187114, "trialdata": {"rt": -1, "stimulus": "<p id=\"stim\">5</p>", "key_press": -1, "trial_type": "single-stim", "trial_index": 15, "time_elapsed": 126429, "internal_node_id": "0.0-10.0-5.0"}}, {"uniqueid": "MTK1281:3DY4FPOOA2V89Z6R68681KBI5TMVRR", "current_trial": 16, "dateTime": 1513536188115, "trialdata": {"rt": -1, "stimulus": "<p id=\"stim\">4</p>", "key_press": -1, "trial_type": "single-stim", "trial_index": 16, "time_elapsed": 127430, "internal_node_id": "0.0-10.0-6.0"}}, {"uniqueid": "MTK1281:3DY4FPOOA2V89Z6R68681KBI5TMVRR", "current_trial": 17, "dateTime": 1513536189118, "trialdata": {"rt": -1, "stimulus": "<p id=\"stim\">3</p>", "key_press": -1, "trial_type": "single-stim", "trial_index": 17, "time_elapsed": 128433, "internal_node_id": "0.0-10.0-7.0"}}, {"uniqueid": "MTK1281:3DY4FPOOA2V89Z6R68681KBI5TMVRR", "current_trial": 18, "dateTime": 1513536190120, "trialdata": {"rt": -1, "stimulus": "<p id=\"stim\">2</p>", "key_press": -1, "trial_type": "single-stim", "trial_index": 18, "time_elapsed": 129435, "internal_node_id": "0.0-10.0-8.0"}}, {"uniqueid": "MTK1281:3DY4FPOOA2V89Z6R68681KBI5TMVRR", "current_trial": 19, "dateTime": 1513536191121, "trialdata": {"rt": -1, "stimulus": "<p id=\"stim\">1</p>", "key_press": -1, "trial_type": "single-stim", "trial_index": 19, "time_elapsed": 130436, "internal_node_id": "0.0-10.0-9.0"}}, {"uniqueid": "MTK1281:3DY4FPOOA2V89Z6R68681KBI5TMVRR", "current_trial": 20, "dateTime": 1513536192625, "trialdata": {"rt": -1, "stimulus": "<p id=\"stim\">+</p>", "key_press": -1, "type": "FIXATION", "trial_type": "single-stim", "trial_index": 20, "time_elapsed": 131939, "internal_node_id": "0.0-11.0-0.0"}}, {"uniqueid": "MTK1281:3DY4FPOOA2V89Z6R68681KBI5TMVRR", "current_trial": 21, "dateTime": 1513536194815, "trialdata": {"rt": -1000, "stimulus": "/static/audio/wordpool/KETCHUP.wav", "key_press": -1, "type": "PRES_AUD", "word": "ketchup", "wordID": 770, "conditions": [18, 1200, "a", 18000], "trial": 0, "serialpos": 0, "trial_type": "single-audio", "trial_index": 21, "time_elapsed": 134129, "internal_node_id": "0.0-12.0"}}, {"uniqueid": "MTK1281:3DY4FPOOA2V89Z6R68681KBI5TMVRR", "current_trial": 22, "dateTime": 1513536196997, "trialdata": {"rt": -1000, "stimulus": "/static/audio/wordpool/BLOUSE.wav", "key_press": -1, "type": "PRES_AUD", "word": "blouse", "wordID": 138, "conditions": [18, 1200, "a", 18000], "trial": 0, "serialpos": 1, "trial_type": "single-audio", "trial_index": 22, "time_elapsed": 136312, "internal_node_id": "0.0-13.0"}}, {"uniqueid": "MTK1281:3DY4FPOOA2V89Z6R68681KBI5TMVRR", "current_trial": 23, "dateTime": 1513536199246, "trialdata": {"rt": -1000, "stimulus": "/static/audio/wordpool/WIDOW.wav", "key_press": -1, "type": "PRES_AUD", "word": "widow", "wordID": 1607, "conditions": [18, 1200, "a", 18000], "trial": 0, "serialpos": 2, "trial_type": "single-audio", "trial_index": 23, "time_elapsed": 138561, "internal_node_id": "0.0-14.0"}}, {"uniqueid": "MTK1281:3DY4FPOOA2V89Z6R68681KBI5TMVRR", "current_trial": 24, "dateTime": 1513536201266, "trialdata": {"rt": -1000, "stimulus": "/static/audio/wordpool/MILK.wav", "key_press": -1, "type": "PRES_AUD", "word": "milk", "wordID": 894, "conditions": [18, 1200, "a", 18000], "trial": 0, "serialpos": 3, "trial_type": "single-audio", "trial_index": 24, "time_elapsed": 140581, "internal_node_id": "0.0-15.0"}}, {"uniqueid": "MTK1281:3DY4FPOOA2V89Z6R68681KBI5TMVRR", "current_trial": 25, "dateTime": 1513536203543, "trialdata": {"rt": -1000, "stimulus": "/static/audio/wordpool/GLOVE.wav", "key_press": -1, "type": "PRES_AUD", "word": "glove", "wordID": 641, "conditions": [18, 1200, "a", 18000], "trial": 0, "serialpos": 4, "trial_type": "single-audio", "trial_index": 25, "time_elapsed": 142858, "internal_node_id": "0.0-16.0"}}, {"uniqueid": "MTK1281:3DY4FPOOA2V89Z6R68681KBI5TMVRR", "current_trial": 26, "dateTime": 1513536205745, "trialdata": {"rt": -1000, "stimulus": "/static/audio/wordpool/AIRPLANE.wav", "key_press": -1, "type": "PRES_AUD", "word": "airplane", "wordID": 11, "conditions": [18, 1200, "a", 18000], "trial": 0, "serialpos": 5, "trial_type": "single-audio", "trial_index": 26, "time_elapsed": 145060, "internal_node_id": "0.0-17.0"}}, {"uniqueid": "MTK1281:3DY4FPOOA2V89Z6R68681KBI5TMVRR", "current_trial": 27, "dateTime": 1513536208037, "trialdata": {"rt": -1000, "stimulus": "/static/audio/wordpool/EXPERT.wav", "key_press": -1, "type": "PRES_AUD", "word": "expert", "wordID": 542, "conditions": [18, 1200, "a", 18000], "trial": 0, "serialpos": 6, "trial_type": "single-audio", "trial_index": 27, "time_elapsed": 147352, "internal_node_id": "0.0-18.0"}}, {"uniqueid": "MTK1281:3DY4FPOOA2V89Z6R68681KBI5TMVRR", "current_trial": 28, "dateTime": 1513536210355, "trialdata": {"rt": -1000, "stimulus": "/static/audio/wordpool/CABBAGE.wav", "key_press": -1, "type": "PRES_AUD", "word": "cabbage", "wordID": 209, "conditions": [18, 1200, "a", 18000], "trial": 0, "serialpos": 7, "trial_type": "single-audio", "trial_index": 28, "time_elapsed": 149670, "internal_node_id": "0.0-19.0"}}, {"uniqueid": "MTK1281:3DY4FPOOA2V89Z6R68681KBI5TMVRR", "current_trial": 29, "dateTime": 1513536212623, "trialdata": {"rt": -1000, "stimulus": "/static/audio/wordpool/BABY.wav", "key_press": -1, "type": "PRES_AUD", "word": "baby", "wordID": 63, "conditions": [18, 1200, "a", 18000], "trial": 0, "serialpos": 8, "trial_type": "single-audio", "trial_index": 29, "time_elapsed": 151938, "internal_node_id": "0.0-20.0"}}, {"uniqueid": "MTK1281:3DY4FPOOA2V89Z6R68681KBI5TMVRR", "current_trial": 30, "dateTime": 1513536214984, "trialdata": {"rt": -1000, "stimulus": "/static/audio/wordpool/POSSUM.wav", "key_press": -1, "type": "PRES_AUD", "word": "possum", "wordID": 1111, "conditions": [18, 1200, "a", 18000], "trial": 0, "serialpos": 9, "trial_type": "single-audio", "trial_index": 30, "time_elapsed": 154299, "internal_node_id": "0.0-21.0"}}, {"uniqueid": "MTK1281:3DY4FPOOA2V89Z6R68681KBI5TMVRR", "current_trial": 31, "dateTime": 1513536217182, "trialdata": {"rt": -1000, "stimulus": "/static/audio/wordpool/CARROT.wav", "key_press": -1, "type": "PRES_AUD", "word": "carrot", "wordID": 248, "conditions": [18, 1200, "a", 18000], "trial": 0, "serialpos": 10, "trial_type": "single-audio", "trial_index": 31, "time_elapsed": 156497, "internal_node_id": "0.0-22.0"}}, {"uniqueid": "MTK1281:3DY4FPOOA2V89Z6R68681KBI5TMVRR", "current_trial": 32, "dateTime": 1513536219204, "trialdata": {"rt": -1000, "stimulus": "/static/audio/wordpool/SHELTER.wav", "key_press": -1, "type": "PRES_AUD", "word": "shelter", "wordID": 1281, "conditions": [18, 1200, "a", 18000], "trial": 0, "serialpos": 11, "trial_type": "single-audio", "trial_index": 32, "time_elapsed": 158519, "internal_node_id": "0.0-23.0"}}, {"uniqueid": "MTK1281:3DY4FPOOA2V89Z6R68681KBI5TMVRR", "current_trial": 33, "dateTime": 1513536221385, "trialdata": {"rt": -1000, "stimulus": "/static/audio/wordpool/BIKE.wav", "key_press": -1, "type": "PRES_AUD", "word": "bike", "wordID": 124, "conditions": [18, 1200, "a", 18000], "trial": 0, "serialpos": 12, "trial_type": "single-audio", "trial_index": 33, "time_elapsed": 160700, "internal_node_id": "0.0-24.0"}}, {"uniqueid": "MTK1281:3DY4FPOOA2V89Z6R68681KBI5TMVRR", "current_trial": 34, "dateTime": 1513536223720, "trialdata": {"rt": -1000, "stimulus": "/static/audio/wordpool/LABEL.wav", "key_press": -1, "type": "PRES_AUD", "word": "label", "wordID": 789, "conditions": [18, 1200, "a", 18000], "trial": 0, "serialpos": 13, "trial_type": "single-audio", "trial_index": 34, "time_elapsed": 163035, "internal_node_id": "0.0-25.0"}}, {"uniqueid": "MTK1281:3DY4FPOOA2V89Z6R68681KBI5TMVRR", "current_trial": 35, "dateTime": 1513536225966, "trialdata": {"rt": -1000, "stimulus": "/static/audio/wordpool/POET.wav", "key_press": -1, "type": "PRES_AUD", "word": "poet", "wordID": 1094, "conditions": [18, 1200, "a", 18000], "trial": 0, "serialpos": 14, "trial_type": "single-audio", "trial_index": 35, "time_elapsed": 165281, "internal_node_id": "0.0-26.0"}}, {"uniqueid": "MTK1281:3DY4FPOOA2V89Z6R68681KBI5TMVRR", "current_trial": 36, "dateTime": 1513536228288, "trialdata": {"rt": -1000, "stimulus": "/static/audio/wordpool/RADISH.wav", "key_press": -1, "type": "PRES_AUD", "word": "radish", "wordID": 1157, "conditions": [18, 1200, "a", 18000], "trial": 0, "serialpos": 15, "trial_type": "single-audio", "trial_index": 36, "time_elapsed": 167603, "internal_node_id": "0.0-27.0"}}, {"uniqueid": "MTK1281:3DY4FPOOA2V89Z6R68681KBI5TMVRR", "current_trial": 37, "dateTime": 1513536230504, "trialdata": {"rt": -1000, "stimulus": "/static/audio/wordpool/LAGOON.wav", "key_press": -1, "type": "PRES_AUD", "word": "lagoon", "wordID": 794, "conditions": [18, 1200, "a", 18000], "trial": 0, "serialpos": 16, "trial_type": "single-audio", "trial_index": 37, "time_elapsed": 169819, "internal_node_id": "0.0-28.0"}}, {"uniqueid": "MTK1281:3DY4FPOOA2V89Z6R68681KBI5TMVRR", "current_trial": 38, "dateTime": 1513536232558, "trialdata": {"rt": -1000, "stimulus": "/static/audio/wordpool/LETTUCE.wav", "key_press": -1, "type": "PRES_AUD", "word": "lettuce", "wordID": 813, "conditions": [18, 1200, "a", 18000], "trial": 0, "serialpos": 17, "trial_type": "single-audio", "trial_index": 38, "time_elapsed": 171873, "internal_node_id": "0.0-29.0"}}, {"uniqueid": "MTK1281:3DY4FPOOA2V89Z6R68681KBI5TMVRR", "current_trial": 39, "dateTime": 1513536233951, "trialdata": {"rt": -1, "stimulus": "", "key_press": -1, "type": "PRE_RECALL_DELAY", "trial_type": "single-stim", "trial_index": 39, "time_elapsed": 173266, "internal_node_id": "0.0-30.0-0.0"}}, {"uniqueid": "MTK1281:3DY4FPOOA2V89Z6R68681KBI5TMVRR", "current_trial": 40, "dateTime": 1513536234452, "trialdata": {"rt": -1000, "stimulus": "/static/audio/400Hz.wav", "key_press": -1, "type": "PRE_RECALL_ALERT", "trial_type": "single-audio", "trial_index": 40, "time_elapsed": 173767, "internal_node_id": "0.0-31.0"}}, {"uniqueid": "MTK1281:3DY4FPOOA2V89Z6R68681KBI5TMVRR", "current_trial": 41, "dateTime": 1513536294462, "trialdata": {"rt": [2772, 3852, 4805, 7044, 9124, 10724, 12372, 13588], "recwords": ["lettuce.", "carrot.", "baby.", "lagoon", "cabbage", "glove", "airplane", "bike"], "type": "FREE_RECALL", "conditions": [18, 1200, "a", 18000], "trial": 0, "trial_type": "free-recall", "trial_index": 41, "time_elapsed": 233773, "internal_node_id": "0.0-32.0-0.0"}}, {"uniqueid": "MTK1281:3DY4FPOOA2V89Z6R68681KBI5TMVRR", "current_trial": 42, "dateTime": 1513536298380, "trialdata": {"rt": 1917, "key_press": 13, "type": "INSTRUCTIONS", "trial_type": "text", "trial_index": 42, "time_elapsed": 237695, "internal_node_id": "0.0-33.0"}}, {"uniqueid": "MTK1281:3DY4FPOOA2V89Z6R68681KBI5TMVRR", "current_trial": 43, "dateTime": 1513536318384, "trialdata": {"rt": [2508, 4724, 6989, 8940, 10580, 12853, 15405, 17477], "responses": ["20", "7", "14", "21", "11", "17", "22", "17"], "num1": [8, 1, 3, 8, 1, 5, 7, 4, 6], "num2": [2, 2, 4, 7, 3, 7, 8, 9, 3], "num3": [9, 4, 7, 6, 7, 5, 7, 4, 9], "type": "DISTRACTOR", "conditions": [18, 1200, "v", 18000], "trial": 1, "trial_type": "math-distractor", "trial_index": 43, "time_elapsed": 257699, "internal_node_id": "0.0-34.0"}}, {"uniqueid": "MTK1281:3DY4FPOOA2V89Z6R68681KBI5TMVRR", "current_trial": 44, "dateTime": 1513536321386, "trialdata": {"rt": -1, "stimulus": "<p id=\"stim\">10</p>", "key_press": -1, "trial_type": "single-stim", "trial_index": 44, "time_elapsed": 260701, "internal_node_id": "0.0-35.0-0.0"}}, {"uniqueid": "MTK1281:3DY4FPOOA2V89Z6R68681KBI5TMVRR", "current_trial": 45, "dateTime": 1513536322386, "trialdata": {"rt": -1, "stimulus": "<p id=\"stim\">9</p>", "key_press": -1, "trial_type": "single-stim", "trial_index": 45, "time_elapsed": 261701, "internal_node_id": "0.0-35.0-1.0"}}, {"uniqueid": "MTK1281:3DY4FPOOA2V89Z6R68681KBI5TMVRR", "current_trial": 46, "dateTime": 1513536323387, "trialdata": {"rt": -1, "stimulus": "<p id=\"stim\">8</p>", "key_press": -1, "trial_type": "single-stim", "trial_index": 46, "time_elapsed": 262702, "internal_node_id": "0.0-35.0-2.0"}}, {"uniqueid": "MTK1281:3DY4FPOOA2V89Z6R68681KBI5TMVRR", "current_trial": 47, "dateTime": 1513536324391, "trialdata": {"rt": -1, "stimulus": "<p id=\"stim\">7</p>", "key_press": -1, "trial_type": "single-stim", "trial_index": 47, "time_elapsed": 263705, "internal_node_id": "0.0-35.0-3.0"}}, {"uniqueid": "MTK1281:3DY4FPOOA2V89Z6R68681KBI5TMVRR", "current_trial": 48, "dateTime": 1513536325391, "trialdata": {"rt": -1, "stimulus": "<p id=\"stim\">6</p>", "key_press": -1, "trial_type": "single-stim", "trial_index": 48, "time_elapsed": 264706, "internal_node_id": "0.0-35.0-4.0"}}, {"uniqueid": "MTK1281:3DY4FPOOA2V89Z6R68681KBI5TMVRR", "current_trial": 49, "dateTime": 1513536326392, "trialdata": {"rt": -1, "stimulus": "<p id=\"stim\">5</p>", "key_press": -1, "trial_type": "single-stim", "trial_index": 49, "time_elapsed": 265707, "internal_node_id": "0.0-35.0-5.0"}}, {"uniqueid": "MTK1281:3DY4FPOOA2V89Z6R68681KBI5TMVRR", "current_trial": 50, "dateTime": 1513536327394, "trialdata": {"rt": -1, "stimulus": "<p id=\"stim\">4</p>", "key_press": -1, "trial_type": "single-stim", "trial_index": 50, "time_elapsed": 266708, "internal_node_id": "0.0-35.0-6.0"}}, {"uniqueid": "MTK1281:3DY4FPOOA2V89Z6R68681KBI5TMVRR", "current_trial": 51, "dateTime": 1513536328395, "trialdata": {"rt": -1, "stimulus": "<p id=\"stim\">3</p>", "key_press": -1, "trial_type": "single-stim", "trial_index": 51, "time_elapsed": 267710, "internal_node_id": "0.0-35.0-7.0"}}, {"uniqueid": "MTK1281:3DY4FPOOA2V89Z6R68681KBI5TMVRR", "current_trial": 52, "dateTime": 1513536329396, "trialdata": {"rt": -1, "stimulus": "<p id=\"stim\">2</p>", "key_press": -1, "trial_type": "single-stim", "trial_index": 52, "time_elapsed": 268711, "internal_node_id": "0.0-35.0-8.0"}}, {"uniqueid": "MTK1281:3DY4FPOOA2V89Z6R68681KBI5TMVRR", "current_trial": 53, "dateTime": 1513536330397, "trialdata": {"rt": -1, "stimulus": "<p id=\"stim\">1</p>", "key_press": -1, "trial_type": "single-stim", "trial_index": 53, "time_elapsed": 269712, "internal_node_id": "0.0-35.0-9.0"}}, {"uniqueid": "MTK1281:3DY4FPOOA2V89Z6R68681KBI5TMVRR", "current_trial": 54, "dateTime": 1513536331898, "trialdata": {"rt": -1, "stimulus": "<p id=\"stim\">+</p>", "key_press": -1, "type": "FIXATION", "trial_type": "single-stim", "trial_index": 54, "time_elapsed": 271213, "internal_node_id": "0.0-36.0-0.0"}}, {"uniqueid": "MTK1281:3DY4FPOOA2V89Z6R68681KBI5TMVRR", "current_trial": 55, "dateTime": 1513536333100, "trialdata": {"rt": -1, "stimulus": "<p id=\"stim\">ITEM</p>", "key_press": -1, "type": "PRES_VIS", "word": "item", "wordID": 745, "conditions": [18, 1200, "v", 18000], "trial": 1, "serialpos": 0, "trial_type": "single-stim", "trial_index": 55, "time_elapsed": 272415, "internal_node_id": "0.0-37.0"}}, {"uniqueid": "MTK1281:3DY4FPOOA2V89Z6R68681KBI5TMVRR", "current_trial": 56, "dateTime": 1513536335170, "trialdata": {"rt": -1, "stimulus": "<p id=\"stim\">BALLOON</p>", "key_press": -1, "type": "PRES_VIS", "word": "balloon", "wordID": 74, "conditions": [18, 1200, "v", 18000], "trial": 1, "serialpos": 1, "trial_type": "single-stim", "trial_index": 56, "time_elapsed": 274485, "internal_node_id": "0.0-38.0"}}, {"uniqueid": "MTK1281:3DY4FPOOA2V89Z6R68681KBI5TMVRR", "current_trial": 57, "dateTime": 1513536337347, "trialdata": {"rt": -1, "stimulus": "<p id=\"stim\">GROUND</p>", "key_press": -1, "type": "PRES_VIS", "word": "ground", "wordID": 665, "conditions": [18, 1200, "v", 18000], "trial": 1, "serialpos": 2, "trial_type": "single-stim", "trial_index": 57, "time_elapsed": 276662, "internal_node_id": "0.0-39.0"}}, {"uniqueid": "MTK1281:3DY4FPOOA2V89Z6R68681KBI5TMVRR", "current_trial": 58, "dateTime": 1513536339452, "trialdata": {"rt": -1, "stimulus": "<p id=\"stim\">SNAKE</p>", "key_press": -1, "type": "PRES_VIS", "word": "snake", "wordID": 1332, "conditions": [18, 1200, "v", 18000], "trial": 1, "serialpos": 3, "trial_type": "single-stim", "trial_index": 58, "time_elapsed": 278767, "internal_node_id": "0.0-40.0"}}, {"uniqueid": "MTK1281:3DY4FPOOA2V89Z6R68681KBI5TMVRR", "current_trial": 59, "dateTime": 1513536341747, "trialdata": {"rt": -1, "stimulus": "<p id=\"stim\">WRIST</p>", "key_press": -1, "type": "PRES_VIS", "word": "wrist", "wordID": 1625, "conditions": [18, 1200, "v", 18000], "trial": 1, "serialpos": 4, "trial_type": "single-stim", "trial_index": 59, "time_elapsed": 281062, "internal_node_id": "0.0-41.0"}}, {"uniqueid": "MTK1281:3DY4FPOOA2V89Z6R68681KBI5TMVRR", "current_trial": 60, "dateTime": 1513536344009, "trialdata": {"rt": -1, "stimulus": "<p id=\"stim\">COUSIN</p>", "key_press": -1, "type": "PRES_VIS", "word": "cousin", "wordID": 391, "conditions": [18, 1200, "v", 18000], "trial": 1, "serialpos": 5, "trial_type": "single-stim", "trial_index": 60, "time_elapsed": 283324, "internal_node_id": "0.0-42.0"}}, {"uniqueid": "MTK1281:3DY4FPOOA2V89Z6R68681KBI5TMVRR", "current_trial": 61, "dateTime": 1513536346073, "trialdata": {"rt": -1, "stimulus": "<p id=\"stim\">WASP</p>", "key_press": -1, "type": "PRES_VIS", "word": "wasp", "wordID": 1592, "conditions": [18, 1200, "v", 18000], "trial": 1, "serialpos": 6, "trial_type": "single-stim", "trial_index": 61, "time_elapsed": 285385, "internal_node_id": "0.0-43.0"}}, {"uniqueid": "MTK1281:3DY4FPOOA2V89Z6R68681KBI5TMVRR", "current_trial": 62, "dateTime": 1513536348220, "trialdata": {"rt": -1, "stimulus": "<p id=\"stim\">HUMAN</p>", "key_press": -1, "type": "PRES_VIS", "word": "human", "wordID": 725, "conditions": [18, 1200, "v", 18000], "trial": 1, "serialpos": 7, "trial_type": "single-stim", "trial_index": 62, "time_elapsed": 287535, "internal_node_id": "0.0-44.0"}}, {"uniqueid": "MTK1281:3DY4FPOOA2V89Z6R68681KBI5TMVRR", "current_trial": 63, "dateTime": 1513536350333, "trialdata": {"rt": -1, "stimulus": "<p id=\"stim\">MESSAGE</p>", "key_press": -1, "type": "PRES_VIS", "word": "message", "wordID": 887, "conditions": [18, 1200, "v", 18000], "trial": 1, "serialpos": 8, "trial_type": "single-stim", "trial_index": 63, "time_elapsed": 289647, "internal_node_id": "0.0-45.0"}}, {"uniqueid": "MTK1281:3DY4FPOOA2V89Z6R68681KBI5TMVRR", "current_trial": 64, "dateTime": 1513536352659, "trialdata": {"rt": -1, "stimulus": "<p id=\"stim\">BRIEFCASE</p>", "key_press": -1, "type": "PRES_VIS", "word": "briefcase", "wordID": 174, "conditions": [18, 1200, "v", 18000], "trial": 1, "serialpos": 9, "trial_type": "single-stim", "trial_index": 64, "time_elapsed": 291974, "internal_node_id": "0.0-46.0"}}, {"uniqueid": "MTK1281:3DY4FPOOA2V89Z6R68681KBI5TMVRR", "current_trial": 65, "dateTime": 1513536354742, "trialdata": {"rt": -1, "stimulus": "<p id=\"stim\">TOMBSTONE</p>", "key_press": -1, "type": "PRES_VIS", "word": "tombstone", "wordID": 1477, "conditions": [18, 1200, "v", 18000], "trial": 1, "serialpos": 10, "trial_type": "single-stim", "trial_index": 65, "time_elapsed": 294056, "internal_node_id": "0.0-47.0"}}, {"uniqueid": "MTK1281:3DY4FPOOA2V89Z6R68681KBI5TMVRR", "current_trial": 66, "dateTime": 1513536356791, "trialdata": {"rt": -1, "stimulus": "<p id=\"stim\">JURY</p>", "key_press": -1, "type": "PRES_VIS", "word": "jury", "wordID": 765, "conditions": [18, 1200, "v", 18000], "trial": 1, "serialpos": 11, "trial_type": "single-stim", "trial_index": 66, "time_elapsed": 296106, "internal_node_id": "0.0-48.0"}}, {"uniqueid": "MTK1281:3DY4FPOOA2V89Z6R68681KBI5TMVRR", "current_trial": 67, "dateTime": 1513536359048, "trialdata": {"rt": -1, "stimulus": "<p id=\"stim\">MISSILE</p>", "key_press": -1, "type": "PRES_VIS", "word": "missile", "wordID": 899, "conditions": [18, 1200, "v", 18000], "trial": 1, "serialpos": 12, "trial_type": "single-stim", "trial_index": 67, "time_elapsed": 298363, "internal_node_id": "0.0-49.0"}}, {"uniqueid": "MTK1281:3DY4FPOOA2V89Z6R68681KBI5TMVRR", "current_trial": 68, "dateTime": 1513536361132, "trialdata": {"rt": -1, "stimulus": "<p id=\"stim\">COUNTY</p>", "key_press": -1, "type": "PRES_VIS", "word": "county", "wordID": 388, "conditions": [18, 1200, "v", 18000], "trial": 1, "serialpos": 13, "trial_type": "single-stim", "trial_index": 68, "time_elapsed": 300443, "internal_node_id": "0.0-50.0"}}, {"uniqueid": "MTK1281:3DY4FPOOA2V89Z6R68681KBI5TMVRR", "current_trial": 69, "dateTime": 1513536363500, "trialdata": {"rt": -1, "stimulus": "<p id=\"stim\">APPLE</p>", "key_press": -1, "type": "PRES_VIS", "word": "apple", "wordID": 32, "conditions": [18, 1200, "v", 18000], "trial": 1, "serialpos": 14, "trial_type": "single-stim", "trial_index": 69, "time_elapsed": 302815, "internal_node_id": "0.0-51.0"}}, {"uniqueid": "MTK1281:3DY4FPOOA2V89Z6R68681KBI5TMVRR", "current_trial": 70, "dateTime": 1513536365520, "trialdata": {"rt": -1, "stimulus": "<p id=\"stim\">STICKER</p>", "key_press": -1, "type": "PRES_VIS", "word": "sticker", "wordID": 1381, "conditions": [18, 1200, "v", 18000], "trial": 1, "serialpos": 15, "trial_type": "single-stim", "trial_index": 70, "time_elapsed": 304835, "internal_node_id": "0.0-52.0"}}, {"uniqueid": "MTK1281:3DY4FPOOA2V89Z6R68681KBI5TMVRR", "current_trial": 71, "dateTime": 1513536367685, "trialdata": {"rt": -1, "stimulus": "<p id=\"stim\">MASK</p>", "key_press": -1, "type": "PRES_VIS", "word": "mask", "wordID": 875, "conditions": [18, 1200, "v", 18000], "trial": 1, "serialpos": 16, "trial_type": "single-stim", "trial_index": 71, "time_elapsed": 307000, "internal_node_id": "0.0-53.0"}}, {"uniqueid": "MTK1281:3DY4FPOOA2V89Z6R68681KBI5TMVRR", "current_trial": 72, "dateTime": 1513536369840, "trialdata": {"rt": -1, "stimulus": "<p id=\"stim\">HARP</p>", "key_press": -1, "type": "PRES_VIS", "word": "harp", "wordID": 688, "conditions": [18, 1200, "v", 18000], "trial": 1, "serialpos": 17, "trial_type": "single-stim", "trial_index": 72, "time_elapsed": 309155, "internal_node_id": "0.0-54.0"}}, {"uniqueid": "MTK1281:3DY4FPOOA2V89Z6R68681KBI5TMVRR", "current_trial": 73, "dateTime": 1513536371986, "trialdata": {"rt": -1, "stimulus": "", "key_press": -1, "type": "PRE_RECALL_DELAY", "trial_type": "single-stim", "trial_index": 73, "time_elapsed": 311301, "internal_node_id": "0.0-55.0-0.0"}}, {"uniqueid": "MTK1281:3DY4FPOOA2V89Z6R68681KBI5TMVRR", "current_trial": 74, "dateTime": 1513536372488, "trialdata": {"rt": -1000, "stimulus": "/static/audio/400Hz.wav", "key_press": -1, "type": "PRE_RECALL_ALERT", "trial_type": "single-audio", "trial_index": 74, "time_elapsed": 311803, "internal_node_id": "0.0-56.0"}}, {"uniqueid": "MTK1281:3DY4FPOOA2V89Z6R68681KBI5TMVRR", "current_trial": 75, "dateTime": 1513536432497, "trialdata": {"rt": [1905, 3288, 4849, 6185, 8553, 9985, 10913, 12665, 19577], "recwords": ["ice", "baloon", "cousin", "snake", "stapler", "wasp", "mask", "cousin", "globe"], "type": "FREE_RECALL", "conditions": [18, 1200, "v", 18000], "trial": 1, "trial_type": "free-recall", "trial_index": 75, "time_elapsed": 371806, "internal_node_id": "0.0-57.0-0.0"}}, {"uniqueid": "MTK1281:3DY4FPOOA2V89Z6R68681KBI5TMVRR", "current_trial": 76, "dateTime": 1513536437508, "trialdata": {"rt": 3006, "key_press": 32, "type": "INSTRUCTIONS", "trial_type": "text", "trial_index": 76, "time_elapsed": 376821, "internal_node_id": "0.0-58.0"}}, {"uniqueid": "MTK1281:3DY4FPOOA2V89Z6R68681KBI5TMVRR", "current_trial": 77, "dateTime": 1513536462515, "trialdata": {"rt": [2940, 5589, 8317, 10412, 12564, 14404, 16678, 18725, 20893, 23005], "responses": ["14", "24", "9", "10", "20", "18", "25", "16", "16", "15"], "num1": [1, 7, 2, 1, 3, 7, 8, 5, 5, 5, 1], "num2": [8, 9, 1, 7, 8, 9, 9, 6, 2, 6, 7], "num3": [5, 8, 6, 2, 9, 2, 8, 5, 9, 4, 2], "type": "DISTRACTOR", "conditions": [24, 800, "a", 24000], "trial": 2, "trial_type": "math-distractor", "trial_index": 77, "time_elapsed": 401829, "internal_node_id": "0.0-59.0"}}, {"uniqueid": "MTK1281:3DY4FPOOA2V89Z6R68681KBI5TMVRR", "current_trial": 78, "dateTime": 1513536465518, "trialdata": {"rt": -1, "stimulus": "<p id=\"stim\">10</p>", "key_press": -1, "trial_type": "single-stim", "trial_index": 78, "time_elapsed": 404833, "internal_node_id": "0.0-60.0-0.0"}}, {"uniqueid": "MTK1281:3DY4FPOOA2V89Z6R68681KBI5TMVRR", "current_trial": 79, "dateTime": 1513536466519, "trialdata": {"rt": -1, "stimulus": "<p id=\"stim\">9</p>", "key_press": -1, "trial_type": "single-stim", "trial_index": 79, "time_elapsed": 405834, "internal_node_id": "0.0-60.0-1.0"}}, {"uniqueid": "MTK1281:3DY4FPOOA2V89Z6R68681KBI5TMVRR", "current_trial": 80, "dateTime": 1513536467521, "trialdata": {"rt": -1, "stimulus": "<p id=\"stim\">8</p>", "key_press": -1, "trial_type": "single-stim", "trial_index": 80, "time_elapsed": 406836, "internal_node_id": "0.0-60.0-2.0"}}, {"uniqueid": "MTK1281:3DY4FPOOA2V89Z6R68681KBI5TMVRR", "current_trial": 81, "dateTime": 1513536468522, "trialdata": {"rt": -1, "stimulus": "<p id=\"stim\">7</p>", "key_press": -1, "trial_type": "single-stim", "trial_index": 81, "time_elapsed": 407837, "internal_node_id": "0.0-60.0-3.0"}}, {"uniqueid": "MTK1281:3DY4FPOOA2V89Z6R68681KBI5TMVRR", "current_trial": 82, "dateTime": 1513536469524, "trialdata": {"rt": -1, "stimulus": "<p id=\"stim\">6</p>", "key_press": -1, "trial_type": "single-stim", "trial_index": 82, "time_elapsed": 408839, "internal_node_id": "0.0-60.0-4.0"}}, {"uniqueid": "MTK1281:3DY4FPOOA2V89Z6R68681KBI5TMVRR", "current_trial": 83, "dateTime": 1513536470526, "trialdata": {"rt": -1, "stimulus": "<p id=\"stim\">5</p>", "key_press": -1, "trial_type": "single-stim", "trial_index": 83, "time_elapsed": 409841, "internal_node_id": "0.0-60.0-5.0"}}, {"uniqueid": "MTK1281:3DY4FPOOA2V89Z6R68681KBI5TMVRR", "current_trial": 84, "dateTime": 1513536471528, "trialdata": {"rt": -1, "stimulus": "<p id=\"stim\">4</p>", "key_press": -1, "trial_type": "single-stim", "trial_index": 84, "time_elapsed": 410843, "internal_node_id": "0.0-60.0-6.0"}}, {"uniqueid": "MTK1281:3DY4FPOOA2V89Z6R68681KBI5TMVRR", "current_trial": 85, "dateTime": 1513536472529, "trialdata": {"rt": -1, "stimulus": "<p id=\"stim\">3</p>", "key_press": -1, "trial_type": "single-stim", "trial_index": 85, "time_elapsed": 411844, "internal_node_id": "0.0-60.0-7.0"}}, {"uniqueid": "MTK1281:3DY4FPOOA2V89Z6R68681KBI5TMVRR", "current_trial": 86, "dateTime": 1513536473531, "trialdata": {"rt": -1, "stimulus": "<p id=\"stim\">2</p>", "key_press": -1, "trial_type": "single-stim", "trial_index": 86, "time_elapsed": 412846, "internal_node_id": "0.0-60.0-8.0"}}, {"uniqueid": "MTK1281:3DY4FPOOA2V89Z6R68681KBI5TMVRR", "current_trial": 87, "dateTime": 1513536474533, "trialdata": {"rt": -1, "stimulus": "<p id=\"stim\">1</p>", "key_press": -1, "trial_type": "single-stim", "trial_index": 87, "time_elapsed": 413848, "internal_node_id": "0.0-60.0-9.0"}}, {"uniqueid": "MTK1281:3DY4FPOOA2V89Z6R68681KBI5TMVRR", "current_trial": 88, "dateTime": 1513536476036, "trialdata": {"rt": -1, "stimulus": "<p id=\"stim\">+</p>", "key_press": -1, "type": "FIXATION", "trial_type": "single-stim", "trial_index": 88, "time_elapsed": 415351, "internal_node_id": "0.0-61.0-0.0"}}, {"uniqueid": "MTK1281:3DY4FPOOA2V89Z6R68681KBI5TMVRR", "current_trial": 89, "dateTime": 1513536477639, "trialdata": {"rt": -1000, "stimulus": "/static/audio/wordpool/TOURIST.wav", "key_press": -1, "type": "PRES_AUD", "word": "tourist", "wordID": 1487, "conditions": [24, 800, "a", 24000], "trial": 2, "serialpos": 0, "trial_type": "single-audio", "trial_index": 89, "time_elapsed": 416954, "internal_node_id": "0.0-62.0"}}, {"uniqueid": "MTK1281:3DY4FPOOA2V89Z6R68681KBI5TMVRR", "current_trial": 90, "dateTime": 1513536479437, "trialdata": {"rt": -1000, "stimulus": "/static/audio/wordpool/DAUGHTER.wav", "key_press": -1, "type": "PRES_AUD", "word": "daughter", "wordID": 441, "conditions": [24, 800, "a", 24000], "trial": 2, "serialpos": 1, "trial_type": "single-audio", "trial_index": 90, "time_elapsed": 418752, "internal_node_id": "0.0-63.0"}}, {"uniqueid": "MTK1281:3DY4FPOOA2V89Z6R68681KBI5TMVRR", "current_trial": 91, "dateTime": 1513536481194, "trialdata": {"rt": -1000, "stimulus": "/static/audio/wordpool/FRIEND.wav", "key_press": -1, "type": "PRES_AUD", "word": "friend", "wordID": 605, "conditions": [24, 800, "a", 24000], "trial": 2, "serialpos": 2, "trial_type": "single-audio", "trial_index": 91, "time_elapsed": 420509, "internal_node_id": "0.0-64.0"}}, {"uniqueid": "MTK1281:3DY4FPOOA2V89Z6R68681KBI5TMVRR", "current_trial": 92, "dateTime": 1513536483179, "trialdata": {"rt": -1000, "stimulus": "/static/audio/wordpool/SUPPER.wav", "key_press": -1, "type": "PRES_AUD", "word": "supper", "wordID": 1410, "conditions": [24, 800, "a", 24000], "trial": 2, "serialpos": 3, "trial_type": "single-audio", "trial_index": 92, "time_elapsed": 422493, "internal_node_id": "0.0-65.0"}}, {"uniqueid": "MTK1281:3DY4FPOOA2V89Z6R68681KBI5TMVRR", "current_trial": 93, "dateTime": 1513536485109, "trialdata": {"rt": -1000, "stimulus": "/static/audio/wordpool/STAMP.wav", "key_press": -1, "type": "PRES_AUD", "word": "stamp", "wordID": 1369, "conditions": [24, 800, "a", 24000], "trial": 2, "serialpos": 4, "trial_type": "single-audio", "trial_index": 93, "time_elapsed": 424424, "internal_node_id": "0.0-66.0"}}, {"uniqueid": "MTK1281:3DY4FPOOA2V89Z6R68681KBI5TMVRR", "current_trial": 94, "dateTime": 1513536487043, "trialdata": {"rt": -1000, "stimulus": "/static/audio/wordpool/FLOWER.wav", "key_press": -1, "type": "PRES_AUD", "word": "flower", "wordID": 583, "conditions": [24, 800, "a", 24000], "trial": 2, "serialpos": 5, "trial_type": "single-audio", "trial_index": 94, "time_elapsed": 426358, "internal_node_id": "0.0-67.0"}}, {"uniqueid": "MTK1281:3DY4FPOOA2V89Z6R68681KBI5TMVRR", "current_trial": 95, "dateTime": 1513536488868, "trialdata": {"rt": -1000, "stimulus": "/static/audio/wordpool/BEAKER.wav", "key_press": -1, "type": "PRES_AUD", "word": "beaker", "wordID": 103, "conditions": [24, 800, "a", 24000], "trial": 2, "serialpos": 6, "trial_type": "single-audio", "trial_index": 95, "time_elapsed": 428183, "internal_node_id": "0.0-68.0"}}, {"uniqueid": "MTK1281:3DY4FPOOA2V89Z6R68681KBI5TMVRR", "current_trial": 96, "dateTime": 1513536490504, "trialdata": {"rt": -1000, "stimulus": "/static/audio/wordpool/GLASS.wav", "key_press": -1, "type": "PRES_AUD", "word": "glass", "wordID": 638, "conditions": [24, 800, "a", 24000], "trial": 2, "serialpos": 7, "trial_type": "single-audio", "trial_index": 96, "time_elapsed": 429818, "internal_node_id": "0.0-69.0"}}, {"uniqueid": "MTK1281:3DY4FPOOA2V89Z6R68681KBI5TMVRR", "current_trial": 97, "dateTime": 1513536492387, "trialdata": {"rt": -1000, "stimulus": "/static/audio/wordpool/LIVER.wav", "key_press": -1, "type": "PRES_AUD", "word": "liver", "wordID": 832, "conditions": [24, 800, "a", 24000], "trial": 2, "serialpos": 8, "trial_type": "single-audio", "trial_index": 97, "time_elapsed": 431702, "internal_node_id": "0.0-70.0"}}, {"uniqueid": "MTK1281:3DY4FPOOA2V89Z6R68681KBI5TMVRR", "current_trial": 98, "dateTime": 1513536494316, "trialdata": {"rt": -1000, "stimulus": "/static/audio/wordpool/LUNCH.wav", "key_press": -1, "type": "PRES_AUD", "word": "lunch", "wordID": 848, "conditions": [24, 800, "a", 24000], "trial": 2, "serialpos": 9, "trial_type": "single-audio", "trial_index": 98, "time_elapsed": 433631, "internal_node_id": "0.0-71.0"}}, {"uniqueid": "MTK1281:3DY4FPOOA2V89Z6R68681KBI5TMVRR", "current_trial": 99, "dateTime": 1513536496123, "trialdata": {"rt": -1000, "stimulus": "/static/audio/wordpool/BISON.wav", "key_press": -1, "type": "PRES_AUD", "word": "bison", "wordID": 130, "conditions": [24, 800, "a", 24000], "trial": 2, "serialpos": 10, "trial_type": "single-audio", "trial_index": 99, "time_elapsed": 435437, "internal_node_id": "0.0-72.0"}}, {"uniqueid": "MTK1281:3DY4FPOOA2V89Z6R68681KBI5TMVRR", "current_trial": 100, "dateTime": 1513536498024, "trialdata": {"rt": -1000, "stimulus": "/static/audio/wordpool/JUNGLE.wav", "key_press": -1, "type": "PRES_AUD", "word": "jungle", "wordID": 763, "conditions": [24, 800, "a", 24000], "trial": 2, "serialpos": 11, "trial_type": "single-audio", "trial_index": 100, "time_elapsed": 437338, "internal_node_id": "0.0-73.0"}}, {"uniqueid": "MTK1281:3DY4FPOOA2V89Z6R68681KBI5TMVRR", "current_trial": 101, "dateTime": 1513536499747, "trialdata": {"rt": -1000, "stimulus": "/static/audio/wordpool/KIDNEY.wav", "key_press": -1, "type": "PRES_AUD", "word": "kidney", "wordID": 775, "conditions": [24, 800, "a", 24000], "trial": 2, "serialpos": 12, "trial_type": "single-audio", "trial_index": 101, "time_elapsed": 439062, "internal_node_id": "0.0-74.0"}}, {"uniqueid": "MTK1281:3DY4FPOOA2V89Z6R68681KBI5TMVRR", "current_trial": 102, "dateTime": 1513536501365, "trialdata": {"rt": -1000, "stimulus": "/static/audio/wordpool/TRANSPLANT.wav", "key_press": -1, "type": "PRES_AUD", "word": "transplant", "wordID": 1495, "conditions": [24, 800, "a", 24000], "trial": 2, "serialpos": 13, "trial_type": "single-audio", "trial_index": 102, "time_elapsed": 440679, "internal_node_id": "0.0-75.0"}}, {"uniqueid": "MTK1281:3DY4FPOOA2V89Z6R68681KBI5TMVRR", "current_trial": 103, "dateTime": 1513536503051, "trialdata": {"rt": -1000, "stimulus": "/static/audio/wordpool/MOTEL.wav", "key_press": -1, "type": "PRES_AUD", "word": "motel", "wordID": 918, "conditions": [24, 800, "a", 24000], "trial": 2, "serialpos": 14, "trial_type": "single-audio", "trial_index": 103, "time_elapsed": 442366, "internal_node_id": "0.0-76.0"}}, {"uniqueid": "MTK1281:3DY4FPOOA2V89Z6R68681KBI5TMVRR", "current_trial": 104, "dateTime": 1513536504709, "trialdata": {"rt": -1000, "stimulus": "/static/audio/wordpool/PARROT.wav", "key_press": -1, "type": "PRES_AUD", "word": "parrot", "wordID": 1014, "conditions": [24, 800, "a", 24000], "trial": 2, "serialpos": 15, "trial_type": "single-audio", "trial_index": 104, "time_elapsed": 444024, "internal_node_id": "0.0-77.0"}}, {"uniqueid": "MTK1281:3DY4FPOOA2V89Z6R68681KBI5TMVRR", "current_trial": 105, "dateTime": 1513536506624, "trialdata": {"rt": -1000, "stimulus": "/static/audio/wordpool/GIRL.wav", "key_press": -1, "type": "PRES_AUD", "word": "girl", "wordID": 636, "conditions": [24, 800, "a", 24000], "trial": 2, "serialpos": 16, "trial_type": "single-audio", "trial_index": 105, "time_elapsed": 445939, "internal_node_id": "0.0-78.0"}}, {"uniqueid": "MTK1281:3DY4FPOOA2V89Z6R68681KBI5TMVRR", "current_trial": 106, "dateTime": 1513536508451, "trialdata": {"rt": -1000, "stimulus": "/static/audio/wordpool/SALAD.wav", "key_press": -1, "type": "PRES_AUD", "word": "salad", "wordID": 1223, "conditions": [24, 800, "a", 24000], "trial": 2, "serialpos": 17, "trial_type": "single-audio", "trial_index": 106, "time_elapsed": 447766, "internal_node_id": "0.0-79.0"}}, {"uniqueid": "MTK1281:3DY4FPOOA2V89Z6R68681KBI5TMVRR", "current_trial": 107, "dateTime": 1513536510082, "trialdata": {"rt": -1000, "stimulus": "/static/audio/wordpool/MATTRESS.wav", "key_press": -1, "type": "PRES_AUD", "word": "mattress", "wordID": 878, "conditions": [24, 800, "a", 24000], "trial": 2, "serialpos": 18, "trial_type": "single-audio", "trial_index": 107, "time_elapsed": 449397, "internal_node_id": "0.0-80.0"}}, {"uniqueid": "MTK1281:3DY4FPOOA2V89Z6R68681KBI5TMVRR", "current_trial": 108, "dateTime": 1513536511839, "trialdata": {"rt": -1000, "stimulus": "/static/audio/wordpool/CHILD.wav", "key_press": -1, "type": "PRES_AUD", "word": "child", "wordID": 298, "conditions": [24, 800, "a", 24000], "trial": 2, "serialpos": 19, "trial_type": "single-audio", "trial_index": 108, "time_elapsed": 451154, "internal_node_id": "0.0-81.0"}}, {"uniqueid": "MTK1281:3DY4FPOOA2V89Z6R68681KBI5TMVRR", "current_trial": 109, "dateTime": 1513536513698, "trialdata": {"rt": -1000, "stimulus": "/static/audio/wordpool/TURKEY.wav", "key_press": -1, "type": "PRES_AUD", "word": "turkey", "wordID": 1519, "conditions": [24, 800, "a", 24000], "trial": 2, "serialpos": 20, "trial_type": "single-audio", "trial_index": 109, "time_elapsed": 453013, "internal_node_id": "0.0-82.0"}}, {"uniqueid": "MTK1281:3DY4FPOOA2V89Z6R68681KBI5TMVRR", "current_trial": 110, "dateTime": 1513536515488, "trialdata": {"rt": -1000, "stimulus": "/static/audio/wordpool/COBRA.wav", "key_press": -1, "type": "PRES_AUD", "word": "cobra", "wordID": 335, "conditions": [24, 800, "a", 24000], "trial": 2, "serialpos": 21, "trial_type": "single-audio", "trial_index": 110, "time_elapsed": 454803, "internal_node_id": "0.0-83.0"}}, {"uniqueid": "MTK1281:3DY4FPOOA2V89Z6R68681KBI5TMVRR", "current_trial": 111, "dateTime": 1513536517354, "trialdata": {"rt": -1000, "stimulus": "/static/audio/wordpool/PASSAGE.wav", "key_press": -1, "type": "PRES_AUD", "word": "passage", "wordID": 1018, "conditions": [24, 800, "a", 24000], "trial": 2, "serialpos": 22, "trial_type": "single-audio", "trial_index": 111, "time_elapsed": 456669, "internal_node_id": "0.0-84.0"}}, {"uniqueid": "MTK1281:3DY4FPOOA2V89Z6R68681KBI5TMVRR", "current_trial": 112, "dateTime": 1513536519001, "trialdata": {"rt": -1000, "stimulus": "/static/audio/wordpool/CRIB.wav", "key_press": -1, "type": "PRES_AUD", "word": "crib", "wordID": 406, "conditions": [24, 800, "a", 24000], "trial": 2, "serialpos": 23, "trial_type": "single-audio", "trial_index": 112, "time_elapsed": 458315, "internal_node_id": "0.0-85.0"}}, {"uniqueid": "MTK1281:3DY4FPOOA2V89Z6R68681KBI5TMVRR", "current_trial": 113, "dateTime": 1513536520384, "trialdata": {"rt": -1, "stimulus": "", "key_press": -1, "type": "PRE_RECALL_DELAY", "trial_type": "single-stim", "trial_index": 113, "time_elapsed": 459698, "internal_node_id": "0.0-86.0-0.0"}}, {"uniqueid": "MTK1281:3DY4FPOOA2V89Z6R68681KBI5TMVRR", "current_trial": 114, "dateTime": 1513536520885, "trialdata": {"rt": -1000, "stimulus": "/static/audio/400Hz.wav", "key_press": -1, "type": "PRE_RECALL_ALERT", "trial_type": "single-audio", "trial_index": 114, "time_elapsed": 460200, "internal_node_id": "0.0-87.0"}}, {"uniqueid": "MTK1281:3DY4FPOOA2V89Z6R68681KBI5TMVRR", "current_trial": 115, "dateTime": 1513536580890, "trialdata": {"rt": [2530, 4066, 5586, 8435, 11162, 12747, 14403, 15539, 19843, 22115, 23202], "recwords": ["daughter", "turkey", "parrot", "transplant", "kidney", "crib", "passage", "hotel", "girl", "flower", "trip"], "type": "FREE_RECALL", "conditions": [24, 800, "a", 24000], "trial": 2, "trial_type": "free-recall", "trial_index": 115, "time_elapsed": 520204, "internal_node_id": "0.0-88.0-0.0"}}, {"uniqueid": "MTK1281:3DY4FPOOA2V89Z6R68681KBI5TMVRR", "current_trial": 116, "dateTime": 1513536598355, "trialdata": {"rt": 15464, "key_press": 13, "type": "INSTRUCTIONS", "trial_type": "text", "trial_index": 116, "time_elapsed": 537670, "internal_node_id": "0.0-89.0"}}, {"uniqueid": "MTK1281:3DY4FPOOA2V89Z6R68681KBI5TMVRR", "current_trial": 117, "dateTime": 1513536612357, "trialdata": {"rt": [2534, 4279, 6166, 7694, 9463, 11182], "responses": ["18", "18", "14", "6", "10", "9"], "num1": [5, 1, 3, 1, 7, 4, 4], "num2": [9, 9, 9, 1, 2, 3, 4], "num3": [4, 8, 2, 4, 1, 2, 2], "type": "DISTRACTOR", "conditions": [24, 800, "a", 12000], "trial": 3, "trial_type": "math-distractor", "trial_index": 117, "time_elapsed": 551672, "internal_node_id": "0.0-90.0"}}, {"uniqueid": "MTK1281:3DY4FPOOA2V89Z6R68681KBI5TMVRR", "current_trial": 118, "dateTime": 1513536615359, "trialdata": {"rt": -1, "stimulus": "<p id=\"stim\">10</p>", "key_press": -1, "trial_type": "single-stim", "trial_index": 118, "time_elapsed": 554674, "internal_node_id": "0.0-91.0-0.0"}}, {"uniqueid": "MTK1281:3DY4FPOOA2V89Z6R68681KBI5TMVRR", "current_trial": 119, "dateTime": 1513536616360, "trialdata": {"rt": -1, "stimulus": "<p id=\"stim\">9</p>", "key_press": -1, "trial_type": "single-stim", "trial_index": 119, "time_elapsed": 555675, "internal_node_id": "0.0-91.0-1.0"}}, {"uniqueid": "MTK1281:3DY4FPOOA2V89Z6R68681KBI5TMVRR", "current_trial": 120, "dateTime": 1513536617361, "trialdata": {"rt": -1, "stimulus": "<p id=\"stim\">8</p>", "key_press": -1, "trial_type": "single-stim", "trial_index": 120, "time_elapsed": 556676, "internal_node_id": "0.0-91.0-2.0"}}, {"uniqueid": "MTK1281:3DY4FPOOA2V89Z6R68681KBI5TMVRR", "current_trial": 121, "dateTime": 1513536618362, "trialdata": {"rt": -1, "stimulus": "<p id=\"stim\">7</p>", "key_press": -1, "trial_type": "single-stim", "trial_index": 121, "time_elapsed": 557677, "internal_node_id": "0.0-91.0-3.0"}}, {"uniqueid": "MTK1281:3DY4FPOOA2V89Z6R68681KBI5TMVRR", "current_trial": 122, "dateTime": 1513536619363, "trialdata": {"rt": -1, "stimulus": "<p id=\"stim\">6</p>", "key_press": -1, "trial_type": "single-stim", "trial_index": 122, "time_elapsed": 558678, "internal_node_id": "0.0-91.0-4.0"}}, {"uniqueid": "MTK1281:3DY4FPOOA2V89Z6R68681KBI5TMVRR", "current_trial": 123, "dateTime": 1513536620365, "trialdata": {"rt": -1, "stimulus": "<p id=\"stim\">5</p>", "key_press": -1, "trial_type": "single-stim", "trial_index": 123, "time_elapsed": 559680, "internal_node_id": "0.0-91.0-5.0"}}, {"uniqueid": "MTK1281:3DY4FPOOA2V89Z6R68681KBI5TMVRR", "current_trial": 124, "dateTime": 1513536621366, "trialdata": {"rt": -1, "stimulus": "<p id=\"stim\">4</p>", "key_press": -1, "trial_type": "single-stim", "trial_index": 124, "time_elapsed": 560681, "internal_node_id": "0.0-91.0-6.0"}}, {"uniqueid": "MTK1281:3DY4FPOOA2V89Z6R68681KBI5TMVRR", "current_trial": 125, "dateTime": 1513536622368, "trialdata": {"rt": -1, "stimulus": "<p id=\"stim\">3</p>", "key_press": -1, "trial_type": "single-stim", "trial_index": 125, "time_elapsed": 561683, "internal_node_id": "0.0-91.0-7.0"}}, {"uniqueid": "MTK1281:3DY4FPOOA2V89Z6R68681KBI5TMVRR", "current_trial": 126, "dateTime": 1513536623369, "trialdata": {"rt": -1, "stimulus": "<p id=\"stim\">2</p>", "key_press": -1, "trial_type": "single-stim", "trial_index": 126, "time_elapsed": 562684, "internal_node_id": "0.0-91.0-8.0"}}, {"uniqueid": "MTK1281:3DY4FPOOA2V89Z6R68681KBI5TMVRR", "current_trial": 127, "dateTime": 1513536624371, "trialdata": {"rt": -1, "stimulus": "<p id=\"stim\">1</p>", "key_press": -1, "trial_type": "single-stim", "trial_index": 127, "time_elapsed": 563686, "internal_node_id": "0.0-91.0-9.0"}}, {"uniqueid": "MTK1281:3DY4FPOOA2V89Z6R68681KBI5TMVRR", "current_trial": 128, "dateTime": 1513536625872, "trialdata": {"rt": -1, "stimulus": "<p id=\"stim\">+</p>", "key_press": -1, "type": "FIXATION", "trial_type": "single-stim", "trial_index": 128, "time_elapsed": 565187, "internal_node_id": "0.0-92.0-0.0"}}, {"uniqueid": "MTK1281:3DY4FPOOA2V89Z6R68681KBI5TMVRR", "current_trial": 129, "dateTime": 1513536627606, "trialdata": {"rt": -1000, "stimulus": "/static/audio/wordpool/BANKER.wav", "key_press": -1, "type": "PRES_AUD", "word": "banker", "wordID": 83, "conditions": [24, 800, "a", 12000], "trial": 3, "serialpos": 0, "trial_type": "single-audio", "trial_index": 129, "time_elapsed": 566921, "internal_node_id": "0.0-93.0"}}, {"uniqueid": "MTK1281:3DY4FPOOA2V89Z6R68681KBI5TMVRR", "current_trial": 130, "dateTime": 1513536629426, "trialdata": {"rt": -1000, "stimulus": "/static/audio/wordpool/PREACHER.wav", "key_press": -1, "type": "PRES_AUD", "word": "preacher", "wordID": 1118, "conditions": [24, 800, "a", 12000], "trial": 3, "serialpos": 1, "trial_type": "single-audio", "trial_index": 130, "time_elapsed": 568741, "internal_node_id": "0.0-94.0"}}, {"uniqueid": "MTK1281:3DY4FPOOA2V89Z6R68681KBI5TMVRR", "current_trial": 131, "dateTime": 1513536631380, "trialdata": {"rt": -1000, "stimulus": "/static/audio/wordpool/HANDBAG.wav", "key_press": -1, "type": "PRES_AUD", "word": "handbag", "wordID": 683, "conditions": [24, 800, "a", 12000], "trial": 3, "serialpos": 2, "trial_type": "single-audio", "trial_index": 131, "time_elapsed": 570695, "internal_node_id": "0.0-95.0"}}, {"uniqueid": "MTK1281:3DY4FPOOA2V89Z6R68681KBI5TMVRR", "current_trial": 132, "dateTime": 1513536633172, "trialdata": {"rt": -1000, "stimulus": "/static/audio/wordpool/BADGE.wav", "key_press": -1, "type": "PRES_AUD", "word": "badge", "wordID": 67, "conditions": [24, 800, "a", 12000], "trial": 3, "serialpos": 3, "trial_type": "single-audio", "trial_index": 132, "time_elapsed": 572487, "internal_node_id": "0.0-96.0"}}, {"uniqueid": "MTK1281:3DY4FPOOA2V89Z6R68681KBI5TMVRR", "current_trial": 133, "dateTime": 1513536635086, "trialdata": {"rt": -1000, "stimulus": "/static/audio/wordpool/RACKET.wav", "key_press": -1, "type": "PRES_AUD", "word": "racket", "wordID": 1154, "conditions": [24, 800, "a", 12000], "trial": 3, "serialpos": 4, "trial_type": "single-audio", "trial_index": 133, "time_elapsed": 574401, "internal_node_id": "0.0-97.0"}}, {"uniqueid": "MTK1281:3DY4FPOOA2V89Z6R68681KBI5TMVRR", "current_trial": 134, "dateTime": 1513536636761, "trialdata": {"rt": -1000, "stimulus": "/static/audio/wordpool/GRAVEL.wav", "key_press": -1, "type": "PRES_AUD", "word": "gravel", "wordID": 658, "conditions": [24, 800, "a", 12000], "trial": 3, "serialpos": 5, "trial_type": "single-audio", "trial_index": 134, "time_elapsed": 576076, "internal_node_id": "0.0-98.0"}}, {"uniqueid": "MTK1281:3DY4FPOOA2V89Z6R68681KBI5TMVRR", "current_trial": 135, "dateTime": 1513536638423, "trialdata": {"rt": -1000, "stimulus": "/static/audio/wordpool/ROBIN.wav", "key_press": -1, "type": "PRES_AUD", "word": "robin", "wordID": 1198, "conditions": [24, 800, "a", 12000], "trial": 3, "serialpos": 6, "trial_type": "single-audio", "trial_index": 135, "time_elapsed": 577738, "internal_node_id": "0.0-99.0"}}, {"uniqueid": "MTK1281:3DY4FPOOA2V89Z6R68681KBI5TMVRR", "current_trial": 136, "dateTime": 1513536640366, "trialdata": {"rt": -1000, "stimulus": "/static/audio/wordpool/WARDROBE.wav", "key_press": -1, "type": "PRES_AUD", "word": "wardrobe", "wordID": 1586, "conditions": [24, 800, "a", 12000], "trial": 3, "serialpos": 7, "trial_type": "single-audio", "trial_index": 136, "time_elapsed": 579680, "internal_node_id": "0.0-100.0"}}, {"uniqueid": "MTK1281:3DY4FPOOA2V89Z6R68681KBI5TMVRR", "current_trial": 137, "dateTime": 1513536642116, "trialdata": {"rt": -1000, "stimulus": "/static/audio/wordpool/DRESS.wav", "key_press": -1, "type": "PRES_AUD", "word": "dress", "wordID": 494, "conditions": [24, 800, "a", 12000], "trial": 3, "serialpos": 8, "trial_type": "single-audio", "trial_index": 137, "time_elapsed": 581431, "internal_node_id": "0.0-101.0"}}, {"uniqueid": "MTK1281:3DY4FPOOA2V89Z6R68681KBI5TMVRR", "current_trial": 138, "dateTime": 1513536644114, "trialdata": {"rt": -1000, "stimulus": "/static/audio/wordpool/FOX.wav", "key_press": -1, "type": "PRES_AUD", "word": "fox", "wordID": 597, "conditions": [24, 800, "a", 12000], "trial": 3, "serialpos": 9, "trial_type": "single-audio", "trial_index": 138, "time_elapsed": 583429, "internal_node_id": "0.0-102.0"}}, {"uniqueid": "MTK1281:3DY4FPOOA2V89Z6R68681KBI5TMVRR", "current_trial": 139, "dateTime": 1513536645988, "trialdata": {"rt": -1000, "stimulus": "/static/audio/wordpool/TROUT.wav", "key_press": -1, "type": "PRES_AUD", "word": "trout", "wordID": 1510, "conditions": [24, 800, "a", 12000], "trial": 3, "serialpos": 10, "trial_type": "single-audio", "trial_index": 139, "time_elapsed": 585303, "internal_node_id": "0.0-103.0"}}, {"uniqueid": "MTK1281:3DY4FPOOA2V89Z6R68681KBI5TMVRR", "current_trial": 140, "dateTime": 1513536647755, "trialdata": {"rt": -1000, "stimulus": "/static/audio/wordpool/GARDEN.wav", "key_press": -1, "type": "PRES_AUD", "word": "garden", "wordID": 622, "conditions": [24, 800, "a", 12000], "trial": 3, "serialpos": 11, "trial_type": "single-audio", "trial_index": 140, "time_elapsed": 587070, "internal_node_id": "0.0-104.0"}}, {"uniqueid": "MTK1281:3DY4FPOOA2V89Z6R68681KBI5TMVRR", "current_trial": 141, "dateTime": 1513536649672, "trialdata": {"rt": -1000, "stimulus": "/static/audio/wordpool/PLAYGROUND.wav", "key_press": -1, "type": "PRES_AUD", "word": "playground", "wordID": 1086, "conditions": [24, 800, "a", 12000], "trial": 3, "serialpos": 12, "trial_type": "single-audio", "trial_index": 141, "time_elapsed": 588987, "internal_node_id": "0.0-105.0"}}, {"uniqueid": "MTK1281:3DY4FPOOA2V89Z6R68681KBI5TMVRR", "current_trial": 142, "dateTime": 1513536651391, "trialdata": {"rt": -1000, "stimulus": "/static/audio/wordpool/QUAIL.wav", "key_press": -1, "type": "PRES_AUD", "word": "quail", "wordID": 1146, "conditions": [24, 800, "a", 12000], "trial": 3, "serialpos": 13, "trial_type": "single-audio", "trial_index": 142, "time_elapsed": 590706, "internal_node_id": "0.0-106.0"}}, {"uniqueid": "MTK1281:3DY4FPOOA2V89Z6R68681KBI5TMVRR", "current_trial": 143, "dateTime": 1513536653007, "trialdata": {"rt": -1000, "stimulus": "/static/audio/wordpool/SANDWICH.wav", "key_press": -1, "type": "PRES_AUD", "word": "sandwich", "wordID": 1231, "conditions": [24, 800, "a", 12000], "trial": 3, "serialpos": 14, "trial_type": "single-audio", "trial_index": 143, "time_elapsed": 592322, "internal_node_id": "0.0-107.0"}}, {"uniqueid": "MTK1281:3DY4FPOOA2V89Z6R68681KBI5TMVRR", "current_trial": 144, "dateTime": 1513536654822, "trialdata": {"rt": -1000, "stimulus": "/static/audio/wordpool/KITCHEN.wav", "key_press": -1, "type": "PRES_AUD", "word": "kitchen", "wordID": 777, "conditions": [24, 800, "a", 12000], "trial": 3, "serialpos": 15, "trial_type": "single-audio", "trial_index": 144, "time_elapsed": 594137, "internal_node_id": "0.0-108.0"}}, {"uniqueid": "MTK1281:3DY4FPOOA2V89Z6R68681KBI5TMVRR", "current_trial": 145, "dateTime": 1513536656435, "trialdata": {"rt": -1000, "stimulus": "/static/audio/wordpool/GOBLIN.wav", "key_press": -1, "type": "PRES_AUD", "word": "goblin", "wordID": 644, "conditions": [24, 800, "a", 12000], "trial": 3, "serialpos": 16, "trial_type": "single-audio", "trial_index": 145, "time_elapsed": 595750, "internal_node_id": "0.0-109.0"}}, {"uniqueid": "MTK1281:3DY4FPOOA2V89Z6R68681KBI5TMVRR", "current_trial": 146, "dateTime": 1513536658305, "trialdata": {"rt": -1000, "stimulus": "/static/audio/wordpool/LUGGAGE.wav", "key_press": -1, "type": "PRES_AUD", "word": "luggage", "wordID": 846, "conditions": [24, 800, "a", 12000], "trial": 3, "serialpos": 17, "trial_type": "single-audio", "trial_index": 146, "time_elapsed": 597620, "internal_node_id": "0.0-110.0"}}, {"uniqueid": "MTK1281:3DY4FPOOA2V89Z6R68681KBI5TMVRR", "current_trial": 147, "dateTime": 1513536659907, "trialdata": {"rt": -1000, "stimulus": "/static/audio/wordpool/SUITCASE.wav", "key_press": -1, "type": "PRES_AUD", "word": "suitcase", "wordID": 1402, "conditions": [24, 800, "a", 12000], "trial": 3, "serialpos": 18, "trial_type": "single-audio", "trial_index": 147, "time_elapsed": 599221, "internal_node_id": "0.0-111.0"}}, {"uniqueid": "MTK1281:3DY4FPOOA2V89Z6R68681KBI5TMVRR", "current_trial": 148, "dateTime": 1513536661854, "trialdata": {"rt": -1000, "stimulus": "/static/audio/wordpool/COOK.wav", "key_press": -1, "type": "PRES_AUD", "word": "cook", "wordID": 371, "conditions": [24, 800, "a", 12000], "trial": 3, "serialpos": 19, "trial_type": "single-audio", "trial_index": 148, "time_elapsed": 601169, "internal_node_id": "0.0-112.0"}}, {"uniqueid": "MTK1281:3DY4FPOOA2V89Z6R68681KBI5TMVRR", "current_trial": 149, "dateTime": 1513536663766, "trialdata": {"rt": -1000, "stimulus": "/static/audio/wordpool/FLESH.wav", "key_press": -1, "type": "PRES_AUD", "word": "flesh", "wordID": 578, "conditions": [24, 800, "a", 12000], "trial": 3, "serialpos": 20, "trial_type": "single-audio", "trial_index": 149, "time_elapsed": 603081, "internal_node_id": "0.0-113.0"}}, {"uniqueid": "MTK1281:3DY4FPOOA2V89Z6R68681KBI5TMVRR", "current_trial": 150, "dateTime": 1513536665497, "trialdata": {"rt": -1000, "stimulus": "/static/audio/wordpool/ZEBRA.wav", "key_press": -1, "type": "PRES_AUD", "word": "zebra", "wordID": 1634, "conditions": [24, 800, "a", 12000], "trial": 3, "serialpos": 21, "trial_type": "single-audio", "trial_index": 150, "time_elapsed": 604812, "internal_node_id": "0.0-114.0"}}, {"uniqueid": "MTK1281:3DY4FPOOA2V89Z6R68681KBI5TMVRR", "current_trial": 151, "dateTime": 1513536667464, "trialdata": {"rt": -1000, "stimulus": "/static/audio/wordpool/STOMACH.wav", "key_press": -1, "type": "PRES_AUD", "word": "stomach", "wordID": 1383, "conditions": [24, 800, "a", 12000], "trial": 3, "serialpos": 22, "trial_type": "single-audio", "trial_index": 151, "time_elapsed": 606779, "internal_node_id": "0.0-115.0"}}, {"uniqueid": "MTK1281:3DY4FPOOA2V89Z6R68681KBI5TMVRR", "current_trial": 152, "dateTime": 1513536669393, "trialdata": {"rt": -1000, "stimulus": "/static/audio/wordpool/DENTIST.wav", "key_press": -1, "type": "PRES_AUD", "word": "dentist", "wordID": 446, "conditions": [24, 800, "a", 12000], "trial": 3, "serialpos": 23, "trial_type": "single-audio", "trial_index": 152, "time_elapsed": 608708, "internal_node_id": "0.0-116.0"}}, {"uniqueid": "MTK1281:3DY4FPOOA2V89Z6R68681KBI5TMVRR", "current_trial": 153, "dateTime": 1513536670694, "trialdata": {"rt": -1, "stimulus": "", "key_press": -1, "type": "PRE_RECALL_DELAY", "trial_type": "single-stim", "trial_index": 153, "time_elapsed": 610008, "internal_node_id": "0.0-117.0-0.0"}}, {"uniqueid": "MTK1281:3DY4FPOOA2V89Z6R68681KBI5TMVRR", "current_trial": 154, "dateTime": 1513536671195, "trialdata": {"rt": -1000, "stimulus": "/static/audio/400Hz.wav", "key_press": -1, "type": "PRE_RECALL_ALERT", "trial_type": "single-audio", "trial_index": 154, "time_elapsed": 610510, "internal_node_id": "0.0-118.0"}}, {"uniqueid": "MTK1281:3DY4FPOOA2V89Z6R68681KBI5TMVRR", "current_trial": 155, "dateTime": 1513536731204, "trialdata": {"rt": [1182, 2229, 3694, 6158, 8101, 14614, 17414], "recwords": ["cook", "flesh", "zebra", "stomach", "dentist", "preacher", "mailman"], "type": "FREE_RECALL", "conditions": [24, 800, "a", 12000], "trial": 3, "trial_type": "free-recall", "trial_index": 155, "time_elapsed": 670514, "internal_node_id": "0.0-119.0-0.0"}}, {"uniqueid": "MTK1281:3DY4FPOOA2V89Z6R68681KBI5TMVRR", "current_trial": 156, "dateTime": 1513536734588, "trialdata": {"rt": 1383, "key_press": 13, "type": "INSTRUCTIONS", "trial_type": "text", "trial_index": 156, "time_elapsed": 673903, "internal_node_id": "0.0-120.0"}}, {"uniqueid": "MTK1281:3DY4FPOOA2V89Z6R68681KBI5TMVRR", "current_trial": 157, "dateTime": 1513536748592, "trialdata": {"rt": [2637, 4253, 6429, 7925, 9710, 11317], "responses": ["25", "17", "13", "9", "7", "14"], "num1": [9, 4, 2, 7, 2, 4, 3], "num2": [8, 6, 2, 1, 2, 7, 1], "num3": [8, 7, 9, 1, 3, 3, 5], "type": "DISTRACTOR", "conditions": [12, 800, "v", 12000], "trial": 4, "trial_type": "math-distractor", "trial_index": 157, "time_elapsed": 687907, "internal_node_id": "0.0-121.0"}}, {"uniqueid": "MTK1281:3DY4FPOOA2V89Z6R68681KBI5TMVRR", "current_trial": 158, "dateTime": 1513536751594, "trialdata": {"rt": -1, "stimulus": "<p id=\"stim\">10</p>", "key_press": -1, "trial_type": "single-stim", "trial_index": 158, "time_elapsed": 690909, "internal_node_id": "0.0-122.0-0.0"}}, {"uniqueid": "MTK1281:3DY4FPOOA2V89Z6R68681KBI5TMVRR", "current_trial": 159, "dateTime": 1513536752595, "trialdata": {"rt": -1, "stimulus": "<p id=\"stim\">9</p>", "key_press": -1, "trial_type": "single-stim", "trial_index": 159, "time_elapsed": 691910, "internal_node_id": "0.0-122.0-1.0"}}, {"uniqueid": "MTK1281:3DY4FPOOA2V89Z6R68681KBI5TMVRR", "current_trial": 160, "dateTime": 1513536753597, "trialdata": {"rt": -1, "stimulus": "<p id=\"stim\">8</p>", "key_press": -1, "trial_type": "single-stim", "trial_index": 160, "time_elapsed": 692912, "internal_node_id": "0.0-122.0-2.0"}}, {"uniqueid": "MTK1281:3DY4FPOOA2V89Z6R68681KBI5TMVRR", "current_trial": 161, "dateTime": 1513536754598, "trialdata": {"rt": -1, "stimulus": "<p id=\"stim\">7</p>", "key_press": -1, "trial_type": "single-stim", "trial_index": 161, "time_elapsed": 693913, "internal_node_id": "0.0-122.0-3.0"}}, {"uniqueid": "MTK1281:3DY4FPOOA2V89Z6R68681KBI5TMVRR", "current_trial": 162, "dateTime": 1513536755600, "trialdata": {"rt": -1, "stimulus": "<p id=\"stim\">6</p>", "key_press": -1, "trial_type": "single-stim", "trial_index": 162, "time_elapsed": 694915, "internal_node_id": "0.0-122.0-4.0"}}, {"uniqueid": "MTK1281:3DY4FPOOA2V89Z6R68681KBI5TMVRR", "current_trial": 163, "dateTime": 1513536756603, "trialdata": {"rt": -1, "stimulus": "<p id=\"stim\">5</p>", "key_press": -1, "trial_type": "single-stim", "trial_index": 163, "time_elapsed": 695918, "internal_node_id": "0.0-122.0-5.0"}}, {"uniqueid": "MTK1281:3DY4FPOOA2V89Z6R68681KBI5TMVRR", "current_trial": 164, "dateTime": 1513536757605, "trialdata": {"rt": -1, "stimulus": "<p id=\"stim\">4</p>", "key_press": -1, "trial_type": "single-stim", "trial_index": 164, "time_elapsed": 696920, "internal_node_id": "0.0-122.0-6.0"}}, {"uniqueid": "MTK1281:3DY4FPOOA2V89Z6R68681KBI5TMVRR", "current_trial": 165, "dateTime": 1513536758606, "trialdata": {"rt": -1, "stimulus": "<p id=\"stim\">3</p>", "key_press": -1, "trial_type": "single-stim", "trial_index": 165, "time_elapsed": 697921, "internal_node_id": "0.0-122.0-7.0"}}, {"uniqueid": "MTK1281:3DY4FPOOA2V89Z6R68681KBI5TMVRR", "current_trial": 166, "dateTime": 1513536759609, "trialdata": {"rt": -1, "stimulus": "<p id=\"stim\">2</p>", "key_press": -1, "trial_type": "single-stim", "trial_index": 166, "time_elapsed": 698924, "internal_node_id": "0.0-122.0-8.0"}}, {"uniqueid": "MTK1281:3DY4FPOOA2V89Z6R68681KBI5TMVRR", "current_trial": 167, "dateTime": 1513536760610, "trialdata": {"rt": -1, "stimulus": "<p id=\"stim\">1</p>", "key_press": -1, "trial_type": "single-stim", "trial_index": 167, "time_elapsed": 699925, "internal_node_id": "0.0-122.0-9.0"}}, {"uniqueid": "MTK1281:3DY4FPOOA2V89Z6R68681KBI5TMVRR", "current_trial": 168, "dateTime": 1513536762112, "trialdata": {"rt": -1, "stimulus": "<p id=\"stim\">+</p>", "key_press": -1, "type": "FIXATION", "trial_type": "single-stim", "trial_index": 168, "time_elapsed": 701427, "internal_node_id": "0.0-123.0-0.0"}}, {"uniqueid": "MTK1281:3DY4FPOOA2V89Z6R68681KBI5TMVRR", "current_trial": 169, "dateTime": 1513536762914, "trialdata": {"rt": -1, "stimulus": "<p id=\"stim\">BUG</p>", "key_press": -1, "type": "PRES_VIS", "word": "bug", "wordID": 186, "conditions": [12, 800, "v", 12000], "trial": 4, "serialpos": 0, "trial_type": "single-stim", "trial_index": 169, "time_elapsed": 702229, "internal_node_id": "0.0-124.0"}}, {"uniqueid": "MTK1281:3DY4FPOOA2V89Z6R68681KBI5TMVRR", "current_trial": 170, "dateTime": 1513536764646, "trialdata": {"rt": -1, "stimulus": "<p id=\"stim\">KNIFE</p>", "key_press": -1, "type": "PRES_VIS", "word": "knife", "wordID": 784, "conditions": [12, 800, "v", 12000], "trial": 4, "serialpos": 1, "trial_type": "single-stim", "trial_index": 170, "time_elapsed": 703961, "internal_node_id": "0.0-125.0"}}, {"uniqueid": "MTK1281:3DY4FPOOA2V89Z6R68681KBI5TMVRR", "current_trial": 171, "dateTime": 1513536766504, "trialdata": {"rt": -1, "stimulus": "<p id=\"stim\">TRUCK</p>", "key_press": -1, "type": "PRES_VIS", "word": "truck", "wordID": 1511, "conditions": [12, 800, "v", 12000], "trial": 4, "serialpos": 2, "trial_type": "single-stim", "trial_index": 171, "time_elapsed": 705819, "internal_node_id": "0.0-126.0"}}, {"uniqueid": "MTK1281:3DY4FPOOA2V89Z6R68681KBI5TMVRR", "current_trial": 172, "dateTime": 1513536768335, "trialdata": {"rt": -1, "stimulus": "<p id=\"stim\">DRIVER</p>", "key_press": -1, "type": "PRES_VIS", "word": "driver", "wordID": 498, "conditions": [12, 800, "v", 12000], "trial": 4, "serialpos": 3, "trial_type": "single-stim", "trial_index": 172, "time_elapsed": 707650, "internal_node_id": "0.0-127.0"}}, {"uniqueid": "MTK1281:3DY4FPOOA2V89Z6R68681KBI5TMVRR", "current_trial": 173, "dateTime": 1513536770263, "trialdata": {"rt": -1, "stimulus": "<p id=\"stim\">LOFT</p>", "key_press": -1, "type": "PRES_VIS", "word": "loft", "wordID": 839, "conditions": [12, 800, "v", 12000], "trial": 4, "serialpos": 4, "trial_type": "single-stim", "trial_index": 173, "time_elapsed": 709578, "internal_node_id": "0.0-128.0"}}, {"uniqueid": "MTK1281:3DY4FPOOA2V89Z6R68681KBI5TMVRR", "current_trial": 174, "dateTime": 1513536772141, "trialdata": {"rt": -1, "stimulus": "<p id=\"stim\">PERCH</p>", "key_press": -1, "type": "PRES_VIS", "word": "perch", "wordID": 1047, "conditions": [12, 800, "v", 12000], "trial": 4, "serialpos": 5, "trial_type": "single-stim", "trial_index": 174, "time_elapsed": 711456, "internal_node_id": "0.0-129.0"}}, {"uniqueid": "MTK1281:3DY4FPOOA2V89Z6R68681KBI5TMVRR", "current_trial": 175, "dateTime": 1513536774048, "trialdata": {"rt": -1, "stimulus": "<p id=\"stim\">ULCER</p>", "key_press": -1, "type": "PRES_VIS", "word": "ulcer", "wordID": 1532, "conditions": [12, 800, "v", 12000], "trial": 4, "serialpos": 6, "trial_type": "single-stim", "trial_index": 175, "time_elapsed": 713363, "internal_node_id": "0.0-130.0"}}, {"uniqueid": "MTK1281:3DY4FPOOA2V89Z6R68681KBI5TMVRR", "current_trial": 176, "dateTime": 1513536775834, "trialdata": {"rt": -1, "stimulus": "<p id=\"stim\">OINTMENT</p>", "key_press": -1, "type": "PRES_VIS", "word": "ointment", "wordID": 973, "conditions": [12, 800, "v", 12000], "trial": 4, "serialpos": 7, "trial_type": "single-stim", "trial_index": 176, "time_elapsed": 715149, "internal_node_id": "0.0-131.0"}}, {"uniqueid": "MTK1281:3DY4FPOOA2V89Z6R68681KBI5TMVRR", "current_trial": 177, "dateTime": 1513536777528, "trialdata": {"rt": -1, "stimulus": "<p id=\"stim\">PISTOL</p>", "key_press": -1, "type": "PRES_VIS", "word": "pistol", "wordID": 1074, "conditions": [12, 800, "v", 12000], "trial": 4, "serialpos": 8, "trial_type": "single-stim", "trial_index": 177, "time_elapsed": 716843, "internal_node_id": "0.0-132.0"}}, {"uniqueid": "MTK1281:3DY4FPOOA2V89Z6R68681KBI5TMVRR", "current_trial": 178, "dateTime": 1513536779155, "trialdata": {"rt": -1, "stimulus": "<p id=\"stim\">CATCHER</p>", "key_press": -1, "type": "PRES_VIS", "word": "catcher", "wordID": 257, "conditions": [12, 800, "v", 12000], "trial": 4, "serialpos": 9, "trial_type": "single-stim", "trial_index": 178, "time_elapsed": 718470, "internal_node_id": "0.0-133.0"}}, {"uniqueid": "MTK1281:3DY4FPOOA2V89Z6R68681KBI5TMVRR", "current_trial": 179, "dateTime": 1513536780904, "trialdata": {"rt": -1, "stimulus": "<p id=\"stim\">COOKBOOK</p>", "key_press": -1, "type": "PRES_VIS", "word": "cookbook", "wordID": 372, "conditions": [12, 800, "v", 12000], "trial": 4, "serialpos": 10, "trial_type": "single-stim", "trial_index": 179, "time_elapsed": 720219, "internal_node_id": "0.0-134.0"}}, {"uniqueid": "MTK1281:3DY4FPOOA2V89Z6R68681KBI5TMVRR", "current_trial": 180, "dateTime": 1513536782866, "trialdata": {"rt": -1, "stimulus": "<p id=\"stim\">SUMMIT</p>", "key_press": -1, "type": "PRES_VIS", "word": "summit", "wordID": 1404, "conditions": [12, 800, "v", 12000], "trial": 4, "serialpos": 11, "trial_type": "single-stim", "trial_index": 180, "time_elapsed": 722181, "internal_node_id": "0.0-135.0"}}, {"uniqueid": "MTK1281:3DY4FPOOA2V89Z6R68681KBI5TMVRR", "current_trial": 181, "dateTime": 1513536785367, "trialdata": {"rt": -1, "stimulus": "", "key_press": -1, "type": "PRE_RECALL_DELAY", "trial_type": "single-stim", "trial_index": 181, "time_elapsed": 724682, "internal_node_id": "0.0-136.0-0.0"}}, {"uniqueid": "MTK1281:3DY4FPOOA2V89Z6R68681KBI5TMVRR", "current_trial": 182, "dateTime": 1513536785869, "trialdata": {"rt": -1000, "stimulus": "/static/audio/400Hz.wav", "key_press": -1, "type": "PRE_RECALL_ALERT", "trial_type": "single-audio", "trial_index": 182, "time_elapsed": 725184, "internal_node_id": "0.0-137.0"}}, {"uniqueid": "MTK1281:3DY4FPOOA2V89Z6R68681KBI5TMVRR", "current_trial": 183, "dateTime": 1513536845879, "trialdata": {"rt": [2205, 3717, 6212, 7532, 9324, 10613, 12405, 14012], "recwords": ["bug", "knift", "knife", "truck", "driver", "loft", "perch", "trout"], "type": "FREE_RECALL", "conditions": [12, 800, "v", 12000], "trial": 4, "trial_type": "free-recall", "trial_index": 183, "time_elapsed": 785187, "internal_node_id": "0.0-138.0-0.0"}}, {"uniqueid": "MTK1281:3DY4FPOOA2V89Z6R68681KBI5TMVRR", "current_trial": 184, "dateTime": 1513536849307, "trialdata": {"rt": 1427, "key_press": 13, "type": "INSTRUCTIONS", "trial_type": "text", "trial_index": 184, "time_elapsed": 788621, "internal_node_id": "0.0-139.0"}}, {"uniqueid": "MTK1281:3DY4FPOOA2V89Z6R68681KBI5TMVRR", "current_trial": 185, "dateTime": 1513536875313, "trialdata": {"rt": [2116, 4660, 6380, 8268, 9940, 12084, 14772, 17309, 18998, 20653, 22117], "responses": ["13", "20", "19", "10", "21", "11", "23", "19", "17", "14", "4"], "num1": [4, 2, 5, 4, 8, 2, 8, 9, 7, 7, 1, 8], "num2": [8, 9, 5, 3, 4, 3, 9, 6, 3, 6, 1, 9], "num3": [1, 9, 9, 3, 9, 4, 6, 4, 7, 1, 2, 4], "type": "DISTRACTOR", "conditions": [24, 1600, "a", 24000], "trial": 5, "trial_type": "math-distractor", "trial_index": 185, "time_elapsed": 814627, "internal_node_id": "0.0-140.0"}}, {"uniqueid": "MTK1281:3DY4FPOOA2V89Z6R68681KBI5TMVRR", "current_trial": 186, "dateTime": 1513536878315, "trialdata": {"rt": -1, "stimulus": "<p id=\"stim\">10</p>", "key_press": -1, "trial_type": "single-stim", "trial_index": 186, "time_elapsed": 817630, "internal_node_id": "0.0-141.0-0.0"}}, {"uniqueid": "MTK1281:3DY4FPOOA2V89Z6R68681KBI5TMVRR", "current_trial": 187, "dateTime": 1513536879317, "trialdata": {"rt": -1, "stimulus": "<p id=\"stim\">9</p>", "key_press": -1, "trial_type": "single-stim", "trial_index": 187, "time_elapsed": 818632, "internal_node_id": "0.0-141.0-1.0"}}, {"uniqueid": "MTK1281:3DY4FPOOA2V89Z6R68681KBI5TMVRR", "current_trial": 188, "dateTime": 1513536880318, "trialdata": {"rt": -1, "stimulus": "<p id=\"stim\">8</p>", "key_press": -1, "trial_type": "single-stim", "trial_index": 188, "time_elapsed": 819633, "internal_node_id": "0.0-141.0-2.0"}}, {"uniqueid": "MTK1281:3DY4FPOOA2V89Z6R68681KBI5TMVRR", "current_trial": 189, "dateTime": 1513536881320, "trialdata": {"rt": -1, "stimulus": "<p id=\"stim\">7</p>", "key_press": -1, "trial_type": "single-stim", "trial_index": 189, "time_elapsed": 820635, "internal_node_id": "0.0-141.0-3.0"}}, {"uniqueid": "MTK1281:3DY4FPOOA2V89Z6R68681KBI5TMVRR", "current_trial": 190, "dateTime": 1513536882322, "trialdata": {"rt": -1, "stimulus": "<p id=\"stim\">6</p>", "key_press": -1, "trial_type": "single-stim", "trial_index": 190, "time_elapsed": 821637, "internal_node_id": "0.0-141.0-4.0"}}, {"uniqueid": "MTK1281:3DY4FPOOA2V89Z6R68681KBI5TMVRR", "current_trial": 191, "dateTime": 1513536883323, "trialdata": {"rt": -1, "stimulus": "<p id=\"stim\">5</p>", "key_press": -1, "trial_type": "single-stim", "trial_index": 191, "time_elapsed": 822638, "internal_node_id": "0.0-141.0-5.0"}}, {"uniqueid": "MTK1281:3DY4FPOOA2V89Z6R68681KBI5TMVRR", "current_trial": 192, "dateTime": 1513536884326, "trialdata": {"rt": -1, "stimulus": "<p id=\"stim\">4</p>", "key_press": -1, "trial_type": "single-stim", "trial_index": 192, "time_elapsed": 823641, "internal_node_id": "0.0-141.0-6.0"}}, {"uniqueid": "MTK1281:3DY4FPOOA2V89Z6R68681KBI5TMVRR", "current_trial": 193, "dateTime": 1513536885328, "trialdata": {"rt": -1, "stimulus": "<p id=\"stim\">3</p>", "key_press": -1, "trial_type": "single-stim", "trial_index": 193, "time_elapsed": 824643, "internal_node_id": "0.0-141.0-7.0"}}, {"uniqueid": "MTK1281:3DY4FPOOA2V89Z6R68681KBI5TMVRR", "current_trial": 194, "dateTime": 1513536886330, "trialdata": {"rt": -1, "stimulus": "<p id=\"stim\">2</p>", "key_press": -1, "trial_type": "single-stim", "trial_index": 194, "time_elapsed": 825645, "internal_node_id": "0.0-141.0-8.0"}}, {"uniqueid": "MTK1281:3DY4FPOOA2V89Z6R68681KBI5TMVRR", "current_trial": 195, "dateTime": 1513536887331, "trialdata": {"rt": -1, "stimulus": "<p id=\"stim\">1</p>", "key_press": -1, "trial_type": "single-stim", "trial_index": 195, "time_elapsed": 826646, "internal_node_id": "0.0-141.0-9.0"}}, {"uniqueid": "MTK1281:3DY4FPOOA2V89Z6R68681KBI5TMVRR", "current_trial": 196, "dateTime": 1513536888832, "trialdata": {"rt": -1, "stimulus": "<p id=\"stim\">+</p>", "key_press": -1, "type": "FIXATION", "trial_type": "single-stim", "trial_index": 196, "time_elapsed": 828147, "internal_node_id": "0.0-142.0-0.0"}}, {"uniqueid": "MTK1281:3DY4FPOOA2V89Z6R68681KBI5TMVRR", "current_trial": 197, "dateTime": 1513536891500, "trialdata": {"rt": -1000, "stimulus": "/static/audio/wordpool/SCALLOP.wav", "key_press": -1, "type": "PRES_AUD", "word": "scallop", "wordID": 1241, "conditions": [24, 1600, "a", 24000], "trial": 5, "serialpos": 0, "trial_type": "single-audio", "trial_index": 197, "time_elapsed": 830815, "internal_node_id": "0.0-143.0"}}, {"uniqueid": "MTK1281:3DY4FPOOA2V89Z6R68681KBI5TMVRR", "current_trial": 198, "dateTime": 1513536894199, "trialdata": {"rt": -1000, "stimulus": "/static/audio/wordpool/PUPPY.wav", "key_press": -1, "type": "PRES_AUD", "word": "puppy", "wordID": 1143, "conditions": [24, 1600, "a", 24000], "trial": 5, "serialpos": 1, "trial_type": "single-audio", "trial_index": 198, "time_elapsed": 833514, "internal_node_id": "0.0-144.0"}}, {"uniqueid": "MTK1281:3DY4FPOOA2V89Z6R68681KBI5TMVRR", "current_trial": 199, "dateTime": 1513536896841, "trialdata": {"rt": -1000, "stimulus": "/static/audio/wordpool/SODA.wav", "key_press": -1, "type": "PRES_AUD", "word": "soda", "wordID": 1340, "conditions": [24, 1600, "a", 24000], "trial": 5, "serialpos": 2, "trial_type": "single-audio", "trial_index": 199, "time_elapsed": 836156, "internal_node_id": "0.0-145.0"}}, {"uniqueid": "MTK1281:3DY4FPOOA2V89Z6R68681KBI5TMVRR", "current_trial": 200, "dateTime": 1513536899570, "trialdata": {"rt": -1000, "stimulus": "/static/audio/wordpool/DRINK.wav", "key_press": -1, "type": "PRES_AUD", "word": "drink", "wordID": 497, "conditions": [24, 1600, "a", 24000], "trial": 5, "serialpos": 3, "trial_type": "single-audio", "trial_index": 200, "time_elapsed": 838885, "internal_node_id": "0.0-146.0"}}, {"uniqueid": "MTK1281:3DY4FPOOA2V89Z6R68681KBI5TMVRR", "current_trial": 201, "dateTime": 1513536902166, "trialdata": {"rt": -1000, "stimulus": "/static/audio/wordpool/PLATE.wav", "key_press": -1, "type": "PRES_AUD", "word": "plate", "wordID": 1085, "conditions": [24, 1600, "a", 24000], "trial": 5, "serialpos": 4, "trial_type": "single-audio", "trial_index": 201, "time_elapsed": 841481, "internal_node_id": "0.0-147.0"}}, {"uniqueid": "MTK1281:3DY4FPOOA2V89Z6R68681KBI5TMVRR", "current_trial": 202, "dateTime": 1513536904611, "trialdata": {"rt": -1000, "stimulus": "/static/audio/wordpool/SPOON.wav", "key_press": -1, "type": "PRES_AUD", "word": "spoon", "wordID": 1356, "conditions": [24, 1600, "a", 24000], "trial": 5, "serialpos": 5, "trial_type": "single-audio", "trial_index": 202, "time_elapsed": 843925, "internal_node_id": "0.0-148.0"}}, {"uniqueid": "MTK1281:3DY4FPOOA2V89Z6R68681KBI5TMVRR", "current_trial": 203, "dateTime": 1513536907120, "trialdata": {"rt": -1000, "stimulus": "/static/audio/wordpool/SKILLET.wav", "key_press": -1, "type": "PRES_AUD", "word": "skillet", "wordID": 1316, "conditions": [24, 1600, "a", 24000], "trial": 5, "serialpos": 6, "trial_type": "single-audio", "trial_index": 203, "time_elapsed": 846435, "internal_node_id": "0.0-149.0"}}, {"uniqueid": "MTK1281:3DY4FPOOA2V89Z6R68681KBI5TMVRR", "current_trial": 204, "dateTime": 1513536909904, "trialdata": {"rt": -1000, "stimulus": "/static/audio/wordpool/POLICE.wav", "key_press": -1, "type": "PRES_AUD", "word": "police", "wordID": 1097, "conditions": [24, 1600, "a", 24000], "trial": 5, "serialpos": 7, "trial_type": "single-audio", "trial_index": 204, "time_elapsed": 849217, "internal_node_id": "0.0-150.0"}}, {"uniqueid": "MTK1281:3DY4FPOOA2V89Z6R68681KBI5TMVRR", "current_trial": 205, "dateTime": 1513536912585, "trialdata": {"rt": -1000, "stimulus": "/static/audio/wordpool/CLOCK.wav", "key_press": -1, "type": "PRES_AUD", "word": "clock", "wordID": 324, "conditions": [24, 1600, "a", 24000], "trial": 5, "serialpos": 8, "trial_type": "single-audio", "trial_index": 205, "time_elapsed": 851899, "internal_node_id": "0.0-151.0"}}, {"uniqueid": "MTK1281:3DY4FPOOA2V89Z6R68681KBI5TMVRR", "current_trial": 206, "dateTime": 1513536915351, "trialdata": {"rt": -1000, "stimulus": "/static/audio/wordpool/DRAGON.wav", "key_press": -1, "type": "PRES_AUD", "word": "dragon", "wordID": 491, "conditions": [24, 1600, "a", 24000], "trial": 5, "serialpos": 9, "trial_type": "single-audio", "trial_index": 206, "time_elapsed": 854666, "internal_node_id": "0.0-152.0"}}, {"uniqueid": "MTK1281:3DY4FPOOA2V89Z6R68681KBI5TMVRR", "current_trial": 207, "dateTime": 1513536918017, "trialdata": {"rt": -1000, "stimulus": "/static/audio/wordpool/SALMON.wav", "key_press": -1, "type": "PRES_AUD", "word": "salmon", "wordID": 1226, "conditions": [24, 1600, "a", 24000], "trial": 5, "serialpos": 10, "trial_type": "single-audio", "trial_index": 207, "time_elapsed": 857332, "internal_node_id": "0.0-153.0"}}, {"uniqueid": "MTK1281:3DY4FPOOA2V89Z6R68681KBI5TMVRR", "current_trial": 208, "dateTime": 1513536920809, "trialdata": {"rt": -1000, "stimulus": "/static/audio/wordpool/TORTOISE.wav", "key_press": -1, "type": "PRES_AUD", "word": "tortoise", "wordID": 1485, "conditions": [24, 1600, "a", 24000], "trial": 5, "serialpos": 11, "trial_type": "single-audio", "trial_index": 208, "time_elapsed": 860124, "internal_node_id": "0.0-154.0"}}, {"uniqueid": "MTK1281:3DY4FPOOA2V89Z6R68681KBI5TMVRR", "current_trial": 209, "dateTime": 1513536923358, "trialdata": {"rt": -1000, "stimulus": "/static/audio/wordpool/BRANCH.wav", "key_press": -1, "type": "PRES_AUD", "word": "branch", "wordID": 167, "conditions": [24, 1600, "a", 24000], "trial": 5, "serialpos": 12, "trial_type": "single-audio", "trial_index": 209, "time_elapsed": 862673, "internal_node_id": "0.0-155.0"}}, {"uniqueid": "MTK1281:3DY4FPOOA2V89Z6R68681KBI5TMVRR", "current_trial": 210, "dateTime": 1513536925819, "trialdata": {"rt": -1000, "stimulus": "/static/audio/wordpool/BOX.wav", "key_press": -1, "type": "PRES_AUD", "word": "box", "wordID": 158, "conditions": [24, 1600, "a", 24000], "trial": 5, "serialpos": 13, "trial_type": "single-audio", "trial_index": 210, "time_elapsed": 865134, "internal_node_id": "0.0-156.0"}}, {"uniqueid": "MTK1281:3DY4FPOOA2V89Z6R68681KBI5TMVRR", "current_trial": 211, "dateTime": 1513536928337, "trialdata": {"rt": -1000, "stimulus": "/static/audio/wordpool/PIMPLE.wav", "key_press": -1, "type": "PRES_AUD", "word": "pimple", "wordID": 1070, "conditions": [24, 1600, "a", 24000], "trial": 5, "serialpos": 14, "trial_type": "single-audio", "trial_index": 211, "time_elapsed": 867652, "internal_node_id": "0.0-157.0"}}, {"uniqueid": "MTK1281:3DY4FPOOA2V89Z6R68681KBI5TMVRR", "current_trial": 212, "dateTime": 1513536930832, "trialdata": {"rt": -1000, "stimulus": "/static/audio/wordpool/HIKER.wav", "key_press": -1, "type": "PRES_AUD", "word": "hiker", "wordID": 707, "conditions": [24, 1600, "a", 24000], "trial": 5, "serialpos": 15, "trial_type": "single-audio", "trial_index": 212, "time_elapsed": 870147, "internal_node_id": "0.0-158.0"}}, {"uniqueid": "MTK1281:3DY4FPOOA2V89Z6R68681KBI5TMVRR", "current_trial": 213, "dateTime": 1513536933238, "trialdata": {"rt": -1000, "stimulus": "/static/audio/wordpool/KNAPSACK.wav", "key_press": -1, "type": "PRES_AUD", "word": "knapsack", "wordID": 782, "conditions": [24, 1600, "a", 24000], "trial": 5, "serialpos": 16, "trial_type": "single-audio", "trial_index": 213, "time_elapsed": 872553, "internal_node_id": "0.0-159.0"}}, {"uniqueid": "MTK1281:3DY4FPOOA2V89Z6R68681KBI5TMVRR", "current_trial": 214, "dateTime": 1513536935675, "trialdata": {"rt": -1000, "stimulus": "/static/audio/wordpool/CANDY.wav", "key_press": -1, "type": "PRES_AUD", "word": "candy", "wordID": 229, "conditions": [24, 1600, "a", 24000], "trial": 5, "serialpos": 17, "trial_type": "single-audio", "trial_index": 214, "time_elapsed": 874990, "internal_node_id": "0.0-160.0"}}, {"uniqueid": "MTK1281:3DY4FPOOA2V89Z6R68681KBI5TMVRR", "current_trial": 215, "dateTime": 1513536938374, "trialdata": {"rt": -1000, "stimulus": "/static/audio/wordpool/HORNET.wav", "key_press": -1, "type": "PRES_AUD", "word": "hornet", "wordID": 717, "conditions": [24, 1600, "a", 24000], "trial": 5, "serialpos": 18, "trial_type": "single-audio", "trial_index": 215, "time_elapsed": 877689, "internal_node_id": "0.0-161.0"}}, {"uniqueid": "MTK1281:3DY4FPOOA2V89Z6R68681KBI5TMVRR", "current_trial": 216, "dateTime": 1513536941126, "trialdata": {"rt": -1000, "stimulus": "/static/audio/wordpool/JELLO.wav", "key_press": -1, "type": "PRES_AUD", "word": "jello", "wordID": 753, "conditions": [24, 1600, "a", 24000], "trial": 5, "serialpos": 19, "trial_type": "single-audio", "trial_index": 216, "time_elapsed": 880441, "internal_node_id": "0.0-162.0"}}, {"uniqueid": "MTK1281:3DY4FPOOA2V89Z6R68681KBI5TMVRR", "current_trial": 217, "dateTime": 1513536943563, "trialdata": {"rt": -1000, "stimulus": "/static/audio/wordpool/CYCLONE.wav", "key_press": -1, "type": "PRES_AUD", "word": "cyclone", "wordID": 430, "conditions": [24, 1600, "a", 24000], "trial": 5, "serialpos": 20, "trial_type": "single-audio", "trial_index": 217, "time_elapsed": 882878, "internal_node_id": "0.0-163.0"}}, {"uniqueid": "MTK1281:3DY4FPOOA2V89Z6R68681KBI5TMVRR", "current_trial": 218, "dateTime": 1513536946132, "trialdata": {"rt": -1000, "stimulus": "/static/audio/wordpool/BANK.wav", "key_press": -1, "type": "PRES_AUD", "word": "bank", "wordID": 82, "conditions": [24, 1600, "a", 24000], "trial": 5, "serialpos": 21, "trial_type": "single-audio", "trial_index": 218, "time_elapsed": 885446, "internal_node_id": "0.0-164.0"}}, {"uniqueid": "MTK1281:3DY4FPOOA2V89Z6R68681KBI5TMVRR", "current_trial": 219, "dateTime": 1513536948566, "trialdata": {"rt": -1000, "stimulus": "/static/audio/wordpool/THIEF.wav", "key_press": -1, "type": "PRES_AUD", "word": "thief", "wordID": 1455, "conditions": [24, 1600, "a", 24000], "trial": 5, "serialpos": 22, "trial_type": "single-audio", "trial_index": 219, "time_elapsed": 887881, "internal_node_id": "0.0-165.0"}}, {"uniqueid": "MTK1281:3DY4FPOOA2V89Z6R68681KBI5TMVRR", "current_trial": 220, "dateTime": 1513536951113, "trialdata": {"rt": -1000, "stimulus": "/static/audio/wordpool/ROBBER.wav", "key_press": -1, "type": "PRES_AUD", "word": "robber", "wordID": 1196, "conditions": [24, 1600, "a", 24000], "trial": 5, "serialpos": 23, "trial_type": "single-audio", "trial_index": 220, "time_elapsed": 890428, "internal_node_id": "0.0-166.0"}}, {"uniqueid": "MTK1281:3DY4FPOOA2V89Z6R68681KBI5TMVRR", "current_trial": 221, "dateTime": 1513536952442, "trialdata": {"rt": -1, "stimulus": "", "key_press": -1, "type": "PRE_RECALL_DELAY", "trial_type": "single-stim", "trial_index": 221, "time_elapsed": 891757, "internal_node_id": "0.0-167.0-0.0"}}, {"uniqueid": "MTK1281:3DY4FPOOA2V89Z6R68681KBI5TMVRR", "current_trial": 222, "dateTime": 1513536952944, "trialdata": {"rt": -1000, "stimulus": "/static/audio/400Hz.wav", "key_press": -1, "type": "PRE_RECALL_ALERT", "trial_type": "single-audio", "trial_index": 222, "time_elapsed": 892259, "internal_node_id": "0.0-168.0"}}, {"uniqueid": "MTK1281:3DY4FPOOA2V89Z6R68681KBI5TMVRR", "current_trial": 223, "dateTime": 1513537012951, "trialdata": {"rt": [2434, 3530, 4689, 6386, 8034, 9698, 10745, 16226, 19066, 23730, 38673, 40737, 47841], "recwords": ["hiker", "robber", "thief", "candy", "puppy", "sparrow", "bank", "hiker", "knapsack", "backpack", "flower", "hornet", "hunter"], "type": "FREE_RECALL", "conditions": [24, 1600, "a", 24000], "trial": 5, "trial_type": "free-recall", "trial_index": 223, "time_elapsed": 952260, "internal_node_id": "0.0-169.0-0.0"}}, {"uniqueid": "MTK1281:3DY4FPOOA2V89Z6R68681KBI5TMVRR", "current_trial": 224, "dateTime": 1513537016250, "trialdata": {"rt": 1297, "key_press": 13, "type": "INSTRUCTIONS", "trial_type": "text", "trial_index": 224, "time_elapsed": 955565, "internal_node_id": "0.0-170.0"}}, {"uniqueid": "MTK1281:3DY4FPOOA2V89Z6R68681KBI5TMVRR", "current_trial": 225, "dateTime": 1513537030254, "trialdata": {"rt": [1830, 6990, 8629, 10694], "responses": ["13", "25", "11", "25"], "num1": [9, 9, 5, 8, 1], "num2": [1, 7, 3, 9, 8], "num3": [3, 9, 3, 8, 1], "type": "DISTRACTOR", "conditions": [24, 1600, "v", 12000], "trial": 6, "trial_type": "math-distractor", "trial_index": 225, "time_elapsed": 969569, "internal_node_id": "0.0-171.0"}}, {"uniqueid": "MTK1281:3DY4FPOOA2V89Z6R68681KBI5TMVRR", "current_trial": 226, "dateTime": 1513537033255, "trialdata": {"rt": -1, "stimulus": "<p id=\"stim\">10</p>", "key_press": -1, "trial_type": "single-stim", "trial_index": 226, "time_elapsed": 972570, "internal_node_id": "0.0-172.0-0.0"}}, {"uniqueid": "MTK1281:3DY4FPOOA2V89Z6R68681KBI5TMVRR", "current_trial": 227, "dateTime": 1513537034256, "trialdata": {"rt": -1, "stimulus": "<p id=\"stim\">9</p>", "key_press": -1, "trial_type": "single-stim", "trial_index": 227, "time_elapsed": 973571, "internal_node_id": "0.0-172.0-1.0"}}, {"uniqueid": "MTK1281:3DY4FPOOA2V89Z6R68681KBI5TMVRR", "current_trial": 228, "dateTime": 1513537035258, "trialdata": {"rt": -1, "stimulus": "<p id=\"stim\">8</p>", "key_press": -1, "trial_type": "single-stim", "trial_index": 228, "time_elapsed": 974572, "internal_node_id": "0.0-172.0-2.0"}}, {"uniqueid": "MTK1281:3DY4FPOOA2V89Z6R68681KBI5TMVRR", "current_trial": 229, "dateTime": 1513537036258, "trialdata": {"rt": -1, "stimulus": "<p id=\"stim\">7</p>", "key_press": -1, "trial_type": "single-stim", "trial_index": 229, "time_elapsed": 975573, "internal_node_id": "0.0-172.0-3.0"}}, {"uniqueid": "MTK1281:3DY4FPOOA2V89Z6R68681KBI5TMVRR", "current_trial": 230, "dateTime": 1513537037259, "trialdata": {"rt": -1, "stimulus": "<p id=\"stim\">6</p>", "key_press": -1, "trial_type": "single-stim", "trial_index": 230, "time_elapsed": 976574, "internal_node_id": "0.0-172.0-4.0"}}, {"uniqueid": "MTK1281:3DY4FPOOA2V89Z6R68681KBI5TMVRR", "current_trial": 231, "dateTime": 1513537038261, "trialdata": {"rt": -1, "stimulus": "<p id=\"stim\">5</p>", "key_press": -1, "trial_type": "single-stim", "trial_index": 231, "time_elapsed": 977576, "internal_node_id": "0.0-172.0-5.0"}}, {"uniqueid": "MTK1281:3DY4FPOOA2V89Z6R68681KBI5TMVRR", "current_trial": 232, "dateTime": 1513537039262, "trialdata": {"rt": -1, "stimulus": "<p id=\"stim\">4</p>", "key_press": -1, "trial_type": "single-stim", "trial_index": 232, "time_elapsed": 978577, "internal_node_id": "0.0-172.0-6.0"}}, {"uniqueid": "MTK1281:3DY4FPOOA2V89Z6R68681KBI5TMVRR", "current_trial": 233, "dateTime": 1513537040264, "trialdata": {"rt": -1, "stimulus": "<p id=\"stim\">3</p>", "key_press": -1, "trial_type": "single-stim", "trial_index": 233, "time_elapsed": 979579, "internal_node_id": "0.0-172.0-7.0"}}, {"uniqueid": "MTK1281:3DY4FPOOA2V89Z6R68681KBI5TMVRR", "current_trial": 234, "dateTime": 1513537041266, "trialdata": {"rt": -1, "stimulus": "<p id=\"stim\">2</p>", "key_press": -1, "trial_type": "single-stim", "trial_index": 234, "time_elapsed": 980581, "internal_node_id": "0.0-172.0-8.0"}}, {"uniqueid": "MTK1281:3DY4FPOOA2V89Z6R68681KBI5TMVRR", "current_trial": 235, "dateTime": 1513537042267, "trialdata": {"rt": -1, "stimulus": "<p id=\"stim\">1</p>", "key_press": -1, "trial_type": "single-stim", "trial_index": 235, "time_elapsed": 981582, "internal_node_id": "0.0-172.0-9.0"}}, {"uniqueid": "MTK1281:3DY4FPOOA2V89Z6R68681KBI5TMVRR", "current_trial": 236, "dateTime": 1513537043769, "trialdata": {"rt": -1, "stimulus": "<p id=\"stim\">+</p>", "key_press": -1, "type": "FIXATION", "trial_type": "single-stim", "trial_index": 236, "time_elapsed": 983084, "internal_node_id": "0.0-173.0-0.0"}}, {"uniqueid": "MTK1281:3DY4FPOOA2V89Z6R68681KBI5TMVRR", "current_trial": 237, "dateTime": 1513537045373, "trialdata": {"rt": -1, "stimulus": "<p id=\"stim\">TUBA</p>", "key_press": -1, "type": "PRES_VIS", "word": "tuba", "wordID": 1514, "conditions": [24, 1600, "v", 12000], "trial": 6, "serialpos": 0, "trial_type": "single-stim", "trial_index": 237, "time_elapsed": 984686, "internal_node_id": "0.0-174.0"}}, {"uniqueid": "MTK1281:3DY4FPOOA2V89Z6R68681KBI5TMVRR", "current_trial": 238, "dateTime": 1513537047776, "trialdata": {"rt": -1, "stimulus": "<p id=\"stim\">GIFT</p>", "key_press": -1, "type": "PRES_VIS", "word": "gift", "wordID": 634, "conditions": [24, 1600, "v", 12000], "trial": 6, "serialpos": 1, "trial_type": "single-stim", "trial_index": 238, "time_elapsed": 987091, "internal_node_id": "0.0-175.0"}}, {"uniqueid": "MTK1281:3DY4FPOOA2V89Z6R68681KBI5TMVRR", "current_trial": 239, "dateTime": 1513537050342, "trialdata": {"rt": -1, "stimulus": "<p id=\"stim\">COUCH</p>", "key_press": -1, "type": "PRES_VIS", "word": "couch", "wordID": 385, "conditions": [24, 1600, "v", 12000], "trial": 6, "serialpos": 2, "trial_type": "single-stim", "trial_index": 239, "time_elapsed": 989657, "internal_node_id": "0.0-176.0"}}, {"uniqueid": "MTK1281:3DY4FPOOA2V89Z6R68681KBI5TMVRR", "current_trial": 240, "dateTime": 1513537052963, "trialdata": {"rt": -1, "stimulus": "<p id=\"stim\">TROMBONE</p>", "key_press": -1, "type": "PRES_VIS", "word": "trombone", "wordID": 1507, "conditions": [24, 1600, "v", 12000], "trial": 6, "serialpos": 3, "trial_type": "single-stim", "trial_index": 240, "time_elapsed": 992278, "internal_node_id": "0.0-177.0"}}, {"uniqueid": "MTK1281:3DY4FPOOA2V89Z6R68681KBI5TMVRR", "current_trial": 241, "dateTime": 1513537055489, "trialdata": {"rt": -1, "stimulus": "<p id=\"stim\">SIDEWALK</p>", "key_press": -1, "type": "PRES_VIS", "word": "sidewalk", "wordID": 1302, "conditions": [24, 1600, "v", 12000], "trial": 6, "serialpos": 4, "trial_type": "single-stim", "trial_index": 241, "time_elapsed": 994803, "internal_node_id": "0.0-178.0"}}, {"uniqueid": "MTK1281:3DY4FPOOA2V89Z6R68681KBI5TMVRR", "current_trial": 242, "dateTime": 1513537057948, "trialdata": {"rt": -1, "stimulus": "<p id=\"stim\">PLAZA</p>", "key_press": -1, "type": "PRES_VIS", "word": "plaza", "wordID": 1087, "conditions": [24, 1600, "v", 12000], "trial": 6, "serialpos": 5, "trial_type": "single-stim", "trial_index": 242, "time_elapsed": 997263, "internal_node_id": "0.0-179.0"}}, {"uniqueid": "MTK1281:3DY4FPOOA2V89Z6R68681KBI5TMVRR", "current_trial": 243, "dateTime": 1513537060499, "trialdata": {"rt": -1, "stimulus": "<p id=\"stim\">QUEEN</p>", "key_press": -1, "type": "PRES_VIS", "word": "queen", "wordID": 1148, "conditions": [24, 1600, "v", 12000], "trial": 6, "serialpos": 6, "trial_type": "single-stim", "trial_index": 243, "time_elapsed": 999814, "internal_node_id": "0.0-180.0"}}, {"uniqueid": "MTK1281:3DY4FPOOA2V89Z6R68681KBI5TMVRR", "current_trial": 244, "dateTime": 1513537063235, "trialdata": {"rt": -1, "stimulus": "<p id=\"stim\">LILY</p>", "key_press": -1, "type": "PRES_VIS", "word": "lily", "wordID": 820, "conditions": [24, 1600, "v", 12000], "trial": 6, "serialpos": 7, "trial_type": "single-stim", "trial_index": 244, "time_elapsed": 1002550, "internal_node_id": "0.0-181.0"}}, {"uniqueid": "MTK1281:3DY4FPOOA2V89Z6R68681KBI5TMVRR", "current_trial": 245, "dateTime": 1513537066035, "trialdata": {"rt": -1, "stimulus": "<p id=\"stim\">PATROL</p>", "key_press": -1, "type": "PRES_VIS", "word": "patrol", "wordID": 1026, "conditions": [24, 1600, "v", 12000], "trial": 6, "serialpos": 8, "trial_type": "single-stim", "trial_index": 245, "time_elapsed": 1005350, "internal_node_id": "0.0-182.0"}}, {"uniqueid": "MTK1281:3DY4FPOOA2V89Z6R68681KBI5TMVRR", "current_trial": 246, "dateTime": 1513537068560, "trialdata": {"rt": -1, "stimulus": "<p id=\"stim\">NIGHTGOWN</p>", "key_press": -1, "type": "PRES_VIS", "word": "nightgown", "wordID": 952, "conditions": [24, 1600, "v", 12000], "trial": 6, "serialpos": 9, "trial_type": "single-stim", "trial_index": 246, "time_elapsed": 1007875, "internal_node_id": "0.0-183.0"}}, {"uniqueid": "MTK1281:3DY4FPOOA2V89Z6R68681KBI5TMVRR", "current_trial": 247, "dateTime": 1513537071093, "trialdata": {"rt": -1, "stimulus": "<p id=\"stim\">JOURNAL</p>", "key_press": -1, "type": "PRES_VIS", "word": "journal", "wordID": 759, "conditions": [24, 1600, "v", 12000], "trial": 6, "serialpos": 10, "trial_type": "single-stim", "trial_index": 247, "time_elapsed": 1010408, "internal_node_id": "0.0-184.0"}}, {"uniqueid": "MTK1281:3DY4FPOOA2V89Z6R68681KBI5TMVRR", "current_trial": 248, "dateTime": 1513537073547, "trialdata": {"rt": -1, "stimulus": "<p id=\"stim\">HERO</p>", "key_press": -1, "type": "PRES_VIS", "word": "hero", "wordID": 705, "conditions": [24, 1600, "v", 12000], "trial": 6, "serialpos": 11, "trial_type": "single-stim", "trial_index": 248, "time_elapsed": 1012862, "internal_node_id": "0.0-185.0"}}, {"uniqueid": "MTK1281:3DY4FPOOA2V89Z6R68681KBI5TMVRR", "current_trial": 249, "dateTime": 1513537076335, "trialdata": {"rt": -1, "stimulus": "<p id=\"stim\">BEAST</p>", "key_press": -1, "type": "PRES_VIS", "word": "beast", "wordID": 107, "conditions": [24, 1600, "v", 12000], "trial": 6, "serialpos": 12, "trial_type": "single-stim", "trial_index": 249, "time_elapsed": 1015650, "internal_node_id": "0.0-186.0"}}, {"uniqueid": "MTK1281:3DY4FPOOA2V89Z6R68681KBI5TMVRR", "current_trial": 250, "dateTime": 1513537079117, "trialdata": {"rt": -1, "stimulus": "<p id=\"stim\">MONSTER</p>", "key_press": -1, "type": "PRES_VIS", "word": "monster", "wordID": 911, "conditions": [24, 1600, "v", 12000], "trial": 6, "serialpos": 13, "trial_type": "single-stim", "trial_index": 250, "time_elapsed": 1018432, "internal_node_id": "0.0-187.0"}}, {"uniqueid": "MTK1281:3DY4FPOOA2V89Z6R68681KBI5TMVRR", "current_trial": 251, "dateTime": 1513537081582, "trialdata": {"rt": -1, "stimulus": "<p id=\"stim\">GARLIC</p>", "key_press": -1, "type": "PRES_VIS", "word": "garlic", "wordID": 623, "conditions": [24, 1600, "v", 12000], "trial": 6, "serialpos": 14, "trial_type": "single-stim", "trial_index": 251, "time_elapsed": 1020897, "internal_node_id": "0.0-188.0"}}, {"uniqueid": "MTK1281:3DY4FPOOA2V89Z6R68681KBI5TMVRR", "current_trial": 252, "dateTime": 1513537084046, "trialdata": {"rt": -1, "stimulus": "<p id=\"stim\">FEMALE</p>", "key_press": -1, "type": "PRES_VIS", "word": "female", "wordID": 558, "conditions": [24, 1600, "v", 12000], "trial": 6, "serialpos": 15, "trial_type": "single-stim", "trial_index": 252, "time_elapsed": 1023361, "internal_node_id": "0.0-189.0"}}, {"uniqueid": "MTK1281:3DY4FPOOA2V89Z6R68681KBI5TMVRR", "current_trial": 253, "dateTime": 1513537086617, "trialdata": {"rt": -1, "stimulus": "<p id=\"stim\">CRAYON</p>", "key_press": -1, "type": "PRES_VIS", "word": "crayon", "wordID": 400, "conditions": [24, 1600, "v", 12000], "trial": 6, "serialpos": 16, "trial_type": "single-stim", "trial_index": 253, "time_elapsed": 1025931, "internal_node_id": "0.0-190.0"}}, {"uniqueid": "MTK1281:3DY4FPOOA2V89Z6R68681KBI5TMVRR", "current_trial": 254, "dateTime": 1513537089106, "trialdata": {"rt": -1, "stimulus": "<p id=\"stim\">PARSLEY</p>", "key_press": -1, "type": "PRES_VIS", "word": "parsley", "wordID": 1015, "conditions": [24, 1600, "v", 12000], "trial": 6, "serialpos": 17, "trial_type": "single-stim", "trial_index": 254, "time_elapsed": 1028420, "internal_node_id": "0.0-191.0"}}, {"uniqueid": "MTK1281:3DY4FPOOA2V89Z6R68681KBI5TMVRR", "current_trial": 255, "dateTime": 1513537091885, "trialdata": {"rt": -1, "stimulus": "<p id=\"stim\">BOUQUET</p>", "key_press": -1, "type": "PRES_VIS", "word": "bouquet", "wordID": 156, "conditions": [24, 1600, "v", 12000], "trial": 6, "serialpos": 18, "trial_type": "single-stim", "trial_index": 255, "time_elapsed": 1031200, "internal_node_id": "0.0-192.0"}}, {"uniqueid": "MTK1281:3DY4FPOOA2V89Z6R68681KBI5TMVRR", "current_trial": 256, "dateTime": 1513537094501, "trialdata": {"rt": -1, "stimulus": "<p id=\"stim\">RABBIT</p>", "key_press": -1, "type": "PRES_VIS", "word": "rabbit", "wordID": 1151, "conditions": [24, 1600, "v", 12000], "trial": 6, "serialpos": 19, "trial_type": "single-stim", "trial_index": 256, "time_elapsed": 1033816, "internal_node_id": "0.0-193.0"}}, {"uniqueid": "MTK1281:3DY4FPOOA2V89Z6R68681KBI5TMVRR", "current_trial": 257, "dateTime": 1513537097258, "trialdata": {"rt": -1, "stimulus": "<p id=\"stim\">PEPPER</p>", "key_press": -1, "type": "PRES_VIS", "word": "pepper", "wordID": 1046, "conditions": [24, 1600, "v", 12000], "trial": 6, "serialpos": 20, "trial_type": "single-stim", "trial_index": 257, "time_elapsed": 1036573, "internal_node_id": "0.0-194.0"}}, {"uniqueid": "MTK1281:3DY4FPOOA2V89Z6R68681KBI5TMVRR", "current_trial": 258, "dateTime": 1513537099986, "trialdata": {"rt": -1, "stimulus": "<p id=\"stim\">CONVICT</p>", "key_press": -1, "type": "PRES_VIS", "word": "convict", "wordID": 370, "conditions": [24, 1600, "v", 12000], "trial": 6, "serialpos": 21, "trial_type": "single-stim", "trial_index": 258, "time_elapsed": 1039301, "internal_node_id": "0.0-195.0"}}, {"uniqueid": "MTK1281:3DY4FPOOA2V89Z6R68681KBI5TMVRR", "current_trial": 259, "dateTime": 1513537102485, "trialdata": {"rt": -1, "stimulus": "<p id=\"stim\">BRANDY</p>", "key_press": -1, "type": "PRES_VIS", "word": "brandy", "wordID": 168, "conditions": [24, 1600, "v", 12000], "trial": 6, "serialpos": 22, "trial_type": "single-stim", "trial_index": 259, "time_elapsed": 1041800, "internal_node_id": "0.0-196.0"}}, {"uniqueid": "MTK1281:3DY4FPOOA2V89Z6R68681KBI5TMVRR", "current_trial": 260, "dateTime": 1513537105224, "trialdata": {"rt": -1, "stimulus": "<p id=\"stim\">NOVEL</p>", "key_press": -1, "type": "PRES_VIS", "word": "novel", "wordID": 959, "conditions": [24, 1600, "v", 12000], "trial": 6, "serialpos": 23, "trial_type": "single-stim", "trial_index": 260, "time_elapsed": 1044538, "internal_node_id": "0.0-197.0"}}, {"uniqueid": "MTK1281:3DY4FPOOA2V89Z6R68681KBI5TMVRR", "current_trial": 261, "dateTime": 1513537107696, "trialdata": {"rt": -1, "stimulus": "", "key_press": -1, "type": "PRE_RECALL_DELAY", "trial_type": "single-stim", "trial_index": 261, "time_elapsed": 1047011, "internal_node_id": "0.0-198.0-0.0"}}, {"uniqueid": "MTK1281:3DY4FPOOA2V89Z6R68681KBI5TMVRR", "current_trial": 262, "dateTime": 1513537108201, "trialdata": {"rt": -1000, "stimulus": "/static/audio/400Hz.wav", "key_press": -1, "type": "PRE_RECALL_ALERT", "trial_type": "single-audio", "trial_index": 262, "time_elapsed": 1047516, "internal_node_id": "0.0-199.0"}}, {"uniqueid": "MTK1281:3DY4FPOOA2V89Z6R68681KBI5TMVRR", "current_trial": 263, "dateTime": 1513537168212, "trialdata": {"rt": [1767, 2856, 4840, 6128, 7905, 9361, 11720, 13872, 15657], "recwords": ["novel", "brandy", "bouquet", "woman", "police", "monster", "sidewalk", "broadway", "boardwalk"], "type": "FREE_RECALL", "conditions": [24, 1600, "v", 12000], "trial": 6, "trial_type": "free-recall", "trial_index": 263, "time_elapsed": 1107520, "internal_node_id": "0.0-200.0-0.0"}}, {"uniqueid": "MTK1281:3DY4FPOOA2V89Z6R68681KBI5TMVRR", "current_trial": 264, "dateTime": 1513537175018, "trialdata": {"rt": 4805, "key_press": 13, "type": "INSTRUCTIONS", "trial_type": "text", "trial_index": 264, "time_elapsed": 1114333, "internal_node_id": "0.0-201.0"}}, {"uniqueid": "MTK1281:3DY4FPOOA2V89Z6R68681KBI5TMVRR", "current_trial": 265, "dateTime": 1513537189023, "trialdata": {"rt": [1821, 3941, 6485, 9813, 11526], "responses": ["15", "18", "23", "14", "15"], "num1": [2, 5, 6, 6, 5, 2], "num2": [6, 8, 7, 2, 3, 3], "num3": [7, 5, 9, 6, 7, 4], "type": "DISTRACTOR", "conditions": [12, 800, "a", 12000], "trial": 7, "trial_type": "math-distractor", "trial_index": 265, "time_elapsed": 1128338, "internal_node_id": "0.0-202.0"}}, {"uniqueid": "MTK1281:3DY4FPOOA2V89Z6R68681KBI5TMVRR", "current_trial": 266, "dateTime": 1513537192024, "trialdata": {"rt": -1, "stimulus": "<p id=\"stim\">10</p>", "key_press": -1, "trial_type": "single-stim", "trial_index": 266, "time_elapsed": 1131339, "internal_node_id": "0.0-203.0-0.0"}}, {"uniqueid": "MTK1281:3DY4FPOOA2V89Z6R68681KBI5TMVRR", "current_trial": 267, "dateTime": 1513537193026, "trialdata": {"rt": -1, "stimulus": "<p id=\"stim\">9</p>", "key_press": -1, "trial_type": "single-stim", "trial_index": 267, "time_elapsed": 1132341, "internal_node_id": "0.0-203.0-1.0"}}, {"uniqueid": "MTK1281:3DY4FPOOA2V