{"assignmentId": "34HJIJKLP6318T4TVWAVTR08G09V4O", "workerId": "MTK1623", "questiondata": {"avail_screen_height": 1040, "color_depth": 24, "screen_width": 1920, "pixel_depth": 24, "avail_screen_width": 1920, "screen_height": 1080}, "bonus": 0, "hitId": "3H6W48L9F4WYPRSNTO2DT7YXWTCWPE", "counterbalance": 1266, "useragent": "Mozilla/5.0 (Windows NT 10.0; Win64; x64; rv:56.0) Gecko/20100101 Firefox/56.0", "eventdata": [{"eventtype": "initialized", "interval": 0, "value": null, "timestamp": 1516052407357}, {"eventtype": "window_resize", "interval": 0, "value": [1904, 972], "timestamp": 1516052407357}], "data": [{"current_trial": 0, "trialdata": {"rt": 2813, "trial_type": "text", "internal_node_id": "0.0-0.0", "time_elapsed": 2814, "key_press": 32, "type": "INSTRUCTIONS", "trial_index": 0}, "uniqueid": "MTK1623:34HJIJKLP6318T4TVWAVTR08G09V4O", "dateTime": 1516052410642}, {"current_trial": 1, "trialdata": {"rt": 17341, "trial_type": "text", "internal_node_id": "0.0-1.0", "time_elapsed": 20157, "key_press": 32, "type": "INSTRUCTIONS", "trial_index": 1}, "uniqueid": "MTK1623:34HJIJKLP6318T4TVWAVTR08G09V4O", "dateTime": 1516052427985}, {"current_trial": 2, "trialdata": {"rt": [10393], "trial_type": "audio-test", "responses": ["ocean"], "internal_node_id": "0.0-2.0", "time_elapsed": 30645, "type": "AUDIO_TEST", "trial_index": 2}, "uniqueid": "MTK1623:34HJIJKLP6318T4TVWAVTR08G09V4O", "dateTime": 1516052438473}, {"current_trial": 3, "trialdata": {"rt": [10223], "trial_type": "audio-test", "responses": ["crystal"], "internal_node_id": "0.0-3.0", "time_elapsed": 40877, "type": "AUDIO_TEST", "trial_index": 3}, "uniqueid": "MTK1623:34HJIJKLP6318T4TVWAVTR08G09V4O", "dateTime": 1516052448705}, {"current_trial": 4, "trialdata": {"rt": [8751], "trial_type": "audio-test", "responses": ["spice"], "internal_node_id": "0.0-4.0", "time_elapsed": 49638, "type": "AUDIO_TEST", "trial_index": 4}, "uniqueid": "MTK1623:34HJIJKLP6318T4TVWAVTR08G09V4O", "dateTime": 1516052457466}, {"current_trial": 5, "trialdata": {"rt": 25828, "trial_type": "survey-text", "responses": "{\"Q0\":\"10:30 pm\",\"Q1\":\"5:50 am\",\"Q2\":\"5\"}", "internal_node_id": "0.0-5.0", "time_elapsed": 76224, "type": "SLEEP_SURVEY", "trial_index": 5}, "uniqueid": "MTK1623:34HJIJKLP6318T4TVWAVTR08G09V4O", "dateTime": 1516052484053}, {"current_trial": 6, "trialdata": {"rt": 33580, "trial_type": "text", "internal_node_id": "0.0-6.0", "time_elapsed": 110813, "key_press": 32, "type": "INSTRUCTIONS", "trial_index": 6}, "uniqueid": "MTK1623:34HJIJKLP6318T4TVWAVTR08G09V4O", "dateTime": 1516052518641}, {"current_trial": 7, "trialdata": {"rt": 14513, "trial_type": "text", "internal_node_id": "0.0-7.0", "time_elapsed": 125828, "key_press": 32, "type": "INSTRUCTIONS", "trial_index": 7}, "uniqueid": "MTK1623:34HJIJKLP6318T4TVWAVTR08G09V4O", "dateTime": 1516052533657}, {"current_trial": 8, "trialdata": {"rt": 4594, "trial_type": "text", "internal_node_id": "0.0-8.0", "time_elapsed": 130924, "key_press": 32, "type": "INSTRUCTIONS", "trial_index": 8}, "uniqueid": "MTK1623:34HJIJKLP6318T4TVWAVTR08G09V4O", "dateTime": 1516052538752}, {"current_trial": 9, "trialdata": {"rt": [7541, 12829, 16973], "trial_type": "math-distractor", "key_times": [3238, 3557, 7541, 11637, 11949, 12829, 15885, 16077, 16973], "responses": ["13", "20", "12"], "num2": [9, 5, 3, 8], "num3": [3, 6, 2, 5], "conditions": [18, 1200, "v", 18000], "internal_node_id": "0.0-9.0", "key_presses": [49, 51, 13, 50, 48, 13, 49, 50, 13], "trial": 0, "time_elapsed": 149945, "type": "DISTRACTOR", "trial_index": 9, "num1": [1, 9, 7, 8]}, "uniqueid": "MTK1623:34HJIJKLP6318T4TVWAVTR08G09V4O", "dateTime": 1516052557773}, {"current_trial": 10, "trialdata": {"rt": -1, "trial_type": "single-stim", "stimulus": "<p id=\"stim\">10</p>", "internal_node_id": "0.0-10.0-0.0", "time_elapsed": 152956, "key_press": -1, "trial_index": 10}, "uniqueid": "MTK1623:34HJIJKLP6318T4TVWAVTR08G09V4O", "dateTime": 1516052560784}, {"current_trial": 11, "trialdata": {"rt": -1, "trial_type": "single-stim", "stimulus": "<p id=\"stim\">9</p>", "internal_node_id": "0.0-10.0-1.0", "time_elapsed": 153967, "key_press": -1, "trial_index": 11}, "uniqueid": "MTK1623:34HJIJKLP6318T4TVWAVTR08G09V4O", "dateTime": 1516052561795}, {"current_trial": 12, "trialdata": {"rt": -1, "trial_type": "single-stim", "stimulus": "<p id=\"stim\">8</p>", "internal_node_id": "0.0-10.0-2.0", "time_elapsed": 154970, "key_press": -1, "trial_index": 12}, "uniqueid": "MTK1623:34HJIJKLP6318T4TVWAVTR08G09V4O", "dateTime": 1516052562798}, {"current_trial": 13, "trialdata": {"rt": -1, "trial_type": "single-stim", "stimulus": "<p id=\"stim\">7</p>", "internal_node_id": "0.0-10.0-3.0", "time_elapsed": 155974, "key_press": -1, "trial_index": 13}, "uniqueid": "MTK1623:34HJIJKLP6318T4TVWAVTR08G09V4O", "dateTime": 1516052563802}, {"current_trial": 14, "trialdata": {"rt": -1, "trial_type": "single-stim", "stimulus": "<p id=\"stim\">6</p>", "internal_node_id": "0.0-10.0-4.0", "time_elapsed": 156989, "key_press": -1, "trial_index": 14}, "uniqueid": "MTK1623:34HJIJKLP6318T4TVWAVTR08G09V4O", "dateTime": 1516052564817}, {"current_trial": 15, "trialdata": {"rt": -1, "trial_type": "single-stim", "stimulus": "<p id=\"stim\">5</p>", "internal_node_id": "0.0-10.0-5.0", "time_elapsed": 157990, "key_press": -1, "trial_index": 15}, "uniqueid": "MTK1623:34HJIJKLP6318T4TVWAVTR08G09V4O", "dateTime": 1516052565818}, {"current_trial": 16, "trialdata": {"rt": -1, "trial_type": "single-stim", "stimulus": "<p id=\"stim\">4</p>", "internal_node_id": "0.0-10.0-6.0", "time_elapsed": 159001, "key_press": -1, "trial_index": 16}, "uniqueid": "MTK1623:34HJIJKLP6318T4TVWAVTR08G09V4O", "dateTime": 1516052566830}, {"current_trial": 17, "trialdata": {"rt": -1, "trial_type": "single-stim", "stimulus": "<p id=\"stim\">3</p>", "internal_node_id": "0.0-10.0-7.0", "time_elapsed": 160004, "key_press": -1, "trial_index": 17}, "uniqueid": "MTK1623:34HJIJKLP6318T4TVWAVTR08G09V4O", "dateTime": 1516052567832}, {"current_trial": 18, "trialdata": {"rt": -1, "trial_type": "single-stim", "stimulus": "<p id=\"stim\">2</p>", "internal_node_id": "0.0-10.0-8.0", "time_elapsed": 161016, "key_press": -1, "trial_index": 18}, "uniqueid": "MTK1623:34HJIJKLP6318T4TVWAVTR08G09V4O", "dateTime": 1516052568844}, {"current_trial": 19, "trialdata": {"rt": -1, "trial_type": "single-stim", "stimulus": "<p id=\"stim\">1</p>", "internal_node_id": "0.0-10.0-9.0", "time_elapsed": 162022, "key_press": -1, "trial_index": 19}, "uniqueid": "MTK1623:34HJIJKLP6318T4TVWAVTR08G09V4O", "dateTime": 1516052569850}, {"current_trial": 20, "trialdata": {"rt": -1, "trial_type": "single-stim", "stimulus": "<p id=\"stim\">+</p>", "internal_node_id": "0.0-11.0-0.0", "time_elapsed": 163523, "key_press": -1, "type": "FIXATION", "trial_index": 20}, "uniqueid": "MTK1623:34HJIJKLP6318T4TVWAVTR08G09V4O", "dateTime": 1516052571351}, {"current_trial": 21, "trialdata": {"rt": -1, "trial_type": "single-stim", "word": "motel", "stimulus": "<p id=\"stim\">MOTEL</p>", "conditions": [18, 1200, "v", 18000], "internal_node_id": "0.0-12.0", "trial": 0, "time_elapsed": 164726, "serialpos": 0, "key_press": -1, "wordID": 918, "type": "PRES_VIS", "trial_index": 21}, "uniqueid": "MTK1623:34HJIJKLP6318T4TVWAVTR08G09V4O", "dateTime": 1516052572554}, {"current_trial": 22, "trialdata": {"rt": -1, "trial_type": "single-stim", "word": "binder", "stimulus": "<p id=\"stim\">BINDER</p>", "conditions": [18, 1200, "v", 18000], "internal_node_id": "0.0-13.0", "trial": 0, "time_elapsed": 167047, "serialpos": 1, "key_press": -1, "wordID": 126, "type": "PRES_VIS", "trial_index": 22}, "uniqueid": "MTK1623:34HJIJKLP6318T4TVWAVTR08G09V4O", "dateTime": 1516052574875}, {"current_trial": 23, "trialdata": {"rt": -1, "trial_type": "single-stim", "word": "subway", "stimulus": "<p id=\"stim\">SUBWAY</p>", "conditions": [18, 1200, "v", 18000], "internal_node_id": "0.0-14.0", "trial": 0, "time_elapsed": 169282, "serialpos": 2, "key_press": -1, "wordID": 1399, "type": "PRES_VIS", "trial_index": 23}, "uniqueid": "MTK1623:34HJIJKLP6318T4TVWAVTR08G09V4O", "dateTime": 1516052577110}, {"current_trial": 24, "trialdata": {"rt": -1, "trial_type": "single-stim", "word": "river", "stimulus": "<p id=\"stim\">RIVER</p>", "conditions": [18, 1200, "v", 18000], "internal_node_id": "0.0-15.0", "trial": 0, "time_elapsed": 171563, "serialpos": 3, "key_press": -1, "wordID": 1193, "type": "PRES_VIS", "trial_index": 24}, "uniqueid": "MTK1623:34HJIJKLP6318T4TVWAVTR08G09V4O", "dateTime": 1516052579391}, {"current_trial": 25, "trialdata": {"rt": -1, "trial_type": "single-stim", "word": "garden", "stimulus": "<p id=\"stim\">GARDEN</p>", "conditions": [18, 1200, "v", 18000], "internal_node_id": "0.0-16.0", "trial": 0, "time_elapsed": 173907, "serialpos": 4, "key_press": -1, "wordID": 622, "type": "PRES_VIS", "trial_index": 25}, "uniqueid": "MTK1623:34HJIJKLP6318T4TVWAVTR08G09V4O", "dateTime": 1516052581736}, {"current_trial": 26, "trialdata": {"rt": -1, "trial_type": "single-stim", "word": "hostess", "stimulus": "<p id=\"stim\">HOSTESS</p>", "conditions": [18, 1200, "v", 18000], "internal_node_id": "0.0-17.0", "trial": 0, "time_elapsed": 176080, "serialpos": 5, "key_press": -1, "wordID": 722, "type": "PRES_VIS", "trial_index": 26}, "uniqueid": "MTK1623:34HJIJKLP6318T4TVWAVTR08G09V4O", "dateTime": 1516052583908}, {"current_trial": 27, "trialdata": {"rt": -1, "trial_type": "single-stim", "word": "football", "stimulus": "<p id=\"stim\">FOOTBALL</p>", "conditions": [18, 1200, "v", 18000], "internal_node_id": "0.0-18.0", "trial": 0, "time_elapsed": 178340, "serialpos": 6, "key_press": -1, "wordID": 590, "type": "PRES_VIS", "trial_index": 27}, "uniqueid": "MTK1623:34HJIJKLP6318T4TVWAVTR08G09V4O", "dateTime": 1516052586168}, {"current_trial": 28, "trialdata": {"rt": -1, "trial_type": "single-stim", "word": "drug", "stimulus": "<p id=\"stim\">DRUG</p>", "conditions": [18, 1200, "v", 18000], "internal_node_id": "0.0-19.0", "trial": 0, "time_elapsed": 180687, "serialpos": 7, "key_press": -1, "wordID": 500, "type": "PRES_VIS", "trial_index": 28}, "uniqueid": "MTK1623:34HJIJKLP6318T4TVWAVTR08G09V4O", "dateTime": 1516052588515}, {"current_trial": 29, "trialdata": {"rt": -1, "trial_type": "single-stim", "word": "catcher", "stimulus": "<p id=\"stim\">CATCHER</p>", "conditions": [18, 1200, "v", 18000], "internal_node_id": "0.0-20.0", "trial": 0, "time_elapsed": 182781, "serialpos": 8, "key_press": -1, "wordID": 257, "type": "PRES_VIS", "trial_index": 29}, "uniqueid": "MTK1623:34HJIJKLP6318T4TVWAVTR08G09V4O", "dateTime": 1516052590609}, {"current_trial": 30, "trialdata": {"rt": -1, "trial_type": "single-stim", "word": "omelet", "stimulus": "<p id=\"stim\">OMELET</p>", "conditions": [18, 1200, "v", 18000], "internal_node_id": "0.0-21.0", "trial": 0, "time_elapsed": 184887, "serialpos": 9, "key_press": -1, "wordID": 975, "type": "PRES_VIS", "trial_index": 30}, "uniqueid": "MTK1623:34HJIJKLP6318T4TVWAVTR08G09V4O", "dateTime": 1516052592715}, {"current_trial": 31, "trialdata": {"rt": -1, "trial_type": "single-stim", "word": "penguin", "stimulus": "<p id=\"stim\">PENGUIN</p>", "conditions": [18, 1200, "v", 18000], "internal_node_id": "0.0-22.0", "trial": 0, "time_elapsed": 187226, "serialpos": 10, "key_press": -1, "wordID": 1043, "type": "PRES_VIS", "trial_index": 31}, "uniqueid": "MTK1623:34HJIJKLP6318T4TVWAVTR08G09V4O", "dateTime": 1516052595054}, {"current_trial": 32, "trialdata": {"rt": -1, "trial_type": "single-stim", "word": "cupboard", "stimulus": "<p id=\"stim\">CUPBOARD</p>", "conditions": [18, 1200, "v", 18000], "internal_node_id": "0.0-23.0", "trial": 0, "time_elapsed": 189634, "serialpos": 11, "key_press": -1, "wordID": 424, "type": "PRES_VIS", "trial_index": 32}, "uniqueid": "MTK1623:34HJIJKLP6318T4TVWAVTR08G09V4O", "dateTime": 1516052597462}, {"current_trial": 33, "trialdata": {"rt": -1, "trial_type": "single-stim", "word": "badge", "stimulus": "<p id=\"stim\">BADGE</p>", "conditions": [18, 1200, "v", 18000], "internal_node_id": "0.0-24.0", "trial": 0, "time_elapsed": 192015, "serialpos": 12, "key_press": -1, "wordID": 67, "type": "PRES_VIS", "trial_index": 33}, "uniqueid": "MTK1623:34HJIJKLP6318T4TVWAVTR08G09V4O", "dateTime": 1516052599843}, {"current_trial": 34, "trialdata": {"rt": -1, "trial_type": "single-stim", "word": "comet", "stimulus": "<p id=\"stim\">COMET</p>", "conditions": [18, 1200, "v", 18000], "internal_node_id": "0.0-25.0", "trial": 0, "time_elapsed": 194041, "serialpos": 13, "key_press": -1, "wordID": 352, "type": "PRES_VIS", "trial_index": 34}, "uniqueid": "MTK1623:34HJIJKLP6318T4TVWAVTR08G09V4O", "dateTime": 1516052601869}, {"current_trial": 35, "trialdata": {"rt": -1, "trial_type": "single-stim", "word": "poison", "stimulus": "<p id=\"stim\">POISON</p>", "conditions": [18, 1200, "v", 18000], "internal_node_id": "0.0-26.0", "trial": 0, "time_elapsed": 196260, "serialpos": 14, "key_press": -1, "wordID": 1095, "type": "PRES_VIS", "trial_index": 35}, "uniqueid": "MTK1623:34HJIJKLP6318T4TVWAVTR08G09V4O", "dateTime": 1516052604088}, {"current_trial": 36, "trialdata": {"rt": -1, "trial_type": "single-stim", "word": "plaid", "stimulus": "<p id=\"stim\">PLAID</p>", "conditions": [18, 1200, "v", 18000], "internal_node_id": "0.0-27.0", "trial": 0, "time_elapsed": 198308, "serialpos": 15, "key_press": -1, "wordID": 1079, "type": "PRES_VIS", "trial_index": 36}, "uniqueid": "MTK1623:34HJIJKLP6318T4TVWAVTR08G09V4O", "dateTime": 1516052606136}, {"current_trial": 37, "trialdata": {"rt": -1, "trial_type": "single-stim", "word": "student", "stimulus": "<p id=\"stim\">STUDENT</p>", "conditions": [18, 1200, "v", 18000], "internal_node_id": "0.0-28.0", "trial": 0, "time_elapsed": 200503, "serialpos": 16, "key_press": -1, "wordID": 1394, "type": "PRES_VIS", "trial_index": 37}, "uniqueid": "MTK1623:34HJIJKLP6318T4TVWAVTR08G09V4O", "dateTime": 1516052608331}, {"current_trial": 38, "trialdata": {"rt": -1, "trial_type": "single-stim", "word": "widow", "stimulus": "<p id=\"stim\">WIDOW</p>", "conditions": [18, 1200, "v", 18000], "internal_node_id": "0.0-29.0", "trial": 0, "time_elapsed": 202636, "serialpos": 17, "key_press": -1, "wordID": 1607, "type": "PRES_VIS", "trial_index": 38}, "uniqueid": "MTK1623:34HJIJKLP6318T4TVWAVTR08G09V4O", "dateTime": 1516052610464}, {"current_trial": 39, "trialdata": {"rt": -1, "trial_type": "single-stim", "stimulus": "", "internal_node_id": "0.0-30.0-0.0", "time_elapsed": 204673, "key_press": -1, "type": "PRE_RECALL_DELAY", "trial_index": 39}, "uniqueid": "MTK1623:34HJIJKLP6318T4TVWAVTR08G09V4O", "dateTime": 1516052612501}, {"current_trial": 40, "trialdata": {"rt": -1000, "trial_type": "single-audio", "stimulus": "/static/audio/400Hz.wav", "internal_node_id": "0.0-31.0", "time_elapsed": 205175, "key_press": -1, "type": "PRE_RECALL_ALERT", "trial_index": 40}, "uniqueid": "MTK1623:34HJIJKLP6318T4TVWAVTR08G09V4O", "dateTime": 1516052613003}, {"current_trial": 41, "trialdata": {"rt": [4409, 6393, 8889, 10673, 13673, 18810, 20457, 23673, 27505, 42993], "recwords": ["student", "widow", "garden", "motel", "cupboard", "omelet", "drug", "badge", "catcher", "comet"], "key_times": [2410, 2698, 2817, 2929, 3098, 3273, 3417, 4409, 5314, 5450, 5626, 5753, 5873, 6393, 7225, 7329, 7577, 7769, 7913, 8042, 8889, 9737, 9817, 10009, 10217, 10313, 10673, 11626, 11833, 12242, 12537, 12666, 12817, 13049, 13241, 13673, 17410, 17673, 17793, 17945, 18066, 18298, 18810, 19529, 19737, 19890, 20033, 20457, 22769, 22873, 23082, 23193, 23313, 23673, 25889, 26129, 26401, 26617, 26745, 26849, 27002, 27505, 41977, 42130, 42337, 42457, 42697, 42993], "trial_type": "free-recall", "conditions": [18, 1200, "v", 18000], "internal_node_id": "0.0-32.0-0.0", "key_presses": [83, 84, 85, 68, 69, 78, 84, 13, 87, 73, 68, 79, 87, 13, 71, 65, 82, 68, 69, 78, 13, 77, 79, 84, 69, 76, 13, 67, 85, 80, 66, 79, 65, 82, 68, 13, 79, 77, 69, 76, 69, 84, 13, 68, 82, 85, 71, 13, 66, 65, 68, 71, 69, 13, 67, 65, 84, 67, 72, 69, 82, 13, 67, 79, 77, 69, 84, 13], "trial": 0, "time_elapsed": 265185, "type": "FREE_RECALL", "trial_index": 41}, "uniqueid": "MTK1623:34HJIJKLP6318T4TVWAVTR08G09V4O", "dateTime": 1516052673016}, {"current_trial": 42, "trialdata": {"rt": 2461, "trial_type": "text", "internal_node_id": "0.0-33.0", "time_elapsed": 269660, "key_press": 32, "type": "INSTRUCTIONS", "trial_index": 42}, "uniqueid": "MTK1623:34HJIJKLP6318T4TVWAVTR08G09V4O", "dateTime": 1516052677488}, {"current_trial": 43, "trialdata": {"rt": [5259, 17106], "trial_type": "math-distractor", "key_times": [4130, 4274, 5259, 11834, 12146, 12922, 13082, 14066, 14243, 15307, 15587, 16594, 17106], "responses": ["19", "14"], "num2": [4, 8, 7], "num3": [7, 3, 1], "conditions": [18, 1200, "v", 18000], "internal_node_id": "0.0-34.0", "key_presses": [49, 57, 13, 49, 51, 46, 52, 46, 46, 8, 8, 52, 13], "trial": 1, "time_elapsed": 289683, "type": "DISTRACTOR", "trial_index": 43, "num1": [7, 3, 9]}, "uniqueid": "MTK1623:34HJIJKLP6318T4TVWAVTR08G09V4O", "dateTime": 1516052697511}, {"current_trial": 44, "trialdata": {"rt": -1, "trial_type": "single-stim", "stimulus": "<p id=\"stim\">10</p>", "internal_node_id": "0.0-35.0-0.0", "time_elapsed": 292693, "key_press": -1, "trial_index": 44}, "uniqueid": "MTK1623:34HJIJKLP6318T4TVWAVTR08G09V4O", "dateTime": 1516052700521}, {"current_trial": 45, "trialdata": {"rt": -1, "trial_type": "single-stim", "stimulus": "<p id=\"stim\">9</p>", "internal_node_id": "0.0-35.0-1.0", "time_elapsed": 293699, "key_press": -1, "trial_index": 45}, "uniqueid": "MTK1623:34HJIJKLP6318T4TVWAVTR08G09V4O", "dateTime": 1516052701527}, {"current_trial": 46, "trialdata": {"rt": -1, "trial_type": "single-stim", "stimulus": "<p id=\"stim\">8</p>", "internal_node_id": "0.0-35.0-2.0", "time_elapsed": 294710, "key_press": -1, "trial_index": 46}, "uniqueid": "MTK1623:34HJIJKLP6318T4TVWAVTR08G09V4O", "dateTime": 1516052702538}, {"current_trial": 47, "trialdata": {"rt": -1, "trial_type": "single-stim", "stimulus": "<p id=\"stim\">7</p>", "internal_node_id": "0.0-35.0-3.0", "time_elapsed": 295722, "key_press": -1, "trial_index": 47}, "uniqueid": "MTK1623:34HJIJKLP6318T4TVWAVTR08G09V4O", "dateTime": 1516052703550}, {"current_trial": 48, "trialdata": {"rt": -1, "trial_type": "single-stim", "stimulus": "<p id=\"stim\">6</p>", "internal_node_id": "0.0-35.0-4.0", "time_elapsed": 296730, "key_press": -1, "trial_index": 48}, "uniqueid": "MTK1623:34HJIJKLP6318T4TVWAVTR08G09V4O", "dateTime": 1516052704558}, {"current_trial": 49, "trialdata": {"rt": -1, "trial_type": "single-stim", "stimulus": "<p id=\"stim\">5</p>", "internal_node_id": "0.0-35.0-5.0", "time_elapsed": 297734, "key_press": -1, "trial_index": 49}, "uniqueid": "MTK1623:34HJIJKLP6318T4TVWAVTR08G09V4O", "dateTime": 1516052705562}, {"current_trial": 50, "trialdata": {"rt": -1, "trial_type": "single-stim", "stimulus": "<p id=\"stim\">4</p>", "internal_node_id": "0.0-35.0-6.0", "time_elapsed": 298740, "key_press": -1, "trial_index": 50}, "uniqueid": "MTK1623:34HJIJKLP6318T4TVWAVTR08G09V4O", "dateTime": 1516052706568}, {"current_trial": 51, "trialdata": {"rt": -1, "trial_type": "single-stim", "stimulus": "<p id=\"stim\">3</p>", "internal_node_id": "0.0-35.0-7.0", "time_elapsed": 299740, "key_press": -1, "trial_index": 51}, "uniqueid": "MTK1623:34HJIJKLP6318T4TVWAVTR08G09V4O", "dateTime": 1516052707568}, {"current_trial": 52, "trialdata": {"rt": -1, "trial_type": "single-stim", "stimulus": "<p id=\"stim\">2</p>", "internal_node_id": "0.0-35.0-8.0", "time_elapsed": 300749, "key_press": -1, "trial_index": 52}, "uniqueid": "MTK1623:34HJIJKLP6318T4TVWAVTR08G09V4O", "dateTime": 1516052708577}, {"current_trial": 53, "trialdata": {"rt": -1, "trial_type": "single-stim", "stimulus": "<p id=\"stim\">1</p>", "internal_node_id": "0.0-35.0-9.0", "time_elapsed": 301754, "key_press": -1, "trial_index": 53}, "uniqueid": "MTK1623:34HJIJKLP6318T4TVWAVTR08G09V4O", "dateTime": 1516052709582}, {"current_trial": 54, "trialdata": {"rt": -1, "trial_type": "single-stim", "stimulus": "<p id=\"stim\">+</p>", "internal_node_id": "0.0-36.0-0.0", "time_elapsed": 303255, "key_press": -1, "type": "FIXATION", "trial_index": 54}, "uniqueid": "MTK1623:34HJIJKLP6318T4TVWAVTR08G09V4O", "dateTime": 1516052711083}, {"current_trial": 55, "trialdata": {"rt": -1, "trial_type": "single-stim", "word": "shirt", "stimulus": "<p id=\"stim\">SHIRT</p>", "conditions": [18, 1200, "v", 18000], "internal_node_id": "0.0-37.0", "trial": 1, "time_elapsed": 304460, "serialpos": 0, "key_press": -1, "wordID": 1286, "type": "PRES_VIS", "trial_index": 55}, "uniqueid": "MTK1623:34HJIJKLP6318T4TVWAVTR08G09V4O", "dateTime": 1516052712288}, {"current_trial": 56, "trialdata": {"rt": -1, "trial_type": "single-stim", "word": "guitar", "stimulus": "<p id=\"stim\">GUITAR</p>", "conditions": [18, 1200, "v", 18000], "internal_node_id": "0.0-38.0", "trial": 1, "time_elapsed": 306642, "serialpos": 1, "key_press": -1, "wordID": 669, "type": "PRES_VIS", "trial_index": 56}, "uniqueid": "MTK1623:34HJIJKLP6318T4TVWAVTR08G09V4O", "dateTime": 1516052714470}, {"current_trial": 57, "trialdata": {"rt": -1, "trial_type": "single-stim", "word": "blackboard", "stimulus": "<p id=\"stim\">BLACKBOARD</p>", "conditions": [18, 1200, "v", 18000], "internal_node_id": "0.0-39.0", "trial": 1, "time_elapsed": 309032, "serialpos": 2, "key_press": -1, "wordID": 132, "type": "PRES_VIS", "trial_index": 57}, "uniqueid": "MTK1623:34HJIJKLP6318T4TVWAVTR08G09V4O", "dateTime": 1516052716860}, {"current_trial": 58, "trialdata": {"rt": -1, "trial_type": "single-stim", "word": "item", "stimulus": "<p id=\"stim\">ITEM</p>", "conditions": [18, 1200, "v", 18000], "internal_node_id": "0.0-40.0", "trial": 1, "time_elapsed": 311216, "serialpos": 3, "key_press": -1, "wordID": 745, "type": "PRES_VIS", "trial_index": 58}, "uniqueid": "MTK1623:34HJIJKLP6318T4TVWAVTR08G09V4O", "dateTime": 1516052719045}, {"current_trial": 59, "trialdata": {"rt": -1, "trial_type": "single-stim", "word": "rifle", "stimulus": "<p id=\"stim\">RIFLE</p>", "conditions": [18, 1200, "v", 18000], "internal_node_id": "0.0-41.0", "trial": 1, "time_elapsed": 313260, "serialpos": 4, "key_press": -1, "wordID": 1191, "type": "PRES_VIS", "trial_index": 59}, "uniqueid": "MTK1623:34HJIJKLP6318T4TVWAVTR08G09V4O", "dateTime": 1516052721088}, {"current_trial": 60, "trialdata": {"rt": -1, "trial_type": "single-stim", "word": "supper", "stimulus": "<p id=\"stim\">SUPPER</p>", "conditions": [18, 1200, "v", 18000], "internal_node_id": "0.0-42.0", "trial": 1, "time_elapsed": 315586, "serialpos": 5, "key_press": -1, "wordID": 1410, "type": "PRES_VIS", "trial_index": 60}, "uniqueid": "MTK1623:34HJIJKLP6318T4TVWAVTR08G09V4O", "dateTime": 1516052723414}, {"current_trial": 61, "trialdata": {"rt": -1, "trial_type": "single-stim", "word": "scarecrow", "stimulus": "<p id=\"stim\">SCARECROW</p>", "conditions": [18, 1200, "v", 18000], "internal_node_id": "0.0-43.0", "trial": 1, "time_elapsed": 317644, "serialpos": 6, "key_press": -1, "wordID": 1244, "type": "PRES_VIS", "trial_index": 61}, "uniqueid": "MTK1623:34HJIJKLP6318T4TVWAVTR08G09V4O", "dateTime": 1516052725472}, {"current_trial": 62, "trialdata": {"rt": -1, "trial_type": "single-stim", "word": "lightning", "stimulus": "<p id=\"stim\">LIGHTNING</p>", "conditions": [18, 1200, "v", 18000], "internal_node_id": "0.0-44.0", "trial": 1, "time_elapsed": 319665, "serialpos": 7, "key_press": -1, "wordID": 819, "type": "PRES_VIS", "trial_index": 62}, "uniqueid": "MTK1623:34HJIJKLP6318T4TVWAVTR08G09V4O", "dateTime": 1516052727493}, {"current_trial": 63, "trialdata": {"rt": -1, "trial_type": "single-stim", "word": "candy", "stimulus": "<p id=\"stim\">CANDY</p>", "conditions": [18, 1200, "v", 18000], "internal_node_id": "0.0-45.0", "trial": 1, "time_elapsed": 322002, "serialpos": 8, "key_press": -1, "wordID": 229, "type": "PRES_VIS", "trial_index": 63}, "uniqueid": "MTK1623:34HJIJKLP6318T4TVWAVTR08G09V4O", "dateTime": 1516052729830}, {"current_trial": 64, "trialdata": {"rt": -1, "trial_type": "single-stim", "word": "keeper", "stimulus": "<p id=\"stim\">KEEPER</p>", "conditions": [18, 1200, "v", 18000], "internal_node_id": "0.0-46.0", "trial": 1, "time_elapsed": 324303, "serialpos": 9, "key_press": -1, "wordID": 768, "type": "PRES_VIS", "trial_index": 64}, "uniqueid": "MTK1623:34HJIJKLP6318T4TVWAVTR08G09V4O", "dateTime": 1516052732131}, {"current_trial": 65, "trialdata": {"rt": -1, "trial_type": "single-stim", "word": "rod", "stimulus": "<p id=\"stim\">ROD</p>", "conditions": [18, 1200, "v", 18000], "internal_node_id": "0.0-47.0", "trial": 1, "time_elapsed": 326506, "serialpos": 10, "key_press": -1, "wordID": 1202, "type": "PRES_VIS", "trial_index": 65}, "uniqueid": "MTK1623:34HJIJKLP6318T4TVWAVTR08G09V4O", "dateTime": 1516052734335}, {"current_trial": 66, "trialdata": {"rt": -1, "trial_type": "single-stim", "word": "switch", "stimulus": "<p id=\"stim\">SWITCH</p>", "conditions": [18, 1200, "v", 18000], "internal_node_id": "0.0-48.0", "trial": 1, "time_elapsed": 328630, "serialpos": 11, "key_press": -1, "wordID": 1421, "type": "PRES_VIS", "trial_index": 66}, "uniqueid": "MTK1623:34HJIJKLP6318T4TVWAVTR08G09V4O", "dateTime": 1516052736458}, {"current_trial": 67, "trialdata": {"rt": -1, "trial_type": "single-stim", "word": "child", "stimulus": "<p id=\"stim\">CHILD</p>", "conditions": [18, 1200, "v", 18000], "internal_node_id": "0.0-49.0", "trial": 1, "time_elapsed": 330793, "serialpos": 12, "key_press": -1, "wordID": 298, "type": "PRES_VIS", "trial_index": 67}, "uniqueid": "MTK1623:34HJIJKLP6318T4TVWAVTR08G09V4O", "dateTime": 1516052738622}, {"current_trial": 68, "trialdata": {"rt": -1, "trial_type": "single-stim", "word": "dragon", "stimulus": "<p id=\"stim\">DRAGON</p>", "conditions": [18, 1200, "v", 18000], "internal_node_id": "0.0-50.0", "trial": 1, "time_elapsed": 333010, "serialpos": 13, "key_press": -1, "wordID": 491, "type": "PRES_VIS", "trial_index": 68}, "uniqueid": "MTK1623:34HJIJKLP6318T4TVWAVTR08G09V4O", "dateTime": 1516052740838}, {"current_trial": 69, "trialdata": {"rt": -1, "trial_type": "single-stim", "word": "freezer", "stimulus": "<p id=\"stim\">FREEZER</p>", "conditions": [18, 1200, "v", 18000], "internal_node_id": "0.0-51.0", "trial": 1, "time_elapsed": 335168, "serialpos": 14, "key_press": -1, "wordID": 603, "type": "PRES_VIS", "trial_index": 69}, "uniqueid": "MTK1623:34HJIJKLP6318T4TVWAVTR08G09V4O", "dateTime": 1516052742996}, {"current_trial": 70, "trialdata": {"rt": -1, "trial_type": "single-stim", "word": "cashier", "stimulus": "<p id=\"stim\">CASHIER</p>", "conditions": [18, 1200, "v", 18000], "internal_node_id": "0.0-52.0", "trial": 1, "time_elapsed": 337308, "serialpos": 15, "key_press": -1, "wordID": 253, "type": "PRES_VIS", "trial_index": 70}, "uniqueid": "MTK1623:34HJIJKLP6318T4TVWAVTR08G09V4O", "dateTime": 1516052745136}, {"current_trial": 71, "trialdata": {"rt": -1, "trial_type": "single-stim", "word": "couch", "stimulus": "<p id=\"stim\">COUCH</p>", "conditions": [18, 1200, "v", 18000], "internal_node_id": "0.0-53.0", "trial": 1, "time_elapsed": 339694, "serialpos": 16, "key_press": -1, "wordID": 385, "type": "PRES_VIS", "trial_index": 71}, "uniqueid": "MTK1623:34HJIJKLP6318T4TVWAVTR08G09V4O", "dateTime": 1516052747523}, {"current_trial": 72, "trialdata": {"rt": -1, "trial_type": "single-stim", "word": "tuba", "stimulus": "<p id=\"stim\">TUBA</p>", "conditions": [18, 1200, "v", 18000], "internal_node_id": "0.0-54.0", "trial": 1, "time_elapsed": 341880, "serialpos": 17, "key_press": -1, "wordID": 1514, "type": "PRES_VIS", "trial_index": 72}, "uniqueid": "MTK1623:34HJIJKLP6318T4TVWAVTR08G09V4O", "dateTime": 1516052749708}, {"current_trial": 73, "trialdata": {"rt": -1, "trial_type": "single-stim", "stimulus": "", "internal_node_id": "0.0-55.0-0.0", "time_elapsed": 344231, "key_press": -1, "type": "PRE_RECALL_DELAY", "trial_index": 73}, "uniqueid": "MTK1623:34HJIJKLP6318T4TVWAVTR08G09V4O", "dateTime": 1516052752059}, {"current_trial": 74, "trialdata": {"rt": -1000, "trial_type": "single-audio", "stimulus": "/static/audio/400Hz.wav", "internal_node_id": "0.0-56.0", "time_elapsed": 344732, "key_press": -1, "type": "PRE_RECALL_ALERT", "trial_index": 74}, "uniqueid": "MTK1623:34HJIJKLP6318T4TVWAVTR08G09V4O", "dateTime": 1516052752560}, {"current_trial": 75, "trialdata": {"rt": [2812, 6012, 7820, 10412, 12876], "recwords": ["tuba", "catcher", "candy", "guitar", "shelf"], "key_times": [1820, 2004, 2212, 2332, 2812, 3524, 3732, 3740, 4428, 5268, 5500, 5596, 5708, 5852, 6012, 6724, 6924, 7012, 7132, 7252, 7820, 8820, 8948, 9132, 9804, 10052, 10284, 10412, 11220, 11356, 11476, 11636, 11781, 12876], "trial_type": "free-recall", "conditions": [18, 1200, "v", 18000], "internal_node_id": "0.0-57.0-0.0", "key_presses": [84, 85, 66, 65, 13, 67, 65, 83, 8, 84, 67, 72, 69, 82, 13, 67, 65, 78, 68, 89, 13, 71, 85, 73, 84, 65, 82, 13, 83, 72, 69, 76, 70, 13], "trial": 1, "time_elapsed": 404747, "type": "FREE_RECALL", "trial_index": 75}, "uniqueid": "MTK1623:34HJIJKLP6318T4TVWAVTR08G09V4O", "dateTime": 1516052812577}, {"current_trial": 76, "trialdata": {"rt": 30365, "trial_type": "text", "internal_node_id": "0.0-58.0", "time_elapsed": 437115, "key_press": 32, "type": "INSTRUCTIONS", "trial_index": 76}, "uniqueid": "MTK1623:34HJIJKLP6318T4TVWAVTR08G09V4O", "dateTime": 1516052844943}, {"current_trial": 77, "trialdata": {"rt": [4154, 9786, 15522], "trial_type": "math-distractor", "key_times": [3554, 4154, 8738, 8897, 9786, 14266, 14394, 15522], "responses": ["8", "17", "19"], "num2": [2, 7, 8, 4], "num3": [1, 2, 4, 6], "conditions": [12, 800, "v", 24000], "internal_node_id": "0.0-59.0", "key_presses": [56, 13, 49, 55, 13, 49, 57, 13], "trial": 2, "time_elapsed": 462133, "type": "DISTRACTOR", "trial_index": 77, "num1": [5, 8, 7, 5]}, "uniqueid": "MTK1623:34HJIJKLP6318T4TVWAVTR08G09V4O", "dateTime": 1516052869962}, {"current_trial": 78, "trialdata": {"rt": -1, "trial_type": "single-stim", "stimulus": "<p id=\"stim\">10</p>", "internal_node_id": "0.0-60.0-0.0", "time_elapsed": 465146, "key_press": -1, "trial_index": 78}, "uniqueid": "MTK1623:34HJIJKLP6318T4TVWAVTR08G09V4O", "dateTime": 1516052872974}, {"current_trial": 79, "trialdata": {"rt": -1, "trial_type": "single-stim", "stimulus": "<p id=\"stim\">9</p>", "internal_node_id": "0.0-60.0-1.0", "time_elapsed": 466158, "key_press": -1, "trial_index": 79}, "uniqueid": "MTK1623:34HJIJKLP6318T4TVWAVTR08G09V4O", "dateTime": 1516052873986}, {"current_trial": 80, "trialdata": {"rt": -1, "trial_type": "single-stim", "stimulus": "<p id=\"stim\">8</p>", "internal_node_id": "0.0-60.0-2.0", "time_elapsed": 467168, "key_press": -1, "trial_index": 80}, "uniqueid": "MTK1623:34HJIJKLP6318T4TVWAVTR08G09V4O", "dateTime": 1516052874996}, {"current_trial": 81, "trialdata": {"rt": -1, "trial_type": "single-stim", "stimulus": "<p id=\"stim\">7</p>", "internal_node_id": "0.0-60.0-3.0", "time_elapsed": 468182, "key_press": -1, "trial_index": 81}, "uniqueid": "MTK1623:34HJIJKLP6318T4TVWAVTR08G09V4O", "dateTime": 1516052876010}, {"current_trial": 82, "trialdata": {"rt": -1, "trial_type": "single-stim", "stimulus": "<p id=\"stim\">6</p>", "internal_node_id": "0.0-60.0-4.0", "time_elapsed": 469194, "key_press": -1, "trial_index": 82}, "uniqueid": "MTK1623:34HJIJKLP6318T4TVWAVTR08G09V4O", "dateTime": 1516052877022}, {"current_trial": 83, "trialdata": {"rt": -1, "trial_type": "single-stim", "stimulus": "<p id=\"stim\">5</p>", "internal_node_id": "0.0-60.0-5.0", "time_elapsed": 470201, "key_press": -1, "trial_index": 83}, "uniqueid": "MTK1623:34HJIJKLP6318T4TVWAVTR08G09V4O", "dateTime": 1516052878029}, {"current_trial": 84, "trialdata": {"rt": -1, "trial_type": "single-stim", "stimulus": "<p id=\"stim\">4</p>", "internal_node_id": "0.0-60.0-6.0", "time_elapsed": 471208, "key_press": -1, "trial_index": 84}, "uniqueid": "MTK1623:34HJIJKLP6318T4TVWAVTR08G09V4O", "dateTime": 1516052879036}, {"current_trial": 85, "trialdata": {"rt": -1, "trial_type": "single-stim", "stimulus": "<p id=\"stim\">3</p>", "internal_node_id": "0.0-60.0-7.0", "time_elapsed": 472210, "key_press": -1, "trial_index": 85}, "uniqueid": "MTK1623:34HJIJKLP6318T4TVWAVTR08G09V4O", "dateTime": 1516052880038}, {"current_trial": 86, "trialdata": {"rt": -1, "trial_type": "single-stim", "stimulus": "<p id=\"stim\">2</p>", "internal_node_id": "0.0-60.0-8.0", "time_elapsed": 473223, "key_press": -1, "trial_index": 86}, "uniqueid": "MTK1623:34HJIJKLP6318T4TVWAVTR08G09V4O", "dateTime": 1516052881051}, {"current_trial": 87, "trialdata": {"rt": -1, "trial_type": "single-stim", "stimulus": "<p id=\"stim\">1</p>", "internal_node_id": "0.0-60.0-9.0", "time_elapsed": 474235, "key_press": -1, "trial_index": 87}, "uniqueid": "MTK1623:34HJIJKLP6318T4TVWAVTR08G09V4O", "dateTime": 1516052882063}, {"current_trial": 88, "trialdata": {"rt": -1, "trial_type": "single-stim", "stimulus": "<p id=\"stim\">+</p>", "internal_node_id": "0.0-61.0-0.0", "time_elapsed": 475739, "key_press": -1, "type": "FIXATION", "trial_index": 88}, "uniqueid": "MTK1623:34HJIJKLP6318T4TVWAVTR08G09V4O", "dateTime": 1516052883567}, {"current_trial": 89, "trialdata": {"rt": -1, "trial_type": "single-stim", "word": "scarf", "stimulus": "<p id=\"stim\">SCARF</p>", "conditions": [12, 800, "v", 24000], "internal_node_id": "0.0-62.0", "trial": 2, "time_elapsed": 476545, "serialpos": 0, "key_press": -1, "wordID": 1245, "type": "PRES_VIS", "trial_index": 89}, "uniqueid": "MTK1623:34HJIJKLP6318T4TVWAVTR08G09V4O", "dateTime": 1516052884373}, {"current_trial": 90, "trialdata": {"rt": -1, "trial_type": "single-stim", "word": "atom", "stimulus": "<p id=\"stim\">ATOM</p>", "conditions": [12, 800, "v", 24000], "internal_node_id": "0.0-63.0", "trial": 2, "time_elapsed": 478473, "serialpos": 1, "key_press": -1, "wordID": 54, "type": "PRES_VIS", "trial_index": 90}, "uniqueid": "MTK1623:34HJIJKLP6318T4TVWAVTR08G09V4O", "dateTime": 1516052886302}, {"current_trial": 91, "trialdata": {"rt": -1, "trial_type": "single-stim", "word": "backbone", "stimulus": "<p id=\"stim\">BACKBONE</p>", "conditions": [12, 800, "v", 24000], "internal_node_id": "0.0-64.0", "trial": 2, "time_elapsed": 480259, "serialpos": 2, "key_press": -1, "wordID": 65, "type": "PRES_VIS", "trial_index": 91}, "uniqueid": "MTK1623:34HJIJKLP6318T4TVWAVTR08G09V4O", "dateTime": 1516052888087}, {"current_trial": 92, "trialdata": {"rt": -1, "trial_type": "single-stim", "word": "blockade", "stimulus": "<p id=\"stim\">BLOCKADE</p>", "conditions": [12, 800, "v", 24000], "internal_node_id": "0.0-65.0", "trial": 2, "time_elapsed": 481952, "serialpos": 3, "key_press": -1, "wordID": 136, "type": "PRES_VIS", "trial_index": 92}, "uniqueid": "MTK1623:34HJIJKLP6318T4TVWAVTR08G09V4O", "dateTime": 1516052889781}, {"current_trial": 93, "trialdata": {"rt": -1, "trial_type": "single-stim", "word": "dress", "stimulus": "<p id=\"stim\">DRESS</p>", "conditions": [12, 800, "v", 24000], "internal_node_id": "0.0-66.0", "trial": 2, "time_elapsed": 483761, "serialpos": 4, "key_press": -1, "wordID": 494, "type": "PRES_VIS", "trial_index": 93}, "uniqueid": "MTK1623:34HJIJKLP6318T4TVWAVTR08G09V4O", "dateTime": 1516052891589}, {"current_trial": 94, "trialdata": {"rt": -1, "trial_type": "single-stim", "word": "razor", "stimulus": "<p id=\"stim\">RAZOR</p>", "conditions": [12, 800, "v", 24000], "internal_node_id": "0.0-67.0", "trial": 2, "time_elapsed": 485549, "serialpos": 5, "key_press": -1, "wordID": 1170, "type": "PRES_VIS", "trial_index": 94}, "uniqueid": "MTK1623:34HJIJKLP6318T4TVWAVTR08G09V4O", "dateTime": 1516052893377}, {"current_trial": 95, "trialdata": {"rt": -1, "trial_type": "single-stim", "word": "peanut", "stimulus": "<p id=\"stim\">PEANUT</p>", "conditions": [12, 800, "v", 24000], "internal_node_id": "0.0-68.0", "trial": 2, "time_elapsed": 487183, "serialpos": 6, "key_press": -1, "wordID": 1031, "type": "PRES_VIS", "trial_index": 95}, "uniqueid": "MTK1623:34HJIJKLP6318T4TVWAVTR08G09V4O", "dateTime": 1516052895011}, {"current_trial": 96, "trialdata": {"rt": -1, "trial_type": "single-stim", "word": "harp", "stimulus": "<p id=\"stim\">HARP</p>", "conditions": [12, 800, "v", 24000], "internal_node_id": "0.0-69.0", "trial": 2, "time_elapsed": 489068, "serialpos": 7, "key_press": -1, "wordID": 688, "type": "PRES_VIS", "trial_index": 96}, "uniqueid": "MTK1623:34HJIJKLP6318T4TVWAVTR08G09V4O", "dateTime": 1516052896896}, {"current_trial": 97, "trialdata": {"rt": -1, "trial_type": "single-stim", "word": "seafood", "stimulus": "<p id=\"stim\">SEAFOOD</p>", "conditions": [12, 800, "v", 24000], "internal_node_id": "0.0-70.0", "trial": 2, "time_elapsed": 490840, "serialpos": 8, "key_press": -1, "wordID": 1259, "type": "PRES_VIS", "trial_index": 97}, "uniqueid": "MTK1623:34HJIJKLP6318T4TVWAVTR08G09V4O", "dateTime": 1516052898668}, {"current_trial": 98, "trialdata": {"rt": -1, "trial_type": "single-stim", "word": "thief", "stimulus": "<p id=\"stim\">THIEF</p>", "conditions": [12, 800, "v", 24000], "internal_node_id": "0.0-71.0", "trial": 2, "time_elapsed": 492619, "serialpos": 9, "key_press": -1, "wordID": 1455, "type": "PRES_VIS", "trial_index": 98}, "uniqueid": "MTK1623:34HJIJKLP6318T4TVWAVTR08G09V4O", "dateTime": 1516052900448}, {"current_trial": 99, "trialdata": {"rt": -1, "trial_type": "single-stim", "word": "robber", "stimulus": "<p id=\"stim\">ROBBER</p>", "conditions": [12, 800, "v", 24000], "internal_node_id": "0.0-72.0", "trial": 2, "time_elapsed": 494601, "serialpos": 10, "key_press": -1, "wordID": 1196, "type": "PRES_VIS", "trial_index": 99}, "uniqueid": "MTK1623:34HJIJKLP6318T4TVWAVTR08G09V4O", "dateTime": 1516052902430}, {"current_trial": 100, "trialdata": {"rt": -1, "trial_type": "single-stim", "word": "spider", "stimulus": "<p id=\"stim\">SPIDER</p>", "conditions": [12, 800, "v", 24000], "internal_node_id": "0.0-73.0", "trial": 2, "time_elapsed": 496485, "serialpos": 11, "key_press": -1, "wordID": 1350, "type": "PRES_VIS", "trial_index": 100}, "uniqueid": "MTK1623:34HJIJKLP6318T4TVWAVTR08G09V4O", "dateTime": 1516052904313}, {"current_trial": 101, "trialdata": {"rt": -1, "trial_type": "single-stim", "stimulus": "", "internal_node_id": "0.0-74.0-0.0", "time_elapsed": 498714, "key_press": -1, "type": "PRE_RECALL_DELAY", "trial_index": 101}, "uniqueid": "MTK1623:34HJIJKLP6318T4TVWAVTR08G09V4O", "dateTime": 1516052906542}, {"current_trial": 102, "trialdata": {"rt": -1000, "trial_type": "single-audio", "stimulus": "/static/audio/400Hz.wav", "internal_node_id": "0.0-75.0", "time_elapsed": 499221, "key_press": -1, "type": "PRE_RECALL_ALERT", "trial_index": 102}, "uniqueid": "MTK1623:34HJIJKLP6318T4TVWAVTR08G09V4O", "dateTime": 1516052907049}, {"current_trial": 103, "trialdata": {"rt": [2452, 3852, 7516, 11828, 14812, 18803], "recwords": ["spider", "robber", "blockade", "thief", "scarf", "peanut"], "key_times": [1108, 1235, 1428, 1524, 1692, 1844, 2452, 2956, 3060, 3204, 3364, 3580, 3732, 3852, 4516, 4620, 4795, 5500, 5620, 6084, 6564, 6732, 7516, 8108, 8220, 8364, 8460, 8676, 9652, 9860, 10076, 10852, 10988, 11276, 11828, 13388, 13604, 13804, 14068, 14236, 14812, 17420, 17564, 17740, 18012, 18116, 18243, 18803, 59604, 59827, 59972], "trial_type": "free-recall", "conditions": [12, 800, "v", 24000], "internal_node_id": "0.0-76.0-0.0", "key_presses": [83, 80, 73, 68, 69, 82, 13, 82, 79, 66, 66, 69, 82, 13, 66, 76, 79, 67, 75, 65, 68, 69, 13, 84, 72, 69, 73, 70, 8, 8, 8, 73, 69, 70, 13, 83, 67, 65, 82, 70, 13, 80, 69, 65, 78, 85, 84, 13, 68, 82, 69], "trial": 2, "time_elapsed": 559235, "type": "FREE_RECALL", "trial_index": 103}, "uniqueid": "MTK1623:34HJIJKLP6318T4TVWAVTR08G09V4O", "dateTime": 1516052967065}, {"current_trial": 104, "trialdata": {"rt": 1539, "trial_type": "text", "internal_node_id": "0.0-77.0", "time_elapsed": 562779, "key_press": 32, "type": "INSTRUCTIONS", "trial_index": 104}, "uniqueid": "MTK1623:34HJIJKLP6318T4TVWAVTR08G09V4O", "dateTime": 1516052970607}, {"current_trial": 105, "trialdata": {"rt": [3744, 7592], "trial_type": "math-distractor", "key_times": [2704, 3744, 7384, 7592, 11080, 11288], "responses": ["7", "9"], "num2": [2, 2, 3], "num3": [1, 3, 4], "conditions": [12, 1600, "v", 12000], "internal_node_id": "0.0-78.0", "key_presses": [55, 13, 57, 13, 49, 50], "trial": 3, "time_elapsed": 576798, "type": "DISTRACTOR", "trial_index": 105, "num1": [4, 4, 4]}, "uniqueid": "MTK1623:34HJIJKLP6318T4TVWAVTR08G09V4O", "dateTime": 1516052984626}, {"current_trial": 106, "trialdata": {"rt": -1, "trial_type": "single-stim", "stimulus": "<p id=\"stim\">10</p>", "internal_node_id": "0.0-79.0-0.0", "time_elapsed": 579806, "key_press": -1, "trial_index": 106}, "uniqueid": "MTK1623:34HJIJKLP6318T4TVWAVTR08G09V4O", "dateTime": 1516052987634}, {"current_trial": 107, "trialdata": {"rt": -1, "trial_type": "single-stim", "stimulus": "<p id=\"stim\">9</p>", "internal_node_id": "0.0-79.0-1.0", "time_elapsed": 580819, "key_press": -1, "trial_index": 107}, "uniqueid": "MTK1623:34HJIJKLP6318T4TVWAVTR08G09V4O", "dateTime": 1516052988647}, {"current_trial": 108, "trialdata": {"rt": -1, "trial_type": "single-stim", "stimulus": "<p id=\"stim\">8</p>", "internal_node_id": "0.0-79.0-2.0", "time_elapsed": 581823, "key_press": -1, "trial_index": 108}, "uniqueid": "MTK1623:34HJIJKLP6318T4TVWAVTR08G09V4O", "dateTime": 1516052989651}, {"current_trial": 109, "trialdata": {"rt": -1, "trial_type": "single-stim", "stimulus": "<p id=\"stim\">7</p>", "internal_node_id": "0.0-79.0-3.0", "time_elapsed": 582828, "key_press": -1, "trial_index": 109}, "uniqueid": "MTK1623:34HJIJKLP6318T4TVWAVTR08G09V4O", "dateTime": 1516052990657}, {"current_trial": 110, "trialdata": {"rt": -1, "trial_type": "single-stim", "stimulus": "<p id=\"stim\">6</p>", "internal_node_id": "0.0-79.0-4.0", "time_elapsed": 583833, "key_press": -1, "trial_index": 110}, "uniqueid": "MTK1623:34HJIJKLP6318T4TVWAVTR08G09V4O", "dateTime": 1516052991662}, {"current_trial": 111, "trialdata": {"rt": -1, "trial_type": "single-stim", "stimulus": "<p id=\"stim\">5</p>", "internal_node_id": "0.0-79.0-5.0", "time_elapsed": 584841, "key_press": -1, "trial_index": 111}, "uniqueid": "MTK1623:34HJIJKLP6318T4TVWAVTR08G09V4O", "dateTime": 1516052992669}, {"current_trial": 112, "trialdata": {"rt": -1, "trial_type": "single-stim", "stimulus": "<p id=\"stim\">4</p>", "internal_node_id": "0.0-79.0-6.0", "time_elapsed": 585854, "key_press": -1, "trial_index": 112}, "uniqueid": "MTK1623:34HJIJKLP6318T4TVWAVTR08G09V4O", "dateTime": 1516052993682}, {"current_trial": 113, "trialdata": {"rt": -1, "trial_type": "single-stim", "stimulus": "<p id=\"stim\">3</p>", "internal_node_id": "0.0-79.0-7.0", "time_elapsed": 586861, "key_press": -1, "trial_index": 113}, "uniqueid": "MTK1623:34HJIJKLP6318T4TVWAVTR08G09V4O", "dateTime": 1516052994689}, {"current_trial": 114, "trialdata": {"rt": -1, "trial_type": "single-stim", "stimulus": "<p id=\"stim\">2</p>", "internal_node_id": "0.0-79.0-8.0", "time_elapsed": 587871, "key_press": -1, "trial_index": 114}, "uniqueid": "MTK1623:34HJIJKLP6318T4TVWAVTR08G09V4O", "dateTime": 1516052995699}, {"current_trial": 115, "trialdata": {"rt": -1, "trial_type": "single-stim", "stimulus": "<p id=\"stim\">1</p>", "internal_node_id": "0.0-79.0-9.0", "time_elapsed": 588879, "key_press": -1, "trial_index": 115}, "uniqueid": "MTK1623:34HJIJKLP6318T4TVWAVTR08G09V4O", "dateTime": 1516052996708}, {"current_trial": 116, "trialdata": {"rt": -1, "trial_type": "single-stim", "stimulus": "<p id=\"stim\">+</p>", "internal_node_id": "0.0-80.0-0.0", "time_elapsed": 590392, "key_press": -1, "type": "FIXATION", "trial_index": 116}, "uniqueid": "MTK1623:34HJIJKLP6318T4TVWAVTR08G09V4O", "dateTime": 1516052998220}, {"current_trial": 117, "trialdata": {"rt": -1, "trial_type": "single-stim", "word": "quarter", "stimulus": "<p id=\"stim\">QUARTER</p>", "conditions": [12, 1600, "v", 12000], "internal_node_id": "0.0-81.0", "trial": 3, "time_elapsed": 591999, "serialpos": 0, "key_press": -1, "wordID": 1147, "type": "PRES_VIS", "trial_index": 117}, "uniqueid": "MTK1623:34HJIJKLP6318T4TVWAVTR08G09V4O", "dateTime": 1516052999827}, {"current_trial": 118, "trialdata": {"rt": -1, "trial_type": "single-stim", "word": "seagull", "stimulus": "<p id=\"stim\">SEAGULL</p>", "conditions": [12, 1600, "v", 12000], "internal_node_id": "0.0-82.0", "trial": 3, "time_elapsed": 594792, "serialpos": 1, "key_press": -1, "wordID": 1260, "type": "PRES_VIS", "trial_index": 118}, "uniqueid": "MTK1623:34HJIJKLP6318T4TVWAVTR08G09V4O", "dateTime": 1516053002620}, {"current_trial": 119, "trialdata": {"rt": -1, "trial_type": "single-stim", "word": "parrot", "stimulus": "<p id=\"stim\">PARROT</p>", "conditions": [12, 1600, "v", 12000], "internal_node_id": "0.0-83.0", "trial": 3, "time_elapsed": 597335, "serialpos": 2, "key_press": -1, "wordID": 1014, "type": "PRES_VIS", "trial_index": 119}, "uniqueid": "MTK1623:34HJIJKLP6318T4TVWAVTR08G09V4O", "dateTime": 1516053005163}, {"current_trial": 120, "trialdata": {"rt": -1, "trial_type": "single-stim", "word": "eagle", "stimulus": "<p id=\"stim\">EAGLE</p>", "conditions": [12, 1600, "v", 12000], "internal_node_id": "0.0-84.0", "trial": 3, "time_elapsed": 599931, "serialpos": 3, "key_press": -1, "wordID": 511, "type": "PRES_VIS", "trial_index": 120}, "uniqueid": "MTK1623:34HJIJKLP6318T4TVWAVTR08G09V4O", "dateTime": 1516053007759}, {"current_trial": 121, "trialdata": {"rt": -1, "trial_type": "single-stim", "word": "garlic", "stimulus": "<p id=\"stim\">GARLIC</p>", "conditions": [12, 1600, "v", 12000], "internal_node_id": "0.0-85.0", "trial": 3, "time_elapsed": 602506, "serialpos": 4, "key_press": -1, "wordID": 623, "type": "PRES_VIS", "trial_index": 121}, "uniqueid": "MTK1623:34HJIJKLP6318T4TVWAVTR08G09V4O", "dateTime": 1516053010334}, {"current_trial": 122, "trialdata": {"rt": -1, "trial_type": "single-stim", "word": "cabbage", "stimulus": "<p id=\"stim\">CABBAGE</p>", "conditions": [12, 1600, "v", 12000], "internal_node_id": "0.0-86.0", "trial": 3, "time_elapsed": 605281, "serialpos": 5, "key_press": -1, "wordID": 209, "type": "PRES_VIS", "trial_index": 122}, "uniqueid": "MTK1623:34HJIJKLP6318T4TVWAVTR08G09V4O", "dateTime": 1516053013109}, {"current_trial": 123, "trialdata": {"rt": -1, "trial_type": "single-stim", "word": "receipt", "stimulus": "<p id=\"stim\">RECEIPT</p>", "conditions": [12, 1600, "v", 12000], "internal_node_id": "0.0-87.0", "trial": 3, "time_elapsed": 607949, "serialpos": 6, "key_press": -1, "wordID": 1172, "type": "PRES_VIS", "trial_index": 123}, "uniqueid": "MTK1623:34HJIJKLP6318T4TVWAVTR08G09V4O", "dateTime": 1516053015777}, {"current_trial": 124, "trialdata": {"rt": -1, "trial_type": "single-stim", "word": "tweezers", "stimulus": "<p id=\"stim\">TWEEZERS</p>", "conditions": [12, 1600, "v", 12000], "internal_node_id": "0.0-88.0", "trial": 3, "time_elapsed": 610463, "serialpos": 7, "key_press": -1, "wordID": 1525, "type": "PRES_VIS", "trial_index": 124}, "uniqueid": "MTK1623:34HJIJKLP6318T4TVWAVTR08G09V4O", "dateTime": 1516053018291}, {"current_trial": 125, "trialdata": {"rt": -1, "trial_type": "single-stim", "word": "sunrise", "stimulus": "<p id=\"stim\">SUNRISE</p>", "conditions": [12, 1600, "v", 12000], "internal_node_id": "0.0-89.0", "trial": 3, "time_elapsed": 613101, "serialpos": 8, "key_press": -1, "wordID": 1406, "type": "PRES_VIS", "trial_index": 125}, "uniqueid": "MTK1623:34HJIJKLP6318T4TVWAVTR08G09V4O", "dateTime": 1516053020929}, {"current_trial": 126, "trialdata": {"rt": -1, "trial_type": "single-stim", "word": "diner", "stimulus": "<p id=\"stim\">DINER</p>", "conditions": [12, 1600, "v", 12000], "internal_node_id": "0.0-90.0", "trial": 3, "time_elapsed": 615505, "serialpos": 9, "key_press": -1, "wordID": 466, "type": "PRES_VIS", "trial_index": 126}, "uniqueid": "MTK1623:34HJIJKLP6318T4TVWAVTR08G09V4O", "dateTime": 1516053023333}, {"current_trial": 127, "trialdata": {"rt": -1, "trial_type": "single-stim", "word": "inmate", "stimulus": "<p id=\"stim\">INMATE</p>", "conditions": [12, 1600, "v", 12000], "internal_node_id": "0.0-91.0", "trial": 3, "time_elapsed": 618105, "serialpos": 10, "key_press": -1, "wordID": 737, "type": "PRES_VIS", "trial_index": 127}, "uniqueid": "MTK1623:34HJIJKLP6318T4TVWAVTR08G09V4O", "dateTime": 1516053025933}, {"current_trial": 128, "trialdata": {"rt": -1, "trial_type": "single-stim", "word": "sunset", "stimulus": "<p id=\"stim\">SUNSET</p>", "conditions": [12, 1600, "v", 12000], "internal_node_id": "0.0-92.0", "trial": 3, "time_elapsed": 620607, "serialpos": 11, "key_press": -1, "wordID": 1407, "type": "PRES_VIS", "trial_index": 128}, "uniqueid": "MTK1623:34HJIJKLP6318T4TVWAVTR08G09V4O", "dateTime": 1516053028435}, {"current_trial": 129, "trialdata": {"rt": -1, "trial_type": "single-stim", "stimulus": "", "internal_node_id": "0.0-93.0-0.0", "time_elapsed": 622859, "key_press": -1, "type": "PRE_RECALL_DELAY", "trial_index": 129}, "uniqueid": "MTK1623:34HJIJKLP6318T4TVWAVTR08G09V4O", "dateTime": 1516053030687}, {"current_trial": 130, "trialdata": {"rt": -1000, "trial_type": "single-audio", "stimulus": "/static/audio/400Hz.wav", "internal_node_id": "0.0-94.0", "time_elapsed": 623369, "key_press": -1, "type": "PRE_RECALL_ALERT", "trial_index": 130}, "uniqueid": "MTK1623:34HJIJKLP6318T4TVWAVTR08G09V4O", "dateTime": 1516053031197}, {"current_trial": 131, "trialdata": {"rt": [2367, 5990, 12022, 14599, 16430, 25815], "recwords": ["sunset", "inmate", "tweezers", "seagull", "parrot", "receipt"], "key_times": [1183, 1334, 1598, 1750, 1958, 2167, 2367, 3111, 3350, 3775, 4455, 5239, 5351, 5671, 5878, 5990, 8623, 9334, 9687, 9862, 10287, 10527, 10702, 10934, 12022, 12878, 13078, 13271, 13574, 13710, 14127, 14262, 14599, 15431, 15542, 15830, 15983, 16062, 16190, 16430, 24190, 24358, 24542, 24742, 24887, 25150, 25288, 25815], "trial_type": "free-recall", "conditions": [12, 1600, "v", 12000], "internal_node_id": "0.0-95.0-0.0", "key_presses": [83, 85, 78, 83, 69, 84, 13, 73, 78, 65, 8, 77, 65, 84, 69, 13, 84, 87, 69, 69, 90, 69, 82, 83, 13, 83, 69, 65, 71, 85, 76, 76, 13, 80, 65, 82, 82, 79, 84, 13, 82, 69, 67, 69, 73, 80, 84, 13], "trial": 3, "time_elapsed": 683381, "type": "FREE_RECALL", "trial_index": 131}, "uniqueid": "MTK1623:34HJIJKLP6318T4TVWAVTR08G09V4O", "dateTime": 1516053091211}, {"current_trial": 132, "trialdata": {"rt": 1337, "trial_type": "text", "internal_node_id": "0.0-96.0", "time_elapsed": 686731, "key_press": 32, "type": "INSTRUCTIONS", "trial_index": 132}, "uniqueid": "MTK1623:34HJIJKLP6318T4TVWAVTR08G09V4O", "dateTime": 1516053094559}, {"current_trial": 133, "trialdata": {"rt": [6827, 10403, 16107, 19539, 23379], "trial_type": "math-distractor", "key_times": [6339, 6547, 6827, 9491, 9571, 10403, 15163, 15299, 16107, 18811, 19155, 19539, 22971, 23147, 23379], "responses": ["22", "18", "17", "12", "11"], "num2": [8, 7, 4, 5, 6, 4], "num3": [5, 8, 6, 3, 3, 1], "conditions": [12, 1600, "v", 24000], "internal_node_id": "0.0-97.0", "key_presses": [50, 50, 13, 49, 56, 13, 49, 55, 13, 49, 50, 13, 49, 49, 13], "trial": 4, "time_elapsed": 712746, "type": "DISTRACTOR", "trial_index": 133, "num1": [9, 3, 7, 4, 2, 7]}, "uniqueid": "MTK1623:34HJIJKLP6318T4TVWAVTR08G09V4O", "dateTime": 1516053120574}, {"current_trial": 134, "trialdata": {"rt": -1, "trial_type": "single-stim", "stimulus": "<p id=\"stim\">10</p>", "internal_node_id": "0.0-98.0-0.0", "time_elapsed": 715759, "key_press": -1, "trial_index": 134}, "uniqueid": "MTK1623:34HJIJKLP6318T4TVWAVTR08G09V4O", "dateTime": 1516053123587}, {"current_trial": 135, "trialdata": {"rt": -1, "trial_type": "single-stim", "stimulus": "<p id=\"stim\">9</p>", "internal_node_id": "0.0-98.0-1.0", "time_elapsed": 716765, "key_press": -1, "trial_index": 135}, "uniqueid": "MTK1623:34HJIJKLP6318T4TVWAVTR08G09V4O", "dateTime": 1516053124593}, {"current_trial": 136, "trialdata": {"rt": -1, "trial_type": "single-stim", "stimulus": "<p id=\"stim\">8</p>", "internal_node_id": "0.0-98.0-2.0", "time_elapsed": 717769, "key_press": -1, "trial_index": 136}, "uniqueid": "MTK1623:34HJIJKLP6318T4TVWAVTR08G09V4O", "dateTime": 1516053125597}, {"current_trial": 137, "trialdata": {"rt": -1, "trial_type": "single-stim", "stimulus": "<p id=\"stim\">7</p>", "internal_node_id": "0.0-98.0-3.0", "time_elapsed": 718772, "key_press": -1, "trial_index": 137}, "uniqueid": "MTK1623:34HJIJKLP6318T4TVWAVTR08G09V4O", "dateTime": 1516053126600}, {"current_trial": 138, "trialdata": {"rt": -1, "trial_type": "single-stim", "stimulus": "<p id=\"stim\">6</p>", "internal_node_id": "0.0-98.0-4.0", "time_elapsed": 719781, "key_press": -1, "trial_index": 138}, "uniqueid": "MTK1623:34HJIJKLP6318T4TVWAVTR08G09V4O", "dateTime": 1516053127609}, {"current_trial": 139, "trialdata": {"rt": -1, "trial_type": "single-stim", "stimulus": "<p id=\"stim\">5</p>", "internal_node_id": "0.0-98.0-5.0", "time_elapsed": 720783, "key_press": -1, "trial_index": 139}, "uniqueid": "MTK1623:34HJIJKLP6318T4TVWAVTR08G09V4O", "dateTime": 1516053128611}, {"current_trial": 140, "trialdata": {"rt": -1, "trial_type": "single-stim", "stimulus": "<p id=\"stim\">4</p>", "internal_node_id": "0.0-98.0-6.0", "time_elapsed": 721792, "key_press": -1, "trial_index": 140}, "uniqueid": "MTK1623:34HJIJKLP6318T4TVWAVTR08G09V4O", "dateTime": 1516053129620}, {"current_trial": 141, "trialdata": {"rt": -1, "trial_type": "single-stim", "stimulus": "<p id=\"stim\">3</p>", "internal_node_id": "0.0-98.0-7.0", "time_elapsed": 722796, "key_press": -1, "trial_index": 141}, "uniqueid": "MTK1623:34HJIJKLP6318T4TVWAVTR08G09V4O", "dateTime": 1516053130624}, {"current_trial": 142, "trialdata": {"rt": -1, "trial_type": "single-stim", "stimulus": "<p id=\"stim\">2</p>", "internal_node_id": "0.0-98.0-8.0", "time_elapsed": 723808, "key_press": -1, "trial_index": 142}, "uniqueid": "MTK1623:34HJIJKLP6318T4TVWAVTR08G09V4O", "dateTime": 1516053131636}, {"current_trial": 143, "trialdata": {"rt": -1, "trial_type": "single-stim", "stimulus": "<p id=\"stim\">1</p>", "internal_node_id": "0.0-98.0-9.0", "time_elapsed": 724818, "key_press": -1, "trial_index": 143}, "uniqueid": "MTK1623:34HJIJKLP6318T4TVWAVTR08G09V4O", "dateTime": 1516053132646}, {"current_trial": 144, "trialdata": {"rt": -1, "trial_type": "single-stim", "stimulus": "<p id=\"stim\">+</p>", "internal_node_id": "0.0-99.0-0.0", "time_elapsed": 726320, "key_press": -1, "type": "FIXATION", "trial_index": 144}, "uniqueid": "MTK1623:34HJIJKLP6318T4TVWAVTR08G09V4O", "dateTime": 1516053134148}, {"current_trial": 145, "trialdata": {"rt": -1, "trial_type": "single-stim", "word": "shovel", "stimulus": "<p id=\"stim\">SHOVEL</p>", "conditions": [12, 1600, "v", 24000], "internal_node_id": "0.0-100.0", "trial": 4, "time_elapsed": 727922, "serialpos": 0, "key_press": -1, "wordID": 1294, "type": "PRES_VIS", "trial_index": 145}, "uniqueid": "MTK1623:34HJIJKLP6318T4TVWAVTR08G09V4O", "dateTime": 1516053135750}, {"current_trial": 146, "trialdata": {"rt": -1, "trial_type": "single-stim", "word": "tablet", "stimulus": "<p id=\"stim\">TABLET</p>", "conditions": [12, 1600, "v", 24000], "internal_node_id": "0.0-101.0", "trial": 4, "time_elapsed": 730692, "serialpos": 1, "key_press": -1, "wordID": 1426, "type": "PRES_VIS", "trial_index": 146}, "uniqueid": "MTK1623:34HJIJKLP6318T4TVWAVTR08G09V4O", "dateTime": 1516053138521}, {"current_trial": 147, "trialdata": {"rt": -1, "trial_type": "single-stim", "word": "beaver", "stimulus": "<p id=\"stim\">BEAVER</p>", "conditions": [12, 1600, "v", 24000], "internal_node_id": "0.0-102.0", "trial": 4, "time_elapsed": 733487, "serialpos": 2, "key_press": -1, "wordID": 108, "type": "PRES_VIS", "trial_index": 147}, "uniqueid": "MTK1623:34HJIJKLP6318T4TVWAVTR08G09V4O", "dateTime": 1516053141315}, {"current_trial": 148, "trialdata": {"rt": -1, "trial_type": "single-stim", "word": "agent", "stimulus": "<p id=\"stim\">AGENT</p>", "conditions": [12, 1600, "v", 24000], "internal_node_id": "0.0-103.0", "trial": 4, "time_elapsed": 736061, "serialpos": 3, "key_press": -1, "wordID": 9, "type": "PRES_VIS", "trial_index": 148}, "uniqueid": "MTK1623:34HJIJKLP6318T4TVWAVTR08G09V4O", "dateTime": 1516053143889}, {"current_trial": 149, "trialdata": {"rt": -1, "trial_type": "single-stim", "word": "permit", "stimulus": "<p id=\"stim\">PERMIT</p>", "conditions": [12, 1600, "v", 24000], "internal_node_id": "0.0-104.0", "trial": 4, "time_elapsed": 738676, "serialpos": 4, "key_press": -1, "wordID": 1050, "type": "PRES_VIS", "trial_index": 149}, "uniqueid": "MTK1623:34HJIJKLP6318T4TVWAVTR08G09V4O", "dateTime": 1516053146504}, {"current_trial": 150, "trialdata": {"rt": -1, "trial_type": "single-stim", "word": "scissors", "stimulus": "<p id=\"stim\">SCISSORS</p>", "conditions": [12, 1600, "v", 24000], "internal_node_id": "0.0-105.0", "trial": 4, "time_elapsed": 741275, "serialpos": 5, "key_press": -1, "wordID": 1249, "type": "PRES_VIS", "trial_index": 150}, "uniqueid": "MTK1623:34HJIJKLP6318T4TVWAVTR08G09V4O", "dateTime": 1516053149103}, {"current_trial": 151, "trialdata": {"rt": -1, "trial_type": "single-stim", "word": "mailbox", "stimulus": "<p id=\"stim\">MAILBOX</p>", "conditions": [12, 1600, "v", 24000], "internal_node_id": "0.0-106.0", "trial": 4, "time_elapsed": 743871, "serialpos": 6, "key_press": -1, "wordID": 856, "type": "PRES_VIS", "trial_index": 151}, "uniqueid": "MTK1623:34HJIJKLP6318T4TVWAVTR08G09V4O", "dateTime": 1516053151699}, {"current_trial": 152, "trialdata": {"rt": -1, "trial_type": "single-stim", "word": "knapsack", "stimulus": "<p id=\"stim\">KNAPSACK</p>", "conditions": [12, 1600, "v", 24000], "internal_node_id": "0.0-107.0", "trial": 4, "time_elapsed": 746484, "serialpos": 7, "key_press": -1, "wordID": 782, "type": "PRES_VIS", "trial_index": 152}, "uniqueid": "MTK1623:34HJIJKLP6318T4TVWAVTR08G09V4O", "dateTime": 1516053154313}, {"current_trial": 153, "trialdata": {"rt": -1, "trial_type": "single-stim", "word": "bureau", "stimulus": "<p id=\"stim\">BUREAU</p>", "conditions": [12, 1600, "v", 24000], "internal_node_id": "0.0-108.0", "trial": 4, "time_elapsed": 748934, "serialpos": 8, "key_press": -1, "wordID": 198, "type": "PRES_VIS", "trial_index": 153}, "uniqueid": "MTK1623:34HJIJKLP6318T4TVWAVTR08G09V4O", "dateTime": 1516053156763}, {"current_trial": 154, "trialdata": {"rt": -1, "trial_type": "single-stim", "word": "woman", "stimulus": "<p id=\"stim\">WOMAN</p>", "conditions": [12, 1600, "v", 24000], "internal_node_id": "0.0-109.0", "trial": 4, "time_elapsed": 751457, "serialpos": 9, "key_press": -1, "wordID": 1619, "type": "PRES_VIS", "trial_index": 154}, "uniqueid": "MTK1623:34HJIJKLP6318T4TVWAVTR08G09V4O", "dateTime": 1516053159285}, {"current_trial": 155, "trialdata": {"rt": -1, "trial_type": "single-stim", "word": "victim", "stimulus": "<p id=\"stim\">VICTIM</p>", "conditions": [12, 1600, "v", 24000], "internal_node_id": "0.0-110.0", "trial": 4, "time_elapsed": 754065, "serialpos": 10, "key_press": -1, "wordID": 1561, "type": "PRES_VIS", "trial_index": 155}, "uniqueid": "MTK1623:34HJIJKLP6318T4TVWAVTR08G09V4O", "dateTime": 1516053161894}, {"current_trial": 156, "trialdata": {"rt": -1, "trial_type": "single-stim", "word": "pliers", "stimulus": "<p id=\"stim\">PLIERS</p>", "conditions": [12, 1600, "v", 24000], "internal_node_id": "0.0-111.0", "trial": 4, "time_elapsed": 756866, "serialpos": 11, "key_press": -1, "wordID": 1088, "type": "PRES_VIS", "trial_index": 156}, "uniqueid": "MTK1623:34HJIJKLP6318T4TVWAVTR08G09V4O", "dateTime": 1516053164694}, {"current_trial": 157, "trialdata": {"rt": -1, "trial_type": "single-stim", "stimulus": "", "internal_node_id": "0.0-112.0-0.0", "time_elapsed": 759129, "key_press": -1, "type": "PRE_RECALL_DELAY", "trial_index": 157}, "uniqueid": "MTK1623:34HJIJKLP6318T4TVWAVTR08G09V4O", "dateTime": 1516053166957}, {"current_trial": 158, "trialdata": {"rt": -1000, "trial_type": "single-audio", "stimulus": "/static/audio/400Hz.wav", "internal_node_id": "0.0-113.0", "time_elapsed": 759640, "key_press": -1, "type": "PRE_RECALL_ALERT", "trial_index": 158}, "uniqueid": "MTK1623:34HJIJKLP6318T4TVWAVTR08G09V4O", "dateTime": 1516053167468}, {"current_trial": 159, "trialdata": {"rt": [2312, 4136, 6024, 8984, 11232, 15952, 19168, 22000], "recwords": ["pliers", "woman", "victim", "bureau", "agent", "scissors", "shovel", "knapsack"], "key_times": [976, 1193, 1384, 1488, 1656, 1888, 2312, 2976, 3120, 3488, 3632, 3728, 4136, 4880, 4992, 5111, 5328, 5424, 5584, 6024, 7104, 7240, 7456, 7640, 7856, 7944, 8984, 10192, 10448, 10632, 10728, 10856, 11232, 12264, 12784, 13024, 14928, 15104, 15240, 15343, 15584, 15952, 17008, 17560, 18224, 18416, 18648, 18760, 19168, 20104, 20336, 20544, 20832, 21112, 21288, 21504, 21600, 22000], "trial_type": "free-recall", "conditions": [12, 1600, "v", 24000], "internal_node_id": "0.0-114.0-0.0", "key_presses": [80, 76, 73, 69, 82, 83, 13, 87, 79, 77, 65, 78, 13, 86, 73, 67, 84, 73, 77, 13, 66, 85, 82, 69, 65, 85, 13, 65, 71, 69, 78, 84, 13, 83, 67, 73, 83, 83, 79, 82, 83, 13, 83, 72, 79, 86, 69, 76, 13, 75, 78, 65, 80, 83, 65, 67, 75, 13], "trial": 4, "time_elapsed": 819648, "type": "FREE_RECALL", "trial_index": 159}, "uniqueid": "MTK1623:34HJIJKLP6318T4TVWAVTR08G09V4O", "dateTime": 1516053227478}, {"current_trial": 160, "trialdata": {"rt": 1458, "trial_type": "text", "internal_node_id": "0.0-115.0", "time_elapsed": 823114, "key_press": 32, "type": "INSTRUCTIONS", "trial_index": 160}, "uniqueid": "MTK1623:34HJIJKLP6318T4TVWAVTR08G09V4O", "dateTime": 1516053230942}, {"current_trial": 161, "trialdata": {"rt": [2976, 7664, 10368, 14272, 17040, 21120], "trial_type": "math-distractor", "key_times": [2024, 2496, 2976, 7128, 7456, 7664, 10160, 10368, 13992, 14272, 16776, 17040, 20328, 20824, 21120], "responses": ["17", "13", "6", "6", "9", "20"], "num2": [9, 3, 3, 1, 7, 9, 6], "num3": [1, 4, 2, 2, 1, 4, 7], "conditions": [24, 800, "v", 24000], "internal_node_id": "0.0-116.0", "key_presses": [49, 55, 13, 49, 51, 13, 54, 13, 54, 13, 57, 13, 50, 48, 13], "trial": 5, "time_elapsed": 849133, "type": "DISTRACTOR", "trial_index": 161, "num1": [7, 6, 1, 3, 1, 7, 5]}, "uniqueid": "MTK1623:34HJIJKLP6318T4TVWAVTR08G09V4O", "dateTime": 1516053256961}, {"current_trial": 162, "trialdata": {"rt": -1, "trial_type": "single-stim", "stimulus": "<p id=\"stim\">10</p>", "internal_node_id": "0.0-117.0-0.0", "time_elapsed": 852134, "key_press": -1, "trial_index": 162}, "uniqueid": "MTK1623:34HJIJKLP6318T4TVWAVTR08G09V4O", "dateTime": 1516053259962}, {"current_trial": 163, "trialdata": {"rt": -1, "trial_type": "single-stim", "stimulus": "<p id=\"stim\">9</p>", "internal_node_id": "0.0-117.0-1.0", "time_elapsed": 853136, "key_press": -1, "trial_index": 163}, "uniqueid": "MTK1623:34HJIJKLP6318T4TVWAVTR08G09V4O", "dateTime": 1516053260964}, {"current_trial": 164, "trialdata": {"rt": -1, "trial_type": "single-stim", "stimulus": "<p id=\"stim\">8</p>", "internal_node_id": "0.0-117.0-2.0", "time_elapsed": 854144, "key_press": -1, "trial_index": 164}, "uniqueid": "MTK1623:34HJIJKLP6318T4TVWAVTR08G09V4O", "dateTime": 1516053261972}, {"current_trial": 165, "trialdata": {"rt": -1, "trial_type": "single-stim", "stimulus": "<p id=\"stim\">7</p>", "internal_node_id": "0.0-117.0-3.0", "time_elapsed": 855145, "key_press": -1, "trial_index": 165}, "uniqueid": "MTK1623:34HJIJKLP6318T4TVWAVTR08G09V4O", "dateTime": 1516053262973}, {"current_trial": 166, "trialdata": {"rt": -1, "trial_type": "single-stim", "stimulus": "<p id=\"stim\">6</p>", "internal_node_id": "0.0-117.0-4.0", "time_elapsed": 856159, "key_press": -1, "trial_index": 166}, "uniqueid": "MTK1623:34HJIJKLP6318T4TVWAVTR08G09V4O", "dateTime": 1516053263987}, {"current_trial": 167, "trialdata": {"rt": -1, "trial_type": "single-stim", "stimulus": "<p id=\"stim\">5</p>", "internal_node_id": "0.0-117.0-5.0", "time_elapsed": 857161, "key_press": -1, "trial_index": 167}, "uniqueid": "MTK1623:34HJIJKLP6318T4TVWAVTR08G09V4O", "dateTime": 1516053264990}, {"current_trial": 168, "trialdata": {"rt": -1, "trial_type": "single-stim", "stimulus": "<p id=\"stim\">4</p>", "internal_node_id": "0.0-117.0-6.0", "time_elapsed": 858174, "key_press": -1, "trial_index": 168}, "uniqueid": "MTK1623:34HJIJKLP6318T4TVWAVTR08G09V4O", "dateTime": 1516053266002}, {"current_trial": 169, "trialdata": {"rt": -1, "trial_type": "single-stim", "stimulus": "<p id=\"stim\">3</p>", "internal_node_id": "0.0-117.0-7.0", "time_elapsed": 859180, "key_press": -1, "trial_index": 169}, "uniqueid": "MTK1623:34HJIJKLP6318T4TVWAVTR08G09V4O", "dateTime": 1516053267008}, {"current_trial": 170, "trialdata": {"rt": -1, "trial_type": "single-stim", "stimulus": "<p id=\"stim\">2</p>", "internal_node_id": "0.0-117.0-8.0", "time_elapsed": 860189, "key_press": -1, "trial_index": 170}, "uniqueid": "MTK1623:34HJIJKLP6318T4TVWAVTR08G09V4O", "dateTime": 1516053268017}, {"current_trial": 171, "trialdata": {"rt": -1, "trial_type": "single-stim", "stimulus": "<p id=\"stim\">1</p>", "internal_node_id": "0.0-117.0-9.0", "time_elapsed": 861194, "key_press": -1, "trial_index": 171}, "uniqueid": "MTK1623:34HJIJKLP6318T4TVWAVTR08G09V4O", "dateTime": 1516053269022}, {"current_trial": 172, "trialdata": {"rt": -1, "trial_type": "single-stim", "stimulus": "<p id=\"stim\">+</p>", "internal_node_id": "0.0-118.0-0.0", "time_elapsed": 862707, "key_press": -1, "type": "FIXATION", "trial_index": 172}, "uniqueid": "MTK1623:34HJIJKLP6318T4TVWAVTR08G09V4O", "dateTime": 1516053270536}, {"current_trial": 173, "trialdata": {"rt": -1, "trial_type": "single-stim", "word": "robin", "stimulus": "<p id=\"stim\">ROBIN</p>", "conditions": [24, 800, "v", 24000], "internal_node_id": "0.0-119.0", "trial": 5, "time_elapsed": 863511, "serialpos": 0, "key_press": -1, "wordID": 1198, "type": "PRES_VIS", "trial_index": 173}, "uniqueid": "MTK1623:34HJIJKLP6318T4TVWAVTR08G09V4O", "dateTime": 1516053271339}, {"current_trial": 174, "trialdata": {"rt": -1, "trial_type": "single-stim", "word": "bathtub", "stimulus": "<p id=\"stim\">BATHTUB</p>", "conditions": [24, 800, "v", 24000], "internal_node_id": "0.0-120.0", "trial": 5, "time_elapsed": 865263, "serialpos": 1, "key_press": -1, "wordID": 99, "type": "PRES_VIS", "trial_index": 174}, "uniqueid": "MTK1623:34HJIJKLP6318T4TVWAVTR08G09V4O", "dateTime": 1516053273091}, {"current_trial": 175, "trialdata": {"rt": -1, "trial_type": "single-stim", "word": "popcorn", "stimulus": "<p id=\"stim\">POPCORN</p>", "conditions": [24, 800, "v", 24000], "internal_node_id": "0.0-121.0", "trial": 5, "time_elapsed": 867085, "serialpos": 2, "key_press": -1, "wordID": 1103, "type": "PRES_VIS", "trial_index": 175}, "uniqueid": "MTK1623:34HJIJKLP6318T4TVWAVTR08G09V4O", "dateTime": 1516053274913}, {"current_trial": 176, "trialdata": {"rt": -1, "trial_type": "single-stim", "word": "baby", "stimulus": "<p id=\"stim\">BABY</p>", "conditions": [24, 800, "v", 24000], "internal_node_id": "0.0-122.0", "trial": 5, "time_elapsed": 869037, "serialpos": 3, "key_press": -1, "wordID": 63, "type": "PRES_VIS", "trial_index": 176}, "uniqueid": "MTK1623:34HJIJKLP6318T4TVWAVTR08G09V4O", "dateTime": 1516053276865}, {"current_trial": 177, "trialdata": {"rt": -1, "trial_type": "single-stim", "word": "infant", "stimulus": "<p id=\"stim\">INFANT</p>", "conditions": [24, 800, "v", 24000], "internal_node_id": "0.0-123.0", "trial": 5, "time_elapsed": 870884, "serialpos": 4, "key_press": -1, "wordID": 736, "type": "PRES_VIS", "trial_index": 177}, "uniqueid": "MTK1623:34HJIJKLP6318T4TVWAVTR08G09V4O", "dateTime": 1516053278712}, {"current_trial": 178, "trialdata": {"rt": -1, "trial_type": "single-stim", "word": "salad", "stimulus": "<p id=\"stim\">SALAD</p>", "conditions": [24, 800, "v", 24000], "internal_node_id": "0.0-124.0", "trial": 5, "time_elapsed": 872502, "serialpos": 5, "key_press": -1, "wordID": 1223, "type": "PRES_VIS", "trial_index": 178}, "uniqueid": "MTK1623:34HJIJKLP6318T4TVWAVTR08G09V4O", "dateTime": 1516053280331}, {"current_trial": 179, "trialdata": {"rt": -1, "trial_type": "single-stim", "word": "turkey", "stimulus": "<p id=\"stim\">TURKEY</p>", "conditions": [24, 800, "v", 24000], "internal_node_id": "0.0-125.0", "trial": 5, "time_elapsed": 874403, "serialpos": 6, "key_press": -1, "wordID": 1519, "type": "PRES_VIS", "trial_index": 179}, "uniqueid": "MTK1623:34HJIJKLP6318T4TVWAVTR08G09V4O", "dateTime": 1516053282231}, {"current_trial": 180, "trialdata": {"rt": -1, "trial_type": "single-stim", "word": "taxi", "stimulus": "<p id=\"stim\">TAXI</p>", "conditions": [24, 800, "v", 24000], "internal_node_id": "0.0-126.0", "trial": 5, "time_elapsed": 876221, "serialpos": 7, "key_press": -1, "wordID": 1437, "type": "PRES_VIS", "trial_index": 180}, "uniqueid": "MTK1623:34HJIJKLP6318T4TVWAVTR08G09V4O", "dateTime": 1516053284049}, {"current_trial": 181, "trialdata": {"rt": -1, "trial_type": "single-stim", "word": "tart", "stimulus": "<p id=\"stim\">TART</p>", "conditions": [24, 800, "v", 24000], "internal_node_id": "0.0-127.0", "trial": 5, "time_elapsed": 878015, "serialpos": 8, "key_press": -1, "wordID": 1435, "type": "PRES_VIS", "trial_index": 181}, "uniqueid": "MTK1623:34HJIJKLP6318T4TVWAVTR08G09V4O", "dateTime": 1516053285843}, {"current_trial": 182, "trialdata": {"rt": -1, "trial_type": "single-stim", "word": "finger", "stimulus": "<p id=\"stim\">FINGER</p>", "conditions": [24, 800, "v", 24000], "internal_node_id": "0.0-128.0", "trial": 5, "time_elapsed": 879649, "serialpos": 9, "key_press": -1, "wordID": 566, "type": "PRES_VIS", "trial_index": 182}, "uniqueid": "MTK1623:34HJIJKLP6318T4TVWAVTR08G09V4O", "dateTime": 1516053287477}, {"current_trial": 183, "trialdata": {"rt": -1, "trial_type": "single-stim", "word": "soda", "stimulus": "<p id=\"stim\">SODA</p>", "conditions": [24, 800, "v", 24000], "internal_node_id": "0.0-129.0", "trial": 5, "time_elapsed": 881651, "serialpos": 10, "key_press": -1, "wordID": 1340, "type": "PRES_VIS", "trial_index": 183}, "uniqueid": "MTK1623:34HJIJKLP6318T4TVWAVTR08G09V4O", "dateTime": 1516053289479}, {"current_trial": 184, "trialdata": {"rt": -1, "trial_type": "single-stim", "word": "virus", "stimulus": "<p id=\"stim\">VIRUS</p>", "conditions": [24, 800, "v", 24000], "internal_node_id": "0.0-130.0", "trial": 5, "time_elapsed": 883463, "serialpos": 11, "key_press": -1, "wordID": 1571, "type": "PRES_VIS", "trial_index": 184}, "uniqueid": "MTK1623:34HJIJKLP6318T4TVWAVTR08G09V4O", "dateTime": 1516053291291}, {"current_trial": 185, "trialdata": {"rt": -1, "trial_type": "single-stim", "word": "zebra", "stimulus": "<p id=\"stim\">ZEBRA</p>", "conditions": [24, 800, "v", 24000], "internal_node_id": "0.0-131.0", "trial": 5, "time_elapsed": 885310, "serialpos": 12, "key_press": -1, "wordID": 1634, "type": "PRES_VIS", "trial_index": 185}, "uniqueid": "MTK1623:34HJIJKLP6318T4TVWAVTR08G09V4O", "dateTime": 1516053293138}, {"current_trial": 186, "trialdata": {"rt": -1, "trial_type": "single-stim", "word": "leopard", "stimulus": "<p id=\"stim\">LEOPARD</p>", "conditions": [24, 800, "v", 24000], "internal_node_id": "0.0-132.0", "trial": 5, "time_elapsed": 887285, "serialpos": 13, "key_press": -1, "wordID": 811, "type": "PRES_VIS", "trial_index": 186}, "uniqueid": "MTK1623:34HJIJKLP6318T4TVWAVTR08G09V4O", "dateTime": 1516053295113}, {"current_trial": 187, "trialdata": {"rt": -1, "trial_type": "single-stim", "word": "wife", "stimulus": "<p id=\"stim\">WIFE</p>", "conditions": [24, 800, "v", 24000], "internal_node_id": "0.0-133.0", "trial": 5, "time_elapsed": 889189, "serialpos": 14, "key_press": -1, "wordID": 1608, "type": "PRES_VIS", "trial_index": 187}, "uniqueid": "MTK1623:34HJIJKLP6318T4TVWAVTR08G09V4O", "dateTime": 1516053297017}, {"current_trial": 188, "trialdata": {"rt": -1, "trial_type": "single-stim", "word": "driver", "stimulus": "<p id=\"stim\">DRIVER</p>", "conditions": [24, 800, "v", 24000], "internal_node_id": "0.0-134.0", "trial": 5, "time_elapsed": 890812, "serialpos": 15, "key_press": -1, "wordID": 498, "type": "PRES_VIS", "trial_index": 188}, "uniqueid": "MTK1623:34HJIJKLP6318T4TVWAVTR08G09V4O", "dateTime": 1516053298640}, {"current_trial": 189, "trialdata": {"rt": -1, "trial_type": "single-stim", "word": "burglar", "stimulus": "<p id=\"stim\">BURGLAR</p>", "conditions": [24, 800, "v", 24000], "internal_node_id": "0.0-135.0", "trial": 5, "time_elapsed": 892613, "serialpos": 16, "key_press": -1, "wordID": 199, "type": "PRES_VIS", "trial_index": 189}, "uniqueid": "MTK1623:34HJIJKLP6318T4TVWAVTR08G09V4O", "dateTime": 1516053300441}, {"current_trial": 190, "trialdata": {"rt": -1, "trial_type": "single-stim", "word": "vagrant", "stimulus": "<p id=\"stim\">VAGRANT</p>", "conditions": [24, 800, "v", 24000], "internal_node_id": "0.0-136.0", "trial": 5, "time_elapsed": 894386, "serialpos": 17, "key_press": -1, "wordID": 1543, "type": "PRES_VIS", "trial_index": 190}, "uniqueid": "MTK1623:34HJIJKLP6318T4TVWAVTR08G09V4O", "dateTime": 1516053302214}, {"current_trial": 191, "trialdata": {"rt": -1, "trial_type": "single-stim", "word": "garbage", "stimulus": "<p id=\"stim\">GARBAGE</p>", "conditions": [24, 800, "v", 24000], "internal_node_id": "0.0-137.0", "trial": 5, "time_elapsed": 896114, "serialpos": 18, "key_press": -1, "wordID": 621, "type": "PRES_VIS", "trial_index": 191}, "uniqueid": "MTK1623:34HJIJKLP6318T4TVWAVTR08G09V4O", "dateTime": 1516053303942}, {"current_trial": 192, "trialdata": {"rt": -1, "trial_type": "single-stim", "word": "onion", "stimulus": "<p id=\"stim\">ONION</p>", "conditions": [24, 800, "v", 24000], "internal_node_id": "0.0-138.0", "trial": 5, "time_elapsed": 897983, "serialpos": 19, "key_press": -1, "wordID": 976, "type": "PRES_VIS", "trial_index": 192}, "uniqueid": "MTK1623:34HJIJKLP6318T4TVWAVTR08G09V4O", "dateTime": 1516053305811}, {"current_trial": 193, "trialdata": {"rt": -1, "trial_type": "single-stim", "word": "ulcer", "stimulus": "<p id=\"stim\">ULCER</p>", "conditions": [24, 800, "v", 24000], "internal_node_id": "0.0-139.0", "trial": 5, "time_elapsed": 899653, "serialpos": 20, "key_press": -1, "wordID": 1532, "type": "PRES_VIS", "trial_index": 193}, "uniqueid": "MTK1623:34HJIJKLP6318T4TVWAVTR08G09V4O", "dateTime": 1516053307481}, {"current_trial": 194, "trialdata": {"rt": -1, "trial_type": "single-stim", "word": "truck", "stimulus": "<p id=\"stim\">TRUCK</p>", "conditions": [24, 800, "v", 24000], "internal_node_id": "0.0-140.0", "trial": 5, "time_elapsed": 901641, "serialpos": 21, "key_press": -1, "wordID": 1511, "type": "PRES_VIS", "trial_index": 194}, "uniqueid": "MTK1623:34HJIJKLP6318T4TVWAVTR08G09V4O", "dateTime": 1516053309469}, {"current_trial": 195, "trialdata": {"rt": -1, "trial_type": "single-stim", "word": "hawk", "stimulus": "<p id=\"stim\">HAWK</p>", "conditions": [24, 800, "v", 24000], "internal_node_id": "0.0-141.0", "trial": 5, "time_elapsed": 903517, "serialpos": 22, "key_press": -1, "wordID": 691, "type": "PRES_VIS", "trial_index": 195}, "uniqueid": "MTK1623:34HJIJKLP6318T4TVWAVTR08G09V4O", "dateTime": 1516053311345}, {"current_trial": 196, "trialdata": {"rt": -1, "trial_type": "single-stim", "word": "sculpture", "stimulus": "<p id=\"stim\">SCULPTURE</p>", "conditions": [24, 800, "v", 24000], "internal_node_id": "0.0-142.0", "trial": 5, "time_elapsed": 905266, "serialpos": 23, "key_press": -1, "wordID": 1257, "type": "PRES_VIS", "trial_index": 196}, "uniqueid": "MTK1623:34HJIJKLP6318T4TVWAVTR08G09V4O", "dateTime": 1516053313094}, {"current_trial": 197, "trialdata": {"rt": -1, "trial_type": "single-stim", "stimulus": "", "internal_node_id": "0.0-143.0-0.0", "time_elapsed": 907834, "key_press": -1, "type": "PRE_RECALL_DELAY", "trial_index": 197}, "uniqueid": "MTK1623:34HJIJKLP6318T4TVWAVTR08G09V4O", "dateTime": 1516053315662}, {"current_trial": 198, "trialdata": {"rt": -1000, "trial_type": "single-audio", "stimulus": "/static/audio/400Hz.wav", "internal_node_id": "0.0-144.0", "time_elapsed": 908346, "key_press": -1, "type": "PRE_RECALL_ALERT", "trial_index": 198}, "uniqueid": "MTK1623:34HJIJKLP6318T4TVWAVTR08G09V4O", "dateTime": 1516053316174}, {"current_trial": 199, "trialdata": {"rt": [3556, 5228, 6860, 8964, 10588, 12236, 13804, 15436, 26436, 28108, 41060, 45932], "recwords": ["sculpture", "hawk", "truck", "soda", "tart", "taxi", "baby", "ifant", "turkey", "salad", "vagrant", "burglar"], "key_times": [1124, 1684, 1820, 2140, 2516, 2812, 2939, 3148, 3316, 3556, 4420, 4508, 4716, 4836, 5228, 5900, 6060, 6180, 6324, 6452, 6860, 8428, 8548, 8660, 8844, 8964, 9836, 10068, 10300, 10460, 10588, 11220, 11484, 11756, 11868, 12236, 12892, 12996, 13276, 13380, 13804, 14516, 14692, 14908, 15036, 15196, 15436, 24516, 24620, 24988, 25171, 25324, 25460, 26436, 26652, 26852, 26963, 27075, 27276, 28108, 39140, 39268, 39620, 39804, 40020, 40116, 40292, 41060, 44300, 44436, 44660, 44932, 45068, 45196, 45444, 45932, 58957, 59197, 59469, 59764, 59884], "trial_type": "free-recall", "conditions": [24, 800, "v", 24000], "internal_node_id": "0.0-145.0-0.0", "key_presses": [83, 67, 85, 76, 80, 84, 85, 82, 69, 13, 72, 65, 87, 75, 13, 84, 82, 85, 67, 75, 13, 83, 79, 68, 65, 13, 84, 65, 82, 84, 13, 84, 65, 88, 73, 13, 66, 65, 66, 89, 13, 73, 70, 65, 78, 84, 13, 84, 85, 82, 75, 69, 89, 13, 83, 65, 76, 65, 68, 13, 86, 65, 71, 82, 65, 78, 84, 13, 66, 85, 82, 71, 76, 65, 82, 13, 80, 79, 80, 67, 79], "trial": 5, "time_elapsed": 968355, "type": "FREE_RECALL", "trial_index": 199}, "uniqueid": "MTK1623:34HJIJKLP6318T4TVWAVTR08G09V4O", "dateTime": 1516053376185}, {"current_trial": 200, "trialdata": {"rt": 2041, "trial_type": "text", "internal_node_id": "0.0-146.0", "time_elapsed": 972402, "key_press": 32, "type": "INSTRUCTIONS", "trial_index": 200}, "uniqueid": "MTK1623:34HJIJKLP6318T4TVWAVTR08G09V4O", "dateTime": 1516053380230}, {"current_trial": 201, "trialdata": {"rt": [5051, 10795, 14051, 17523, 21820], "trial_type": "math-distractor", "key_times": [4308, 4612, 5051, 10316, 10580, 10795, 13148, 13732, 14051, 16627, 17236, 17523, 21100, 21428, 21820], "responses": ["24", "13", "18", "18", "13"], "num2": [7, 1, 9, 6, 7, 7], "num3": [9, 7, 1, 8, 2, 6], "conditions": [24, 1600, "v", 24000], "internal_node_id": "0.0-147.0", "key_presses": [50, 52, 13, 49, 51, 13, 49, 56, 13, 49, 56, 13, 49, 51, 13], "trial": 6, "time_elapsed": 998412, "type": "DISTRACTOR", "trial_index": 201, "num1": [8, 5, 8, 4, 4, 8]}, "uniqueid": "MTK1623:34HJIJKLP6318T4TVWAVTR08G09V4O", "dateTime": 1516053406240}, {"current_trial": 202, "trialdata": {"rt": -1, "trial_type": "single-stim", "stimulus": "<p id=\"stim\">10</p>", "internal_node_id": "0.0-148.0-0.0", "time_elapsed": 1001416, "key_press": -1, "trial_index": 202}, "uniqueid": "MTK1623:34HJIJKLP6318T4TVWAVTR08G09V4O", "dateTime": 1516053409244}, {"current_trial": 203, "trialdata": {"rt": -1, "trial_type": "single-stim", "stimulus": "<p id=\"stim\">9</p>", "internal_node_id": "0.0-148.0-1.0", "time_elapsed": 1002427, "key_press": -1, "trial_index": 203}, "uniqueid": "MTK1623:34HJIJKLP6318T4TVWAVTR08G09V4O", "dateTime": 1516053410255}, {"current_trial": 204, "trialdata": {"rt": -1, "trial_type": "single-stim", "stimulus": "<p id=\"stim\">8</p>", "internal_node_id": "0.0-148.0-2.0", "time_elapsed": 1003436, "key_press": -1, "trial_index": 204}, "uniqueid": "MTK1623:34HJIJKLP6318T4TVWAVTR08G09V4O", "dateTime": 1516053411264}, {"current_trial": 205, "trialdata": {"rt": -1, "trial_type": "single-stim", "stimulus": "<p id=\"stim\">7</p>", "internal_node_id": "0.0-148.0-3.0", "time_elapsed": 1004443, "key_press": -1, "trial_index": 205}, "uniqueid": "MTK1623:34HJIJKLP6318T4TVWAVTR08G09V4O", "dateTime": 1516053412271}, {"current_trial": 206, "trialdata": {"rt": -1, "trial_type": "single-stim", "stimulus": "<p id=\"stim\">6</p>", "internal_node_id": "0.0-148.0-4.0", "time_elapsed": 1005448, "key_press": -1, "trial_index": 206}, "uniqueid": "MTK1623:34HJIJKLP6318T4TVWAVTR08G09V4O", "dateTime": 1516053413276}, {"current_trial": 207, "trialdata": {"rt": -1, "trial_type": "single-stim", "stimulus": "<p id=\"stim\">5</p>", "internal_node_id": "0.0-148.0-5.0", "time_elapsed": 1006460, "key_press": -1, "trial_index": 207}, "uniqueid": "MTK1623:34HJIJKLP6318T4TVWAVTR08G09V4O", "dateTime": 1516053414288}, {"current_trial": 208, "trialdata": {"rt": -1, "trial_type": "single-stim", "stimulus": "<p id=\"stim\">4</p>", "internal_node_id": "0.0-148.0-6.0", "time_elapsed": 1007467, "key_press": -1, "trial_index": 208}, "uniqueid": "MTK1623:34HJIJKLP6318T4TVWAVTR08G09V4O", "dateTime": 1516053415295}, {"current_trial": 209, "trialdata": {"rt": -1, "trial_type": "single-stim", "stimulus": "<p id=\"stim\">3</p>", "internal_node_id": "0.0-148.0-7.0", "time_elapsed": 1008476, "key_press": -1, "trial_index": 209}, "uniqueid": "MTK1623:34HJIJKLP6318T4TVWAVTR08G09V4O", "dateTime": 1516053416304}, {"current_trial": 210, "trialdata": {"rt": -1, "trial_type": "single-stim", "stimulus": "<p id=\"stim\">2</p>", "internal_node_id": "0.0-148.0-8.0", "time_elapsed": 1009483, "key_press": -1, "trial_index": 210}, "uniqueid": "MTK1623:34HJIJKLP6318T4TVWAVTR08G09V4O", "dateTime": 1516053417311}, {"current_trial": 211, "trialdata": {"rt": -1, "trial_type": "single-stim", "stimulus": "<p id=\"stim\">1</p>", "internal_node_id": "0.0-148.0-9.0", "time_elapsed": 1010486, "key_press": -1, "trial_index": 211}, "uniqueid": "MTK1623:34HJIJKLP6318T4TVWAVTR08G09V4O", "dateTime": 1516053418314}, {"current_trial": 212, "trialdata": {"rt": -1, "trial_type": "single-stim", "stimulus": "<p id=\"stim\">+</p>", "internal_node_id": "0.0-149.0-0.0", "time_elapsed": 1011990, "key_press": -1, "type": "FIXATION", "trial_index": 212}, "uniqueid": "MTK1623:34HJIJKLP6318T4TVWAVTR08G09V4O", "dateTime": 1516053419818}, {"current_trial": 213, "trialdata": {"rt": -1, "trial_type": "single-stim", "word": "country", "stimulus": "<p id=\"stim\">COUNTRY</p>", "conditions": [24, 1600, "v", 24000], "internal_node_id": "0.0-150.0", "trial": 6, "time_elapsed": 1013598, "serialpos": 0, "key_press": -1, "wordID": 387, "type": "PRES_VIS", "trial_index": 213}, "uniqueid": "MTK1623:34HJIJKLP6318T4TVWAVTR08G09V4O", "dateTime": 1516053421426}, {"current_trial": 214, "trialdata": {"rt": -1, "trial_type": "single-stim", "word": "lapel", "stimulus": "<p id=\"stim\">LAPEL</p>", "conditions": [24, 1600, "v", 24000], "internal_node_id": "0.0-151.0", "trial": 6, "time_elapsed": 1016265, "serialpos": 1, "key_press": -1, "wordID": 799, "type": "PRES_VIS", "trial_index": 214}, "uniqueid": "MTK1623:34HJIJKLP6318T4TVWAVTR08G09V4O", "dateTime": 1516053424093}, {"current_trial": 215, "trialdata": {"rt": -1, "trial_type": "single-stim", "word": "silk", "stimulus": "<p id=\"stim\">SILK</p>", "conditions": [24, 1600, "v", 24000], "internal_node_id": "0.0-152.0", "trial": 6, "time_elapsed": 1019057, "serialpos": 2, "key_press": -1, "wordID": 1306, "type": "PRES_VIS", "trial_index": 215}, "uniqueid": "MTK1623:34HJIJKLP6318T4TVWAVTR08G09V4O", "dateTime": 1516053426886}, {"current_trial": 216, "trialdata": {"rt": -1, "trial_type": "single-stim", "word": "puddle", "stimulus": "<p id=\"stim\">PUDDLE</p>", "conditions": [24, 1600, "v", 24000], "internal_node_id": "0.0-153.0", "trial": 6, "time_elapsed": 1021598, "serialpos": 3, "key_press": -1, "wordID": 1139, "type": "PRES_VIS", "trial_index": 216}, "uniqueid": "MTK1623:34HJIJKLP6318T4TVWAVTR08G09V4O", "dateTime": 1516053429426}, {"current_trial": 217, "trialdata": {"rt": -1, "trial_type": "single-stim", "word": "piston", "stimulus": "<p id=\"stim\">PISTON</p>", "conditions": [24, 1600, "v", 24000], "internal_node_id": "0.0-154.0", "trial": 6, "time_elapsed": 1024179, "serialpos": 4, "key_press": -1, "wordID": 1075, "type": "PRES_VIS", "trial_index": 217}, "uniqueid": "MTK1623:34HJIJKLP6318T4TVWAVTR08G09V4O", "dateTime": 1516053432007}, {"current_trial": 218, "trialdata": {"rt": -1, "trial_type": "single-stim", "word": "valve", "stimulus": "<p id=\"stim\">VALVE</p>", "conditions": [24, 1600, "v", 24000], "internal_node_id": "0.0-155.0", "trial": 6, "time_elapsed": 1026712, "serialpos": 5, "key_press": -1, "wordID": 1545, "type": "PRES_VIS", "trial_index": 218}, "uniqueid": "MTK1623:34HJIJKLP6318T4TVWAVTR08G09V4O", "dateTime": 1516053434540}, {"current_trial": 219, "trialdata": {"rt": -1, "trial_type": "single-stim", "word": "breast", "stimulus": "<p id=\"stim\">BREAST</p>", "conditions": [24, 1600, "v", 24000], "internal_node_id": "0.0-156.0", "trial": 6, "time_elapsed": 1029413, "serialpos": 6, "key_press": -1, "wordID": 170, "type": "PRES_VIS", "trial_index": 219}, "uniqueid": "MTK1623:34HJIJKLP6318T4TVWAVTR08G09V4O", "dateTime": 1516053437241}, {"current_trial": 220, "trialdata": {"rt": -1, "trial_type": "single-stim", "word": "flask", "stimulus": "<p id=\"stim\">FLASK</p>", "conditions": [24, 1600, "v", 24000], "internal_node_id": "0.0-157.0", "trial": 6, "time_elapsed": 1031941, "serialpos": 7, "key_press": -1, "wordID": 575, "type": "PRES_VIS", "trial_index": 220}, "uniqueid": "MTK1623:34HJIJKLP6318T4TVWAVTR08G09V4O", "dateTime": 1516053439769}, {"current_trial": 221, "trialdata": {"rt": -1, "trial_type": "single-stim", "word": "lamp", "stimulus": "<p id=\"stim\">LAMP</p>", "conditions": [24, 1600, "v", 24000], "internal_node_id": "0.0-158.0", "trial": 6, "time_elapsed": 1034450, "serialpos": 8, "key_press": -1, "wordID": 797, "type": "PRES_VIS", "trial_index": 221}, "uniqueid": "MTK1623:34HJIJKLP6318T4TVWAVTR08G09V4O", "dateTime": 1516053442278}, {"current_trial": 222, "trialdata": {"rt": -1, "trial_type": "single-stim", "word": "brandy", "stimulus": "<p id=\"stim\">BRANDY</p>", "conditions": [24, 1600, "v", 24000], "internal_node_id": "0.0-159.0", "trial": 6, "time_elapsed": 1037054, "serialpos": 9, "key_press": -1, "wordID": 168, "type": "PRES_VIS", "trial_index": 222}, "uniqueid": "MTK1623:34HJIJKLP6318T4TVWAVTR08G09V4O", "dateTime": 1516053444883}, {"current_trial": 223, "trialdata": {"rt": -1, "trial_type": "single-stim", "word": "waiter", "stimulus": "<p id=\"stim\">WAITER</p>", "conditions": [24, 1600, "v", 24000], "internal_node_id": "0.0-160.0", "trial": 6, "time_elapsed": 1039706, "serialpos": 10, "key_press": -1, "wordID": 1579, "type": "PRES_VIS", "trial_index": 223}, "uniqueid": "MTK1623:34HJIJKLP6318T4TVWAVTR08G09V4O", "dateTime": 1516053447534}, {"current_trial": 224, "trialdata": {"rt": -1, "trial_type": "single-stim", "word": "beaker", "stimulus": "<p id=\"stim\">BEAKER</p>", "conditions": [24, 1600, "v", 24000], "internal_node_id": "0.0-161.0", "trial": 6, "time_elapsed": 1042169, "serialpos": 11, "key_press": -1, "wordID": 103, "type": "PRES_VIS", "trial_index": 224}, "uniqueid": "MTK1623:34HJIJKLP6318T4TVWAVTR08G09V4O", "dateTime": 1516053449997}, {"current_trial": 225, "trialdata": {"rt": -1, "trial_type": "single-stim", "word": "apron", "stimulus": "<p id=\"stim\">APRON</p>", "conditions": [24, 1600, "v", 24000], "internal_node_id": "0.0-162.0", "trial": 6, "time_elapsed": 1044715, "serialpos": 12, "key_press": -1, "wordID": 34, "type": "PRES_VIS", "trial_index": 225}, "uniqueid": "MTK1623:34HJIJKLP6318T4TVWAVTR08G09V4O", "dateTime": 1516053452543}, {"current_trial": 226, "trialdata": {"rt": -1, "trial_type": "single-stim", "word": "radish", "stimulus": "<p id=\"stim\">RADISH</p>", "conditions": [24, 1600, "v", 24000], "internal_node_id": "0.0-163.0", "trial": 6, "time_elapsed": 1047235, "serialpos": 13, "key_press": -1, "wordID": 1157, "type": "PRES_VIS", "trial_index": 226}, "uniqueid": "MTK1623:34HJIJKLP6318T4TVWAVTR08G09V4O", "dateTime": 1516053455063}, {"current_trial": 227, "trialdata": {"rt": -1, "trial_type": "single-stim", "word": "ox", "stimulus": "<p id=\"stim\">OX</p>", "conditions": [24, 1600, "v", 24000], "internal_node_id": "0.0-164.0", "trial": 6, "time_elapsed": 1049834, "serialpos": 14, "key_press": -1, "wordID": 993, "type": "PRES_VIS", "trial_index": 227}, "uniqueid": "MTK1623:34HJIJKLP6318T4TVWAVTR08G09V4O", "dateTime": 1516053457662}, {"current_trial": 228, "trialdata": {"rt": -1, "trial_type": "single-stim", "word": "daisy", "stimulus": "<p id=\"stim\">DAISY</p>", "conditions": [24, 1600, "v", 24000], "internal_node_id": "0.0-165.0", "trial": 6, "time_elapsed": 1052467, "serialpos": 15, "key_press": -1, "wordID": 434, "type": "PRES_VIS", "trial_index": 228}, "uniqueid": "MTK1623:34HJIJKLP6318T4TVWAVTR08G09V4O", "dateTime": 1516053460295}, {"current_trial": 229, "trialdata": {"rt": -1, "trial_type": "single-stim", "word": "lily", "stimulus": "<p id=\"stim\">LILY</p>", "conditions": [24, 1600, "v", 24000], "internal_node_id": "0.0-166.0", "trial": 6, "time_elapsed": 1055070, "serialpos": 16, "key_press": -1, "wordID": 820, "type": "PRES_VIS", "trial_index": 229}, "uniqueid": "MTK1623:34HJIJKLP6318T4TVWAVTR08G09V4O", "dateTime": 1516053462898}, {"current_trial": 230, "trialdata": {"rt": -1, "trial_type": "single-stim", "word": "sister", "stimulus": "<p id=\"stim\">SISTER</p>", "conditions": [24, 1600, "v", 24000], "internal_node_id": "0.0-167.0", "trial": 6, "time_elapsed": 1057518, "serialpos": 17, "key_press": -1, "wordID": 1311, "type": "PRES_VIS", "trial_index": 230}, "uniqueid": "MTK1623:34HJIJKLP6318T4TVWAVTR08G09V4O", "dateTime": 1516053465347}, {"current_trial": 231, "trialdata": {"rt": -1, "trial_type": "single-stim", "word": "flute", "stimulus": "<p id=\"stim\">FLUTE</p>", "conditions": [24, 1600, "v", 24000], "internal_node_id": "0.0-168.0", "trial": 6, "time_elapsed": 1060211, "serialpos": 18, "key_press": -1, "wordID": 584, "type": "PRES_VIS", "trial_index": 231}, "uniqueid": "MTK1623:34HJIJKLP6318T4TVWAVTR08G09V4O", "dateTime": 1516053468039}, {"current_trial": 232, "trialdata": {"rt": -1, "trial_type": "single-stim", "word": "lettuce", "stimulus": "<p id=\"stim\">LETTUCE</p>", "conditions": [24, 1600, "v", 24000], "internal_node_id": "0.0-169.0", "trial": 6, "time_elapsed": 1062858, "serialpos": 19, "key_press": -1, "wordID": 813, "type": "PRES_VIS", "trial_index": 232}, "uniqueid": "MTK1623:34HJIJKLP6318T4TVWAVTR08G09V4O", "dateTime": 1516053470686}, {"current_trial": 233, "trialdata": {"rt": -1, "trial_type": "single-stim", "word": "chipmunk", "stimulus": "<p id=\"stim\">CHIPMUNK</p>", "conditions": [24, 1600, "v", 24000], "internal_node_id": "0.0-170.0", "trial": 6, "time_elapsed": 1065594, "serialpos": 20, "key_press": -1, "wordID": 303, "type": "PRES_VIS", "trial_index": 233}, "uniqueid": "MTK1623:34HJIJKLP6318T4TVWAVTR08G09V4O", "dateTime": 1516053473422}, {"current_trial": 234, "trialdata": {"rt": -1, "trial_type": "single-stim", "word": "tombstone", "stimulus": "<p id=\"stim\">TOMBSTONE</p>", "conditions": [24, 1600, "v", 24000], "internal_node_id": "0.0-171.0", "trial": 6, "time_elapsed": 1068016, "serialpos": 21, "key_press": -1, "wordID": 1477, "type": "PRES_VIS", "trial_index": 234}, "uniqueid": "MTK1623:34HJIJKLP6318T4TVWAVTR08G09V4O", "dateTime": 1516053475844}, {"current_trial": 235, "trialdata": {"rt": -1, "trial_type": "single-stim", "word": "marker", "stimulus": "<p id=\"stim\">MARKER</p>", "conditions": [24, 1600, "v", 24000], "internal_node_id": "0.0-172.0", "trial": 6, "time_elapsed": 1070717, "serialpos": 22, "key_press": -1, "wordID": 869, "type": "PRES_VIS", "trial_index": 235}, "uniqueid": "MTK1623:34HJIJKLP6318T4TVWAVTR08G09V4O", "dateTime": 1516053478545}, {"current_trial": 236, "trialdata": {"rt": -1, "trial_type": "single-stim", "word": "bug", "stimulus": "<p id=\"stim\">BUG</p>", "conditions": [24, 1600, "v", 24000], "internal_node_id": "0.0-173.0", "trial": 6, "time_elapsed": 1073498, "serialpos": 23, "key_press": -1, "wordID": 186, "type": "PRES_VIS", "trial_index": 236}, "uniqueid": "MTK1623:34HJIJKLP6318T4TVWAVTR08G09V4O", "dateTime": 1516053481327}, {"current_trial": 237, "trialdata": {"rt": -1, "trial_type": "single-stim", "stimulus": "", "internal_node_id": "0.0-174.0-0.0", "time_elapsed": 1075659, "key_press": -1, "type": "PRE_RECALL_DELAY", "trial_index": 237}, "uniqueid": "MTK1623:34HJIJKLP6318T4TVWAVTR08G09V4O", "dateTime": 1516053483487}, {"current_trial": 238, "trialdata": {"rt": -1000, "trial_type": "single-audio", "stimulus": "/static/audio/400Hz.wav", "internal_node_id": "0.0-175.0", "time_elapsed": 1076170, "key_press": -1, "type": "PRE_RECALL_ALERT", "trial_index": 238}, "uniqueid": "MTK1623:34HJIJKLP6318T4TVWAVTR08G09V4O", "dateTime": 1516053483998}, {"current_trial": 239, "trialdata": {"rt": [1926, 3485, 6237, 10029, 12989, 14517, 16181, 24093, 26533, 27861, 31573], "recwords": ["bug", "marker", "tombstone", "sister", "breast", "valve", "flask", "lapel", "brandy", "waiter", "piston"], "key_times": [1190, 1318, 1437, 1926, 2613, 2725, 3013, 3109, 3221, 3366, 3485, 4197, 4277, 4493, 4613, 4861, 5086, 5173, 5366, 5493, 6237, 8846, 8973, 9093, 9301, 9405, 9613, 10029, 11533, 11646, 11813, 12006, 12197, 12286, 12989, 13717, 13957, 14061, 14197, 14381, 14517, 15261, 15413, 15541, 15701, 15846, 16181, 22741, 22869, 23029, 23166, 23286, 24093, 24941, 25077, 25301, 25398, 25597, 25741, 26533, 26741, 26933, 27086, 27357, 27581, 27741, 27861, 30446, 30653, 30733, 30997, 31109, 31277, 31573], "trial_type": "free-recall", "conditions": [24, 1600, "v", 24000], "internal_node_id": "0.0-176.0-0.0", "key_presses": [66, 85, 71, 13, 77, 65, 82, 75, 69, 82, 13, 84, 79, 77, 66, 83, 84, 79, 78, 69, 13, 83, 73, 83, 84, 69, 82, 13, 66, 82, 69, 65, 83, 84, 13, 86, 65, 76, 86, 69, 13, 70, 76, 65, 83, 75, 13, 76, 65, 80, 69, 76, 13, 66, 82, 65, 78, 68, 89, 13, 87, 65, 73, 84, 69, 82, 13, 80, 73, 83, 84, 79, 78, 13], "trial": 6, "time_elapsed": 1136180, "type": "FREE_RECALL", "trial_index": 239}, "uniqueid": "MTK1623:34HJIJKLP6318T4TVWAVTR08G09V4O", "dateTime": 1516053544010}, {"current_trial": 240, "trialdata": {"rt": 2849, "trial_type": "text", "internal_node_id": "0.0-177.0", "time_elapsed": 1141042, "key_press": 32, "type": "INSTRUCTIONS", "trial_index": 240}, "uniqueid": "MTK1623:34HJIJKLP6318T4TVWAVTR08G09V4O", "dateTime": 1516053548870}, {"current_trial": 241, "trialdata": {"rt": [3040, 6520, 10256], "trial_type": "math-distractor", "key_times": [2104, 2512, 3040, 5576, 6184, 6520, 9896, 10256], "responses": ["17", "18", "7"], "num2": [5, 6, 2, 1], "num3": [7, 8, 1, 9], "conditions": [12, 800, "v", 12000], "internal_node_id": "0.0-178.0", "key_presses": [49, 55, 13, 49, 56, 13, 55, 13], "trial": 7, "time_elapsed": 1155054, "type": "DISTRACTOR", "trial_index": 241, "num1": [5, 4, 4, 1]}, "uniqueid": "MTK1623:34HJIJKLP6318T4TVWAVTR08G09V4O", "dateTime": 1516053562883}, {"current_trial": 242, "trialdata": {"rt": -1, "trial_type": "single-stim", "stimulus": "<p id=\"stim\">10</p>", "internal_node_id": "0.0-179.0-0.0", "time_elapsed": 1158063, "key_press": -1, "trial_index": 242}, "uniqueid": "MTK1623:34HJIJKLP6318T4TVWAVTR08G09V4O", "dateTime": 1516053565891}, {"current_trial": 243, "trialdata": {"rt": -1, "trial_type": "single-stim", "stimulus": "<p id=\"stim\">9</p>", "internal_node_id": "0.0-179.0-1.0", "time_elapsed": 1159072, "key_press": -1, "trial_index": 243}, "uniqueid": "MTK1623:34HJIJKLP6318T4TVWAVTR08G09V4O", "dateTime": 1516053566900}, {"current_trial": 244, "trialdata": {"rt": -1, "trial_type": "single-stim", "stimulus": "<p id=\"stim\">8</p>", "internal_node_id": "0.0-179.0-2.0", "time_elapsed": 1160085, "key_press": -1, "trial_index": 244}, "uniqueid": "MTK1623:34HJIJKLP6318T4TVWAVTR08G09V4O", "dateTime": 1516053567913}, {"current_trial": 245, "trialdata": {"rt": -1, "trial_type": "single-stim", "stimulus": "<p id=\"stim\">7</p>", "internal_node_id": "0.0-179.0-3.0", "time_elapsed": 1161089, "key_press": -1, "trial_index": 245}, "uniqueid": "MTK1623:34HJIJKLP6318T4TVWAVTR08G09V4O", "dateTime": 1516053568917}, {"current_trial": 246, "trialdata": {"rt": -1, "trial_type": "single-stim", "stimulus": "<p id=\"stim\">6</p>", "internal_node_id": "0.0-179.0-4.0", "time_elapsed": 1162097, "key_press": -1, "trial_index": 246}, "uniqueid": "MTK1623:34HJIJKLP6318T4TVWAVTR08G09V4O", "dateTime": 1516053569925}, {"current_trial": 247, "trialdata": {"rt": -1, "trial_type": "single-stim", "stimulus": "<p id=\"stim\">5</p>", "internal_node_id": "0.0-179.0-5.0", "time_elapsed": 1163111, "key_press": -1, "trial_index": 247}, "uniqueid": "MTK1623:34HJIJKLP6318T4TVWAVTR08G09V4O", "dateTime": 1516053570939}, {"current_trial": 248, "trialdata": {"rt": -1, "trial_type": "single-stim", "stimulus": "<p id=\"stim\">4</p>", "internal_node_id": "0.0-179.0-6.0", "time_elapsed": 1164122, "key_press": -1, "trial_index": 248}, "uniqueid": "MTK1623:34HJIJKLP6318T4TVWAVTR08G09V4O", "dateTime": 1516053571950}, {"current_trial": 249, "trialdata": {"rt": -1, "trial_type": "single-stim", "stimulus": "<p id=\"stim\">3</p>", "internal_node_id": "0.0-179.0-7.0", "time_elapsed": 1165130, "key_press": -1, "trial_index": 249}, "uniqueid": "MTK1623:34HJIJKLP6318T4TVWAVTR08G09V4O", "dateTime": 1516053572958}, {"current_trial": 250, "trialdata": {"rt": -1, "trial_type": "single-stim", "stimulus": "<p id=\"stim\">2</p>", "internal_node_id": "0.0-179.0-8.0", "time_elapsed": 1166133, "key_press": -1, "trial_index": 250}, "uniqueid": "MTK1623:34HJIJKLP6318T4TVWAVTR08G09V4O", "dateTime": 1516053573961}, {"current_trial": 251, "trialdata": {"rt": -1, "trial_type": "single-stim", "stimulus": "<p id=\"stim\">1</p>", "internal_node_id": "0.0-179.0-9.0", "time_elapsed": 1167141, "key_press": -1, "trial_index": 251}, "uniqueid": "MTK1623:34HJIJKLP6318T4TVWAVTR08G09V4O", "dateTime": 1516053574970}, {"current_trial": 252, "trialdata": {"rt": -1, "trial_type": "single-stim", "stimulus": "<p id=\"stim\">+</p>", "internal_node_id": "0.0-180.0-0.0", "time_elapsed": 1168648, "key_press": -1, "type": "FIXATION", "trial_index": 252}, "uniqueid": "MTK1623:34HJIJKLP6318T4TVWAVTR08G09V4O", "dateTime": 1516053576476}, {"current_trial": 253, "trialdata": {"rt": -1, "trial_type": "single-stim", "word": "juggler", "stimulus": "<p id=\"stim\">JUGGLER</p>", "conditions": [12, 800, "v", 12000], "internal_node_id": "0.0-181.0", "trial": 7, "time_elapsed": 1169450, "serialpos": 0, "key_press": -1, "wordID": 762, "type": "PRES_VIS", "trial_index": 253}, "uniqueid": "MTK1623:34HJIJKLP6318T4TVWAVTR08G09V4O", "dateTime": 1516053577278}, {"current_trial": 254, "trialdata": {"rt": -1, "trial_type": "single-stim", "word": "iceberg", "stimulus": "<p id=\"stim\">ICEBERG</p>", "conditions": [12, 800, "v", 12000], "internal_node_id": "0.0-182.0", "trial": 7, "time_elapsed": 1171438, "serialpos": 1, "key_press": -1, "wordID": 730, "type": "PRES_VIS", "trial_index": 254}, "uniqueid": "MTK1623:34HJIJKLP6318T4TVWAVTR08G09V4O", "dateTime": 1516053579266}, {"current_trial": 255, "trialdata": {"rt": -1, "trial_type": "single-stim", "word": "stove", "stimulus": "<p id=\"stim\">STOVE</p>", "conditions": [12, 800, "v", 12000], "internal_node_id": "0.0-183.0", "trial": 7, "time_elapsed": 1173403, "serialpos": 2, "key_press": -1, "wordID": 1387, "type": "PRES_VIS", "trial_index": 255}, "uniqueid": "MTK1623:34HJIJKLP6318T4TVWAVTR08G09V4O", "dateTime": 1516053581232}, {"current_trial": 256, "trialdata": {"rt": -1, "trial_type": "single-stim", "word": "toaster", "stimulus": "<p id=\"stim\">TOASTER</p>", "conditions": [12, 800, "v", 12000], "internal_node_id": "0.0-184.0", "trial": 7, "time_elapsed": 1175019, "serialpos": 3, "key_press": -1, "wordID": 1471, "type": "PRES_VIS", "trial_index": 256}, "uniqueid": "MTK1623:34HJIJKLP6318T4TVWAVTR08G09V4O", "dateTime": 1516053582847}, {"current_trial": 257, "trialdata": {"rt": -1, "trial_type": "single-stim", "word": "rug", "stimulus": "<p id=\"stim\">RUG</p>", "conditions": [12, 800, "v", 12000], "internal_node_id": "0.0-185.0", "trial": 7, "time_elapsed": 1176856, "serialpos": 4, "key_press": -1, "wordID": 1214, "type": "PRES_VIS", "trial_index": 257}, "uniqueid": "MTK1623:34HJIJKLP6318T4TVWAVTR08G09V4O", "dateTime": 1516053584684}, {"current_trial": 258, "trialdata": {"rt": -1, "trial_type": "single-stim", "word": "kidney", "stimulus": "<p id=\"stim\">KIDNEY</p>", "conditions": [12, 800, "v", 12000], "internal_node_id": "0.0-186.0", "trial": 7, "time_elapsed": 1178825, "serialpos": 5, "key_press": -1, "wordID": 775, "type": "PRES_VIS", "trial_index": 258}, "uniqueid": "MTK1623:34HJIJKLP6318T4TVWAVTR08G09V4O", "dateTime": 1516053586653}, {"current_trial": 259, "trialdata": {"rt": -1, "trial_type": "single-stim", "word": "teacher", "stimulus": "<p id=\"stim\">TEACHER</p>", "conditions": [12, 800, "v", 12000], "internal_node_id": "0.0-187.0", "trial": 7, "time_elapsed": 1180786, "serialpos": 6, "key_press": -1, "wordID": 1439, "type": "PRES_VIS", "tr