{"assignmentId": "3DHE4R9OCXI8NIZB2NSL0B00A6E2GY", "workerId": "MTK1878", "questiondata": {"origin": "United States", "strat-rehearsal": "1", "marital": "Married/Domestic Partnership", "education": "Bachelor's degree", "ethnicity": "Not Hispanic", "color_depth": 24, "distracted": "No", "wrote-notes": "No", "strat-other": "when something with a lot of significance to me was heard, i made special effort to remember it.", "screen_width": 1600, "avail_screen_width": 1600, "avail_screen_height": 860, "strat-image": "90", "language": "english", "gender": "Male", "age": "61", "gender_other": "", "race": ["White"], "strat-categorize": "95", "pixel_depth": 24, "strat-spatial": "0", "strat-story": "0", "race_other": "", "screen_height": 900}, "bonus": 0, "hitId": "33QQ60S6ASPI96ZYH38MWICS4B8U02", "counterbalance": 1966, "useragent": "Mozilla/5.0 (Windows NT 10.0; Win64; x64) AppleWebKit/537.36 (KHTML, like Gecko) Chrome/63.0.3239.132 Safari/537.36", "eventdata": [{"eventtype": "initialized", "interval": 0, "value": null, "timestamp": 1516491063772}, {"eventtype": "window_resize", "interval": 0, "value": [1600, 853], "timestamp": 1516491063772}, {"eventtype": "focus", "interval": 21084, "value": "off", "timestamp": 1516491084856}, {"eventtype": "focus", "interval": 32127, "value": "on", "timestamp": 1516491116983}, {"eventtype": "focus", "interval": 10859, "value": "off", "timestamp": 1516491127842}, {"eventtype": "focus", "interval": 2838, "value": "on", "timestamp": 1516491130680}, {"eventtype": "focus", "interval": 39849, "value": "off", "timestamp": 1516491170529}, {"eventtype": "focus", "interval": 1, "value": "on", "timestamp": 1516491170530}, {"eventtype": "focus", "interval": 1910, "value": "off", "timestamp": 1516491172440}, {"eventtype": "focus", "interval": 2801, "value": "on", "timestamp": 1516491175241}, {"eventtype": "focus", "interval": 15350, "value": "off", "timestamp": 1516491190591}, {"eventtype": "focus", "interval": 2, "value": "on", "timestamp": 1516491190593}, {"eventtype": "focus", "interval": 15045, "value": "off", "timestamp": 1516491205638}, {"eventtype": "focus", "interval": 2, "value": "on", "timestamp": 1516491205640}, {"eventtype": "focus", "interval": 8192, "value": "off", "timestamp": 1516491213832}, {"eventtype": "focus", "interval": 3, "value": "on", "timestamp": 1516491213835}, {"eventtype": "focus", "interval": 28420, "value": "off", "timestamp": 1516491242255}, {"eventtype": "focus", "interval": 2, "value": "on", "timestamp": 1516491242257}], "data": [{"current_trial": 0, "trialdata": {"rt": 2173, "trial_type": "text", "internal_node_id": "0.0-0.0", "time_elapsed": 2180, "key_press": 76, "type": "INSTRUCTIONS", "trial_index": 0}, "uniqueid": "MTK1878:3DHE4R9OCXI8NIZB2NSL0B00A6E2GY", "dateTime": 1516491078318}, {"current_trial": 1, "trialdata": {"rt": 43742, "trial_type": "text", "internal_node_id": "0.0-1.0", "time_elapsed": 45929, "key_press": 32, "type": "INSTRUCTIONS", "trial_index": 1}, "uniqueid": "MTK1878:3DHE4R9OCXI8NIZB2NSL0B00A6E2GY", "dateTime": 1516491122065}, {"current_trial": 2, "trialdata": {"rt": [16870], "trial_type": "audio-test", "responses": ["ocean"], "internal_node_id": "0.0-2.0", "time_elapsed": 62848, "type": "AUDIO_TEST", "trial_index": 2}, "uniqueid": "MTK1878:3DHE4R9OCXI8NIZB2NSL0B00A6E2GY", "dateTime": 1516491138983}, {"current_trial": 3, "trialdata": {"rt": [20389], "trial_type": "audio-test", "responses": ["crystal"], "internal_node_id": "0.0-3.0", "time_elapsed": 83248, "type": "AUDIO_TEST", "trial_index": 3}, "uniqueid": "MTK1878:3DHE4R9OCXI8NIZB2NSL0B00A6E2GY", "dateTime": 1516491159383}, {"current_trial": 4, "trialdata": {"rt": [8222, 29079, 44550, 48431, 80102, 87910], "trial_type": "audio-test", "responses": ["bite", "bite", "biwe", "wife", "fight", "spice"], "internal_node_id": "0.0-4.0", "time_elapsed": 171167, "type": "AUDIO_TEST", "trial_index": 4}, "uniqueid": "MTK1878:3DHE4R9OCXI8NIZB2NSL0B00A6E2GY", "dateTime": 1516491247303}, {"current_trial": 5, "trialdata": {"rt": 26339, "trial_type": "survey-text", "responses": "{\"Q0\":\"10:00 PM\",\"Q1\":\"8:00 AM\",\"Q2\":\"4\"}", "internal_node_id": "0.0-5.0", "time_elapsed": 198263, "type": "SLEEP_SURVEY", "trial_index": 5}, "uniqueid": "MTK1878:3DHE4R9OCXI8NIZB2NSL0B00A6E2GY", "dateTime": 1516491274398}, {"current_trial": 6, "trialdata": {"rt": 37054, "trial_type": "text", "internal_node_id": "0.0-6.0", "time_elapsed": 236320, "key_press": 75, "type": "INSTRUCTIONS", "trial_index": 6}, "uniqueid": "MTK1878:3DHE4R9OCXI8NIZB2NSL0B00A6E2GY", "dateTime": 1516491312455}, {"current_trial": 7, "trialdata": {"rt": 11194, "trial_type": "text", "internal_node_id": "0.0-7.0", "time_elapsed": 248016, "key_press": 72, "type": "INSTRUCTIONS", "trial_index": 7}, "uniqueid": "MTK1878:3DHE4R9OCXI8NIZB2NSL0B00A6E2GY", "dateTime": 1516491324151}, {"current_trial": 8, "trialdata": {"rt": 12169, "trial_type": "text", "internal_node_id": "0.0-8.0", "time_elapsed": 260688, "key_press": 75, "type": "INSTRUCTIONS", "trial_index": 8}, "uniqueid": "MTK1878:3DHE4R9OCXI8NIZB2NSL0B00A6E2GY", "dateTime": 1516491336824}, {"current_trial": 9, "trialdata": {"rt": [3779, 6091, 7779, 13435, 16179, 17402], "trial_type": "math-distractor", "key_times": [2580, 2963, 3779, 5509, 5835, 6091, 7107, 7523, 7779, 8843, 9820, 10099, 10579, 10947, 11835, 12019, 12187, 12371, 12627, 13435, 14803, 15291, 16179, 16979, 17195, 17402], "responses": ["19", "13", "14", "4", "19", "13"], "num2": [2, 3, 2, 1, 5, 6, 7], "num3": [8, 4, 3, 2, 6, 1, 5], "conditions": [18, 1200, "a", 18000], "internal_node_id": "0.0-9.0", "key_presses": [49, 57, 13, 49, 51, 13, 49, 52, 13, 51, 45, 52, 45, 45, 8, 8, 8, 8, 52, 13, 49, 57, 13, 49, 51, 13], "trial": 0, "time_elapsed": 279701, "type": "DISTRACTOR", "trial_index": 9, "num1": [9, 6, 9, 1, 8, 6, 8]}, "uniqueid": "MTK1878:3DHE4R9OCXI8NIZB2NSL0B00A6E2GY", "dateTime": 1516491355836}, {"current_trial": 10, "trialdata": {"rt": -1, "trial_type": "single-stim", "stimulus": "<p id=\"stim\">10</p>", "internal_node_id": "0.0-10.0-0.0", "time_elapsed": 282705, "key_press": -1, "trial_index": 10}, "uniqueid": "MTK1878:3DHE4R9OCXI8NIZB2NSL0B00A6E2GY", "dateTime": 1516491358840}, {"current_trial": 11, "trialdata": {"rt": -1, "trial_type": "single-stim", "stimulus": "<p id=\"stim\">9</p>", "internal_node_id": "0.0-10.0-1.0", "time_elapsed": 283707, "key_press": -1, "trial_index": 11}, "uniqueid": "MTK1878:3DHE4R9OCXI8NIZB2NSL0B00A6E2GY", "dateTime": 1516491359842}, {"current_trial": 12, "trialdata": {"rt": -1, "trial_type": "single-stim", "stimulus": "<p id=\"stim\">8</p>", "internal_node_id": "0.0-10.0-2.0", "time_elapsed": 284710, "key_press": -1, "trial_index": 12}, "uniqueid": "MTK1878:3DHE4R9OCXI8NIZB2NSL0B00A6E2GY", "dateTime": 1516491360845}, {"current_trial": 13, "trialdata": {"rt": -1, "trial_type": "single-stim", "stimulus": "<p id=\"stim\">7</p>", "internal_node_id": "0.0-10.0-3.0", "time_elapsed": 285712, "key_press": -1, "trial_index": 13}, "uniqueid": "MTK1878:3DHE4R9OCXI8NIZB2NSL0B00A6E2GY", "dateTime": 1516491361847}, {"current_trial": 14, "trialdata": {"rt": -1, "trial_type": "single-stim", "stimulus": "<p id=\"stim\">6</p>", "internal_node_id": "0.0-10.0-4.0", "time_elapsed": 286714, "key_press": -1, "trial_index": 14}, "uniqueid": "MTK1878:3DHE4R9OCXI8NIZB2NSL0B00A6E2GY", "dateTime": 1516491362849}, {"current_trial": 15, "trialdata": {"rt": -1, "trial_type": "single-stim", "stimulus": "<p id=\"stim\">5</p>", "internal_node_id": "0.0-10.0-5.0", "time_elapsed": 287716, "key_press": -1, "trial_index": 15}, "uniqueid": "MTK1878:3DHE4R9OCXI8NIZB2NSL0B00A6E2GY", "dateTime": 1516491363851}, {"current_trial": 16, "trialdata": {"rt": -1, "trial_type": "single-stim", "stimulus": "<p id=\"stim\">4</p>", "internal_node_id": "0.0-10.0-6.0", "time_elapsed": 288719, "key_press": -1, "trial_index": 16}, "uniqueid": "MTK1878:3DHE4R9OCXI8NIZB2NSL0B00A6E2GY", "dateTime": 1516491364854}, {"current_trial": 17, "trialdata": {"rt": -1, "trial_type": "single-stim", "stimulus": "<p id=\"stim\">3</p>", "internal_node_id": "0.0-10.0-7.0", "time_elapsed": 289722, "key_press": -1, "trial_index": 17}, "uniqueid": "MTK1878:3DHE4R9OCXI8NIZB2NSL0B00A6E2GY", "dateTime": 1516491365857}, {"current_trial": 18, "trialdata": {"rt": -1, "trial_type": "single-stim", "stimulus": "<p id=\"stim\">2</p>", "internal_node_id": "0.0-10.0-8.0", "time_elapsed": 290724, "key_press": -1, "trial_index": 18}, "uniqueid": "MTK1878:3DHE4R9OCXI8NIZB2NSL0B00A6E2GY", "dateTime": 1516491366859}, {"current_trial": 19, "trialdata": {"rt": -1, "trial_type": "single-stim", "stimulus": "<p id=\"stim\">1</p>", "internal_node_id": "0.0-10.0-9.0", "time_elapsed": 291726, "key_press": -1, "trial_index": 19}, "uniqueid": "MTK1878:3DHE4R9OCXI8NIZB2NSL0B00A6E2GY", "dateTime": 1516491367861}, {"current_trial": 20, "trialdata": {"rt": -1, "trial_type": "single-stim", "stimulus": "<p id=\"stim\">+</p>", "internal_node_id": "0.0-11.0-0.0", "time_elapsed": 293228, "key_press": -1, "type": "FIXATION", "trial_index": 20}, "uniqueid": "MTK1878:3DHE4R9OCXI8NIZB2NSL0B00A6E2GY", "dateTime": 1516491369363}, {"current_trial": 21, "trialdata": {"rt": -1000, "trial_type": "single-audio", "word": "apron", "stimulus": "/static/audio/wordpool/APRON.wav", "conditions": [18, 1200, "a", 18000], "internal_node_id": "0.0-12.0", "trial": 0, "time_elapsed": 295368, "serialpos": 0, "key_press": -1, "wordID": 34, "type": "PRES_AUD", "trial_index": 21}, "uniqueid": "MTK1878:3DHE4R9OCXI8NIZB2NSL0B00A6E2GY", "dateTime": 1516491371503}, {"current_trial": 22, "trialdata": {"rt": -1000, "trial_type": "single-audio", "word": "shelf", "stimulus": "/static/audio/wordpool/SHELF.wav", "conditions": [18, 1200, "a", 18000], "internal_node_id": "0.0-13.0", "trial": 0, "time_elapsed": 297413, "serialpos": 1, "key_press": -1, "wordID": 1279, "type": "PRES_AUD", "trial_index": 22}, "uniqueid": "MTK1878:3DHE4R9OCXI8NIZB2NSL0B00A6E2GY", "dateTime": 1516491373548}, {"current_trial": 23, "trialdata": {"rt": -1000, "trial_type": "single-audio", "word": "glass", "stimulus": "/static/audio/wordpool/GLASS.wav", "conditions": [18, 1200, "a", 18000], "internal_node_id": "0.0-14.0", "trial": 0, "time_elapsed": 299583, "serialpos": 2, "key_press": -1, "wordID": 638, "type": "PRES_AUD", "trial_index": 23}, "uniqueid": "MTK1878:3DHE4R9OCXI8NIZB2NSL0B00A6E2GY", "dateTime": 1516491375719}, {"current_trial": 24, "trialdata": {"rt": -1000, "trial_type": "single-audio", "word": "doughnut", "stimulus": "/static/audio/wordpool/DOUGHNUT.wav", "conditions": [18, 1200, "a", 18000], "internal_node_id": "0.0-15.0", "trial": 0, "time_elapsed": 301677, "serialpos": 3, "key_press": -1, "wordID": 489, "type": "PRES_AUD", "trial_index": 24}, "uniqueid": "MTK1878:3DHE4R9OCXI8NIZB2NSL0B00A6E2GY", "dateTime": 1516491377812}, {"current_trial": 25, "trialdata": {"rt": -1000, "trial_type": "single-audio", "word": "transplant", "stimulus": "/static/audio/wordpool/TRANSPLANT.wav", "conditions": [18, 1200, "a", 18000], "internal_node_id": "0.0-16.0", "trial": 0, "time_elapsed": 303925, "serialpos": 4, "key_press": -1, "wordID": 1495, "type": "PRES_AUD", "trial_index": 25}, "uniqueid": "MTK1878:3DHE4R9OCXI8NIZB2NSL0B00A6E2GY", "dateTime": 1516491380061}, {"current_trial": 26, "trialdata": {"rt": -1000, "trial_type": "single-audio", "word": "canal", "stimulus": "/static/audio/wordpool/CANAL.wav", "conditions": [18, 1200, "a", 18000], "internal_node_id": "0.0-17.0", "trial": 0, "time_elapsed": 306066, "serialpos": 5, "key_press": -1, "wordID": 225, "type": "PRES_AUD", "trial_index": 26}, "uniqueid": "MTK1878:3DHE4R9OCXI8NIZB2NSL0B00A6E2GY", "dateTime": 1516491382201}, {"current_trial": 27, "trialdata": {"rt": -1000, "trial_type": "single-audio", "word": "paper", "stimulus": "/static/audio/wordpool/PAPER.wav", "conditions": [18, 1200, "a", 18000], "internal_node_id": "0.0-18.0", "trial": 0, "time_elapsed": 308187, "serialpos": 6, "key_press": -1, "wordID": 1010, "type": "PRES_AUD", "trial_index": 27}, "uniqueid": "MTK1878:3DHE4R9OCXI8NIZB2NSL0B00A6E2GY", "dateTime": 1516491384322}, {"current_trial": 28, "trialdata": {"rt": -1000, "trial_type": "single-audio", "word": "banker", "stimulus": "/static/audio/wordpool/BANKER.wav", "conditions": [18, 1200, "a", 18000], "internal_node_id": "0.0-19.0", "trial": 0, "time_elapsed": 310377, "serialpos": 7, "key_press": -1, "wordID": 83, "type": "PRES_AUD", "trial_index": 28}, "uniqueid": "MTK1878:3DHE4R9OCXI8NIZB2NSL0B00A6E2GY", "dateTime": 1516491386512}, {"current_trial": 29, "trialdata": {"rt": -1000, "trial_type": "single-audio", "word": "daughter", "stimulus": "/static/audio/wordpool/DAUGHTER.wav", "conditions": [18, 1200, "a", 18000], "internal_node_id": "0.0-20.0", "trial": 0, "time_elapsed": 312784, "serialpos": 8, "key_press": -1, "wordID": 441, "type": "PRES_AUD", "trial_index": 29}, "uniqueid": "MTK1878:3DHE4R9OCXI8NIZB2NSL0B00A6E2GY", "dateTime": 1516491388919}, {"current_trial": 30, "trialdata": {"rt": -1000, "trial_type": "single-audio", "word": "shelter", "stimulus": "/static/audio/wordpool/SHELTER.wav", "conditions": [18, 1200, "a", 18000], "internal_node_id": "0.0-21.0", "trial": 0, "time_elapsed": 315131, "serialpos": 9, "key_press": -1, "wordID": 1281, "type": "PRES_AUD", "trial_index": 30}, "uniqueid": "MTK1878:3DHE4R9OCXI8NIZB2NSL0B00A6E2GY", "dateTime": 1516491391267}, {"current_trial": 31, "trialdata": {"rt": -1000, "trial_type": "single-audio", "word": "crevice", "stimulus": "/static/audio/wordpool/CREVICE.wav", "conditions": [18, 1200, "a", 18000], "internal_node_id": "0.0-22.0", "trial": 0, "time_elapsed": 317539, "serialpos": 10, "key_press": -1, "wordID": 404, "type": "PRES_AUD", "trial_index": 31}, "uniqueid": "MTK1878:3DHE4R9OCXI8NIZB2NSL0B00A6E2GY", "dateTime": 1516491393674}, {"current_trial": 32, "trialdata": {"rt": -1000, "trial_type": "single-audio", "word": "cottage", "stimulus": "/static/audio/wordpool/COTTAGE.wav", "conditions": [18, 1200, "a", 18000], "internal_node_id": "0.0-23.0", "trial": 0, "time_elapsed": 319647, "serialpos": 11, "key_press": -1, "wordID": 383, "type": "PRES_AUD", "trial_index": 32}, "uniqueid": "MTK1878:3DHE4R9OCXI8NIZB2NSL0B00A6E2GY", "dateTime": 1516491395783}, {"current_trial": 33, "trialdata": {"rt": -1000, "trial_type": "single-audio", "word": "costume", "stimulus": "/static/audio/wordpool/COSTUME.wav", "conditions": [18, 1200, "a", 18000], "internal_node_id": "0.0-24.0", "trial": 0, "time_elapsed": 321804, "serialpos": 12, "key_press": -1, "wordID": 382, "type": "PRES_AUD", "trial_index": 33}, "uniqueid": "MTK1878:3DHE4R9OCXI8NIZB2NSL0B00A6E2GY", "dateTime": 1516491397939}, {"current_trial": 34, "trialdata": {"rt": -1000, "trial_type": "single-audio", "word": "valve", "stimulus": "/static/audio/wordpool/VALVE.wav", "conditions": [18, 1200, "a", 18000], "internal_node_id": "0.0-25.0", "trial": 0, "time_elapsed": 324172, "serialpos": 13, "key_press": -1, "wordID": 1545, "type": "PRES_AUD", "trial_index": 34}, "uniqueid": "MTK1878:3DHE4R9OCXI8NIZB2NSL0B00A6E2GY", "dateTime": 1516491400308}, {"current_trial": 35, "trialdata": {"rt": -1000, "trial_type": "single-audio", "word": "sword", "stimulus": "/static/audio/wordpool/SWORD.wav", "conditions": [18, 1200, "a", 18000], "internal_node_id": "0.0-26.0", "trial": 0, "time_elapsed": 326189, "serialpos": 14, "key_press": -1, "wordID": 1422, "type": "PRES_AUD", "trial_index": 35}, "uniqueid": "MTK1878:3DHE4R9OCXI8NIZB2NSL0B00A6E2GY", "dateTime": 1516491402324}, {"current_trial": 36, "trialdata": {"rt": -1000, "trial_type": "single-audio", "word": "dress", "stimulus": "/static/audio/wordpool/DRESS.wav", "conditions": [18, 1200, "a", 18000], "internal_node_id": "0.0-27.0", "trial": 0, "time_elapsed": 328219, "serialpos": 15, "key_press": -1, "wordID": 494, "type": "PRES_AUD", "trial_index": 36}, "uniqueid": "MTK1878:3DHE4R9OCXI8NIZB2NSL0B00A6E2GY", "dateTime": 1516491404355}, {"current_trial": 37, "trialdata": {"rt": -1000, "trial_type": "single-audio", "word": "peach", "stimulus": "/static/audio/wordpool/PEACH.wav", "conditions": [18, 1200, "a", 18000], "internal_node_id": "0.0-28.0", "trial": 0, "time_elapsed": 330250, "serialpos": 16, "key_press": -1, "wordID": 1030, "type": "PRES_AUD", "trial_index": 37}, "uniqueid": "MTK1878:3DHE4R9OCXI8NIZB2NSL0B00A6E2GY", "dateTime": 1516491406385}, {"current_trial": 38, "trialdata": {"rt": -1000, "trial_type": "single-audio", "word": "onion", "stimulus": "/static/audio/wordpool/ONION.wav", "conditions": [18, 1200, "a", 18000], "internal_node_id": "0.0-29.0", "trial": 0, "time_elapsed": 332525, "serialpos": 17, "key_press": -1, "wordID": 976, "type": "PRES_AUD", "trial_index": 38}, "uniqueid": "MTK1878:3DHE4R9OCXI8NIZB2NSL0B00A6E2GY", "dateTime": 1516491408661}, {"current_trial": 39, "trialdata": {"rt": -1, "trial_type": "single-stim", "stimulus": "", "internal_node_id": "0.0-30.0-0.0", "time_elapsed": 333835, "key_press": -1, "type": "PRE_RECALL_DELAY", "trial_index": 39}, "uniqueid": "MTK1878:3DHE4R9OCXI8NIZB2NSL0B00A6E2GY", "dateTime": 1516491409970}, {"current_trial": 40, "trialdata": {"rt": -1000, "trial_type": "single-audio", "stimulus": "/static/audio/400Hz.wav", "internal_node_id": "0.0-31.0", "time_elapsed": 334346, "key_press": -1, "type": "PRE_RECALL_ALERT", "trial_index": 40}, "uniqueid": "MTK1878:3DHE4R9OCXI8NIZB2NSL0B00A6E2GY", "dateTime": 1516491410481}, {"current_trial": 41, "trialdata": {"rt": [3904, 5568, 6591, 12760, 18208, 21616, 57424], "recwords": ["apron", "peach", "oven", "sword", "onion", "shelf", ""], "key_times": [1881, 2009, 2360, 2808, 3192, 3376, 3528, 3904, 4752, 4888, 5016, 5200, 5360, 5568, 5936, 6096, 6232, 6360, 6591, 11840, 12065, 12160, 12344, 12544, 12760, 17328, 17512, 17688, 17792, 17968, 18208, 20736, 20872, 21003, 21176, 21376, 21616, 57424], "trial_type": "free-recall", "conditions": [18, 1200, "a", 18000], "internal_node_id": "0.0-32.0-0.0", "key_presses": [65, 80, 82, 8, 82, 79, 78, 13, 80, 69, 65, 67, 72, 13, 79, 86, 69, 78, 13, 83, 87, 79, 82, 68, 13, 79, 78, 73, 79, 78, 13, 83, 72, 69, 76, 70, 13, 13], "trial": 0, "time_elapsed": 394354, "type": "FREE_RECALL", "trial_index": 41}, "uniqueid": "MTK1878:3DHE4R9OCXI8NIZB2NSL0B00A6E2GY", "dateTime": 1516491470495}, {"current_trial": 42, "trialdata": {"rt": 2484, "trial_type": "text", "internal_node_id": "0.0-33.0", "time_elapsed": 398846, "key_press": 75, "type": "INSTRUCTIONS", "trial_index": 42}, "uniqueid": "MTK1878:3DHE4R9OCXI8NIZB2NSL0B00A6E2GY", "dateTime": 1516491474981}, {"current_trial": 43, "trialdata": {"rt": [4059, 5363, 8603, 10867, 12211, 14467, 16475], "trial_type": "math-distractor", "key_times": [2276, 2587, 4059, 5011, 5227, 5363, 6891, 7723, 8603, 9603, 10211, 10867, 11875, 12035, 12211, 13748, 14467, 15459, 16187, 16475, 17787], "responses": ["16", "13", "17", "19", "12", "8", "16"], "num2": [7, 5, 1, 8, 8, 6, 7, 4], "num3": [3, 1, 8, 5, 3, 1, 5, 1], "conditions": [18, 1200, "a", 18000], "internal_node_id": "0.0-34.0", "key_presses": [49, 54, 13, 49, 51, 13, 49, 55, 13, 49, 57, 13, 49, 50, 13, 56, 13, 49, 54, 13, 49], "trial": 1, "time_elapsed": 418853, "type": "DISTRACTOR", "trial_index": 43, "num1": [6, 7, 8, 6, 1, 1, 4, 9]}, "uniqueid": "MTK1878:3DHE4R9OCXI8NIZB2NSL0B00A6E2GY", "dateTime": 1516491494988}, {"current_trial": 44, "trialdata": {"rt": -1, "trial_type": "single-stim", "stimulus": "<p id=\"stim\">10</p>", "internal_node_id": "0.0-35.0-0.0", "time_elapsed": 421856, "key_press": -1, "trial_index": 44}, "uniqueid": "MTK1878:3DHE4R9OCXI8NIZB2NSL0B00A6E2GY", "dateTime": 1516491497991}, {"current_trial": 45, "trialdata": {"rt": -1, "trial_type": "single-stim", "stimulus": "<p id=\"stim\">9</p>", "internal_node_id": "0.0-35.0-1.0", "time_elapsed": 422858, "key_press": -1, "trial_index": 45}, "uniqueid": "MTK1878:3DHE4R9OCXI8NIZB2NSL0B00A6E2GY", "dateTime": 1516491498993}, {"current_trial": 46, "trialdata": {"rt": -1, "trial_type": "single-stim", "stimulus": "<p id=\"stim\">8</p>", "internal_node_id": "0.0-35.0-2.0", "time_elapsed": 423860, "key_press": -1, "trial_index": 46}, "uniqueid": "MTK1878:3DHE4R9OCXI8NIZB2NSL0B00A6E2GY", "dateTime": 1516491499995}, {"current_trial": 47, "trialdata": {"rt": -1, "trial_type": "single-stim", "stimulus": "<p id=\"stim\">7</p>", "internal_node_id": "0.0-35.0-3.0", "time_elapsed": 424863, "key_press": -1, "trial_index": 47}, "uniqueid": "MTK1878:3DHE4R9OCXI8NIZB2NSL0B00A6E2GY", "dateTime": 1516491500998}, {"current_trial": 48, "trialdata": {"rt": -1, "trial_type": "single-stim", "stimulus": "<p id=\"stim\">6</p>", "internal_node_id": "0.0-35.0-4.0", "time_elapsed": 425866, "key_press": -1, "trial_index": 48}, "uniqueid": "MTK1878:3DHE4R9OCXI8NIZB2NSL0B00A6E2GY", "dateTime": 1516491502001}, {"current_trial": 49, "trialdata": {"rt": -1, "trial_type": "single-stim", "stimulus": "<p id=\"stim\">5</p>", "internal_node_id": "0.0-35.0-5.0", "time_elapsed": 426869, "key_press": -1, "trial_index": 49}, "uniqueid": "MTK1878:3DHE4R9OCXI8NIZB2NSL0B00A6E2GY", "dateTime": 1516491503004}, {"current_trial": 50, "trialdata": {"rt": -1, "trial_type": "single-stim", "stimulus": "<p id=\"stim\">4</p>", "internal_node_id": "0.0-35.0-6.0", "time_elapsed": 427872, "key_press": -1, "trial_index": 50}, "uniqueid": "MTK1878:3DHE4R9OCXI8NIZB2NSL0B00A6E2GY", "dateTime": 1516491504007}, {"current_trial": 51, "trialdata": {"rt": -1, "trial_type": "single-stim", "stimulus": "<p id=\"stim\">3</p>", "internal_node_id": "0.0-35.0-7.0", "time_elapsed": 428874, "key_press": -1, "trial_index": 51}, "uniqueid": "MTK1878:3DHE4R9OCXI8NIZB2NSL0B00A6E2GY", "dateTime": 1516491505009}, {"current_trial": 52, "trialdata": {"rt": -1, "trial_type": "single-stim", "stimulus": "<p id=\"stim\">2</p>", "internal_node_id": "0.0-35.0-8.0", "time_elapsed": 429877, "key_press": -1, "trial_index": 52}, "uniqueid": "MTK1878:3DHE4R9OCXI8NIZB2NSL0B00A6E2GY", "dateTime": 1516491506012}, {"current_trial": 53, "trialdata": {"rt": -1, "trial_type": "single-stim", "stimulus": "<p id=\"stim\">1</p>", "internal_node_id": "0.0-35.0-9.0", "time_elapsed": 430879, "key_press": -1, "trial_index": 53}, "uniqueid": "MTK1878:3DHE4R9OCXI8NIZB2NSL0B00A6E2GY", "dateTime": 1516491507015}, {"current_trial": 54, "trialdata": {"rt": -1, "trial_type": "single-stim", "stimulus": "<p id=\"stim\">+</p>", "internal_node_id": "0.0-36.0-0.0", "time_elapsed": 432382, "key_press": -1, "type": "FIXATION", "trial_index": 54}, "uniqueid": "MTK1878:3DHE4R9OCXI8NIZB2NSL0B00A6E2GY", "dateTime": 1516491508517}, {"current_trial": 55, "trialdata": {"rt": -1000, "trial_type": "single-audio", "word": "radish", "stimulus": "/static/audio/wordpool/RADISH.wav", "conditions": [18, 1200, "a", 18000], "internal_node_id": "0.0-37.0", "trial": 1, "time_elapsed": 434596, "serialpos": 0, "key_press": -1, "wordID": 1157, "type": "PRES_AUD", "trial_index": 55}, "uniqueid": "MTK1878:3DHE4R9OCXI8NIZB2NSL0B00A6E2GY", "dateTime": 1516491510732}, {"current_trial": 56, "trialdata": {"rt": -1000, "trial_type": "single-audio", "word": "pocket", "stimulus": "/static/audio/wordpool/POCKET.wav", "conditions": [18, 1200, "a", 18000], "internal_node_id": "0.0-38.0", "trial": 1, "time_elapsed": 436905, "serialpos": 1, "key_press": -1, "wordID": 1092, "type": "PRES_AUD", "trial_index": 56}, "uniqueid": "MTK1878:3DHE4R9OCXI8NIZB2NSL0B00A6E2GY", "dateTime": 1516491513041}, {"current_trial": 57, "trialdata": {"rt": -1000, "trial_type": "single-audio", "word": "bug", "stimulus": "/static/audio/wordpool/BUG.wav", "conditions": [18, 1200, "a", 18000], "internal_node_id": "0.0-39.0", "trial": 1, "time_elapsed": 439231, "serialpos": 2, "key_press": -1, "wordID": 186, "type": "PRES_AUD", "trial_index": 57}, "uniqueid": "MTK1878:3DHE4R9OCXI8NIZB2NSL0B00A6E2GY", "dateTime": 1516491515366}, {"current_trial": 58, "trialdata": {"rt": -1000, "trial_type": "single-audio", "word": "softball", "stimulus": "/static/audio/wordpool/SOFTBALL.wav", "conditions": [18, 1200, "a", 18000], "internal_node_id": "0.0-40.0", "trial": 1, "time_elapsed": 441354, "serialpos": 3, "key_press": -1, "wordID": 1342, "type": "PRES_AUD", "trial_index": 58}, "uniqueid": "MTK1878:3DHE4R9OCXI8NIZB2NSL0B00A6E2GY", "dateTime": 1516491517489}, {"current_trial": 59, "trialdata": {"rt": -1000, "trial_type": "single-audio", "word": "washer", "stimulus": "/static/audio/wordpool/WASHER.wav", "conditions": [18, 1200, "a", 18000], "internal_node_id": "0.0-41.0", "trial": 1, "time_elapsed": 443397, "serialpos": 4, "key_press": -1, "wordID": 1591, "type": "PRES_AUD", "trial_index": 59}, "uniqueid": "MTK1878:3DHE4R9OCXI8NIZB2NSL0B00A6E2GY", "dateTime": 1516491519532}, {"current_trial": 60, "trialdata": {"rt": -1000, "trial_type": "single-audio", "word": "snack", "stimulus": "/static/audio/wordpool/SNACK.wav", "conditions": [18, 1200, "a", 18000], "internal_node_id": "0.0-42.0", "trial": 1, "time_elapsed": 445633, "serialpos": 5, "key_press": -1, "wordID": 1330, "type": "PRES_AUD", "trial_index": 60}, "uniqueid": "MTK1878:3DHE4R9OCXI8NIZB2NSL0B00A6E2GY", "dateTime": 1516491521768}, {"current_trial": 61, "trialdata": {"rt": -1000, "trial_type": "single-audio", "word": "blockade", "stimulus": "/static/audio/wordpool/BLOCKADE.wav", "conditions": [18, 1200, "a", 18000], "internal_node_id": "0.0-43.0", "trial": 1, "time_elapsed": 448046, "serialpos": 6, "key_press": -1, "wordID": 136, "type": "PRES_AUD", "trial_index": 61}, "uniqueid": "MTK1878:3DHE4R9OCXI8NIZB2NSL0B00A6E2GY", "dateTime": 1516491524181}, {"current_trial": 62, "trialdata": {"rt": -1000, "trial_type": "single-audio", "word": "marsh", "stimulus": "/static/audio/wordpool/MARSH.wav", "conditions": [18, 1200, "a", 18000], "internal_node_id": "0.0-44.0", "trial": 1, "time_elapsed": 450429, "serialpos": 7, "key_press": -1, "wordID": 873, "type": "PRES_AUD", "trial_index": 62}, "uniqueid": "MTK1878:3DHE4R9OCXI8NIZB2NSL0B00A6E2GY", "dateTime": 1516491526565}, {"current_trial": 63, "trialdata": {"rt": -1000, "trial_type": "single-audio", "word": "mattress", "stimulus": "/static/audio/wordpool/MATTRESS.wav", "conditions": [18, 1200, "a", 18000], "internal_node_id": "0.0-45.0", "trial": 1, "time_elapsed": 452567, "serialpos": 8, "key_press": -1, "wordID": 878, "type": "PRES_AUD", "trial_index": 63}, "uniqueid": "MTK1878:3DHE4R9OCXI8NIZB2NSL0B00A6E2GY", "dateTime": 1516491528702}, {"current_trial": 64, "trialdata": {"rt": -1000, "trial_type": "single-audio", "word": "coin", "stimulus": "/static/audio/wordpool/COIN.wav", "conditions": [18, 1200, "a", 18000], "internal_node_id": "0.0-46.0", "trial": 1, "time_elapsed": 454736, "serialpos": 9, "key_press": -1, "wordID": 342, "type": "PRES_AUD", "trial_index": 64}, "uniqueid": "MTK1878:3DHE4R9OCXI8NIZB2NSL0B00A6E2GY", "dateTime": 1516491530871}, {"current_trial": 65, "trialdata": {"rt": -1000, "trial_type": "single-audio", "word": "pecan", "stimulus": "/static/audio/wordpool/PECAN.wav", "conditions": [18, 1200, "a", 18000], "internal_node_id": "0.0-47.0", "trial": 1, "time_elapsed": 456984, "serialpos": 10, "key_press": -1, "wordID": 1035, "type": "PRES_AUD", "trial_index": 65}, "uniqueid": "MTK1878:3DHE4R9OCXI8NIZB2NSL0B00A6E2GY", "dateTime": 1516491533119}, {"current_trial": 66, "trialdata": {"rt": -1000, "trial_type": "single-audio", "word": "suspect", "stimulus": "/static/audio/wordpool/SUSPECT.wav", "conditions": [18, 1200, "a", 18000], "internal_node_id": "0.0-48.0", "trial": 1, "time_elapsed": 459282, "serialpos": 11, "key_press": -1, "wordID": 1414, "type": "PRES_AUD", "trial_index": 66}, "uniqueid": "MTK1878:3DHE4R9OCXI8NIZB2NSL0B00A6E2GY", "dateTime": 1516491535417}, {"current_trial": 67, "trialdata": {"rt": -1000, "trial_type": "single-audio", "word": "fireplace", "stimulus": "/static/audio/wordpool/FIREPLACE.wav", "conditions": [18, 1200, "a", 18000], "internal_node_id": "0.0-49.0", "trial": 1, "time_elapsed": 461513, "serialpos": 12, "key_press": -1, "wordID": 569, "type": "PRES_AUD", "trial_index": 67}, "uniqueid": "MTK1878:3DHE4R9OCXI8NIZB2NSL0B00A6E2GY", "dateTime": 1516491537648}, {"current_trial": 68, "trialdata": {"rt": -1000, "trial_type": "single-audio", "word": "atom", "stimulus": "/static/audio/wordpool/ATOM.wav", "conditions": [18, 1200, "a", 18000], "internal_node_id": "0.0-50.0", "trial": 1, "time_elapsed": 463611, "serialpos": 13, "key_press": -1, "wordID": 54, "type": "PRES_AUD", "trial_index": 68}, "uniqueid": "MTK1878:3DHE4R9OCXI8NIZB2NSL0B00A6E2GY", "dateTime": 1516491539749}, {"current_trial": 69, "trialdata": {"rt": -1000, "trial_type": "single-audio", "word": "crayon", "stimulus": "/static/audio/wordpool/CRAYON.wav", "conditions": [18, 1200, "a", 18000], "internal_node_id": "0.0-51.0", "trial": 1, "time_elapsed": 465924, "serialpos": 14, "key_press": -1, "wordID": 400, "type": "PRES_AUD", "trial_index": 69}, "uniqueid": "MTK1878:3DHE4R9OCXI8NIZB2NSL0B00A6E2GY", "dateTime": 1516491542059}, {"current_trial": 70, "trialdata": {"rt": -1000, "trial_type": "single-audio", "word": "daisy", "stimulus": "/static/audio/wordpool/DAISY.wav", "conditions": [18, 1200, "a", 18000], "internal_node_id": "0.0-52.0", "trial": 1, "time_elapsed": 468112, "serialpos": 15, "key_press": -1, "wordID": 434, "type": "PRES_AUD", "trial_index": 70}, "uniqueid": "MTK1878:3DHE4R9OCXI8NIZB2NSL0B00A6E2GY", "dateTime": 1516491544247}, {"current_trial": 71, "trialdata": {"rt": -1000, "trial_type": "single-audio", "word": "marrow", "stimulus": "/static/audio/wordpool/MARROW.wav", "conditions": [18, 1200, "a", 18000], "internal_node_id": "0.0-53.0", "trial": 1, "time_elapsed": 470492, "serialpos": 16, "key_press": -1, "wordID": 871, "type": "PRES_AUD", "trial_index": 71}, "uniqueid": "MTK1878:3DHE4R9OCXI8NIZB2NSL0B00A6E2GY", "dateTime": 1516491546627}, {"current_trial": 72, "trialdata": {"rt": -1000, "trial_type": "single-audio", "word": "jury", "stimulus": "/static/audio/wordpool/JURY.wav", "conditions": [18, 1200, "a", 18000], "internal_node_id": "0.0-54.0", "trial": 1, "time_elapsed": 472791, "serialpos": 17, "key_press": -1, "wordID": 765, "type": "PRES_AUD", "trial_index": 72}, "uniqueid": "MTK1878:3DHE4R9OCXI8NIZB2NSL0B00A6E2GY", "dateTime": 1516491548926}, {"current_trial": 73, "trialdata": {"rt": -1, "trial_type": "single-stim", "stimulus": "", "internal_node_id": "0.0-55.0-0.0", "time_elapsed": 474024, "key_press": -1, "type": "PRE_RECALL_DELAY", "trial_index": 73}, "uniqueid": "MTK1878:3DHE4R9OCXI8NIZB2NSL0B00A6E2GY", "dateTime": 1516491550159}, {"current_trial": 74, "trialdata": {"rt": -1000, "trial_type": "single-audio", "stimulus": "/static/audio/400Hz.wav", "internal_node_id": "0.0-56.0", "time_elapsed": 474528, "key_press": -1, "type": "PRE_RECALL_ALERT", "trial_index": 74}, "uniqueid": "MTK1878:3DHE4R9OCXI8NIZB2NSL0B00A6E2GY", "dateTime": 1516491550663}, {"current_trial": 75, "trialdata": {"rt": [2460, 3427, 4515, 5900, 8915, 13315, 29707, 40643], "recwords": ["pocket", "coin", "jury", "atom", "raddish", "marrow", "coin", "softball"], "key_times": [1380, 1564, 1787, 1923, 2139, 2323, 2460, 2835, 2955, 3091, 3187, 3427, 3723, 3971, 4131, 4259, 4515, 5307, 5475, 5555, 5675, 5900, 7795, 7964, 8091, 8291, 8403, 8595, 8691, 8915, 12396, 12499, 12691, 12875, 12971, 13155, 13315, 29045, 29204, 29340, 29476, 29707, 39205, 39364, 39540, 39764, 40012, 40140, 40276, 40436, 40643], "trial_type": "free-recall", "conditions": [18, 1200, "a", 18000], "internal_node_id": "0.0-57.0-0.0", "key_presses": [80, 79, 67, 75, 69, 84, 13, 67, 79, 73, 78, 13, 74, 85, 82, 89, 13, 65, 84, 79, 77, 13, 82, 65, 68, 68, 73, 83, 72, 13, 77, 65, 82, 82, 79, 87, 13, 67, 79, 73, 78, 13, 83, 79, 70, 84, 66, 65, 76, 76, 13], "trial": 1, "time_elapsed": 534534, "type": "FREE_RECALL", "trial_index": 75}, "uniqueid": "MTK1878:3DHE4R9OCXI8NIZB2NSL0B00A6E2GY", "dateTime": 1516491610680}, {"current_trial": 76, "trialdata": {"rt": 5597, "trial_type": "text", "internal_node_id": "0.0-58.0", "time_elapsed": 542144, "key_press": 74, "type": "INSTRUCTIONS", "trial_index": 76}, "uniqueid": "MTK1878:3DHE4R9OCXI8NIZB2NSL0B00A6E2GY", "dateTime": 1516491618280}, {"current_trial": 77, "trialdata": {"rt": [3002, 6994, 8969, 10074, 11890, 14145, 16889, 19081, 21706], "trial_type": "math-distractor", "key_times": [1754, 1978, 3002, 5666, 6146, 6994, 8578, 8778, 8969, 9730, 9938, 10074, 11010, 11698, 11890, 13386, 13930, 14145, 16074, 16610, 16889, 18138, 18818, 19081, 20706, 21362, 21706, 23802], "responses": ["22", "25", "11", "13", "19", "17", "14", "18", "16"], "num2": [8, 8, 1, 5, 8, 1, 6, 8, 5, 8], "num3": [5, 9, 2, 1, 3, 8, 4, 9, 2, 7], "conditions": [24, 1600, "a", 24000], "internal_node_id": "0.0-59.0", "key_presses": [50, 50, 13, 50, 53, 13, 49, 49, 13, 49, 51, 13, 49, 57, 13, 49, 55, 13, 49, 52, 13, 49, 56, 13, 49, 54, 13, 50], "trial": 2, "time_elapsed": 567150, "type": "DISTRACTOR", "trial_index": 77, "num1": [9, 8, 8, 7, 8, 8, 4, 1, 9, 5]}, "uniqueid": "MTK1878:3DHE4R9OCXI8NIZB2NSL0B00A6E2GY", "dateTime": 1516491643285}, {"current_trial": 78, "trialdata": {"rt": -1, "trial_type": "single-stim", "stimulus": "<p id=\"stim\">10</p>", "internal_node_id": "0.0-60.0-0.0", "time_elapsed": 570152, "key_press": -1, "trial_index": 78}, "uniqueid": "MTK1878:3DHE4R9OCXI8NIZB2NSL0B00A6E2GY", "dateTime": 1516491646287}, {"current_trial": 79, "trialdata": {"rt": -1, "trial_type": "single-stim", "stimulus": "<p id=\"stim\">9</p>", "internal_node_id": "0.0-60.0-1.0", "time_elapsed": 571154, "key_press": -1, "trial_index": 79}, "uniqueid": "MTK1878:3DHE4R9OCXI8NIZB2NSL0B00A6E2GY", "dateTime": 1516491647289}, {"current_trial": 80, "trialdata": {"rt": -1, "trial_type": "single-stim", "stimulus": "<p id=\"stim\">8</p>", "internal_node_id": "0.0-60.0-2.0", "time_elapsed": 572155, "key_press": -1, "trial_index": 80}, "uniqueid": "MTK1878:3DHE4R9OCXI8NIZB2NSL0B00A6E2GY", "dateTime": 1516491648291}, {"current_trial": 81, "trialdata": {"rt": -1, "trial_type": "single-stim", "stimulus": "<p id=\"stim\">7</p>", "internal_node_id": "0.0-60.0-3.0", "time_elapsed": 573157, "key_press": -1, "trial_index": 81}, "uniqueid": "MTK1878:3DHE4R9OCXI8NIZB2NSL0B00A6E2GY", "dateTime": 1516491649292}, {"current_trial": 82, "trialdata": {"rt": -1, "trial_type": "single-stim", "stimulus": "<p id=\"stim\">6</p>", "internal_node_id": "0.0-60.0-4.0", "time_elapsed": 574158, "key_press": -1, "trial_index": 82}, "uniqueid": "MTK1878:3DHE4R9OCXI8NIZB2NSL0B00A6E2GY", "dateTime": 1516491650294}, {"current_trial": 83, "trialdata": {"rt": -1, "trial_type": "single-stim", "stimulus": "<p id=\"stim\">5</p>", "internal_node_id": "0.0-60.0-5.0", "time_elapsed": 575160, "key_press": -1, "trial_index": 83}, "uniqueid": "MTK1878:3DHE4R9OCXI8NIZB2NSL0B00A6E2GY", "dateTime": 1516491651295}, {"current_trial": 84, "trialdata": {"rt": -1, "trial_type": "single-stim", "stimulus": "<p id=\"stim\">4</p>", "internal_node_id": "0.0-60.0-6.0", "time_elapsed": 576161, "key_press": -1, "trial_index": 84}, "uniqueid": "MTK1878:3DHE4R9OCXI8NIZB2NSL0B00A6E2GY", "dateTime": 1516491652296}, {"current_trial": 85, "trialdata": {"rt": -1, "trial_type": "single-stim", "stimulus": "<p id=\"stim\">3</p>", "internal_node_id": "0.0-60.0-7.0", "time_elapsed": 577163, "key_press": -1, "trial_index": 85}, "uniqueid": "MTK1878:3DHE4R9OCXI8NIZB2NSL0B00A6E2GY", "dateTime": 1516491653298}, {"current_trial": 86, "trialdata": {"rt": -1, "trial_type": "single-stim", "stimulus": "<p id=\"stim\">2</p>", "internal_node_id": "0.0-60.0-8.0", "time_elapsed": 578164, "key_press": -1, "trial_index": 86}, "uniqueid": "MTK1878:3DHE4R9OCXI8NIZB2NSL0B00A6E2GY", "dateTime": 1516491654300}, {"current_trial": 87, "trialdata": {"rt": -1, "trial_type": "single-stim", "stimulus": "<p id=\"stim\">1</p>", "internal_node_id": "0.0-60.0-9.0", "time_elapsed": 579166, "key_press": -1, "trial_index": 87}, "uniqueid": "MTK1878:3DHE4R9OCXI8NIZB2NSL0B00A6E2GY", "dateTime": 1516491655301}, {"current_trial": 88, "trialdata": {"rt": -1, "trial_type": "single-stim", "stimulus": "<p id=\"stim\">+</p>", "internal_node_id": "0.0-61.0-0.0", "time_elapsed": 580668, "key_press": -1, "type": "FIXATION", "trial_index": 88}, "uniqueid": "MTK1878:3DHE4R9OCXI8NIZB2NSL0B00A6E2GY", "dateTime": 1516491656804}, {"current_trial": 89, "trialdata": {"rt": -1000, "trial_type": "single-audio", "word": "marker", "stimulus": "/static/audio/wordpool/MARKER.wav", "conditions": [24, 1600, "a", 24000], "internal_node_id": "0.0-62.0", "trial": 2, "time_elapsed": 583259, "serialpos": 0, "key_press": -1, "wordID": 869, "type": "PRES_AUD", "trial_index": 89}, "uniqueid": "MTK1878:3DHE4R9OCXI8NIZB2NSL0B00A6E2GY", "dateTime": 1516491659395}, {"current_trial": 90, "trialdata": {"rt": -1000, "trial_type": "single-audio", "word": "playground", "stimulus": "/static/audio/wordpool/PLAYGROUND.wav", "conditions": [24, 1600, "a", 24000], "internal_node_id": "0.0-63.0", "trial": 2, "time_elapsed": 585921, "serialpos": 1, "key_press": -1, "wordID": 1086, "type": "PRES_AUD", "trial_index": 90}, "uniqueid": "MTK1878:3DHE4R9OCXI8NIZB2NSL0B00A6E2GY", "dateTime": 1516491662056}, {"current_trial": 91, "trialdata": {"rt": -1000, "trial_type": "single-audio", "word": "banjo", "stimulus": "/static/audio/wordpool/BANJO.wav", "conditions": [24, 1600, "a", 24000], "internal_node_id": "0.0-64.0", "trial": 2, "time_elapsed": 588458, "serialpos": 2, "key_press": -1, "wordID": 81, "type": "PRES_AUD", "trial_index": 91}, "uniqueid": "MTK1878:3DHE4R9OCXI8NIZB2NSL0B00A6E2GY", "dateTime": 1516491664593}, {"current_trial": 92, "trialdata": {"rt": -1000, "trial_type": "single-audio", "word": "scarecrow", "stimulus": "/static/audio/wordpool/SCARECROW.wav", "conditions": [24, 1600, "a", 24000], "internal_node_id": "0.0-65.0", "trial": 2, "time_elapsed": 591217, "serialpos": 3, "key_press": -1, "wordID": 1244, "type": "PRES_AUD", "trial_index": 92}, "uniqueid": "MTK1878:3DHE4R9OCXI8NIZB2NSL0B00A6E2GY", "dateTime": 1516491667352}, {"current_trial": 93, "trialdata": {"rt": -1000, "trial_type": "single-audio", "word": "bacon", "stimulus": "/static/audio/wordpool/BACON.wav", "conditions": [24, 1600, "a", 24000], "internal_node_id": "0.0-66.0", "trial": 2, "time_elapsed": 593837, "serialpos": 4, "key_press": -1, "wordID": 66, "type": "PRES_AUD", "trial_index": 93}, "uniqueid": "MTK1878:3DHE4R9OCXI8NIZB2NSL0B00A6E2GY", "dateTime": 1516491669973}, {"current_trial": 94, "trialdata": {"rt": -1000, "trial_type": "single-audio", "word": "outlaw", "stimulus": "/static/audio/wordpool/OUTLAW.wav", "conditions": [24, 1600, "a", 24000], "internal_node_id": "0.0-67.0", "trial": 2, "time_elapsed": 596324, "serialpos": 5, "key_press": -1, "wordID": 988, "type": "PRES_AUD", "trial_index": 94}, "uniqueid": "MTK1878:3DHE4R9OCXI8NIZB2NSL0B00A6E2GY", "dateTime": 1516491672459}, {"current_trial": 95, "trialdata": {"rt": -1000, "trial_type": "single-audio", "word": "tile", "stimulus": "/static/audio/wordpool/TILE.wav", "conditions": [24, 1600, "a", 24000], "internal_node_id": "0.0-68.0", "trial": 2, "time_elapsed": 599076, "serialpos": 6, "key_press": -1, "wordID": 1467, "type": "PRES_AUD", "trial_index": 95}, "uniqueid": "MTK1878:3DHE4R9OCXI8NIZB2NSL0B00A6E2GY", "dateTime": 1516491675212}, {"current_trial": 96, "trialdata": {"rt": -1000, "trial_type": "single-audio", "word": "statue", "stimulus": "/static/audio/wordpool/STATUE.wav", "conditions": [24, 1600, "a", 24000], "internal_node_id": "0.0-69.0", "trial": 2, "time_elapsed": 601491, "serialpos": 7, "key_press": -1, "wordID": 1373, "type": "PRES_AUD", "trial_index": 96}, "uniqueid": "MTK1878:3DHE4R9OCXI8NIZB2NSL0B00A6E2GY", "dateTime": 1516491677626}, {"current_trial": 97, "trialdata": {"rt": -1000, "trial_type": "single-audio", "word": "sculpture", "stimulus": "/static/audio/wordpool/SCULPTURE.wav", "conditions": [24, 1600, "a", 24000], "internal_node_id": "0.0-70.0", "trial": 2, "time_elapsed": 604272, "serialpos": 8, "key_press": -1, "wordID": 1257, "type": "PRES_AUD", "trial_index": 97}, "uniqueid": "MTK1878:3DHE4R9OCXI8NIZB2NSL0B00A6E2GY", "dateTime": 1516491680408}, {"current_trial": 98, "trialdata": {"rt": -1000, "trial_type": "single-audio", "word": "flute", "stimulus": "/static/audio/wordpool/FLUTE.wav", "conditions": [24, 1600, "a", 24000], "internal_node_id": "0.0-71.0", "trial": 2, "time_elapsed": 606699, "serialpos": 9, "key_press": -1, "wordID": 584, "type": "PRES_AUD", "trial_index": 98}, "uniqueid": "MTK1878:3DHE4R9OCXI8NIZB2NSL0B00A6E2GY", "dateTime": 1516491682835}, {"current_trial": 99, "trialdata": {"rt": -1000, "trial_type": "single-audio", "word": "rug", "stimulus": "/static/audio/wordpool/RUG.wav", "conditions": [24, 1600, "a", 24000], "internal_node_id": "0.0-72.0", "trial": 2, "time_elapsed": 609358, "serialpos": 10, "key_press": -1, "wordID": 1214, "type": "PRES_AUD", "trial_index": 99}, "uniqueid": "MTK1878:3DHE4R9OCXI8NIZB2NSL0B00A6E2GY", "dateTime": 1516491685493}, {"current_trial": 100, "trialdata": {"rt": -1000, "trial_type": "single-audio", "word": "glove", "stimulus": "/static/audio/wordpool/GLOVE.wav", "conditions": [24, 1600, "a", 24000], "internal_node_id": "0.0-73.0", "trial": 2, "time_elapsed": 611939, "serialpos": 11, "key_press": -1, "wordID": 641, "type": "PRES_AUD", "trial_index": 100}, "uniqueid": "MTK1878:3DHE4R9OCXI8NIZB2NSL0B00A6E2GY", "dateTime": 1516491688074}, {"current_trial": 101, "trialdata": {"rt": -1000, "trial_type": "single-audio", "word": "kitchen", "stimulus": "/static/audio/wordpool/KITCHEN.wav", "conditions": [24, 1600, "a", 24000], "internal_node_id": "0.0-74.0", "trial": 2, "time_elapsed": 614385, "serialpos": 12, "key_press": -1, "wordID": 777, "type": "PRES_AUD", "trial_index": 101}, "uniqueid": "MTK1878:3DHE4R9OCXI8NIZB2NSL0B00A6E2GY", "dateTime": 1516491690520}, {"current_trial": 102, "trialdata": {"rt": -1000, "trial_type": "single-audio", "word": "mars", "stimulus": "/static/audio/wordpool/MARS.wav", "conditions": [24, 1600, "a", 24000], "internal_node_id": "0.0-75.0", "trial": 2, "time_elapsed": 617186, "serialpos": 13, "key_press": -1, "wordID": 872, "type": "PRES_AUD", "trial_index": 102}, "uniqueid": "MTK1878:3DHE4R9OCXI8NIZB2NSL0B00A6E2GY", "dateTime": 1516491693322}, {"current_trial": 103, "trialdata": {"rt": -1000, "trial_type": "single-audio", "word": "camel", "stimulus": "/static/audio/wordpool/CAMEL.wav", "conditions": [24, 1600, "a", 24000], "internal_node_id": "0.0-76.0", "trial": 2, "time_elapsed": 619766, "serialpos": 14, "key_press": -1, "wordID": 222, "type": "PRES_AUD", "trial_index": 103}, "uniqueid": "MTK1878:3DHE4R9OCXI8NIZB2NSL0B00A6E2GY", "dateTime": 1516491695901}, {"current_trial": 104, "trialdata": {"rt": -1000, "trial_type": "single-audio", "word": "brick", "stimulus": "/static/audio/wordpool/BRICK.wav", "conditions": [24, 1600, "a", 24000], "internal_node_id": "0.0-77.0", "trial": 2, "time_elapsed": 622539, "serialpos": 15, "key_press": -1, "wordID": 171, "type": "PRES_AUD", "trial_index": 104}, "uniqueid": "MTK1878:3DHE4R9OCXI8NIZB2NSL0B00A6E2GY", "dateTime": 1516491698675}, {"current_trial": 105, "trialdata": {"rt": -1000, "trial_type": "single-audio", "word": "badge", "stimulus": "/static/audio/wordpool/BADGE.wav", "conditions": [24, 1600, "a", 24000], "internal_node_id": "0.0-78.0", "trial": 2, "time_elapsed": 625017, "serialpos": 16, "key_press": -1, "wordID": 67, "type": "PRES_AUD", "trial_index": 105}, "uniqueid": "MTK1878:3DHE4R9OCXI8NIZB2NSL0B00A6E2GY", "dateTime": 1516491701152}, {"current_trial": 106, "trialdata": {"rt": -1000, "trial_type": "single-audio", "word": "cupboard", "stimulus": "/static/audio/wordpool/CUPBOARD.wav", "conditions": [24, 1600, "a", 24000], "internal_node_id": "0.0-79.0", "trial": 2, "time_elapsed": 627463, "serialpos": 17, "key_press": -1, "wordID": 424, "type": "PRES_AUD", "trial_index": 106}, "uniqueid": "MTK1878:3DHE4R9OCXI8NIZB2NSL0B00A6E2GY", "dateTime": 1516491703598}, {"current_trial": 107, "trialdata": {"rt": -1000, "trial_type": "single-audio", "word": "report", "stimulus": "/static/audio/wordpool/REPORT.wav", "conditions": [24, 1600, "a", 24000], "internal_node_id": "0.0-80.0", "trial": 2, "time_elapsed": 630019, "serialpos": 18, "key_press": -1, "wordID": 1183, "type": "PRES_AUD", "trial_index": 107}, "uniqueid": "MTK1878:3DHE4R9OCXI8NIZB2NSL0B00A6E2GY", "dateTime": 1516491706155}, {"current_trial": 108, "trialdata": {"rt": -1000, "trial_type": "single-audio", "word": "survey", "stimulus": "/static/audio/wordpool/SURVEY.wav", "conditions": [24, 1600, "a", 24000], "internal_node_id": "0.0-81.0", "trial": 2, "time_elapsed": 632634, "serialpos": 19, "key_press": -1, "wordID": 1413, "type": "PRES_AUD", "trial_index": 108}, "uniqueid": "MTK1878:3DHE4R9OCXI8NIZB2NSL0B00A6E2GY", "dateTime": 1516491708770}, {"current_trial": 109, "trialdata": {"rt": -1000, "trial_type": "single-audio", "word": "seal", "stimulus": "/static/audio/wordpool/SEAL.wav", "conditions": [24, 1600, "a", 24000], "internal_node_id": "0.0-82.0", "trial": 2, "time_elapsed": 635228, "serialpos": 20, "key_press": -1, "wordID": 1261, "type": "PRES_AUD", "trial_index": 109}, "uniqueid": "MTK1878:3DHE4R9OCXI8NIZB2NSL0B00A6E2GY", "dateTime": 1516491711364}, {"current_trial": 110, "trialdata": {"rt": -1000, "trial_type": "single-audio", "word": "viking", "stimulus": "/static/audio/wordpool/VIKING.wav", "conditions": [24, 1600, "a", 24000], "internal_node_id": "0.0-83.0", "trial": 2, "time_elapsed": 637694, "serialpos": 21, "key_press": -1, "wordID": 1564, "type": "PRES_AUD", "trial_index": 110}, "uniqueid": "MTK1878:3DHE4R9OCXI8NIZB2NSL0B00A6E2GY", "dateTime": 1516491713830}, {"current_trial": 111, "trialdata": {"rt": -1000, "trial_type": "single-audio", "word": "lover", "stimulus": "/static/audio/wordpool/LOVER.wav", "conditions": [24, 1600, "a", 24000], "internal_node_id": "0.0-84.0", "trial": 2, "time_elapsed": 640432, "serialpos": 22, "key_press": -1, "wordID": 845, "type": "PRES_AUD", "trial_index": 111}, "uniqueid": "MTK1878:3DHE4R9OCXI8NIZB2NSL0B00A6E2GY", "dateTime": 1516491716567}, {"current_trial": 112, "trialdata": {"rt": -1000, "trial_type": "single-audio", "word": "poet", "stimulus": "/static/audio/wordpool/POET.wav", "conditions": [24, 1600, "a", 24000], "internal_node_id": "0.0-85.0", "trial": 2, "time_elapsed": 643084, "serialpos": 23, "key_press": -1, "wordID": 1094, "type": "PRES_AUD", "trial_index": 112}, "uniqueid": "MTK1878:3DHE4R9OCXI8NIZB2NSL0B00A6E2GY", "dateTime": 1516491719219}, {"current_trial": 113, "trialdata": {"rt": -1, "trial_type": "single-stim", "stimulus": "", "internal_node_id": "0.0-86.0-0.0", "time_elapsed": 644303, "key_press": -1, "type": "PRE_RECALL_DELAY", "trial_index": 113}, "uniqueid": "MTK1878:3DHE4R9OCXI8NIZB2NSL0B00A6E2GY", "dateTime": 1516491720439}, {"current_trial": 114, "trialdata": {"rt": -1000, "trial_type": "single-audio", "stimulus": "/static/audio/400Hz.wav", "internal_node_id": "0.0-87.0", "time_elapsed": 644811, "key_press": -1, "type": "PRE_RECALL_ALERT", "trial_index": 114}, "uniqueid": "MTK1878:3DHE4R9OCXI8NIZB2NSL0B00A6E2GY", "dateTime": 1516491720946}, {"current_trial": 115, "trialdata": {"rt": [1513, 3697, 7201, 8273, 16249, 18425, 19881, 27089, 45697, 55865], "recwords": ["poet", "cupboard", "viking", "lover", "outlaw", "bacon", "kitchen", "banjo", "park", "marsh"], "key_times": [585, 785, 1049, 1201, 1513, 2193, 2417, 2609, 2865, 2983, 3176, 3369, 3577, 3697, 6273, 6409, 6609, 6801, 6937, 7072, 7201, 7481, 7705, 7833, 8057, 8137, 8273, 15377, 15497, 15625, 15769, 15913, 16089, 16249, 17257, 17409, 17584, 18049, 18225, 18425, 18713, 18897, 19001, 19256, 19384, 19561, 19657, 19881, 26209, 26345, 26473, 26689, 26833, 27089, 45066, 45225, 45369, 45489, 45697, 55009, 55146, 55289, 55530, 55609, 55865], "trial_type": "free-recall", "conditions": [24, 1600, "a", 24000], "internal_node_id": "0.0-88.0-0.0", "key_presses": [80, 79, 69, 84, 13, 67, 85, 80, 66, 79, 65, 82, 68, 13, 86, 73, 75, 73, 78, 71, 13, 76, 79, 86, 69, 82, 13, 79, 85, 84, 76, 65, 87, 13, 66, 65, 67, 79, 78, 13, 75, 73, 84, 67, 72, 69, 78, 13, 66, 65, 78, 74, 79, 13, 80, 65, 82, 75, 13, 77, 65, 82, 83, 72, 13], "trial": 2, "time_elapsed": 704816, "type": "FREE_RECALL", "trial_index": 115}, "uniqueid": "MTK1878:3DHE4R9OCXI8NIZB2NSL0B00A6E2GY", "dateTime": 1516491780958}, {"current_trial": 116, "trialdata": {"rt": 2310, "trial_type": "text", "internal_node_id": "0.0-89.0", "time_elapsed": 709135, "key_press": 74, "type": "INSTRUCTIONS", "trial_index": 116}, "uniqueid": "MTK1878:3DHE4R9OCXI8NIZB2NSL0B00A6E2GY", "dateTime": 1516491785271}, {"current_trial": 117, "trialdata": {"rt": [1667, 3507, 5411, 7531, 9931], "trial_type": "math-distractor", "key_times": [916, 1155, 1667, 2915, 3259, 3507, 5092, 5251, 5411, 6891, 7251, 7531, 9619, 9931, 11988], "responses": ["11", "14", "21", "14", "8"], "num2": [1, 3, 3, 4, 1, 8], "num3": [9, 3, 9, 9, 4, 9], "conditions": [24, 800, "a", 12000], "internal_node_id": "0.0-90.0", "key_presses": [49, 49, 13, 49, 52, 13, 50, 49, 13, 49, 52, 13, 56, 13, 50], "trial": 3, "time_elapsed": 723142, "type": "DISTRACTOR", "trial_index": 117, "num1": [1, 8, 9, 1, 3, 9]}, "uniqueid": "MTK1878:3DHE4R9OCXI8NIZB2NSL0B00A6E2GY", "dateTime": 1516491799277}, {"current_trial": 118, "trialdata": {"rt": -1, "trial_type": "single-stim", "stimulus": "<p id=\"stim\">10</p>", "internal_node_id": "0.0-91.0-0.0", "time_elapsed": 726146, "key_press": -1, "trial_index": 118}, "uniqueid": "MTK1878:3DHE4R9OCXI8NIZB2NSL0B00A6E2GY", "dateTime": 1516491802281}, {"current_trial": 119, "trialdata": {"rt": -1, "trial_type": "single-stim", "stimulus": "<p id=\"stim\">9</p>", "internal_node_id": "0.0-91.0-1.0", "time_elapsed": 727148, "key_press": -1, "trial_index": 119}, "uniqueid": "MTK1878:3DHE4R9OCXI8NIZB2NSL0B00A6E2GY", "dateTime": 1516491803284}, {"current_trial": 120, "trialdata": {"rt": -1, "trial_type": "single-stim", "stimulus": "<p id=\"stim\">8</p>", "internal_node_id": "0.0-91.0-2.0", "time_elapsed": 728152, "key_press": -1, "trial_index": 120}, "uniqueid": "MTK1878:3DHE4R9OCXI8NIZB2NSL0B00A6E2GY", "dateTime": 1516491804287}, {"current_trial": 121, "trialdata": {"rt": -1, "trial_type": "single-stim", "stimulus": "<p id=\"stim\">7</p>", "internal_node_id": "0.0-91.0-3.0", "time_elapsed": 729154, "key_press": -1, "trial_index": 121}, "uniqueid": "MTK1878:3DHE4R9OCXI8NIZB2NSL0B00A6E2GY", "dateTime": 1516491805289}, {"current_trial": 122, "trialdata": {"rt": -1, "trial_type": "single-stim", "stimulus": "<p id=\"stim\">6</p>", "internal_node_id": "0.0-91.0-4.0", "time_elapsed": 730155, "key_press": -1, "trial_index": 122}, "uniqueid": "MTK1878:3DHE4R9OCXI8NIZB2NSL0B00A6E2GY", "dateTime": 1516491806291}, {"current_trial": 123, "trialdata": {"rt": -1, "trial_type": "single-stim", "stimulus": "<p id=\"stim\">5</p>", "internal_node_id": "0.0-91.0-5.0", "time_elapsed": 731158, "key_press": -1, "trial_index": 123}, "uniqueid": "MTK1878:3DHE4R9OCXI8NIZB2NSL0B00A6E2GY", "dateTime": 1516491807293}, {"current_trial": 124, "trialdata": {"rt": -1, "trial_type": "single-stim", "stimulus": "<p id=\"stim\">4</p>", "internal_node_id": "0.0-91.0-6.0", "time_elapsed": 732159, "key_press": -1, "trial_index": 124}, "uniqueid": "MTK1878:3DHE4R9OCXI8NIZB2NSL0B00A6E2GY", "dateTime": 1516491808295}, {"current_trial": 125, "trialdata": {"rt": -1, "trial_type": "single-stim", "stimulus": "<p id=\"stim\">3</p>", "internal_node_id": "0.0-91.0-7.0", "time_elapsed": 733161, "key_press": -1, "trial_index": 125}, "uniqueid": "MTK1878:3DHE4R9OCXI8NIZB2NSL0B00A6E2GY", "dateTime": 1516491809297}, {"current_trial": 126, "trialdata": {"rt": -1, "trial_type": "single-stim", "stimulus": "<p id=\"stim\">2</p>", "internal_node_id": "0.0-91.0-8.0", "time_elapsed": 734163, "key_press": -1, "trial_index": 126}, "uniqueid": "MTK1878:3DHE4R9OCXI8NIZB2NSL0B00A6E2GY", "dateTime": 1516491810299}, {"current_trial": 127, "trialdata": {"rt": -1, "trial_type": "single-stim", "stimulus": "<p id=\"stim\">1</p>", "internal_node_id": "0.0-91.0-9.0", "time_elapsed": 735165, "key_press": -1, "trial_index": 127}, "uniqueid": "MTK1878:3DHE4R9OCXI8NIZB2NSL0B00A6E2GY", "dateTime": 1516491811300}, {"current_trial": 128, "trialdata": {"rt": -1, "trial_type": "single-stim", "stimulus": "<p id=\"stim\">+</p>", "internal_node_id": "0.0-92.0-0.0", "time_elapsed": 736667, "key_press": -1, "type": "FIXATION", "trial_index": 128}, "uniqueid": "MTK1878:3DHE4R9OCXI8NIZB2NSL0B00A6E2GY", "dateTime": 1516491812802}, {"current_trial": 129, "trialdata": {"rt": -1000, "trial_type": "single-audio", "word": "lizard", "stimulus": "/static/audio/wordpool/LIZARD.wav", "conditions": [24, 800, "a", 12000], "internal_node_id": "0.0-93.0", "trial": 3, "time_elapsed": 738612, "serialpos": 0, "key_press": -1, "wordID": 833, "type": "PRES_AUD", "trial_index": 129}, "uniqueid": "MTK1878:3DHE4R9OCXI8NIZB2NSL0B00A6E2GY", "dateTime": 1516491814747}, {"current_trial": 130, "trialdata": {"rt": -1000, "trial_type": "single-audio", "word": "office", "stimulus": "/static/audio/wordpool/OFFICE.wav", "conditions": [24, 800, "a", 12000], "internal_node_id": "0.0-94.0", "trial": 3, "time_elapsed": 740551, "serialpos": 1, "key_press": -1, "wordID": 971, "type": "PRES_AUD", "trial_index": 130}, "uniqueid": "MTK1878:3DHE4R9OCXI8NIZB2NSL0B00A6E2GY", "dateTime": 1516491816686}, {"current_trial": 131, "trialdata": {"rt": -1000, "trial_type": "single-audio", "word": "lodge", "stimulus": "/static/audio/wordpool/LODGE.wav", "conditions": [24, 800, "a", 12000], "internal_node_id": "0.0-95.0", "trial": 3, "time_elapsed": 742235, "serialpos": 2, "key_press": -1, "wordID": 838, "type": "PRES_AUD", "trial_index": 131}, "uniqueid": "MTK1878:3DHE4R9OCXI8NIZB2NSL0B00A6E2GY", "dateTime": 1516491818370}, {"current_trial": 132, "trialdata": {"rt": -1000, "trial_type": "single-audio", "word": "river", "stimulus": "/static/audio/wordpool/RIVER.wav", "conditions": [24, 800, "a", 12000], "internal_node_id": "0.0-96.0", "trial": 3, "time_elapsed": 744109, "serialpos": 3, "key_press": -1, "wordID": 1193, "type": "PRES_AUD", "trial_index": 132}, "uniqueid": "MTK1878:3DHE4R9OCXI8NIZB2NSL0B00A6E2GY", "dateTime": 1516491820244}, {"current_trial": 133, "trialdata": {"rt": -1000, "trial_type": "single-audio", "word": "creature", "stimulus": "/static/audio/wordpool/CREATURE.wav", "conditions": [24, 800, "a", 12000], "internal_node_id": "0.0-97.0", "trial": 3, "time_elapsed": 746115, "serialpos": 4, "key_press": -1, "wordID": 402, "type": "PRES_AUD", "trial_index": 133}, "uniqueid": "MTK1878:3DHE4R9OCXI8NIZB2NSL0B00A6E2GY", "dateTime": 1516491822251}, {"current_trial": 134, "trialdata": {"rt": -1000, "trial_type": "single-audio", "word": "sunrise", "stimulus": "/static/audio/wordpool/SUNRISE.wav", "conditions": [24, 800, "a", 12000], "internal_node_id": "0.0-98.0", "trial": 3, "time_elapsed": 747876, "serialpos": 5, "key_press": -1, "wordID": 1406, "type": "PRES_AUD", "trial_index": 134}, "uniqueid": "MTK1878:3DHE4R9OCXI8NIZB2NSL0B00A6E2GY", "dateTime": 1516491824012}, {"current_trial": 135, "trialdata": {"rt": -1000, "trial_type": "single-audio", "word": "sunset", "stimulus": "/static/audio/wordpool/SUNSET.wav", "conditions": [24, 800, "a", 12000], "internal_node_id": "0.0-99.0", "trial": 3, "time_elapsed": 749706, "serialpos": 6, "key_press": -1, "wordID": 1407, "type": "PRES_AUD", "trial_index": 135}, "uniqueid": "MTK1878:3DHE4R9OCXI8NIZB2NSL0B00A6E2GY", "dateTime": 1516491825841}, {"current_trial": 136, "trialdata": {"rt": -1000, "trial_type": "single-audio", "word": "blender", "stimulus": "/static/audio/wordpool/BLENDER.wav", "conditions": [24, 800, "a", 12000], "internal_node_id": "0.0-100.0", "trial": 3, "time_elapsed": 751676, "serialpos": 7, "key_press": -1, "wordID": 135, "type": "PRES_AUD", "trial_index": 136}, "uniqueid": "MTK1878:3DHE4R9OCXI8NIZB2NSL0B00A6E2GY", "dateTime": 1516491827811}, {"current_trial": 137, "trialdata": {"rt": -1000, "trial_type": "single-audio", "word": "finger", "stimulus": "/static/audio/wordpool/FINGER.wav", "conditions": [24, 800, "a", 12000], "internal_node_id": "0.0-101.0", "trial": 3, "time_elapsed": 753541, "serialpos": 8, "key_press": -1, "wordID": 566, "type": "PRES_AUD", "trial_index": 137}, "uniqueid": "MTK1878:3DHE4R9OCXI8NIZB2NSL0B00A6E2GY", "dateTime": 1516491829676}, {"current_trial": 138, "trialdata": {"rt": -1000, "trial_type": "single-audio", "word": "servant", "stimulus": "/static/audio/wordpool/SERVANT.wav", "conditions": [24, 800, "a", 12000], "internal_node_id": "0.0-102.0", "trial": 3, "time_elapsed": 755251, "serialpos": 9, "key_press": -1, "wordID": 1270, "type": "PRES_AUD", "trial_index": 138}, "uniqueid": "MTK1878:3DHE4R9OCXI8NIZB2NSL0B00A6E2GY", "dateTime": 1516491831386}, {"current_trial": 139, "trialdata": {"rt": -1000, "trial_type": "single-audio", "word": "stomach", "stimulus": "/static/audio/wordpool/STOMACH.wav", "conditions": [24, 800, "a", 12000], "internal_node_id": "0.0-103.0", "trial": 3, "time_elapsed": 757035, "serialpos": 10, "key_press": -1, "wordID": 1383, "type": "PRES_AUD", "trial_index": 139}, "uniqueid": "MTK1878:3DHE4R9OCXI8NIZB2NSL0B00A6E2GY", "dateTime": 1516491833170}, {"current_trial": 140, "trialdata": {"rt": -1000, "trial_type": "single-audio", "word": "skillet", "stimulus": "/static/audio/wordpool/SKILLET.wav", "conditions": [24, 800, "a", 12000], "internal_node_id": "0.0-104.0", "trial": 3, "time_elapsed": 758991, "serialpos": 11, "key_press": -1, "wordID": 1316, "type": "PRES_AUD", "trial_index": 140}, "uniqueid": "MTK1878:3DHE4R9OCXI8NIZB2NSL0B00A6E2GY", "dateTime": 1516491835126}, {"current_trial": 141, "trialdata": {"rt": -1000, "trial_type": "single-audio", "word": "fox", "stimulus": "/static/audio/wordpool/FOX.wav", "conditions": [24, 800, "a", 12000], "internal_node_id": "0.0-105.0", "trial": 3, "time_elapsed": 760754, "serialpos": 12, "key_press": -1, "wordID": 597, "type": "PRES_AUD", "trial_index": 141}, "uniqueid": "MTK1878:3DHE4R9OCXI8NIZB2NSL0B00A6E2GY", "dateTime": 1516491836889}, {"current_trial": 142, "trialdata": {"rt": -1000, "trial_type": "single-audio", "word": "shrub", "stimulus": "/static/audio/wordpool/SHRUB.wav", "conditions": [24, 800, "a", 12000], "internal_node_id": "0.0-106.0", "trial": 3, "time_elapsed": 762553, "serialpos": 13, "key_press": -1, "wordID": 1298, "type": "PRES_AUD", "trial_index": 142}, "uniqueid": "MTK1878:3DHE4R9OCXI8NIZB2NSL0B00A6E2GY", "dateTime": 1516491838689}, {"current_trial": 143, "trialdata": {"rt": -1000, "trial_type": "single-audio", "word": "tortoise", "stimulus": "/static/audio/wordpool/TORTOISE.wav", "conditions": [24, 800, "a", 12000], "internal_node_id": "0.0-107.0", "trial": 3, "time_elapsed": 764340, "serialpos": 14, "key_press": -1, "wordID": 1485, "type": "PRES_AUD", "trial_index": 143}, "uniqueid": "MTK1878:3DHE4R9OCXI8NIZB2NSL0B00A6E2GY", "dateTime": 1516491840475}, {"current_trial": 144, "trialdata": {"rt": -1000, "trial_type": "single-audio", "word": "captive", "stimulus": "/static/audio/wordpool/CAPTIVE.wav", "conditions": [24, 800, "a", 12000], "internal_node_id": "0.0-108.0", "trial": 3, "time_elapsed": 766079, "serialpos": 15, "key_press": -1, "wordID": 239, "type": "PRES_AUD", "trial_index": 144}, "uniqueid": "MTK1878:3DHE4R9OCXI8NIZB2NSL0B00A6E2GY", "dateTime": 1516491842214}, {"current_trial": 145, "trialdata": {"rt": -1000, "trial_type": "single-audio", "word": "boyfriend", "stimulus": "/static/audio/wordpool/BOYFRIEND.wav", "conditions": [24, 800, "a", 12000], "internal_node_id": "0.0-109.0", "trial": 3, "time_elapsed": 767832, "serialpos": 16, "key_press": -1, "wordID": 161, "type": "PRES_AUD", "trial_index": 145}, "uniqueid": "MTK1878:3DHE4R9OCXI8NIZB2NSL0B00A6E2GY", "dateTime": 1516491843967}, {"current_trial": 146, "trialdata": {"rt": -1000, "trial_type": "single-audio", "word": "cousin", "stimulus": "/static/audio/wordpool/COUSIN.wav", "conditions": [24, 800, "a", 12000], "internal_node_id": "0.0-110.0", "trial": 3, "time_elapsed": 769785, "serialpos": 17, "key_press": -1, "wordID": 391, "type": "PRES_AUD", "trial_index": 146}, "uniqueid": "MTK1878:3DHE4R9OCXI8NIZB2NSL0B00A6E2GY", "dateTime": 1516491845920}, {"current_trial": 147, "trialdata": {"rt": -1000, "trial_type": "single-audio", "word": "banquet", "stimulus": "/static/audio/wordpool/BANQUET.wav", "conditions": [24, 800, "a", 12000], "internal_node_id": "0.0-111.0", "trial": 3, "time_elapsed": 771692, "serialpos": 18, "key_press": -1, "wordID": 85, "type": "PRES_AUD", "trial_index": 147}, "uniqueid": "MTK1878:3DHE4R9OCXI8NIZB2NSL0B00A6E2GY", "dateTime": 1516491847827}, {"current_trial": 148, "trialdata": {"rt": -1000, "trial_type": "single-audio", "word": "spider", "stimulus": "/static/audio/wordpool/SPIDER.wav", "conditions": [24, 800, "a", 12000], "internal_node_id": "0.0-112.0", "trial": 3, "time_elapsed": 773310, "serialpos": 19, "key_press": -1, "wordID": 1350, "type": "PRES_AUD", "trial_index": 148}, "uniqueid": "MTK1878:3DHE4R9OCXI8NIZB2NSL0B00A6E2GY", "dateTime": 1516491849445}, {"current_trial": 149, "trialdata": {"rt": -1000, "trial_type": "single-audio", "word": "garden", "stimulus": "/static/audio/wordpool/GARDEN.wav", "conditions": [24, 800, "a", 12000], "internal_node_id": "0.0-113.0", "trial": 3, "time_elapsed": 775089, "serialpos": 20, "key_press": -1, "wordID": 622, "type": "PRES_AUD", "trial_index": 149}, "uniqueid": "MTK1878:3DHE4R9OCXI8NIZB2NSL0B00A6E2GY", "dateTime": 1516491851225}, {"current_trial": 150, "trialdata": {"rt": -1000, "trial_type": "single-audio", "word": "lunch", "stimulus": "/static/audio/wordpool/LUNCH.wav", "conditions": [24, 800, "a", 12000], "internal_node_id": "0.0-114.0", "trial": 3, "time_elapsed": 776957, "serialpos": 21, "key_press": -1, "wordID": 848, "type": "PRES_AUD", "trial_index": 150}, "uniqueid": "MTK1878:3DHE4R9OCXI8NIZB2NSL0B00A6E2GY", "dateTime": 1516491853092}, {"current_trial": 151, "trialdata": {"rt": -1000, "trial_type": "single-audio", "word": "concert", "stimulus": "/static/audio/wordpool/CONCERT.wav", "conditions": [24, 800, "a", 12000], "internal_node_id": "0.0-115.0", "trial": 3, "time_elapsed": 778591, "serialpos": 22, "key_press": -1, "wordID": 359, "type": "PRES_AUD", "trial_index": 151}, "uniqueid": "MTK1878:3DHE4R9OCXI8NIZB2NSL0B00A6E2GY", "dateTime": 1516491854726}, {"current_trial": 152, "trialdata": {"rt": -1000, "trial_type": "single-audio", "word": "loft", "stimulus": "/static/audio/wordpool/LOFT.wav", "conditions": [24, 800, "a", 12000], "internal_node_id": "0.0-116.0", "trial": 3, "time_elapsed": 780407, "serialpos": 23, "key_press": -1, "wordID": 839, "type": "PRES_AUD", "trial_index": 152}, "uniqueid": "MTK1878:3DHE4R9OCXI8NIZB2NSL0B00A6E2GY", "dateTime": 1516491856542}, {"current_trial": 153, "trialdata": {"rt": -1, "trial_type": "single-stim", "stimulus": "", "internal_node_id": "0.0-117.0-0.0", "time_elapsed": 781691, "key_press": -1, "type": "PRE_RECALL_DELAY", "trial_index": 153}, "uniqueid": "MTK1878:3DHE4R9OCXI8NIZB2NSL0B00A6E2GY", "dateTime": 1516491857827}, {"current_trial": 154, "trialdata": {"rt": -1000, "trial_type": "single-audio", "stimulus": "/static/audio/400Hz.wav", "internal_node_id": "0.0-118.0", "time_elapsed": 782198, "key_press": -1, "type": "PRE_RECALL_ALERT", "trial_index": 154}, "uniqueid": "MTK1878:3DHE4R9OCXI8NIZB2NSL0B00A6E2GY", "dateTime": 1516491858333}, {"current_trial": 155, "trialdata": {"rt": [2068, 3756, 11372, 13148, 16540, 20380, 26644, 36188, 37908], "recwords": ["sunrise", "sunset", "lizard", "spider", "marker", "office", "laugh", "cousin", "boyfriend"], "key_times": [1094, 1236, 1461, 1588, 1724, 1900, 2028, 2068, 2652, 2756, 2972, 3349, 3508, 3612, 3756, 9909, 10092, 10492, 10772, 10988, 11205, 11372, 12316, 12420, 12548, 12708, 12909, 13020, 13148, 15780, 15916, 16052, 16164, 16348, 16404, 16540, 19461, 19612, 19789, 19916, 20061, 20292, 20380, 24773, 24916, 25324, 25556, 26348, 26644, 35061, 35260, 35300, 35780, 35884, 36012, 36188, 36428, 36524, 36780, 36980, 37228, 37364, 37532, 37668, 37820, 37908], "trial_type": "free-recall", "conditions": [24, 800, "a", 12000], "internal_node_id": "0.0-119.0-0.0", "key_presses": [83, 85, 78, 82, 73, 83, 69, 13, 83, 85, 78, 83, 69, 84, 13, 76, 73, 90, 65, 82, 68, 13, 83, 80, 73, 68, 69, 82, 13, 77, 65, 82, 75, 69, 82, 13, 79, 70, 70, 73, 67, 69, 13, 76, 65, 85, 71, 72, 13, 67, 79, 85, 83, 73, 78, 13, 66, 79, 89, 70, 82, 73, 69, 78, 68, 13], "trial": 3, "time_elapsed": 842205, "type": "FREE_RECALL", "trial_index": 155}, "uniqueid": "MTK1878:3DHE4R9OCXI8NIZB2NSL0B00A6E2GY", "dateTime": 1516491918345}, {"current_trial": 156, "trialdata": {"rt": 1020, "trial_type": "text", "internal_node_id": "0.0-120.0", "time_elapsed": 845231, "key_press": 32, "type": "INSTRUCTIONS", "trial_index": 156}, "uniqueid": "MTK1878:3DHE4R9OCXI8NIZB2NSL0B00A6E2GY", "dateTime": 1516491921366}, {"current_trial": 157, "trialdata": {"rt": [1771, 6963, 8435, 10651, 14035, 16043, 18363, 20883, 22019, 23667], "trial_type": "math-distractor", "key_times": [1203, 1427, 1771, 3707, 4355, 4587, 4779, 5395, 5907, 6963, 8020, 8259, 8435, 9867, 10435, 10651, 12123, 13067, 14035, 15491, 15747, 16043, 16779, 17483, 18363, 19491, 19979, 20883, 21603, 21827, 22019, 23267, 23483, 23667], "responses": ["20", "20", "13", "15", "17", "23", "10", "20", "11", "13"], "num2": [6, 3, 6, 4, 6, 9, 5, 7, 1, 9, 2], "num3": [6, 9, 3, 9, 9, 7, 1, 6, 1, 2, 1], "conditions": [24, 800, "a", 24000], "internal_node_id": "0.0-121.0", "key_presses": [50, 48, 13, 49, 8, 50, 57, 8, 48, 13, 49, 51, 13, 49, 53, 13, 49, 55, 13, 50, 51, 13, 49, 48, 13, 50, 48, 13, 49, 49, 13, 49, 51, 13], "trial": 4, "time_elapsed": 871237, "type": "DISTRACTOR", "trial_index": 157, "num1": [8, 8, 4, 2, 2, 7, 4, 7, 9, 2, 4]}, "uniqueid": "MTK1878:3DHE4R9OCXI8NIZB2NSL0B00A6E2GY", "dateTime": 1516491947372}, {"current_trial": 158, "trialdata": {"rt": -1, "trial_type": "single-stim", "stimulus": "<p id=\"stim\">10</p>", "internal_node_id": "0.0-122.0-0.0", "time_elapsed": 874241, "key_press": -1, "trial_index": 158}, "uniqueid": "MTK1878:3DHE4R9OCXI8NIZB2NSL0B00A6E2GY", "dateTime": 1516491950376}, {"current_trial": 159, "trialdata": {"rt": -1, "trial_type": "single-stim", "stimulus": "<p id=\"stim\">9</p>", "internal_node_id": "0.0-122.0-1.0", "time_elapsed": 875244, "key_press": -1, "trial_index": 159}, "uniqueid": "MTK1878:3DHE4R9OCXI8NIZB2NSL0B00A6E2GY", "dateTime": 1516491951379}, {"current_trial": 160, "trialdata": {"rt": -1, "trial_type": "single-stim", "stimulus": "<p id=\"stim\">8</p>", "internal_node_id": "0.0-122.0-2.0", "time_elapsed": 876246, "key_press": -1, "trial_index": 160}, "uniqueid": "MTK1878:3DHE4R9OCXI8NIZB2NSL0B00A6E2GY", "dateTime": 1516491952381}, {"current_trial": 161, "trialdata": {"rt": -1, "trial_type": "single-stim", "stimulus": "<p id=\"stim\">7</p>", "internal_node_id": "0.0-122.0-3.0", "time_elapsed": 877248, "key_press": -1, "trial_index": 161}, "uniqueid": "MTK1878:3DHE4R9OCXI8NIZB2NSL0B00A6E2GY", "dateTime": 1516491953384}, {"current_trial": 162, "trialdata": {"rt": -1, "trial_type": "single-stim", "stimulus": "<p id=\"stim\">6</p>", "internal_node_id": "0.0-122.0-4.0", "time_elapsed": 878251, "key_press": -1, "trial_index": 162}, "uniqueid": "MTK1878:3DHE4R9OCXI8NIZB2NSL0B00A6E2GY", "dateTime": 1516491954386}, {"current_trial": 163, "trialdata": {"rt": -1, "trial_type": "single-stim", "stimulus": "<p id=\"stim\">5</p>", "internal_node_id": "0.0-122.0-5.0", "time_elapsed": 879254, "key_press": -1, "trial_index": 163}, "uniqueid": "MTK1878:3DHE4R9OCXI8NIZB2NSL0B00A6E2GY", "dateTime": 1516491955389}, {"current_trial": 164, "trialdata": {"rt": -1, "trial_type": "single-stim", "stimulus": "<p id=\"stim\">4</p>", "internal_node_id": "0.0-122.0-6.0", "time_elapsed": 880256, "key_press": -1, "trial_index": 164}, "uniqueid": "MTK1878:3DHE4R9OCXI8NIZB2NSL0B00A6E2GY", "dateTime": 1516491956391}, {"current_trial": 165, "trialdata": {"rt": -1, "trial_type": "single-stim", "stimulus": "<p id=\"stim\">3</p>", "internal_node_id": "0.0-122.0-7.0", "time_elapsed": 881259, "key_press": -1, "trial_index": 165}, "uniqueid": "MTK1878:3DHE4R9OCXI8NIZB2NSL0B00A6E2GY", "dateTime": 1516491957394}, {"current_trial": 166, "trialdata": {"rt": -1, "trial_type": "single-stim", "stimulus": "<p id=\"stim\">2</p>", "internal_node_id": "0.0-122.0-8.0", "time_elapsed": 882261, "key_press": -1, "trial_index": 166}, "uniqueid": "MTK1878:3DHE4R9OCXI8NIZB2NSL0B00A6E2GY", "dateTime": 1516491958396}, {"current_trial": 167, "trialdata": {"rt": -1, "trial_type": "single-stim", "stimulus": "<p id=\"stim\">1</p>", "internal_node_id": "0.0-122.0-9.0", "time_elapsed": 883264, "key_press": -1, "trial_index": 167}, "uniqueid": "MTK1878:3DHE4R9OCXI8NIZB2NSL0B00A6E2GY", "dateTime": 1516491959399}, {"current_trial": 168, "trialdata": {"rt": -1, "trial_type": "single-stim", "stimulus": "<p id=\"stim\">+</p>", "internal_node_id": "0.0-123.0-0.0", "time_elapsed": 884766, "key_press": -1, "type": "FIXATION", "trial_index": 168}, "uniqueid": "MTK1878:3DHE4R9OCXI8NIZB2NSL0B00A6E2GY", "dateTime": 1516491960901}, {"current_trial": 169, "trialdata": {"rt": -1000, "trial_type": "single-audio", "word": "lamp", "stimulus": "/static/audio/wordpool/LAMP.wav", "conditions": [24, 800, "a", 24000], "internal_node_id": "0.0-124.0", "trial": 4, "time_elapsed": 886505, "serialpos": 0, "key_press": -1, "wordID": 797, "type": "PRES_AUD", "trial_index": 169}, "uniqueid": "MTK1878:3DHE4R9OCXI8NIZB2NSL0B00A6E2GY", "dateTime": 1516491962640}, {"current_trial": 170, "trialdata": {"rt": -1000, "trial_type": "single-audio", "word": "hawk", "stimulus": "/static/audio/wordpool/HAWK.wav", "conditions": [24, 800, "a", 24000], "internal_node_id": "0.0-125.0", "trial": 4, "time_elapsed": 888369, "serialpos": 1, "key_press": -1, "wordID": 691, "type": "PRES_AUD", "trial_index": 170}, "uniqueid": "MTK1878:3DHE4R9OCXI8NIZB2NSL0B00A6E2GY", "dateTime": 1516491964504}, {"current_trial": 171, "trialdata": {"rt": -1000, "trial_type": "single-audio", "word": "wrench", "stimulus": "/static/audio/wordpool/WRENCH.wav", "conditions": [24, 800, "a", 24000], "internal_node_id": "0.0-126.0", "trial": 4, "time_elapsed": 890124, "serialpos": 2, "key_press": -1, "wordID": 1624, "type": "PRES_AUD", "trial_index": 171}, "uniqueid": "MTK1878:3DHE4R9OCXI8NIZB2NSL0B00A6E2GY", "dateTime": 1516491966259}, {"current_trial": 172, "trialdata": {"rt": -1000, "trial_type": "single-audio", "word": "student", "stimulus": "/static/audio/wordpool/STUDENT.wav", "conditions": [24, 800, "a", 24000], "internal_node_id": "0.0-127.0", "trial": 4, "time_elapsed": 891906, "serialpos": 3, "key_press": -1, "wordID": 1394, "type": "PRES_AUD", "trial_index": 172}, "uniqueid": "MTK1878:3DHE4R9OCXI8NIZB2NSL0B00A6E2GY", "dateTime": 1516491968041}, {"current_trial": 173, "trialdata": {"rt": -1000, "trial_type": "single-audio", "word": "dorm", "stimulus": "/static/audio/wordpool/DORM.wav", "conditions": [24, 800, "a", 24000], "internal_node_id": "0.0-128.0", "trial": 4, "time_elapsed": 893721, "serialpos": 4, "key_press": -1, "wordID": 487, "type": "PRES_AUD", "trial_index": 173}, "uniqueid": "MTK1878:3DHE4R9OCXI8NIZB2NSL0B00A6E2GY", "dateTime": 1516491969857}, {"current_trial": 174, "trialdata": {"rt": -1000, "trial_type": "single-audio", "word": "portrait", "stimulus": "/static/audio/wordpool/PORTRAIT.wav", "conditions": [24, 800, "a", 24000], "internal_node_id": "0.0-129.0", "trial": 4, "time_elapsed": 895721, "serialpos": 5, "key_press": -1, "wordID": 1110, "type": "PRES_AUD", "trial_index": 174}, "uniqueid": "MTK1878:3DHE4R9OCXI8NIZB2NSL0B00A6E2GY", "dateTime": 1516491971856}, {"current_trial": 175, "trialdata": {"rt": -1000, "trial_type": "single-audio", "word": "actress", "stimulus": "/static/audio/wordpool/ACTRESS.wav", "conditions": [24, 800, "a", 24000], "internal_node_id": "0.0-130.0", "trial": 4, "time_elapsed": 897341, "serialpos": 6, "key_press": -1, "wordID": 5, "type": "PRES_AUD", "trial_index": 175}, "uniqueid": "MTK1878:3DHE4R9OCXI8NIZB2NSL0B00A6E2GY", "dateTime": 1516491973476}, {"current_trial": 176, "trialdata": {"rt": -1000, "trial_type": "single-audio", "word": "salmon", "stimulus": "/static/audio/wordpool/SALMON.wav", "conditions": [24, 800, "a", 24000], "internal_node_id": "0.0-131.0", "trial": 4, "time_elapsed": 899291, "serialpos": 7, "key_press": -1, "wordID": 1226, "type": "PRES_AUD", "trial_index": 176}, "uniqueid": "MTK1878:3DHE4R9OCXI8NIZB2NSL0B00A6E2GY", "dateTime": 1516491975426}, {"current_trial": 177, "trialdata": {"rt": -1000, "trial_type": "single-audio", "word": "pepper", "stimulus": "/static/audio/wordpool/PEPPER.wav", "conditions": [24, 800, "a", 24000], "internal_node_id": "0.0-132.0", "trial": 4, "time_elapsed": 901265, "serialpos": 8, "key_press": -1, "wordID": 1046, "type": "PRES_AUD", "trial_index": 177}, "uniqueid": "MTK1878:3DHE4R9OCXI8NIZB2NSL0B00A6E2GY", "dateTime": 1516491977400}, {"current_trial": 178, "trialdata": {"rt": -1000, "trial_type": "single-audio", "word": "scallop", "stimulus": "/static/audio/wordpool/SCALLOP.wav", "conditions": [24, 800, "a", 24000], "internal_node_id": "0.0-133.0", "trial": 4, "time_elapsed": 902938, "serialpos": 9, "key_press": -1, "wordID": 1241, "type": "PRES_AUD", "trial_index": 178}, "uniqueid": "MTK1878:3DHE4R9OCXI8NIZB2NSL0B00A6E2GY", "dateTime": 1516491979073}, {"current_trial": 179, "trialdata": {"rt": -1000, "trial_type": "single-audio", "word": "trout", "stimulus": "/static/audio/wordpool/TROUT.wav", "conditions": [24, 800, "a", 24000], "internal_node_id": "0.0-134.0", "trial": 4, "time_elapsed": 904667, "serialpos": 10, "key_press": -1, "wordID": 1510, "type": "PRES_AUD", "trial_index": 179}, "uniqueid": "MTK1878:3DHE4R9OCXI8NIZB2NSL0B00A6E2GY", "dateTime": 1516491980802}, {"current_trial": 180, "trialdata": {"rt": -1000, "trial_type": "single-audio", "word": "typist", "stimulus": "/static/audio/wordpool/TYPIST.wav", "conditions": [24, 800, "a", 24000], "internal_node_id": "0.0-135.0", "trial": 4, "time_elapsed": 906506, "serialpos": 11, "key_press": -1, "wordID": 1531, "type": "PRES_AUD", "trial_index": 180}, "uniqueid": "MTK1878:3DHE4R9OCXI8NIZB2NSL0B00A6E2GY", "dateTime": 1516491982641}, {"current_trial": 181, "trialdata": {"rt": -1000, "trial_type": "single-audio", "word": "quail", "stimulus": "/static/audio/wordpool/QUAIL.wav", "conditions": [24, 800, "a", 24000], "internal_node_id": "0.0-136.0", "trial": 4, "time_elapsed": 908171, "serialpos": 12, "key_press": -1, "wordID": 1146, "type": "PRES_AUD", "trial_index": 181}, "uniqueid": "MTK1878:3DHE4R9OCXI8NIZB2NSL0B00A6E2GY", "dateTime": 1516491984306}, {"current_trial": 182, "trialdata": {"rt": -1000, "trial_type": "single-audio", "word": "silk", "stimulus": "/static/audio/wordpool/SILK.wav", "conditions": [24, 800, "a", 24000], "internal_node_id": "0.0-137.0", "trial": 4, "time_elapsed": 909956, "serialpos": 13, "key_press": -1, "wordID": 1306, "type": "PRES_AUD", "trial_index": 182}, "uniqueid": "MTK1878:3DHE4R9OCXI8NIZB2NSL0B00A6E2GY", "dateTime": 1516491986091}, {"current_trial": 183, "trialdata": {"rt": -1000, "trial_type": "single-audio", "word": "tombstone", "stimulus": "/static/audio/wordpool/TOMBSTONE.wav", "conditions": [24, 800, "a", 24000], "internal_node_id": "0.0-138.0", "trial": 4, "time_elapsed": 911864, "serialpos": 14, "key_press": -1, "wordID": 1477, "type": "PRES_AUD", "trial_index": 183}, "uniqueid": "MTK1878:3DHE4R9OCXI8NIZB2NSL0B00A6E2GY", "dateTime": 1516491987999}, {"current_trial": 184, "trialdata": {"rt": -1000, "trial_type": "single-audio", "word": "pork", "stimulus": "/static/audio/wordpool/PORK.wav", "conditions": [24, 800, "a", 24000], "internal_node_id": "0.0-139.0", "trial": 4, "time_elapsed": 913742, "serialpos": 15, "key_press": -1, "wordID": 1107, "type": "PRES_AUD", "trial_index": 184}, "uniqueid": "MTK1878:3DHE4R9OCXI8NIZB2NSL0B00A6E2GY", "dateTime": 1516491989877}, {"current_trial": 185, "trialdata": {"rt": -1000, "trial_type": "single-audio", "word": "shortcake", "stimulus": "/static/audio/wordpool/SHORTCAKE.wav", "conditions": [24, 800, "a", 24000], "internal_node_id": "0.0-140.0", "trial": 4, "time_elapsed": 915693, "serialpos": 16, "key_press": -1, "wordID": 1291, "type": "PRES_AUD", "trial_index": 185}, "uniqueid": "MTK1878:3DHE4R9OCXI8NIZB2NSL0B00A6E2GY", "dateTime": 1516491991828}, {"current_trial": 186, "trialdata": {"rt": -1000, "trial_type": "single-audio", "word": "velvet", "stimulus": "/static/audio/wordpool/VELVET.wav", "conditions": [24, 800, "a", 24000], "internal_node_id": "0.0-141.0", "trial": 4, "time_elapsed": 917631, "serialpos": 17, "key_press": -1, "wordID": 1554, "type": "PRES_AUD", "trial_index": 186}, "uniqueid": "MTK1878:3DHE4R9OCXI8NIZB2NSL0B00A6E2GY", "dateTime": 1516491993766}, {"current_trial": 187, "trialdata": {"rt": -1000, "trial_type": "single-audio", "word": "gymnast", "stimulus": "/static/audio/wordpool/GYMNAST.wav", "conditions": [24, 800, "a", 24000], "internal_node_id": "0.0-142.0", "trial": 4, "time_elapsed": 919384, "serialpos": 18, "key_press": -1, "wordID": 674, "type": "PRES_AUD", "trial_index": 187}, "uniqueid": "MTK1878:3DHE4R9OCXI8NIZB2NSL0B00A6E2GY", "dateTime": 1516491995519}, {"current_trial": 188, "trialdata": {"rt": -1000, "trial_type": "single-audio", "word": "queen", "stimulus": "/static/audio/wordpool/QUEEN.wav", "conditions": [24, 800, "a", 24000], "internal_node_id": "0.0-143.0", "trial": 4, "time_elapsed": 921330, "serialpos": 19, "key_press": -1, "wordID": 1148, "type": "PRES_AUD", "trial_index": 188}, "uniqueid": "MTK1878:3DHE4R9OCXI8NIZB2NSL0B00A6E2GY", "dateTime": 1516491997465}, {"current_trial": 189, "trialdata": {"rt": -1000, "trial_type": "single-audio", "word": "freckle", "stimulus": "/static/audio/wordpool/FRECKLE.wav", "conditions": [24, 800, "a", 24000], "internal_node_id": "0.0-144.0", "trial": 4, "time_elapsed": 923254, "serialpos": 20, "key_press": -1, "wordID": 601, "type": "PRES_AUD", "trial_index": 189}, "uniqueid": "MTK1878:3DHE4R9OCXI8NIZB2NSL0B00A6E2GY", "dateTime": 1516491999389}, {"current_trial": 190, "trialdata": {"rt": -1000, "trial_type": "single-audio", "word": "mailbox", "stimulus": "/static/audio/wordpool/MAILBOX.wav", "conditions": [24, 800, "a", 24000], "internal_node_id": "0.0-145.0", "trial": 4, "time_elapsed": 924974, "serialpos": 21, "key_press": -1, "wordID": 856, "type": "PRES_AUD", "trial_index": 190}, "uniqueid": "MTK1878:3DHE4R9OCXI8NIZB2NSL0B00A6E2GY", "dateTime": 1516492001109}, {"current_trial": 191, "trialdata": {"rt": -1000, "trial_type": "single-audio", "word": "mailman", "stimulus": "/static/audio/wordpool/MAILMAN.wav", "conditions": [24, 800, "a", 24000], "internal_node_id": "0.0-146.0", "trial": 4, "time_elapsed": 926819, "serialpos": 22, "key_press": -1, "wordID": 857, "type": "PRES_AUD", "trial_index": 191}, "uniqueid": "MTK1878:3DHE4R9OCXI8NIZB2NSL0B00A6E2GY", "dateTime": 1516492002954}, {"current_trial": 192, "trialdata": {"rt": -1000, "trial_type": "single-audio", "word": "goblin", "stimulus": "/static/audio/wordpool/GOBLIN.wav", "conditions": [24, 800, "a", 24000], "internal_node_id": "0.0-147.0", "trial": 4, "time_elapsed": 928803, "serialpos": 23, "key_press": -1, "wordID": 644, "type": "PRES_AUD", "trial_index": 192}, "uniqueid": "MTK1878:3DHE4R9OCXI8NIZB2NSL0B00A6E2GY", "dateTime": 1516492004938}, {"current_trial": 193, "trialdata": {"rt": -1, "trial_type": "single-stim", "stimulus": "", "internal_node_id": "0.0-148.0-0.0", "time_elapsed": 930114, "key_press": -1, "type": "PRE_RECALL_DELAY", "trial_index": 193}, "uniqueid": "MTK1878:3DHE4R9OCXI8NIZB2NSL0B00A6E2GY", "dateTime": 1516492006249}, {"current_trial": 194, "trialdata": {"rt": -1000, "trial_type": "single-audio", "stimulus": "/static/audio/400Hz.wav", "internal_node_id": "0.0-149.0", "time_elapsed": 930619, "key_press": -1, "type": "PRE_RECALL_ALERT", "trial_index": 194}, "uniqueid": "MTK1878:3DHE4R9OCXI8NIZB2NSL0B00A6E2GY", "dateTime": 1516492006754}, {"current_trial": 195, "trialdata": {"rt": [1657, 3337, 4929, 6057, 7193, 9281, 13473, 21889, 23001, 35881, 41609, 48649, 51689], "recwords": ["goblin", "mailman", "mailbox", "queen", "salmon", "quail", "trout", "portrait", "queen", "salmon", "lunch", "gobblin", "student"], "key_times": [322, 433, 705, 1009, 1233, 1425, 1657, 2049, 2201, 2289, 2417, 2601, 2849, 3057, 3337, 3785, 3921, 4025, 4097, 4433, 4601, 4761, 4929, 5217, 5353, 5577, 5777, 5881, 6057, 6297, 6417, 6505, 6633, 6849, 6977, 7193, 7641, 7801, 8249, 8705, 8969, 9281, 12586, 12825, 13033, 13137, 13297, 13473, 20393, 20545, 20682, 20882, 21265, 21466, 21609, 21785, 21889, 22153, 22297, 22505, 22698, 22802, 23001, 34882, 35050, 35137, 35289, 35473, 35625, 35881, 40481, 40697, 40993, 41265, 41377, 41609, 46970, 47153, 47617, 47801, 47913, 48081, 48281, 48649, 50569, 50724, 50889, 51049, 51233, 51361, 51577, 51689, 59068, 59217, 59362, 59449, 59641, 59857, 59985], "trial_type": "free-recall", "conditions": [24, 800, "a", 24000], "internal_node_id": "0.0-150.0-0.0", "key_presses": [71, 79, 66, 76, 73, 78, 13, 77, 65, 73, 76, 77, 65, 78, 13, 77, 65, 73, 76, 66, 79, 88, 13, 81, 85, 69, 69, 78, 13, 83, 65, 76, 77, 79, 78, 13, 81, 85, 65, 73, 76, 13, 84, 82, 79, 85, 84, 13, 80, 79, 82, 84, 82, 65, 73, 84, 13, 81, 85, 69, 69, 78, 13, 83, 65, 76, 77, 79, 78, 13, 76, 85, 78, 67, 72, 13, 71, 79, 66, 66, 76, 73, 78, 13, 83, 84, 85, 68, 69, 78, 84, 13, 67, 76, 65, 83, 83, 82, 79], "trial": 4, "time_elapsed": 990624, "type": "FREE_RECALL", "trial_index": 195}, "uniqueid": "MTK1878:3DHE4R9OCXI8NIZB2NSL0B00A6E2GY", "dateTime": 1516492066768}, {"current_trial": 196, "trialdata": {"rt": 956, "trial_type": "text", "internal_node_id": "0.0-151.0", "time_elapsed": 993591, "key_press": 32, "type": "INSTRUCTIONS", "trial_index": 196}, "uniqueid": "MTK1878:3DHE4R9OCXI8NIZB2NSL0B00A6E2GY", "dateTime": 1516492069726}, {"current_trial": 197, "trialdata": {"rt": [1419, 2875, 4851, 6299, 8363, 10339, 11499], "trial_type": "math-distractor", "key_times": [899, 1155, 1419, 2619, 2875, 4131, 4523, 4851, 5635, 5979, 6299, 7835, 8051, 8363, 9699, 9995, 10339, 11155, 11339, 11499], "responses": ["11", "3", "14", "10", "20", "18", "12"], "num2": [1, 1, 1, 2, 7, 2, 6, 5], "num3": [5, 1, 5, 1, 4, 7, 3, 6], "conditions": [12, 800, "a", 12000], "internal_node_id": "0.0-152.0", "key_presses": [49, 49, 13, 51, 13, 49, 52, 13, 49, 48, 13, 50, 48, 13, 49, 56, 13, 49, 50, 13], "trial": 5, "time_elapsed": 1007597, "type": "DISTRACTOR", "trial_index": 197, "num1": [5, 1, 8, 7, 9, 9, 3, 1]}, "uniqueid": "MTK1878:3DHE4R9OCXI8NIZB2NSL0B00A6E2GY", "dateTime": 1516492083732}, {"current_trial": 198, "trialdata": {"rt": -1, "trial_type": "single-stim", "stimulus": "<p id=\"stim\">10</p>", "internal_node_id": "0.0-153.0-0.0", "time_elapsed": 1010600, "key_press": -1, "trial_index": 198}, "uniqueid": "MTK1878:3DHE4R9OCXI8NIZB2NSL0B00A6E2GY", "dateTime": 1516492086735}, {"current_trial": 199, "trialdata": {"rt": -1, "trial_type": "single-stim", "stimulus": "<p id=\"stim\">9</p>", "internal_node_id": "0.0-153.0-1.0", "time_elapsed": 1011603, "key_press": -1, "trial_index": 199}, "uniqueid": "MTK1878:3DHE4R9OCXI8NIZB2NSL0B00A6E2GY", "dateTime": 1516492087738}, {"current_trial": 200, "trialdata": {"rt": -1, "trial_type": "single-stim", "stimulus": "<p id=\"stim\">8</p>", "internal_node_id": "0.0-153.0-2.0", "time_elapsed": 1012605, "key_press": -1, "trial_index": 200}, "uniqueid": "MTK1878:3DHE4R9OCXI8NIZB2NSL0B00A6E2GY", "dateTime": 1516492088740}, {"current_trial": 201, "trialdata": {"rt": -1, "trial_type": "single-stim", "stimulus": "<p id=\"stim\">7</p>", "internal_node_id": "0.0-153.0-3.0", "time_elapsed": 1013608, "key_press": -1, "trial_index": 201}, "uniqueid": "MTK1878:3DHE4R9OCXI8NIZB2NSL0B00A6E2GY", "dateTime": 1516492089743}, {"current_trial": 202, "trialdata": {"rt": -1, "trial_type": "single-stim", "stimulus": "<p id=\"stim\">6</p>", "internal_node_id": "0.0-153.0-4.0", "time_elapsed": 1014610, "key_press": -1, "trial_index": 202}, "uniqueid": "MTK1878:3DHE4R9OCXI8NIZB2NSL0B00A6E2GY", "dateTime": 1516492090745}, {"current_trial": 203, "trialdata": {"rt": -1, "trial_type": "single-stim", "stimulus": "<p id=\"stim\">5</p>", "internal_node_id": "0.0-153.0-5.0", "time_elapsed": 1015612, "key_press": -1, "trial_index": 203}, "uniqueid": "MTK1878:3DHE4R9OCXI8NIZB2NSL0B00A6E2GY", "dateTime": 1516492091748}, {"current_trial": 204, "trialdata": {"rt": -1, "trial_type": "single-stim", "stimulus": "<p id=\"stim\">4</p>", "internal_node_id": "0.0-153.0-6.0", "time_elapsed": 1016615, "key_press": -1, "trial_index": 204}, "uniqueid": "MTK1878:3DHE4R9OCXI8NIZB2NSL0B00A6E2GY", "dateTime": 1516492092750}, {"current_trial": 205, "trialdata": {"rt": -1, "trial_type": "single-stim", "stimulus": "<p id=\"stim\">3</p>", "internal_node_id": "0.0-153.0-7.0", "time_elapsed": 1017616, "key_press": -1, "trial_index": 205}, "uniqueid": "MTK1878:3DHE4R9OCXI8NIZB2NSL0B00A6E2GY", "dateTime": 1516492093752}, {"current_trial": 206, "trialdata": {"rt": -1, "trial_type": "single-stim", "stimulus": "<p id=\"stim\">2</p>", "internal_node_id": "0.0-153.0-8.0", "time_elapsed": 1018619, "key_press": -1, "trial_index": 206}, "uniqueid": "MTK1878:3DHE4R9OCXI8NIZB2NSL0B00A6E2GY", "dateTime": 1516492094754}, {"current_trial": 207, "trialdata": {"rt": -1, "trial_type": "single-stim", "stimulus": "<p id=\"stim\">1</p>", "internal_node_id": "0.0-153.0-9.0", "time_elapsed": 1019621, "key_press": -1, "trial_index": 207}, "uniqueid": "MTK1878:3DHE4R9OCXI8NIZB2NSL0B00A6E2GY", "dateTime": 1516492095756}, {"current_trial": 208, "trialdata": {"rt": -1, "trial_type": "single-stim", "stimulus": "<p id=\"stim\">+</p>", "internal_node_id": "0.0-154.0-0.0", "time_elapsed": 1021125, "key_press": -1, "type": "FIXATION", "trial_index": 208}, "uniqueid": "MTK1878:3DHE4R9OCXI8NIZB2NSL0B00A6E2GY", "dateTime": 1516492097260}, {"current_trial": 209, "trialdata": {"rt": -1000, "trial_type": "single-audio", "word": "flipper", "stimulus": "/static/audio/wordpool/FLIPPER.wav", "conditions": [12, 800, "a", 12000], "internal_node_id": "0.0-155.0", "trial": 5, "time_elapsed": 1023139, "serialpos": 0, "key_press": -1, "wordID": 579, "type": "PRES_AUD", "trial_index": 209}, "uniqueid": "MTK1878:3DHE4R9OCXI8NIZB2NSL0B00A6E2GY", "dateTime": 1516492099274}, {"current_trial": 210, "trialdata": {"rt": -1000, "trial_type": "single-audio", "word": "hostess", "stimulus": "/static/audio/wordpool/HOSTESS.wav", "conditions": [12, 800, "a", 12000], "internal_node_id": "0.0-156.0", "trial": 5, "time_elapsed": 1024999, "serialpos": 1, "key_press": -1, "wordID": 722, "type": "PRES_AUD", "trial_index": 210}, "uniqueid": "MTK1878:3DHE4R9OCXI8NIZB2NSL0B00A6E2GY", "dateTime": 1516492101134}, {"current_trial": 211, "trialdata": {"rt": -1000, "trial_type": "single-audio", "word": "napkin", "stimulus": "/static/audio/wordpool/NAPKIN.wav", "conditions": [12, 800, "a", 12000], "internal_node_id": "0.0-157.0", "trial": 5, "time_elapsed": 1026969, "serialpos": 2, "key_press": -1, "wordID": 936, "type": "PRES_AUD", "trial_index": 211}, "uniqueid": "MTK1878:3DHE4R9OCXI8NIZB2NSL0B00A6E2GY", "dateTime": 1516492103104}, {"current_trial": 212, "trialdata": {"rt": -1000, "trial_type": "single-audio", "word": "clam", "stimulus": "/static/audio/wordpool/CLAM.wav", "conditions": [12, 800, "a", 12000], "internal_node_id": "0.0-158.0", "trial": 5, "time_elapsed": 1028767, "serialpos": 3, "key_press": -1, "wordID": 314, "type": "PRES_AUD", "trial_index": 212}, "uniqueid": "MTK1878:3DHE4R9OCXI8NIZB2NSL0B00A6E2GY", "dateTime": 1516492104902}, {"current_trial": 213, "trialdata": {"rt": -1000, "trial_type": "single-audio", "word": "supper", "stimulus": "/static/audio/wordpool/SUPPER.wav", "conditions": [12, 800, "a", 12000], "internal_node_id": "0.0-159.0", "trial": 5, "time_elapsed": 1030425, "serialpos": 4, "key_press": -1, "wordID": 1410, "type": "PRES_AUD", "trial_index": 213}, "uniqueid": "MTK1878:3DHE4R9OCXI8NIZB2NSL0B00A6E2GY", "dateTime": 1516492106561}, {"current_trial": 214, "trialdata": {"rt": -1000, "trial_type": "single-audio", "word": "picnic", "stimulus": "/static/audio/wordpool/PICNIC.wav", "conditions": [12, 800, "a", 12000], "internal_node_id": "0.0-160.0", "trial": 5, "time_elapsed": 1032275, "serialpos": 5, "key_press": -1, "wordID": 1059, "type": "PRES_AUD", "trial_index": 214}, "uniqueid": "MTK1878:3DHE4R9OCXI8NIZB2NSL0B00A6E2GY", "dateTime": 1516492108410}, {"current_trial": 215, "trialdata": {"rt": -1000, "trial_type": "single-audio", "word": "venus", "stimulus": "/static/audio/wordpool/VENUS.wav", "conditions": [12, 800, "a", 12000], "internal_node_id": "0.0-161.0", "trial": 5, "time_elapsed": 1034280, "serialpos": 6, "key_press": -1, "wordID": 1556, "type": "PRES_AUD", "trial_index": 215}, "uniqueid": "MTK1878:3DHE4R9OCXI8NIZB2NSL0B00A6E2GY", "dateTime": 1516492110416}, {"current_trial": 216, "trialdata": {"rt": -1000, "trial_type": "single-audio", "word": "female", "stimulus": "/static/audio/wordpool/FEMALE.wav", "conditions": [12, 800, "a", 12000], "internal_node_id": "0.0-162.0", "trial": 5, "time_elapsed": 1035966, "serialpos": 7, "key_press": -1, "wordID": 558, "type": "PRES_AUD", "trial_index": 216}, "uniqueid": "MTK1878:3DHE4R9OCXI8NIZB2NSL0B00A6E2GY", "dateTime": 1516492112103}, {"current_trial": 217, "trialdata": {"rt": -1000, "trial_type": "single-audio", "word": "bucket", "stimulus": "/static/audio/wordpool/BUCKET.wav", "conditions": [12, 800, "a", 12000], "internal_node_id": "0.0-163.0", "trial": 5, "time_elapsed": 1037674, "serialpos": 8, "key_press": -1, "wordID": 183, "type": "PRES_AUD", "trial_index": 217}, "uniqueid": "MTK1878:3DHE4R9OCXI8NIZB2NSL0B00A6E2GY", "dateTime": 1516492113809}, {"current_trial": 218, "trialdata": {"rt": -1000, "trial_type": "single-audio", "word": "crab", "stimulus": "/static/audio/wordpool/CRAB.wav", "conditions": [12, 800, "a", 12000], "internal_node_id": "0.0-164.0", "trial": 5, "time_elapsed": 1039535, "serialpos": 9, "key_press": -1, "wordID": 396, "type": "PRES_AUD", "trial_index": 218}, "uniqueid": "MTK1878:3DHE4R9OCXI8NIZB2NSL0B00A6E2GY", "dateTime": 1516492115670}, {"current_trial": 219, "trialdata": {"rt": -1000, "trial_type": "single-audio", "word": "asia", "stimulus": "/static/audio/wordpool/ASIA.wav", "conditions": [12, 800, "a", 12000], "internal_node_id": "0.0-165.0", "trial": 5, "time_elapsed": 1041244, "serialpos": 10, "key_press": -1, "wordID": 45, "type": "PRES_AUD", "trial_index": 219}, "uniqueid": "MTK1878:3DHE4R9OCXI8NIZB2NSL0B00A6E2GY", "dateTime": 1516492117379}, {"current_trial": 220, "trialdata": {"rt": -1000, "trial_type": "single-audio", "word": "relish", "stimulus": "/static/audio/wordpool/RELISH.wav", "conditions": [12, 800, "a", 12000], "internal_node_id": "0.0-166.0", "trial": 5, "time_elapsed": 1043046, "serialpos": 11, "key_press": -1, "wordID": 1182, "type": "PRES_AUD", "trial_index": 220}, "uniqueid": "MTK1878:3DHE4R9OCXI8NIZB2NSL0B00A6E2GY", "dateTime": 1516492119181}, {"current_trial": 221, "trialdata": {"rt": -1, "trial_type": "single-stim", "stimulus": "", "internal_node_id": "0.0-167.0-0.0", "time_elapsed": 1044263, "key_press": -1, "type": "PRE_RECALL_DELAY", "trial_index": 221}, "uniqueid": "MTK1878:3DHE4R9OCXI8NIZB2NSL0B00A6E2GY", "dateTime": 1516492120398}, {"current_trial": 222, "trialdata": {"rt": -1000, "trial_type": "single-audio", "stimulus": "/static/audio/400Hz.wav", "internal_node_id": "0.0-168.0", "time_elapsed": 1044767, "key_press": -1, "type": "PRE_RECALL_ALERT", "trial_index": 222}, "uniqueid": "MTK1878:3DHE4R9OCXI8NIZB2NSL0B00A6E2GY", "dateTime": 1516492120903}, {"current_trial": 223, "trialdata": {"rt": [1635, 3067, 4739, 7251, 9859, 12739, 21891, 32347, 47603], "recwords": ["relish", "picnic", "asis", "asia", "bucket", "crab", "zipper", "napkin", "crab"], "key_times": [413, 603, 907, 1084, 1267, 1419, 1635, 1947, 2147, 2299, 2587, 2739, 2907, 3067, 3963, 4147, 4315, 4467, 4739, 6299, 6411, 6571, 6811, 7251, 8867, 8995, 9275, 9420, 9604, 9731, 9859, 11780, 12044, 12299, 12531, 12739, 20867, 21043, 21212, 21411, 21579, 21659, 21891, 31291, 31444, 31539, 31755, 31980, 32091, 32347, 46547, 46779, 47163, 47395, 47603], "trial_type": "free-recall", "conditions": [12, 800, "a", 12000], "internal_node_id": "0.0-169.0-0.0", "key_presses": [82, 69, 76, 73, 83, 72, 13, 80, 73, 67, 78, 73, 67, 13, 65, 83, 73, 83, 13, 65, 83, 73, 65, 13, 66, 85, 67, 75, 69, 84, 13, 67, 82, 65, 66, 13, 90, 73, 80, 80, 69, 82, 13, 78, 65, 80, 75, 73, 78, 13, 67, 82, 65, 66, 13], "trial": 5, "time_elapsed": 1104773, "type": "FREE_RECALL", "trial_index": 223}, "uniqueid": "MTK1878:3DHE4R9OCXI8NIZB2NSL0B00A6E2GY", "dateTime": 1516492180915}, {"current_trial": 224, "trialdata": {"rt": 793, "trial_type": "text", "internal_node_id": "0.0-170.0", "time_elapsed": 1107575, "key_press": 32, "type": "INSTRUCTIONS", "trial_index": 224}, "uniqueid": "MTK1878:3DHE4R9OCXI8NIZB2NSL0B00A6E2GY", "dateTime": 1516492183710}, {"current_trial": 225, "trialdata": {"rt": [3099, 5187, 7747, 9595, 11883, 14603, 17347, 19867, 22627], "trial_type": "math-distractor", "key_times": [1547, 1963, 3099, 4883, 5187, 7099, 7467, 7747, 9371, 9595, 11155, 11715, 11883, 13684, 14395, 14603, 16395, 17079, 17347, 18835, 19636, 19867, 21723, 22427, 22627], "responses": ["10", "7", "14", "8", "18", "26", "17", "17", "16"], "num2": [5, 2, 5, 4, 6, 7, 2, 5, 7, 6], "num3": [2, 3, 7, 1, 5, 9, 7, 3, 6, 2], "conditions": [24, 1600, "a", 24000], "internal_node_id": "0.0-171.0", "key_presses": [49, 48, 13, 55, 13, 49, 52, 13, 56, 13, 49, 56, 13, 50, 54, 13, 49, 55, 13, 49, 55, 13, 49, 54, 13], "trial": 6, "time_elapsed": 1133582, "type": "DISTRACTOR", "trial_index": 225, "num1": [3, 2, 2, 3, 7, 8, 8, 9, 3, 9]}, "uniqueid": "MTK1878:3DHE4R9OCXI8NIZB2NSL0B00A6E2GY", "dateTime": 1516492209717}, {"current_trial": 226, "trialdata": {"rt": -1, "trial_type": "single-stim", "stimulus": "<p id=\"stim\">10</p>", "internal_node_id": "0.0-172.0-0.0", "time_elapsed": 1136586, "key_press": -1, "trial_index": 226}, "uniqueid": "MTK1878:3DHE4R9OCXI8NIZB2NSL0B00A6E2GY", "dateTime": 1516492212721}, {"current_trial": 227, "trialdata": {"rt": -1, "trial_type": "single-stim", "stimulus": "<p id=\"stim\">9</p>", "internal_node_id": "0.0-172.0-1.0", "time_elapsed": 1137588, "key_press": -1, "trial_index": 227}, "uniqueid": "MTK1878:3DHE4R9OCXI8NIZB2NSL0B00A6E2GY", "dateTime": 1516492213724}, {"current_trial": 228, "trialdata": {"rt": -1, "trial_type": "single-stim", "stimulus": "<p id=\"stim\">8</p>", "internal_node_id": "0.0-172.0-2.0", "time_elapsed": 1138591, "key_press": -1, "trial_index": 228}, "uniqueid": "MTK1878:3DHE4R9OCXI8NIZB2NSL0B00A6E2GY", "dateTime": 1516492214726}, {"current_trial": 229, "trialdata": {"rt": -1, "trial_type": "single-stim", "stimulus": "<p id=\"stim\">7</p>", "internal_node_id": "0.0-172.0-3.0", "time_elapsed": 1139593, "key_press": -1, "trial_index": 229}, "uniqueid": "MTK1878:3DHE4R9OCXI8NIZB2NSL0B00A6E2GY", "dateTime": 1516492215728}, {"current_trial": 230, "trialdata": {"rt": -1, "trial_type": "single-stim", "stimulus": "<p id=\"stim\">6</p>", "internal_node_id": "0.0-172.0-4.0", "time_elapsed": 1140596, "key_press": -1, "trial_index": 230}, "uniqueid": "MTK1878:3DHE4R9OCXI8NIZB2NSL0B00A6E2GY", "dateTime": 1516492216731}, {"current_trial": 231, "trialdata": {"rt": -1, "trial_type": "single-stim", "stimulus": "<p id=\"stim\">5</p>", "internal_node_id": "0.0-172.0-5.0", "time_elapsed": 1141598, "key_press": -1, "trial_index": 231}, "uniqueid": "MTK1878:3DHE4R9OCXI8NIZB2NSL0B00A6E2GY", "dateTime": 1516492217734}, {"current_trial": 232, "trialdata": {"rt": -1, "trial_type": "single-stim", "stimulus": "<p id=\"stim\">4</p>", "internal_node_id": "0.0-172.0-6.0", "time_elapsed": 1142601, "key_press": -1, "trial_index": 232}, "uniqueid": "MTK1878:3DHE4R9OCXI8NIZB2NSL0B00A6E2GY", "dateTime": 1516492218736}, {"current_trial": 233, "trialdata": {"rt": -1, "trial_type": "single-stim", "stimulus": "<p id=\"stim\">3</p>", "internal_node_id": "0.0-172.0-7.0", "time_elapsed": 1143603, "key_press": -1, "trial_index": 233}, "uniqueid": "MTK1878:3DHE4R9OCXI8NIZB2NSL0B00A6E2GY", "dateTime": 1516492219739}, {"current_trial": 234, "trialdata": {"rt": -1, "trial_type": "single-stim", "stimulus": "<p id=\"stim\">2</p>", "internal_node_id": "0.0-172.0-8.0", "time_elapsed": 1144606, "key_press": -1, "trial_index": 234}, "uniqueid": "MTK1878:3DHE4R9OCXI8NIZB2NSL0B00A6E2GY", "dateTime": 1516492220741}, {"current_trial": 235, "trialdata": {"rt": -1, "trial_type": "single-stim", "stimulus": "<p id=\"stim\">1</p>", "internal_node_id": "0.0-172.0-9.0", "time_elapsed": 1145608, "key_press": -1, "trial_index": 235}, "uniqueid": "MTK1878:3DHE4R9OCXI8NIZB2NSL0B00A6E2GY", "dateTime": 1516492221743}, {"current_trial": 236, "trialdata": {"rt": -1, "trial_type": "single-stim", "stimulus": "<p id=\"stim\">+</p>", "internal_node_id": "0.0-173.0-0.0", "time_elapsed": 1147110, "key_press": -1, "type": "FIXATION", "trial_index": 236}, "uniqueid": "MTK1878:3DHE4R9OCXI8NIZB2NSL0B00A6E2GY", "dateTime": 1516492223246}, {"current_trial": 237, "trialdata": {"rt": -1000, "trial_type": "single-audio", "word": "piano", "stimulus": "/static/audio/wordpool/PIANO.wav", "conditions": [24, 1600, "a", 24000], "internal_node_id": "0.0-174.0", "trial": 6, "time_elapsed": 1149717, "serialpos": 0, "key_press": -1, "wordID": 1056, "type": "PRES_AUD", "trial_index": 237}, "uniqueid": "MTK1878:3DHE4R9OCXI8NIZB2NSL0B00A6E2GY", "dateTime": 1516492225852}, {"current_trial": 238, "trialdata": {"rt": -1000, "trial_type": "single-audio", "word": "crib", "stimulus": "/static/audio/wordpool/CRIB.wav", "conditions": [24, 1600, "a", 24000], "internal_node_id": "0.0-175.0", "trial": 6, "time_elapsed": 1152258, "serialpos": 1, "key_press": -1, "wordID": 406, "type": "PRES_AUD", "trial_index": 238}, "uniqueid": "MTK1878:3DHE4R9OCXI8NIZB2NSL0B00A6E2GY", "dateTime": 1516492228393}, {"current_trial": 239, "trialdata": {"rt": -1000, "trial_type": "single-audio", "word": "infant", "stimulus": "/static/audio/wordpool/INFANT.wav", "conditions": [24, 1600, "a", 24000], "internal_node_id": "0.0-176.0", "trial": 6, "time_elapsed": 1154825, "serialpos": 2, "key_press": -1, "wordID": 736, "type": "PRES_AUD", "trial_index": 239}, "uniqueid": "MTK1878:3DHE4R9OCXI8NIZB2NSL0B00A6E2GY", "dateTime": 1516492230961}, {"current_trial": 240, "trialdata": {"rt": -1000, "trial_type": "single-audio", "word": "sticker", "stimulus": "/static/audio/wordpool/STICKER.wav", "conditions": [24, 1600, "a", 24000], "internal_node_id": "0.0-177.0", "trial": 6, "time_elapsed": 1157486, "serialpos": 3, "key_press": -1, "wordID": 1381, "type": "PRES_AUD", "trial_index": 240}, "uniqueid": "MTK1878:3DHE4R9OCXI8NIZB2NSL0B00A6E2GY", "dateTime": 1516492233622}, {"current_trial": 241, "trialdata": {"rt": -1000, "trial_type": "single-audio", "word": "gallon", "stimulus": "/static/audio/wordpool/GALLON.wav", "conditions": [24, 1600, "a", 24000], "internal_node_id": "0.0-178.0", "trial": 6, "time_elapsed": 1160212, "serialpos": 4, "key_press": -1, "wordID": 617, "type": "PRES_AUD", "trial_index": 241}, "uniqueid": "MTK1878:3DHE4R9OCXI8NIZB2NSL0B00A6E2GY", "dateTime": 1516492236347}, {"current_trial": 242, "trialdata": {"rt": -1000, "trial_type": "single-audio", "word": "brandy", "stimulus": "/static/audio/wordpool/BRANDY.wav", "conditions": [24, 1600, "a", 24000], "internal_node_id": "0.0-179.0", "trial": 6, "time_elapsed": 1162949, "serialpos": 5, "key_press": -1, "wordID": 168, "type": "PRES_AUD", "trial_index": 242}, "uniqueid": "MTK1878:3DHE4R9OCXI8NIZB2NSL0B00A6E2GY", "dateTime": 1516492239085}, {"current_trial": 243, "trialdata": {"rt": -1000, "trial_type": "single-audio", "word": "backbone", "stimulus": "/static/audio/wordpool/BACKBONE.wav", "conditions": [24, 1600, "a", 24000], "internal_node_id": "0.0-180.0", "trial": 6, "time_elapsed": 1165540, "serialpos": 6, "key_press": -1, "wordID": 65, "type": "PRES_AUD", "trial_index": 243}, "uniqueid": "MTK1878:3DHE4R9OCXI8NIZB2NSL0B00A6E2GY", "dateTime": 1516492241676}, {"current_trial": 244, "trialdata": {"rt": -1000, "trial_type": "single-audio", "word": "treat", "stimulus": "/static/audio/wordpool/TREAT.wav", "conditions": [24, 1600, "a", 24000], "internal_node_id": "0.0-181.0", "trial": 6, "time_elapsed": 1168027, "serialpos": 7, "key_press": -1, "wordID": 1500, "type": "PRES_AUD", "trial_index": 244}, "uniqueid": "MTK1878:3DHE4R9OCXI8NIZB2NSL0B00A6E2GY", "dateTime": 1516492244162}