{"assignmentId": "3YMU66OBIOFC282TL8VSNF62ZWJGHV", "workerId": "MTK1967", "questiondata": {"origin": "United States", "strat-rehearsal": "11", "marital": "Single", "education": "Some college", "ethnicity": "Not Hispanic", "color_depth": 24, "distracted": "No", "wrote-notes": "No", "strat-other": "", "screen_width": 1536, "avail_screen_width": 1536, "avail_screen_height": 864, "strat-image": "88", "language": "English", "gender": "Male", "age": "33", "gender_other": "", "race": ["White"], "strat-categorize": "47", "pixel_depth": 24, "strat-spatial": "0", "strat-story": "32", "race_other": "", "screen_height": 864}, "bonus": 0, "hitId": "3W5PY7V3UPE6SLKPDCFHH8X1Z9OJYX", "counterbalance": 265, "useragent": "Mozilla/5.0 (Windows NT 6.1; Win64; x64) AppleWebKit/537.36 (KHTML, like Gecko) Chrome/63.0.3239.132 Safari/537.36", "eventdata": [{"eventtype": "initialized", "interval": 0, "value": null, "timestamp": 1516639624518}, {"eventtype": "window_resize", "interval": 0, "value": [1540, 818], "timestamp": 1516639624518}], "data": [{"current_trial": 0, "trialdata": {"rt": 1845, "trial_type": "text", "internal_node_id": "0.0-0.0", "time_elapsed": 1851, "key_press": 32, "type": "INSTRUCTIONS", "trial_index": 0}, "uniqueid": "MTK1967:3YMU66OBIOFC282TL8VSNF62ZWJGHV", "dateTime": 1516639626783}, {"current_trial": 1, "trialdata": {"rt": 16882, "trial_type": "text", "internal_node_id": "0.0-1.0", "time_elapsed": 18739, "key_press": 13, "type": "INSTRUCTIONS", "trial_index": 1}, "uniqueid": "MTK1967:3YMU66OBIOFC282TL8VSNF62ZWJGHV", "dateTime": 1516639643669}, {"current_trial": 2, "trialdata": {"rt": [11409], "trial_type": "audio-test", "responses": ["ocean"], "internal_node_id": "0.0-2.0", "time_elapsed": 30194, "type": "AUDIO_TEST", "trial_index": 2}, "uniqueid": "MTK1967:3YMU66OBIOFC282TL8VSNF62ZWJGHV", "dateTime": 1516639655125}, {"current_trial": 3, "trialdata": {"rt": [6562], "trial_type": "audio-test", "responses": ["crystal"], "internal_node_id": "0.0-3.0", "time_elapsed": 36771, "type": "AUDIO_TEST", "trial_index": 3}, "uniqueid": "MTK1967:3YMU66OBIOFC282TL8VSNF62ZWJGHV", "dateTime": 1516639661701}, {"current_trial": 4, "trialdata": {"rt": [4226], "trial_type": "audio-test", "responses": ["spice"], "internal_node_id": "0.0-4.0", "time_elapsed": 41009, "type": "AUDIO_TEST", "trial_index": 4}, "uniqueid": "MTK1967:3YMU66OBIOFC282TL8VSNF62ZWJGHV", "dateTime": 1516639665940}, {"current_trial": 5, "trialdata": {"rt": 19472, "trial_type": "survey-text", "responses": "{\"Q0\":\"1 AM\",\"Q1\":\"8:30 AM\",\"Q2\":\"5\"}", "internal_node_id": "0.0-5.0", "time_elapsed": 61237, "type": "SLEEP_SURVEY", "trial_index": 5}, "uniqueid": "MTK1967:3YMU66OBIOFC282TL8VSNF62ZWJGHV", "dateTime": 1516639686167}, {"current_trial": 6, "trialdata": {"rt": 51002, "trial_type": "text", "internal_node_id": "0.0-6.0", "time_elapsed": 113241, "key_press": 13, "type": "INSTRUCTIONS", "trial_index": 6}, "uniqueid": "MTK1967:3YMU66OBIOFC282TL8VSNF62ZWJGHV", "dateTime": 1516639738171}, {"current_trial": 7, "trialdata": {"rt": 14858, "trial_type": "text", "internal_node_id": "0.0-7.0", "time_elapsed": 128601, "key_press": 13, "type": "INSTRUCTIONS", "trial_index": 7}, "uniqueid": "MTK1967:3YMU66OBIOFC282TL8VSNF62ZWJGHV", "dateTime": 1516639753531}, {"current_trial": 8, "trialdata": {"rt": 4721, "trial_type": "text", "internal_node_id": "0.0-8.0", "time_elapsed": 133824, "key_press": 13, "type": "INSTRUCTIONS", "trial_index": 8}, "uniqueid": "MTK1967:3YMU66OBIOFC282TL8VSNF62ZWJGHV", "dateTime": 1516639758754}, {"current_trial": 9, "trialdata": {"rt": [5551, 10166, 14495], "trial_type": "math-distractor", "key_times": [4599, 4998, 5551, 8974, 9046, 10166, 13703, 14135, 14495, 17398, 17822], "responses": ["15", "12", "16"], "num2": [3, 7, 7, 2], "num3": [9, 6, 7, 6], "conditions": [18, 1200, "v", 18000], "internal_node_id": "0.0-9.0", "key_presses": [49, 53, 13, 49, 50, 13, 49, 54, 13, 49, 55], "trial": 0, "time_elapsed": 152834, "type": "DISTRACTOR", "trial_index": 9, "num1": [3, 1, 2, 9]}, "uniqueid": "MTK1967:3YMU66OBIOFC282TL8VSNF62ZWJGHV", "dateTime": 1516639777765}, {"current_trial": 10, "trialdata": {"rt": -1, "trial_type": "single-stim", "stimulus": "<p id=\"stim\">10</p>", "internal_node_id": "0.0-10.0-0.0", "time_elapsed": 155838, "key_press": -1, "trial_index": 10}, "uniqueid": "MTK1967:3YMU66OBIOFC282TL8VSNF62ZWJGHV", "dateTime": 1516639780768}, {"current_trial": 11, "trialdata": {"rt": -1, "trial_type": "single-stim", "stimulus": "<p id=\"stim\">9</p>", "internal_node_id": "0.0-10.0-1.0", "time_elapsed": 156839, "key_press": -1, "trial_index": 11}, "uniqueid": "MTK1967:3YMU66OBIOFC282TL8VSNF62ZWJGHV", "dateTime": 1516639781769}, {"current_trial": 12, "trialdata": {"rt": -1, "trial_type": "single-stim", "stimulus": "<p id=\"stim\">8</p>", "internal_node_id": "0.0-10.0-2.0", "time_elapsed": 157841, "key_press": -1, "trial_index": 12}, "uniqueid": "MTK1967:3YMU66OBIOFC282TL8VSNF62ZWJGHV", "dateTime": 1516639782771}, {"current_trial": 13, "trialdata": {"rt": -1, "trial_type": "single-stim", "stimulus": "<p id=\"stim\">7</p>", "internal_node_id": "0.0-10.0-3.0", "time_elapsed": 158843, "key_press": -1, "trial_index": 13}, "uniqueid": "MTK1967:3YMU66OBIOFC282TL8VSNF62ZWJGHV", "dateTime": 1516639783773}, {"current_trial": 14, "trialdata": {"rt": -1, "trial_type": "single-stim", "stimulus": "<p id=\"stim\">6</p>", "internal_node_id": "0.0-10.0-4.0", "time_elapsed": 159845, "key_press": -1, "trial_index": 14}, "uniqueid": "MTK1967:3YMU66OBIOFC282TL8VSNF62ZWJGHV", "dateTime": 1516639784775}, {"current_trial": 15, "trialdata": {"rt": -1, "trial_type": "single-stim", "stimulus": "<p id=\"stim\">5</p>", "internal_node_id": "0.0-10.0-5.0", "time_elapsed": 160847, "key_press": -1, "trial_index": 15}, "uniqueid": "MTK1967:3YMU66OBIOFC282TL8VSNF62ZWJGHV", "dateTime": 1516639785777}, {"current_trial": 16, "trialdata": {"rt": -1, "trial_type": "single-stim", "stimulus": "<p id=\"stim\">4</p>", "internal_node_id": "0.0-10.0-6.0", "time_elapsed": 161849, "key_press": -1, "trial_index": 16}, "uniqueid": "MTK1967:3YMU66OBIOFC282TL8VSNF62ZWJGHV", "dateTime": 1516639786779}, {"current_trial": 17, "trialdata": {"rt": -1, "trial_type": "single-stim", "stimulus": "<p id=\"stim\">3</p>", "internal_node_id": "0.0-10.0-7.0", "time_elapsed": 162852, "key_press": -1, "trial_index": 17}, "uniqueid": "MTK1967:3YMU66OBIOFC282TL8VSNF62ZWJGHV", "dateTime": 1516639787783}, {"current_trial": 18, "trialdata": {"rt": -1, "trial_type": "single-stim", "stimulus": "<p id=\"stim\">2</p>", "internal_node_id": "0.0-10.0-8.0", "time_elapsed": 163854, "key_press": -1, "trial_index": 18}, "uniqueid": "MTK1967:3YMU66OBIOFC282TL8VSNF62ZWJGHV", "dateTime": 1516639788784}, {"current_trial": 19, "trialdata": {"rt": -1, "trial_type": "single-stim", "stimulus": "<p id=\"stim\">1</p>", "internal_node_id": "0.0-10.0-9.0", "time_elapsed": 164855, "key_press": -1, "trial_index": 19}, "uniqueid": "MTK1967:3YMU66OBIOFC282TL8VSNF62ZWJGHV", "dateTime": 1516639789785}, {"current_trial": 20, "trialdata": {"rt": -1, "trial_type": "single-stim", "stimulus": "<p id=\"stim\">+</p>", "internal_node_id": "0.0-11.0-0.0", "time_elapsed": 166357, "key_press": -1, "type": "FIXATION", "trial_index": 20}, "uniqueid": "MTK1967:3YMU66OBIOFC282TL8VSNF62ZWJGHV", "dateTime": 1516639791287}, {"current_trial": 21, "trialdata": {"rt": -1, "trial_type": "single-stim", "word": "paper", "stimulus": "<p id=\"stim\">PAPER</p>", "conditions": [18, 1200, "v", 18000], "internal_node_id": "0.0-12.0", "trial": 0, "time_elapsed": 167559, "serialpos": 0, "key_press": -1, "wordID": 1010, "type": "PRES_VIS", "trial_index": 21}, "uniqueid": "MTK1967:3YMU66OBIOFC282TL8VSNF62ZWJGHV", "dateTime": 1516639792489}, {"current_trial": 22, "trialdata": {"rt": -1, "trial_type": "single-stim", "word": "blueprint", "stimulus": "<p id=\"stim\">BLUEPRINT</p>", "conditions": [18, 1200, "v", 18000], "internal_node_id": "0.0-13.0", "trial": 0, "time_elapsed": 169764, "serialpos": 1, "key_press": -1, "wordID": 141, "type": "PRES_VIS", "trial_index": 22}, "uniqueid": "MTK1967:3YMU66OBIOFC282TL8VSNF62ZWJGHV", "dateTime": 1516639794694}, {"current_trial": 23, "trialdata": {"rt": -1, "trial_type": "single-stim", "word": "bug", "stimulus": "<p id=\"stim\">BUG</p>", "conditions": [18, 1200, "v", 18000], "internal_node_id": "0.0-14.0", "trial": 0, "time_elapsed": 172003, "serialpos": 2, "key_press": -1, "wordID": 186, "type": "PRES_VIS", "trial_index": 23}, "uniqueid": "MTK1967:3YMU66OBIOFC282TL8VSNF62ZWJGHV", "dateTime": 1516639796933}, {"current_trial": 24, "trialdata": {"rt": -1, "trial_type": "single-stim", "word": "japan", "stimulus": "<p id=\"stim\">JAPAN</p>", "conditions": [18, 1200, "v", 18000], "internal_node_id": "0.0-15.0", "trial": 0, "time_elapsed": 174127, "serialpos": 3, "key_press": -1, "wordID": 748, "type": "PRES_VIS", "trial_index": 24}, "uniqueid": "MTK1967:3YMU66OBIOFC282TL8VSNF62ZWJGHV", "dateTime": 1516639799057}, {"current_trial": 25, "trialdata": {"rt": -1, "trial_type": "single-stim", "word": "journal", "stimulus": "<p id=\"stim\">JOURNAL</p>", "conditions": [18, 1200, "v", 18000], "internal_node_id": "0.0-16.0", "trial": 0, "time_elapsed": 176327, "serialpos": 4, "key_press": -1, "wordID": 759, "type": "PRES_VIS", "trial_index": 25}, "uniqueid": "MTK1967:3YMU66OBIOFC282TL8VSNF62ZWJGHV", "dateTime": 1516639801257}, {"current_trial": 26, "trialdata": {"rt": -1, "trial_type": "single-stim", "word": "mustard", "stimulus": "<p id=\"stim\">MUSTARD</p>", "conditions": [18, 1200, "v", 18000], "internal_node_id": "0.0-17.0", "trial": 0, "time_elapsed": 178397, "serialpos": 5, "key_press": -1, "wordID": 934, "type": "PRES_VIS", "trial_index": 26}, "uniqueid": "MTK1967:3YMU66OBIOFC282TL8VSNF62ZWJGHV", "dateTime": 1516639803327}, {"current_trial": 27, "trialdata": {"rt": -1, "trial_type": "single-stim", "word": "table", "stimulus": "<p id=\"stim\">TABLE</p>", "conditions": [18, 1200, "v", 18000], "internal_node_id": "0.0-18.0", "trial": 0, "time_elapsed": 180618, "serialpos": 6, "key_press": -1, "wordID": 1425, "type": "PRES_VIS", "trial_index": 27}, "uniqueid": "MTK1967:3YMU66OBIOFC282TL8VSNF62ZWJGHV", "dateTime": 1516639805548}, {"current_trial": 28, "trialdata": {"rt": -1, "trial_type": "single-stim", "word": "cabbage", "stimulus": "<p id=\"stim\">CABBAGE</p>", "conditions": [18, 1200, "v", 18000], "internal_node_id": "0.0-19.0", "trial": 0, "time_elapsed": 182919, "serialpos": 7, "key_press": -1, "wordID": 209, "type": "PRES_VIS", "trial_index": 28}, "uniqueid": "MTK1967:3YMU66OBIOFC282TL8VSNF62ZWJGHV", "dateTime": 1516639807849}, {"current_trial": 29, "trialdata": {"rt": -1, "trial_type": "single-stim", "word": "trombone", "stimulus": "<p id=\"stim\">TROMBONE</p>", "conditions": [18, 1200, "v", 18000], "internal_node_id": "0.0-20.0", "trial": 0, "time_elapsed": 185022, "serialpos": 8, "key_press": -1, "wordID": 1507, "type": "PRES_VIS", "trial_index": 29}, "uniqueid": "MTK1967:3YMU66OBIOFC282TL8VSNF62ZWJGHV", "dateTime": 1516639809952}, {"current_trial": 30, "trialdata": {"rt": -1, "trial_type": "single-stim", "word": "sticker", "stimulus": "<p id=\"stim\">STICKER</p>", "conditions": [18, 1200, "v", 18000], "internal_node_id": "0.0-21.0", "trial": 0, "time_elapsed": 187153, "serialpos": 9, "key_press": -1, "wordID": 1381, "type": "PRES_VIS", "trial_index": 30}, "uniqueid": "MTK1967:3YMU66OBIOFC282TL8VSNF62ZWJGHV", "dateTime": 1516639812083}, {"current_trial": 31, "trialdata": {"rt": -1, "trial_type": "single-stim", "word": "convict", "stimulus": "<p id=\"stim\">CONVICT</p>", "conditions": [18, 1200, "v", 18000], "internal_node_id": "0.0-22.0", "trial": 0, "time_elapsed": 189314, "serialpos": 10, "key_press": -1, "wordID": 370, "type": "PRES_VIS", "trial_index": 31}, "uniqueid": "MTK1967:3YMU66OBIOFC282TL8VSNF62ZWJGHV", "dateTime": 1516639814244}, {"current_trial": 32, "trialdata": {"rt": -1, "trial_type": "single-stim", "word": "captive", "stimulus": "<p id=\"stim\">CAPTIVE</p>", "conditions": [18, 1200, "v", 18000], "internal_node_id": "0.0-23.0", "trial": 0, "time_elapsed": 191545, "serialpos": 11, "key_press": -1, "wordID": 239, "type": "PRES_VIS", "trial_index": 32}, "uniqueid": "MTK1967:3YMU66OBIOFC282TL8VSNF62ZWJGHV", "dateTime": 1516639816475}, {"current_trial": 33, "trialdata": {"rt": -1, "trial_type": "single-stim", "word": "rug", "stimulus": "<p id=\"stim\">RUG</p>", "conditions": [18, 1200, "v", 18000], "internal_node_id": "0.0-24.0", "trial": 0, "time_elapsed": 193652, "serialpos": 12, "key_press": -1, "wordID": 1214, "type": "PRES_VIS", "trial_index": 33}, "uniqueid": "MTK1967:3YMU66OBIOFC282TL8VSNF62ZWJGHV", "dateTime": 1516639818582}, {"current_trial": 34, "trialdata": {"rt": -1, "trial_type": "single-stim", "word": "curtain", "stimulus": "<p id=\"stim\">CURTAIN</p>", "conditions": [18, 1200, "v", 18000], "internal_node_id": "0.0-25.0", "trial": 0, "time_elapsed": 196005, "serialpos": 13, "key_press": -1, "wordID": 426, "type": "PRES_VIS", "trial_index": 34}, "uniqueid": "MTK1967:3YMU66OBIOFC282TL8VSNF62ZWJGHV", "dateTime": 1516639820935}, {"current_trial": 35, "trialdata": {"rt": -1, "trial_type": "single-stim", "word": "raft", "stimulus": "<p id=\"stim\">RAFT</p>", "conditions": [18, 1200, "v", 18000], "internal_node_id": "0.0-26.0", "trial": 0, "time_elapsed": 198105, "serialpos": 14, "key_press": -1, "wordID": 1158, "type": "PRES_VIS", "trial_index": 35}, "uniqueid": "MTK1967:3YMU66OBIOFC282TL8VSNF62ZWJGHV", "dateTime": 1516639823035}, {"current_trial": 36, "trialdata": {"rt": -1, "trial_type": "single-stim", "word": "apron", "stimulus": "<p id=\"stim\">APRON</p>", "conditions": [18, 1200, "v", 18000], "internal_node_id": "0.0-27.0", "trial": 0, "time_elapsed": 200437, "serialpos": 15, "key_press": -1, "wordID": 34, "type": "PRES_VIS", "trial_index": 36}, "uniqueid": "MTK1967:3YMU66OBIOFC282TL8VSNF62ZWJGHV", "dateTime": 1516639825367}, {"current_trial": 37, "trialdata": {"rt": -1, "trial_type": "single-stim", "word": "peach", "stimulus": "<p id=\"stim\">PEACH</p>", "conditions": [18, 1200, "v", 18000], "internal_node_id": "0.0-28.0", "trial": 0, "time_elapsed": 202676, "serialpos": 16, "key_press": -1, "wordID": 1030, "type": "PRES_VIS", "trial_index": 37}, "uniqueid": "MTK1967:3YMU66OBIOFC282TL8VSNF62ZWJGHV", "dateTime": 1516639827606}, {"current_trial": 38, "trialdata": {"rt": -1, "trial_type": "single-stim", "word": "bubble", "stimulus": "<p id=\"stim\">BUBBLE</p>", "conditions": [18, 1200, "v", 18000], "internal_node_id": "0.0-29.0", "trial": 0, "time_elapsed": 204900, "serialpos": 17, "key_press": -1, "wordID": 182, "type": "PRES_VIS", "trial_index": 38}, "uniqueid": "MTK1967:3YMU66OBIOFC282TL8VSNF62ZWJGHV", "dateTime": 1516639829830}, {"current_trial": 39, "trialdata": {"rt": -1, "trial_type": "single-stim", "stimulus": "", "internal_node_id": "0.0-30.0-0.0", "time_elapsed": 207080, "key_press": -1, "type": "PRE_RECALL_DELAY", "trial_index": 39}, "uniqueid": "MTK1967:3YMU66OBIOFC282TL8VSNF62ZWJGHV", "dateTime": 1516639832010}, {"current_trial": 40, "trialdata": {"rt": -1000, "trial_type": "single-audio", "stimulus": "/static/audio/400Hz.wav", "internal_node_id": "0.0-31.0", "time_elapsed": 207584, "key_press": -1, "type": "PRE_RECALL_ALERT", "trial_index": 40}, "uniqueid": "MTK1967:3YMU66OBIOFC282TL8VSNF62ZWJGHV", "dateTime": 1516639832515}, {"current_trial": 41, "trialdata": {"rt": [2273, 3514, 4978, 6529, 8242, 10450, 12658], "recwords": ["bubble", "apron", "curtain", "convict", "raft", "paper", "blueprint"], "key_times": [1330, 1537, 1657, 1817, 1881, 2017, 2273, 2626, 2770, 2962, 3050, 3282, 3514, 3706, 3970, 4122, 4402, 4530, 4610, 4762, 4978, 5202, 5474, 5626, 5754, 5898, 6058, 6306, 6529, 6762, 6906, 7018, 7226, 8242, 9730, 9794, 9922, 10010, 10074, 10450, 10850, 10946, 11058, 11210, 11931, 12034, 12154, 12314, 12370, 12658], "trial_type": "free-recall", "conditions": [18, 1200, "v", 18000], "internal_node_id": "0.0-32.0-0.0", "key_presses": [66, 85, 66, 66, 76, 69, 13, 65, 80, 82, 79, 78, 13, 67, 85, 82, 84, 65, 73, 78, 13, 67, 79, 78, 86, 73, 67, 84, 13, 82, 65, 70, 84, 13, 80, 65, 80, 69, 82, 13, 66, 76, 85, 69, 80, 82, 73, 78, 84, 13], "trial": 0, "time_elapsed": 267591, "type": "FREE_RECALL", "trial_index": 41}, "uniqueid": "MTK1967:3YMU66OBIOFC282TL8VSNF62ZWJGHV", "dateTime": 1516639892527}, {"current_trial": 42, "trialdata": {"rt": 1330, "trial_type": "text", "internal_node_id": "0.0-33.0", "time_elapsed": 270928, "key_press": 32, "type": "INSTRUCTIONS", "trial_index": 42}, "uniqueid": "MTK1967:3YMU66OBIOFC282TL8VSNF62ZWJGHV", "dateTime": 1516639895859}, {"current_trial": 43, "trialdata": {"rt": [2515, 7364, 10836, 13844, 16284], "trial_type": "math-distractor", "key_times": [2139, 2227, 2515, 6379, 6595, 7364, 10244, 10580, 10836, 12988, 13708, 13844, 16052, 16204, 16284], "responses": ["12", "22", "19", "15", "11"], "num2": [2, 7, 8, 6, 3, 1], "num3": [8, 6, 9, 6, 7, 7], "conditions": [18, 1200, "v", 18000], "internal_node_id": "0.0-34.0", "key_presses": [49, 50, 13, 50, 50, 13, 49, 57, 13, 49, 53, 13, 49, 49, 13], "trial": 1, "time_elapsed": 290932, "type": "DISTRACTOR", "trial_index": 43, "num1": [2, 9, 2, 3, 1, 7]}, "uniqueid": "MTK1967:3YMU66OBIOFC282TL8VSNF62ZWJGHV", "dateTime": 1516639915863}, {"current_trial": 44, "trialdata": {"rt": -1, "trial_type": "single-stim", "stimulus": "<p id=\"stim\">10</p>", "internal_node_id": "0.0-35.0-0.0", "time_elapsed": 293934, "key_press": -1, "trial_index": 44}, "uniqueid": "MTK1967:3YMU66OBIOFC282TL8VSNF62ZWJGHV", "dateTime": 1516639918864}, {"current_trial": 45, "trialdata": {"rt": -1, "trial_type": "single-stim", "stimulus": "<p id=\"stim\">9</p>", "internal_node_id": "0.0-35.0-1.0", "time_elapsed": 294936, "key_press": -1, "trial_index": 45}, "uniqueid": "MTK1967:3YMU66OBIOFC282TL8VSNF62ZWJGHV", "dateTime": 1516639919866}, {"current_trial": 46, "trialdata": {"rt": -1, "trial_type": "single-stim", "stimulus": "<p id=\"stim\">8</p>", "internal_node_id": "0.0-35.0-2.0", "time_elapsed": 295938, "key_press": -1, "trial_index": 46}, "uniqueid": "MTK1967:3YMU66OBIOFC282TL8VSNF62ZWJGHV", "dateTime": 1516639920868}, {"current_trial": 47, "trialdata": {"rt": -1, "trial_type": "single-stim", "stimulus": "<p id=\"stim\">7</p>", "internal_node_id": "0.0-35.0-3.0", "time_elapsed": 296940, "key_press": -1, "trial_index": 47}, "uniqueid": "MTK1967:3YMU66OBIOFC282TL8VSNF62ZWJGHV", "dateTime": 1516639921870}, {"current_trial": 48, "trialdata": {"rt": -1, "trial_type": "single-stim", "stimulus": "<p id=\"stim\">6</p>", "internal_node_id": "0.0-35.0-4.0", "time_elapsed": 297941, "key_press": -1, "trial_index": 48}, "uniqueid": "MTK1967:3YMU66OBIOFC282TL8VSNF62ZWJGHV", "dateTime": 1516639922874}, {"current_trial": 49, "trialdata": {"rt": -1, "trial_type": "single-stim", "stimulus": "<p id=\"stim\">5</p>", "internal_node_id": "0.0-35.0-5.0", "time_elapsed": 298946, "key_press": -1, "trial_index": 49}, "uniqueid": "MTK1967:3YMU66OBIOFC282TL8VSNF62ZWJGHV", "dateTime": 1516639923876}, {"current_trial": 50, "trialdata": {"rt": -1, "trial_type": "single-stim", "stimulus": "<p id=\"stim\">4</p>", "internal_node_id": "0.0-35.0-6.0", "time_elapsed": 299948, "key_press": -1, "trial_index": 50}, "uniqueid": "MTK1967:3YMU66OBIOFC282TL8VSNF62ZWJGHV", "dateTime": 1516639924878}, {"current_trial": 51, "trialdata": {"rt": -1, "trial_type": "single-stim", "stimulus": "<p id=\"stim\">3</p>", "internal_node_id": "0.0-35.0-7.0", "time_elapsed": 300950, "key_press": -1, "trial_index": 51}, "uniqueid": "MTK1967:3YMU66OBIOFC282TL8VSNF62ZWJGHV", "dateTime": 1516639925880}, {"current_trial": 52, "trialdata": {"rt": -1, "trial_type": "single-stim", "stimulus": "<p id=\"stim\">2</p>", "internal_node_id": "0.0-35.0-8.0", "time_elapsed": 301952, "key_press": -1, "trial_index": 52}, "uniqueid": "MTK1967:3YMU66OBIOFC282TL8VSNF62ZWJGHV", "dateTime": 1516639926882}, {"current_trial": 53, "trialdata": {"rt": -1, "trial_type": "single-stim", "stimulus": "<p id=\"stim\">1</p>", "internal_node_id": "0.0-35.0-9.0", "time_elapsed": 302954, "key_press": -1, "trial_index": 53}, "uniqueid": "MTK1967:3YMU66OBIOFC282TL8VSNF62ZWJGHV", "dateTime": 1516639927884}, {"current_trial": 54, "trialdata": {"rt": -1, "trial_type": "single-stim", "stimulus": "<p id=\"stim\">+</p>", "internal_node_id": "0.0-36.0-0.0", "time_elapsed": 304456, "key_press": -1, "type": "FIXATION", "trial_index": 54}, "uniqueid": "MTK1967:3YMU66OBIOFC282TL8VSNF62ZWJGHV", "dateTime": 1516639929386}, {"current_trial": 55, "trialdata": {"rt": -1, "trial_type": "single-stim", "word": "champagne", "stimulus": "<p id=\"stim\">CHAMPAGNE</p>", "conditions": [18, 1200, "v", 18000], "internal_node_id": "0.0-37.0", "trial": 1, "time_elapsed": 305658, "serialpos": 0, "key_press": -1, "wordID": 277, "type": "PRES_VIS", "trial_index": 55}, "uniqueid": "MTK1967:3YMU66OBIOFC282TL8VSNF62ZWJGHV", "dateTime": 1516639930588}, {"current_trial": 56, "trialdata": {"rt": -1, "trial_type": "single-stim", "word": "dragon", "stimulus": "<p id=\"stim\">DRAGON</p>", "conditions": [18, 1200, "v", 18000], "internal_node_id": "0.0-38.0", "trial": 1, "time_elapsed": 307826, "serialpos": 1, "key_press": -1, "wordID": 491, "type": "PRES_VIS", "trial_index": 56}, "uniqueid": "MTK1967:3YMU66OBIOFC282TL8VSNF62ZWJGHV", "dateTime": 1516639932756}, {"current_trial": 57, "trialdata": {"rt": -1, "trial_type": "single-stim", "word": "salad", "stimulus": "<p id=\"stim\">SALAD</p>", "conditions": [18, 1200, "v", 18000], "internal_node_id": "0.0-39.0", "trial": 1, "time_elapsed": 310217, "serialpos": 2, "key_press": -1, "wordID": 1223, "type": "PRES_VIS", "trial_index": 57}, "uniqueid": "MTK1967:3YMU66OBIOFC282TL8VSNF62ZWJGHV", "dateTime": 1516639935147}, {"current_trial": 58, "trialdata": {"rt": -1, "trial_type": "single-stim", "word": "puppy", "stimulus": "<p id=\"stim\">PUPPY</p>", "conditions": [18, 1200, "v", 18000], "internal_node_id": "0.0-40.0", "trial": 1, "time_elapsed": 312273, "serialpos": 3, "key_press": -1, "wordID": 1143, "type": "PRES_VIS", "trial_index": 58}, "uniqueid": "MTK1967:3YMU66OBIOFC282TL8VSNF62ZWJGHV", "dateTime": 1516639937203}, {"current_trial": 59, "trialdata": {"rt": -1, "trial_type": "single-stim", "word": "atlas", "stimulus": "<p id=\"stim\">ATLAS</p>", "conditions": [18, 1200, "v", 18000], "internal_node_id": "0.0-41.0", "trial": 1, "time_elapsed": 314517, "serialpos": 4, "key_press": -1, "wordID": 52, "type": "PRES_VIS", "trial_index": 59}, "uniqueid": "MTK1967:3YMU66OBIOFC282TL8VSNF62ZWJGHV", "dateTime": 1516639939447}, {"current_trial": 60, "trialdata": {"rt": -1, "trial_type": "single-stim", "word": "princess", "stimulus": "<p id=\"stim\">PRINCESS</p>", "conditions": [18, 1200, "v", 18000], "internal_node_id": "0.0-42.0", "trial": 1, "time_elapsed": 316636, "serialpos": 5, "key_press": -1, "wordID": 1124, "type": "PRES_VIS", "trial_index": 60}, "uniqueid": "MTK1967:3YMU66OBIOFC282TL8VSNF62ZWJGHV", "dateTime": 1516639941566}, {"current_trial": 61, "trialdata": {"rt": -1, "trial_type": "single-stim", "word": "gallon", "stimulus": "<p id=\"stim\">GALLON</p>", "conditions": [18, 1200, "v", 18000], "internal_node_id": "0.0-43.0", "trial": 1, "time_elapsed": 318663, "serialpos": 6, "key_press": -1, "wordID": 617, "type": "PRES_VIS", "trial_index": 61}, "uniqueid": "MTK1967:3YMU66OBIOFC282TL8VSNF62ZWJGHV", "dateTime": 1516639943593}, {"current_trial": 62, "trialdata": {"rt": -1, "trial_type": "single-stim", "word": "partner", "stimulus": "<p id=\"stim\">PARTNER</p>", "conditions": [18, 1200, "v", 18000], "internal_node_id": "0.0-44.0", "trial": 1, "time_elapsed": 320888, "serialpos": 7, "key_press": -1, "wordID": 1016, "type": "PRES_VIS", "trial_index": 62}, "uniqueid": "MTK1967:3YMU66OBIOFC282TL8VSNF62ZWJGHV", "dateTime": 1516639945818}, {"current_trial": 63, "trialdata": {"rt": -1, "trial_type": "single-stim", "word": "scalpel", "stimulus": "<p id=\"stim\">SCALPEL</p>", "conditions": [18, 1200, "v", 18000], "internal_node_id": "0.0-45.0", "trial": 1, "time_elapsed": 323210, "serialpos": 8, "key_press": -1, "wordID": 1242, "type": "PRES_VIS", "trial_index": 63}, "uniqueid": "MTK1967:3YMU66OBIOFC282TL8VSNF62ZWJGHV", "dateTime": 1516639948141}, {"current_trial": 64, "trialdata": {"rt": -1, "trial_type": "single-stim", "word": "dresser", "stimulus": "<p id=\"stim\">DRESSER</p>", "conditions": [18, 1200, "v", 18000], "internal_node_id": "0.0-46.0", "trial": 1, "time_elapsed": 325426, "serialpos": 9, "key_press": -1, "wordID": 495, "type": "PRES_VIS", "trial_index": 64}, "uniqueid": "MTK1967:3YMU66OBIOFC282TL8VSNF62ZWJGHV", "dateTime": 1516639950356}, {"current_trial": 65, "trialdata": {"rt": -1, "trial_type": "single-stim", "word": "office", "stimulus": "<p id=\"stim\">OFFICE</p>", "conditions": [18, 1200, "v", 18000], "internal_node_id": "0.0-47.0", "trial": 1, "time_elapsed": 327581, "serialpos": 10, "key_press": -1, "wordID": 971, "type": "PRES_VIS", "trial_index": 65}, "uniqueid": "MTK1967:3YMU66OBIOFC282TL8VSNF62ZWJGHV", "dateTime": 1516639952511}, {"current_trial": 66, "trialdata": {"rt": -1, "trial_type": "single-stim", "word": "garden", "stimulus": "<p id=\"stim\">GARDEN</p>", "conditions": [18, 1200, "v", 18000], "internal_node_id": "0.0-48.0", "trial": 1, "time_elapsed": 329981, "serialpos": 11, "key_press": -1, "wordID": 622, "type": "PRES_VIS", "trial_index": 66}, "uniqueid": "MTK1967:3YMU66OBIOFC282TL8VSNF62ZWJGHV", "dateTime": 1516639954911}, {"current_trial": 67, "trialdata": {"rt": -1, "trial_type": "single-stim", "word": "hornet", "stimulus": "<p id=\"stim\">HORNET</p>", "conditions": [18, 1200, "v", 18000], "internal_node_id": "0.0-49.0", "trial": 1, "time_elapsed": 332002, "serialpos": 12, "key_press": -1, "wordID": 717, "type": "PRES_VIS", "trial_index": 67}, "uniqueid": "MTK1967:3YMU66OBIOFC282TL8VSNF62ZWJGHV", "dateTime": 1516639956932}, {"current_trial": 68, "trialdata": {"rt": -1, "trial_type": "single-stim", "word": "lodge", "stimulus": "<p id=\"stim\">LODGE</p>", "conditions": [18, 1200, "v", 18000], "internal_node_id": "0.0-50.0", "trial": 1, "time_elapsed": 334117, "serialpos": 13, "key_press": -1, "wordID": 838, "type": "PRES_VIS", "trial_index": 68}, "uniqueid": "MTK1967:3YMU66OBIOFC282TL8VSNF62ZWJGHV", "dateTime": 1516639959050}, {"current_trial": 69, "trialdata": {"rt": -1, "trial_type": "single-stim", "word": "mars", "stimulus": "<p id=\"stim\">MARS</p>", "conditions": [18, 1200, "v", 18000], "internal_node_id": "0.0-51.0", "trial": 1, "time_elapsed": 336300, "serialpos": 14, "key_press": -1, "wordID": 872, "type": "PRES_VIS", "trial_index": 69}, "uniqueid": "MTK1967:3YMU66OBIOFC282TL8VSNF62ZWJGHV", "dateTime": 1516639961230}, {"current_trial": 70, "trialdata": {"rt": -1, "trial_type": "single-stim", "word": "worker", "stimulus": "<p id=\"stim\">WORKER</p>", "conditions": [18, 1200, "v", 18000], "internal_node_id": "0.0-52.0", "trial": 1, "time_elapsed": 338489, "serialpos": 15, "key_press": -1, "wordID": 1620, "type": "PRES_VIS", "trial_index": 70}, "uniqueid": "MTK1967:3YMU66OBIOFC282TL8VSNF62ZWJGHV", "dateTime": 1516639963419}, {"current_trial": 71, "trialdata": {"rt": -1, "trial_type": "single-stim", "word": "spider", "stimulus": "<p id=\"stim\">SPIDER</p>", "conditions": [18, 1200, "v", 18000], "internal_node_id": "0.0-53.0", "trial": 1, "time_elapsed": 340660, "serialpos": 16, "key_press": -1, "wordID": 1350, "type": "PRES_VIS", "trial_index": 71}, "uniqueid": "MTK1967:3YMU66OBIOFC282TL8VSNF62ZWJGHV", "dateTime": 1516639965590}, {"current_trial": 72, "trialdata": {"rt": -1, "trial_type": "single-stim", "word": "radish", "stimulus": "<p id=\"stim\">RADISH</p>", "conditions": [18, 1200, "v", 18000], "internal_node_id": "0.0-54.0", "trial": 1, "time_elapsed": 342862, "serialpos": 17, "key_press": -1, "wordID": 1157, "type": "PRES_VIS", "trial_index": 72}, "uniqueid": "MTK1967:3YMU66OBIOFC282TL8VSNF62ZWJGHV", "dateTime": 1516639967792}, {"current_trial": 73, "trialdata": {"rt": -1, "trial_type": "single-stim", "stimulus": "", "internal_node_id": "0.0-55.0-0.0", "time_elapsed": 345222, "key_press": -1, "type": "PRE_RECALL_DELAY", "trial_index": 73}, "uniqueid": "MTK1967:3YMU66OBIOFC282TL8VSNF62ZWJGHV", "dateTime": 1516639970152}, {"current_trial": 74, "trialdata": {"rt": -1000, "trial_type": "single-audio", "stimulus": "/static/audio/400Hz.wav", "internal_node_id": "0.0-56.0", "time_elapsed": 345724, "key_press": -1, "type": "PRE_RECALL_ALERT", "trial_index": 74}, "uniqueid": "MTK1967:3YMU66OBIOFC282TL8VSNF62ZWJGHV", "dateTime": 1516639970654}, {"current_trial": 75, "trialdata": {"rt": [2511, 3790, 4664, 5576, 7984, 9296, 10825, 13304, 14624, 16119, 29288], "recwords": ["radish", "worker", "spider", "mars", "champagne", "princess", "puppy", "atlas", "partner", "office", "salad"], "key_times": [751, 1439, 1527, 1623, 1759, 1847, 1999, 2079, 2511, 3023, 3126, 3254, 3350, 3430, 3510, 3790, 4007, 4128, 4232, 4336, 4456, 4544, 4664, 4944, 5024, 5096, 5264, 5576, 5912, 6144, 6240, 6344, 6512, 6880, 7080, 7192, 7352, 7984, 8384, 8472, 8592, 8760, 8792, 8872, 8952, 9120, 9296, 9592, 9752, 9952, 10096, 10344, 10825, 12040, 12096, 12104, 12664, 12872, 12944, 13010, 13304, 13696, 13776, 13848, 14000, 14112, 14184, 14264, 14624, 14872, 14951, 15111, 15167, 15311, 15376, 16119, 27745, 27816, 28032, 28088, 28480, 28656, 28752, 28840, 29104, 29288], "trial_type": "free-recall", "conditions": [18, 1200, "v", 18000], "internal_node_id": "0.0-57.0-0.0", "key_presses": [69, 8, 82, 65, 68, 73, 83, 72, 13, 87, 79, 82, 75, 69, 82, 13, 83, 80, 73, 68, 69, 82, 13, 77, 65, 82, 83, 13, 67, 72, 65, 77, 80, 65, 71, 78, 69, 13, 80, 82, 73, 78, 67, 69, 83, 83, 13, 80, 85, 80, 80, 89, 13, 65, 84, 82, 8, 76, 65, 83, 13, 80, 65, 82, 84, 78, 69, 82, 13, 79, 70, 70, 73, 67, 69, 13, 83, 65, 65, 76, 8, 8, 76, 65, 68, 13], "trial": 1, "time_elapsed": 405728, "type": "FREE_RECALL", "trial_index": 75}, "uniqueid": "MTK1967:3YMU66OBIOFC282TL8VSNF62ZWJGHV", "dateTime": 1516640030664}, {"current_trial": 76, "trialdata": {"rt": 4400, "trial_type": "text", "internal_node_id": "0.0-58.0", "time_elapsed": 412136, "key_press": 32, "type": "INSTRUCTIONS", "trial_index": 76}, "uniqueid": "MTK1967:3YMU66OBIOFC282TL8VSNF62ZWJGHV", "dateTime": 1516640037066}, {"current_trial": 77, "trialdata": {"rt": [3211, 6243, 9045, 13412, 18987, 22667], "trial_type": "math-distractor", "key_times": [2811, 2859, 3211, 5451, 5947, 6243, 8292, 8660, 9045, 13004, 13132, 13412, 17907, 18275, 18987, 21804, 22267, 22667], "responses": ["20", "18", "13", "21", "13", "16"], "num2": [6, 7, 2, 4, 3, 8, 4], "num3": [7, 2, 2, 7, 1, 2, 1], "conditions": [12, 1600, "v", 24000], "internal_node_id": "0.0-59.0", "key_presses": [50, 48, 13, 49, 56, 13, 49, 51, 13, 50, 49, 13, 49, 51, 13, 49, 54, 13], "trial": 2, "time_elapsed": 437140, "type": "DISTRACTOR", "trial_index": 77, "num1": [7, 9, 9, 8, 9, 6, 1]}, "uniqueid": "MTK1967:3YMU66OBIOFC282TL8VSNF62ZWJGHV", "dateTime": 1516640062070}, {"current_trial": 78, "trialdata": {"rt": -1, "trial_type": "single-stim", "stimulus": "<p id=\"stim\">10</p>", "internal_node_id": "0.0-60.0-0.0", "time_elapsed": 440142, "key_press": -1, "trial_index": 78}, "uniqueid": "MTK1967:3YMU66OBIOFC282TL8VSNF62ZWJGHV", "dateTime": 1516640065072}, {"current_trial": 79, "trialdata": {"rt": -1, "trial_type": "single-stim", "stimulus": "<p id=\"stim\">9</p>", "internal_node_id": "0.0-60.0-1.0", "time_elapsed": 441143, "key_press": -1, "trial_index": 79}, "uniqueid": "MTK1967:3YMU66OBIOFC282TL8VSNF62ZWJGHV", "dateTime": 1516640066073}, {"current_trial": 80, "trialdata": {"rt": -1, "trial_type": "single-stim", "stimulus": "<p id=\"stim\">8</p>", "internal_node_id": "0.0-60.0-2.0", "time_elapsed": 442144, "key_press": -1, "trial_index": 80}, "uniqueid": "MTK1967:3YMU66OBIOFC282TL8VSNF62ZWJGHV", "dateTime": 1516640067074}, {"current_trial": 81, "trialdata": {"rt": -1, "trial_type": "single-stim", "stimulus": "<p id=\"stim\">7</p>", "internal_node_id": "0.0-60.0-3.0", "time_elapsed": 443145, "key_press": -1, "trial_index": 81}, "uniqueid": "MTK1967:3YMU66OBIOFC282TL8VSNF62ZWJGHV", "dateTime": 1516640068075}, {"current_trial": 82, "trialdata": {"rt": -1, "trial_type": "single-stim", "stimulus": "<p id=\"stim\">6</p>", "internal_node_id": "0.0-60.0-4.0", "time_elapsed": 444146, "key_press": -1, "trial_index": 82}, "uniqueid": "MTK1967:3YMU66OBIOFC282TL8VSNF62ZWJGHV", "dateTime": 1516640069076}, {"current_trial": 83, "trialdata": {"rt": -1, "trial_type": "single-stim", "stimulus": "<p id=\"stim\">5</p>", "internal_node_id": "0.0-60.0-5.0", "time_elapsed": 445147, "key_press": -1, "trial_index": 83}, "uniqueid": "MTK1967:3YMU66OBIOFC282TL8VSNF62ZWJGHV", "dateTime": 1516640070077}, {"current_trial": 84, "trialdata": {"rt": -1, "trial_type": "single-stim", "stimulus": "<p id=\"stim\">4</p>", "internal_node_id": "0.0-60.0-6.0", "time_elapsed": 446148, "key_press": -1, "trial_index": 84}, "uniqueid": "MTK1967:3YMU66OBIOFC282TL8VSNF62ZWJGHV", "dateTime": 1516640071078}, {"current_trial": 85, "trialdata": {"rt": -1, "trial_type": "single-stim", "stimulus": "<p id=\"stim\">3</p>", "internal_node_id": "0.0-60.0-7.0", "time_elapsed": 447149, "key_press": -1, "trial_index": 85}, "uniqueid": "MTK1967:3YMU66OBIOFC282TL8VSNF62ZWJGHV", "dateTime": 1516640072079}, {"current_trial": 86, "trialdata": {"rt": -1, "trial_type": "single-stim", "stimulus": "<p id=\"stim\">2</p>", "internal_node_id": "0.0-60.0-8.0", "time_elapsed": 448150, "key_press": -1, "trial_index": 86}, "uniqueid": "MTK1967:3YMU66OBIOFC282TL8VSNF62ZWJGHV", "dateTime": 1516640073080}, {"current_trial": 87, "trialdata": {"rt": -1, "trial_type": "single-stim", "stimulus": "<p id=\"stim\">1</p>", "internal_node_id": "0.0-60.0-9.0", "time_elapsed": 449151, "key_press": -1, "trial_index": 87}, "uniqueid": "MTK1967:3YMU66OBIOFC282TL8VSNF62ZWJGHV", "dateTime": 1516640074084}, {"current_trial": 88, "trialdata": {"rt": -1, "trial_type": "single-stim", "stimulus": "<p id=\"stim\">+</p>", "internal_node_id": "0.0-61.0-0.0", "time_elapsed": 450655, "key_press": -1, "type": "FIXATION", "trial_index": 88}, "uniqueid": "MTK1967:3YMU66OBIOFC282TL8VSNF62ZWJGHV", "dateTime": 1516640075585}, {"current_trial": 89, "trialdata": {"rt": -1, "trial_type": "single-stim", "word": "student", "stimulus": "<p id=\"stim\">STUDENT</p>", "conditions": [12, 1600, "v", 24000], "internal_node_id": "0.0-62.0", "trial": 2, "time_elapsed": 452256, "serialpos": 0, "key_press": -1, "wordID": 1394, "type": "PRES_VIS", "trial_index": 89}, "uniqueid": "MTK1967:3YMU66OBIOFC282TL8VSNF62ZWJGHV", "dateTime": 1516640077186}, {"current_trial": 90, "trialdata": {"rt": -1, "trial_type": "single-stim", "word": "milk", "stimulus": "<p id=\"stim\">MILK</p>", "conditions": [12, 1600, "v", 24000], "internal_node_id": "0.0-63.0", "trial": 2, "time_elapsed": 455052, "serialpos": 1, "key_press": -1, "wordID": 894, "type": "PRES_VIS", "trial_index": 90}, "uniqueid": "MTK1967:3YMU66OBIOFC282TL8VSNF62ZWJGHV", "dateTime": 1516640079982}, {"current_trial": 91, "trialdata": {"rt": -1, "trial_type": "single-stim", "word": "sparrow", "stimulus": "<p id=\"stim\">SPARROW</p>", "conditions": [12, 1600, "v", 24000], "internal_node_id": "0.0-64.0", "trial": 2, "time_elapsed": 457511, "serialpos": 2, "key_press": -1, "wordID": 1346, "type": "PRES_VIS", "trial_index": 91}, "uniqueid": "MTK1967:3YMU66OBIOFC282TL8VSNF62ZWJGHV", "dateTime": 1516640082441}, {"current_trial": 92, "trialdata": {"rt": -1, "trial_type": "single-stim", "word": "college", "stimulus": "<p id=\"stim\">COLLEGE</p>", "conditions": [12, 1600, "v", 24000], "internal_node_id": "0.0-65.0", "trial": 2, "time_elapsed": 460117, "serialpos": 3, "key_press": -1, "wordID": 345, "type": "PRES_VIS", "trial_index": 92}, "uniqueid": "MTK1967:3YMU66OBIOFC282TL8VSNF62ZWJGHV", "dateTime": 1516640085047}, {"current_trial": 93, "trialdata": {"rt": -1, "trial_type": "single-stim", "word": "postage", "stimulus": "<p id=\"stim\">POSTAGE</p>", "conditions": [12, 1600, "v", 24000], "internal_node_id": "0.0-66.0", "trial": 2, "time_elapsed": 462682, "serialpos": 4, "key_press": -1, "wordID": 1112, "type": "PRES_VIS", "trial_index": 93}, "uniqueid": "MTK1967:3YMU66OBIOFC282TL8VSNF62ZWJGHV", "dateTime": 1516640087612}, {"current_trial": 94, "trialdata": {"rt": -1, "trial_type": "single-stim", "word": "sibling", "stimulus": "<p id=\"stim\">SIBLING</p>", "conditions": [12, 1600, "v", 24000], "internal_node_id": "0.0-67.0", "trial": 2, "time_elapsed": 465421, "serialpos": 5, "key_press": -1, "wordID": 1300, "type": "PRES_VIS", "trial_index": 94}, "uniqueid": "MTK1967:3YMU66OBIOFC282TL8VSNF62ZWJGHV", "dateTime": 1516640090351}, {"current_trial": 95, "trialdata": {"rt": -1, "trial_type": "single-stim", "word": "robin", "stimulus": "<p id=\"stim\">ROBIN</p>", "conditions": [12, 1600, "v", 24000], "internal_node_id": "0.0-68.0", "trial": 2, "time_elapsed": 467933, "serialpos": 6, "key_press": -1, "wordID": 1198, "type": "PRES_VIS", "trial_index": 95}, "uniqueid": "MTK1967:3YMU66OBIOFC282TL8VSNF62ZWJGHV", "dateTime": 1516640092863}, {"current_trial": 96, "trialdata": {"rt": -1, "trial_type": "single-stim", "word": "barley", "stimulus": "<p id=\"stim\">BARLEY</p>", "conditions": [12, 1600, "v", 24000], "internal_node_id": "0.0-69.0", "trial": 2, "time_elapsed": 470537, "serialpos": 7, "key_press": -1, "wordID": 87, "type": "PRES_VIS", "trial_index": 96}, "uniqueid": "MTK1967:3YMU66OBIOFC282TL8VSNF62ZWJGHV", "dateTime": 1516640095467}, {"current_trial": 97, "trialdata": {"rt": -1, "trial_type": "single-stim", "word": "tweezers", "stimulus": "<p id=\"stim\">TWEEZERS</p>", "conditions": [12, 1600, "v", 24000], "internal_node_id": "0.0-70.0", "trial": 2, "time_elapsed": 473237, "serialpos": 8, "key_press": -1, "wordID": 1525, "type": "PRES_VIS", "trial_index": 97}, "uniqueid": "MTK1967:3YMU66OBIOFC282TL8VSNF62ZWJGHV", "dateTime": 1516640098167}, {"current_trial": 98, "trialdata": {"rt": -1, "trial_type": "single-stim", "word": "pigeon", "stimulus": "<p id=\"stim\">PIGEON</p>", "conditions": [12, 1600, "v", 24000], "internal_node_id": "0.0-71.0", "trial": 2, "time_elapsed": 475941, "serialpos": 9, "key_press": -1, "wordID": 1064, "type": "PRES_VIS", "trial_index": 98}, "uniqueid": "MTK1967:3YMU66OBIOFC282TL8VSNF62ZWJGHV", "dateTime": 1516640100871}, {"current_trial": 99, "trialdata": {"rt": -1, "trial_type": "single-stim", "word": "fox", "stimulus": "<p id=\"stim\">FOX</p>", "conditions": [12, 1600, "v", 24000], "internal_node_id": "0.0-72.0", "trial": 2, "time_elapsed": 478591, "serialpos": 10, "key_press": -1, "wordID": 597, "type": "PRES_VIS", "trial_index": 99}, "uniqueid": "MTK1967:3YMU66OBIOFC282TL8VSNF62ZWJGHV", "dateTime": 1516640103521}, {"current_trial": 100, "trialdata": {"rt": -1, "trial_type": "single-stim", "word": "mildew", "stimulus": "<p id=\"stim\">MILDEW</p>", "conditions": [12, 1600, "v", 24000], "internal_node_id": "0.0-73.0", "trial": 2, "time_elapsed": 481127, "serialpos": 11, "key_press": -1, "wordID": 892, "type": "PRES_VIS", "trial_index": 100}, "uniqueid": "MTK1967:3YMU66OBIOFC282TL8VSNF62ZWJGHV", "dateTime": 1516640106057}, {"current_trial": 101, "trialdata": {"rt": -1, "trial_type": "single-stim", "stimulus": "", "internal_node_id": "0.0-74.0-0.0", "time_elapsed": 483422, "key_press": -1, "type": "PRE_RECALL_DELAY", "trial_index": 101}, "uniqueid": "MTK1967:3YMU66OBIOFC282TL8VSNF62ZWJGHV", "dateTime": 1516640108352}, {"current_trial": 102, "trialdata": {"rt": -1000, "trial_type": "single-audio", "stimulus": "/static/audio/400Hz.wav", "internal_node_id": "0.0-75.0", "time_elapsed": 483923, "key_press": -1, "type": "PRE_RECALL_ALERT", "trial_index": 102}, "uniqueid": "MTK1967:3YMU66OBIOFC282TL8VSNF62ZWJGHV", "dateTime": 1516640108853}, {"current_trial": 103, "trialdata": {"rt": [2536, 3864, 5600, 6945, 7601, 10113, 12473], "recwords": ["mildew", "tweezers", "pigeon", "barley", "fox", "college", "student"], "key_times": [1312, 1520, 1704, 1760, 1984, 2208, 2536, 2752, 2824, 3080, 3264, 3392, 3512, 3632, 3712, 3864, 4064, 4280, 4368, 4736, 4824, 4952, 4960, 5328, 5600, 5937, 6113, 6177, 6321, 6433, 6497, 6945, 7169, 7273, 7369, 7601, 7905, 7969, 8153, 8289, 8353, 8425, 8537, 10113, 11410, 11577, 11833, 11945, 12041, 12105, 12289, 12473], "trial_type": "free-recall", "conditions": [12, 1600, "v", 24000], "internal_node_id": "0.0-76.0-0.0", "key_presses": [77, 73, 76, 68, 69, 87, 13, 84, 87, 69, 69, 90, 69, 82, 83, 13, 80, 73, 71, 69, 79, 78, 77, 8, 13, 66, 65, 82, 76, 69, 89, 13, 70, 79, 88, 13, 67, 79, 76, 76, 69, 71, 69, 13, 83, 84, 85, 68, 69, 78, 84, 13], "trial": 2, "time_elapsed": 543927, "type": "FREE_RECALL", "trial_index": 103}, "uniqueid": "MTK1967:3YMU66OBIOFC282TL8VSNF62ZWJGHV", "dateTime": 1516640168863}, {"current_trial": 104, "trialdata": {"rt": 1763, "trial_type": "text", "internal_node_id": "0.0-77.0", "time_elapsed": 547697, "key_press": 32, "type": "INSTRUCTIONS", "trial_index": 104}, "uniqueid": "MTK1967:3YMU66OBIOFC282TL8VSNF62ZWJGHV", "dateTime": 1516640172627}, {"current_trial": 105, "trialdata": {"rt": [5963, 8180, 14012, 17772, 20084, 23595], "trial_type": "math-distractor", "key_times": [5283, 5699, 5963, 7763, 7939, 8180, 13692, 13796, 14012, 17436, 17628, 17772, 19596, 19820, 20084, 23451, 23595], "responses": ["26", "11", "23", "11", "18", "8"], "num2": [9, 4, 8, 5, 7, 3, 4], "num3": [7, 6, 9, 4, 8, 3, 9], "conditions": [24, 1600, "v", 24000], "internal_node_id": "0.0-78.0", "key_presses": [50, 54, 13, 49, 49, 13, 50, 51, 13, 49, 49, 13, 49, 56, 13, 56, 13], "trial": 3, "time_elapsed": 573701, "type": "DISTRACTOR", "trial_index": 105, "num1": [9, 1, 6, 2, 3, 2, 6]}, "uniqueid": "MTK1967:3YMU66OBIOFC282TL8VSNF62ZWJGHV", "dateTime": 1516640198631}, {"current_trial": 106, "trialdata": {"rt": -1, "trial_type": "single-stim", "stimulus": "<p id=\"stim\">10</p>", "internal_node_id": "0.0-79.0-0.0", "time_elapsed": 576703, "key_press": -1, "trial_index": 106}, "uniqueid": "MTK1967:3YMU66OBIOFC282TL8VSNF62ZWJGHV", "dateTime": 1516640201633}, {"current_trial": 107, "trialdata": {"rt": -1, "trial_type": "single-stim", "stimulus": "<p id=\"stim\">9</p>", "internal_node_id": "0.0-79.0-1.0", "time_elapsed": 577704, "key_press": -1, "trial_index": 107}, "uniqueid": "MTK1967:3YMU66OBIOFC282TL8VSNF62ZWJGHV", "dateTime": 1516640202634}, {"current_trial": 108, "trialdata": {"rt": -1, "trial_type": "single-stim", "stimulus": "<p id=\"stim\">8</p>", "internal_node_id": "0.0-79.0-2.0", "time_elapsed": 578705, "key_press": -1, "trial_index": 108}, "uniqueid": "MTK1967:3YMU66OBIOFC282TL8VSNF62ZWJGHV", "dateTime": 1516640203635}, {"current_trial": 109, "trialdata": {"rt": -1, "trial_type": "single-stim", "stimulus": "<p id=\"stim\">7</p>", "internal_node_id": "0.0-79.0-3.0", "time_elapsed": 579706, "key_press": -1, "trial_index": 109}, "uniqueid": "MTK1967:3YMU66OBIOFC282TL8VSNF62ZWJGHV", "dateTime": 1516640204636}, {"current_trial": 110, "trialdata": {"rt": -1, "trial_type": "single-stim", "stimulus": "<p id=\"stim\">6</p>", "internal_node_id": "0.0-79.0-4.0", "time_elapsed": 580707, "key_press": -1, "trial_index": 110}, "uniqueid": "MTK1967:3YMU66OBIOFC282TL8VSNF62ZWJGHV", "dateTime": 1516640205637}, {"current_trial": 111, "trialdata": {"rt": -1, "trial_type": "single-stim", "stimulus": "<p id=\"stim\">5</p>", "internal_node_id": "0.0-79.0-5.0", "time_elapsed": 581708, "key_press": -1, "trial_index": 111}, "uniqueid": "MTK1967:3YMU66OBIOFC282TL8VSNF62ZWJGHV", "dateTime": 1516640206638}, {"current_trial": 112, "trialdata": {"rt": -1, "trial_type": "single-stim", "stimulus": "<p id=\"stim\">4</p>", "internal_node_id": "0.0-79.0-6.0", "time_elapsed": 582709, "key_press": -1, "trial_index": 112}, "uniqueid": "MTK1967:3YMU66OBIOFC282TL8VSNF62ZWJGHV", "dateTime": 1516640207639}, {"current_trial": 113, "trialdata": {"rt": -1, "trial_type": "single-stim", "stimulus": "<p id=\"stim\">3</p>", "internal_node_id": "0.0-79.0-7.0", "time_elapsed": 583710, "key_press": -1, "trial_index": 113}, "uniqueid": "MTK1967:3YMU66OBIOFC282TL8VSNF62ZWJGHV", "dateTime": 1516640208640}, {"current_trial": 114, "trialdata": {"rt": -1, "trial_type": "single-stim", "stimulus": "<p id=\"stim\">2</p>", "internal_node_id": "0.0-79.0-8.0", "time_elapsed": 584711, "key_press": -1, "trial_index": 114}, "uniqueid": "MTK1967:3YMU66OBIOFC282TL8VSNF62ZWJGHV", "dateTime": 1516640209641}, {"current_trial": 115, "trialdata": {"rt": -1, "trial_type": "single-stim", "stimulus": "<p id=\"stim\">1</p>", "internal_node_id": "0.0-79.0-9.0", "time_elapsed": 585712, "key_press": -1, "trial_index": 115}, "uniqueid": "MTK1967:3YMU66OBIOFC282TL8VSNF62ZWJGHV", "dateTime": 1516640210642}, {"current_trial": 116, "trialdata": {"rt": -1, "trial_type": "single-stim", "stimulus": "<p id=\"stim\">+</p>", "internal_node_id": "0.0-80.0-0.0", "time_elapsed": 587213, "key_press": -1, "type": "FIXATION", "trial_index": 116}, "uniqueid": "MTK1967:3YMU66OBIOFC282TL8VSNF62ZWJGHV", "dateTime": 1516640212143}, {"current_trial": 117, "trialdata": {"rt": -1, "trial_type": "single-stim", "word": "dust", "stimulus": "<p id=\"stim\">DUST</p>", "conditions": [24, 1600, "v", 24000], "internal_node_id": "0.0-81.0", "trial": 3, "time_elapsed": 588814, "serialpos": 0, "key_press": -1, "wordID": 507, "type": "PRES_VIS", "trial_index": 117}, "uniqueid": "MTK1967:3YMU66OBIOFC282TL8VSNF62ZWJGHV", "dateTime": 1516640213744}, {"current_trial": 118, "trialdata": {"rt": -1, "trial_type": "single-stim", "word": "goblin", "stimulus": "<p id=\"stim\">GOBLIN</p>", "conditions": [24, 1600, "v", 24000], "internal_node_id": "0.0-82.0", "trial": 3, "time_elapsed": 591276, "serialpos": 1, "key_press": -1, "wordID": 644, "type": "PRES_VIS", "trial_index": 118}, "uniqueid": "MTK1967:3YMU66OBIOFC282TL8VSNF62ZWJGHV", "dateTime": 1516640216206}, {"current_trial": 119, "trialdata": {"rt": -1, "trial_type": "single-stim", "word": "parent", "stimulus": "<p id=\"stim\">PARENT</p>", "conditions": [24, 1600, "v", 24000], "internal_node_id": "0.0-83.0", "trial": 3, "time_elapsed": 593963, "serialpos": 2, "key_press": -1, "wordID": 1012, "type": "PRES_VIS", "trial_index": 119}, "uniqueid": "MTK1967:3YMU66OBIOFC282TL8VSNF62ZWJGHV", "dateTime": 1516640218893}, {"current_trial": 120, "trialdata": {"rt": -1, "trial_type": "single-stim", "word": "daughter", "stimulus": "<p id=\"stim\">DAUGHTER</p>", "conditions": [24, 1600, "v", 24000], "internal_node_id": "0.0-84.0", "trial": 3, "time_elapsed": 596669, "serialpos": 3, "key_press": -1, "wordID": 441, "type": "PRES_VIS", "trial_index": 120}, "uniqueid": "MTK1967:3YMU66OBIOFC282TL8VSNF62ZWJGHV", "dateTime": 1516640221599}, {"current_trial": 121, "trialdata": {"rt": -1, "trial_type": "single-stim", "word": "husband", "stimulus": "<p id=\"stim\">HUSBAND</p>", "conditions": [24, 1600, "v", 24000], "internal_node_id": "0.0-85.0", "trial": 3, "time_elapsed": 599289, "serialpos": 4, "key_press": -1, "wordID": 727, "type": "PRES_VIS", "trial_index": 121}, "uniqueid": "MTK1967:3YMU66OBIOFC282TL8VSNF62ZWJGHV", "dateTime": 1516640224219}, {"current_trial": 122, "trialdata": {"rt": -1, "trial_type": "single-stim", "word": "nightgown", "stimulus": "<p id=\"stim\">NIGHTGOWN</p>", "conditions": [24, 1600, "v", 24000], "internal_node_id": "0.0-86.0", "trial": 3, "time_elapsed": 601841, "serialpos": 5, "key_press": -1, "wordID": 952, "type": "PRES_VIS", "trial_index": 122}, "uniqueid": "MTK1967:3YMU66OBIOFC282TL8VSNF62ZWJGHV", "dateTime": 1516640226771}, {"current_trial": 123, "trialdata": {"rt": -1, "trial_type": "single-stim", "word": "tutu", "stimulus": "<p id=\"stim\">TUTU</p>", "conditions": [24, 1600, "v", 24000], "internal_node_id": "0.0-87.0", "trial": 3, "time_elapsed": 604611, "serialpos": 6, "key_press": -1, "wordID": 1523, "type": "PRES_VIS", "trial_index": 123}, "uniqueid": "MTK1967:3YMU66OBIOFC282TL8VSNF62ZWJGHV", "dateTime": 1516640229541}, {"current_trial": 124, "trialdata": {"rt": -1, "trial_type": "single-stim", "word": "sponge", "stimulus": "<p id=\"stim\">SPONGE</p>", "conditions": [24, 1600, "v", 24000], "internal_node_id": "0.0-88.0", "trial": 3, "time_elapsed": 607028, "serialpos": 7, "key_press": -1, "wordID": 1354, "type": "PRES_VIS", "trial_index": 124}, "uniqueid": "MTK1967:3YMU66OBIOFC282TL8VSNF62ZWJGHV", "dateTime": 1516640231958}, {"current_trial": 125, "trialdata": {"rt": -1, "trial_type": "single-stim", "word": "shrub", "stimulus": "<p id=\"stim\">SHRUB</p>", "conditions": [24, 1600, "v", 24000], "internal_node_id": "0.0-89.0", "trial": 3, "time_elapsed": 609801, "serialpos": 8, "key_press": -1, "wordID": 1298, "type": "PRES_VIS", "trial_index": 125}, "uniqueid": "MTK1967:3YMU66OBIOFC282TL8VSNF62ZWJGHV", "dateTime": 1516640234731}, {"current_trial": 126, "trialdata": {"rt": -1, "trial_type": "single-stim", "word": "girl", "stimulus": "<p id=\"stim\">GIRL</p>", "conditions": [24, 1600, "v", 24000], "internal_node_id": "0.0-90.0", "trial": 3, "time_elapsed": 612535, "serialpos": 9, "key_press": -1, "wordID": 636, "type": "PRES_VIS", "trial_index": 126}, "uniqueid": "MTK1967:3YMU66OBIOFC282TL8VSNF62ZWJGHV", "dateTime": 1516640237465}, {"current_trial": 127, "trialdata": {"rt": -1, "trial_type": "single-stim", "word": "crevice", "stimulus": "<p id=\"stim\">CREVICE</p>", "conditions": [24, 1600, "v", 24000], "internal_node_id": "0.0-91.0", "trial": 3, "time_elapsed": 615295, "serialpos": 10, "key_press": -1, "wordID": 404, "type": "PRES_VIS", "trial_index": 127}, "uniqueid": "MTK1967:3YMU66OBIOFC282TL8VSNF62ZWJGHV", "dateTime": 1516640240225}, {"current_trial": 128, "trialdata": {"rt": -1, "trial_type": "single-stim", "word": "cod", "stimulus": "<p id=\"stim\">COD</p>", "conditions": [24, 1600, "v", 24000], "internal_node_id": "0.0-92.0", "trial": 3, "time_elapsed": 618026, "serialpos": 11, "key_press": -1, "wordID": 339, "type": "PRES_VIS", "trial_index": 128}, "uniqueid": "MTK1967:3YMU66OBIOFC282TL8VSNF62ZWJGHV", "dateTime": 1516640242956}, {"current_trial": 129, "trialdata": {"rt": -1, "trial_type": "single-stim", "word": "bank", "stimulus": "<p id=\"stim\">BANK</p>", "conditions": [24, 1600, "v", 24000], "internal_node_id": "0.0-93.0", "trial": 3, "time_elapsed": 620648, "serialpos": 12, "key_press": -1, "wordID": 82, "type": "PRES_VIS", "trial_index": 129}, "uniqueid": "MTK1967:3YMU66OBIOFC282TL8VSNF62ZWJGHV", "dateTime": 1516640245578}, {"current_trial": 130, "trialdata": {"rt": -1, "trial_type": "single-stim", "word": "female", "stimulus": "<p id=\"stim\">FEMALE</p>", "conditions": [24, 1600, "v", 24000], "internal_node_id": "0.0-94.0", "trial": 3, "time_elapsed": 623109, "serialpos": 13, "key_press": -1, "wordID": 558, "type": "PRES_VIS", "trial_index": 130}, "uniqueid": "MTK1967:3YMU66OBIOFC282TL8VSNF62ZWJGHV", "dateTime": 1516640248039}, {"current_trial": 131, "trialdata": {"rt": -1, "trial_type": "single-stim", "word": "costume", "stimulus": "<p id=\"stim\">COSTUME</p>", "conditions": [24, 1600, "v", 24000], "internal_node_id": "0.0-95.0", "trial": 3, "time_elapsed": 625818, "serialpos": 14, "key_press": -1, "wordID": 382, "type": "PRES_VIS", "trial_index": 131}, "uniqueid": "MTK1967:3YMU66OBIOFC282TL8VSNF62ZWJGHV", "dateTime": 1516640250748}, {"current_trial": 132, "trialdata": {"rt": -1, "trial_type": "single-stim", "word": "stone", "stimulus": "<p id=\"stim\">STONE</p>", "conditions": [24, 1600, "v", 24000], "internal_node_id": "0.0-96.0", "trial": 3, "time_elapsed": 628564, "serialpos": 15, "key_press": -1, "wordID": 1384, "type": "PRES_VIS", "trial_index": 132}, "uniqueid": "MTK1967:3YMU66OBIOFC282TL8VSNF62ZWJGHV", "dateTime": 1516640253494}, {"current_trial": 133, "trialdata": {"rt": -1, "trial_type": "single-stim", "word": "cattle", "stimulus": "<p id=\"stim\">CATTLE</p>", "conditions": [24, 1600, "v", 24000], "internal_node_id": "0.0-97.0", "trial": 3, "time_elapsed": 631160, "serialpos": 16, "key_press": -1, "wordID": 260, "type": "PRES_VIS", "trial_index": 133}, "uniqueid": "MTK1967:3YMU66OBIOFC282TL8VSNF62ZWJGHV", "dateTime": 1516640256090}, {"current_trial": 134, "trialdata": {"rt": -1, "trial_type": "single-stim", "word": "item", "stimulus": "<p id=\"stim\">ITEM</p>", "conditions": [24, 1600, "v", 24000], "internal_node_id": "0.0-98.0", "trial": 3, "time_elapsed": 633828, "serialpos": 17, "key_press": -1, "wordID": 745, "type": "PRES_VIS", "trial_index": 134}, "uniqueid": "MTK1967:3YMU66OBIOFC282TL8VSNF62ZWJGHV", "dateTime": 1516640258758}, {"current_trial": 135, "trialdata": {"rt": -1, "trial_type": "single-stim", "word": "snake", "stimulus": "<p id=\"stim\">SNAKE</p>", "conditions": [24, 1600, "v", 24000], "internal_node_id": "0.0-99.0", "trial": 3, "time_elapsed": 636601, "serialpos": 18, "key_press": -1, "wordID": 1332, "type": "PRES_VIS", "trial_index": 135}, "uniqueid": "MTK1967:3YMU66OBIOFC282TL8VSNF62ZWJGHV", "dateTime": 1516640261531}, {"current_trial": 136, "trialdata": {"rt": -1, "trial_type": "single-stim", "word": "diner", "stimulus": "<p id=\"stim\">DINER</p>", "conditions": [24, 1600, "v", 24000], "internal_node_id": "0.0-100.0", "trial": 3, "time_elapsed": 639220, "serialpos": 19, "key_press": -1, "wordID": 466, "type": "PRES_VIS", "trial_index": 136}, "uniqueid": "MTK1967:3YMU66OBIOFC282TL8VSNF62ZWJGHV", "dateTime": 1516640264150}, {"current_trial": 137, "trialdata": {"rt": -1, "trial_type": "single-stim", "word": "waiter", "stimulus": "<p id=\"stim\">WAITER</p>", "conditions": [24, 1600, "v", 24000], "internal_node_id": "0.0-101.0", "trial": 3, "time_elapsed": 641822, "serialpos": 20, "key_press": -1, "wordID": 1579, "type": "PRES_VIS", "trial_index": 137}, "uniqueid": "MTK1967:3YMU66OBIOFC282TL8VSNF62ZWJGHV", "dateTime": 1516640266752}, {"current_trial": 138, "trialdata": {"rt": -1, "trial_type": "single-stim", "word": "spool", "stimulus": "<p id=\"stim\">SPOOL</p>", "conditions": [24, 1600, "v", 24000], "internal_node_id": "0.0-102.0", "trial": 3, "time_elapsed": 644469, "serialpos": 21, "key_press": -1, "wordID": 1355, "type": "PRES_VIS", "trial_index": 138}, "uniqueid": "MTK1967:3YMU66OBIOFC282TL8VSNF62ZWJGHV", "dateTime": 1516640269399}, {"current_trial": 139, "trialdata": {"rt": -1, "trial_type": "single-stim", "word": "picture", "stimulus": "<p id=\"stim\">PICTURE</p>", "conditions": [24, 1600, "v", 24000], "internal_node_id": "0.0-103.0", "trial": 3, "time_elapsed": 647171, "serialpos": 22, "key_press": -1, "wordID": 1060, "type": "PRES_VIS", "trial_index": 139}, "uniqueid": "MTK1967:3YMU66OBIOFC282TL8VSNF62ZWJGHV", "dateTime": 1516640272101}, {"current_trial": 140, "trialdata": {"rt": -1, "trial_type": "single-stim", "word": "possum", "stimulus": "<p id=\"stim\">POSSUM</p>", "conditions": [24, 1600, "v", 24000], "internal_node_id": "0.0-104.0", "trial": 3, "time_elapsed": 649835, "serialpos": 23, "key_press": -1, "wordID": 1111, "type": "PRES_VIS", "trial_index": 140}, "uniqueid": "MTK1967:3YMU66OBIOFC282TL8VSNF62ZWJGHV", "dateTime": 1516640274765}, {"current_trial": 141, "trialdata": {"rt": -1, "trial_type": "single-stim", "stimulus": "", "internal_node_id": "0.0-105.0-0.0", "time_elapsed": 652082, "key_press": -1, "type": "PRE_RECALL_DELAY", "trial_index": 141}, "uniqueid": "MTK1967:3YMU66OBIOFC282TL8VSNF62ZWJGHV", "dateTime": 1516640277012}, {"current_trial": 142, "trialdata": {"rt": -1000, "trial_type": "single-audio", "stimulus": "/static/audio/400Hz.wav", "internal_node_id": "0.0-106.0", "time_elapsed": 652583, "key_press": -1, "type": "PRE_RECALL_ALERT", "trial_index": 142}, "uniqueid": "MTK1967:3YMU66OBIOFC282TL8VSNF62ZWJGHV", "dateTime": 1516640277513}, {"current_trial": 143, "trialdata": {"rt": [2869, 4741, 5860, 6916, 8148, 9556, 11732, 13997, 16461, 17597], "recwords": ["picture", "possum", "diner", "spool", "waiter", "parent", "daughter", "husband", "goblin", "dust"], "key_times": [1125, 1253, 1261, 1901, 2061, 2117, 2165, 2397, 2421, 2573, 2621, 2869, 3029, 3517, 3669, 3805, 3925, 3941, 4373, 4541, 4741, 4885, 4957, 5141, 5613, 5669, 5860, 6044, 6164, 6228, 6412, 6684, 6916, 7044, 7132, 7276, 7388, 7524, 7612, 8148, 8908, 9012, 9116, 9180, 9260, 9380, 9556, 9716, 9812, 9908, 10084, 10196, 10364, 10661, 10708, 11732, 11876, 12029, 12149, 12445, 12605, 12701, 12813, 13997, 15661, 15733, 15885, 16077, 16149, 16365, 16461, 16685, 17157, 17269, 17333, 17597], "trial_type": "free-recall", "conditions": [24, 1600, "v", 24000], "internal_node_id": "0.0-107.0-0.0", "key_presses": [80, 67, 73, 8, 8, 73, 67, 84, 85, 82, 69, 13, 80, 79, 83, 83, 85, 73, 8, 77, 13, 68, 73, 78, 69, 82, 13, 83, 80, 79, 79, 76, 13, 87, 65, 73, 84, 69, 82, 13, 80, 65, 82, 69, 78, 84, 13, 68, 65, 85, 71, 72, 84, 69, 82, 13, 72, 85, 83, 66, 65, 78, 68, 13, 71, 79, 66, 76, 73, 78, 32, 68, 85, 83, 84, 13], "trial": 3, "time_elapsed": 712587, "type": "FREE_RECALL", "trial_index": 143}, "uniqueid": "MTK1967:3YMU66OBIOFC282TL8VSNF62ZWJGHV", "dateTime": 1516640337524}, {"current_trial": 144, "trialdata": {"rt": 67485, "trial_type": "text", "internal_node_id": "0.0-108.0", "time_elapsed": 782080, "key_press": 32, "type": "INSTRUCTIONS", "trial_index": 144}, "uniqueid": "MTK1967:3YMU66OBIOFC282TL8VSNF62ZWJGHV", "dateTime": 1516640407010}, {"current_trial": 145, "trialdata": {"rt": [3876, 6628, 8932, 10996, 13867, 15563, 18883, 23164], "trial_type": "math-distractor", "key_times": [3316, 3572, 3876, 6068, 6172, 6628, 8549, 8932, 10636, 10716, 10996, 13404, 13748, 13867, 15460, 15563, 18475, 18692, 18883, 22588, 22796, 23164], "responses": ["14", "17", "9", "12", "15", "4", "16", "18"], "num2": [7, 6, 2, 3, 3, 2, 2, 7, 3], "num3": [3, 7, 6, 8, 6, 1, 5, 2, 3], "conditions": [12, 800, "v", 24000], "internal_node_id": "0.0-109.0", "key_presses": [49, 52, 13, 49, 55, 13, 57, 13, 49, 50, 13, 49, 53, 13, 52, 13, 49, 54, 13, 49, 56, 13], "trial": 4, "time_elapsed": 808084, "type": "DISTRACTOR", "trial_index": 145, "num1": [4, 4, 1, 1, 6, 1, 9, 9, 1]}, "uniqueid": "MTK1967:3YMU66OBIOFC282TL8VSNF62ZWJGHV", "dateTime": 1516640433015}, {"current_trial": 146, "trialdata": {"rt": -1, "trial_type": "single-stim", "stimulus": "<p id=\"stim\">10</p>", "internal_node_id": "0.0-110.0-0.0", "time_elapsed": 811086, "key_press": -1, "trial_index": 146}, "uniqueid": "MTK1967:3YMU66OBIOFC282TL8VSNF62ZWJGHV", "dateTime": 1516640436016}, {"current_trial": 147, "trialdata": {"rt": -1, "trial_type": "single-stim", "stimulus": "<p id=\"stim\">9</p>", "internal_node_id": "0.0-110.0-1.0", "time_elapsed": 812087, "key_press": -1, "trial_index": 147}, "uniqueid": "MTK1967:3YMU66OBIOFC282TL8VSNF62ZWJGHV", "dateTime": 1516640437017}, {"current_trial": 148, "trialdata": {"rt": -1, "trial_type": "single-stim", "stimulus": "<p id=\"stim\">8</p>", "internal_node_id": "0.0-110.0-2.0", "time_elapsed": 813088, "key_press": -1, "trial_index": 148}, "uniqueid": "MTK1967:3YMU66OBIOFC282TL8VSNF62ZWJGHV", "dateTime": 1516640438018}, {"current_trial": 149, "trialdata": {"rt": -1, "trial_type": "single-stim", "stimulus": "<p id=\"stim\">7</p>", "internal_node_id": "0.0-110.0-3.0", "time_elapsed": 814089, "key_press": -1, "trial_index": 149}, "uniqueid": "MTK1967:3YMU66OBIOFC282TL8VSNF62ZWJGHV", "dateTime": 1516640439019}, {"current_trial": 150, "trialdata": {"rt": -1, "trial_type": "single-stim", "stimulus": "<p id=\"stim\">6</p>", "internal_node_id": "0.0-110.0-4.0", "time_elapsed": 815091, "key_press": -1, "trial_index": 150}, "uniqueid": "MTK1967:3YMU66OBIOFC282TL8VSNF62ZWJGHV", "dateTime": 1516640440021}, {"current_trial": 151, "trialdata": {"rt": -1, "trial_type": "single-stim", "stimulus": "<p id=\"stim\">5</p>", "internal_node_id": "0.0-110.0-5.0", "time_elapsed": 816092, "key_press": -1, "trial_index": 151}, "uniqueid": "MTK1967:3YMU66OBIOFC282TL8VSNF62ZWJGHV", "dateTime": 1516640441022}, {"current_trial": 152, "trialdata": {"rt": -1, "trial_type": "single-stim", "stimulus": "<p id=\"stim\">4</p>", "internal_node_id": "0.0-110.0-6.0", "time_elapsed": 817093, "key_press": -1, "trial_index": 152}, "uniqueid": "MTK1967:3YMU66OBIOFC282TL8VSNF62ZWJGHV", "dateTime": 1516640442023}, {"current_trial": 153, "trialdata": {"rt": -1, "trial_type": "single-stim", "stimulus": "<p id=\"stim\">3</p>", "internal_node_id": "0.0-110.0-7.0", "time_elapsed": 818094, "key_press": -1, "trial_index": 153}, "uniqueid": "MTK1967:3YMU66OBIOFC282TL8VSNF62ZWJGHV", "dateTime": 1516640443024}, {"current_trial": 154, "trialdata": {"rt": -1, "trial_type": "single-stim", "stimulus": "<p id=\"stim\">2</p>", "internal_node_id": "0.0-110.0-8.0", "time_elapsed": 819095, "key_press": -1, "trial_index": 154}, "uniqueid": "MTK1967:3YMU66OBIOFC282TL8VSNF62ZWJGHV", "dateTime": 1516640444025}, {"current_trial": 155, "trialdata": {"rt": -1, "trial_type": "single-stim", "stimulus": "<p id=\"stim\">1</p>", "internal_node_id": "0.0-110.0-9.0", "time_elapsed": 820096, "key_press": -1, "trial_index": 155}, "uniqueid": "MTK1967:3YMU66OBIOFC282TL8VSNF62ZWJGHV", "dateTime": 1516640445026}, {"current_trial": 156, "trialdata": {"rt": -1, "trial_type": "single-stim", "stimulus": "<p id=\"stim\">+</p>", "internal_node_id": "0.0-111.0-0.0", "time_elapsed": 821597, "key_press": -1, "type": "FIXATION", "trial_index": 156}, "uniqueid": "MTK1967:3YMU66OBIOFC282TL8VSNF62ZWJGHV", "dateTime": 1516640446527}, {"current_trial": 157, "trialdata": {"rt": -1, "trial_type": "single-stim", "word": "kleenex", "stimulus": "<p id=\"stim\">KLEENEX</p>", "conditions": [12, 800, "v", 24000], "internal_node_id": "0.0-112.0", "trial": 4, "time_elapsed": 822398, "serialpos": 0, "key_press": -1, "wordID": 781, "type": "PRES_VIS", "trial_index": 157}, "uniqueid": "MTK1967:3YMU66OBIOFC282TL8VSNF62ZWJGHV", "dateTime": 1516640447328}, {"current_trial": 158, "trialdata": {"rt": -1, "trial_type": "single-stim", "word": "actress", "stimulus": "<p id=\"stim\">ACTRESS</p>", "conditions": [12, 800, "v", 24000], "internal_node_id": "0.0-113.0", "trial": 4, "time_elapsed": 824244, "serialpos": 1, "key_press": -1, "wordID": 5, "type": "PRES_VIS", "trial_index": 158}, "uniqueid": "MTK1967:3YMU66OBIOFC282TL8VSNF62ZWJGHV", "dateTime": 1516640449174}, {"current_trial": 159, "trialdata": {"rt": -1, "trial_type": "single-stim", "word": "supper", "stimulus": "<p id=\"stim\">SUPPER</p>", "conditions": [12, 800, "v", 24000], "internal_node_id": "0.0-114.0", "trial": 4, "time_elapsed": 826143, "serialpos": 2, "key_press": -1, "wordID": 1410, "type": "PRES_VIS", "trial_index": 159}, "uniqueid": "MTK1967:3YMU66OBIOFC282TL8VSNF62ZWJGHV", "dateTime": 1516640451073}, {"current_trial": 160, "trialdata": {"rt": -1, "trial_type": "single-stim", "word": "banquet", "stimulus": "<p id=\"stim\">BANQUET</p>", "conditions": [12, 800, "v", 24000], "internal_node_id": "0.0-115.0", "trial": 4, "time_elapsed": 828115, "serialpos": 3, "key_press": -1, "wordID": 85, "type": "PRES_VIS", "trial_index": 160}, "uniqueid": "MTK1967:3YMU66OBIOFC282TL8VSNF62ZWJGHV", "dateTime": 1516640453045}, {"current_trial": 161, "trialdata": {"rt": -1, "trial_type": "single-stim", "word": "shortcake", "stimulus": "<p id=\"stim\">SHORTCAKE</p>", "conditions": [12, 800, "v", 24000], "internal_node_id": "0.0-116.0", "trial": 4, "time_elapsed": 829861, "serialpos": 4, "key_press": -1, "wordID": 1291, "type": "PRES_VIS", "trial_index": 161}, "uniqueid": "MTK1967:3YMU66OBIOFC282TL8VSNF62ZWJGHV", "dateTime": 1516640454791}, {"current_trial": 162, "trialdata": {"rt": -1, "trial_type": "single-stim", "word": "stomach", "stimulus": "<p id=\"stim\">STOMACH</p>", "conditions": [12, 800, "v", 24000], "internal_node_id": "0.0-117.0", "trial": 4, "time_elapsed": 831620, "serialpos": 5, "key_press": -1, "wordID": 1383, "type": "PRES_VIS", "trial_index": 162}, "uniqueid": "MTK1967:3YMU66OBIOFC282TL8VSNF62ZWJGHV", "dateTime": 1516640456550}, {"current_trial": 163, "trialdata": {"rt": -1, "trial_type": "single-stim", "word": "bike", "stimulus": "<p id=\"stim\">BIKE</p>", "conditions": [12, 800, "v", 24000], "internal_node_id": "0.0-118.0", "trial": 4, "time_elapsed": 833408, "serialpos": 6, "key_press": -1, "wordID": 124, "type": "PRES_VIS", "trial_index": 163}, "uniqueid": "MTK1967:3YMU66OBIOFC282TL8VSNF62ZWJGHV", "dateTime": 1516640458338}, {"current_trial": 164, "trialdata": {"rt": -1, "trial_type": "single-stim", "word": "igloo", "stimulus": "<p id=\"stim\">IGLOO</p>", "conditions": [12, 800, "v", 24000], "internal_node_id": "0.0-119.0", "trial": 4, "time_elapsed": 835320, "serialpos": 7, "key_press": -1, "wordID": 733, "type": "PRES_VIS", "trial_index": 164}, "uniqueid": "MTK1967:3YMU66OBIOFC282TL8VSNF62ZWJGHV", "dateTime": 1516640460250}, {"current_trial": 165, "trialdata": {"rt": -1, "trial_type": "single-stim", "word": "cousin", "stimulus": "<p id=\"stim\">COUSIN</p>", "conditions": [12, 800, "v", 24000], "internal_node_id": "0.0-120.0", "trial": 4, "time_elapsed": 837268, "serialpos": 8, "key_press": -1, "wordID": 391, "type": "PRES_VIS", "trial_index": 165}, "uniqueid": "MTK1967:3YMU66OBIOFC282TL8VSNF62ZWJGHV", "dateTime": 1516640462200}, {"current_trial": 166, "trialdata": {"rt": -1, "trial_type": "single-stim", "word": "servant", "stimulus": "<p id=\"stim\">SERVANT</p>", "conditions": [12, 800, "v", 24000], "internal_node_id": "0.0-121.0", "trial": 4, "time_elapsed": 838939, "serialpos": 9, "key_press": -1, "wordID": 1270, "type": "PRES_VIS", "trial_index": 166}, "uniqueid": "MTK1967:3YMU66OBIOFC282TL8VSNF62ZWJGHV", "dateTime": 1516640463869}, {"current_trial": 167, "trialdata": {"rt": -1, "trial_type": "single-stim", "word": "chest", "stimulus": "<p id=\"stim\">CHEST</p>", "conditions": [12, 800, "v", 24000], "internal_node_id": "0.0-122.0", "trial": 4, "time_elapsed": 840754, "serialpos": 10, "key_press": -1, "wordID": 294, "type": "PRES_VIS", "trial_index": 167}, "uniqueid": "MTK1967:3YMU66OBIOFC282TL8VSNF62ZWJGHV", "dateTime": 1516640465684}, {"current_trial": 168, "trialdata": {"rt": -1, "trial_type": "single-stim", "word": "cashier", "stimulus": "<p id=\"stim\">CASHIER</p>", "conditions": [12, 800, "v", 24000], "internal_node_id": "0.0-123.0", "trial": 4, "time_elapsed": 842672, "serialpos": 11, "key_press": -1, "wordID": 253, "type": "PRES_VIS", "trial_index": 168}, "uniqueid": "MTK1967:3YMU66OBIOFC282TL8VSNF62ZWJGHV", "dateTime": 1516640467602}, {"current_trial": 169, "trialdata": {"rt": -1, "trial_type": "single-stim", "stimulus": "", "internal_node_id": "0.0-124.0-0.0", "time_elapsed": 845041, "key_press": -1, "type": "PRE_RECALL_DELAY", "trial_index": 169}, "uniqueid": "MTK1967:3YMU66OBIOFC282TL8VSNF62ZWJGHV", "dateTime": 1516640469971}, {"current_trial": 170, "trialdata": {"rt": -1000, "trial_type": "single-audio", "stimulus": "/static/audio/400Hz.wav", "internal_node_id": "0.0-125.0", "time_elapsed": 845543, "key_press": -1, "type": "PRE_RECALL_ALERT", "trial_index": 170}, "uniqueid": "MTK1967:3YMU66OBIOFC282TL8VSNF62ZWJGHV", "dateTime": 1516640470473}, {"current_trial": 171, "trialdata": {"rt": [3533, 4661, 5972, 7300, 8900, 12117, 17845, 29797], "recwords": ["cashier", "cousin", "servant", "chest", "igloo", "kleenex", "supper", "servant"], "key_times": [1166, 1669, 1741, 1885, 1997, 2109, 2245, 2525, 2693, 2845, 2885, 2989, 3061, 3205, 3261, 3533, 3685, 3837, 3941, 4077, 4253, 4437, 4661, 4908, 5004, 5060, 5292, 5380, 5484, 5596, 5972, 6156, 6380, 6468, 7036, 7108, 7300, 7588, 7972, 8116, 8356, 8524, 8900, 9252, 9508, 9684, 10396, 10516, 11060, 11277, 12117, 17173, 17237, 17413, 17581, 17629, 17701, 17845, 27989, 28092, 28164, 28404, 28524, 28643, 29173, 29797], "trial_type": "free-recall", "conditions": [12, 800, "v", 24000], "internal_node_id": "0.0-126.0-0.0", "key_presses": [86, 8, 67, 65, 72, 83, 73, 8, 8, 8, 83, 72, 73, 69, 82, 13, 67, 79, 85, 83, 73, 78, 13, 83, 69, 82, 86, 65, 78, 84, 13, 67, 72, 69, 83, 84, 13, 73, 71, 76, 79, 79, 13, 75, 76, 69, 69, 78, 69, 88, 13, 83, 85, 80, 80, 69, 82, 13, 83, 69, 82, 86, 65, 78, 84, 13], "trial": 4, "time_elapsed": 905547, "type": "FREE_RECALL", "trial_index": 171}, "uniqueid": "MTK1967:3YMU66OBIOFC282TL8VSNF62ZWJGHV", "dateTime": 1516640530485}, {"current_trial": 172, "trialdata": {"rt": 1668, "trial_type": "text", "internal_node_id": "0.0-127.0", "time_elapsed": 909224, "key_press": 32, "type": "INSTRUCTIONS", "trial_index": 172}, "uniqueid": "MTK1967:3YMU66OBIOFC282TL8VSNF62ZWJGHV", "dateTime": 1516640534154}, {"current_trial": 173, "trialdata": {"rt": [5973, 11020, 13412, 17133, 19605, 22237], "trial_type": "math-distractor", "key_times": [5517, 5709, 5973, 10389, 10772, 11020, 12956, 13140, 13412, 16373, 16701, 17133, 18773, 19261, 19605, 21678, 21949, 22237], "responses": ["11", "15", "13", "15", "17", "13"], "num2": [1, 2, 1, 4, 3, 4, 6], "num3": [7, 4, 5, 5, 7, 1, 5], "conditions": [24, 800, "v", 24000], "internal_node_id": "0.0-128.0", "key_presses": [49, 49, 13, 49, 53, 13, 49, 51, 13, 49, 53, 13, 49, 55, 13, 49, 51, 13], "trial": 5, "time_elapsed": 935226, "type": "DISTRACTOR", "trial_index": 173, "num1": [3, 9, 7, 6, 9, 8, 8]}, "uniqueid": "MTK1967:3YMU66OBIOFC282TL8VSNF62ZWJGHV", "dateTime": 1516640560157}, {"current_trial": 174, "trialdata": {"rt": -1, "trial_type": "single-stim", "stimulus": "<p id=\"stim\">10</p>", "internal_node_id": "0.0-129.0-0.0", "time_elapsed": 938228, "key_press": -1, "trial_index": 174}, "uniqueid": "MTK1967:3YMU66OBIOFC282TL8VSNF62ZWJGHV", "dateTime": 1516640563158}, {"current_trial": 175, "trialdata": {"rt": -1, "trial_type": "single-stim", "stimulus": "<p id=\"stim\">9</p>", "internal_node_id": "0.0-129.0-1.0", "time_elapsed": 939229, "key_press": -1, "trial_index": 175}, "uniqueid": "MTK1967:3YMU66OBIOFC282TL8VSNF62ZWJGHV", "dateTime": 1516640564159}, {"current_trial": 176, "trialdata": {"rt": -1, "trial_type": "single-stim", "stimulus": "<p id=\"stim\">8</p>", "internal_node_id": "0.0-129.0-2.0", "time_elapsed": 940230, "key_press": -1, "trial_index": 176}, "uniqueid": "MTK1967:3YMU66OBIOFC282TL8VSNF62ZWJGHV", "dateTime": 1516640565160}, {"current_trial": 177, "trialdata": {"rt": -1, "trial_type": "single-stim", "stimulus": "<p id=\"stim\">7</p>", "internal_node_id": "0.0-129.0-3.0", "time_elapsed": 941231, "key_press": -1, "trial_index": 177}, "uniqueid": "MTK1967:3YMU66OBIOFC282TL8VSNF62ZWJGHV", "dateTime": 1516640566161}, {"current_trial": 178, "trialdata": {"rt": -1, "trial_type": "single-stim", "stimulus": "<p id=\"stim\">6</p>", "internal_node_id": "0.0-129.0-4.0", "time_elapsed": 942232, "key_press": -1, "trial_index": 178}, "uniqueid": "MTK1967:3YMU66OBIOFC282TL8VSNF62ZWJGHV", "dateTime": 1516640567162}, {"current_trial": 179, "trialdata": {"rt": -1, "trial_type": "single-stim", "stimulus": "<p id=\"stim\">5</p>", "internal_node_id": "0.0-129.0-5.0", "time_elapsed": 943233, "key_press": -1, "trial_index": 179}, "uniqueid": "MTK1967:3YMU66OBIOFC282TL8VSNF62ZWJGHV", "dateTime": 1516640568163}, {"current_trial": 180, "trialdata": {"rt": -1, "trial_type": "single-stim", "stimulus": "<p id=\"stim\">4</p>", "internal_node_id": "0.0-129.0-6.0", "time_elapsed": 944234, "key_press": -1, "trial_index": 180}, "uniqueid": "MTK1967:3YMU66OBIOFC282TL8VSNF62ZWJGHV", "dateTime": 1516640569164}, {"current_trial": 181, "trialdata": {"rt": -1, "trial_type": "single-stim", "stimulus": "<p id=\"stim\">3</p>", "internal_node_id": "0.0-129.0-7.0", "time_elapsed": 945235, "key_press": -1, "trial_index": 181}, "uniqueid": "MTK1967:3YMU66OBIOFC282TL8VSNF62ZWJGHV", "dateTime": 1516640570165}, {"current_trial": 182, "trialdata": {"rt": -1, "trial_type": "single-stim", "stimulus": "<p id=\"stim\">2</p>", "internal_node_id": "0.0-129.0-8.0", "time_elapsed": 946236, "key_press": -1, "trial_index": 182}, "uniqueid": "MTK1967:3YMU66OBIOFC282TL8VSNF62ZWJGHV", "dateTime": 1516640571166}, {"current_trial": 183, "trialdata": {"rt": -1, "trial_type": "single-stim", "stimulus": "<p id=\"stim\">1</p>", "internal_node_id": "0.0-129.0-9.0", "time_elapsed": 947238, "key_press": -1, "trial_index": 183}, "uniqueid": "MTK1967:3YMU66OBIOFC282TL8VSNF62ZWJGHV", "dateTime": 1516640572168}, {"current_trial": 184, "trialdata": {"rt": -1, "trial_type": "single-stim", "stimulus": "<p id=\"stim\">+</p>", "internal_node_id": "0.0-130.0-0.0", "time_elapsed": 948739, "key_press": -1, "type": "FIXATION", "trial_index": 184}, "uniqueid": "MTK1967:3YMU66OBIOFC282TL8VSNF62ZWJGHV", "dateTime": 1516640573669}, {"current_trial": 185, "trialdata": {"rt": -1, "trial_type": "single-stim", "word": "viking", "stimulus": "<p id=\"stim\">VIKING</p>", "conditions": [24, 800, "v", 24000], "internal_node_id": "0.0-131.0", "trial": 5, "time_elapsed": 949540, "serialpos": 0, "key_press": -1, "wordID": 1564, "type": "PRES_VIS", "trial_index": 185}, "uniqueid": "MTK1967:3YMU66OBIOFC282TL8VSNF62ZWJGHV", "dateTime": 1516640574470}, {"current_trial": 186, "trialdata": {"rt": -1, "trial_type": "single-stim", "word": "tile", "stimulus": "<p id=\"stim\">TILE</p>", "conditions": [24, 800, "v", 24000], "internal_node_id": "0.0-132.0", "trial": 5, "time_elapsed": 951540, "serialpos": 1, "key_press": -1, "wordID": 1467, "type": "PRES_VIS", "trial_index": 186}, "uniqueid": "MTK1967:3YMU66OBIOFC282TL8VSNF62ZWJGHV", "dateTime": 1516640576470}, {"current_trial": 187, "trialdata": {"rt": -1, "trial_type": "single-stim", "word": "brick", "stimulus": "<p id=\"stim\">BRICK</p>", "conditions": [24, 800, "v", 24000], "internal_node_id": "0.0-133.0", "trial": 5, "time_elapsed": 953443, "serialpos": 2, "key_press": -1, "wordID": 171, "type": "PRES_VIS", "trial_index": 187}, "uniqueid": "MTK1967:3YMU66OBIOFC282TL8VSNF62ZWJGHV", "dateTime": 1516640578373}, {"current_trial": 188, "trialdata": {"rt": -1, "trial_type": "single-stim", "word": "antler", "stimulus": "<p id=\"stim\">ANTLER</p>", "conditions": [24, 800, "v", 24000], "internal_node_id": "0.0-134.0", "trial": 5, "time_elapsed": 955441, "serialpos": 3, "key_press": -1, "wordID": 28, "type": "PRES_VIS", "trial_index": 188}, "uniqueid": "MTK1967:3YMU66OBIOFC282TL8VSNF62ZWJGHV", "dateTime": 1516640580371}, {"current_trial": 189, "trialdata": {"rt": -1, "trial_type": "single-stim", "word": "parsley", "stimulus": "<p id=\"stim\">PARSLEY</p>", "conditions": [24, 800, "v", 24000], "internal_node_id": "0.0-135.0", "trial": 5, "time_elapsed": 957384, "serialpos": 4, "key_press": -1, "wordID": 1015, "type": "PRES_VIS", "trial_index": 189}, "uniqueid": "MTK1967:3YMU66OBIOFC282TL8VSNF62ZWJGHV", "dateTime": 1516640582314}, {"current_trial": 190, "trialdata": {"rt": -1, "trial_type": "single-stim", "word": "lagoon", "stimulus": "<p id=\"stim\">LAGOON</p>", "conditions": [24, 800, "v", 24000], "internal_node_id": "0.0-136.0", "trial": 5, "time_elapsed": 959112, "serialpos": 5, "key_press": -1, "wordID": 794, "type": "PRES_VIS", "trial_index": 190}, "uniqueid": "MTK1967:3YMU66OBIOFC282TL8VSNF62ZWJGHV", "dateTime": 1516640584042}, {"current_trial": 191, "trialdata": {"rt": -1, "trial_type": "single-stim", "word": "pocket", "stimulus": "<p id=\"stim\">POCKET</p>", "conditions": [24, 800, "v", 24000], "internal_node_id": "0.0-137.0", "trial": 5, "time_elapsed": 960916, "serialpos": 6, "key_press": -1, "wordID": 1092, "type": "PRES_VIS", "trial_index": 191}, "uniqueid": "MTK1967:3YMU66OBIOFC282TL8VSNF62ZWJGHV", "dateTime": 1516640585846}, {"current_trial": 192, "trialdata": {"rt": -1, "trial_type": "single-stim", "word": "glass", "stimulus": "<p id=\"stim\">GLASS</p>", "conditions": [24, 800, "v", 24000], "internal_node_id": "0.0-138.0", "trial": 5, "time_elapsed": 962579, "serialpos": 7, "key_press": -1, "wordID": 638, "type": "PRES_VIS", "trial_index": 192}, "uniqueid": "MTK1967:3YMU66OBIOFC282TL8VSNF62ZWJGHV", "dateTime": 1516640587509}, {"current_trial": 193, "trialdata": {"rt": -1, "trial_type": "single-stim", "word": "marsh", "stimulus": "<p id=\"stim\">MARSH</p>", "conditions": [24, 800, "v", 24000], "internal_node_id": "0.0-139.0", "trial": 5, "time_elapsed": 964260, "serialpos": 8, "key_press": -1, "wordID": 873, "type": "PRES_VIS", "trial_index": 193}, "uniqueid": "MTK1967:3YMU66OBIOFC282TL8VSNF62ZWJGHV", "dateTime": 1516640589190}, {"current_trial": 194, "trialdata": {"rt": -1, "trial_type": "single-stim", "word": "crater", "stimulus": "<p id=\"stim\">CRATER</p>", "conditions": [24, 800, "v", 24000], "internal_node_id": "0.0-140.0", "trial": 5, "time_elapsed": 965932, "serialpos": 9, "key_press": -1, "wordID": 399, "type": "PRES_VIS", "trial_index": 194}, "uniqueid": "MTK1967:3YMU66OBIOFC282TL8VSNF62ZWJGHV", "dateTime": 1516640590862}, {"current_trial": 195, "trialdata": {"rt": -1, "trial_type": "single-stim", "word": "cloud", "stimulus": "<p id=\"stim\">CLOUD</p>", "conditions": [24, 800, "v", 24000], "internal_node_id": "0.0-141.0", "trial": 5, "time_elapsed": 967781, "serialpos": 10, "key_press": -1, "wordID": 327, "type": "PRES_VIS", "trial_index": 195}, "uniqueid": "MTK1967:3YMU66OBIOFC282TL8VSNF62ZWJGHV", "dateTime": 1516640592711}, {"current_trial": 196, "trialdata": {"rt": -1, "trial_type": "single-stim", "word": "county", "stimulus": "<p id=\"stim\">COUNTY</p>", "conditions": [24, 800, "v", 24000], "internal_node_id": "0.0-142.0", "trial": 5, "time_elapsed": 969466, "serialpos": 11, "key_press": -1, "wordID": 388, "type": "PRES_VIS", "trial_index": 196}, "uniqueid": "MTK1967:3YMU66OBIOFC282TL8VSNF62ZWJGHV", "dateTime": 1516640594396}, {"current_trial": 197, "trialdata": {"rt": -1, "trial_type": "single-stim", "word": "elbow", "stimulus": "<p id=\"stim\">ELBOW</p>", "conditions": [24, 800, "v", 24000], "internal_node_id": "0.0-143.0", "trial": 5, "time_elapsed": 971434, "serialpos": 12, "key_press": -1, "wordID": 519, "type": "PRES_VIS", "trial_index": 197}, "uniqueid": "MTK1967:3YMU66OBIOFC282TL8VSNF62ZWJGHV", "dateTime": 1516640596364}, {"current_trial": 198, "trialdata": {"rt": -1, "trial_type": "single-stim", "word": "vagrant", "stimulus": "<p id=\"stim\">VAGRANT</p>", "conditions": [24, 800, "v", 24000], "internal_node_id": "0.0-144.0", "trial": 5, "time_elapsed": 973087, "serialpos": 13, "key_press": -1, "wordID": 1543, "type": "PRES_VIS", "trial_index": 198}, "uniqueid": "MTK1967:3YMU66OBIOFC282TL8VSNF62ZWJGHV", "dateTime": 1516640598017}, {"current_trial": 199, "trialdata": {"rt": -1, "trial_type": "single-stim", "word": "hiker", "stimulus": "<p id=\"stim\">HIKER</p>", "conditions": [24, 800, "v", 24000], "internal_node_id": "0.0-145.0", "trial": 5, "time_elapsed": 974791, "serialpos": 14, "key_press": -1, "wordID": 707, "type": "PRES_VIS", "trial_index": 199}, "uniqueid": "MTK1967:3YMU66OBIOFC282TL8VSNF62ZWJGHV", "dateTime": 1516640599721}, {"current_trial": 200, "trialdata": {"rt": -1, "trial_type": "single-stim", "word": "sunrise", "stimulus": "<p id=\"stim\">SUNRISE</p>", "conditions": [24, 800, "v", 24000], "internal_node_id": "0.0-146.0", "trial": 5, "time_elapsed": 976602, "serialpos": 15, "key_press": -1, "wordID": 1406, "type": "PRES_VIS", "trial_index": 200}, "uniqueid": "MTK1967:3YMU66OBIOFC282TL8VSNF62ZWJGHV", "dateTime": 1516640601532}, {"current_trial": 201, "trialdata": {"rt": -1, "trial_type": "single-stim", "word": "crab", "stimulus": "<p id=\"stim\">CRAB</p>", "conditions": [24, 800, "v", 24000], "internal_node_id": "0.0-147.0", "trial": 5, "time_elapsed": 978410, "serialpos": 16, "key_press": -1, "wordID": 396, "type": "PRES_VIS", "trial_index": 201}, "uniqueid": "MTK1967:3YMU66OBIOFC282TL8VSNF62ZWJGHV", "dateTime": 1516640603340}, {"current_trial": 202, "trialdata": {"rt": -1, "trial_type": "single-stim", "word": "lizard", "stimulus": "<p id=\"stim\">LIZARD</p>", "conditions": [24, 800, "v", 24000], "internal_node_id": "0.0-148.0", "trial": 5, "time_elapsed": 980296, "serialpos": 17, "key_press": -1, "wordID": 833, "type": "PRES_VIS", "trial_index": 202}, "uniqueid": "MTK1967:3YMU66OBIOFC282TL8VSNF62ZWJGHV", "dateTime": 1516640605226}, {"current_trial": 203, "trialdata": {"rt": -1, "trial_type": "single-stim", "word": "tortoise", "stimulus": "<p id=\"stim\">TORTOISE</p>", "conditions": [24, 800, "v", 24000], "internal_node_id": "0.0-149.0", "trial": 5, "time_elapsed": 982280, "serialpos": 18, "key_press": -1, "wordID": 1485, "type": "PRES_VIS", "trial_index": 203}, "uniqueid": "MTK1967:3YMU66OBIOFC282TL8VSNF62ZWJGHV", "dateTime": 1516640607210}, {"current_trial": 204, "trialdata": {"rt": -1, "trial_type": "single-stim", "word": "robot", "stimulus": "<p id=\"stim\">ROBOT</p>", "conditions": [24, 800, "v", 24000], "internal_node_id": "0.0-150.0", "trial": 5, "time_elapsed": 984210, "serialpos": 19, "key_press": -1, "wordID": 1199, "type": "PRES_VIS", "trial_index": 204}, "uniqueid": "MTK1967:3YMU66OBIOFC282TL8VSNF62ZWJGHV", "dateTime": 1516640609140}, {"current_trial": 205, "trialdata": {"rt": -1, "trial_type": "single-stim", "word": "lake", "stimulus": "<p id=\"stim\">LAKE</p>", "conditions": [24, 800, "v", 24000], "internal_node_id": "0.0-151.0", "trial": 5, "time_elapsed": 986200, "serialpos": 20, "key_press": -1, "wordID": 795, "type": "PRES_VIS", "trial_index": 205}, "uniqueid": "MTK1967:3YMU66OBIOFC282TL8VSNF62ZWJGHV", "dateTime": 1516640611130}, {"current_trial": 206, "trialdata": {"rt": -1, "trial_type": "single-stim", "word": "brandy", "stimulus": "<p id=\"stim\">BRANDY</p>", "conditions": [24, 800, "v", 24000], "internal_node_id": "0.0-152.0", "trial": 5, "time_elapsed": 987991, "serialpos": 21, "key_press": -1, "wordID": 168, "type": "PRES_VIS", "trial_index": 206}, "uniqueid": "MTK1967:3YMU66OBIOFC282TL8VSNF62ZWJGHV", "dateTime": 1516640612921}, {"current_trial": 207, "trialdata": {"rt": -1, "trial_type": "single-stim", "word": "flipper", "stimulus": "<p id=\"stim\">FLIPPER</p>", "conditions": [24, 800, "v", 24000], "internal_node_id": "0.0-153.0", "trial": 5, "time_elapsed": 989854, "serialpos": 22, "key_press": -1, "wordID": 579, "type": "PRES_VIS", "trial_index": 207}, "uniqueid": "MTK1967:3YMU66OBIOFC282TL8VSNF62ZWJGHV", "dateTime": 1516640614784}, {"current_trial": 208, "trialdata": {"rt": -1, "trial_type": "single-stim", "word": "sunset", "stimulus": "<p id=\"stim\">SUNSET</p>", "conditions": [24, 800, "v", 24000], "internal_node_id": "0.0-154.0", "trial": 5, "time_elapsed": 991688, "serialpos": 23, "key_press": -1, "wordID": 1407, "type": "PRES_VIS", "trial_index": 208}, "uniqueid": "MTK1967:3YMU66OBIOFC282TL8VSNF62ZWJGHV", "dateTime": 1516640616618}, {"current_trial": 209, "trialdata": {"rt": -1, "trial_type": "single-stim", "stimulus": "", "internal_node_id": "0.0-155.0-0.0", "time_elapsed": 993727, "key_press": -1, "type": "PRE_RECALL_DELAY", "trial_index": 209}, "uniqueid": "MTK1967:3YMU66OBIOFC282TL8VSNF62ZWJGHV", "dateTime": 1516640618657}, {"current_trial": 210, "trialdata": {"rt": -1000, "trial_type": "single-audio", "stimulus": "/static/audio/400Hz.wav", "internal_node_id": "0.0-156.0", "time_elapsed": 994228, "key_press": -1, "type": "PRE_RECALL_ALERT", "trial_index": 210}, "uniqueid": "MTK1967:3YMU66OBIOFC282TL8VSNF62ZWJGHV", "dateTime": 1516640619158}, {"current_trial": 211, "trialdata": {"rt": [1791, 3376, 5072, 5992, 7480, 10160, 11952, 13656, 17095, 18447, 26632, 28336], "recwords": ["sunset", "vagrant", "viking", "cloud", "lizard", "tortiose", "flipper", "sunset", "lagoon", "marsh", "robot", "crab"], "key_times": [831, 1215, 1399, 1487, 1591, 1679, 1791, 2399, 2536, 2760, 2952, 3008, 3096, 3200, 3376, 3688, 3760, 3960, 3968, 4112, 4368, 4544, 4608, 4792, 4864, 5072, 5320, 5392, 5592, 5672, 5752, 5992, 6200, 6400, 6440, 6656, 6736, 6936, 7480, 7840, 7944, 8104, 8392, 8592, 8672, 8864, 9016, 9096, 9512, 9688, 9872, 9960, 10024, 10160, 10665, 10808, 10912, 11384, 11552, 11600, 11656, 11952, 12096, 12248, 12432, 12520, 12592, 12688, 13656, 15167, 15279, 15495, 15799, 15975, 16191, 17095, 17359, 17447, 17527, 17911, 18055, 18447, 24921, 25120, 25632, 25792, 25888, 25992, 26128, 26632, 26928, 26936, 27272, 27448, 27512, 27720, 27792, 28032, 28336], "trial_type": "free-recall", "conditions": [24, 800, "v", 24000], "internal_node_id": "0.0-157.0-0.0", "key_presses": [83, 85, 78, 83, 69, 84, 32, 86, 65, 71, 82, 65, 78, 84, 13, 86, 73, 75, 76, 73, 8, 8, 73, 78, 71, 13, 67, 76, 79, 85, 68, 13, 76, 73, 90, 65, 82, 68, 13, 84, 79, 82, 84, 73, 79, 85, 83, 69, 8, 8, 8, 83, 69, 13, 70, 76, 73, 80, 80, 69, 82, 13, 83, 85, 78, 83, 69, 84, 13, 76, 65, 71, 79, 79, 78, 13, 77, 65, 82, 83, 72, 13, 82, 73, 8, 79, 66, 79, 84, 13, 88, 67, 8, 8, 67, 82, 65, 66, 13], "trial": 5, "time_elapsed": 1054232, "type": "FREE_RECALL", "trial_index": 211}, "uniqueid": "MTK1967:3YMU66OBIOFC282TL8VSNF62ZWJGHV", "dateTime": 1516640679171}, {"current_trial": 212, "trialdata": {"rt": 100383, "trial_type": "text", "internal_node_id": "0.0-158.0", "time_elapsed": 1156625, "key_press": 32, "type": "INSTRUCTIONS", "trial_index": 212}, "uniqueid": "MTK1967:3YMU66OBIOFC282TL8VSNF62ZWJGHV", "dateTime": 1516640781555}, {"current_trial": 213, "trialdata": {"rt": [3628, 6723, 10643, 12835, 16660, 20028], "trial_type": "math-distractor", "key_times": [3108, 3292, 3628, 5836, 6372, 6723, 10404, 10563, 10643, 12347, 12635, 12835, 16220, 16260, 16660, 19524, 19644, 20028], "responses": ["20", "24", "22", "12", "18", "18"], "num2": [8, 8, 7, 1, 4, 9, 2], "num3": [8, 8, 8, 6, 7, 4, 4], "conditions": [12, 1600, "v", 24000], "internal_node_id": "0.0-159.0", "key_presses": [50, 48, 13, 50, 52, 13, 50, 50, 13, 49, 50, 13, 49, 56, 13, 49, 56, 13], "trial": 6, "time_elapsed": 1182628, "type": "DISTRACTOR", "trial_index": 213, "num1": [6, 8, 7, 5, 3, 5, 7]}, "uniqueid": "MTK1967:3YMU66OBIOFC282TL8VSNF62ZWJGHV", "dateTime": 1516640807559}, {"current_trial": 214, "trialdata": {"rt": -1, "trial_type": "single-stim", "stimulus": "<p id=\"stim\">10</p>", "internal_node_id": "0.0-160.0-0.0", "time_elapsed": 1185630, "key_press": -1, "trial_index": 214}, "uniqueid": "MTK1967:3YMU66OBIOFC282TL8VSNF62ZWJGHV", "dateTime": 1516640810560}, {"current_trial": 215, "trialdata": {"rt": -1, "trial_type": "single-stim", "stimulus": "<p id=\"stim\">9</p>", "internal_node_id": "0.0-160.0-1.0", "time_elapsed": 1186631, "key_press": -1, "trial_index": 215}, "uniqueid": "MTK1967:3YMU66OBIOFC282TL8VSNF62ZWJGHV", "dateTime": 1516640811561}, {"current_trial": 216, "trialdata": {"rt": -1, "trial_type": "single-stim", "stimulus": "<p id=\"stim\">8</p>", "internal_node_id": "0.0-160.0-2.0", "time_elapsed": 1187632, "key_press": -1, "trial_index": 216}, "uniqueid": "MTK1967:3YMU66OBIOFC282TL8VSNF62ZWJGHV", "dateTime": 1516640812562}, {"current_trial": 217, "trialdata": {"rt": -1, "trial_type": "single-stim", "stimulus": "<p id=\"stim\">7</p>", "internal_node_id": "0.0-160.0-3.0", "time_elapsed": 1188633, "key_press": -1, "trial_index": 217}, "uniqueid": "MTK1967:3YMU66OBIOFC282TL8VSNF62ZWJGHV", "dateTime": 1516640813563}, {"current_trial": 218, "trialdata": {"rt": -1, "trial_type": "single-stim", "stimulus": "<p id=\"stim\">6</p>", "internal_node_id": "0.0-160.0-4.0", "time_elapsed": 1189634, "key_press": -1, "trial_index": 218}, "uniqueid": "MTK1967:3YMU66OBIOFC282TL8VSNF62ZWJGHV", "dateTime": 1516640814564}, {"current_trial": 219, "trialdata": {"rt": -1, "trial_type": "single-stim", "stimulus": "<p id=\"stim\">5</p>", "internal_node_id": "0.0-160.0-5.0", "time_elapsed": 1190635, "key_press": -1, "trial_index": 219}, "uniqueid": "MTK1967:3YMU66OBIOFC282TL8VSNF62ZWJGHV", "dateTime": 1516640815565}, {"current_trial": 220, "trialdata": {"rt": -1, "trial_type": "single-stim", "stimulus": "<p id=\"stim\">4</p>", "internal_node_id": "0.0-160.0-6.0", "time_elapsed": 1191636, "key_press": -1, "trial_index": 220}, "uniqueid": "MTK1967:3YMU66OBIOFC282TL8VSNF62ZWJGHV", "dateTime": 1516640816566}, {"current_trial": 221, "trialdata": {"rt": -1, "trial_type": "single-stim", "stimulus": "<p id=\"stim\">3</p>", "internal_node_id": "0.0-160.0-7.0", "time_elapsed": 1192637, "key_press": -1, "trial_index": 221}, "uniqueid": "MTK1967:3YMU66OBIOFC282TL8VSNF62ZWJGHV", "dateTime": 1516640817567}, {"current_trial": 222, "trialdata": {"rt": -1, "trial_type": "single-stim", "stimulus": "<p id=\"stim\">2</p>", "internal_node_id": "0.0-160.0-8.0", "time_elapsed": 1193638, "key_press": -1, "trial_index": 222}, "uniqueid": "MTK1967:3YMU66OBIOFC282TL8VSNF62ZWJGHV", "dateTime": 1516640818568}, {"current_trial": 223, "trialdata": {"rt": -1, "trial_type": "single-stim", "stimulus": "<p id=\"stim\">1</p>", "internal_node_id": "0.0-160.0-9.0", "time_elapsed": 1194639, "key_press": -1, "trial_index": 223}, "uniqueid": "MTK1967:3YMU66OBIOFC282TL8VSNF62ZWJGHV", "dateTime": 1516640819569}, {"current_trial": 224, "trialdata": {"rt": -1, "trial_type": "single-stim", "stimulus": "<p id=\"stim\">+</p>", "internal_node_id": "0.0-161.0-0.0", "time_elapsed": 1196140, "key_press": -1, "type": "FIXATION", "trial_index": 224}, "uniqueid": "MTK1967:3YMU66OBIOFC282TL8VSNF62ZWJGHV", "dateTime": 1516640821070}, {"current_trial": 225, "trialdata": {"rt": -1, "trial_type": "single-stim", "word": "rust", "stimulus": "<p id=\"stim\">RUST</p>", "conditions": [12, 1600, "v", 24000], "internal_node_id": "0.0-162.0", "trial": 6, "time_elapsed": 1197741, "serialpos": 0, "key_press": -1, "wordID": 1218, "type": "PRES_VIS", "trial_index": 225}, "uniqueid": "MTK1967:3YMU66OBIOFC282TL8VSNF62ZWJGHV", "dateTime": 1516640822672}, {"current_trial": 226, "trialdata": {"rt": -1, "trial_type": "single-stim", "word": "tuba", "stimulus": "<p id=\"stim\">TUBA</p>", "conditions": [12, 1600, "v", 24000], "internal_node_id": "0.0-163.0", "trial": 6, "time_elapsed": 1200278, "serialpos": 1, "key_press": -1, "wordID": 1514, "type": "PRES_VIS", "trial_index": 226}, "uniqueid": "MTK1967:3YMU66OBIOFC282TL8VSNF62ZWJGHV", "dateTime": 1516640825208}, {"current_trial": 227, "trialdata": {"rt": -1, "trial_type": "single-stim", "word": "guitar", "stimulus": "<p id=\"stim\">GUITAR</p>", "conditions": [12, 1600, "v", 24000], "internal_node_id": "0.0-164.0", "trial": 6, "time_elapsed": 1202976, "serialpos": 2, "key_press": -1, "wordID": 669, "type": "PRES_VIS", "trial_index": 227}, "uniqueid": "MTK1967:3YMU66OBIOFC282TL8VSNF62ZWJGHV", "dateTime": 1516640827906}, {"current_trial": 228, "trialdata": {"rt": -1, "trial_type": "single-stim", "word": "army", "stimulus": "<p id=\"stim\">ARMY</p>", "conditions": [12, 1600, "v", 24000], "internal_node_id": "0.0-165.0", "trial": 6, "time_elapsed": 1205519, "serialpos": 3, "key_press": -1, "wordID": 38, "type": "PRES_VIS", "trial_index": 228}, "uniqueid": "MTK1967:3YMU66OBIOFC282TL8VSNF62ZWJGHV", "dateTime": 1516640830451}, {"current_trial": 229, "trialdata": {"rt": -1, "trial_type": "single-stim", "word": "primate", "stimulus": "<p id=\"stim\">PRIMATE</p>", "conditions": [12, 1600, "v", 24000], "internal_node_id": "0.0-166.0", "trial": 6, "time_elapsed": 1208163, "serialpos": 4, "key_press": -1, "wordID": 1122, "type": "PRES_VIS", "trial_index": 229}, "uniqueid": "MTK1967:3YMU66OBIOFC282TL8VSNF62ZWJGHV", "dateTime": 1516640833093}, {"current_trial": 230, "trialdata": {"rt": -1, "trial_type": "single-stim", "word": "citrus", "stimulus": "<p id=\"stim\">CITRUS</p>", "conditions": [12, 1600, "v", 24000], "internal_node_id": "0.0-167.0", "trial": 6, "time_elapsed": 1210569, "serialpos": 5, "key_press": -1, "wordID": 312, "type": "PRES_VIS", "trial_index": 230}, "uniqueid": "MTK1967:3YMU66OBIOFC282TL8VSNF62ZWJGHV", "dateTime": 1516640835499}, {"current_trial": 231, "trialdata": {"rt": -1, "trial_type": "single-stim", "word": "canal", "stimulus": "<p id=\"stim\">CANAL</p>", "conditions": [12, 1600, "v", 24000], "internal_node_id": "0.0-168.0", "trial": 6, "time_elapsed": 1213071, "serialpos": 6, "key_press": -1, "wordID": 225, "type": "PRES_VIS", "trial_index": 231}, "uniqueid": "MTK1967:3YMU66OBIOFC282TL8VSNF62ZWJGHV", "dateTime": 1516640838001}, {"current_trial": 232, "trialdata": {"rt": -1, "trial_type": "single-stim", "word": "scotch", "stimulus": "<p id=\"stim\">SCOTCH</p>", "conditions": [12, 1600, "v", 24000], "internal_node_id": "0.0-169.0", "trial": 6, "time_elapsed": 1215737, "serialpos": 7, "key_press": -1, "wordID": 1250, "type": "PRES_VIS", "trial_index": 232}, "uniqueid": "MTK1967:3YMU66OBIOFC282TL8VSNF62ZWJGHV", "dateTime": 1516640840667}, {"current_trial": 233, "trialdata": {"rt": -1, "trial_type": "single-stim", "word": "lumber", "stimulus": "<p id=\"stim\">LUMBER</p>", "conditions": [12, 1600, "v", 24000], "internal_node_id": "0.0-170.0", "trial": 6, "time_elapsed": 1218276, "serialpos": 8, "key_press": -1, "wordID": 847, "type": "PRES_VIS", "trial_index": 233}, "uniqueid": "MTK1967:3YMU66OBIOFC282TL8VSNF62ZWJGHV", "dateTime": 1516640843206}, {"current_trial": 234, "trialdata": {"rt": -1, "trial_type": "single-stim", "word": "mammal", "stimulus": "<p id=\"stim\">MAMMAL</p>", "conditions": [12, 1600, "v", 24000], "internal_node_id": "0.0-171.0", "trial": 6, "time_elapsed": 1220755, "serialpos": 9, "key_press": -1, "wordID": 860, "type": "PRES_VIS", "trial_index": 234}, "uniqueid": "MTK1967:3YMU66OBIOFC282TL8VSNF62ZWJGHV", "dateTime": 1516640845685}, {"current_trial": 235, "trialdata": {"rt": -1, "trial_type": "single-stim", "word": "carrot", "stimulus": "<p id=\"stim\">CARROT</p>", "conditions": [12, 1600, "v", 24000], "internal_node_id": "0.0-172.0", "trial": 6, "time_elapsed": 1223242, "serialpos": 10, "key_press": -1, "wordID": 248, "type": "PRES_VIS", "trial_index": 235}, "uniqueid": "MTK1967:3YMU66OBIOFC282TL8VSNF62ZWJGHV", "dateTime": 1516640848172}, {"current_trial": 236, "trialdata": {"rt": -1, "trial_type": "single-stim", "word": "blade", "stimulus": "<p id=\"stim\">BLADE</p>", "conditions": [12, 1600, "v", 24000], "internal_node_id": "0.0-173.0", "trial": 6, "time_elapsed": 1225659, "serialpos": 11, "key_press": -1, "wordID": 133, "type": "PRES_VIS", "trial_index": 236}, "uniqueid": "MTK1967:3YMU66OBIOFC282TL8VSNF62ZWJGHV", "dateTime": 1516640850589}, {"current_trial": 237, "trialdata": {"rt": -1, "trial_type": "single-stim", "stimulus": "", "internal_node_id": "0.0-174.0-0.0", "time_elapsed": 1228117, "key_press": -1, "type": "PRE_RECALL_DELAY", "trial_index": 237}, "uniqueid": "MTK1967:3YMU66OBIOFC282TL8VSNF62ZWJGHV", "dateTime": 1516640853047}, {"current_trial": 238, "trialdata": {"rt": -1000, "trial_type": "single-audio", "stimulus": "/static/audio/400Hz.wav", "internal_node_id": "0.0-175.0", "time_elapsed": 1228619, "key_press": -1, "type": "PRE_RECALL_ALERT", "trial_index": 238}, "uniqueid": "MTK1967:3YMU66OBIOFC282TL8VSNF62ZWJGHV", "dateTime": 1516640853549}, {"current_trial": 239, "trialdata": {"rt": [2561, 4009, 5273, 7088, 8113, 10248], "recwords": ["blade", "carrot", "mammal", "scotch", "army", "tuba"], "key_times": [1353, 1529, 1625, 1721, 2114, 2561, 2713, 2841, 3041, 3409, 3489, 3785, 4009, 4241, 4337, 4465, 4633, 4737, 4873, 5273, 5465, 5625, 5929, 6129, 6457, 6545, 7088, 7281, 7376, 7521, 7680, 8113, 8280, 8528, 8936, 9168, 10248], "trial_type": "free-recall", "conditions": [12, 1600, "v", 24000], "internal_node_id": "0.0-176.0-0.0", "key_presses": [66, 76, 65, 68, 69, 13, 67, 65, 82, 82, 79, 84, 13, 77, 65, 77, 77, 65, 76, 13, 83, 67, 79, 84, 67, 72, 13, 65, 82, 77, 89, 13, 84, 85, 66, 65, 13], "trial": 6, "time_elapsed": 1288623, "type": "FREE_RECALL", "trial_index": 239}, "uniqueid": "MTK1967:3YMU66OBIOFC282TL8VSNF62ZWJGHV", "dateTime": 1516640913565}, {"current_trial": 240, "trialdata": {"rt": 2060, "trial_type": "text", "internal_node_id": "0.0-177.0", "time_elapsed": 1292696, "key_press": 32, "type": "INSTRUCTIONS", "trial_index": 240}, "uniqueid": "MTK1967:3YMU66OBIOFC282TL8VSNF62ZWJGHV", "dateTime": 1516640917626}, {"current_trial": 241, "trialdata": {"rt": [2861, 6493, 10309, 13668, 17925, 21677], "trial_type": "math-distractor", "key_times": [2557, 2717, 2861, 5981, 6221, 6493, 9877, 9973, 10309, 13124, 13292, 13668, 17125, 17365, 17925, 20558, 21333, 21677], "responses": ["11", "19", "12", "18", "17", "17"], "num2": [3, 9, 8, 9, 6, 3, 7], "num3": [6, 8, 3, 6, 8, 5, 5], "conditions": [24, 800, "v", 24000], "internal_node_id": "0.0-178.0", "key_presses": [49, 49, 13, 49, 57, 13, 49, 50, 13, 49, 56, 13, 49, 55, 13, 49, 55, 13], "trial": 7, "time_elapsed": 1318699, "type": "DISTRACTOR", "trial_index": 241, "num1": [2, 3, 1, 3, 3, 9, 8]}, "uniqueid": "MTK1967:3YMU66OBIOFC282TL8VSNF62ZWJGHV", "dateTime": 1516640943630}, {"current_trial": 242, "trialdata": {"rt": -1, "trial_type": "single-stim", "stimulus": "<p id=\"stim\">10</p>", "internal_node_id": "0.0-179.0-0.0", "time_elapsed": 1321701, "key_press": -1, "trial_index": 242}, "uniqueid": "MTK1967:3YMU66OBIOFC282TL8VSNF62ZWJGHV", "dateTime": 1516640946631}, {"current_trial": 243, "trialdata": {"rt": -1, "trial_type": "single-stim", "stimulus": "<p id=\"stim\">9</p>", "internal_node_id": "0.0-179.0-1.0", "time_elapsed": 1322702, "key_press": -1, "trial_index": 243}, "uniqueid": "MTK1967:3YMU66OBIOFC282TL8VSNF62ZWJGHV", "dateTime": 1516640947632}, {"current_trial": 244, "trialdata": {"rt": -1, "trial_type": "single-stim", "stimulus": "<p id=\"stim\">8</p>", "internal_node_id": "0.0-179.0-2.0", "time_elapsed": 1323703, "key_press": -1, "trial_index": 244}, "uniqueid": "MTK1967:3YMU66OBIOFC282TL8VSNF62ZWJGHV", "dateTime": 1516640948633}, {"current_trial": 245, "trialdata": {"rt": -1, "trial_type": "single-stim", "stimulus": "<p id=\"stim\">7</p>", "internal_node_id": "0.0-179.0-3.0", "time_elapsed": 1324704, "key_press": -1, "trial_index": 245}, "uniqueid": "MTK1967:3YMU66OBIOFC282TL8VSNF62ZWJGHV", "dateTime": 1516640949634}, {"current_trial": 246, "trialdata": {"rt": -1, "trial_type": "single-stim", "stimulus": "<p id=\"stim\">6</p>", "internal_node_id": "0.0-179.0-4.0", "time_elapsed": 1325705, "key_press": -1, "trial_index": 246}, "uniqueid": "MTK1967:3YMU66OBIOFC282TL8VSNF62ZWJGHV", "dateTime": 1516640950635}, {"current_trial": 247, "trialdata": {"rt": -1, "trial_type": "single-stim", "stimulus": "<p id=\"stim\">5</p>", "internal_node_id": "0.0-179.0-5.0", "time_elapsed": 1326706, "key_press": -1, "trial_index": 247}, "uniqueid": "MTK1967:3YMU66OBIOFC282TL8VSNF62ZWJGHV", "dateTime": 1516640951636}, {"current_trial": 248, "trialdata": {"rt": -1, "trial_type": "single-stim", "stimulus": "<p id=\"stim\">4</p>", "internal_node_id": "0.0-179.0-6.0", "time_elapsed": 1327707, "key_press": -1, "trial_index": 248}, "uniqueid": "MTK1967:3YMU66OBIOFC282TL8VSNF62ZWJGHV", "dateTime": 1516640952637}, {"current_trial": 249, "trialdata": {"rt": -1, "trial_type": "single-stim", "stimulus": "<p id=\"stim\">3</p>", "internal_node_id": "0.0-179.0-7.0", "time_elapsed": 1328708, "key_press": -1, "trial_index": 249}, "uniqueid": "MTK1967:3YMU66OBIOFC282TL8VSNF62ZWJGHV", "dateTime": 1516640953638}, {"current_trial": 250, "trialdata": {"rt": -1, "trial_type": "single-stim", "stimulus": "<p id=\"stim\">2</p>", "internal_node_id": "0.0-179.0-8.0", "time_elapsed": 1329709, "key_press": -1, "trial_index": 250}, "uniqueid": "MTK1967:3YMU66OBIOFC282TL8VSNF62ZWJGHV", "dateTime": 1516640954639}, {"current_trial": 251, "trialdata": {"rt": -1, "trial_type": "single-stim", "stimulus": "<p id=\"stim\">1</p>", "internal_node_id": "0.0-179.0-9.0", "time_elapsed": 1330710, "key_press": -1, "trial_index": 251}, "uniqueid": "MTK1967:3YMU66OBIOFC282TL8VSNF62ZWJGHV", "dateTime": 1516640955640}, {"current_trial": 252, "trialdata": {"rt": -1, "trial_type": "single-stim", "stimulus": "<p id=\"stim\">+</p>", "internal_node_id": "0.0-180.0-0.0", "time_elapsed": 1332211, "key_press": -1, "type": "FIXATION", "trial_index": 252}, "uniqueid": "MTK1967:3YMU66OBIOFC282TL8VSNF62ZWJGHV", "dateTime": 1516640957141}, {"current_trial": 253, "trialdata": {"rt": -1, "trial_type": "single-stim", "word": "lava", "stimulus": "<p id=\"stim\">LAVA</p>", "conditions": [24, 800, "v", 24000], "internal_node_id": "0.0-181.0", "trial": 7, "time_elapsed": 1333013, "serialpos": 0, "key_press": -1, "wordID": 803, "type": "PRES_VIS", "trial_index": 253}, "uniqueid": "MTK1967:3YMU66OBIOFC282TL8VSNF62ZWJGHV", "dateTime": 1516640957943}, {"current_trial": 254, "trialdata": {"rt": -1, "trial_type": "single-stim", "word": "piston", "stimulus": "<p id=\"stim\">PISTON</p>", "conditions": [24, 800, "v", 24000], "internal_node_id": "0.0-182.0", "trial": 7, "time_elapsed": 1334810, "serialpos": 1, "key_press": -1, "wordID": 1075, "type": "PRES_VIS", "trial_index": 254}, "uniqueid": "MTK1967:3YMU66OBIOFC282TL8VSNF62ZWJGHV", "dateTime": 1516640959740}, {"current_trial": 255, "trialdata": {"rt": -1, "trial_type": "single-stim", "word": "receipt", "stimulus": "<p id=\"stim\">RECEIPT</p>", "conditions": [24, 800, "v", 24000], "internal_node_id": "0.0-183