{"condition": 0, "counterbalance": 1919, "assignmentId": "3MHW492WW1KHCJTZ10ARFLH8ZVWVMQ", "workerId": "MTK1111", "hitId": "34YWR3PJ28HAQATTM8J9GPBWWSBX0F", "currenttrial": 626, "bonus": 0, "data": [{"uniqueid": "MTK1111:3MHW492WW1KHCJTZ10ARFLH8ZVWVMQ", "current_trial": 0, "dateTime": 1513114887545, "trialdata": {"rt": 1822, "key_press": 13, "type": "INSTRUCTIONS", "trial_type": "text", "trial_index": 0, "time_elapsed": 1824, "internal_node_id": "0.0-0.0"}}, {"uniqueid": "MTK1111:3MHW492WW1KHCJTZ10ARFLH8ZVWVMQ", "current_trial": 1, "dateTime": 1513114904949, "trialdata": {"rt": 17402, "key_press": 13, "type": "INSTRUCTIONS", "trial_type": "text", "trial_index": 1, "time_elapsed": 19228, "internal_node_id": "0.0-1.0"}}, {"uniqueid": "MTK1111:3MHW492WW1KHCJTZ10ARFLH8ZVWVMQ", "current_trial": 2, "dateTime": 1513114921722, "trialdata": {"rt": [16734], "responses": ["ocean"], "type": "AUDIO_TEST", "trial_type": "audio-test", "trial_index": 2, "time_elapsed": 36001, "internal_node_id": "0.0-2.0"}}, {"uniqueid": "MTK1111:3MHW492WW1KHCJTZ10ARFLH8ZVWVMQ", "current_trial": 3, "dateTime": 1513114928565, "trialdata": {"rt": [6840], "responses": ["crystal"], "type": "AUDIO_TEST", "trial_type": "audio-test", "trial_index": 3, "time_elapsed": 42844, "internal_node_id": "0.0-3.0"}}, {"uniqueid": "MTK1111:3MHW492WW1KHCJTZ10ARFLH8ZVWVMQ", "current_trial": 4, "dateTime": 1513114933842, "trialdata": {"rt": [5273], "responses": ["spice"], "type": "AUDIO_TEST", "trial_type": "audio-test", "trial_index": 4, "time_elapsed": 48121, "internal_node_id": "0.0-4.0"}}, {"uniqueid": "MTK1111:3MHW492WW1KHCJTZ10ARFLH8ZVWVMQ", "current_trial": 5, "dateTime": 1513114960747, "trialdata": {"rt": 26153, "responses": "{\"Q0\":\"11:00\",\"Q1\":\"6:30\",\"Q2\":\"5\"}", "type": "SLEEP_SURVEY", "trial_type": "survey-text", "trial_index": 5, "time_elapsed": 75026, "internal_node_id": "0.0-5.0"}}, {"uniqueid": "MTK1111:3MHW492WW1KHCJTZ10ARFLH8ZVWVMQ", "current_trial": 6, "dateTime": 1513114991375, "trialdata": {"rt": 29625, "key_press": 17, "type": "INSTRUCTIONS", "trial_type": "text", "trial_index": 6, "time_elapsed": 105654, "internal_node_id": "0.0-6.0"}}, {"uniqueid": "MTK1111:3MHW492WW1KHCJTZ10ARFLH8ZVWVMQ", "current_trial": 7, "dateTime": 1513115008573, "trialdata": {"rt": 16696, "key_press": 32, "type": "INSTRUCTIONS", "trial_type": "text", "trial_index": 7, "time_elapsed": 122851, "internal_node_id": "0.0-7.0"}}, {"uniqueid": "MTK1111:3MHW492WW1KHCJTZ10ARFLH8ZVWVMQ", "current_trial": 8, "dateTime": 1513115019151, "trialdata": {"rt": 10077, "key_press": 32, "type": "INSTRUCTIONS", "trial_type": "text", "trial_index": 8, "time_elapsed": 133430, "internal_node_id": "0.0-8.0"}}, {"uniqueid": "MTK1111:3MHW492WW1KHCJTZ10ARFLH8ZVWVMQ", "current_trial": 9, "dateTime": 1513115038155, "trialdata": {"rt": [8285, 10453, 12299, 15230, 17421], "responses": ["22", "11", "17", "24", "13"], "num1": [8, 1, 8, 9, 6, 7], "num2": [7, 9, 2, 9, 2, 7], "num3": [7, 1, 7, 6, 5, 9], "type": "DISTRACTOR", "conditions": [18, 1200, "v", 18000], "trial": 0, "trial_type": "math-distractor", "trial_index": 9, "time_elapsed": 152434, "internal_node_id": "0.0-9.0"}}, {"uniqueid": "MTK1111:3MHW492WW1KHCJTZ10ARFLH8ZVWVMQ", "current_trial": 10, "dateTime": 1513115041158, "trialdata": {"rt": -1, "stimulus": "<p id=\"stim\">10</p>", "key_press": -1, "trial_type": "single-stim", "trial_index": 10, "time_elapsed": 155437, "internal_node_id": "0.0-10.0-0.0"}}, {"uniqueid": "MTK1111:3MHW492WW1KHCJTZ10ARFLH8ZVWVMQ", "current_trial": 11, "dateTime": 1513115042159, "trialdata": {"rt": -1, "stimulus": "<p id=\"stim\">9</p>", "key_press": -1, "trial_type": "single-stim", "trial_index": 11, "time_elapsed": 156438, "internal_node_id": "0.0-10.0-1.0"}}, {"uniqueid": "MTK1111:3MHW492WW1KHCJTZ10ARFLH8ZVWVMQ", "current_trial": 12, "dateTime": 1513115043160, "trialdata": {"rt": -1, "stimulus": "<p id=\"stim\">8</p>", "key_press": -1, "trial_type": "single-stim", "trial_index": 12, "time_elapsed": 157439, "internal_node_id": "0.0-10.0-2.0"}}, {"uniqueid": "MTK1111:3MHW492WW1KHCJTZ10ARFLH8ZVWVMQ", "current_trial": 13, "dateTime": 1513115044162, "trialdata": {"rt": -1, "stimulus": "<p id=\"stim\">7</p>", "key_press": -1, "trial_type": "single-stim", "trial_index": 13, "time_elapsed": 158440, "internal_node_id": "0.0-10.0-3.0"}}, {"uniqueid": "MTK1111:3MHW492WW1KHCJTZ10ARFLH8ZVWVMQ", "current_trial": 14, "dateTime": 1513115045163, "trialdata": {"rt": -1, "stimulus": "<p id=\"stim\">6</p>", "key_press": -1, "trial_type": "single-stim", "trial_index": 14, "time_elapsed": 159441, "internal_node_id": "0.0-10.0-4.0"}}, {"uniqueid": "MTK1111:3MHW492WW1KHCJTZ10ARFLH8ZVWVMQ", "current_trial": 15, "dateTime": 1513115046165, "trialdata": {"rt": -1, "stimulus": "<p id=\"stim\">5</p>", "key_press": -1, "trial_type": "single-stim", "trial_index": 15, "time_elapsed": 160444, "internal_node_id": "0.0-10.0-5.0"}}, {"uniqueid": "MTK1111:3MHW492WW1KHCJTZ10ARFLH8ZVWVMQ", "current_trial": 16, "dateTime": 1513115047167, "trialdata": {"rt": -1, "stimulus": "<p id=\"stim\">4</p>", "key_press": -1, "trial_type": "single-stim", "trial_index": 16, "time_elapsed": 161445, "internal_node_id": "0.0-10.0-6.0"}}, {"uniqueid": "MTK1111:3MHW492WW1KHCJTZ10ARFLH8ZVWVMQ", "current_trial": 17, "dateTime": 1513115048168, "trialdata": {"rt": -1, "stimulus": "<p id=\"stim\">3</p>", "key_press": -1, "trial_type": "single-stim", "trial_index": 17, "time_elapsed": 162447, "internal_node_id": "0.0-10.0-7.0"}}, {"uniqueid": "MTK1111:3MHW492WW1KHCJTZ10ARFLH8ZVWVMQ", "current_trial": 18, "dateTime": 1513115049170, "trialdata": {"rt": -1, "stimulus": "<p id=\"stim\">2</p>", "key_press": -1, "trial_type": "single-stim", "trial_index": 18, "time_elapsed": 163448, "internal_node_id": "0.0-10.0-8.0"}}, {"uniqueid": "MTK1111:3MHW492WW1KHCJTZ10ARFLH8ZVWVMQ", "current_trial": 19, "dateTime": 1513115050171, "trialdata": {"rt": -1, "stimulus": "<p id=\"stim\">1</p>", "key_press": -1, "trial_type": "single-stim", "trial_index": 19, "time_elapsed": 164450, "internal_node_id": "0.0-10.0-9.0"}}, {"uniqueid": "MTK1111:3MHW492WW1KHCJTZ10ARFLH8ZVWVMQ", "current_trial": 20, "dateTime": 1513115051672, "trialdata": {"rt": -1, "stimulus": "<p id=\"stim\">+</p>", "key_press": -1, "type": "FIXATION", "trial_type": "single-stim", "trial_index": 20, "time_elapsed": 165951, "internal_node_id": "0.0-11.0-0.0"}}, {"uniqueid": "MTK1111:3MHW492WW1KHCJTZ10ARFLH8ZVWVMQ", "current_trial": 21, "dateTime": 1513115052873, "trialdata": {"rt": -1, "stimulus": "<p id=\"stim\">KLEENEX</p>", "key_press": -1, "type": "PRES_VIS", "word": "kleenex", "wordID": 781, "conditions": [18, 1200, "v", 18000], "trial": 0, "serialpos": 0, "trial_type": "single-stim", "trial_index": 21, "time_elapsed": 167152, "internal_node_id": "0.0-12.0"}}, {"uniqueid": "MTK1111:3MHW492WW1KHCJTZ10ARFLH8ZVWVMQ", "current_trial": 22, "dateTime": 1513115055002, "trialdata": {"rt": -1, "stimulus": "<p id=\"stim\">SHARK</p>", "key_press": -1, "type": "PRES_VIS", "word": "shark", "wordID": 1274, "conditions": [18, 1200, "v", 18000], "trial": 0, "serialpos": 1, "trial_type": "single-stim", "trial_index": 22, "time_elapsed": 169281, "internal_node_id": "0.0-13.0"}}, {"uniqueid": "MTK1111:3MHW492WW1KHCJTZ10ARFLH8ZVWVMQ", "current_trial": 23, "dateTime": 1513115057136, "trialdata": {"rt": -1, "stimulus": "<p id=\"stim\">DENTIST</p>", "key_press": -1, "type": "PRES_VIS", "word": "dentist", "wordID": 446, "conditions": [18, 1200, "v", 18000], "trial": 0, "serialpos": 2, "trial_type": "single-stim", "trial_index": 23, "time_elapsed": 171415, "internal_node_id": "0.0-14.0"}}, {"uniqueid": "MTK1111:3MHW492WW1KHCJTZ10ARFLH8ZVWVMQ", "current_trial": 24, "dateTime": 1513115059351, "trialdata": {"rt": -1, "stimulus": "<p id=\"stim\">POSTAGE</p>", "key_press": -1, "type": "PRES_VIS", "word": "postage", "wordID": 1112, "conditions": [18, 1200, "v", 18000], "trial": 0, "serialpos": 3, "trial_type": "single-stim", "trial_index": 24, "time_elapsed": 173630, "internal_node_id": "0.0-15.0"}}, {"uniqueid": "MTK1111:3MHW492WW1KHCJTZ10ARFLH8ZVWVMQ", "current_trial": 25, "dateTime": 1513115061469, "trialdata": {"rt": -1, "stimulus": "<p id=\"stim\">SNAIL</p>", "key_press": -1, "type": "PRES_VIS", "word": "snail", "wordID": 1331, "conditions": [18, 1200, "v", 18000], "trial": 0, "serialpos": 4, "trial_type": "single-stim", "trial_index": 25, "time_elapsed": 175748, "internal_node_id": "0.0-16.0"}}, {"uniqueid": "MTK1111:3MHW492WW1KHCJTZ10ARFLH8ZVWVMQ", "current_trial": 26, "dateTime": 1513115063563, "trialdata": {"rt": -1, "stimulus": "<p id=\"stim\">SHOULDER</p>", "key_press": -1, "type": "PRES_VIS", "word": "shoulder", "wordID": 1293, "conditions": [18, 1200, "v", 18000], "trial": 0, "serialpos": 5, "trial_type": "single-stim", "trial_index": 26, "time_elapsed": 177842, "internal_node_id": "0.0-17.0"}}, {"uniqueid": "MTK1111:3MHW492WW1KHCJTZ10ARFLH8ZVWVMQ", "current_trial": 27, "dateTime": 1513115065914, "trialdata": {"rt": -1, "stimulus": "<p id=\"stim\">LETTUCE</p>", "key_press": -1, "type": "PRES_VIS", "word": "lettuce", "wordID": 813, "conditions": [18, 1200, "v", 18000], "trial": 0, "serialpos": 6, "trial_type": "single-stim", "trial_index": 27, "time_elapsed": 180193, "internal_node_id": "0.0-18.0"}}, {"uniqueid": "MTK1111:3MHW492WW1KHCJTZ10ARFLH8ZVWVMQ", "current_trial": 28, "dateTime": 1513115068199, "trialdata": {"rt": -1, "stimulus": "<p id=\"stim\">GUARD</p>", "key_press": -1, "type": "PRES_VIS", "word": "guard", "wordID": 666, "conditions": [18, 1200, "v", 18000], "trial": 0, "serialpos": 7, "trial_type": "single-stim", "trial_index": 28, "time_elapsed": 182478, "internal_node_id": "0.0-19.0"}}, {"uniqueid": "MTK1111:3MHW492WW1KHCJTZ10ARFLH8ZVWVMQ", "current_trial": 29, "dateTime": 1513115070478, "trialdata": {"rt": -1, "stimulus": "<p id=\"stim\">BLENDER</p>", "key_press": -1, "type": "PRES_VIS", "word": "blender", "wordID": 135, "conditions": [18, 1200, "v", 18000], "trial": 0, "serialpos": 8, "trial_type": "single-stim", "trial_index": 29, "time_elapsed": 184757, "internal_node_id": "0.0-20.0"}}, {"uniqueid": "MTK1111:3MHW492WW1KHCJTZ10ARFLH8ZVWVMQ", "current_trial": 30, "dateTime": 1513115072655, "trialdata": {"rt": -1, "stimulus": "<p id=\"stim\">HATCHET</p>", "key_press": -1, "type": "PRES_VIS", "word": "hatchet", "wordID": 690, "conditions": [18, 1200, "v", 18000], "trial": 0, "serialpos": 9, "trial_type": "single-stim", "trial_index": 30, "time_elapsed": 186934, "internal_node_id": "0.0-21.0"}}, {"uniqueid": "MTK1111:3MHW492WW1KHCJTZ10ARFLH8ZVWVMQ", "current_trial": 31, "dateTime": 1513115074683, "trialdata": {"rt": -1, "stimulus": "<p id=\"stim\">RAZOR</p>", "key_press": -1, "type": "PRES_VIS", "word": "razor", "wordID": 1170, "conditions": [18, 1200, "v", 18000], "trial": 0, "serialpos": 10, "trial_type": "single-stim", "trial_index": 31, "time_elapsed": 188962, "internal_node_id": "0.0-22.0"}}, {"uniqueid": "MTK1111:3MHW492WW1KHCJTZ10ARFLH8ZVWVMQ", "current_trial": 32, "dateTime": 1513115076804, "trialdata": {"rt": -1, "stimulus": "<p id=\"stim\">WRENCH</p>", "key_press": -1, "type": "PRES_VIS", "word": "wrench", "wordID": 1624, "conditions": [18, 1200, "v", 18000], "trial": 0, "serialpos": 11, "trial_type": "single-stim", "trial_index": 32, "time_elapsed": 191083, "internal_node_id": "0.0-23.0"}}, {"uniqueid": "MTK1111:3MHW492WW1KHCJTZ10ARFLH8ZVWVMQ", "current_trial": 33, "dateTime": 1513115079030, "trialdata": {"rt": -1, "stimulus": "<p id=\"stim\">BABY</p>", "key_press": -1, "type": "PRES_VIS", "word": "baby", "wordID": 63, "conditions": [18, 1200, "v", 18000], "trial": 0, "serialpos": 12, "trial_type": "single-stim", "trial_index": 33, "time_elapsed": 193309, "internal_node_id": "0.0-24.0"}}, {"uniqueid": "MTK1111:3MHW492WW1KHCJTZ10ARFLH8ZVWVMQ", "current_trial": 34, "dateTime": 1513115081124, "trialdata": {"rt": -1, "stimulus": "<p id=\"stim\">LAVA</p>", "key_press": -1, "type": "PRES_VIS", "word": "lava", "wordID": 803, "conditions": [18, 1200, "v", 18000], "trial": 0, "serialpos": 13, "trial_type": "single-stim", "trial_index": 34, "time_elapsed": 195402, "internal_node_id": "0.0-25.0"}}, {"uniqueid": "MTK1111:3MHW492WW1KHCJTZ10ARFLH8ZVWVMQ", "current_trial": 35, "dateTime": 1513115083434, "trialdata": {"rt": -1, "stimulus": "<p id=\"stim\">PREACHER</p>", "key_press": -1, "type": "PRES_VIS", "word": "preacher", "wordID": 1118, "conditions": [18, 1200, "v", 18000], "trial": 0, "serialpos": 14, "trial_type": "single-stim", "trial_index": 35, "time_elapsed": 197713, "internal_node_id": "0.0-26.0"}}, {"uniqueid": "MTK1111:3MHW492WW1KHCJTZ10ARFLH8ZVWVMQ", "current_trial": 36, "dateTime": 1513115085608, "trialdata": {"rt": -1, "stimulus": "<p id=\"stim\">HORNET</p>", "key_press": -1, "type": "PRES_VIS", "word": "hornet", "wordID": 717, "conditions": [18, 1200, "v", 18000], "trial": 0, "serialpos": 15, "trial_type": "single-stim", "trial_index": 36, "time_elapsed": 199887, "internal_node_id": "0.0-27.0"}}, {"uniqueid": "MTK1111:3MHW492WW1KHCJTZ10ARFLH8ZVWVMQ", "current_trial": 37, "dateTime": 1513115087837, "trialdata": {"rt": -1, "stimulus": "<p id=\"stim\">RAFT</p>", "key_press": -1, "type": "PRES_VIS", "word": "raft", "wordID": 1158, "conditions": [18, 1200, "v", 18000], "trial": 0, "serialpos": 16, "trial_type": "single-stim", "trial_index": 37, "time_elapsed": 202116, "internal_node_id": "0.0-28.0"}}, {"uniqueid": "MTK1111:3MHW492WW1KHCJTZ10ARFLH8ZVWVMQ", "current_trial": 38, "dateTime": 1513115089892, "trialdata": {"rt": -1, "stimulus": "<p id=\"stim\">COIN</p>", "key_press": -1, "type": "PRES_VIS", "word": "coin", "wordID": 342, "conditions": [18, 1200, "v", 18000], "trial": 0, "serialpos": 17, "trial_type": "single-stim", "trial_index": 38, "time_elapsed": 204171, "internal_node_id": "0.0-29.0"}}, {"uniqueid": "MTK1111:3MHW492WW1KHCJTZ10ARFLH8ZVWVMQ", "current_trial": 39, "dateTime": 1513115092091, "trialdata": {"rt": -1, "stimulus": "", "key_press": -1, "type": "PRE_RECALL_DELAY", "trial_type": "single-stim", "trial_index": 39, "time_elapsed": 206370, "internal_node_id": "0.0-30.0-0.0"}}, {"uniqueid": "MTK1111:3MHW492WW1KHCJTZ10ARFLH8ZVWVMQ", "current_trial": 40, "dateTime": 1513115092597, "trialdata": {"rt": -1000, "stimulus": "/static/audio/400Hz.wav", "key_press": -1, "type": "PRE_RECALL_ALERT", "trial_type": "single-audio", "trial_index": 40, "time_elapsed": 206875, "internal_node_id": "0.0-31.0"}}, {"uniqueid": "MTK1111:3MHW492WW1KHCJTZ10ARFLH8ZVWVMQ", "current_trial": 41, "dateTime": 1513115152601, "trialdata": {"rt": [2724, 5523, 8738, 10513, 12830, 18907, 20804, 31001, 41120, 43230], "recwords": ["coin", "hatchet", "kleenex", "shark", "dentist", "baby", "blender", "shoulder", "wrench", "hammer"], "type": "FREE_RECALL", "conditions": [18, 1200, "v", 18000], "trial": 0, "trial_type": "free-recall", "trial_index": 41, "time_elapsed": 266878, "internal_node_id": "0.0-32.0-0.0"}}, {"uniqueid": "MTK1111:3MHW492WW1KHCJTZ10ARFLH8ZVWVMQ", "current_trial": 42, "dateTime": 1513115156813, "trialdata": {"rt": 2211, "key_press": 13, "type": "INSTRUCTIONS", "trial_type": "text", "trial_index": 42, "time_elapsed": 271092, "internal_node_id": "0.0-33.0"}}, {"uniqueid": "MTK1111:3MHW492WW1KHCJTZ10ARFLH8ZVWVMQ", "current_trial": 43, "dateTime": 1513115176816, "trialdata": {"rt": [2257, 4156, 6532, 8839, 11437, 13258, 15251, 17383], "responses": ["13", "12", "12", "19", "7", "12", "11", "10"], "num1": [8, 6, 5, 9, 1, 2, 4, 4, 7], "num2": [3, 5, 6, 8, 2, 5, 6, 5, 4], "num3": [2, 1, 1, 2, 4, 5, 1, 1, 4], "type": "DISTRACTOR", "conditions": [18, 1200, "a", 18000], "trial": 1, "trial_type": "math-distractor", "trial_index": 43, "time_elapsed": 291095, "internal_node_id": "0.0-34.0"}}, {"uniqueid": "MTK1111:3MHW492WW1KHCJTZ10ARFLH8ZVWVMQ", "current_trial": 44, "dateTime": 1513115179818, "trialdata": {"rt": -1, "stimulus": "<p id=\"stim\">10</p>", "key_press": -1, "trial_type": "single-stim", "trial_index": 44, "time_elapsed": 294097, "internal_node_id": "0.0-35.0-0.0"}}, {"uniqueid": "MTK1111:3MHW492WW1KHCJTZ10ARFLH8ZVWVMQ", "current_trial": 45, "dateTime": 1513115180819, "trialdata": {"rt": -1, "stimulus": "<p id=\"stim\">9</p>", "key_press": -1, "trial_type": "single-stim", "trial_index": 45, "time_elapsed": 295098, "internal_node_id": "0.0-35.0-1.0"}}, {"uniqueid": "MTK1111:3MHW492WW1KHCJTZ10ARFLH8ZVWVMQ", "current_trial": 46, "dateTime": 1513115181820, "trialdata": {"rt": -1, "stimulus": "<p id=\"stim\">8</p>", "key_press": -1, "trial_type": "single-stim", "trial_index": 46, "time_elapsed": 296099, "internal_node_id": "0.0-35.0-2.0"}}, {"uniqueid": "MTK1111:3MHW492WW1KHCJTZ10ARFLH8ZVWVMQ", "current_trial": 47, "dateTime": 1513115182821, "trialdata": {"rt": -1, "stimulus": "<p id=\"stim\">7</p>", "key_press": -1, "trial_type": "single-stim", "trial_index": 47, "time_elapsed": 297100, "internal_node_id": "0.0-35.0-3.0"}}, {"uniqueid": "MTK1111:3MHW492WW1KHCJTZ10ARFLH8ZVWVMQ", "current_trial": 48, "dateTime": 1513115183822, "trialdata": {"rt": -1, "stimulus": "<p id=\"stim\">6</p>", "key_press": -1, "trial_type": "single-stim", "trial_index": 48, "time_elapsed": 298101, "internal_node_id": "0.0-35.0-4.0"}}, {"uniqueid": "MTK1111:3MHW492WW1KHCJTZ10ARFLH8ZVWVMQ", "current_trial": 49, "dateTime": 1513115184823, "trialdata": {"rt": -1, "stimulus": "<p id=\"stim\">5</p>", "key_press": -1, "trial_type": "single-stim", "trial_index": 49, "time_elapsed": 299102, "internal_node_id": "0.0-35.0-5.0"}}, {"uniqueid": "MTK1111:3MHW492WW1KHCJTZ10ARFLH8ZVWVMQ", "current_trial": 50, "dateTime": 1513115185824, "trialdata": {"rt": -1, "stimulus": "<p id=\"stim\">4</p>", "key_press": -1, "trial_type": "single-stim", "trial_index": 50, "time_elapsed": 300103, "internal_node_id": "0.0-35.0-6.0"}}, {"uniqueid": "MTK1111:3MHW492WW1KHCJTZ10ARFLH8ZVWVMQ", "current_trial": 51, "dateTime": 1513115186826, "trialdata": {"rt": -1, "stimulus": "<p id=\"stim\">3</p>", "key_press": -1, "trial_type": "single-stim", "trial_index": 51, "time_elapsed": 301105, "internal_node_id": "0.0-35.0-7.0"}}, {"uniqueid": "MTK1111:3MHW492WW1KHCJTZ10ARFLH8ZVWVMQ", "current_trial": 52, "dateTime": 1513115187828, "trialdata": {"rt": -1, "stimulus": "<p id=\"stim\">2</p>", "key_press": -1, "trial_type": "single-stim", "trial_index": 52, "time_elapsed": 302107, "internal_node_id": "0.0-35.0-8.0"}}, {"uniqueid": "MTK1111:3MHW492WW1KHCJTZ10ARFLH8ZVWVMQ", "current_trial": 53, "dateTime": 1513115188829, "trialdata": {"rt": -1, "stimulus": "<p id=\"stim\">1</p>", "key_press": -1, "trial_type": "single-stim", "trial_index": 53, "time_elapsed": 303108, "internal_node_id": "0.0-35.0-9.0"}}, {"uniqueid": "MTK1111:3MHW492WW1KHCJTZ10ARFLH8ZVWVMQ", "current_trial": 54, "dateTime": 1513115190331, "trialdata": {"rt": -1, "stimulus": "<p id=\"stim\">+</p>", "key_press": -1, "type": "FIXATION", "trial_type": "single-stim", "trial_index": 54, "time_elapsed": 304609, "internal_node_id": "0.0-36.0-0.0"}}, {"uniqueid": "MTK1111:3MHW492WW1KHCJTZ10ARFLH8ZVWVMQ", "current_trial": 55, "dateTime": 1513115192370, "trialdata": {"rt": -1000, "stimulus": "/static/audio/wordpool/ASIA.wav", "key_press": -1, "type": "PRES_AUD", "word": "asia", "wordID": 45, "conditions": [18, 1200, "a", 18000], "trial": 1, "serialpos": 0, "trial_type": "single-audio", "trial_index": 55, "time_elapsed": 306649, "internal_node_id": "0.0-37.0"}}, {"uniqueid": "MTK1111:3MHW492WW1KHCJTZ10ARFLH8ZVWVMQ", "current_trial": 56, "dateTime": 1513115194702, "trialdata": {"rt": -1000, "stimulus": "/static/audio/wordpool/CABIN.wav", "key_press": -1, "type": "PRES_AUD", "word": "cabin", "wordID": 210, "conditions": [18, 1200, "a", 18000], "trial": 1, "serialpos": 1, "trial_type": "single-audio", "trial_index": 56, "time_elapsed": 308981, "internal_node_id": "0.0-38.0"}}, {"uniqueid": "MTK1111:3MHW492WW1KHCJTZ10ARFLH8ZVWVMQ", "current_trial": 57, "dateTime": 1513115196798, "trialdata": {"rt": -1000, "stimulus": "/static/audio/wordpool/GOBLIN.wav", "key_press": -1, "type": "PRES_AUD", "word": "goblin", "wordID": 644, "conditions": [18, 1200, "a", 18000], "trial": 1, "serialpos": 2, "trial_type": "single-audio", "trial_index": 57, "time_elapsed": 311077, "internal_node_id": "0.0-39.0"}}, {"uniqueid": "MTK1111:3MHW492WW1KHCJTZ10ARFLH8ZVWVMQ", "current_trial": 58, "dateTime": 1513115199184, "trialdata": {"rt": -1000, "stimulus": "/static/audio/wordpool/SKETCH.wav", "key_press": -1, "type": "PRES_AUD", "word": "sketch", "wordID": 1314, "conditions": [18, 1200, "a", 18000], "trial": 1, "serialpos": 3, "trial_type": "single-audio", "trial_index": 58, "time_elapsed": 313463, "internal_node_id": "0.0-40.0"}}, {"uniqueid": "MTK1111:3MHW492WW1KHCJTZ10ARFLH8ZVWVMQ", "current_trial": 59, "dateTime": 1513115201261, "trialdata": {"rt": -1000, "stimulus": "/static/audio/wordpool/EAGLE.wav", "key_press": -1, "type": "PRES_AUD", "word": "eagle", "wordID": 511, "conditions": [18, 1200, "a", 18000], "trial": 1, "serialpos": 4, "trial_type": "single-audio", "trial_index": 59, "time_elapsed": 315540, "internal_node_id": "0.0-41.0"}}, {"uniqueid": "MTK1111:3MHW492WW1KHCJTZ10ARFLH8ZVWVMQ", "current_trial": 60, "dateTime": 1513115203347, "trialdata": {"rt": -1000, "stimulus": "/static/audio/wordpool/STATUE.wav", "key_press": -1, "type": "PRES_AUD", "word": "statue", "wordID": 1373, "conditions": [18, 1200, "a", 18000], "trial": 1, "serialpos": 5, "trial_type": "single-audio", "trial_index": 60, "time_elapsed": 317626, "internal_node_id": "0.0-42.0"}}, {"uniqueid": "MTK1111:3MHW492WW1KHCJTZ10ARFLH8ZVWVMQ", "current_trial": 61, "dateTime": 1513115205666, "trialdata": {"rt": -1000, "stimulus": "/static/audio/wordpool/ORCHID.wav", "key_press": -1, "type": "PRES_AUD", "word": "orchid", "wordID": 981, "conditions": [18, 1200, "a", 18000], "trial": 1, "serialpos": 6, "trial_type": "single-audio", "trial_index": 61, "time_elapsed": 319944, "internal_node_id": "0.0-43.0"}}, {"uniqueid": "MTK1111:3MHW492WW1KHCJTZ10ARFLH8ZVWVMQ", "current_trial": 62, "dateTime": 1513115207765, "trialdata": {"rt": -1000, "stimulus": "/static/audio/wordpool/LUMBER.wav", "key_press": -1, "type": "PRES_AUD", "word": "lumber", "wordID": 847, "conditions": [18, 1200, "a", 18000], "trial": 1, "serialpos": 7, "trial_type": "single-audio", "trial_index": 62, "time_elapsed": 322044, "internal_node_id": "0.0-44.0"}}, {"uniqueid": "MTK1111:3MHW492WW1KHCJTZ10ARFLH8ZVWVMQ", "current_trial": 63, "dateTime": 1513115209810, "trialdata": {"rt": -1000, "stimulus": "/static/audio/wordpool/ARMY.wav", "key_press": -1, "type": "PRES_AUD", "word": "army", "wordID": 38, "conditions": [18, 1200, "a", 18000], "trial": 1, "serialpos": 8, "trial_type": "single-audio", "trial_index": 63, "time_elapsed": 324089, "internal_node_id": "0.0-45.0"}}, {"uniqueid": "MTK1111:3MHW492WW1KHCJTZ10ARFLH8ZVWVMQ", "current_trial": 64, "dateTime": 1513115212142, "trialdata": {"rt": -1000, "stimulus": "/static/audio/wordpool/JELLO.wav", "key_press": -1, "type": "PRES_AUD", "word": "jello", "wordID": 753, "conditions": [18, 1200, "a", 18000], "trial": 1, "serialpos": 9, "trial_type": "single-audio", "trial_index": 64, "time_elapsed": 326421, "internal_node_id": "0.0-46.0"}}, {"uniqueid": "MTK1111:3MHW492WW1KHCJTZ10ARFLH8ZVWVMQ", "current_trial": 65, "dateTime": 1513115214338, "trialdata": {"rt": -1000, "stimulus": "/static/audio/wordpool/GLOVE.wav", "key_press": -1, "type": "PRES_AUD", "word": "glove", "wordID": 641, "conditions": [18, 1200, "a", 18000], "trial": 1, "serialpos": 10, "trial_type": "single-audio", "trial_index": 65, "time_elapsed": 328617, "internal_node_id": "0.0-47.0"}}, {"uniqueid": "MTK1111:3MHW492WW1KHCJTZ10ARFLH8ZVWVMQ", "current_trial": 66, "dateTime": 1513115216452, "trialdata": {"rt": -1000, "stimulus": "/static/audio/wordpool/RADISH.wav", "key_press": -1, "type": "PRES_AUD", "word": "radish", "wordID": 1157, "conditions": [18, 1200, "a", 18000], "trial": 1, "serialpos": 11, "trial_type": "single-audio", "trial_index": 66, "time_elapsed": 330730, "internal_node_id": "0.0-48.0"}}, {"uniqueid": "MTK1111:3MHW492WW1KHCJTZ10ARFLH8ZVWVMQ", "current_trial": 67, "dateTime": 1513115218821, "trialdata": {"rt": -1000, "stimulus": "/static/audio/wordpool/SCRIBBLE.wav", "key_press": -1, "type": "PRES_AUD", "word": "scribble", "wordID": 1255, "conditions": [18, 1200, "a", 18000], "trial": 1, "serialpos": 12, "trial_type": "single-audio", "trial_index": 67, "time_elapsed": 333100, "internal_node_id": "0.0-49.0"}}, {"uniqueid": "MTK1111:3MHW492WW1KHCJTZ10ARFLH8ZVWVMQ", "current_trial": 68, "dateTime": 1513115221203, "trialdata": {"rt": -1000, "stimulus": "/static/audio/wordpool/STREAM.wav", "key_press": -1, "type": "PRES_AUD", "word": "stream", "wordID": 1391, "conditions": [18, 1200, "a", 18000], "trial": 1, "serialpos": 13, "trial_type": "single-audio", "trial_index": 68, "time_elapsed": 335480, "internal_node_id": "0.0-50.0"}}, {"uniqueid": "MTK1111:3MHW492WW1KHCJTZ10ARFLH8ZVWVMQ", "current_trial": 69, "dateTime": 1513115223395, "trialdata": {"rt": -1000, "stimulus": "/static/audio/wordpool/BACKBONE.wav", "key_press": -1, "type": "PRES_AUD", "word": "backbone", "wordID": 65, "conditions": [18, 1200, "a", 18000], "trial": 1, "serialpos": 14, "trial_type": "single-audio", "trial_index": 69, "time_elapsed": 337674, "internal_node_id": "0.0-51.0"}}, {"uniqueid": "MTK1111:3MHW492WW1KHCJTZ10ARFLH8ZVWVMQ", "current_trial": 70, "dateTime": 1513115225431, "trialdata": {"rt": -1000, "stimulus": "/static/audio/wordpool/REPORT.wav", "key_press": -1, "type": "PRES_AUD", "word": "report", "wordID": 1183, "conditions": [18, 1200, "a", 18000], "trial": 1, "serialpos": 15, "trial_type": "single-audio", "trial_index": 70, "time_elapsed": 339710, "internal_node_id": "0.0-52.0"}}, {"uniqueid": "MTK1111:3MHW492WW1KHCJTZ10ARFLH8ZVWVMQ", "current_trial": 71, "dateTime": 1513115227626, "trialdata": {"rt": -1000, "stimulus": "/static/audio/wordpool/TUTU.wav", "key_press": -1, "type": "PRES_AUD", "word": "tutu", "wordID": 1523, "conditions": [18, 1200, "a", 18000], "trial": 1, "serialpos": 16, "trial_type": "single-audio", "trial_index": 71, "time_elapsed": 341905, "internal_node_id": "0.0-53.0"}}, {"uniqueid": "MTK1111:3MHW492WW1KHCJTZ10ARFLH8ZVWVMQ", "current_trial": 72, "dateTime": 1513115229792, "trialdata": {"rt": -1000, "stimulus": "/static/audio/wordpool/FLEET.wav", "key_press": -1, "type": "PRES_AUD", "word": "fleet", "wordID": 577, "conditions": [18, 1200, "a", 18000], "trial": 1, "serialpos": 17, "trial_type": "single-audio", "trial_index": 72, "time_elapsed": 344071, "internal_node_id": "0.0-54.0"}}, {"uniqueid": "MTK1111:3MHW492WW1KHCJTZ10ARFLH8ZVWVMQ", "current_trial": 73, "dateTime": 1513115231176, "trialdata": {"rt": -1, "stimulus": "", "key_press": -1, "type": "PRE_RECALL_DELAY", "trial_type": "single-stim", "trial_index": 73, "time_elapsed": 345455, "internal_node_id": "0.0-55.0-0.0"}}, {"uniqueid": "MTK1111:3MHW492WW1KHCJTZ10ARFLH8ZVWVMQ", "current_trial": 74, "dateTime": 1513115231682, "trialdata": {"rt": -1000, "stimulus": "/static/audio/400Hz.wav", "key_press": -1, "type": "PRE_RECALL_ALERT", "trial_type": "single-audio", "trial_index": 74, "time_elapsed": 345961, "internal_node_id": "0.0-56.0"}}, {"uniqueid": "MTK1111:3MHW492WW1KHCJTZ10ARFLH8ZVWVMQ", "current_trial": 75, "dateTime": 1513115291686, "trialdata": {"rt": [2178, 4415, 7116, 9499, 12451, 15743, 18716, 26218], "recwords": ["fleet", "tutu", "backbone", "asia", "stream", "cabin", "jello", "scribble"], "type": "FREE_RECALL", "conditions": [18, 1200, "a", 18000], "trial": 1, "trial_type": "free-recall", "trial_index": 75, "time_elapsed": 405964, "internal_node_id": "0.0-57.0-0.0"}}, {"uniqueid": "MTK1111:3MHW492WW1KHCJTZ10ARFLH8ZVWVMQ", "current_trial": 76, "dateTime": 1513115296005, "trialdata": {"rt": 2315, "key_press": 13, "type": "INSTRUCTIONS", "trial_type": "text", "trial_index": 76, "time_elapsed": 410281, "internal_node_id": "0.0-58.0"}}, {"uniqueid": "MTK1111:3MHW492WW1KHCJTZ10ARFLH8ZVWVMQ", "current_trial": 77, "dateTime": 1513115321009, "trialdata": {"rt": [2457, 4407, 9717, 11490, 14453, 15964, 19482, 22131], "responses": ["9", "10", "26", "16", "23", "9", "13", "10"], "num1": [2, 7, 9, 8, 9, 1, 5, 4, 7], "num2": [2, 2, 9, 2, 9, 7, 6, 3, 6], "num3": [5, 1, 8, 6, 5, 1, 2, 3, 9], "type": "DISTRACTOR", "conditions": [12, 1600, "a", 24000], "trial": 2, "trial_type": "math-distractor", "trial_index": 77, "time_elapsed": 435287, "internal_node_id": "0.0-59.0"}}, {"uniqueid": "MTK1111:3MHW492WW1KHCJTZ10ARFLH8ZVWVMQ", "current_trial": 78, "dateTime": 1513115324010, "trialdata": {"rt": -1, "stimulus": "<p id=\"stim\">10</p>", "key_press": -1, "trial_type": "single-stim", "trial_index": 78, "time_elapsed": 438289, "internal_node_id": "0.0-60.0-0.0"}}, {"uniqueid": "MTK1111:3MHW492WW1KHCJTZ10ARFLH8ZVWVMQ", "current_trial": 79, "dateTime": 1513115325013, "trialdata": {"rt": -1, "stimulus": "<p id=\"stim\">9</p>", "key_press": -1, "trial_type": "single-stim", "trial_index": 79, "time_elapsed": 439292, "internal_node_id": "0.0-60.0-1.0"}}, {"uniqueid": "MTK1111:3MHW492WW1KHCJTZ10ARFLH8ZVWVMQ", "current_trial": 80, "dateTime": 1513115326014, "trialdata": {"rt": -1, "stimulus": "<p id=\"stim\">8</p>", "key_press": -1, "trial_type": "single-stim", "trial_index": 80, "time_elapsed": 440293, "internal_node_id": "0.0-60.0-2.0"}}, {"uniqueid": "MTK1111:3MHW492WW1KHCJTZ10ARFLH8ZVWVMQ", "current_trial": 81, "dateTime": 1513115327015, "trialdata": {"rt": -1, "stimulus": "<p id=\"stim\">7</p>", "key_press": -1, "trial_type": "single-stim", "trial_index": 81, "time_elapsed": 441294, "internal_node_id": "0.0-60.0-3.0"}}, {"uniqueid": "MTK1111:3MHW492WW1KHCJTZ10ARFLH8ZVWVMQ", "current_trial": 82, "dateTime": 1513115328018, "trialdata": {"rt": -1, "stimulus": "<p id=\"stim\">6</p>", "key_press": -1, "trial_type": "single-stim", "trial_index": 82, "time_elapsed": 442296, "internal_node_id": "0.0-60.0-4.0"}}, {"uniqueid": "MTK1111:3MHW492WW1KHCJTZ10ARFLH8ZVWVMQ", "current_trial": 83, "dateTime": 1513115329018, "trialdata": {"rt": -1, "stimulus": "<p id=\"stim\">5</p>", "key_press": -1, "trial_type": "single-stim", "trial_index": 83, "time_elapsed": 443297, "internal_node_id": "0.0-60.0-5.0"}}, {"uniqueid": "MTK1111:3MHW492WW1KHCJTZ10ARFLH8ZVWVMQ", "current_trial": 84, "dateTime": 1513115330020, "trialdata": {"rt": -1, "stimulus": "<p id=\"stim\">4</p>", "key_press": -1, "trial_type": "single-stim", "trial_index": 84, "time_elapsed": 444299, "internal_node_id": "0.0-60.0-6.0"}}, {"uniqueid": "MTK1111:3MHW492WW1KHCJTZ10ARFLH8ZVWVMQ", "current_trial": 85, "dateTime": 1513115331021, "trialdata": {"rt": -1, "stimulus": "<p id=\"stim\">3</p>", "key_press": -1, "trial_type": "single-stim", "trial_index": 85, "time_elapsed": 445300, "internal_node_id": "0.0-60.0-7.0"}}, {"uniqueid": "MTK1111:3MHW492WW1KHCJTZ10ARFLH8ZVWVMQ", "current_trial": 86, "dateTime": 1513115332022, "trialdata": {"rt": -1, "stimulus": "<p id=\"stim\">2</p>", "key_press": -1, "trial_type": "single-stim", "trial_index": 86, "time_elapsed": 446301, "internal_node_id": "0.0-60.0-8.0"}}, {"uniqueid": "MTK1111:3MHW492WW1KHCJTZ10ARFLH8ZVWVMQ", "current_trial": 87, "dateTime": 1513115333024, "trialdata": {"rt": -1, "stimulus": "<p id=\"stim\">1</p>", "key_press": -1, "trial_type": "single-stim", "trial_index": 87, "time_elapsed": 447303, "internal_node_id": "0.0-60.0-9.0"}}, {"uniqueid": "MTK1111:3MHW492WW1KHCJTZ10ARFLH8ZVWVMQ", "current_trial": 88, "dateTime": 1513115334525, "trialdata": {"rt": -1, "stimulus": "<p id=\"stim\">+</p>", "key_press": -1, "type": "FIXATION", "trial_type": "single-stim", "trial_index": 88, "time_elapsed": 448804, "internal_node_id": "0.0-61.0-0.0"}}, {"uniqueid": "MTK1111:3MHW492WW1KHCJTZ10ARFLH8ZVWVMQ", "current_trial": 89, "dateTime": 1513115337251, "trialdata": {"rt": -1000, "stimulus": "/static/audio/wordpool/SISTER.wav", "key_press": -1, "type": "PRES_AUD", "word": "sister", "wordID": 1311, "conditions": [12, 1600, "a", 24000], "trial": 2, "serialpos": 0, "trial_type": "single-audio", "trial_index": 89, "time_elapsed": 451530, "internal_node_id": "0.0-62.0"}}, {"uniqueid": "MTK1111:3MHW492WW1KHCJTZ10ARFLH8ZVWVMQ", "current_trial": 90, "dateTime": 1513115339781, "trialdata": {"rt": -1000, "stimulus": "/static/audio/wordpool/CIGAR.wav", "key_press": -1, "type": "PRES_AUD", "word": "cigar", "wordID": 307, "conditions": [12, 1600, "a", 24000], "trial": 2, "serialpos": 1, "trial_type": "single-audio", "trial_index": 90, "time_elapsed": 454059, "internal_node_id": "0.0-63.0"}}, {"uniqueid": "MTK1111:3MHW492WW1KHCJTZ10ARFLH8ZVWVMQ", "current_trial": 91, "dateTime": 1513115342478, "trialdata": {"rt": -1000, "stimulus": "/static/audio/wordpool/CHAUFFEUR.wav", "key_press": -1, "type": "PRES_AUD", "word": "chauffeur", "wordID": 282, "conditions": [12, 1600, "a", 24000], "trial": 2, "serialpos": 2, "trial_type": "single-audio", "trial_index": 91, "time_elapsed": 456757, "internal_node_id": "0.0-64.0"}}, {"uniqueid": "MTK1111:3MHW492WW1KHCJTZ10ARFLH8ZVWVMQ", "current_trial": 92, "dateTime": 1513115344908, "trialdata": {"rt": -1000, "stimulus": "/static/audio/wordpool/SNACK.wav", "key_press": -1, "type": "PRES_AUD", "word": "snack", "wordID": 1330, "conditions": [12, 1600, "a", 24000], "trial": 2, "serialpos": 3, "trial_type": "single-audio", "trial_index": 92, "time_elapsed": 459187, "internal_node_id": "0.0-65.0"}}, {"uniqueid": "MTK1111:3MHW492WW1KHCJTZ10ARFLH8ZVWVMQ", "current_trial": 93, "dateTime": 1513115347603, "trialdata": {"rt": -1000, "stimulus": "/static/audio/wordpool/BEEF.wav", "key_press": -1, "type": "PRES_AUD", "word": "beef", "wordID": 112, "conditions": [12, 1600, "a", 24000], "trial": 2, "serialpos": 4, "trial_type": "single-audio", "trial_index": 93, "time_elapsed": 461881, "internal_node_id": "0.0-66.0"}}, {"uniqueid": "MTK1111:3MHW492WW1KHCJTZ10ARFLH8ZVWVMQ", "current_trial": 94, "dateTime": 1513115350408, "trialdata": {"rt": -1000, "stimulus": "/static/audio/wordpool/SPARROW.wav", "key_press": -1, "type": "PRES_AUD", "word": "sparrow", "wordID": 1346, "conditions": [12, 1600, "a", 24000], "trial": 2, "serialpos": 5, "trial_type": "single-audio", "trial_index": 94, "time_elapsed": 464687, "internal_node_id": "0.0-67.0"}}, {"uniqueid": "MTK1111:3MHW492WW1KHCJTZ10ARFLH8ZVWVMQ", "current_trial": 95, "dateTime": 1513115352990, "trialdata": {"rt": -1000, "stimulus": "/static/audio/wordpool/PUPPY.wav", "key_press": -1, "type": "PRES_AUD", "word": "puppy", "wordID": 1143, "conditions": [12, 1600, "a", 24000], "trial": 2, "serialpos": 6, "trial_type": "single-audio", "trial_index": 95, "time_elapsed": 467269, "internal_node_id": "0.0-68.0"}}, {"uniqueid": "MTK1111:3MHW492WW1KHCJTZ10ARFLH8ZVWVMQ", "current_trial": 96, "dateTime": 1513115355688, "trialdata": {"rt": -1000, "stimulus": "/static/audio/wordpool/DINER.wav", "key_press": -1, "type": "PRES_AUD", "word": "diner", "wordID": 466, "conditions": [12, 1600, "a", 24000], "trial": 2, "serialpos": 7, "trial_type": "single-audio", "trial_index": 96, "time_elapsed": 469967, "internal_node_id": "0.0-69.0"}}, {"uniqueid": "MTK1111:3MHW492WW1KHCJTZ10ARFLH8ZVWVMQ", "current_trial": 97, "dateTime": 1513115358432, "trialdata": {"rt": -1000, "stimulus": "/static/audio/wordpool/BASEMENT.wav", "key_press": -1, "type": "PRES_AUD", "word": "basement", "wordID": 93, "conditions": [12, 1600, "a", 24000], "trial": 2, "serialpos": 8, "trial_type": "single-audio", "trial_index": 97, "time_elapsed": 472711, "internal_node_id": "0.0-70.0"}}, {"uniqueid": "MTK1111:3MHW492WW1KHCJTZ10ARFLH8ZVWVMQ", "current_trial": 98, "dateTime": 1513115360917, "trialdata": {"rt": -1000, "stimulus": "/static/audio/wordpool/CELLAR.wav", "key_press": -1, "type": "PRES_AUD", "word": "cellar", "wordID": 266, "conditions": [12, 1600, "a", 24000], "trial": 2, "serialpos": 9, "trial_type": "single-audio", "trial_index": 98, "time_elapsed": 475196, "internal_node_id": "0.0-71.0"}}, {"uniqueid": "MTK1111:3MHW492WW1KHCJTZ10ARFLH8ZVWVMQ", "current_trial": 99, "dateTime": 1513115363405, "trialdata": {"rt": -1000, "stimulus": "/static/audio/wordpool/ULCER.wav", "key_press": -1, "type": "PRES_AUD", "word": "ulcer", "wordID": 1532, "conditions": [12, 1600, "a", 24000], "trial": 2, "serialpos": 10, "trial_type": "single-audio", "trial_index": 99, "time_elapsed": 477684, "internal_node_id": "0.0-72.0"}}, {"uniqueid": "MTK1111:3MHW492WW1KHCJTZ10ARFLH8ZVWVMQ", "current_trial": 100, "dateTime": 1513115366049, "trialdata": {"rt": -1000, "stimulus": "/static/audio/wordpool/BROTHER.wav", "key_press": -1, "type": "PRES_AUD", "word": "brother", "wordID": 178, "conditions": [12, 1600, "a", 24000], "trial": 2, "serialpos": 11, "trial_type": "single-audio", "trial_index": 100, "time_elapsed": 480328, "internal_node_id": "0.0-73.0"}}, {"uniqueid": "MTK1111:3MHW492WW1KHCJTZ10ARFLH8ZVWVMQ", "current_trial": 101, "dateTime": 1513115367325, "trialdata": {"rt": -1, "stimulus": "", "key_press": -1, "type": "PRE_RECALL_DELAY", "trial_type": "single-stim", "trial_index": 101, "time_elapsed": 481604, "internal_node_id": "0.0-74.0-0.0"}}, {"uniqueid": "MTK1111:3MHW492WW1KHCJTZ10ARFLH8ZVWVMQ", "current_trial": 102, "dateTime": 1513115367826, "trialdata": {"rt": -1000, "stimulus": "/static/audio/400Hz.wav", "key_press": -1, "type": "PRE_RECALL_ALERT", "trial_type": "single-audio", "trial_index": 102, "time_elapsed": 482105, "internal_node_id": "0.0-75.0"}}, {"uniqueid": "MTK1111:3MHW492WW1KHCJTZ10ARFLH8ZVWVMQ", "current_trial": 103, "dateTime": 1513115427830, "trialdata": {"rt": [2756, 4886, 6996, 8688, 10104, 11714, 18481], "recwords": ["brother", "sister", "basement", "cellar", "diner", "ulcer", "beef"], "type": "FREE_RECALL", "conditions": [12, 1600, "a", 24000], "trial": 2, "trial_type": "free-recall", "trial_index": 103, "time_elapsed": 542107, "internal_node_id": "0.0-76.0-0.0"}}, {"uniqueid": "MTK1111:3MHW492WW1KHCJTZ10ARFLH8ZVWVMQ", "current_trial": 104, "dateTime": 1513115431027, "trialdata": {"rt": 1194, "key_press": 13, "type": "INSTRUCTIONS", "trial_type": "text", "trial_index": 104, "time_elapsed": 545306, "internal_node_id": "0.0-77.0"}}, {"uniqueid": "MTK1111:3MHW492WW1KHCJTZ10ARFLH8ZVWVMQ", "current_trial": 105, "dateTime": 1513115445029, "trialdata": {"rt": [1944, 4861, 7184, 9531, 11083], "responses": ["16", "17", "9", "19", "15"], "num1": [5, 5, 4, 4, 5, 5], "num2": [5, 8, 3, 6, 8, 7], "num3": [6, 4, 2, 9, 2, 3], "type": "DISTRACTOR", "conditions": [12, 800, "a", 12000], "trial": 3, "trial_type": "math-distractor", "trial_index": 105, "time_elapsed": 559308, "internal_node_id": "0.0-78.0"}}, {"uniqueid": "MTK1111:3MHW492WW1KHCJTZ10ARFLH8ZVWVMQ", "current_trial": 106, "dateTime": 1513115448031, "trialdata": {"rt": -1, "stimulus": "<p id=\"stim\">10</p>", "key_press": -1, "trial_type": "single-stim", "trial_index": 106, "time_elapsed": 562310, "internal_node_id": "0.0-79.0-0.0"}}, {"uniqueid": "MTK1111:3MHW492WW1KHCJTZ10ARFLH8ZVWVMQ", "current_trial": 107, "dateTime": 1513115449033, "trialdata": {"rt": -1, "stimulus": "<p id=\"stim\">9</p>", "key_press": -1, "trial_type": "single-stim", "trial_index": 107, "time_elapsed": 563312, "internal_node_id": "0.0-79.0-1.0"}}, {"uniqueid": "MTK1111:3MHW492WW1KHCJTZ10ARFLH8ZVWVMQ", "current_trial": 108, "dateTime": 1513115450034, "trialdata": {"rt": -1, "stimulus": "<p id=\"stim\">8</p>", "key_press": -1, "trial_type": "single-stim", "trial_index": 108, "time_elapsed": 564313, "internal_node_id": "0.0-79.0-2.0"}}, {"uniqueid": "MTK1111:3MHW492WW1KHCJTZ10ARFLH8ZVWVMQ", "current_trial": 109, "dateTime": 1513115451036, "trialdata": {"rt": -1, "stimulus": "<p id=\"stim\">7</p>", "key_press": -1, "trial_type": "single-stim", "trial_index": 109, "time_elapsed": 565315, "internal_node_id": "0.0-79.0-3.0"}}, {"uniqueid": "MTK1111:3MHW492WW1KHCJTZ10ARFLH8ZVWVMQ", "current_trial": 110, "dateTime": 1513115452037, "trialdata": {"rt": -1, "stimulus": "<p id=\"stim\">6</p>", "key_press": -1, "trial_type": "single-stim", "trial_index": 110, "time_elapsed": 566316, "internal_node_id": "0.0-79.0-4.0"}}, {"uniqueid": "MTK1111:3MHW492WW1KHCJTZ10ARFLH8ZVWVMQ", "current_trial": 111, "dateTime": 1513115453039, "trialdata": {"rt": -1, "stimulus": "<p id=\"stim\">5</p>", "key_press": -1, "trial_type": "single-stim", "trial_index": 111, "time_elapsed": 567318, "internal_node_id": "0.0-79.0-5.0"}}, {"uniqueid": "MTK1111:3MHW492WW1KHCJTZ10ARFLH8ZVWVMQ", "current_trial": 112, "dateTime": 1513115454040, "trialdata": {"rt": -1, "stimulus": "<p id=\"stim\">4</p>", "key_press": -1, "trial_type": "single-stim", "trial_index": 112, "time_elapsed": 568319, "internal_node_id": "0.0-79.0-6.0"}}, {"uniqueid": "MTK1111:3MHW492WW1KHCJTZ10ARFLH8ZVWVMQ", "current_trial": 113, "dateTime": 1513115455042, "trialdata": {"rt": -1, "stimulus": "<p id=\"stim\">3</p>", "key_press": -1, "trial_type": "single-stim", "trial_index": 113, "time_elapsed": 569321, "internal_node_id": "0.0-79.0-7.0"}}, {"uniqueid": "MTK1111:3MHW492WW1KHCJTZ10ARFLH8ZVWVMQ", "current_trial": 114, "dateTime": 1513115456042, "trialdata": {"rt": -1, "stimulus": "<p id=\"stim\">2</p>", "key_press": -1, "trial_type": "single-stim", "trial_index": 114, "time_elapsed": 570321, "internal_node_id": "0.0-79.0-8.0"}}, {"uniqueid": "MTK1111:3MHW492WW1KHCJTZ10ARFLH8ZVWVMQ", "current_trial": 115, "dateTime": 1513115457043, "trialdata": {"rt": -1, "stimulus": "<p id=\"stim\">1</p>", "key_press": -1, "trial_type": "single-stim", "trial_index": 115, "time_elapsed": 571322, "internal_node_id": "0.0-79.0-9.0"}}, {"uniqueid": "MTK1111:3MHW492WW1KHCJTZ10ARFLH8ZVWVMQ", "current_trial": 116, "dateTime": 1513115458544, "trialdata": {"rt": -1, "stimulus": "<p id=\"stim\">+</p>", "key_press": -1, "type": "FIXATION", "trial_type": "single-stim", "trial_index": 116, "time_elapsed": 572823, "internal_node_id": "0.0-80.0-0.0"}}, {"uniqueid": "MTK1111:3MHW492WW1KHCJTZ10ARFLH8ZVWVMQ", "current_trial": 117, "dateTime": 1513115460391, "trialdata": {"rt": -1000, "stimulus": "/static/audio/wordpool/SUNRISE.wav", "key_press": -1, "type": "PRES_AUD", "word": "sunrise", "wordID": 1406, "conditions": [12, 800, "a", 12000], "trial": 3, "serialpos": 0, "trial_type": "single-audio", "trial_index": 117, "time_elapsed": 574670, "internal_node_id": "0.0-81.0"}}, {"uniqueid": "MTK1111:3MHW492WW1KHCJTZ10ARFLH8ZVWVMQ", "current_trial": 118, "dateTime": 1513115462167, "trialdata": {"rt": -1000, "stimulus": "/static/audio/wordpool/CRAB.wav", "key_press": -1, "type": "PRES_AUD", "word": "crab", "wordID": 396, "conditions": [12, 800, "a", 12000], "trial": 3, "serialpos": 1, "trial_type": "single-audio", "trial_index": 118, "time_elapsed": 576446, "internal_node_id": "0.0-82.0"}}, {"uniqueid": "MTK1111:3MHW492WW1KHCJTZ10ARFLH8ZVWVMQ", "current_trial": 119, "dateTime": 1513115463862, "trialdata": {"rt": -1000, "stimulus": "/static/audio/wordpool/FEMALE.wav", "key_press": -1, "type": "PRES_AUD", "word": "female", "wordID": 558, "conditions": [12, 800, "a", 12000], "trial": 3, "serialpos": 2, "trial_type": "single-audio", "trial_index": 119, "time_elapsed": 578141, "internal_node_id": "0.0-83.0"}}, {"uniqueid": "MTK1111:3MHW492WW1KHCJTZ10ARFLH8ZVWVMQ", "current_trial": 120, "dateTime": 1513115465767, "trialdata": {"rt": -1000, "stimulus": "/static/audio/wordpool/TAXI.wav", "key_press": -1, "type": "PRES_AUD", "word": "taxi", "wordID": 1437, "conditions": [12, 800, "a", 12000], "trial": 3, "serialpos": 3, "trial_type": "single-audio", "trial_index": 120, "time_elapsed": 580046, "internal_node_id": "0.0-84.0"}}, {"uniqueid": "MTK1111:3MHW492WW1KHCJTZ10ARFLH8ZVWVMQ", "current_trial": 121, "dateTime": 1513115467734, "trialdata": {"rt": -1000, "stimulus": "/static/audio/wordpool/JELLY.wav", "key_press": -1, "type": "PRES_AUD", "word": "jelly", "wordID": 754, "conditions": [12, 800, "a", 12000], "trial": 3, "serialpos": 4, "trial_type": "single-audio", "trial_index": 121, "time_elapsed": 582012, "internal_node_id": "0.0-85.0"}}, {"uniqueid": "MTK1111:3MHW492WW1KHCJTZ10ARFLH8ZVWVMQ", "current_trial": 122, "dateTime": 1513115469424, "trialdata": {"rt": -1000, "stimulus": "/static/audio/wordpool/CUSTARD.wav", "key_press": -1, "type": "PRES_AUD", "word": "custard", "wordID": 428, "conditions": [12, 800, "a", 12000], "trial": 3, "serialpos": 5, "trial_type": "single-audio", "trial_index": 122, "time_elapsed": 583703, "internal_node_id": "0.0-86.0"}}, {"uniqueid": "MTK1111:3MHW492WW1KHCJTZ10ARFLH8ZVWVMQ", "current_trial": 123, "dateTime": 1513115471125, "trialdata": {"rt": -1000, "stimulus": "/static/audio/wordpool/CHIPMUNK.wav", "key_press": -1, "type": "PRES_AUD", "word": "chipmunk", "wordID": 303, "conditions": [12, 800, "a", 12000], "trial": 3, "serialpos": 6, "trial_type": "single-audio", "trial_index": 123, "time_elapsed": 585404, "internal_node_id": "0.0-87.0"}}, {"uniqueid": "MTK1111:3MHW492WW1KHCJTZ10ARFLH8ZVWVMQ", "current_trial": 124, "dateTime": 1513115472906, "trialdata": {"rt": -1000, "stimulus": "/static/audio/wordpool/COUSIN.wav", "key_press": -1, "type": "PRES_AUD", "word": "cousin", "wordID": 391, "conditions": [12, 800, "a", 12000], "trial": 3, "serialpos": 7, "trial_type": "single-audio", "trial_index": 124, "time_elapsed": 587185, "internal_node_id": "0.0-88.0"}}, {"uniqueid": "MTK1111:3MHW492WW1KHCJTZ10ARFLH8ZVWVMQ", "current_trial": 125, "dateTime": 1513115474918, "trialdata": {"rt": -1000, "stimulus": "/static/audio/wordpool/WAITRESS.wav", "key_press": -1, "type": "PRES_AUD", "word": "waitress", "wordID": 1580, "conditions": [12, 800, "a", 12000], "trial": 3, "serialpos": 8, "trial_type": "single-audio", "trial_index": 125, "time_elapsed": 589197, "internal_node_id": "0.0-89.0"}}, {"uniqueid": "MTK1111:3MHW492WW1KHCJTZ10ARFLH8ZVWVMQ", "current_trial": 126, "dateTime": 1513115476557, "trialdata": {"rt": -1000, "stimulus": "/static/audio/wordpool/WAITER.wav", "key_press": -1, "type": "PRES_AUD", "word": "waiter", "wordID": 1579, "conditions": [12, 800, "a", 12000], "trial": 3, "serialpos": 9, "trial_type": "single-audio", "trial_index": 126, "time_elapsed": 590836, "internal_node_id": "0.0-90.0"}}, {"uniqueid": "MTK1111:3MHW492WW1KHCJTZ10ARFLH8ZVWVMQ", "current_trial": 127, "dateTime": 1513115478217, "trialdata": {"rt": -1000, "stimulus": "/static/audio/wordpool/SUNSET.wav", "key_press": -1, "type": "PRES_AUD", "word": "sunset", "wordID": 1407, "conditions": [12, 800, "a", 12000], "trial": 3, "serialpos": 10, "trial_type": "single-audio", "trial_index": 127, "time_elapsed": 592496, "internal_node_id": "0.0-91.0"}}, {"uniqueid": "MTK1111:3MHW492WW1KHCJTZ10ARFLH8ZVWVMQ", "current_trial": 128, "dateTime": 1513115480023, "trialdata": {"rt": -1000, "stimulus": "/static/audio/wordpool/CANDY.wav", "key_press": -1, "type": "PRES_AUD", "word": "candy", "wordID": 229, "conditions": [12, 800, "a", 12000], "trial": 3, "serialpos": 11, "trial_type": "single-audio", "trial_index": 128, "time_elapsed": 594302, "internal_node_id": "0.0-92.0"}}, {"uniqueid": "MTK1111:3MHW492WW1KHCJTZ10ARFLH8ZVWVMQ", "current_trial": 129, "dateTime": 1513115481305, "trialdata": {"rt": -1, "stimulus": "", "key_press": -1, "type": "PRE_RECALL_DELAY", "trial_type": "single-stim", "trial_index": 129, "time_elapsed": 595584, "internal_node_id": "0.0-93.0-0.0"}}, {"uniqueid": "MTK1111:3MHW492WW1KHCJTZ10ARFLH8ZVWVMQ", "current_trial": 130, "dateTime": 1513115481807, "trialdata": {"rt": -1000, "stimulus": "/static/audio/400Hz.wav", "key_press": -1, "type": "PRE_RECALL_ALERT", "trial_type": "single-audio", "trial_index": 130, "time_elapsed": 596086, "internal_node_id": "0.0-94.0"}}, {"uniqueid": "MTK1111:3MHW492WW1KHCJTZ10ARFLH8ZVWVMQ", "current_trial": 131, "dateTime": 1513115541812, "trialdata": {"rt": [1491, 3378, 5588, 8051, 18162, 20175, 28972], "recwords": ["candy", "sunset", "cousin", "jelly", "waitress", "waiter", "custard"], "type": "FREE_RECALL", "conditions": [12, 800, "a", 12000], "trial": 3, "trial_type": "free-recall", "trial_index": 131, "time_elapsed": 656089, "internal_node_id": "0.0-95.0-0.0"}}, {"uniqueid": "MTK1111:3MHW492WW1KHCJTZ10ARFLH8ZVWVMQ", "current_trial": 132, "dateTime": 1513115545201, "trialdata": {"rt": 1389, "key_press": 222, "type": "INSTRUCTIONS", "trial_type": "text", "trial_index": 132, "time_elapsed": 659480, "internal_node_id": "0.0-96.0"}}, {"uniqueid": "MTK1111:3MHW492WW1KHCJTZ10ARFLH8ZVWVMQ", "current_trial": 133, "dateTime": 1513115571204, "trialdata": {"rt": [2230, 4006, 5820, 8461, 9882, 11555, 13714, 18550, 21100, 23133], "responses": ["18", "15", "10", "13", "12", "10", "14", "21", "15", "18"], "num1": [6, 5, 6, 2, 6, 2, 7, 7, 4, 4, 2], "num2": [8, 2, 2, 7, 4, 4, 2, 9, 7, 6, 8], "num3": [4, 8, 2, 4, 2, 4, 5, 5, 4, 8, 2], "type": "DISTRACTOR", "conditions": [12, 1600, "v", 24000], "trial": 4, "trial_type": "math-distractor", "trial_index": 133, "time_elapsed": 685482, "internal_node_id": "0.0-97.0"}}, {"uniqueid": "MTK1111:3MHW492WW1KHCJTZ10ARFLH8ZVWVMQ", "current_trial": 134, "dateTime": 1513115574205, "trialdata": {"rt": -1, "stimulus": "<p id=\"stim\">10</p>", "key_press": -1, "trial_type": "single-stim", "trial_index": 134, "time_elapsed": 688484, "internal_node_id": "0.0-98.0-0.0"}}, {"uniqueid": "MTK1111:3MHW492WW1KHCJTZ10ARFLH8ZVWVMQ", "current_trial": 135, "dateTime": 1513115575206, "trialdata": {"rt": -1, "stimulus": "<p id=\"stim\">9</p>", "key_press": -1, "trial_type": "single-stim", "trial_index": 135, "time_elapsed": 689485, "internal_node_id": "0.0-98.0-1.0"}}, {"uniqueid": "MTK1111:3MHW492WW1KHCJTZ10ARFLH8ZVWVMQ", "current_trial": 136, "dateTime": 1513115576207, "trialdata": {"rt": -1, "stimulus": "<p id=\"stim\">8</p>", "key_press": -1, "trial_type": "single-stim", "trial_index": 136, "time_elapsed": 690486, "internal_node_id": "0.0-98.0-2.0"}}, {"uniqueid": "MTK1111:3MHW492WW1KHCJTZ10ARFLH8ZVWVMQ", "current_trial": 137, "dateTime": 1513115577208, "trialdata": {"rt": -1, "stimulus": "<p id=\"stim\">7</p>", "key_press": -1, "trial_type": "single-stim", "trial_index": 137, "time_elapsed": 691487, "internal_node_id": "0.0-98.0-3.0"}}, {"uniqueid": "MTK1111:3MHW492WW1KHCJTZ10ARFLH8ZVWVMQ", "current_trial": 138, "dateTime": 1513115578210, "trialdata": {"rt": -1, "stimulus": "<p id=\"stim\">6</p>", "key_press": -1, "trial_type": "single-stim", "trial_index": 138, "time_elapsed": 692488, "internal_node_id": "0.0-98.0-4.0"}}, {"uniqueid": "MTK1111:3MHW492WW1KHCJTZ10ARFLH8ZVWVMQ", "current_trial": 139, "dateTime": 1513115579211, "trialdata": {"rt": -1, "stimulus": "<p id=\"stim\">5</p>", "key_press": -1, "trial_type": "single-stim", "trial_index": 139, "time_elapsed": 693490, "internal_node_id": "0.0-98.0-5.0"}}, {"uniqueid": "MTK1111:3MHW492WW1KHCJTZ10ARFLH8ZVWVMQ", "current_trial": 140, "dateTime": 1513115580212, "trialdata": {"rt": -1, "stimulus": "<p id=\"stim\">4</p>", "key_press": -1, "trial_type": "single-stim", "trial_index": 140, "time_elapsed": 694491, "internal_node_id": "0.0-98.0-6.0"}}, {"uniqueid": "MTK1111:3MHW492WW1KHCJTZ10ARFLH8ZVWVMQ", "current_trial": 141, "dateTime": 1513115581213, "trialdata": {"rt": -1, "stimulus": "<p id=\"stim\">3</p>", "key_press": -1, "trial_type": "single-stim", "trial_index": 141, "time_elapsed": 695492, "internal_node_id": "0.0-98.0-7.0"}}, {"uniqueid": "MTK1111:3MHW492WW1KHCJTZ10ARFLH8ZVWVMQ", "current_trial": 142, "dateTime": 1513115582214, "trialdata": {"rt": -1, "stimulus": "<p id=\"stim\">2</p>", "key_press": -1, "trial_type": "single-stim", "trial_index": 142, "time_elapsed": 696493, "internal_node_id": "0.0-98.0-8.0"}}, {"uniqueid": "MTK1111:3MHW492WW1KHCJTZ10ARFLH8ZVWVMQ", "current_trial": 143, "dateTime": 1513115583215, "trialdata": {"rt": -1, "stimulus": "<p id=\"stim\">1</p>", "key_press": -1, "trial_type": "single-stim", "trial_index": 143, "time_elapsed": 697494, "internal_node_id": "0.0-98.0-9.0"}}, {"uniqueid": "MTK1111:3MHW492WW1KHCJTZ10ARFLH8ZVWVMQ", "current_trial": 144, "dateTime": 1513115584717, "trialdata": {"rt": -1, "stimulus": "<p id=\"stim\">+</p>", "key_press": -1, "type": "FIXATION", "trial_type": "single-stim", "trial_index": 144, "time_elapsed": 698996, "internal_node_id": "0.0-99.0-0.0"}}, {"uniqueid": "MTK1111:3MHW492WW1KHCJTZ10ARFLH8ZVWVMQ", "current_trial": 145, "dateTime": 1513115586318, "trialdata": {"rt": -1, "stimulus": "<p id=\"stim\">ROBIN</p>", "key_press": -1, "type": "PRES_VIS", "word": "robin", "wordID": 1198, "conditions": [12, 1600, "v", 24000], "trial": 4, "serialpos": 0, "trial_type": "single-stim", "trial_index": 145, "time_elapsed": 700597, "internal_node_id": "0.0-100.0"}}, {"uniqueid": "MTK1111:3MHW492WW1KHCJTZ10ARFLH8ZVWVMQ", "current_trial": 146, "dateTime": 1513115588785, "trialdata": {"rt": -1, "stimulus": "<p id=\"stim\">TUBA</p>", "key_press": -1, "type": "PRES_VIS", "word": "tuba", "wordID": 1514, "conditions": [12, 1600, "v", 24000], "trial": 4, "serialpos": 1, "trial_type": "single-stim", "trial_index": 146, "time_elapsed": 703064, "internal_node_id": "0.0-101.0"}}, {"uniqueid": "MTK1111:3MHW492WW1KHCJTZ10ARFLH8ZVWVMQ", "current_trial": 147, "dateTime": 1513115591559, "trialdata": {"rt": -1, "stimulus": "<p id=\"stim\">CONCERT</p>", "key_press": -1, "type": "PRES_VIS", "word": "concert", "wordID": 359, "conditions": [12, 1600, "v", 24000], "trial": 4, "serialpos": 2, "trial_type": "single-stim", "trial_index": 147, "time_elapsed": 705838, "internal_node_id": "0.0-102.0"}}, {"uniqueid": "MTK1111:3MHW492WW1KHCJTZ10ARFLH8ZVWVMQ", "current_trial": 148, "dateTime": 1513115594354, "trialdata": {"rt": -1, "stimulus": "<p id=\"stim\">STAMP</p>", "key_press": -1, "type": "PRES_VIS", "word": "stamp", "wordID": 1369, "conditions": [12, 1600, "v", 24000], "trial": 4, "serialpos": 3, "trial_type": "single-stim", "trial_index": 148, "time_elapsed": 708633, "internal_node_id": "0.0-103.0"}}, {"uniqueid": "MTK1111:3MHW492WW1KHCJTZ10ARFLH8ZVWVMQ", "current_trial": 149, "dateTime": 1513115596789, "trialdata": {"rt": -1, "stimulus": "<p id=\"stim\">ANTLER</p>", "key_press": -1, "type": "PRES_VIS", "word": "antler", "wordID": 28, "conditions": [12, 1600, "v", 24000], "trial": 4, "serialpos": 4, "trial_type": "single-stim", "trial_index": 149, "time_elapsed": 711067, "internal_node_id": "0.0-104.0"}}, {"uniqueid": "MTK1111:3MHW492WW1KHCJTZ10ARFLH8ZVWVMQ", "current_trial": 150, "dateTime": 1513115599399, "trialdata": {"rt": -1, "stimulus": "<p id=\"stim\">STOMACH</p>", "key_press": -1, "type": "PRES_VIS", "word": "stomach", "wordID": 1383, "conditions": [12, 1600, "v", 24000], "trial": 4, "serialpos": 5, "trial_type": "single-stim", "trial_index": 150, "time_elapsed": 713677, "internal_node_id": "0.0-105.0"}}, {"uniqueid": "MTK1111:3MHW492WW1KHCJTZ10ARFLH8ZVWVMQ", "current_trial": 151, "dateTime": 1513115601899, "trialdata": {"rt": -1, "stimulus": "<p id=\"stim\">TROUT</p>", "key_press": -1, "type": "PRES_VIS", "word": "trout", "wordID": 1510, "conditions": [12, 1600, "v", 24000], "trial": 4, "serialpos": 6, "trial_type": "single-stim", "trial_index": 151, "time_elapsed": 716178, "internal_node_id": "0.0-106.0"}}, {"uniqueid": "MTK1111:3MHW492WW1KHCJTZ10ARFLH8ZVWVMQ", "current_trial": 152, "dateTime": 1513115604566, "trialdata": {"rt": -1, "stimulus": "<p id=\"stim\">WASP</p>", "key_press": -1, "type": "PRES_VIS", "word": "wasp", "wordID": 1592, "conditions": [12, 1600, "v", 24000], "trial": 4, "serialpos": 7, "trial_type": "single-stim", "trial_index": 152, "time_elapsed": 718845, "internal_node_id": "0.0-107.0"}}, {"uniqueid": "MTK1111:3MHW492WW1KHCJTZ10ARFLH8ZVWVMQ", "current_trial": 153, "dateTime": 1513115607072, "trialdata": {"rt": -1, "stimulus": "<p id=\"stim\">MISSILE</p>", "key_press": -1, "type": "PRES_VIS", "word": "missile", "wordID": 899, "conditions": [12, 1600, "v", 24000], "trial": 4, "serialpos": 8, "trial_type": "single-stim", "trial_index": 153, "time_elapsed": 721351, "internal_node_id": "0.0-108.0"}}, {"uniqueid": "MTK1111:3MHW492WW1KHCJTZ10ARFLH8ZVWVMQ", "current_trial": 154, "dateTime": 1513115609765, "trialdata": {"rt": -1, "stimulus": "<p id=\"stim\">ROCKET</p>", "key_press": -1, "type": "PRES_VIS", "word": "rocket", "wordID": 1201, "conditions": [12, 1600, "v", 24000], "trial": 4, "serialpos": 9, "trial_type": "single-stim", "trial_index": 154, "time_elapsed": 724044, "internal_node_id": "0.0-109.0"}}, {"uniqueid": "MTK1111:3MHW492WW1KHCJTZ10ARFLH8ZVWVMQ", "current_trial": 155, "dateTime": 1513115612334, "trialdata": {"rt": -1, "stimulus": "<p id=\"stim\">PLAZA</p>", "key_press": -1, "type": "PRES_VIS", "word": "plaza", "wordID": 1087, "conditions": [12, 1600, "v", 24000], "trial": 4, "serialpos": 10, "trial_type": "single-stim", "trial_index": 155, "time_elapsed": 726613, "internal_node_id": "0.0-110.0"}}, {"uniqueid": "MTK1111:3MHW492WW1KHCJTZ10ARFLH8ZVWVMQ", "current_trial": 156, "dateTime": 1513115615071, "trialdata": {"rt": -1, "stimulus": "<p id=\"stim\">NAPKIN</p>", "key_press": -1, "type": "PRES_VIS", "word": "napkin", "wordID": 936, "conditions": [12, 1600, "v", 24000], "trial": 4, "serialpos": 11, "trial_type": "single-stim", "trial_index": 156, "time_elapsed": 729350, "internal_node_id": "0.0-111.0"}}, {"uniqueid": "MTK1111:3MHW492WW1KHCJTZ10ARFLH8ZVWVMQ", "current_trial": 157, "dateTime": 1513115617334, "trialdata": {"rt": -1, "stimulus": "", "key_press": -1, "type": "PRE_RECALL_DELAY", "trial_type": "single-stim", "trial_index": 157, "time_elapsed": 731612, "internal_node_id": "0.0-112.0-0.0"}}, {"uniqueid": "MTK1111:3MHW492WW1KHCJTZ10ARFLH8ZVWVMQ", "current_trial": 158, "dateTime": 1513115617853, "trialdata": {"rt": -1000, "stimulus": "/static/audio/400Hz.wav", "key_press": -1, "type": "PRE_RECALL_ALERT", "trial_type": "single-audio", "trial_index": 158, "time_elapsed": 732132, "internal_node_id": "0.0-113.0"}}, {"uniqueid": "MTK1111:3MHW492WW1KHCJTZ10ARFLH8ZVWVMQ", "current_trial": 159, "dateTime": 1513115677857, "trialdata": {"rt": [2682, 4524, 7056, 9188, 11153, 12724, 14504], "recwords": ["napkin", "plaza", "missile", "rocket", "tuba", "robin", "concert"], "type": "FREE_RECALL", "conditions": [12, 1600, "v", 24000], "trial": 4, "trial_type": "free-recall", "trial_index": 159, "time_elapsed": 792134, "internal_node_id": "0.0-114.0-0.0"}}, {"uniqueid": "MTK1111:3MHW492WW1KHCJTZ10ARFLH8ZVWVMQ", "current_trial": 160, "dateTime": 1513115680593, "trialdata": {"rt": 735, "key_press": 13, "type": "INSTRUCTIONS", "trial_type": "text", "trial_index": 160, "time_elapsed": 794872, "internal_node_id": "0.0-115.0"}}, {"uniqueid": "MTK1111:3MHW492WW1KHCJTZ10ARFLH8ZVWVMQ", "current_trial": 161, "dateTime": 1513115706596, "trialdata": {"rt": [2468, 5037, 7771, 10430, 12435, 14803, 17310, 18876, 21197], "responses": ["22", "22", "13", "21", "19", "17", "17", "5", "17"], "num1": [7, 9, 8, 5, 2, 5, 8, 1, 8, 1], "num2": [6, 6, 4, 8, 9, 4, 4, 1, 8, 1], "num3": [9, 7, 1, 8, 8, 8, 5, 3, 1, 8], "type": "DISTRACTOR", "conditions": [24, 800, "v", 24000], "trial": 5, "trial_type": "math-distractor", "trial_index": 161, "time_elapsed": 820875, "internal_node_id": "0.0-116.0"}}, {"uniqueid": "MTK1111:3MHW492WW1KHCJTZ10ARFLH8ZVWVMQ", "current_trial": 162, "dateTime": 1513115709599, "trialdata": {"rt": -1, "stimulus": "<p id=\"stim\">10</p>", "key_press": -1, "trial_type": "single-stim", "trial_index": 162, "time_elapsed": 823878, "internal_node_id": "0.0-117.0-0.0"}}, {"uniqueid": "MTK1111:3MHW492WW1KHCJTZ10ARFLH8ZVWVMQ", "current_trial": 163, "dateTime": 1513115710600, "trialdata": {"rt": -1, "stimulus": "<p id=\"stim\">9</p>", "key_press": -1, "trial_type": "single-stim", "trial_index": 163, "time_elapsed": 824879, "internal_node_id": "0.0-117.0-1.0"}}, {"uniqueid": "MTK1111:3MHW492WW1KHCJTZ10ARFLH8ZVWVMQ", "current_trial": 164, "dateTime": 1513115711601, "trialdata": {"rt": -1, "stimulus": "<p id=\"stim\">8</p>", "key_press": -1, "trial_type": "single-stim", "trial_index": 164, "time_elapsed": 825880, "internal_node_id": "0.0-117.0-2.0"}}, {"uniqueid": "MTK1111:3MHW492WW1KHCJTZ10ARFLH8ZVWVMQ", "current_trial": 165, "dateTime": 1513115712603, "trialdata": {"rt": -1, "stimulus": "<p id=\"stim\">7</p>", "key_press": -1, "trial_type": "single-stim", "trial_index": 165, "time_elapsed": 826882, "internal_node_id": "0.0-117.0-3.0"}}, {"uniqueid": "MTK1111:3MHW492WW1KHCJTZ10ARFLH8ZVWVMQ", "current_trial": 166, "dateTime": 1513115713604, "trialdata": {"rt": -1, "stimulus": "<p id=\"stim\">6</p>", "key_press": -1, "trial_type": "single-stim", "trial_index": 166, "time_elapsed": 827883, "internal_node_id": "0.0-117.0-4.0"}}, {"uniqueid": "MTK1111:3MHW492WW1KHCJTZ10ARFLH8ZVWVMQ", "current_trial": 167, "dateTime": 1513115714605, "trialdata": {"rt": -1, "stimulus": "<p id=\"stim\">5</p>", "key_press": -1, "trial_type": "single-stim", "trial_index": 167, "time_elapsed": 828884, "internal_node_id": "0.0-117.0-5.0"}}, {"uniqueid": "MTK1111:3MHW492WW1KHCJTZ10ARFLH8ZVWVMQ", "current_trial": 168, "dateTime": 1513115715606, "trialdata": {"rt": -1, "stimulus": "<p id=\"stim\">4</p>", "key_press": -1, "trial_type": "single-stim", "trial_index": 168, "time_elapsed": 829885, "internal_node_id": "0.0-117.0-6.0"}}, {"uniqueid": "MTK1111:3MHW492WW1KHCJTZ10ARFLH8ZVWVMQ", "current_trial": 169, "dateTime": 1513115716608, "trialdata": {"rt": -1, "stimulus": "<p id=\"stim\">3</p>", "key_press": -1, "trial_type": "single-stim", "trial_index": 169, "time_elapsed": 830887, "internal_node_id": "0.0-117.0-7.0"}}, {"uniqueid": "MTK1111:3MHW492WW1KHCJTZ10ARFLH8ZVWVMQ", "current_trial": 170, "dateTime": 1513115717609, "trialdata": {"rt": -1, "stimulus": "<p id=\"stim\">2</p>", "key_press": -1, "trial_type": "single-stim", "trial_index": 170, "time_elapsed": 831888, "internal_node_id": "0.0-117.0-8.0"}}, {"uniqueid": "MTK1111:3MHW492WW1KHCJTZ10ARFLH8ZVWVMQ", "current_trial": 171, "dateTime": 1513115718610, "trialdata": {"rt": -1, "stimulus": "<p id=\"stim\">1</p>", "key_press": -1, "trial_type": "single-stim", "trial_index": 171, "time_elapsed": 832889, "internal_node_id": "0.0-117.0-9.0"}}, {"uniqueid": "MTK1111:3MHW492WW1KHCJTZ10ARFLH8ZVWVMQ", "current_trial": 172, "dateTime": 1513115720112, "trialdata": {"rt": -1, "stimulus": "<p id=\"stim\">+</p>", "key_press": -1, "type": "FIXATION", "trial_type": "single-stim", "trial_index": 172, "time_elapsed": 834391, "internal_node_id": "0.0-118.0-0.0"}}, {"uniqueid": "MTK1111:3MHW492WW1KHCJTZ10ARFLH8ZVWVMQ", "current_trial": 173, "dateTime": 1513115720913, "trialdata": {"rt": -1, "stimulus": "<p id=\"stim\">CLIMBER</p>", "key_press": -1, "type": "PRES_VIS", "word": "climber", "wordID": 322, "conditions": [24, 800, "v", 24000], "trial": 5, "serialpos": 0, "trial_type": "single-stim", "trial_index": 173, "time_elapsed": 835192, "internal_node_id": "0.0-119.0"}}, {"uniqueid": "MTK1111:3MHW492WW1KHCJTZ10ARFLH8ZVWVMQ", "current_trial": 174, "dateTime": 1513115722777, "trialdata": {"rt": -1, "stimulus": "<p id=\"stim\">HIKER</p>", "key_press": -1, "type": "PRES_VIS", "word": "hiker", "wordID": 707, "conditions": [24, 800, "v", 24000], "trial": 5, "serialpos": 1, "trial_type": "single-stim", "trial_index": 174, "time_elapsed": 837056, "internal_node_id": "0.0-120.0"}}, {"uniqueid": "MTK1111:3MHW492WW1KHCJTZ10ARFLH8ZVWVMQ", "current_trial": 175, "dateTime": 1513115724694, "trialdata": {"rt": -1, "stimulus": "<p id=\"stim\">MAILBOX</p>", "key_press": -1, "type": "PRES_VIS", "word": "mailbox", "wordID": 856, "conditions": [24, 800, "v", 24000], "trial": 5, "serialpos": 2, "trial_type": "single-stim", "trial_index": 175, "time_elapsed": 838973, "internal_node_id": "0.0-121.0"}}, {"uniqueid": "MTK1111:3MHW492WW1KHCJTZ10ARFLH8ZVWVMQ", "current_trial": 176, "dateTime": 1513115726515, "trialdata": {"rt": -1, "stimulus": "<p id=\"stim\">LUNCH</p>", "key_press": -1, "type": "PRES_VIS", "word": "lunch", "wordID": 848, "conditions": [24, 800, "v", 24000], "trial": 5, "serialpos": 3, "trial_type": "single-stim", "trial_index": 176, "time_elapsed": 840794, "internal_node_id": "0.0-122.0"}}, {"uniqueid": "MTK1111:3MHW492WW1KHCJTZ10ARFLH8ZVWVMQ", "current_trial": 177, "dateTime": 1513115728387, "trialdata": {"rt": -1, "stimulus": "<p id=\"stim\">NEUTRON</p>", "key_press": -1, "type": "PRES_VIS", "word": "neutron", "wordID": 946, "conditions": [24, 800, "v", 24000], "trial": 5, "serialpos": 4, "trial_type": "single-stim", "trial_index": 177, "time_elapsed": 842666, "internal_node_id": "0.0-123.0"}}, {"uniqueid": "MTK1111:3MHW492WW1KHCJTZ10ARFLH8ZVWVMQ", "current_trial": 178, "dateTime": 1513115730128, "trialdata": {"rt": -1, "stimulus": "<p id=\"stim\">PEANUT</p>", "key_press": -1, "type": "PRES_VIS", "word": "peanut", "wordID": 1031, "conditions": [24, 800, "v", 24000], "trial": 5, "serialpos": 5, "trial_type": "single-stim", "trial_index": 178, "time_elapsed": 844407, "internal_node_id": "0.0-124.0"}}, {"uniqueid": "MTK1111:3MHW492WW1KHCJTZ10ARFLH8ZVWVMQ", "current_trial": 179, "dateTime": 1513115731810, "trialdata": {"rt": -1, "stimulus": "<p id=\"stim\">SUPPER</p>", "key_press": -1, "type": "PRES_VIS", "word": "supper", "wordID": 1410, "conditions": [24, 800, "v", 24000], "trial": 5, "serialpos": 6, "trial_type": "single-stim", "trial_index": 179, "time_elapsed": 846089, "internal_node_id": "0.0-125.0"}}, {"uniqueid": "MTK1111:3MHW492WW1KHCJTZ10ARFLH8ZVWVMQ", "current_trial": 180, "dateTime": 1513115733795, "trialdata": {"rt": -1, "stimulus": "<p id=\"stim\">PUDDING</p>", "key_press": -1, "type": "PRES_VIS", "word": "pudding", "wordID": 1138, "conditions": [24, 800, "v", 24000], "trial": 5, "serialpos": 7, "trial_type": "single-stim", "trial_index": 180, "time_elapsed": 848074, "internal_node_id": "0.0-126.0"}}, {"uniqueid": "MTK1111:3MHW492WW1KHCJTZ10ARFLH8ZVWVMQ", "current_trial": 181, "dateTime": 1513115735685, "trialdata": {"rt": -1, "stimulus": "<p id=\"stim\">SCOTCH</p>", "key_press": -1, "type": "PRES_VIS", "word": "scotch", "wordID": 1250, "conditions": [24, 800, "v", 24000], "trial": 5, "serialpos": 8, "trial_type": "single-stim", "trial_index": 181, "time_elapsed": 849964, "internal_node_id": "0.0-127.0"}}, {"uniqueid": "MTK1111:3MHW492WW1KHCJTZ10ARFLH8ZVWVMQ", "current_trial": 182, "dateTime": 1513115737545, "trialdata": {"rt": -1, "stimulus": "<p id=\"stim\">BLOCKADE</p>", "key_press": -1, "type": "PRES_VIS", "word": "blockade", "wordID": 136, "conditions": [24, 800, "v", 24000], "trial": 5, "serialpos": 9, "trial_type": "single-stim", "trial_index": 182, "time_elapsed": 851824, "internal_node_id": "0.0-128.0"}}, {"uniqueid": "MTK1111:3MHW492WW1KHCJTZ10ARFLH8ZVWVMQ", "current_trial": 183, "dateTime": 1513115739152, "trialdata": {"rt": -1, "stimulus": "<p id=\"stim\">CYCLONE</p>", "key_press": -1, "type": "PRES_VIS", "word": "cyclone", "wordID": 430, "conditions": [24, 800, "v", 24000], "trial": 5, "serialpos": 10, "trial_type": "single-stim", "trial_index": 183, "time_elapsed": 853430, "internal_node_id": "0.0-129.0"}}, {"uniqueid": "MTK1111:3MHW492WW1KHCJTZ10ARFLH8ZVWVMQ", "current_trial": 184, "dateTime": 1513115741030, "trialdata": {"rt": -1, "stimulus": "<p id=\"stim\">APPLE</p>", "key_press": -1, "type": "PRES_VIS", "word": "apple", "wordID": 32, "conditions": [24, 800, "v", 24000], "trial": 5, "serialpos": 11, "trial_type": "single-stim", "trial_index": 184, "time_elapsed": 855309, "internal_node_id": "0.0-130.0"}}, {"uniqueid": "MTK1111:3MHW492WW1KHCJTZ10ARFLH8ZVWVMQ", "current_trial": 185, "dateTime": 1513115742861, "trialdata": {"rt": -1, "stimulus": "<p id=\"stim\">WORKER</p>", "key_press": -1, "type": "PRES_VIS", "word": "worker", "wordID": 1620, "conditions": [24, 800, "v", 24000], "trial": 5, "serialpos": 12, "trial_type": "single-stim", "trial_index": 185, "time_elapsed": 857140, "internal_node_id": "0.0-131.0"}}, {"uniqueid": "MTK1111:3MHW492WW1KHCJTZ10ARFLH8ZVWVMQ", "current_trial": 186, "dateTime": 1513115744572, "trialdata": {"rt": -1, "stimulus": "<p id=\"stim\">FIREMAN</p>", "key_press": -1, "type": "PRES_VIS", "word": "fireman", "wordID": 568, "conditions": [24, 800, "v", 24000], "trial": 5, "serialpos": 13, "trial_type": "single-stim", "trial_index": 186, "time_elapsed": 858851, "internal_node_id": "0.0-132.0"}}, {"uniqueid": "MTK1111:3MHW492WW1KHCJTZ10ARFLH8ZVWVMQ", "current_trial": 187, "dateTime": 1513115746261, "trialdata": {"rt": -1, "stimulus": "<p id=\"stim\">STUDENT</p>", "key_press": -1, "type": "PRES_VIS", "word": "student", "wordID": 1394, "conditions": [24, 800, "v", 24000], "trial": 5, "serialpos": 14, "trial_type": "single-stim", "trial_index": 187, "time_elapsed": 860540, "internal_node_id": "0.0-133.0"}}, {"uniqueid": "MTK1111:3MHW492WW1KHCJTZ10ARFLH8ZVWVMQ", "current_trial": 188, "dateTime": 1513115748254, "trialdata": {"rt": -1, "stimulus": "<p id=\"stim\">TWEEZERS</p>", "key_press": -1, "type": "PRES_VIS", "word": "tweezers", "wordID": 1525, "conditions": [24, 800, "v", 24000], "trial": 5, "serialpos": 15, "trial_type": "single-stim", "trial_index": 188, "time_elapsed": 862533, "internal_node_id": "0.0-134.0"}}, {"uniqueid": "MTK1111:3MHW492WW1KHCJTZ10ARFLH8ZVWVMQ", "current_trial": 189, "dateTime": 1513115750045, "trialdata": {"rt": -1, "stimulus": "<p id=\"stim\">DUSTPAN</p>", "key_press": -1, "type": "PRES_VIS", "word": "dustpan", "wordID": 508, "conditions": [24, 800, "v", 24000], "trial": 5, "serialpos": 16, "trial_type": "single-stim", "trial_index": 189, "time_elapsed": 864324, "internal_node_id": "0.0-135.0"}}, {"uniqueid": "MTK1111:3MHW492WW1KHCJTZ10ARFLH8ZVWVMQ", "current_trial": 190, "dateTime": 1513115751720, "trialdata": {"rt": -1, "stimulus": "<p id=\"stim\">BOUQUET</p>", "key_press": -1, "type": "PRES_VIS", "word": "bouquet", "wordID": 156, "conditions": [24, 800, "v", 24000], "trial": 5, "serialpos": 17, "trial_type": "single-stim", "trial_index": 190, "time_elapsed": 865999, "internal_node_id": "0.0-136.0"}}, {"uniqueid": "MTK1111:3MHW492WW1KHCJTZ10ARFLH8ZVWVMQ", "current_trial": 191, "dateTime": 1513115753563, "trialdata": {"rt": -1, "stimulus": "<p id=\"stim\">AIRPORT</p>", "key_press": -1, "type": "PRES_VIS", "word": "airport", "wordID": 12, "conditions": [24, 800, "v", 24000], "trial": 5, "serialpos": 18, "trial_type": "single-stim", "trial_index": 191, "time_elapsed": 867842, "internal_node_id": "0.0-137.0"}}, {"uniqueid": "MTK1111:3MHW492WW1KHCJTZ10ARFLH8ZVWVMQ", "current_trial": 192, "dateTime": 1513115755527, "trialdata": {"rt": -1, "stimulus": "<p id=\"stim\">MACHINE</p>", "key_press": -1, "type": "PRES_VIS", "word": "machine", "wordID": 851, "conditions": [24, 800, "v", 24000], "trial": 5, "serialpos": 19, "trial_type": "single-stim", "trial_index": 192, "time_elapsed": 869806, "internal_node_id": "0.0-138.0"}}, {"uniqueid": "MTK1111:3MHW492WW1KHCJTZ10ARFLH8ZVWVMQ", "current_trial": 193, "dateTime": 1513115757339, "trialdata": {"rt": -1, "stimulus": "<p id=\"stim\">DORM</p>", "key_press": -1, "type": "PRES_VIS", "word": "dorm", "wordID": 487, "conditions": [24, 800, "v", 24000], "trial": 5, "serialpos": 20, "trial_type": "single-stim", "trial_index": 193, "time_elapsed": 871618, "internal_node_id": "0.0-139.0"}}, {"uniqueid": "MTK1111:3MHW492WW1KHCJTZ10ARFLH8ZVWVMQ", "current_trial": 194, "dateTime": 1513115759101, "trialdata": {"rt": -1, "stimulus": "<p id=\"stim\">SMOG</p>", "key_press": -1, "type": "PRES_VIS", "word": "smog", "wordID": 1329, "conditions": [24, 800, "v", 24000], "trial": 5, "serialpos": 21, "trial_type": "single-stim", "trial_index": 194, "time_elapsed": 873379, "internal_node_id": "0.0-140.0"}}, {"uniqueid": "MTK1111:3MHW492WW1KHCJTZ10ARFLH8ZVWVMQ", "current_trial": 195, "dateTime": 1513115761039, "trialdata": {"rt": -1, "stimulus": "<p id=\"stim\">OZONE</p>", "key_press": -1, "type": "PRES_VIS", "word": "ozone", "wordID": 995, "conditions": [24, 800, "v", 24000], "trial": 5, "serialpos": 22, "trial_type": "single-stim", "trial_index": 195, "time_elapsed": 875318, "internal_node_id": "0.0-141.0"}}, {"uniqueid": "MTK1111:3MHW492WW1KHCJTZ10ARFLH8ZVWVMQ", "current_trial": 196, "dateTime": 1513115762870, "trialdata": {"rt": -1, "stimulus": "<p id=\"stim\">PIGEON</p>", "key_press": -1, "type": "PRES_VIS", "word": "pigeon", "wordID": 1064, "conditions": [24, 800, "v", 24000], "trial": 5, "serialpos": 23, "trial_type": "single-stim", "trial_index": 196, "time_elapsed": 877149, "internal_node_id": "0.0-142.0"}}, {"uniqueid": "MTK1111:3MHW492WW1KHCJTZ10ARFLH8ZVWVMQ", "current_trial": 197, "dateTime": 1513115765192, "trialdata": {"rt": -1, "stimulus": "", "key_press": -1, "type": "PRE_RECALL_DELAY", "trial_type": "single-stim", "trial_index": 197, "time_elapsed": 879471, "internal_node_id": "0.0-143.0-0.0"}}, {"uniqueid": "MTK1111:3MHW492WW1KHCJTZ10ARFLH8ZVWVMQ", "current_trial": 198, "dateTime": 1513115765700, "trialdata": {"rt": -1000, "stimulus": "/static/audio/400Hz.wav", "key_press": -1, "type": "PRE_RECALL_ALERT", "trial_type": "single-audio", "trial_index": 198, "time_elapsed": 879979, "internal_node_id": "0.0-144.0"}}, {"uniqueid": "MTK1111:3MHW492WW1KHCJTZ10ARFLH8ZVWVMQ", "current_trial": 199, "dateTime": 1513115825703, "trialdata": {"rt": [1434, 2908, 5470, 6880, 8809, 10098, 32016], "recwords": ["smog", "ozone", "pigeon", "worker", "student", "apple", "fireman"], "type": "FREE_RECALL", "conditions": [24, 800, "v", 24000], "trial": 5, "trial_type": "free-recall", "trial_index": 199, "time_elapsed": 939980, "internal_node_id": "0.0-145.0-0.0"}}, {"uniqueid": "MTK1111:3MHW492WW1KHCJTZ10ARFLH8ZVWVMQ", "current_trial": 200, "dateTime": 1513115828379, "trialdata": {"rt": 675, "key_press": 13, "type": "INSTRUCTIONS", "trial_type": "text", "trial_index": 200, "time_elapsed": 942658, "internal_node_id": "0.0-146.0"}}, {"uniqueid": "MTK1111:3MHW492WW1KHCJTZ10ARFLH8ZVWVMQ", "current_trial": 201, "dateTime": 1513115842382, "trialdata": {"rt": [2985, 5341, 9035, 11029], "responses": ["11", "13", "18", "17"], "num1": [5, 7, 6, 9, 3], "num2": [4, 2, 3, 2, 7], "num3": [2, 4, 9, 6, 1], "type": "DISTRACTOR", "conditions": [24, 800, "v", 12000], "trial": 6, "trial_type": "math-distractor", "trial_index": 201, "time_elapsed": 956661, "internal_node_id": "0.0-147.0"}}, {"uniqueid": "MTK1111:3MHW492WW1KHCJTZ10ARFLH8ZVWVMQ", "current_trial": 202, "dateTime": 1513115845383, "trialdata": {"rt": -1, "stimulus": "<p id=\"stim\">10</p>", "key_press": -1, "trial_type": "single-stim", "trial_index": 202, "time_elapsed": 959662, "internal_node_id": "0.0-148.0-0.0"}}, {"uniqueid": "MTK1111:3MHW492WW1KHCJTZ10ARFLH8ZVWVMQ", "current_trial": 203, "dateTime": 1513115846384, "trialdata": {"rt": -1, "stimulus": "<p id=\"stim\">9</p>", "key_press": -1, "trial_type": "single-stim", "trial_index": 203, "time_elapsed": 960663, "internal_node_id": "0.0-148.0-1.0"}}, {"uniqueid": "MTK1111:3MHW492WW1KHCJTZ10ARFLH8ZVWVMQ", "current_trial": 204, "dateTime": 1513115847386, "trialdata": {"rt": -1, "stimulus": "<p id=\"stim\">8</p>", "key_press": -1, "trial_type": "single-stim", "trial_index": 204, "time_elapsed": 961664, "internal_node_id": "0.0-148.0-2.0"}}, {"uniqueid": "MTK1111:3MHW492WW1KHCJTZ10ARFLH8ZVWVMQ", "current_trial": 205, "dateTime": 1513115848387, "trialdata": {"rt": -1, "stimulus": "<p id=\"stim\">7</p>", "key_press": -1, "trial_type": "single-stim", "trial_index": 205, "time_elapsed": 962666, "internal_node_id": "0.0-148.0-3.0"}}, {"uniqueid": "MTK1111:3MHW492WW1KHCJTZ10ARFLH8ZVWVMQ", "current_trial": 206, "dateTime": 1513115849389, "trialdata": {"rt": -1, "stimulus": "<p id=\"stim\">6</p>", "key_press": -1, "trial_type": "single-stim", "trial_index": 206, "time_elapsed": 963668, "internal_node_id": "0.0-148.0-4.0"}}, {"uniqueid": "MTK1111:3MHW492WW1KHCJTZ10ARFLH8ZVWVMQ", "current_trial": 207, "dateTime": 1513115850391, "trialdata": {"rt": -1, "stimulus": "<p id=\"stim\">5</p>", "key_press": -1, "trial_type": "single-stim", "trial_index": 207, "time_elapsed": 964670, "internal_node_id": "0.0-148.0-5.0"}}, {"uniqueid": "MTK1111:3MHW492WW1KHCJTZ10ARFLH8ZVWVMQ", "current_trial": 208, "dateTime": 1513115851392, "trialdata": {"rt": -1, "stimulus": "<p id=\"stim\">4</p>", "key_press": -1, "trial_type": "single-stim", "trial_index": 208, "time_elapsed": 965671, "internal_node_id": "0.0-148.0-6.0"}}, {"uniqueid": "MTK1111:3MHW492WW1KHCJTZ10ARFLH8ZVWVMQ", "current_trial": 209, "dateTime": 1513115852394, "trialdata": {"rt": -1, "stimulus": "<p id=\"stim\">3</p>", "key_press": -1, "trial_type": "single-stim", "trial_index": 209, "time_elapsed": 966673, "internal_node_id": "0.0-148.0-7.0"}}, {"uniqueid": "MTK1111:3MHW492WW1KHCJTZ10ARFLH8ZVWVMQ", "current_trial": 210, "dateTime": 1513115853395, "trialdata": {"rt": -1, "stimulus": "<p id=\"stim\">2</p>", "key_press": -1, "trial_type": "single-stim", "trial_index": 210, "time_elapsed": 967674, "internal_node_id": "0.0-148.0-8.0"}}, {"uniqueid": "MTK1111:3MHW492WW1KHCJTZ10ARFLH8ZVWVMQ", "current_trial": 211, "dateTime": 1513115854397, "trialdata": {"rt": -1, "stimulus": "<p id=\"stim\">1</p>", "key_press": -1, "trial_type": "single-stim", "trial_index": 211, "time_elapsed": 968676, "internal_node_id": "0.0-148.0-9.0"}}, {"uniqueid": "MTK1111:3MHW492WW1KHCJTZ10ARFLH8ZVWVMQ", "current_trial": 212, "dateTime": 1513115855898, "trialdata": {"rt": -1, "stimulus": "<p id=\"stim\">+</p>", "key_press": -1, "type": "FIXATION", "trial_type": "single-stim", "trial_index": 212, "time_elapsed": 970177, "internal_node_id": "0.0-149.0-0.0"}}, {"uniqueid": "MTK1111:3MHW492WW1KHCJTZ10ARFLH8ZVWVMQ", "current_trial": 213, "dateTime": 1513115856699, "trialdata": {"rt": -1, "stimulus": "<p id=\"stim\">DRINK</p>", "key_press": -1, "type": "PRES_VIS", "word": "drink", "wordID": 497, "conditions": [24, 800, "v", 12000], "trial": 6, "serialpos": 0, "trial_type": "single-stim", "trial_index": 213, "time_elapsed": 970978, "internal_node_id": "0.0-150.0"}}, {"uniqueid": "MTK1111:3MHW492WW1KHCJTZ10ARFLH8ZVWVMQ", "current_trial": 214, "dateTime": 1513115858678, "trialdata": {"rt": -1, "stimulus": "<p id=\"stim\">JUDGE</p>", "key_press": -1, "type": "PRES_VIS", "word": "judge", "wordID": 760, "conditions": [24, 800, "v", 12000], "trial": 6, "serialpos": 1, "trial_type": "single-stim", "trial_index": 214, "time_elapsed": 972957, "internal_node_id": "0.0-151.0"}}, {"uniqueid": "MTK1111:3MHW492WW1KHCJTZ10ARFLH8ZVWVMQ", "current_trial": 215, "dateTime": 1513115860324, "trialdata": {"rt": -1, "stimulus": "<p id=\"stim\">FRUIT</p>", "key_press": -1, "type": "PRES_VIS", "word": "fruit", "wordID": 609, "conditions": [24, 800, "v", 12000], "trial": 6, "serialpos": 2, "trial_type": "single-stim", "trial_index": 215, "time_elapsed": 974603, "internal_node_id": "0.0-152.0"}}, {"uniqueid": "MTK1111:3MHW492WW1KHCJTZ10ARFLH8ZVWVMQ", "current_trial": 216, "dateTime": 1513115862042, "trialdata": {"rt": -1, "stimulus": "<p id=\"stim\">CITRUS</p>", "key_press": -1, "type": "PRES_VIS", "word": "citrus", "wordID": 312, "conditions": [24, 800, "v", 12000], "trial": 6, "serialpos": 3, "trial_type": "single-stim", "trial_index": 216, "time_elapsed": 976321, "internal_node_id": "0.0-153.0"}}, {"uniqueid": "MTK1111:3MHW492WW1KHCJTZ10ARFLH8ZVWVMQ", "current_trial": 217, "dateTime": 1513115863923, "trialdata": {"rt": -1, "stimulus": "<p id=\"stim\">POPCORN</p>", "key_press": -1, "type": "PRES_VIS", "word": "popcorn", "wordID": 1103, "conditions": [24, 800, "v", 12000], "trial": 6, "serialpos": 4, "trial_type": "single-stim", "trial_index": 217, "time_elapsed": 978202, "internal_node_id": "0.0-154.0"}}, {"uniqueid": "MTK1111:3MHW492WW1KHCJTZ10ARFLH8ZVWVMQ", "current_trial": 218, "dateTime": 1513115865793, "trialdata": {"rt": -1, "stimulus": "<p id=\"stim\">SAUSAGE</p>", "key_press": -1, "type": "PRES_VIS", "word": "sausage", "wordID": 1237, "conditions": [24, 800, "v", 12000], "trial": 6, "serialpos": 5, "trial_type": "single-stim", "trial_index": 218, "time_elapsed": 980072, "internal_node_id": "0.0-155.0"}}, {"uniqueid": "MTK1111:3MHW492WW1KHCJTZ10ARFLH8ZVWVMQ", "current_trial": 219, "dateTime": 1513115867496, "trialdata": {"rt": -1, "stimulus": "<p id=\"stim\">PISTOL</p>", "key_press": -1, "type": "PRES_VIS", "word": "pistol", "wordID": 1074, "conditions": [24, 800, "v", 12000], "trial": 6, "serialpos": 6, "trial_type": "single-stim", "trial_index": 219, "time_elapsed": 981775, "internal_node_id": "0.0-156.0"}}, {"uniqueid": "MTK1111:3MHW492WW1KHCJTZ10ARFLH8ZVWVMQ", "current_trial": 220, "dateTime": 1513115869233, "trialdata": {"rt": -1, "stimulus": "<p id=\"stim\">NURSE</p>", "key_press": -1, "type": "PRES_VIS", "word": "nurse", "wordID": 962, "conditions": [24, 800, "v", 12000], "trial": 6, "serialpos": 7, "trial_type": "single-stim", "trial_index": 220, "time_elapsed": 983512, "internal_node_id": "0.0-157.0"}}, {"uniqueid": "MTK1111:3MHW492WW1KHCJTZ10ARFLH8ZVWVMQ", "current_trial": 221, "dateTime": 1513115871181, "trialdata": {"rt": -1, "stimulus": "<p id=\"stim\">FUNGUS</p>", "key_press": -1, "type": "PRES_VIS", "word": "fungus", "wordID": 613, "conditions": [24, 800, "v", 12000], "trial": 6, "serialpos": 8, "trial_type": "single-stim", "trial_index": 221, "time_elapsed": 985459, "internal_node_id": "0.0-158.0"}}, {"uniqueid": "MTK1111:3MHW492WW1KHCJTZ10ARFLH8ZVWVMQ", "current_trial": 222, "dateTime": 1513115873051, "trialdata": {"rt": -1, "stimulus": "<p id=\"stim\">SUSPECT</p>", "key_press": -1, "type": "PRES_VIS", "word": "suspect", "wordID": 1414, "conditions": [24, 800, "v", 12000], "trial": 6, "serialpos": 9, "trial_type": "single-stim", "trial_index": 222, "time_elapsed": 987330, "internal_node_id": "0.0-159.0"}}, {"uniqueid": "MTK1111:3MHW492WW1KHCJTZ10ARFLH8ZVWVMQ", "current_trial": 223, "dateTime": 1513115874936, "trialdata": {"rt": -1, "stimulus": "<p id=\"stim\">TRUCK</p>", "key_press": -1, "type": "PRES_VIS", "word": "truck", "wordID": 1511, "conditions": [24, 800, "v", 12000], "trial": 6, "serialpos": 10, "trial_type": "single-stim", "trial_index": 223, "time_elapsed": 989215, "internal_node_id": "0.0-160.0"}}, {"uniqueid": "MTK1111:3MHW492WW1KHCJTZ10ARFLH8ZVWVMQ", "current_trial": 224, "dateTime": 1513115876914, "trialdata": {"rt": -1, "stimulus": "<p id=\"stim\">SODA</p>", "key_press": -1, "type": "PRES_VIS", "word": "soda", "wordID": 1340, "conditions": [24, 800, "v", 12000], "trial": 6, "serialpos": 11, "trial_type": "single-stim", "trial_index": 224, "time_elapsed": 991193, "internal_node_id": "0.0-161.0"}}, {"uniqueid": "MTK1111:3MHW492WW1KHCJTZ10ARFLH8ZVWVMQ", "current_trial": 225, "dateTime": 1513115878643, "trialdata": {"rt": -1, "stimulus": "<p id=\"stim\">BUNNY</p>", "key_press": -1, "type": "PRES_VIS", "word": "bunny", "wordID": 197, "conditions": [24, 800, "v", 12000], "trial": 6, "serialpos": 12, "trial_type": "single-stim", "trial_index": 225, "time_elapsed": 992922, "internal_node_id": "0.0-162.0"}}, {"uniqueid": "MTK1111:3MHW492WW1KHCJTZ10ARFLH8ZVWVMQ", "current_trial": 226, "dateTime": 1513115880393, "trialdata": {"rt": -1, "stimulus": "<p id=\"stim\">BANK</p>", "key_press": -1, "type": "PRES_VIS", "word": "bank", "wordID": 82, "conditions": [24, 800, "v", 12000], "trial": 6, "serialpos": 13, "trial_type": "single-stim", "trial_index": 226, "time_elapsed": 994672, "internal_node_id": "0.0-163.0"}}, {"uniqueid": "MTK1111:3MHW492WW1KHCJTZ10ARFLH8ZVWVMQ", "current_trial": 227, "dateTime": 1513115882276, "trialdata": {"rt": -1, "stimulus": "<p id=\"stim\">NOMAD</p>", "key_press": -1, "type": "PRES_VIS", "word": "nomad", "wordID": 954, "conditions": [24, 800, "v", 12000], "trial": 6, "serialpos": 14, "trial_type": "single-stim", "trial_index": 227, "time_elapsed": 996555, "internal_node_id": "0.0-164.0"}}, {"uniqueid": "MTK1111:3MHW492WW1KHCJTZ10ARFLH8ZVWVMQ", "current_trial": 228, "dateTime": 1513115883913, "trialdata": {"rt": -1, "stimulus": "<p id=\"stim\">BACON</p>", "key_press": -1, "type": "PRES_VIS", "word": "bacon", "wordID": 66, "conditions": [24, 800, "v", 12000], "trial": 6, "serialpos": 15, "trial_type": "single-stim", "trial_index": 228, "time_elapsed": 998192, "internal_node_id": "0.0-165.0"}}, {"uniqueid": "MTK1111:3MHW492WW1KHCJTZ10ARFLH8ZVWVMQ", "current_trial": 229, "dateTime": 1513115885708, "trialdata": {"rt": -1, "stimulus": "<p id=\"stim\">CONVICT</p>", "key_press": -1, "type": "PRES_VIS", "word": "convict", "wordID": 370, "conditions": [24, 800, "v", 12000], "trial": 6, "serialpos": 16, "trial_type": "single-stim", "trial_index": 229, "time_elapsed": 999987, "internal_node_id": "0.0-166.0"}}, {"uniqueid": "MTK1111:3MHW492WW1KHCJTZ10ARFLH8ZVWVMQ", "current_trial": 230, "dateTime": 1513115887363, "trialdata": {"rt": -1, "stimulus": "<p id=\"stim\">SERVANT</p>", "key_press": -1, "type": "PRES_VIS", "word": "servant", "wordID": 1270, "conditions": [24, 800, "v", 12000], "trial": 6, "serialpos": 17, "trial_type": "single-stim", "trial_index": 230, "time_elapsed": 1001642, "internal_node_id": "0.0-167.0"}}, {"uniqueid": "MTK1111:3MHW492WW1KHCJTZ10ARFLH8ZVWVMQ", "current_trial": 231, "dateTime": 1513115889279, "trialdata": {"rt": -1, "stimulus": "<p id=\"stim\">MASK</p>", "key_press": -1, "type": "PRES_VIS", "word": "mask", "wordID": 875, "conditions": [24, 800, "v", 12000], "trial": 6, "serialpos": 18, "trial_type": "single-stim", "trial_index": 231, "time_elapsed": 1003558, "internal_node_id": "0.0-168.0"}}, {"uniqueid": "MTK1111:3MHW492WW1KHCJTZ10ARFLH8ZVWVMQ", "current_trial": 232, "dateTime": 1513115891255, "trialdata": {"rt": -1, "stimulus": "<p id=\"stim\">RABBIT</p>", "key_press": -1, "type": "PRES_VIS", "word": "rabbit", "wordID": 1151, "conditions": [24, 800, "v", 12000], "trial": 6, "serialpos": 19, "trial_type": "single-stim", "trial_index": 232, "time_elapsed": 1005534, "internal_node_id": "0.0-169.0"}}, {"uniqueid": "MTK1111:3MHW492WW1KHCJTZ10ARFLH8ZVWVMQ", "current_trial": 233, "dateTime": 1513115893178, "trialdata": {"rt": -1, "stimulus": "<p id=\"stim\">EGYPT</p>", "key_press": -1, "type": "PRES_VIS", "word": "egypt", "wordID": 518, "conditions": [24, 800, "v", 12000], "trial": 6, "serialpos": 20, "trial_type": "single-stim", "trial_index": 233, "time_elapsed": 1007457, "internal_node_id": "0.0-170.0"}}, {"uniqueid": "MTK1111:3MHW492WW1KHCJTZ10ARFLH8ZVWVMQ", "current_trial": 234, "dateTime": 1513115895025, "trialdata": {"rt": -1, "stimulus": "<p id=\"stim\">EUROPE</p>", "key_press": -1, "type": "PRES_VIS", "word": "europe", "wordID": 540, "conditions": [24, 800, "v", 12000], "trial": 6, "serialpos": 21, "trial_type": "single-stim", "trial_index": 234, "time_elapsed": 1009304, "internal_node_id": "0.0-171.0"}}, {"uniqueid": "MTK1111:3MHW492WW1KHCJTZ10ARFLH8ZVWVMQ", "current_trial": 235, "dateTime": 1513115896949, "trialdata": {"rt": -1, "stimulus": "<p id=\"stim\">TURTLE</p>", "key_press": -1, "type": "PRES_VIS", "word": "turtle", "wordID": 1521, "conditions": [24, 800, "v", 12000], "trial": 6, "serialpos": 22, "trial_type": "single-stim", "trial_index": 235, "time_elapsed": 1011228, "internal_node_id": "0.0-172.0"}}, {"uniqueid": "MTK1111:3MHW492WW1KHCJTZ10ARFLH8ZVWVMQ", "current_trial": 236, "dateTime": 1513115898575, "trialdata": {"rt": -1, "stimulus": "<p id=\"stim\">PADDING</p>", "key_press": -1, "type": "PRES_VIS", "word": "padding", "wordID": 998, "conditions": [24, 800, "v", 12000], "trial": 6, "serialpos": 23, "trial_type": "single-stim", "trial_index": 236, "time_elapsed": 1012853, "internal_node_id": "0.0-173.0"}}, {"uniqueid": "MTK1111:3MHW492WW1KHCJTZ10ARFLH8ZVWVMQ", "current_trial": 237, "dateTime": 1513115901015, "trialdata": {"rt": -1, "stimulus": "", "key_press": -1, "type": "PRE_RECALL_DELAY", "trial_type": "single-stim", "trial_index": 237, "time_elapsed": 1015293, "internal_node_id": "0.0-174.0-0.0"}}, {"uniqueid": "MTK1111:3MHW492WW1KHCJTZ10ARFLH8ZVWVMQ", "current_trial": 238, "dateTime": 1513115901515, "trialdata": {"rt": -1000, "stimulus": "/static/audio/400Hz.wav", "key_press": -1, "type": "PRE_RECALL_ALERT", "trial_type": "single-audio", "trial_index": 238, "time_elapsed": 1015794, "internal_node_id": "0.0-175.0"}}, {"uniqueid": "MTK1111:3MHW492WW1KHCJTZ10ARFLH8ZVWVMQ", "current_trial": 239, "dateTime": 1513115961521, "trialdata": {"rt": [1909, 6461, 8064, 9821, 11342, 13367, 19676, 37877], "recwords": ["egypt", "europe", "padding", "convict", "mask", "suspect", "bank", "nomad"], "type": "FREE_RECALL", "conditions": [24, 800, "v", 12000], "trial": 6, "trial_type": "free-recall", "trial_index": 239, "time_elapsed": 1075797, "internal_node_id": "0.0-176.0-0.0"}}, {"uniqueid": "MTK1111:3MHW492WW1KHCJTZ10ARFLH8ZVWVMQ", "current_trial": 240, "dateTime": 1513115964768, "trialdata": {"rt": 1246, "key_press": 13, "type": "INSTRUCTIONS", "trial_type": "text", "trial_index": 240, "time_elapsed": 1079047, "internal_node_id": "0.0-177.0"}}, {"uniqueid": "MTK1111:3MHW492WW1KHCJTZ10ARFLH8ZVWVMQ", "current_trial": 241, "dateTime": 1513115978773, "trialdata": {"rt": [1407, 4020, 5651, 9233, 11730], "responses": ["5", "10", "17", "15", "12"], "num1": [1, 2, 2, 8, 1, 4], "num2": [2, 6, 8, 3, 8, 4], "num3": [2, 2, 7, 4, 3, 2], "type": "DISTRACTOR", "conditions": [12, 1600, "a", 12000], "trial": 7, "trial_type": "math-distractor", "trial_index": 241, "time_elapsed": 1093052, "internal_node_id": "0.0-178.0"}}, {"uniqueid": "MTK1111:3MHW492WW1KHCJTZ10ARFLH8ZVWVMQ", "current_trial": 242, "dateTime": 1513115981775, "trialdata": {"rt": -1, "stimulus": "<p id=\"stim\">10</p>", "key_press": -1, "trial_type": "single-stim", "trial_index": 242, "time_elapsed": 1096054, "internal_node_id": "0.0-179.0-0.0"}}, {"uniqueid": "MTK1111:3MHW492WW1KHCJTZ10ARFLH8ZVWVMQ", "current_trial": 243, "dateTime": 1513115982776, "trialdata": {"rt": -1, "stimulus": "<p id=\"stim\">9</p>", "key_press": -1, "trial_type": "single-stim", "trial_index": 243, "time_elapsed": 1097055, "internal_node_id": "0.0-179.0-1.0"}}, {"uniqueid": "MTK1111:3MHW492WW1KHCJTZ10ARFLH8ZVWVMQ", "current_trial": 244, "dateTime": 1513115983777, "trialdata": {"rt": -1, "stimulus": "<p id=\"stim\">8</p>", "key_press": -1, "trial_type": "single-stim", "trial_index": 244, "time_elapsed": 1098056, "internal_node_id": "0.0-179.0-2.0"}}, {"uniqueid": "MTK1111:3MHW492WW1KHCJTZ10ARFLH8ZVWVMQ", "current_trial": 245, "dateTime": 1513115984779, "trialdata": {"rt": -1, "stimulus": "<p id=\"stim\">7</p>", "key_press": -1, "trial_type": "single-stim", "trial_index": 245, "time_elapsed": 1099058, "internal_node_id": "0.0-179.0-3.0"}}, {"uniqueid": "MTK1111:3MHW492WW1KHCJTZ10ARFLH8ZVWVMQ", "current_trial": 246, "dateTime": 1513115985780, "trialdata": {"rt": -1, "stimulus": "<p id=\"stim\">6</p>", "key_press": -1, "trial_type": "single-stim", "trial_index": 246, "time_elapsed": 1100058, "internal_node_id": "0.0-179.0-4.0"}}, {"uniqueid": "MTK1111:3MHW492WW1KHCJTZ10ARFLH8ZVWVMQ", "current_trial": 247, "dateTime": 1513115986781, "trialdata": {"rt": -1, "stimulus": "<p id=\"stim\">5</p>", "key_press": -1, "trial_type": "single-stim", "trial_index": 247, "time_elapsed": 1101060, "internal_node_id": "0.0-179.0-5.0"}}, {"uniqueid": "MTK1111:3MHW492WW1KHCJTZ10ARFLH8ZVWVMQ", "current_trial": 248, "dateTime": 1513115987782, "trialdata": {"rt": -1, "stimulus": "<p id=\"stim\">4</p>", "key_press": -1, "trial_type": "single-stim", "trial_index": 248, "time_elapsed": 1102061, "internal_node_id": "0.0-179.0-6.0"}}, {"uniqueid": "MTK1111:3MHW492WW1KHCJTZ10ARFLH8ZVWVMQ", "current_trial": 249, "dateTime": 1513115988783, "trialdata": {"rt": -1, "stimulus": "<p id=\"stim\">3</p>", "key_press": -1, "trial_type": "single-stim", "trial_index": 249, "time_elapsed": 1103062, "internal_node_id": "0.0-179.0-7.0"}}, {"uniqueid": "MTK1111:3MHW492WW1KHCJTZ10ARFLH8ZVWVMQ", "current_trial": 250, "dateTime": 1513115989784, "trialdata": {"rt": -1, "stimulus": "<p id=\"stim\">2</p>", "key_press": -1, "trial_type": "single-stim", "trial_index": 250, "time_elapsed": 1104063, "internal_node_id": "0.0-179.0-8.0"}}, {"uniqueid": "MTK1111:3MHW492WW1KHCJTZ10ARFLH8ZVWVMQ", "current_trial": 251, "dateTime": 1513115990785, "trialdata": {"rt": -1, "stimulus": "<p id=\"stim\">1</p>", "key_press": -1, "trial_type": "single-stim", "trial_index": 251, "time_elapsed": 1105064, "internal_node_id": "0.0-179.0-9.0"}}, {"uniqueid": "MTK1111:3MHW492WW1KHCJTZ10ARFLH8ZVWVMQ", "current_trial": 252, "dateTime": 1513115992286, "trialdata": {"rt": -1, "stimulus": "<p id=\"stim\">+</p>", "key_press": -1, "type": "FIXATION", "trial_type": "single-stim", "trial_index": 252, "time_elapsed": 1106565, "internal_node_id": "0.0-180.0-0.0"}}, {"uniqueid": "MTK1111:3MHW492WW1KHCJTZ10ARFLH8ZVWVMQ", "current_trial": 253, "dateTime": 1513115994772, "trialdata": {"rt": -1000, "stimulus": "/static/audio/wordpool/TOASTER.wav", "key_press": -1, "type": "PRES_AUD", "word": "toaster", "wordID": 1471, "conditions": [12, 1600, "a", 12000], "trial": 7, "serialpos": 0, "trial_type": "single-audio", "trial_index": 253, "time_elapsed": 1109051, "internal_node_id": "0.0-181.0"}}, {"uniqueid": "MTK1111:3MHW492WW1KHCJTZ10ARFLH8ZVWVMQ", "current_trial": 254, "dateTime": 1513115997278, "trialdata": {"rt": -1000, "stimulus": "/static/audio/wordpool/SHIRT.wav", "key_press": -1, "type": "PRES_AUD", "word": "shirt", "wordID": 1286, "conditions": [12, 1600, "a", 12000], "trial": 7, "serialpos": 1, "trial_type": "single-audio", "trial_index": 254, "time_elapsed": 1111557, "internal_node_id": "0.0-182.0"}}, {"uniqueid": "MTK1111:3MHW492WW1KHCJTZ10ARFLH8ZVWVMQ", "current_trial": 255, "dateTime": 1513115999823, "trialdata": {"rt": -1000, "stimulus": "/static/audio/wordpool/POISON.wav", "key_press": -1, "type": "PRES_AUD", "word": "poison", "wordID": 1095, "conditions": [12, 1600, "a", 12000], "trial": 7, "serialpos": 2, "trial_type": "single-audio", "trial_index": 255, "time_elapsed": 1114102, "internal_node_id": "0.0-183.0"}}, {"uniqueid": "MTK1111:3MHW492WW1KHCJTZ10ARFLH8ZVWVMQ", "current_trial": 256, "dateTime": 1513116002566, "trialdata": {"rt": -1000, "stimulus": "/static/audio/wordpool/CATCHER.wav", "key_press": -1, "type": "PRES_AUD", "word": "catcher", "wordID": 257, "conditions": [12, 1600, "a", 12000], "trial": 7, "serialpos": 3, "trial_type": "single-audio", "trial_index": 256, "time_elapsed": 1116844, "internal_node_id": "0.0-184.0"}}, {"uniqueid": "MTK1111:3MHW492WW1KHCJTZ10ARFLH8ZVWVMQ", "current_trial": 257, "dateTime": 1513116005074, "trialdata": {"rt": -1000, "stimulus": "/static/audio/wordpool/BOYFRIEND.wav", "key_press": -1, "type": "PRES_AUD", "word": "boyfriend", "wordID": 161, "conditions": [12, 1600, "a", 12000], "trial": 7, "serialpos": 4, "trial_type": "single-audio", "trial_index": 257, "time_elapsed": 1119353, "internal_node_id": "0.0-185.0"}}, {"uniqueid": "MTK1111:3MHW492WW1KHCJTZ10ARFLH8ZVWVMQ", "current_trial": 258, "dateTime": 1513116007505, "trialdata": {"rt": -1000, "stimulus": "/static/audio/wordpool/COOKBOOK.wav", "key_press": -1, "type": "PRES_AUD", "word": "cookbook", "wordID": 372, "conditions": [12, 1600, "a", 12000], "trial": 7, "serialpos": 5, "trial_type": "single-audio", "trial_index": 258, "time_elapsed": 1121784, "internal_node_id": "0.0-186.0"}}, {"uniqueid": "MTK1111:3MHW492WW1KHCJTZ10ARFLH8ZVWVMQ", "current_trial": 259, "dateTime": 1513116010238, "trialdata": {"rt": -1000, "stimulus": "/static/audio/wordpool/GRAVE.wav", "key_press": -1, "type": "PRES_AUD", "word": "grave", "wordID": 657, "conditions": [12, 1600, "a", 12000], "trial": 7, "serialpos": 6, "trial_type": "single-audio", "trial_index": 259, "time_elapsed": 1124517, "internal_node_id": "0.0-187.0"}}, {"uniqueid": "MTK1111:3MHW492WW1KHCJTZ10ARFLH8ZVWVMQ", "current_trial": 260, "dateTime": 1513116012903, "trialdata": {"rt": -1000, "stimulus": "/static/audio/wordpool/SHRUB.wav", "key_press": -1, "type": "PRES_AUD", "word": "shrub", "wordID": 1298, "conditions": [12, 1600, "a", 12000], "trial": 7, "serialpos": 7, "trial_type": "single-audio", "trial_index": 260, "time_elapsed": 1127182, "internal_node_id": "0.0-188.0"}}, {"uniqueid": "MTK1111:3MHW492WW1KHCJTZ10ARFLH8ZVWVMQ", "current_trial": 261, "dateTime": 1513116015456, "trialdata": {"rt": -1000, "stimulus": "/static/audio/wordpool/PARROT.wav", "key_press": -1, "type": "PRES_AUD", "word": "parrot", "wordID": 1014, "conditions": [12, 1600, "a", 12000], "trial": 7, "serialpos": 8, "trial_type": "single-audio", "trial_index": 261, "time_elapsed": 1129735, "internal_node_id": "0.0-189.0"}}, {"uniqueid": "MTK1111:3MHW492WW1KHCJTZ10ARFLH8ZVWVMQ", "current_trial": 262, "dateTime": 1513116018130, "trialdata": {"rt": -1000, "stimulus": "/static/audio/wordpool/LIZARD.wav", "key_press": -1, "type": "PRES_AUD", "word": "lizard", "wordID": 833, "conditions": [12, 1600, "a", 12000], "trial": 7, "serialpos": 9, "trial_type": "single-audio", "trial_index": 262, "time_elapsed": 1132408, "internal_node_id": "0.0-190.0"}}, {"uniqueid": "MTK1111:3MHW492WW1KHCJTZ10ARFLH8ZVWVMQ", "current_trial": 263, "dateTime": 1513116020643, "trialdata": {"rt": -1000, "stimulus": "/static/audio/wordpool/PIZZA.wav", "key_press": -1, "type": "PRES_AUD", "word": "pizza", "wordID": 1078, "conditions": [12, 1600, "a", 12000], "trial": 7, "serialpos": 10, "trial_type": "single-audio", "trial_index": 263, "time_elapsed": 1134922, "internal_node_id": "0.0-191.0"}}, {"uniqueid": "MTK1111:3MHW492WW1KHCJTZ10ARFLH8ZVWVMQ", "current_trial": 264, "dateTime": 1513116023121, "trialdata": {"rt": -1000, "stimulus": "/static/audio/wordpool/GARDEN.wav", "key_press": -1, "type": "PRES_AUD", "word": "garden", "wordID": 622, "conditions": [12, 1600, "a", 12000], "trial": 7, "serialpos": 11, "trial_type": "single-audio", "trial_index": 264, "time_elapsed": 1137400, "internal_node_id": "0.0-192.0"}}, {"uniqueid": "MTK1111:3MHW492WW1KHCJTZ10ARFLH8ZVWVMQ", "current_trial": 265, "dateTime": 1513116024401, "trialdata": {"rt": -1, "stimulus": "", "key_press": -1, "type": "PRE_RECALL_DELAY", "trial_type": "single-stim", "trial_index": 265, "time_elapsed": 1138679, "internal_node_id": "0.0-193.0-0.0"}}, {"uniqueid": "MTK1111:3MHW492WW1KHCJTZ10ARFLH8ZVWVMQ", "current_trial": 266, "dateTime": 1513116024907, "trialdata": {"rt": -1000, "stimulus": "/static/audio/400Hz.wav", "key_press": -1, "type": "PRE_RECALL_ALERT", "trial_type": "single-audio", "trial_index": 266, "time_elapsed": 1139186, "internal_node_id": "0.0-194.0"}}, {"uniqueid": "MTK1111:3MHW492WW1KHCJTZ10ARFLH8ZVWVMQ", "current_trial": 267, "dateTime": 1513116084911, "trialdata": {"rt": [1972, 4667, 6377, 8665, 10775, 12349, 16132], "recwords": ["pizza", "lizard", "garden", "boyfriend", "catcher", "parrot", "pizza"], "type": "FREE_RECALL", "conditions": [12, 1600, "a", 12000], "trial": 7, "trial_type": "free-recall", "trial_index": 267, "time_elapsed": 1199187, "internal_node_id": "0.0-195.0-0.0"}}, {"uniqueid": "MTK1111:3MHW492WW1KHCJTZ10ARFLH8ZVWVMQ", "current_trial": 268, "dateTime": 1513116087305, "trialdata": {"rt": 394, "key_press": 13, "type": "INSTRUCTIONS", "trial_type": "text", "trial_index": 268, "time_elapsed": 1201584, "internal_node_id": "0.0-196.0"}}, {"uniqueid": "MTK1111:3MHW492WW1KHCJTZ10ARFLH8ZVWVMQ", "current_trial": 269, "dateTime": 1513116113309, "trialdata": {"rt": [1992, 3497, 7908, 9717, 11180, 12634, 14925, 17221, 19553, 21980, 23898], "responses": ["11", "15", "26", "14", "14", "11", "16", "12", "15", "17", "10"], "num1": [2, 5, 8, 1, 5, 1, 8, 4, 6, 8, 4, 4], "num2": [5, 7, 9, 8, 5, 7, 1, 1, 2, 5, 3, 4], "num3": [4, 3, 9, 5, 4, 3, 7, 7, 7, 4, 3, 6], "type": "DISTRACTOR", "conditions": [24, 800, "a", 24000], "trial": 8, "trial_type": "math-distractor", "trial_index": 269, "time_elapsed": 1227588, "internal_node_id": "0.0-197.0"}}, {"uniqueid": "MTK1111:3MHW492WW1KHCJTZ10ARFLH8ZVWVMQ", "current_trial": 270, "dateTime": 1513116116311, "trialdata": {"rt": -1, "stimulus": "<p id=\"stim\">10</p>", "key_press": -1, "trial_type": "single-stim", "trial_index": 270, "time_elapsed": 1230590, "internal_node_id": "0.0-198.0-0.0"}}, {"uniqueid": "MTK1111:3MHW492WW1KHCJTZ10ARFLH8ZVWVMQ", "current_trial": 271, "dateTime": 1513116117312, "trialdata": {"rt": -1, "stimulus": "<p id=\"stim\">9</p>", "key_press": -1, "trial_type": "single-stim", "trial_index": 271, "time_elapsed": 1231591, "internal_node_id": "0.0-198.0-1.0"}}, {"uniqueid": "MTK1111:3MHW492WW1KHCJTZ10ARFLH8ZVWVMQ", "current_trial": 272, "dateTime": 1513116118314, "trialdata": {"rt": -1, "stimulus": "<p id=\"stim\">8</p>", "key_press": -1, "trial_type": "single-stim", "trial_index": 272, "time_elapsed": 1232592, "internal_node_id": "0.0-198.0-2.0"}}, {"uniqueid": "MTK1111:3MHW492WW1KHCJTZ10ARFLH8ZVWVMQ", "current_trial": 273, "dateTime": 1513116119315, "trialdata": {"rt": -1, "stimulus": "<p id=\